DTS Sentinel unit serial number:	SN410029Multiplexer serial number:	ORYXHardware model number:	OX2-SRSoftware version number:	ORYX F/W v4,00 Oryx Data Collector v3.7.2.0data status	okinstallation	B6 Nyhavnadifferential loss correction	single-endedforward channel	channel 2reverse channel	N/Adate	2023/12/09time	12:35:08forward acquisition time	300,00reverse acquisition time	0,00gamma	499,1914k internal	0,3137k external	0,3137temperature offset calibration	1,0000default loss term (dB/km)	0,3820temperature slope calibration	1,0000multiplexer offset coefficient	1,0000multiplexer slope coefficient	1,0000fibre end	0,00T internal ref (°C)	19,39T ext. ref 1 (°C)	4,03T ext. ref 2 (°C)	4,03length (m)	temperature (°C)	Stokes	anti-Stokes-744,400	320,393	0,018	-0,025
-743,385	-133,558	-0,251	0,023
-742,371	361,782	0,071	0,106
-741,356	31,525	-0,225	0,143
-740,342	-28,242	0,108	0,046
-739,327	-32,322	-0,210	0,086
-738,312	186,141	0,072	-0,080
-737,298	-166,901	-0,302	0,009
-736,283	423,646	0,046	0,074
-735,269	0,256	-0,149	0,078
-734,254	-200,000	-0,004	-0,059
-733,239	-55,746	-0,349	-0,115
-732,225	-119,974	0,044	-0,006
-731,210	269,977	-0,005	-0,006
-730,196	-85,536	0,041	0,009
-729,181	-56,355	-0,059	-0,019
-728,167	369,844	-0,094	-0,142
-727,152	-200,000	-0,032	0,115
-726,137	215,029	-0,128	-0,150
-725,123	151,429	-0,037	0,038
-724,108	-43,344	-0,177	-0,066
-723,094	-115,806	-0,163	0,022
-722,079	-200,000	0,006	0,072
-721,064	43,203	-0,077	-0,052
-720,050	159,622	0,086	-0,089
-719,035	109,931	-0,028	-0,025
-718,021	0,297	-0,099	-0,052
-717,006	-90,794	0,133	-0,028
-715,991	112,271	-0,099	-0,088
-714,977	19,911	-0,094	-0,056
-713,962	303,324	-0,116	-0,160
-712,948	-200,000	0,009	-0,036
-711,933	307,946	-0,067	0,093
-710,918	800,000	-0,031	0,081
-709,904	176,261	-0,112	0,121
-708,889	-110,554	-0,070	0,011
-707,875	-200,000	0,011	-0,102
-706,860	-59,465	0,105	0,033
-705,845	800,000	-0,014	-0,038
-704,831	-200,000	-0,000	0,097
-703,816	-194,483	-0,203	0,001
-702,802	533,427	-0,036	-0,064
-701,787	-5,061	0,049	-0,025
-700,772	-174,887	0,029	-0,001
-699,758	-200,000	-0,014	0,089
-698,743	800,000	0,027	-0,080
-697,729	800,000	0,048	-0,102
-696,714	173,283	0,105	-0,113
-695,699	518,236	0,023	0,041
-694,685	572,110	-0,043	-0,077
-693,670	509,100	0,050	-0,086
-692,656	741,188	-0,062	-0,125
-691,641	-94,079	-0,036	-0,007
-690,627	467,129	-0,030	-0,049
-689,612	-159,504	-0,057	-0,002
-688,597	-133,218	0,026	-0,002
-687,583	-200,000	-0,039	-0,138
-686,568	-200,000	0,030	-0,130
-685,554	-137,268	-0,019	0,002
-684,539	-59,091	0,116	0,037
-683,524	-200,000	0,000	-0,084
-682,510	372,040	-0,063	0,095
-681,495	-64,372	-0,154	0,046
-680,481	443,679	0,033	-0,054
-679,466	-97,454	-0,066	0,013
-678,451	-5,398	0,015	-0,008
-677,437	-69,775	0,040	0,011
-676,422	306,210	0,024	0,033
-675,408	-10,347	-0,086	0,042
-674,393	-200,000	0,005	0,093
-673,378	-200,000	0,002	-0,064
-672,364	139,601	-0,015	-0,015
-671,349	-126,561	-0,122	-0,013
-670,335	41,184	-0,015	-0,010
-669,320	-30,520	-0,080	0,033
-668,305	-104,163	0,047	-0,008
-667,291	37,665	-0,070	0,046
-666,276	412,127	-0,056	-0,089
-665,262	142,643	0,080	0,078
-664,247	-71,508	-0,058	-0,016
-663,232	117,477	-0,098	0,089
-662,218	-84,985	0,180	0,041
-661,203	27,602	0,077	0,048
-660,189	47,221	0,060	0,041
-659,174	254,170	0,099	-0,126
-658,159	-200,000	-0,012	-0,078
-657,145	222,251	-0,036	0,043
-656,130	5,995	-0,134	0,073
-655,116	120,328	0,109	-0,100
-654,101	278,655	0,036	-0,047
-653,086	-200,000	-0,040	-0,152
-652,072	380,334	-0,069	-0,105
-651,057	-200,000	-0,022	-0,106
-650,043	-48,324	0,081	0,029
-649,028	-200,000	0,007	0,110
-648,014	70,521	-0,071	0,054
-646,999	-127,029	0,129	0,014
-645,984	-200,000	-0,017	0,064
-644,970	112,232	0,088	-0,079
-643,955	800,000	0,021	-0,048
-642,941	1,766	-0,083	0,044
-641,926	800,000	-0,013	-0,029
-640,911	-6,671	-0,103	0,052
-639,897	-200,000	-0,010	0,038
-638,882	190,731	0,098	0,109
-637,868	263,461	0,071	0,091
-636,853	-57,418	-0,051	-0,017
-635,838	588,474	0,071	-0,130
-634,824	308,608	-0,088	0,122
-633,809	-11,449	-0,094	-0,045
-632,795	-12,906	0,116	-0,055
-631,780	800,000	0,019	0,042
-630,765	-200,000	0,028	0,106
-629,751	394,738	-0,058	0,090
-628,736	-200,000	-0,020	-0,119
-627,722	671,232	0,027	-0,053
-626,707	679,409	-0,012	-0,023
-625,692	-31,536	-0,025	-0,010
-624,678	70,335	0,060	-0,046
-623,663	110,771	-0,070	0,062
-622,649	14,627	-0,056	-0,032
-621,634	-49,678	0,046	-0,016
-620,619	21,543	0,110	0,066
-619,605	180,775	-0,043	-0,047
-618,590	662,327	0,008	0,015
-617,576	-200,000	0,010	-0,099
-616,561	153,020	0,018	0,018
-615,546	37,140	-0,023	0,015
-614,532	510,190	0,037	-0,065
-613,517	-200,000	0,030	-0,101
-612,503	-98,758	-0,206	0,038
-611,488	-200,000	0,004	0,039
-610,474	-146,742	0,201	-0,013
-609,459	452,321	0,038	0,063
-608,444	-137,763	-0,094	0,008
-607,430	178,126	0,082	-0,088
-606,415	-200,000	-0,000	-0,034
-605,401	226,381	0,034	0,041
-604,386	-200,000	0,001	0,037
-603,371	174,030	-0,054	-0,057
-602,357	121,449	0,067	-0,062
-601,342	-106,699	0,048	-0,008
-600,328	800,000	-0,014	-0,035
-599,313	-200,000	0,002	0,077
-598,298	800,000	0,026	-0,063
-597,284	-200,000	0,010	-0,116
-596,269	-178,982	0,081	-0,001
-595,255	99,357	-0,058	0,050
-594,240	-200,000	-0,013	0,055
-593,225	186,633	0,013	-0,015
-592,211	-200,000	0,023	-0,086
-591,196	800,000	-0,047	-0,135
-590,182	-48,704	0,052	0,018
-589,167	-113,786	-0,037	-0,005
-588,152	625,954	-0,043	0,081
-587,138	-200,000	-0,025	-0,086
-586,123	58,965	-0,015	0,011
-585,109	3,896	-0,132	0,071
-584,094	-159,361	0,110	-0,004
-583,079	-200,000	0,010	0,048
-582,065	-200,000	0,019	-0,095
-581,050	-200,000	0,029	0,104
-580,036	8,648	-0,080	0,044
-579,021	-104,000	0,139	0,024
-578,006	530,153	0,054	-0,095
-576,992	-200,000	-0,026	-0,105
-575,977	54,606	-0,114	-0,081
-574,963	5,120	0,150	-0,081
-573,948	-6,434	-0,036	0,018
-572,934	136,526	-0,045	-0,043
-571,919	-148,374	0,059	0,004
-570,904	400,766	0,051	0,079
-569,890	-200,000	0,017	0,072
-568,875	-108,334	0,048	-0,007
-567,861	314,445	0,101	0,140
-566,846	65,081	0,122	0,090
-565,831	-128,105	-0,059	0,006
-564,817	800,000	-0,055	-0,122
-563,802	800,000	-0,068	-0,139
-562,788	201,152	0,012	0,013
-561,773	132,119	-0,030	0,029
-560,758	414,559	-0,023	0,037
-559,744	-200,000	-0,009	0,131
-558,729	-200,000	0,009	-0,075
-557,715	152,868	-0,086	-0,087
-556,700	-117,189	0,048	0,006
-555,685	25,532	0,050	0,031
-554,671	-108,409	0,062	0,010
-553,656	-200,000	-0,036	0,152
-552,642	-72,056	0,135	0,037
-551,627	296,279	-0,010	-0,014
-550,612	-200,000	-0,007	-0,120
-549,598	-49,399	-0,112	-0,039
-548,583	-200,000	-0,007	-0,127
-547,569	617,819	0,009	0,017
-546,554	-200,000	0,010	0,078
-545,539	17,049	-0,059	-0,034
-544,525	15,349	0,032	-0,018
-543,510	800,000	0,022	0,055
-542,496	317,500	-0,050	-0,070
-541,481	-160,574	-0,043	-0,002
-540,466	134,482	-0,079	-0,075
-539,452	-200,000	0,000	0,002
-538,437	800,000	0,083	0,204
-537,423	-166,389	-0,061	-0,002
-536,408	-11,235	-0,052	-0,025
-535,393	-10,575	-0,088	-0,043
-534,379	-200,000	-0,031	0,155
-533,364	-71,846	-0,083	-0,022
-532,350	-200,000	0,082	0,288
-531,335	111,833	0,097	0,086
-530,321	800,000	0,034	0,095
-529,306	-99,700	-0,036	0,007
-528,291	57,439	-0,019	-0,013
-527,277	83,868	-0,019	-0,015
-526,262	145,917	0,056	-0,055
-525,248	-45,967	0,149	0,054
-524,233	535,351	0,051	0,089
-523,218	-133,262	0,048	0,004
-522,204	800,000	-0,036	-0,086
-521,189	134,916	0,100	-0,095
-520,175	800,000	0,067	-0,139
-519,160	-200,000	-0,010	-0,050
-518,145	31,223	0,022	-0,014
-517,131	-146,765	0,164	0,010
-516,116	-44,980	-0,076	-0,028
-515,102	7,928	0,072	-0,040
-514,087	-200,000	-0,011	-0,062
-513,072	800,000	-0,017	-0,048
-512,058	163,397	0,032	-0,033
-511,043	216,463	-0,095	0,111
-510,029	-48,851	0,095	0,033
-509,014	27,420	-0,036	-0,022
-507,999	87,136	-0,018	-0,015
-506,985	268,896	0,104	-0,134
-505,970	-5,981	-0,091	-0,046
-504,956	163,700	-0,094	0,097
-503,941	-9,559	0,070	0,034
-502,926	-165,423	0,098	0,003
-501,912	108,727	0,150	0,132
-500,897	-175,732	-0,122	0,002
-499,883	64,371	0,015	0,011
-498,868	-200,000	-0,024	-0,124
-497,853	366,749	-0,039	-0,058
-496,839	-75,744	-0,113	0,029
-495,824	-78,888	0,048	0,012
-494,810	15,779	-0,106	0,061
-493,795	-200,000	0,004	0,106
-492,781	800,000	-0,011	-0,033
-491,766	-200,000	0,003	-0,096
-490,751	11,643	-0,079	0,045
-489,737	-39,195	0,060	-0,023
-488,722	-200,000	0,007	-0,093
-487,708	-200,000	-0,006	0,046
-486,693	705,653	0,057	0,110
-485,678	-200,000	-0,001	-0,016
-484,664	22,898	0,160	-0,096
-483,649	-75,582	-0,077	0,020
-482,635	800,000	-0,045	-0,101
-481,620	-19,723	-0,049	0,022
-480,605	-200,000	0,001	0,142
-479,591	-200,000	0,005	0,175
-478,576	167,796	0,073	0,076
-477,562	292,858	0,048	-0,065
-476,547	67,952	0,107	-0,080
-475,532	63,159	0,104	0,076
-474,518	-200,000	-0,015	-0,128
-473,503	31,601	0,173	0,109
-472,489	435,726	0,090	0,144
-471,474	316,177	-0,089	0,123
-470,459	339,501	0,058	-0,083
-469,445	-66,641	-0,107	-0,031
-468,430	-200,000	0,020	0,092
-467,416	800,000	0,023	-0,048
-466,401	-67,201	-0,038	0,011
-465,386	-166,809	0,137	0,004
-464,372	41,814	0,043	0,028
-463,357	-141,066	-0,042	0,003
-462,343	7,374	0,059	0,032
-461,328	-200,000	0,005	-0,064
-460,313	-33,592	0,090	0,036
-459,299	-200,000	0,010	0,130
-458,284	227,112	0,034	0,040
-457,270	145,083	0,039	0,039
-456,255	-82,692	-0,145	-0,034
-455,241	186,051	-0,106	-0,115
-454,226	716,633	-0,046	-0,091
-453,211	-59,202	0,107	-0,034
-452,197	-120,305	0,155	0,019
-451,182	800,000	0,001	0,001
-450,168	-200,000	-0,010	0,124
-449,153	-158,331	0,105	0,004
-448,138	-200,000	0,005	-0,157
-447,124	-140,488	-0,065	0,005
-446,109	-200,000	0,004	-0,045
-445,095	-200,000	-0,031	0,116
-444,080	421,244	0,039	0,062
-443,065	175,214	-0,021	0,023
-442,051	800,000	0,008	0,026
-441,036	-184,832	-0,090	-0,001
-440,022	258,159	-0,016	-0,020
-439,007	800,000	0,042	-0,098
-437,992	800,000	0,023	-0,055
-436,978	61,441	0,099	0,072
-435,963	434,913	-0,120	0,192
-434,949	408,918	-0,048	0,075
-433,934	-200,000	-0,002	0,015
-432,919	97,234	-0,080	0,068
-431,905	-8,065	-0,046	0,022
-430,890	33,672	0,082	0,052
-429,876	-200,000	0,018	0,178
-428,861	71,219	0,170	0,129
-427,846	31,976	-0,023	-0,014
-426,832	80,287	-0,059	0,046
-425,817	591,971	-0,080	-0,146
-424,803	67,039	-0,062	-0,046
-423,788	-83,208	0,111	0,026
-422,773	-106,114	0,105	0,017
-421,759	-200,000	0,025	0,141
-420,744	96,098	0,095	-0,080
-419,730	-153,133	0,115	0,006
-418,715	438,472	-0,084	-0,135
-417,701	110,068	0,063	-0,056
-416,686	57,529	-0,098	-0,070
-415,671	692,694	-0,029	0,056
-414,657	502,418	0,041	0,070
-413,642	93,253	-0,131	0,108
-412,628	800,000	0,031	0,084
-411,613	173,024	-0,083	-0,087
-410,598	84,775	-0,012	0,009
-409,584	48,312	0,172	0,118
-408,569	323,671	-0,008	-0,011
-407,555	13,242	-0,109	-0,062
-406,540	3,857	0,095	0,051
-405,525	-25,438	-0,072	0,031
-404,511	-200,000	-0,012	0,135
-403,496	-92,027	-0,021	-0,004
-402,482	-40,767	-0,073	0,028
-401,467	-200,000	-0,004	-0,016
-400,452	-200,000	-0,053	-0,226
-399,438	15,237	-0,128	0,073
-398,423	3,842	-0,179	-0,095
-397,409	-153,140	0,041	-0,002
-396,394	800,000	-0,044	-0,130
-395,379	-200,000	-0,006	-0,032
-394,365	764,766	0,030	0,059
-393,350	800,000	0,064	0,149
-392,336	-200,000	-0,018	0,102
-391,321	-153,362	-0,101	0,005
-390,306	658,816	-0,044	0,084
-389,292	800,000	0,036	-0,089
-388,277	72,056	-0,025	0,019
-387,263	-200,000	-0,009	-0,120
-386,248	93,933	0,076	-0,063
-385,233	-200,000	0,011	-0,043
-384,219	648,624	0,046	-0,087
-383,204	-115,755	-0,079	0,011
-382,190	800,000	-0,033	-0,102
-381,175	229,871	0,071	-0,085
-380,160	241,164	0,048	0,059
-379,146	-32,130	0,049	-0,020
-378,131	-200,000	-0,005	0,040
-377,117	-112,944	-0,116	-0,017
-376,102	800,000	-0,028	0,077
-375,088	29,613	-0,053	0,033
-374,073	-200,000	-0,017	0,099
-373,058	-110,956	0,043	0,006
-372,044	164,172	-0,075	0,077
-371,029	238,827	-0,033	-0,040
-370,015	800,000	-0,019	-0,060
-369,000	141,927	0,077	0,074
-367,985	-200,000	-0,004	-0,118
-366,971	680,638	0,041	-0,078
-365,956	800,000	-0,054	0,118
-364,942	-16,534	0,069	0,032
-363,927	209,851	-0,020	-0,023
-362,912	-200,000	-0,025	0,093
-361,898	117,503	0,084	-0,076
-360,883	-84,103	-0,151	0,035
-359,869	-53,427	0,128	-0,043
-358,854	52,539	-0,038	-0,026
-357,839	122,306	0,092	-0,084
-356,825	-111,232	0,022	0,003
-355,810	-27,927	-0,122	0,051
-354,796	-200,000	0,002	-0,101
-353,781	-200,000	-0,030	-0,163
-352,766	-200,000	-0,087	-0,296
-351,752	317,733	-0,085	0,118
-350,737	-19,890	0,078	0,035
-349,723	-200,000	-0,053	-0,000
-348,708	800,000	0,008	-0,018
-347,693	22,470	-0,067	0,040
-346,679	-150,015	-0,040	0,002
-345,664	207,689	-0,055	0,063
-344,650	-200,000	0,013	0,057
-343,635	800,000	-0,015	0,041
-342,620	-123,507	0,098	0,011
-341,606	689,655	0,082	0,158
-340,591	195,150	-0,065	-0,072
-339,577	-200,000	0,011	-0,149
-338,562	525,477	0,030	-0,052
-337,548	-200,000	0,020	-0,112
-336,533	340,832	0,045	0,064
-335,518	121,056	0,090	0,081
-334,504	8,559	0,055	-0,030
-333,489	225,282	-0,051	0,061
-332,475	116,116	-0,060	-0,054
-331,460	-200,000	-0,001	-0,088
-330,445	-200,000	-0,025	-0,122
-329,431	-33,651	-0,081	0,032
-328,416	312,880	0,081	0,112
-327,402	-200,000	0,004	0,017
-326,387	124,152	-0,097	0,089
-325,372	-57,311	-0,037	-0,012
-324,358	227,233	-0,079	-0,094
-323,343	14,252	-0,145	0,082
-322,329	800,000	-0,040	0,088
-321,314	316,708	0,053	0,073
-320,299	-200,000	0,020	-0,145
-319,285	342,846	0,080	-0,115
-318,270	-81,267	-0,047	-0,011
-317,256	0,652	-0,076	-0,040
-316,241	-46,483	-0,240	-0,086
-315,226	-14,861	-0,074	0,034
-314,212	-46,917	0,104	-0,037
-313,197	424,324	0,019	0,031
-312,183	160,193	-0,082	0,084
-311,168	-200,000	-0,012	-0,090
-310,153	72,314	-0,097	-0,074
-309,139	-200,000	-0,018	0,131
-308,124	743,409	0,099	0,196
-307,110	-200,000	0,008	-0,123
-306,095	673,419	-0,073	0,139
-305,080	-200,000	0,010	-0,044
-304,066	-53,446	-0,075	0,025
-303,051	-200,000	-0,041	-0,207
-302,037	217,647	0,036	-0,041
-301,022	-41,724	0,090	0,033
-300,008	17,748	0,058	-0,034
-298,993	-200,000	-0,014	0,050
-297,978	-131,724	0,097	0,009
-296,964	219,009	0,039	-0,045
-295,949	565,940	-0,058	-0,103
-294,935	-122,371	-0,100	-0,012
-293,920	-200,000	0,013	-0,044
-292,905	-200,000	0,008	-0,044
-291,891	-200,000	-0,002	-0,117
-290,876	-200,000	0,002	-0,051
-289,862	-200,000	-0,002	0,072
-288,847	619,091	-0,077	-0,142
-287,832	-127,303	-0,211	0,022
-286,818	243,833	0,092	-0,113
-285,803	258,390	0,055	0,069
-284,789	-46,731	0,115	-0,041
-283,774	-124,431	0,194	-0,022
-282,759	323,139	-0,032	0,044
-281,745	279,396	-0,059	0,077
-280,730	-43,618	-0,153	0,056
-279,716	8,469	0,075	-0,041
-278,701	-35,338	-0,118	-0,047
-277,686	-57,383	0,052	0,016
-276,672	-200,000	0,013	0,065
-275,657	-60,501	0,107	0,033
-274,643	800,000	0,003	0,007
-273,628	532,952	-0,007	0,012
-272,613	-129,549	-0,047	0,005
-271,599	391,130	-0,055	0,084
-270,584	800,000	0,025	0,073
-269,570	-200,000	-0,120	-0,000
-268,555	800,000	-0,063	-0,140
-267,540	-20,413	0,039	0,017
-266,526	-31,133	0,091	-0,037
-265,511	-200,000	-0,029	-0,146
-264,497	-151,836	0,038	-0,002
-263,482	281,543	0,070	-0,092
-262,467	-104,643	-0,063	0,011
-261,453	-114,065	-0,143	-0,020
-260,438	16,581	-0,065	0,037
-259,424	56,340	0,050	-0,035
-258,409	-200,000	0,005	0,041
-257,395	-200,000	0,011	-0,044
-256,380	-41,788	0,055	-0,020
-255,365	113,905	0,046	-0,041
-254,351	290,450	0,064	0,085
-253,336	-200,000	0,013	0,077
-252,322	-129,885	0,049	0,005
-251,307	394,719	0,042	-0,064
-250,292	15,023	-0,094	-0,054
-249,278	272,463	-0,019	-0,024
-248,263	589,734	0,047	0,084
-247,249	800,000	0,014	-0,040
-246,234	71,304	-0,116	-0,087
-245,219	463,223	0,026	-0,042
-244,205	-55,545	0,056	0,018
-243,190	-200,000	0,001	0,100
-242,176	-200,000	0,039	0,128
-241,161	800,000	-0,034	0,073
-240,146	-124,191	0,033	0,004
-239,132	800,000	0,043	-0,129
-238,117	79,764	-0,061	0,047
-237,103	39,104	0,098	0,063
-236,088	800,000	0,039	0,100
-235,073	-200,000	0,004	0,199
-234,059	-77,248	0,036	-0,009
-233,044	-47,626	0,015	0,005
-232,030	48,271	-0,082	-0,056
-231,015	800,000	-0,050	-0,110
-230,000	-48,244	-0,068	-0,024
-228,986	-200,000	0,003	0,103
-227,971	2,723	0,046	-0,024
-226,957	37,277	0,155	-0,100
-225,942	800,000	-0,033	0,067
-224,927	90,941	0,024	-0,020
-223,913	-200,000	0,002	-0,010
-222,898	748,821	-0,026	0,051
-221,884	800,000	0,031	-0,078
-220,869	29,830	0,034	-0,021
-219,855	54,359	0,086	0,060
-218,840	62,417	0,033	0,024
-217,825	328,581	0,068	-0,096
-216,811	108,278	-0,015	0,013
-215,796	-139,932	-0,090	-0,007
-214,782	-200,000	0,010	-0,099
-213,767	70,495	0,067	0,051
-212,752	-200,000	-0,001	0,004
-211,738	176,799	0,159	0,168
-210,723	-143,192	0,018	-0,001
-209,709	-200,000	-0,013	0,073
-208,694	-200,000	-0,035	-0,131
-207,679	-200,000	0,000	0,030
-206,665	-200,000	0,028	0,159
-205,650	800,000	0,020	-0,051
-204,636	-26,245	-0,027	0,011
-203,621	-148,223	-0,120	-0,007
-202,606	78,518	-0,036	0,028
-201,592	800,000	-0,068	-0,180
-200,577	-200,000	-0,001	-0,166
-199,563	-200,000	0,054	-0,180
-198,548	374,664	-0,039	0,058
-197,533	-56,366	-0,089	0,029
-196,519	-200,000	-0,025	0,143
-195,504	12,590	-0,018	0,010
-194,490	31,316	-0,103	-0,064
-193,475	-92,942	-0,066	0,013
-192,460	800,000	-0,022	-0,060
-191,446	-200,000	-0,012	0,058
-190,431	800,000	0,039	0,086
-189,417	800,000	0,078	0,183
-188,402	211,263	-0,084	0,096
-187,387	-57,175	-0,071	-0,023
-186,373	797,977	0,062	0,124
-185,358	279,236	-0,048	-0,063
-184,344	-22,311	0,044	-0,019
-183,329	639,344	0,032	0,059
-182,315	-131,828	-0,054	-0,005
-181,300	-18,332	0,009	-0,004
-180,285	-200,000	-0,000	-0,203
-179,271	800,000	0,055	-0,120
-178,256	-73,180	-0,056	0,015
-177,242	-59,980	0,072	0,022
-176,227	-28,613	-0,112	0,047
-175,212	56,632	0,012	-0,009
-174,198	761,583	0,039	-0,076
-173,183	497,255	-0,047	-0,079
-172,169	-200,000	0,059	-0,229
-171,154	-200,000	0,032	-0,116
-170,139	800,000	0,036	-0,113
-169,125	298,196	-0,071	0,095
-168,110	800,000	-0,025	0,061
-167,096	-166,844	-0,161	0,005
-166,081	305,091	-0,092	0,124
-165,066	517,779	0,046	-0,079
-164,052	-200,000	0,022	0,076
-163,037	-114,630	-0,051	0,007
-162,023	178,191	0,048	0,051
-161,008	800,000	-0,034	-0,096
-159,993	800,000	-0,018	0,043
-158,979	-118,164	-0,145	0,019
-157,964	484,737	0,039	0,064
-156,950	57,015	0,081	0,057
-155,935	800,000	0,035	-0,104
-154,920	40,776	0,075	-0,049
-153,906	8,748	-0,023	-0,013
-152,891	-89,982	-0,079	0,017
-151,877	203,229	0,070	-0,078
-150,862	-200,000	0,008	0,030
-149,847	-52,406	-0,098	-0,033
-148,833	-16,150	0,102	-0,047
-147,818	517,983	0,005	-0,009
-146,804	-164,551	-0,058	-0,002
-145,789	17,638	0,056	0,032
-144,775	800,000	-0,011	0,034
-143,760	-200,000	-0,000	0,016
-142,745	-37,615	-0,163	-0,063
-141,731	-183,511	0,197	-0,002
-140,716	-200,000	0,017	0,138
-139,702	507,723	0,038	-0,065
-138,687	54,824	-0,101	-0,071
-137,672	25,809	-0,128	0,077
-136,658	688,999	0,039	-0,075
-135,643	19,974	-0,056	0,033
-134,629	-119,313	0,069	-0,009
-133,614	21,105	-0,138	0,081
-132,599	221,810	0,076	0,089
-131,585	800,000	-0,052	0,111
-130,570	-200,000	0,004	-0,030
-129,556	527,719	-0,056	-0,095
-128,541	-61,565	-0,066	0,020
-127,526	-51,827	-0,032	-0,011
-126,512	-200,000	0,029	-0,107
-125,497	-200,000	0,002	-0,044
-124,483	156,377	0,100	-0,100
-123,468	-50,431	-0,063	-0,022
-122,453	75,167	0,110	-0,084
-121,439	-135,811	-0,044	0,004
-120,424	47,309	-0,044	-0,030
-119,410	25,368	0,097	0,058
-118,395	372,807	0,058	-0,085
-117,380	35,138	0,151	0,095
-116,366	405,747	-0,038	0,059
-115,351	91,792	0,058	-0,047
-114,337	126,792	-0,075	0,069
-113,322	-200,000	-0,001	0,112
-112,307	800,000	0,014	0,040
-111,293	180,482	-0,021	-0,022
-110,278	-24,319	-0,046	-0,020
-109,264	-200,000	0,025	-0,184
-108,249	45,271	-0,127	-0,085
-107,234	800,000	-0,048	-0,145
-106,220	227,618	-0,032	-0,038
-105,205	-138,593	-0,051	0,004
-104,191	-200,000	-0,004	0,017
-103,176	-200,000	-0,012	0,153
-102,162	579,869	0,061	0,108
-101,147	469,885	-0,050	-0,082
-100,132	-129,569	-0,136	-0,013
-99,118	103,185	-0,059	-0,050
-98,103	-200,000	-0,019	-0,063
-97,089	-17,499	0,079	-0,036
-96,074	-200,000	0,017	-0,076
-95,059	-200,000	-0,003	-0,038
-94,045	-0,155	-0,036	-0,019
-93,030	-200,000	0,005	-0,111
-92,016	-200,000	0,035	0,136
-91,001	-132,228	0,085	0,008
-89,986	-83,343	-0,053	0,012
-88,972	223,126	0,027	-0,032
-87,957	1,656	0,086	-0,045
-86,943	800,000	-0,042	-0,118
-85,928	83,629	0,021	0,016
-84,913	-155,990	0,087	-0,004
-83,899	-200,000	-0,002	0,050
-82,884	31,326	0,099	0,062
-81,870	-200,000	-0,033	0,167
-80,855	205,936	0,122	0,137
-79,840	-200,000	0,021	0,092
-78,826	800,000	-0,043	-0,110
-77,811	121,249	-0,098	-0,088
-76,797	-200,000	0,020	-0,109
-75,782	-200,000	0,023	0,083
-74,767	260,698	0,069	0,087
-73,753	180,272	0,066	-0,070
-72,738	-155,448	0,070	0,003
-71,724	-137,306	-0,094	0,008
-70,709	-58,028	-0,188	0,059
-69,694	-200,000	0,020	0,158
-68,680	800,000	0,014	0,040
-67,665	64,764	0,056	-0,040
-66,651	-200,000	-0,001	0,020
-65,636	-200,000	0,004	0,081
-64,622	157,338	-0,044	-0,044
-63,607	64,727	0,177	-0,129
-62,592	572,180	0,042	0,075
-61,578	392,022	-0,076	-0,115
-60,563	800,000	0,085	0,222
-59,549	197,953	-0,050	0,055
-58,534	-84,113	-1,735	-0,395
-57,519	800,000	-0,488	-1,448
-56,505	-200,000	-1,054	-4,774
-55,490	-77,490	0,727	-0,181
-54,476	800,000	5,049	12,122
-53,461	-200,000	15,214	262,098
-52,446	800,000	697,492	2191,143
-51,432	544,940	1618,654	2804,314
-50,417	119,179	1627,285	1453,899
-49,403	79,311	1285,126	994,248
-48,388	37,009	1025,616	654,072
-47,373	21,994	986,265	579,503
-46,359	21,104	975,131	570,014
-45,344	19,631	970,878	562,683
-44,330	19,673	969,580	562,045
-43,315	19,454	967,965	560,372
-42,300	19,463	966,953	559,795
-41,286	19,440	966,070	559,187
-40,271	19,466	964,938	558,594
-39,257	19,504	964,015	558,159
-38,242	19,456	963,257	557,544
-37,227	19,393	962,637	556,957
-36,213	19,492	961,526	556,613
-35,198	19,391	960,802	555,846
-34,184	19,451	959,873	555,481
-33,169	19,363	958,931	554,628
-32,154	19,477	958,120	554,507
-31,140	19,437	957,328	553,898
-30,125	19,430	956,624	553,444
-29,111	19,454	955,617	552,915
-28,096	19,413	955,039	552,429
-27,082	19,419	954,248	551,969
-26,067	19,444	953,577	551,639
-25,052	19,385	952,894	551,032
-24,038	19,360	952,261	550,563
-23,023	19,401	951,465	550,212
-22,009	19,487	950,738	550,045
-20,994	19,497	950,084	549,679
-19,979	19,463	949,585	549,258
-18,965	19,380	949,049	548,660
-17,950	19,489	948,351	548,585
-16,936	19,399	947,807	547,963
-15,921	19,282	947,226	547,230
-14,906	19,306	946,388	546,799
-13,892	19,354	945,625	546,492
-12,877	19,315	944,996	545,982
-11,863	19,286	944,326	545,481
-10,848	19,268	944,103	545,273
-9,833	19,370	943,555	545,259
-8,819	19,399	942,934	544,972
-7,804	19,353	942,186	544,372
-6,790	19,309	941,785	543,978
-5,775	19,317	941,224	543,659
-4,760	19,319	940,406	543,171
-3,746	19,293	939,804	542,718
-2,731	19,167	939,101	541,893
-1,717	19,149	938,347	541,379
-0,702	19,185	937,641	541,063
0,313	19,002	936,997	540,929
1,327	22,130	935,619	549,951
2,342	31,610	795,201	492,609
3,356	29,183	450,659	275,501
4,371	-0,583	296,292	151,234
5,386	-4,797	277,591	137,659
6,400	-5,986	271,840	133,684
7,415	-6,324	269,410	132,163
8,429	-6,414	268,300	131,524
9,444	-6,338	267,363	131,123
10,459	-6,348	266,639	130,747
11,473	-6,497	266,060	130,316
12,488	-6,678	265,649	129,937
13,502	-6,908	264,923	129,361
14,517	-6,813	264,425	129,192
15,531	-7,126	264,094	128,735
16,546	-6,998	263,787	128,690
17,561	-7,139	263,428	128,376
18,575	-7,034	263,016	128,258
19,590	-7,124	262,632	127,978
20,604	-7,077	262,320	127,858
21,619	-7,031	262,010	127,737
22,634	-7,155	261,642	127,434
23,648	-7,174	261,392	127,284
24,663	-7,148	261,100	127,154
25,677	-7,137	260,826	127,019
26,692	-7,326	260,581	126,719
27,707	-7,231	260,546	126,776
28,721	-7,212	260,080	126,554
29,736	-7,251	259,753	126,350
30,750	-7,183	259,539	126,295
31,765	-7,346	259,403	126,072
32,780	-7,329	259,138	125,947
33,794	-7,172	258,793	125,907
34,809	-7,450	258,665	125,587
35,823	-7,263	258,361	125,595
36,838	-7,263	258,143	125,477
37,853	-7,266	257,815	125,304
38,867	-7,369	257,717	125,154
39,882	-7,263	257,356	125,061
40,896	-7,346	257,207	124,905
41,911	-7,355	257,124	124,845
42,926	-7,452	256,750	124,567
43,940	-7,529	256,478	124,356
44,955	-7,498	256,365	124,317
45,969	-7,391	255,976	124,212
46,984	-7,659	255,675	123,819
47,999	-8,126	255,610	123,367
49,013	-8,018	255,219	123,263
50,028	-8,068	255,063	123,133
51,042	-8,234	254,877	122,886
52,057	-8,310	254,539	122,646
53,071	-8,041	254,241	122,726
54,086	-8,029	254,156	122,685
55,101	-7,960	254,116	122,714
56,115	-7,630	254,031	122,950
57,130	-7,383	253,974	123,126
58,144	-7,020	253,688	123,292
59,159	-6,861	253,576	123,364
60,174	-7,036	253,205	123,021
61,188	-7,019	252,946	122,899
62,203	-7,018	252,757	122,797
63,217	-7,128	252,522	122,578
64,232	-7,067	252,357	122,539
65,247	-6,952	252,091	122,498
66,261	-7,126	251,893	122,241
67,276	-7,388	251,634	121,879
68,290	-7,601	251,514	121,626
69,305	-7,578	251,210	121,488
70,320	-7,567	250,904	121,339
71,334	-7,355	250,774	121,447
72,349	-6,939	250,720	121,767
73,363	-6,988	250,655	121,683
74,378	-7,044	250,462	121,530
75,393	-6,975	250,148	121,426
76,407	-7,076	249,915	121,216
77,422	-7,247	249,663	120,936
78,436	-7,200	249,687	120,977
79,451	-6,985	249,391	121,006
80,466	-7,188	249,061	120,663
81,480	-7,284	248,809	120,448
82,495	-7,529	248,664	120,159
83,509	-7,379	248,485	120,189
84,524	-7,479	248,263	119,987
85,539	-7,605	247,929	119,707
86,553	-7,595	247,668	119,580
87,568	-7,575	247,708	119,605
88,582	-7,585	247,540	119,505
89,597	-7,386	247,218	119,506
90,611	-7,370	247,206	119,504
91,626	-7,222	247,035	119,535
92,641	-7,178	246,885	119,489
93,655	-7,271	246,597	119,261
94,670	-7,388	246,473	119,092
95,684	-7,368	246,214	118,972
96,699	-7,535	246,105	118,768
97,714	-7,483	245,873	118,690
98,728	-7,603	245,723	118,506
99,743	-7,717	245,436	118,262
100,757	-7,836	245,246	118,061
101,772	-7,573	245,083	118,191
102,787	-7,504	244,905	118,152
103,801	-7,312	244,738	118,222
104,816	-7,240	244,519	118,166
105,830	-7,244	244,442	118,115
106,845	-7,126	244,337	118,151
107,860	-7,138	244,138	118,035
108,874	-7,254	243,836	117,782
109,889	-7,193	243,596	117,706
110,903	-7,547	243,534	117,372
111,918	-7,443	243,275	117,322
112,933	-7,318	243,159	117,360
113,947	-7,240	243,078	117,375
114,962	-7,016	242,751	117,392
115,976	-7,135	242,583	117,202
116,991	-7,397	242,535	116,952
118,006	-7,254	242,284	116,938
119,020	-7,047	242,146	117,032
120,035	-7,217	242,034	116,827
121,049	-7,252	241,811	116,680
122,064	-7,253	241,665	116,598
123,079	-7,192	241,457	116,538
124,093	-7,317	241,214	116,307
125,108	-7,588	241,142	116,040
126,122	-7,696	240,768	115,761
127,137	-7,887	240,676	115,550
128,151	-7,605	240,395	115,635
129,166	-7,639	240,270	115,538
130,181	-7,570	240,082	115,493
131,195	-7,573	239,839	115,363
132,210	-7,345	239,648	115,448
133,224	-7,412	239,818	115,464
134,239	-7,064	239,420	115,546
135,254	-7,083	239,283	115,453
136,268	-7,514	239,138	115,023
137,283	-7,566	238,796	114,805
138,297	-7,776	238,653	114,556
139,312	-7,698	238,463	114,518
140,327	-7,153	238,308	114,875
141,341	-7,006	238,386	115,021
142,356	-6,903	238,248	115,029
143,370	-6,874	238,101	114,971
144,385	-6,675	237,927	115,038
145,400	-6,778	237,675	114,822
146,414	-6,816	237,575	114,733
147,429	-6,912	237,269	114,497
148,443	-6,797	237,081	114,490
149,458	-6,790	236,941	114,417
150,473	-7,034	236,942	114,210
151,487	-6,788	236,501	114,186
152,502	-7,014	236,474	113,981
153,516	-6,990	236,327	113,920
154,531	-6,851	236,007	113,866
155,546	-6,994	236,026	113,751
156,560	-6,882	235,777	113,710
157,575	-7,035	235,624	113,504
158,589	-7,006	235,462	113,439
159,604	-6,679	235,133	113,531
160,619	-6,592	235,139	113,593
161,633	-6,716	234,902	113,370
162,648	-6,818	234,794	113,227
163,662	-6,876	234,646	113,098
164,677	-6,787	234,589	113,132
165,692	-6,922	234,438	112,942
166,706	-6,735	234,237	112,983
167,721	-6,693	234,116	112,948
168,735	-6,637	233,936	112,896
169,750	-6,632	233,770	112,810
170,764	-6,564	233,469	112,708
171,779	-6,649	233,370	112,583
172,794	-6,826	233,347	112,422
173,808	-6,689	233,145	112,423
174,823	-7,290	232,712	111,729
175,837	-7,470	232,540	111,495
176,852	-7,154	232,604	111,765
177,867	-6,709	232,550	112,081
178,881	-6,739	232,338	111,945
179,896	-6,591	232,273	112,019
180,910	-6,579	232,041	111,907
181,925	-6,633	231,969	111,820
182,940	-6,719	231,732	111,628
183,954	-6,524	231,515	111,667
184,969	-6,602	231,486	111,582
185,983	-6,608	231,322	111,488
186,998	-6,560	231,185	111,450
188,013	-6,496	231,087	111,443
189,027	-6,489	230,787	111,293
190,042	-6,438	230,776	111,318
191,056	-6,392	230,371	111,148
192,071	-6,426	230,425	111,139
193,086	-6,322	230,186	111,094
194,100	-6,351	230,124	111,032
195,115	-5,916	229,834	111,220
196,129	-6,312	229,914	110,941
197,144	-2,694	231,124	114,340
198,159	1,580	232,308	118,264
199,173	3,564	232,650	119,980
200,188	3,560	232,611	119,946
201,202	3,673	232,410	119,920
202,217	3,830	232,279	119,964
203,232	4,198	232,113	120,155
204,246	4,325	232,198	120,287
205,261	4,199	231,964	120,057
206,275	4,300	231,846	120,064
207,290	4,204	231,809	119,959
208,304	4,273	231,666	119,929
209,319	4,563	231,239	119,921
210,334	4,250	231,214	119,655
211,348	4,115	230,831	119,342
212,363	3,942	230,644	119,100
213,377	3,457	230,532	118,656
214,392	3,383	230,240	118,438
215,407	3,506	230,253	118,530
216,421	3,622	230,150	118,555
217,436	3,613	229,759	118,337
218,450	3,409	229,532	118,052
219,465	3,182	229,584	117,894
220,480	3,528	229,321	118,014
221,494	3,343	229,381	117,892
222,509	3,479	229,261	117,925
223,523	3,581	228,969	117,842
224,538	3,357	228,878	117,613
225,553	3,351	228,806	117,561
226,567	3,590	228,703	117,680
227,582	3,660	228,526	117,633
228,596	3,614	228,534	117,591
229,611	3,735	228,105	117,452
230,626	3,376	227,997	117,112
231,640	3,544	227,722	117,088
232,655	3,727	227,780	117,247
233,669	4,009	227,808	117,467
234,684	4,170	227,573	117,458
235,699	3,920	227,311	117,122
236,713	3,833	227,263	117,021
237,728	3,591	226,874	116,626
238,742	3,552	226,687	116,489
239,757	3,476	226,657	116,406
240,772	3,656	226,447	116,424
241,786	3,583	226,333	116,301
242,801	3,765	226,238	116,379
243,815	3,990	226,100	116,468
244,830	3,922	226,157	116,435
245,844	3,803	225,738	116,119
246,859	3,546	225,681	115,885
247,874	3,859	225,473	116,004
248,888	3,813	225,383	115,913
249,903	3,749	225,200	115,760
250,917	3,604	225,030	115,554
251,932	3,312	224,800	115,206
252,947	3,361	224,775	115,220
253,961	3,298	224,582	115,062
254,976	3,382	224,448	115,047
255,990	3,811	224,320	115,293
257,005	3,636	224,345	115,164
258,020	3,786	224,085	115,133
259,034	4,041	223,968	115,253
260,049	3,809	223,867	115,017
261,063	3,558	223,821	114,796
262,078	3,723	223,611	114,801
263,093	3,989	223,494	114,930
264,107	3,815	223,213	114,645
265,122	3,797	223,156	114,592
266,136	3,974	223,036	114,652
267,151	3,878	222,823	114,461
268,166	3,660	222,605	114,177
269,180	3,352	222,256	113,759
270,195	3,463	222,311	113,859
271,209	3,741	222,007	113,900
272,224	3,541	222,099	113,788
273,239	3,636	221,955	113,775
274,253	3,555	221,593	113,519
275,268	3,480	221,446	113,378
276,282	3,314	221,360	113,201
277,297	3,417	221,241	113,206
278,312	3,325	220,989	112,999
279,326	3,572	221,078	113,217
280,341	3,415	220,879	112,990
281,355	3,676	220,786	113,124
282,370	3,469	220,532	112,832
283,384	3,257	220,349	112,572
284,399	3,204	220,254	112,475
285,414	3,344	220,192	112,536
286,428	3,366	220,005	112,446
287,443	3,552	219,886	112,512
288,457	3,673	219,903	112,599
289,472	3,379	219,567	112,202
290,487	3,116	219,246	111,836
291,501	3,280	219,045	111,843
292,516	3,253	219,161	111,872
293,530	3,148	219,054	111,731
294,545	3,049	218,833	111,536
295,560	3,224	218,681	111,577
296,574	3,536	218,602	111,753
297,589	3,555	218,490	111,700
298,603	3,683	218,357	111,715
299,618	3,732	218,319	111,721
300,633	3,448	218,169	111,428
301,647	3,762	218,078	111,600
302,662	3,723	217,893	111,467
303,676	3,806	217,831	111,486
304,691	3,758	217,565	111,305
305,706	3,812	217,444	111,272
306,720	3,812	217,249	111,162
307,735	3,556	217,026	110,853
308,749	3,110	217,001	110,508
309,764	3,644	216,869	110,817
310,779	3,980	216,759	110,993
311,793	3,848	216,544	110,778
312,808	3,840	216,329	110,652
313,822	3,667	216,303	110,505
314,837	3,591	216,117	110,345
315,852	3,439	215,847	110,088
316,866	3,757	215,743	110,254
317,881	3,754	215,738	110,240
318,895	3,897	215,552	110,237
319,910	3,367	215,392	109,765
320,925	3,392	215,099	109,624
321,939	3,092	215,088	109,394
322,954	3,124	215,010	109,368
323,968	3,756	214,907	109,757
324,983	3,500	214,844	109,532
325,997	3,911	214,737	109,761
327,012	3,729	214,512	109,507
328,027	3,592	214,523	109,405
329,041	4,262	214,247	109,731
330,056	4,108	214,263	109,621
331,070	3,638	214,036	109,160
332,085	3,485	213,775	108,909
333,100	3,425	213,506	108,720
334,114	3,556	213,433	108,765
335,129	3,518	213,455	108,740
336,143	3,444	213,261	108,579
337,158	3,568	213,102	108,576
338,173	3,653	212,938	108,543
339,187	3,321	212,758	108,207
340,202	3,147	212,749	108,069
341,216	3,496	212,428	108,143
342,231	3,475	212,308	108,058
343,246	3,173	212,255	107,808
344,260	3,394	212,091	107,871
345,275	3,583	212,135	108,017
346,289	3,554	212,068	107,953
347,304	3,742	211,795	107,936
348,319	3,480	211,736	107,712
349,333	3,329	211,556	107,505
350,348	3,458	211,466	107,540
351,362	3,693	211,316	107,620
352,377	3,683	211,244	107,566
353,392	3,569	210,963	107,334
354,406	3,585	210,935	107,321
355,421	196,005	1339,683	1428,260
356,435	156,577	1477,261	1428,321
