DTS Sentinel unit serial number:	SN410029Multiplexer serial number:	ORYXHardware model number:	OX2-SRSoftware version number:	ORYX F/W v4,00 Oryx Data Collector v3.7.2.0data status	okinstallation	B6 Nyhavnadifferential loss correction	single-endedforward channel	channel 2reverse channel	N/Adate	2023/12/11time	02:50:08forward acquisition time	300,00reverse acquisition time	0,00gamma	499,1914k internal	0,3123k external	0,3123temperature offset calibration	1,0000default loss term (dB/km)	0,3820temperature slope calibration	1,0000multiplexer offset coefficient	1,0000multiplexer slope coefficient	1,0000fibre end	0,00T internal ref (°C)	21,54T ext. ref 1 (°C)	4,36T ext. ref 2 (°C)	4,39length (m)	temperature (°C)	Stokes	anti-Stokes-744,400	159,856	0,034	-0,036
-743,385	165,650	-0,209	0,221
-742,371	-186,847	0,157	0,002
-741,356	-93,178	-0,351	0,072
-740,342	36,355	0,055	0,036
-739,327	-180,857	-0,211	-0,003
-738,312	-200,000	-0,014	-0,179
-737,298	-30,885	-0,292	0,122
-736,283	20,731	0,193	-0,116
-735,269	-116,445	-0,427	0,058
-734,254	-200,000	0,004	-0,186
-733,239	-41,657	-0,422	-0,161
-732,225	-79,163	0,144	0,036
-731,210	5,504	0,045	0,025
-730,196	42,300	-0,092	0,062
-729,181	-200,000	-0,046	-0,156
-728,167	385,237	0,007	0,010
-727,152	397,690	0,013	-0,020
-726,137	-200,000	-0,008	-0,115
-725,123	109,353	-0,033	0,029
-724,108	250,363	-0,147	-0,187
-723,094	-146,758	-0,132	0,008
-722,079	105,767	-0,036	0,031
-721,064	96,742	-0,078	-0,067
-720,050	-200,000	0,027	-0,106
-719,035	-31,003	0,094	0,039
-718,021	-159,884	-0,094	0,004
-717,006	-125,698	-0,101	0,011
-715,991	800,000	-0,051	-0,154
-714,977	128,835	-0,109	-0,103
-713,962	129,437	-0,078	-0,074
-712,948	800,000	-0,023	0,052
-711,933	47,460	-0,120	0,083
-710,918	-70,203	0,121	-0,034
-709,904	800,000	-0,060	0,138
-708,889	-63,081	-0,070	0,021
-707,875	-96,407	-0,085	0,017
-706,860	-164,652	0,058	-0,002
-705,845	-200,000	0,009	0,048
-704,831	-200,000	0,002	0,025
-703,816	-144,946	0,016	0,001
-702,802	132,396	-0,111	-0,107
-701,787	-200,000	0,004	-0,102
-700,772	-200,000	0,010	-0,225
-699,758	48,241	-0,172	-0,119
-698,743	106,124	0,045	-0,040
-697,729	17,768	-0,060	-0,035
-696,714	-200,000	-0,026	0,140
-695,699	-128,591	-0,074	-0,008
-694,685	-200,000	0,020	-0,101
-693,670	-10,060	0,083	-0,041
-692,656	-200,000	-0,022	0,085
-691,641	70,651	0,117	-0,090
-690,627	-121,653	-0,014	0,002
-689,612	194,769	0,051	0,058
-688,597	12,625	-0,030	-0,017
-687,583	800,000	-0,040	0,097
-686,568	-106,562	-0,089	-0,015
-685,554	33,182	-0,081	-0,052
-684,539	-36,112	0,165	-0,066
-683,524	495,058	-0,039	-0,066
-682,510	162,096	-0,034	-0,035
-681,495	-106,150	0,067	0,011
-680,481	-200,000	0,019	0,065
-679,466	80,905	-0,068	-0,055
-678,451	-200,000	-0,007	0,069
-677,437	80,494	0,047	0,037
-676,422	637,262	-0,037	0,070
-675,408	33,262	-0,107	0,069
-674,393	83,849	0,076	0,061
-673,378	800,000	-0,043	-0,090
-672,364	800,000	0,077	0,178
-671,349	72,134	-0,153	0,118
-670,335	-55,296	0,038	-0,013
-669,320	-200,000	-0,004	-0,057
-668,305	63,458	0,075	0,056
-667,291	-67,883	-0,042	-0,012
-666,276	-200,000	-0,018	-0,106
-665,262	392,844	-0,071	-0,110
-664,247	-200,000	-0,009	0,062
-663,232	761,779	-0,010	0,020
-662,218	-200,000	0,003	0,077
-661,203	0,615	-0,015	0,008
-660,189	113,369	-0,074	-0,067
-659,174	56,594	0,066	-0,048
-658,159	62,338	-0,076	0,056
-657,145	-28,234	-0,116	0,050
-656,130	35,285	-0,110	-0,071
-655,116	-12,945	0,030	-0,015
-654,101	800,000	0,021	0,065
-653,086	164,370	0,074	0,078
-652,072	16,679	-0,081	0,047
-651,057	-10,901	-0,100	-0,049
-650,043	-32,850	-0,132	-0,054
-649,028	-200,000	0,005	0,030
-648,014	334,571	0,009	0,013
-646,999	144,750	-0,047	-0,046
-645,984	-97,611	0,076	-0,014
-644,970	13,409	0,032	0,019
-643,955	194,278	-0,080	-0,091
-642,941	515,146	-0,065	-0,112
-641,926	-200,000	0,028	-0,178
-640,911	-19,001	0,108	-0,050
-639,897	-200,000	0,015	0,156
-638,882	733,526	-0,053	0,105
-637,868	800,000	0,017	0,040
-636,853	800,000	-0,043	0,100
-635,838	-200,000	0,002	-0,074
-634,824	-32,989	0,088	0,036
-633,809	463,966	-0,045	-0,074
-632,795	-200,000	-0,011	0,112
-631,780	-65,204	-0,016	-0,005
-630,765	-92,230	-0,241	0,050
-629,751	-200,000	0,033	-0,110
-628,736	91,718	-0,106	-0,089
-627,722	14,439	-0,120	0,069
-626,707	-200,000	-0,017	-0,077
-625,692	800,000	0,021	-0,046
-624,678	-69,914	0,059	0,017
-623,663	52,007	-0,069	0,049
-622,649	-49,769	-0,144	0,050
-621,634	-200,000	0,012	0,119
-620,619	614,576	-0,016	-0,029
-619,605	178,012	0,023	-0,025
-618,590	104,393	0,038	0,033
-617,576	-138,500	0,125	-0,010
-616,561	247,510	-0,038	0,047
-615,546	-200,000	0,009	-0,087
-614,532	165,861	0,101	-0,107
-613,517	800,000	0,068	0,151
-612,503	-128,025	0,074	-0,008
-611,488	-33,791	0,124	-0,050
-610,474	-71,567	0,048	-0,013
-609,459	-200,000	0,007	-0,035
-608,444	120,867	-0,122	-0,113
-607,430	279,205	-0,135	-0,179
-606,415	-109,432	-0,146	-0,023
-605,401	43,469	-0,102	0,069
-604,386	800,000	0,030	0,083
-603,371	408,673	-0,121	0,191
-602,357	157,857	0,040	-0,041
-601,342	375,993	-0,075	-0,114
-600,328	-200,000	0,010	-0,064
-599,313	31,229	-0,043	-0,028
-598,298	-57,110	0,154	-0,050
-597,284	-54,876	0,120	0,040
-596,269	303,184	0,070	-0,096
-595,255	-15,078	-0,019	0,009
-594,240	643,911	0,048	-0,092
-593,225	127,041	-0,031	0,029
-592,211	256,308	-0,060	-0,077
-591,196	-145,383	0,052	-0,003
-590,182	-69,771	0,181	0,051
-589,167	283,134	0,062	0,083
-588,152	6,918	0,098	0,054
-587,138	-58,256	-0,192	-0,061
-586,123	12,264	-0,075	0,043
-585,109	-90,288	0,066	-0,014
-584,094	-132,415	-0,189	0,018
-583,079	-145,493	-0,082	-0,005
-582,065	138,630	-0,106	0,104
-581,050	395,708	0,027	-0,042
-580,036	249,049	-0,076	-0,095
-579,021	-49,427	0,060	0,021
-578,006	-91,083	-0,139	0,029
-576,992	-29,086	-0,084	-0,035
-575,977	-200,000	-0,001	0,028
-574,963	-162,433	0,055	0,002
-573,948	301,038	-0,033	0,045
-572,934	-87,787	-0,136	-0,030
-571,919	800,000	0,033	-0,108
-570,904	-200,000	0,031	-0,121
-569,890	160,312	-0,106	-0,110
-568,875	-200,000	-0,014	0,102
-567,861	131,674	-0,040	0,038
-566,846	19,161	-0,103	0,061
-565,831	778,996	0,015	-0,030
-564,817	710,062	-0,049	-0,096
-563,802	-200,000	-0,021	-0,149
-562,788	-200,000	0,051	-0,206
-561,773	800,000	-0,032	0,085
-560,758	-59,655	0,061	-0,019
-559,744	800,000	-0,018	0,054
-558,729	-200,000	-0,026	-0,100
-557,715	-200,000	0,015	-0,086
-556,700	800,000	-0,035	-0,089
-555,685	800,000	-0,029	-0,093
-554,671	312,767	0,089	-0,124
-553,656	296,549	-0,058	-0,079
-552,642	-200,000	0,014	0,150
-551,627	565,837	-0,095	0,172
-550,612	35,733	-0,102	0,066
-549,598	214,494	0,067	0,079
-548,583	208,201	0,050	0,057
-547,569	-200,000	-0,030	0,100
-546,554	6,158	0,099	0,054
-545,539	800,000	-0,030	0,094
-544,525	-200,000	-0,004	0,044
-543,510	616,260	-0,052	0,097
-542,496	286,141	0,059	-0,079
-541,481	800,000	-0,010	0,034
-540,466	-53,330	-0,058	-0,020
-539,452	41,002	0,114	0,076
-538,437	-200,000	-0,003	-0,019
-537,423	-99,551	0,076	0,014
-536,408	163,502	-0,017	-0,018
-535,393	77,774	0,021	0,016
-534,379	360,832	-0,151	-0,224
-533,364	-2,848	-0,095	-0,049
-532,350	-200,000	0,001	0,068
-531,335	-200,000	0,001	-0,025
-530,321	-78,697	0,061	-0,015
-529,306	-68,556	0,042	0,012
-528,291	-200,000	0,024	-0,116
-527,277	-200,000	0,003	-0,089
-526,262	-200,000	-0,010	-0,154
-525,248	-200,000	0,028	-0,149
-524,233	800,000	-0,022	0,057
-523,218	-200,000	-0,028	-0,115
-522,204	800,000	-0,026	0,083
-521,189	-200,000	-0,021	-0,144
-520,175	53,666	0,119	-0,084
-519,160	-50,408	-0,145	0,050
-518,145	-68,195	0,051	-0,015
-517,131	-200,000	-0,001	0,106
-516,116	-138,141	0,101	-0,008
-515,102	556,227	-0,108	-0,193
-514,087	46,562	0,038	-0,026
-513,072	127,409	-0,122	-0,115
-512,058	-200,000	0,024	-0,136
-511,043	158,947	0,012	0,012
-510,029	-160,587	-0,064	-0,002
-509,014	-106,372	0,092	0,015
-507,999	800,000	0,062	0,183
-506,985	799,672	0,039	0,079
-505,970	-200,000	-0,012	-0,099
-504,956	800,000	-0,064	-0,137
-503,941	-113,766	-0,093	0,013
-502,926	-74,660	0,048	0,013
-501,912	-200,000	-0,013	0,051
-500,897	-200,000	-0,009	-0,049
-499,883	-76,781	0,120	0,031
-498,868	-95,815	0,090	-0,018
-497,853	-146,067	0,058	0,004
-496,839	8,839	0,122	0,068
-495,824	800,000	0,060	0,133
-494,810	195,718	0,105	0,118
-493,795	-200,000	0,004	-0,089
-492,781	-190,506	-0,066	0,001
-491,766	-54,887	-0,117	0,039
-490,751	210,417	-0,012	0,014
-489,737	-107,885	0,103	0,016
-488,722	-35,625	0,121	0,048
-487,708	-58,030	0,052	0,017
-486,693	-200,000	-0,024	0,103
-485,678	-146,167	-0,098	-0,006
-484,664	320,964	0,005	0,006
-483,649	293,030	-0,054	0,073
-482,635	293,400	0,038	-0,051
-481,620	-144,970	0,062	0,004
-480,605	244,281	-0,112	-0,139
-479,591	264,409	0,005	-0,006
-478,576	167,814	-0,058	-0,061
-477,562	-68,839	-0,050	0,014
-476,547	-43,980	-0,087	0,032
-475,532	-200,000	-0,019	0,095
-474,518	-167,395	0,105	-0,003
-473,503	45,444	0,064	0,043
-472,489	7,024	-0,053	-0,029
-471,474	47,869	0,084	0,058
-470,459	-70,458	-0,082	0,023
-469,445	273,128	-0,074	-0,097
-468,430	156,416	-0,058	-0,059
-467,416	-9,645	0,091	-0,045
-466,401	82,456	0,110	0,088
-465,386	800,000	-0,044	0,100
-464,372	206,284	-0,046	0,053
-463,357	800,000	0,017	-0,037
-462,343	211,394	-0,097	-0,113
-461,328	254,138	0,095	0,119
-460,313	-157,725	0,123	-0,005
-459,299	104,442	-0,060	0,052
-458,284	-95,712	0,129	0,025
-457,270	187,741	-0,093	-0,102
-456,255	800,000	-0,020	0,062
-455,241	290,329	-0,047	-0,062
-454,226	-36,795	-0,037	0,015
-453,211	19,360	-0,087	0,051
-452,197	190,200	-0,036	-0,040
-451,182	-200,000	-0,006	-0,095
-450,168	-145,520	0,090	-0,006
-449,153	619,037	0,012	0,022
-448,138	800,000	0,044	-0,091
-447,124	-25,192	-0,110	-0,048
-446,109	353,326	0,045	-0,066
-445,095	-200,000	-0,012	0,105
-444,080	-200,000	0,015	0,127
-443,065	800,000	0,054	0,163
-442,051	-35,589	0,033	-0,013
-441,036	-200,000	-0,003	0,035
-440,022	263,637	0,077	-0,099
-439,007	-200,000	-0,005	-0,032
-437,992	-200,000	-0,006	-0,058
-436,978	-99,804	0,137	0,025
-435,963	-52,115	0,107	0,036
-434,949	-35,757	-0,160	0,064
-433,934	-200,000	0,018	-0,060
-432,919	-79,702	-0,147	-0,036
-431,905	11,424	0,086	-0,048
-430,890	-52,824	0,111	-0,037
-429,876	11,271	0,061	-0,034
-428,861	34,858	0,097	0,062
-427,846	192,997	0,039	0,043
-426,832	-9,150	-0,051	0,025
-425,817	800,000	-0,042	-0,100
-424,803	-171,284	-0,041	0,001
-423,788	-200,000	-0,003	-0,073
-422,773	267,064	0,065	0,084
-421,759	-200,000	0,014	0,160
-420,744	73,405	0,088	0,068
-419,730	-78,844	-0,192	-0,048
-418,715	-200,000	0,040	-0,159
-417,701	-44,454	-0,092	0,034
-416,686	-98,666	-0,051	0,009
-415,671	-200,000	-0,004	0,204
-414,657	-200,000	0,019	0,150
-413,642	139,572	0,039	0,038
-412,628	-153,838	0,108	-0,005
-411,613	-200,000	-0,008	-0,076
-410,598	38,101	-0,118	-0,077
-409,584	800,000	0,082	0,186
-408,569	30,676	0,074	-0,047
-407,555	16,516	0,080	0,046
-406,540	-200,000	0,009	-0,038
-405,525	800,000	-0,029	0,067
-404,511	-51,389	-0,052	0,018
-403,496	-200,000	0,003	0,041
-402,482	-64,432	0,055	-0,016
-401,467	-18,904	0,097	-0,044
-400,452	-81,437	-0,098	0,024
-399,438	12,355	0,104	0,059
-398,423	193,160	-0,050	-0,056
-397,409	43,952	-0,090	-0,061
-396,394	-11,578	0,012	-0,006
-395,379	-200,000	-0,027	-0,175
-394,365	-200,000	0,002	-0,026
-393,350	-110,227	0,085	0,013
-392,336	-156,010	-0,049	-0,002
-391,321	-200,000	0,008	-0,049
-390,306	-120,878	0,148	0,018
-389,292	800,000	-0,094	0,242
-388,277	-44,394	0,202	0,074
-387,263	14,188	-0,024	-0,014
-386,248	800,000	-0,034	0,078
-385,233	381,399	0,082	0,124
-384,219	129,706	-0,032	0,030
-383,204	218,465	-0,079	-0,093
-382,190	800,000	-0,052	-0,118
-381,175	-16,608	-0,022	0,010
-380,160	-200,000	-0,007	-0,044
-379,146	293,869	-0,081	0,109
-378,131	-183,154	0,036	0,000
-377,117	800,000	-0,013	0,030
-376,102	-156,945	0,131	-0,006
-375,088	606,034	0,016	-0,029
-374,073	-67,366	0,003	0,001
-373,058	154,689	-0,016	0,016
-372,044	-124,793	0,179	0,020
-371,029	800,000	0,008	0,017
-370,015	97,424	-0,015	-0,012
-369,000	585,199	0,018	-0,033
-367,985	800,000	-0,013	-0,039
-366,971	-129,686	0,065	0,006
-365,956	-200,000	0,023	0,094
-364,942	-200,000	0,005	0,064
-363,927	71,719	0,089	0,068
-362,912	677,870	0,023	-0,044
-361,898	-143,903	0,031	-0,002
-360,883	282,463	-0,074	0,098
-359,869	39,194	-0,084	-0,055
-358,854	800,000	0,055	0,162
-357,839	150,557	-0,029	-0,029
-356,825	90,381	-0,043	0,035
-355,810	173,537	-0,043	0,045
-354,796	4,804	-0,163	0,088
-353,781	-163,801	-0,151	0,005
-352,766	25,380	-0,090	0,055
-351,752	800,000	0,036	0,098
-350,737	168,865	0,090	0,095
-349,723	218,417	-0,097	0,114
-348,708	-200,000	-0,034	0,123
-347,693	800,000	-0,038	0,119
-346,679	-74,044	-0,043	-0,011
-345,664	-200,000	0,047	-0,184
-344,650	-45,540	0,158	0,057
-343,635	-200,000	-0,027	-0,118
-342,620	-72,521	0,145	-0,039
-341,606	-103,266	0,047	0,008
-340,591	-59,313	-0,208	-0,065
-339,577	-32,123	-0,075	-0,031
-338,562	-200,000	0,002	-0,040
-337,548	-200,000	0,002	0,063
-336,533	178,661	0,061	-0,066
-335,518	408,077	0,030	-0,046
-334,504	-15,876	0,089	0,042
-333,489	174,245	-0,031	-0,033
-332,475	-200,000	0,003	-0,029
-331,460	499,759	0,028	-0,048
-330,445	425,339	0,029	0,047
-329,431	-73,333	0,090	0,024
-328,416	382,747	-0,008	-0,011
-327,402	800,000	0,015	0,042
-326,387	-200,000	0,007	-0,107
-325,372	110,380	-0,078	-0,068
-324,358	138,055	0,050	-0,048
-323,343	419,591	-0,052	-0,082
-322,329	116,364	-0,005	-0,005
-321,314	800,000	-0,029	0,076
-320,299	-147,724	0,076	0,005
-319,285	-84,620	-0,078	0,018
-318,270	7,375	-0,013	0,007
-317,256	38,703	0,120	-0,078
-316,241	-15,184	0,054	0,025
-315,226	84,964	0,086	0,069
-314,212	-200,000	-0,032	0,130
-313,197	800,000	-0,025	0,060
-312,183	-200,000	0,014	0,059
-311,168	800,000	-0,024	-0,053
-310,153	-200,000	0,018	-0,121
-309,139	297,539	0,014	-0,019
-308,124	-76,246	-0,033	0,008
-307,110	584,488	0,063	0,113
-306,095	-200,000	-0,018	0,151
-305,080	-200,000	-0,037	0,176
-304,066	37,444	0,024	-0,015
-303,051	366,680	-0,101	-0,150
-302,037	176,456	-0,085	-0,091
-301,022	-200,000	-0,013	-0,053
-300,008	-70,030	0,018	0,005
-298,993	-72,034	0,076	0,021
-297,978	-72,243	-0,023	0,006
-296,964	-87,615	-0,059	-0,013
-295,949	26,640	-0,082	0,050
-294,935	457,366	-0,060	0,097
-293,920	-200,000	0,008	0,091
-292,905	461,491	-0,091	-0,149
-291,891	117,051	0,072	0,065
-290,876	-200,000	-0,060	0,000
-289,862	-108,097	-0,067	0,011
-288,847	-98,018	-0,074	-0,014
-287,832	-200,000	-0,028	-0,152
-286,818	180,341	0,014	0,015
-285,803	-68,765	0,124	-0,035
-284,789	79,866	0,132	0,104
-283,774	-147,452	-0,075	-0,005
-282,759	800,000	0,037	0,100
-281,745	-59,742	-0,124	-0,039
-280,730	11,917	0,110	-0,062
-279,716	347,402	-0,025	-0,036
-278,701	-200,000	0,009	-0,128
-277,686	800,000	0,047	-0,099
-276,672	800,000	-0,013	0,026
-275,657	-200,000	0,003	0,099
-274,643	771,868	-0,019	0,037
-273,628	-34,831	-0,013	-0,005
-272,613	-98,702	0,060	0,011
-271,599	-200,000	0,022	0,084
-270,584	800,000	0,016	-0,042
-269,570	85,268	-0,024	0,020
-268,555	-66,106	0,102	-0,030
-267,540	-11,542	-0,036	0,017
-266,526	48,217	-0,132	-0,091
-265,511	800,000	0,018	-0,057
-264,497	429,722	0,027	0,042
-263,482	55,522	0,119	-0,084
-262,467	-27,888	-0,008	-0,003
-261,453	800,000	-0,057	-0,146
-260,438	-10,376	-0,118	0,057
-259,424	-82,336	-0,091	0,022
-258,409	-14,303	0,080	0,038
-257,395	7,038	0,133	-0,072
-256,380	-16,099	-0,073	-0,034
-255,365	-118,867	0,094	-0,012
-254,351	-50,012	0,205	0,071
-253,336	-5,803	-0,161	-0,080
-252,322	4,957	-0,029	-0,015
-251,307	144,428	-0,063	0,062
-250,292	-112,423	0,026	0,004
-249,278	-13,073	0,132	-0,062
-248,263	273,769	0,044	-0,057
-247,249	800,000	0,030	-0,060
-246,234	-200,000	0,006	-0,084
-245,219	-152,712	0,021	0,001
-244,205	-69,417	-0,146	-0,041
-243,190	800,000	-0,033	-0,096
-242,176	8,706	0,062	-0,034
-241,161	686,909	-0,027	-0,052
-240,146	-200,000	0,033	0,153
-239,132	800,000	0,055	0,160
-238,117	187,094	-0,080	0,087
-237,103	800,000	-0,022	0,066
-236,088	112,930	0,105	-0,093
-235,073	-103,834	0,142	0,024
-234,059	224,759	0,070	-0,083
-233,044	50,004	0,133	0,092
-232,030	800,000	-0,005	0,013
-231,015	179,026	-0,074	0,079
-230,000	-24,656	-0,123	-0,053
-228,986	-32,213	-0,136	-0,055
-227,971	-108,352	0,051	-0,008
-226,957	304,589	0,096	-0,130
-225,942	800,000	0,064	0,141
-224,927	423,644	0,064	0,101
-223,913	-44,873	-0,087	0,031
-222,898	-70,379	-0,058	0,016
-221,884	-200,000	0,018	0,070
-220,869	-200,000	-0,003	0,036
-219,855	495,009	0,048	0,081
-218,840	200,257	-0,044	-0,049
-217,825	-200,000	0,014	0,102
-216,811	-54,926	-0,048	0,016
-215,796	-192,389	-0,036	0,000
-214,782	213,661	0,094	-0,109
-213,767	285,176	0,040	0,052
-212,752	583,300	-0,095	0,172
-211,738	-200,000	0,001	-0,007
-210,723	800,000	0,018	-0,047
-209,709	209,044	-0,077	0,088
-208,694	-94,887	0,037	0,007
-207,679	-55,914	-0,059	0,019
-206,665	-200,000	-0,021	0,084
-205,650	2,623	0,043	0,023
-204,636	-102,513	0,080	0,014
-203,621	-107,030	0,085	0,014
-202,606	30,382	-0,104	0,065
-201,592	-200,000	-0,042	-0,168
-200,577	-200,000	-0,033	-0,107
-199,563	43,879	-0,098	-0,065
-198,548	52,458	0,100	-0,069
-197,533	800,000	0,051	0,145
-196,519	376,615	0,066	0,098
-195,504	184,699	-0,045	-0,049
-194,490	800,000	-0,029	-0,086
-193,475	-29,595	-0,042	0,017
-192,460	194,605	0,085	-0,095
-191,446	150,346	-0,109	0,108
-190,431	-200,000	0,022	-0,084
-189,417	800,000	-0,026	0,063
-188,402	23,329	0,039	0,024
-187,387	-81,395	-0,106	0,025
-186,373	743,026	-0,048	-0,096
-185,358	266,151	-0,051	0,065
-184,344	88,329	0,057	0,046
-183,329	134,374	0,036	-0,034
-182,315	19,445	0,070	0,041
-181,300	769,853	0,029	0,058
-180,285	800,000	-0,053	-0,126
-179,271	-54,642	0,023	-0,008
-178,256	-37,753	0,047	0,018
-177,242	350,138	0,032	0,047
-176,227	-97,681	-0,073	0,014
-175,212	-200,000	0,035	-0,119
-174,198	143,807	0,072	-0,070
-173,183	188,013	0,042	-0,046
-172,169	-200,000	-0,009	0,117
-171,154	173,749	-0,074	-0,078
-170,139	374,237	-0,029	-0,044
-169,125	-71,226	0,250	0,068
-168,110	-121,650	-0,102	-0,012
-167,096	-200,000	0,043	-0,223
-166,081	800,000	0,007	0,016
-165,066	-27,241	-0,107	0,045
-164,052	-119,432	-0,107	-0,013
-163,037	355,299	0,088	0,128
-162,023	35,344	0,074	0,047
-161,008	800,000	-0,055	0,153
-159,993	-103,101	0,080	-0,014
-158,979	-200,000	-0,022	-0,073
-157,964	-52,174	0,039	-0,013
-156,950	-154,740	-0,095	-0,005
-155,935	99,194	0,113	0,095
-154,920	-200,000	0,005	-0,155
-153,906	-186,250	-0,065	-0,001
-152,891	87,240	-0,046	-0,037
-151,877	-116,058	-0,049	0,007
-150,862	-0,828	-0,137	-0,070
-149,847	776,333	-0,017	-0,034
-148,833	-200,000	0,018	-0,067
-147,818	800,000	0,008	0,024
-146,804	-200,000	-0,008	0,043
-145,789	198,548	0,109	0,122
-144,775	115,639	0,035	-0,032
-143,760	800,000	-0,018	-0,042
-142,745	-101,164	0,084	0,015
-141,731	12,891	0,056	-0,031
-140,716	-200,000	0,000	0,060
-139,702	-200,000	-0,004	0,094
-138,687	800,000	0,048	0,139
-137,672	674,803	-0,043	-0,081
-136,658	-107,744	-0,104	0,016
-135,643	505,536	-0,036	-0,061
-134,629	-200,000	0,006	-0,096
-133,614	-153,468	0,191	0,009
-132,599	800,000	0,028	0,081
-131,585	800,000	-0,033	0,082
-130,570	22,208	-0,138	0,082
-129,556	-123,903	-0,054	-0,006
-128,541	800,000	-0,009	-0,019
-127,526	191,290	0,072	0,079
-126,512	800,000	0,021	-0,060
-125,497	800,000	-0,066	0,189
-124,483	800,000	-0,034	-0,081
-123,468	-199,693	0,097	-0,000
-122,453	758,195	0,028	0,056
-121,439	383,722	-0,085	0,128
-120,424	-200,000	-0,023	-0,107
-119,410	-200,000	0,007	0,048
-118,395	800,000	-0,071	0,161
-117,380	37,547	0,074	0,048
-116,366	-200,000	0,032	0,110
-115,351	423,975	-0,077	-0,121
-114,337	-154,318	-0,118	-0,006
-113,322	-200,000	0,006	0,043
-112,307	-121,342	-0,079	-0,009
-111,293	-49,772	0,035	-0,012
-110,278	-59,397	-0,109	0,034
-109,264	-200,000	-0,015	0,066
-108,249	44,648	0,077	-0,051
-107,234	171,006	-0,034	0,035
-106,220	-2,115	-0,044	-0,022
-105,205	800,000	-0,019	0,057
-104,191	-200,000	-0,026	0,106
-103,176	-54,638	0,036	0,012
-102,162	-89,990	-0,127	-0,027
-101,147	-200,000	0,011	0,128
-100,132	-200,000	-0,008	0,068
-99,118	206,350	-0,043	0,048
-98,103	-200,000	0,008	0,026
-97,089	-61,180	0,071	-0,022
-96,074	-200,000	0,003	0,034
-95,059	-43,997	0,059	0,022
-94,045	-45,414	-0,109	-0,039
-93,030	800,000	-0,047	-0,112
-92,016	800,000	-0,097	-0,279
-91,001	-200,000	0,018	-0,087
-89,986	24,516	-0,046	0,027
-88,972	800,000	-0,100	0,209
-87,957	-74,241	0,193	0,050
-86,943	-79,618	-0,085	0,021
-85,928	-200,000	-0,034	-0,155
-84,913	-108,688	-0,043	-0,007
-83,899	800,000	0,018	0,043
-82,884	266,345	0,055	0,070
-81,870	256,925	-0,028	0,034
-80,855	-200,000	-0,007	-0,072
-79,840	79,953	-0,126	0,098
-78,826	5,372	-0,076	0,041
-77,811	800,000	0,051	-0,135
-76,797	206,796	0,058	-0,066
-75,782	147,767	-0,050	-0,049
-74,767	800,000	0,021	-0,059
-73,753	44,632	0,067	-0,044
-72,738	194,879	-0,055	0,060
-71,724	0,055	-0,052	0,027
-70,709	-114,027	-0,046	0,006
-69,694	267,091	-0,132	0,167
-68,680	-0,029	-0,025	-0,013
-67,665	229,193	-0,050	-0,059
-66,651	-200,000	-0,034	-0,204
-65,636	241,279	0,050	-0,061
-64,622	-200,000	-0,016	0,149
-63,607	-100,555	0,045	0,008
-62,592	92,990	-0,205	-0,168
-61,578	800,000	0,021	-0,045
-60,563	-154,272	-0,191	-0,009
-59,549	35,259	-0,077	0,049
-58,534	-110,142	-1,352	-0,203
-57,519	450,283	-0,877	-1,409
-56,505	-200,000	-0,990	-4,440
-55,490	-50,177	0,617	-0,211
-54,476	800,000	5,131	11,857
-53,461	-200,000	14,277	259,003
-52,446	-200,000	695,948	2261,358
-51,432	583,265	1624,401	2905,378
-50,417	118,015	1633,380	1460,464
-49,403	74,661	1287,366	981,760
-48,388	37,669	1024,749	658,748
-47,373	23,628	983,460	585,923
-46,359	22,823	972,751	576,875
-45,344	21,803	968,425	570,948
-44,330	21,754	966,941	569,891
-43,315	21,657	965,435	568,664
-42,300	21,599	964,415	567,852
-41,286	21,567	963,578	567,231
-40,271	21,554	962,364	566,452
-39,257	21,502	961,584	565,801
-38,242	21,586	960,532	565,431
-37,227	21,554	959,599	564,755
-36,213	21,580	958,676	564,275
-35,198	21,509	957,800	563,506
-34,184	21,632	957,093	563,466
-33,169	21,426	956,577	562,474
-32,154	21,619	955,351	562,356
-31,140	21,649	954,451	561,899
-30,125	21,626	953,770	561,403
-29,111	21,587	952,914	560,750
-28,096	21,603	952,285	560,410
-27,082	21,533	951,708	559,822
-26,067	21,519	950,985	559,330
-25,052	21,558	950,271	559,012
-24,038	21,573	949,592	558,641
-23,023	21,558	948,949	558,190
-22,009	21,618	948,109	557,867
-20,994	21,650	947,508	557,592
-19,979	21,593	947,074	557,133
-18,965	21,574	946,455	556,687
-17,950	21,585	945,717	556,265
-16,936	21,539	944,926	555,633
-15,921	21,481	944,341	555,082
-14,906	21,479	943,678	554,663
-13,892	21,469	943,020	554,220
-12,877	21,438	942,314	553,688
-11,863	21,430	941,801	553,337
-10,848	21,470	941,292	553,144
-9,833	21,498	940,796	552,919
-8,819	21,548	940,164	552,683
-7,804	21,499	939,552	552,146
-6,790	21,462	938,878	551,611
-5,775	21,487	938,229	551,288
-4,760	21,480	937,683	550,923
-3,746	21,461	936,998	550,438
-2,731	21,307	936,643	549,721
-1,717	21,317	935,578	549,105
-0,702	21,262	934,955	548,545
0,313	21,090	934,419	548,515
1,327	24,029	932,571	556,643
2,342	33,344	795,631	499,733
3,356	30,787	451,493	279,698
4,371	0,082	294,796	151,832
5,386	-4,133	275,746	138,001
6,400	-5,663	269,929	133,651
7,415	-6,219	267,720	132,031
8,429	-5,773	266,329	131,744
9,444	-5,717	265,528	131,387
10,459	-5,739	265,030	131,109
11,473	-5,640	264,366	130,859
12,488	-5,612	263,819	130,602
13,502	-5,924	263,279	130,039
14,517	-5,946	263,046	129,893
15,531	-5,624	262,583	129,944
16,546	-5,303	262,329	130,098
17,561	-5,559	261,909	129,647
18,575	-5,521	261,723	129,577
19,590	-5,439	261,145	129,354
20,604	-5,352	260,929	129,313
21,619	-5,513	260,654	129,021
22,634	-5,576	260,251	128,753
23,648	-5,774	260,105	128,491
24,663	-5,655	259,731	128,403
25,677	-5,580	259,372	128,280
26,692	-5,436	259,194	128,310
27,707	-5,581	258,923	128,034
28,721	-5,534	258,605	127,908
29,736	-5,716	258,492	127,678
30,750	-5,682	258,200	127,553
31,765	-5,587	257,760	127,409
32,780	-5,424	257,537	127,432
33,794	-5,590	257,527	127,268
34,809	-5,758	257,300	126,996
35,823	-5,553	257,029	127,033
36,838	-5,573	256,745	126,863
37,853	-5,632	256,476	126,667
38,867	-5,703	256,246	126,479
39,882	-5,695	256,123	126,414
40,896	-5,698	255,810	126,245
41,911	-5,735	255,647	126,121
42,926	-5,612	255,566	126,179
43,940	-5,698	255,102	125,863
44,955	-5,631	254,994	125,857
45,969	-5,688	254,614	125,608
46,984	-6,067	254,535	125,226
47,999	-6,169	254,053	124,888
49,013	-6,232	254,006	124,798
50,028	-6,234	253,596	124,585
51,042	-6,437	253,461	124,330
52,057	-6,287	253,209	124,326
53,071	-6,362	253,030	124,162
54,086	-6,254	252,862	124,162
55,101	-6,079	252,711	124,230
56,115	-5,910	252,508	124,265
57,130	-5,705	252,569	124,462
58,144	-5,610	252,355	124,429
59,159	-5,426	252,167	124,484
60,174	-5,440	251,840	124,299
61,188	-5,606	251,722	124,086
62,203	-5,444	251,553	124,131
63,217	-5,498	251,325	123,962
64,232	-5,635	250,978	123,661
65,247	-5,525	250,843	123,679
66,261	-5,428	250,515	123,590
67,276	-5,682	250,319	123,263
68,290	-5,773	250,058	123,046
69,305	-6,135	249,834	122,613
70,320	-6,002	249,727	122,664
71,334	-5,777	249,559	122,763
72,349	-5,447	249,347	122,931
73,363	-5,391	249,187	122,889
74,378	-5,502	249,011	122,696
75,393	-5,532	248,758	122,535
76,407	-5,709	248,623	122,307
77,422	-5,572	248,304	122,256
78,436	-5,456	248,085	122,235
79,451	-5,432	247,988	122,197
80,466	-5,461	247,723	122,032
81,480	-5,788	247,455	121,611
82,495	-5,770	247,276	121,527
83,509	-5,555	247,227	121,674
84,524	-5,719	247,034	121,430
85,539	-5,895	246,786	121,148
86,553	-5,805	246,534	121,090
87,568	-5,656	246,276	121,078
88,582	-5,912	246,269	120,847
89,597	-5,767	245,948	120,801
90,611	-5,763	245,920	120,781
91,626	-5,566	245,710	120,832
92,641	-5,468	245,691	120,895
93,655	-5,683	245,459	120,589
94,670	-5,660	245,122	120,432
95,684	-5,838	244,941	120,183
96,699	-5,754	244,883	120,214
97,714	-5,920	244,685	119,967
98,728	-5,828	244,416	119,902
99,743	-5,905	244,193	119,717
100,757	-5,874	244,014	119,645
101,772	-5,813	243,675	119,519
102,787	-5,793	243,603	119,489
103,801	-5,880	243,562	119,385
104,816	-5,638	243,304	119,450
105,830	-5,695	243,186	119,334
106,845	-5,483	242,999	119,409
107,860	-5,709	242,844	119,133
108,874	-5,984	242,683	118,816
109,889	-5,974	242,338	118,644
110,903	-5,893	242,083	118,576
111,918	-6,036	242,017	118,415
112,933	-5,766	241,833	118,538
113,947	-5,753	241,730	118,487
114,962	-5,591	241,527	118,511
115,976	-5,717	241,398	118,333
116,991	-5,777	241,075	118,114
118,006	-5,783	240,937	118,032
119,020	-5,818	240,883	117,966
120,035	-5,730	240,741	117,958
121,049	-5,626	240,681	118,004
122,064	-5,772	240,402	117,736
123,079	-5,748	240,253	117,673
124,093	-5,792	240,015	117,510
125,108	-5,890	239,750	117,289
126,122	-6,137	239,570	116,988
127,137	-6,130	239,348	116,875
128,151	-6,055	239,116	116,813
129,166	-5,903	239,036	116,888
130,181	-6,001	238,768	116,666
131,195	-5,982	238,665	116,621
132,210	-5,833	238,430	116,617
133,224	-5,689	238,155	116,589
134,239	-5,911	238,104	116,374
135,254	-5,802	238,064	116,432
136,268	-5,834	237,786	116,260
137,283	-6,023	237,539	115,975
138,297	-6,258	237,300	115,658
139,312	-6,146	237,204	115,691
140,327	-5,721	237,089	115,969
141,341	-5,432	236,973	116,135
142,356	-5,459	236,972	116,103
143,370	-5,429	236,725	115,996
144,385	-5,440	236,594	115,912
145,400	-5,535	236,630	115,843
146,414	-5,566	236,286	115,639
147,429	-5,533	236,061	115,546
148,443	-5,652	235,919	115,369
149,458	-5,622	235,835	115,343
150,473	-5,656	235,527	115,155
151,487	-5,579	235,300	115,095
152,502	-5,534	235,211	115,077
153,516	-5,445	235,137	115,102
154,531	-5,304	234,707	114,994
155,546	-5,399	234,705	114,907
156,560	-5,387	234,556	114,833
157,575	-5,555	234,207	114,518
158,589	-5,830	234,157	114,264
159,604	-5,310	233,998	114,591
160,619	-5,220	233,861	114,585
161,633	-5,273	233,750	114,479
162,648	-5,233	233,608	114,431
163,662	-5,587	233,439	114,056
164,677	-5,803	233,389	113,850
165,692	-5,381	233,111	114,039
166,706	-5,585	232,921	113,774
167,721	-5,296	232,847	113,957
168,735	-5,328	232,697	113,848
169,750	-5,418	232,578	113,709
170,764	-5,673	232,480	113,448
171,779	-5,492	232,180	113,435
172,794	-5,317	232,058	113,503
173,808	-5,513	231,780	113,203
174,823	-5,844	231,431	112,762
175,837	-6,010	231,370	112,591
176,852	-5,707	231,247	112,760
177,867	-5,458	231,174	112,910
178,881	-5,513	231,078	112,810
179,896	-5,132	230,841	112,984
180,910	-5,405	230,773	112,726
181,925	-5,348	230,624	112,687
182,940	-5,287	230,470	112,650
183,954	-5,260	230,291	112,573
184,969	-5,272	230,157	112,488
185,983	-5,083	230,058	112,578
186,998	-5,156	229,920	112,443
188,013	-5,055	229,708	112,409
189,027	-5,277	229,548	112,147
190,042	-5,484	229,462	111,933
191,056	-5,322	229,215	111,930
192,071	-5,444	229,177	111,806
193,086	-5,366	228,915	111,729
194,100	-5,727	228,718	111,341
195,115	-6,390	228,225	110,578
196,129	-7,139	227,779	109,772
197,144	-3,554	228,960	113,119
198,159	1,369	230,289	117,607
199,173	4,040	231,209	120,153
200,188	4,722	231,036	120,584
201,202	4,550	231,032	120,437
202,217	4,616	230,881	120,399
203,232	4,770	230,783	120,457
204,246	4,899	230,539	120,419
205,261	4,993	230,348	120,382
206,275	5,223	230,422	120,588
207,290	5,290	230,104	120,463
208,304	5,003	230,074	120,214
209,319	5,231	229,965	120,323
210,334	5,294	229,656	120,200
211,348	4,670	229,447	119,597
212,363	4,078	229,300	119,052
213,377	4,143	228,897	118,882
214,392	4,236	228,786	118,886
215,407	4,151	228,676	118,752
216,421	4,282	228,629	118,818
217,436	4,205	228,367	118,613
218,450	4,009	228,129	118,327
219,465	3,909	227,972	118,159
220,480	4,227	227,703	118,253
221,494	4,123	227,747	118,185
222,509	4,133	227,553	118,082
223,523	4,368	227,415	118,179
224,538	4,133	227,261	117,909
225,553	4,118	227,307	117,911
226,567	4,245	227,130	117,906
227,582	4,520	227,079	118,079
228,596	4,567	226,905	118,014
229,611	4,352	226,704	117,735
230,626	4,085	226,427	117,377
231,640	3,913	226,360	117,201
232,655	4,452	226,168	117,501
233,669	4,994	226,068	117,851
234,684	5,096	226,014	117,890
235,699	4,643	225,764	117,405
236,713	4,226	225,675	117,031
237,728	4,256	225,484	116,945
238,742	4,296	225,254	116,845
239,757	4,105	225,111	116,616
240,772	4,168	224,787	116,486
241,786	4,091	224,941	116,497
242,801	4,431	224,733	116,636
243,815	4,594	224,748	116,756
244,830	4,609	224,490	116,624
245,844	4,276	224,378	116,303
246,859	4,404	224,065	116,227
247,874	4,601	224,022	116,343
248,888	4,433	223,960	116,174
249,903	4,278	223,673	115,898
250,917	3,945	223,675	115,638
251,932	4,162	223,393	115,645
252,947	4,244	223,197	115,595
253,961	4,040	222,995	115,327
254,976	4,078	222,823	115,257
255,990	4,418	222,772	115,474
257,005	4,366	222,756	115,417
258,020	4,551	222,563	115,445
259,034	4,735	222,501	115,539
260,049	4,579	222,312	115,315
261,063	4,414	222,191	115,119
262,078	4,712	222,058	115,262
263,093	4,543	221,901	115,044
264,107	4,488	221,832	114,956
265,122	4,479	221,551	114,794
266,136	4,845	221,610	115,087
267,151	4,665	221,444	114,856
268,166	4,378	220,947	114,376
269,180	4,238	220,822	114,197
270,195	4,140	220,701	114,052
271,209	4,317	220,573	114,107
272,224	4,214	220,549	114,008
273,239	4,347	220,354	113,995
274,253	4,278	220,091	113,798
275,268	4,041	220,068	113,601
276,282	3,950	219,853	113,413
277,297	3,796	219,796	113,260
278,312	3,786	219,627	113,156
279,326	4,091	219,448	113,277
280,341	3,938	219,315	113,086
281,355	4,100	219,089	113,079
282,370	4,221	218,999	113,111
283,384	4,223	218,912	113,058
284,399	4,121	218,673	112,849
285,414	3,926	218,549	112,632
286,428	4,196	218,548	112,819
287,443	4,214	218,506	112,801
288,457	4,241	218,256	112,681
289,472	4,139	218,246	112,592
290,487	3,951	217,658	112,141
291,501	3,743	217,625	111,962
292,516	3,906	217,625	112,071
293,530	3,682	217,552	111,860
294,545	3,833	217,462	111,914
295,560	4,148	217,174	111,985
296,574	4,058	217,175	111,910
297,589	4,193	216,875	111,843
298,603	4,383	216,948	112,009
299,618	4,356	216,711	111,858
300,633	4,158	216,607	111,650
301,647	4,509	216,562	111,871
302,662	4,501	216,347	111,744
303,676	4,492	216,150	111,626
304,691	4,603	216,040	111,640
305,706	4,637	215,882	111,572
306,720	4,321	215,888	111,337
307,735	4,234	215,574	111,103
308,749	4,111	215,332	110,880
309,764	4,339	215,255	110,995
310,779	4,442	215,184	111,022
311,793	4,314	215,136	110,895
312,808	4,273	214,983	110,777
313,822	4,373	214,686	110,686
314,837	4,088	214,629	110,442
315,852	4,061	214,531	110,363
316,866	4,144	214,406	110,348
317,881	4,285	214,252	110,360
318,895	4,475	214,133	110,424
319,910	4,370	213,939	110,240
320,925	3,846	213,772	109,769
321,939	3,543	213,495	109,401
322,954	3,902	213,442	109,621
323,968	4,156	213,403	109,771
324,983	4,287	213,282	109,793
325,997	4,335	213,352	109,853
327,012	4,208	212,996	109,570
328,027	4,269	212,928	109,569
329,041	4,479	212,957	109,722
330,056	4,606	212,729	109,686
331,070	4,598	212,377	109,489
332,085	4,025	212,337	109,052
333,100	4,071	212,165	108,987
334,114	4,219	212,124	109,061
335,129	4,359	211,812	108,990
336,143	3,886	211,792	108,636
337,158	3,793	211,767	108,547
338,173	3,967	211,619	108,585
339,187	3,858	211,435	108,404
340,202	3,890	211,174	108,283
341,216	3,819	211,092	108,181
342,231	4,126	210,954	108,317
343,246	3,702	210,863	107,963
344,260	4,136	210,659	108,153
345,275	4,268	210,568	108,189
346,289	4,420	210,385	108,192
347,304	4,249	210,374	108,057
348,319	4,274	210,294	108,024
349,333	4,419	210,012	107,971
350,348	4,151	209,979	107,757
351,362	4,375	209,795	107,809
352,377	4,238	209,843	107,728
353,392	4,110	209,581	107,495
354,406	4,316	209,454	107,564
355,421	193,856	1344,545	1432,952
356,435	154,710	1482,927	1433,059
