DTS Sentinel unit serial number:	SN410029Multiplexer serial number:	ORYXHardware model number:	OX2-SRSoftware version number:	ORYX F/W v4,00 Oryx Data Collector v3.7.2.0data status	okinstallation	B6 Nyhavnadifferential loss correction	single-endedforward channel	channel 2reverse channel	N/Adate	2023/12/09time	14:00:08forward acquisition time	300,00reverse acquisition time	0,00gamma	499,1914k internal	0,3134k external	0,3134temperature offset calibration	1,0000default loss term (dB/km)	0,3820temperature slope calibration	1,0000multiplexer offset coefficient	1,0000multiplexer slope coefficient	1,0000fibre end	0,00T internal ref (°C)	20,43T ext. ref 1 (°C)	4,36T ext. ref 2 (°C)	4,37length (m)	temperature (°C)	Stokes	anti-Stokes-744,400	137,186	0,058	0,056
-743,385	33,380	-0,144	0,092
-742,371	800,000	-0,018	0,048
-741,356	46,257	-0,265	0,182
-740,342	107,597	0,164	-0,145
-739,327	-8,538	-0,170	0,084
-738,312	-66,295	-0,062	0,018
-737,298	-115,901	-0,208	0,029
-736,283	113,633	0,032	-0,029
-735,269	158,910	-0,178	0,184
-734,254	16,707	0,059	-0,035
-733,239	29,973	-0,420	-0,266
-732,225	-151,845	0,101	-0,005
-731,210	800,000	0,038	0,079
-730,196	-33,384	0,104	-0,042
-729,181	0,163	-0,078	0,041
-728,167	-200,000	0,008	0,128
-727,152	459,636	-0,065	0,108
-726,137	6,052	-0,050	0,027
-725,123	800,000	0,062	-0,160
-724,108	-4,920	-0,181	-0,092
-723,094	124,682	0,038	-0,035
-722,079	-200,000	-0,003	0,081
-721,064	-200,000	0,066	0,234
-720,050	-200,000	-0,019	0,097
-719,035	45,733	-0,026	-0,018
-718,021	800,000	-0,034	-0,107
-717,006	-200,000	-0,049	-0,217
-715,991	800,000	-0,008	0,020
-714,977	10,730	-0,023	-0,013
-713,962	800,000	-0,028	-0,065
-712,948	592,182	-0,057	0,105
-711,933	-30,937	0,087	-0,036
-710,918	-128,293	-0,075	-0,008
-709,904	465,260	-0,085	-0,141
-708,889	-39,297	-0,127	0,049
-707,875	21,997	-0,073	-0,044
-706,860	-200,000	-0,022	-0,131
-705,845	-81,547	0,080	0,019
-704,831	-17,080	-0,145	0,068
-703,816	800,000	-0,057	0,153
-702,802	-134,303	-0,199	0,018
-701,787	101,767	-0,042	0,036
-700,772	394,407	-0,024	0,037
-699,758	-126,373	0,116	0,013
-698,743	-26,360	0,110	0,048
-697,729	-200,000	0,036	-0,118
-696,714	-139,538	0,114	-0,009
-695,699	-200,000	-0,015	-0,114
-694,685	-46,566	-0,144	0,052
-693,670	7,606	0,060	-0,033
-692,656	-174,376	0,164	-0,003
-691,641	26,058	-0,168	0,104
-690,627	95,965	0,085	0,072
-689,612	-200,000	-0,023	0,094
-688,597	281,884	0,040	0,053
-687,583	800,000	0,037	-0,098
-686,568	-200,000	0,004	-0,020
-685,554	-148,482	-0,130	0,008
-684,539	214,453	0,136	0,160
-683,524	266,547	-0,121	0,158
-682,510	-200,000	-0,003	-0,032
-681,495	92,039	-0,051	0,042
-680,481	46,291	-0,031	-0,021
-679,466	67,012	-0,064	-0,048
-678,451	-95,329	0,026	0,005
-677,437	-107,068	-0,142	0,023
-676,422	117,616	-0,064	0,058
-675,408	409,906	0,027	-0,042
-674,393	800,000	-0,021	-0,055
-673,378	317,325	-0,053	-0,074
-672,364	-189,782	-0,030	0,000
-671,349	64,348	-0,125	-0,093
-670,335	-200,000	-0,003	-0,085
-669,320	-200,000	0,008	0,102
-668,305	21,236	0,076	0,045
-667,291	344,039	-0,055	0,080
-666,276	94,704	-0,063	-0,053
-665,262	-17,353	0,127	-0,059
-664,247	-200,000	0,006	0,038
-663,232	176,932	0,088	0,095
-662,218	-112,889	0,038	-0,005
-661,203	-124,427	-0,102	0,012
-660,189	101,421	-0,054	0,046
-659,174	800,000	0,048	-0,152
-658,159	93,758	0,127	-0,106
-657,145	-200,000	0,005	-0,071
-656,130	-200,000	-0,001	-0,010
-655,116	143,856	-0,044	0,044
-654,101	800,000	0,052	0,115
-653,086	-4,434	-0,106	0,054
-652,072	58,839	-0,146	-0,106
-651,057	485,497	-0,023	-0,039
-650,043	137,884	-0,166	-0,161
-649,028	-79,660	-0,032	0,008
-648,014	-3,485	-0,192	-0,098
-646,999	-154,248	0,088	-0,004
-645,984	-173,232	-0,028	-0,001
-644,970	-17,824	-0,048	0,022
-643,955	47,690	-0,154	-0,106
-642,941	242,397	-0,084	-0,104
-641,926	282,578	0,061	-0,081
-640,911	-62,741	0,061	-0,018
-639,897	-200,000	-0,008	0,173
-638,882	32,870	0,103	0,066
-637,868	800,000	-0,029	0,068
-636,853	-200,000	-0,011	-0,083
-635,838	-33,638	-0,097	-0,040
-634,824	42,424	-0,237	-0,159
-633,809	408,664	0,100	0,157
-632,795	6,580	0,082	-0,045
-631,780	-108,009	-0,156	-0,025
-630,765	-200,000	-0,004	-0,026
-629,751	524,807	-0,048	-0,084
-628,736	800,000	-0,020	-0,060
-627,722	-75,477	0,083	0,022
-626,707	123,045	0,088	0,082
-625,692	-121,669	0,048	0,006
-624,678	800,000	-0,061	0,147
-623,663	-200,000	0,020	0,217
-622,649	530,876	-0,060	0,106
-621,634	173,274	0,058	0,062
-620,619	410,376	-0,064	0,101
-619,605	21,755	0,072	-0,043
-618,590	114,002	-0,119	0,107
-617,576	68,503	0,047	-0,036
-616,561	-114,705	0,088	-0,012
-615,546	-20,337	0,102	-0,046
-614,532	178,144	-0,063	-0,068
-613,517	-31,655	0,046	-0,019
-612,503	-200,000	0,017	-0,070
-611,488	-200,000	-0,006	-0,144
-610,474	-183,008	-0,094	-0,001
-609,459	71,229	0,042	0,033
-608,444	-166,030	-0,122	0,004
-607,430	-200,000	0,001	0,060
-606,415	-74,720	-0,078	0,020
-605,401	91,432	0,090	0,075
-604,386	-200,000	0,015	0,067
-603,371	35,038	-0,083	0,053
-602,357	99,795	-0,082	0,070
-601,342	-200,000	0,003	-0,115
-600,328	-98,047	-0,008	-0,001
-599,313	240,126	0,088	-0,108
-598,298	800,000	0,022	-0,049
-597,284	19,007	0,064	-0,038
-596,269	-200,000	-0,008	-0,092
-595,255	800,000	-0,030	-0,063
-594,240	-49,567	-0,016	0,006
-593,225	800,000	0,033	-0,098
-592,211	800,000	-0,065	0,153
-591,196	463,381	0,007	-0,012
-590,182	-34,350	-0,091	0,037
-589,167	-94,399	0,079	0,016
-588,152	-200,000	0,004	0,081
-587,138	-57,639	-0,011	0,004
-586,123	-151,941	-0,137	-0,007
-585,109	-126,057	0,147	-0,016
-584,094	536,624	0,036	-0,063
-583,079	84,100	0,130	0,105
-582,065	71,905	0,135	0,104
-581,050	495,975	-0,015	-0,026
-580,036	458,380	-0,030	-0,050
-579,021	209,540	-0,084	0,098
-578,006	320,514	-0,015	-0,021
-576,992	666,141	0,042	0,080
-575,977	51,431	-0,037	-0,026
-574,963	800,000	0,071	0,171
-573,948	-100,873	0,009	-0,002
-572,934	165,550	0,091	-0,095
-571,919	201,895	0,014	0,016
-570,904	-200,000	0,012	-0,150
-569,890	800,000	0,054	-0,132
-568,875	800,000	0,028	-0,061
-567,861	-200,000	-0,030	0,117
-566,846	64,074	0,146	0,108
-565,831	-200,000	-0,010	0,042
-564,817	800,000	-0,064	0,139
-563,802	352,686	-0,029	-0,042
-562,788	800,000	-0,023	-0,057
-561,773	-200,000	-0,007	0,048
-560,758	177,250	-0,050	0,054
-559,744	198,872	0,033	0,037
-558,729	800,000	0,008	0,020
-557,715	7,664	0,068	-0,037
-556,700	-200,000	-0,023	-0,104
-555,685	102,633	-0,041	-0,036
-554,671	-133,146	-0,047	0,004
-553,656	-132,670	-0,038	0,004
-552,642	313,867	0,045	0,063
-551,627	-14,854	0,072	0,034
-550,612	-200,000	0,020	-0,108
-549,598	326,104	-0,039	-0,055
-548,583	65,563	0,069	0,051
-547,569	135,438	-0,075	0,072
-546,554	-108,783	0,140	0,022
-545,539	-7,298	-0,058	0,029
-544,525	-113,525	-0,123	0,018
-543,510	-200,000	-0,022	-0,110
-542,496	375,140	-0,063	-0,095
-541,481	-65,976	-0,047	-0,014
-540,466	150,264	-0,024	-0,024
-539,452	-200,000	-0,019	0,145
-538,437	208,982	0,034	-0,039
-537,423	-200,000	-0,009	0,141
-536,408	546,794	-0,059	-0,104
-535,393	-105,574	0,070	-0,012
-534,379	-200,000	0,037	-0,147
-533,364	107,229	0,130	0,114
-532,350	144,325	0,035	0,034
-531,335	416,931	0,049	0,077
-530,321	115,862	-0,107	0,096
-529,306	-31,120	-0,086	0,036
-528,291	-129,631	-0,018	-0,002
-527,277	-200,000	-0,009	-0,048
-526,262	494,362	-0,017	-0,029
-525,248	-39,018	-0,068	0,026
-524,233	122,931	-0,068	-0,062
-523,218	800,000	-0,012	0,032
-522,204	-200,000	0,008	0,054
-521,189	303,594	-0,070	-0,095
-520,175	483,893	-0,050	-0,084
-519,160	47,993	-0,017	0,011
-518,145	68,082	-0,060	-0,045
-517,131	694,248	0,066	0,127
-516,116	-200,000	-0,037	-0,178
-515,102	800,000	-0,044	0,134
-514,087	-69,488	0,075	-0,021
-513,072	498,478	-0,072	-0,122
-512,058	-66,348	0,100	-0,029
-511,043	800,000	0,044	-0,131
-510,029	-200,000	0,029	-0,098
-509,014	-200,000	0,020	-0,071
-507,999	31,738	0,072	0,045
-506,985	-35,587	-0,050	0,020
-505,970	-148,978	-0,172	-0,010
-504,956	-40,124	-0,109	0,042
-503,941	67,381	-0,056	-0,042
-502,926	13,262	0,048	-0,027
-501,912	-155,699	-0,110	0,005
-500,897	-96,863	0,045	-0,009
-499,883	-200,000	-0,006	0,068
-498,868	175,764	-0,111	-0,118
-497,853	-129,980	-0,080	-0,008
-496,839	-35,538	-0,068	-0,027
-495,824	-200,000	0,005	0,030
-494,810	333,203	0,135	0,193
-493,795	159,848	0,094	-0,097
-492,781	-134,999	-0,027	0,002
-491,766	-200,000	0,018	0,138
-490,751	-200,000	0,006	-0,036
-489,737	800,000	0,012	0,038
-488,722	105,060	0,134	0,116
-487,708	27,961	0,167	0,103
-486,693	147,987	0,054	-0,054
-485,678	-25,966	-0,029	-0,012
-484,664	291,881	-0,101	-0,136
-483,649	-54,588	-0,131	-0,043
-482,635	125,166	-0,101	0,094
-481,620	-200,000	0,014	0,186
-480,605	-56,820	0,117	0,038
-479,591	-118,437	-0,199	0,026
-478,576	-80,362	0,095	-0,023
-477,562	275,191	-0,070	-0,091
-476,547	800,000	-0,091	-0,212
-475,532	144,388	0,094	-0,093
-474,518	236,833	-0,041	-0,050
-473,503	-200,000	0,003	-0,112
-472,489	-81,647	-0,031	-0,007
-471,474	-83,384	0,058	-0,013
-470,459	-200,000	0,049	-0,186
-469,445	-79,757	-0,181	-0,044
-468,430	296,409	0,059	0,080
-467,416	93,571	-0,026	-0,022
-466,401	-200,000	-0,006	0,110
-465,386	-58,484	0,076	-0,024
-464,372	-200,000	-0,016	-0,087
-463,357	800,000	0,047	-0,149
-462,343	800,000	-0,091	-0,192
-461,328	224,611	-0,046	0,055
-460,313	800,000	0,076	0,157
-459,299	226,769	0,027	-0,033
-458,284	800,000	-0,052	-0,107
-457,270	800,000	-0,031	-0,084
-456,255	187,151	0,042	0,046
-455,241	-200,000	-0,016	0,057
-454,226	574,217	0,029	-0,052
-453,211	-200,000	0,104	0,000
-452,197	29,573	0,030	0,018
-451,182	800,000	-0,060	0,163
-450,168	800,000	0,026	-0,079
-449,153	-200,000	0,000	-0,071
-448,138	47,432	-0,097	-0,066
-447,124	312,680	0,056	-0,078
-446,109	-200,000	-0,003	-0,169
-445,095	-27,186	0,133	-0,057
-444,080	127,680	-0,075	0,070
-443,065	281,387	0,044	0,058
-442,051	281,044	0,036	-0,047
-441,036	-200,000	0,070	-0,255
-440,022	194,229	-0,098	-0,109
-439,007	26,539	0,051	0,031
-437,992	-84,703	-0,072	-0,016
-436,978	-9,020	0,104	-0,051
-435,963	-18,382	-0,062	0,028
-434,949	313,116	-0,070	0,097
-433,934	124,762	0,056	0,052
-432,919	127,825	-0,040	-0,037
-431,905	800,000	0,048	-0,099
-430,890	348,702	-0,077	-0,112
-429,876	60,454	0,113	-0,082
-428,861	37,817	-0,072	-0,047
-427,846	-200,000	-0,033	-0,179
-426,832	-152,512	-0,103	0,005
-425,817	284,257	0,081	0,107
-424,803	-200,000	0,013	-0,176
-423,788	21,193	-0,015	0,009
-422,773	-200,000	-0,002	-0,035
-421,759	495,912	0,082	0,139
-420,744	-98,524	-0,111	0,021
-419,730	-200,000	-0,020	-0,089
-418,715	102,343	-0,111	0,095
-417,701	5,590	-0,074	-0,040
-416,686	800,000	0,007	0,021
-415,671	3,551	0,052	0,028
-414,657	-103,674	-0,039	-0,007
-413,642	-108,096	-0,052	-0,008
-412,628	-200,000	0,030	0,111
-411,613	-52,487	0,100	0,034
-410,598	141,191	-0,039	-0,038
-409,584	20,544	0,054	-0,032
-408,569	800,000	-0,004	0,011
-407,555	-13,734	0,123	0,058
-406,540	-44,244	0,075	0,027
-405,525	-114,557	0,043	-0,006
-404,511	103,728	0,113	-0,097
-403,496	800,000	0,028	0,067
-402,482	183,831	0,045	0,049
-401,467	330,508	-0,021	-0,030
-400,452	230,566	0,078	0,094
-399,438	745,979	-0,055	-0,110
-398,423	259,044	-0,043	0,055
-397,409	-200,000	0,001	-0,065
-396,394	800,000	0,033	-0,086
-395,379	-146,905	0,061	0,004
-394,365	47,572	0,182	0,124
-393,350	235,948	-0,057	-0,069
-392,336	800,000	-0,023	0,062
-391,321	304,738	0,032	-0,043
-390,306	250,841	0,042	-0,052
-389,292	168,543	-0,054	-0,056
-388,277	48,882	-0,103	0,071
-387,263	-52,600	0,052	0,018
-386,248	162,021	-0,059	0,061
-385,233	-88,626	0,109	0,024
-384,219	123,060	-0,127	-0,116
-383,204	474,945	-0,041	-0,069
-382,190	-119,125	0,078	0,010
-381,175	-55,722	-0,030	0,010
-380,160	190,728	0,040	-0,044
-379,146	-144,611	-0,004	-0,000
-378,131	102,042	-0,109	0,093
-377,117	6,328	-0,033	-0,018
-376,102	-68,920	-0,054	0,015
-375,088	-200,000	-0,022	0,190
-374,073	-200,000	-0,003	-0,045
-373,058	-136,811	-0,216	0,018
-372,044	-115,131	0,145	0,020
-371,029	-144,281	-0,043	0,003
-370,015	-200,000	0,000	0,163
-369,000	373,812	-0,068	0,102
-367,985	-131,408	-0,081	0,008
-366,971	142,245	-0,083	-0,081
-365,956	-63,713	0,070	0,021
-364,942	800,000	-0,059	-0,124
-363,927	-200,000	-0,030	0,230
-362,912	-200,000	0,002	-0,027
-361,898	-55,244	-0,042	-0,014
-360,883	-59,597	-0,026	-0,008
-359,869	5,974	0,074	0,040
-358,854	-162,300	0,099	0,004
-357,839	-200,000	-0,011	0,078
-356,825	41,430	-0,010	0,007
-355,810	-75,365	-0,147	0,038
-354,796	-16,918	0,070	-0,032
-353,781	-200,000	-0,031	-0,159
-352,766	-200,000	0,002	0,094
-351,752	118,415	0,075	0,067
-350,737	800,000	-0,032	0,096
-349,723	800,000	0,059	0,135
-348,708	-200,000	-0,007	-0,033
-347,693	-92,085	-0,108	-0,022
-346,679	-183,671	-0,064	-0,001
-345,664	13,029	-0,055	0,031
-344,650	-113,495	-0,017	0,002
-343,635	-157,808	0,113	-0,005
-342,620	-10,166	0,118	0,057
-341,606	-126,411	0,101	0,011
-340,591	-40,418	0,088	-0,033
-339,577	63,943	-0,119	0,087
-338,562	-68,089	-0,077	-0,022
-337,548	800,000	-0,019	-0,059
-336,533	-111,547	0,035	-0,005
-335,518	-35,419	0,058	0,023
-334,504	304,320	-0,031	-0,042
-333,489	94,422	-0,045	-0,037
-332,475	-88,027	0,078	0,017
-331,460	-130,293	-0,094	-0,009
-330,445	493,553	0,105	-0,177
-329,431	-103,973	0,146	0,025
-328,416	-131,027	0,219	0,021
-327,402	536,241	0,010	0,018
-326,387	800,000	-0,042	0,133
-325,372	-17,334	-0,104	-0,048
-324,358	-200,000	0,003	0,059
-323,343	243,389	0,111	0,136
-322,329	176,795	0,071	0,075
-321,314	-36,832	0,067	0,026
-320,299	370,085	-0,061	0,091
-319,285	-137,514	-0,149	0,012
-318,270	-108,336	-0,123	-0,019
-317,256	348,674	-0,104	-0,150
-316,241	-48,742	-0,104	0,036
-315,226	15,397	0,171	-0,098
-314,212	-200,000	0,016	0,070
-313,197	328,988	0,037	0,052
-312,183	800,000	0,040	-0,110
-311,168	-200,000	-0,012	-0,147
-310,153	-5,305	0,161	-0,080
-309,139	113,740	0,018	0,016
-308,124	800,000	0,024	-0,055
-307,110	-32,235	-0,145	0,059
-306,095	800,000	-0,035	0,089
-305,080	54,076	0,075	-0,053
-304,066	554,838	0,021	-0,036
-303,051	511,539	0,025	-0,043
-302,037	653,760	-0,058	0,110
-301,022	479,611	-0,034	-0,056
-300,008	-192,867	0,064	0,000
-298,993	312,958	0,038	0,053
-297,978	-200,000	-0,013	0,068
-296,964	34,289	-0,105	0,067
-295,949	800,000	-0,054	-0,131
-294,935	-200,000	0,005	-0,055
-293,920	-200,000	0,011	0,080
-292,905	-200,000	0,004	0,110
-291,891	-70,010	-0,081	-0,022
-290,876	-200,000	0,012	-0,059
-289,862	337,338	-0,059	0,084
-288,847	335,272	-0,060	0,084
-287,832	800,000	-0,027	0,085
-286,818	714,619	-0,082	0,159
-285,803	-200,000	0,004	0,050
-284,789	-200,000	0,004	0,022
-283,774	-6,565	0,095	0,047
-282,759	530,795	-0,094	0,163
-281,745	432,573	-0,030	-0,048
-280,730	-70,842	-0,038	0,010
-279,716	339,460	0,071	0,101
-278,701	-100,185	0,084	-0,015
-277,686	-87,477	0,014	0,003
-276,672	-117,892	-0,042	-0,005
-275,657	-90,573	-0,099	0,021
-274,643	800,000	0,049	0,128
-273,628	800,000	-0,018	-0,040
-272,613	-9,644	-0,065	0,032
-271,599	-35,144	-0,065	-0,026
-270,584	17,100	-0,074	0,043
-269,570	-129,893	0,128	-0,013
-268,555	46,461	-0,067	-0,046
-267,540	-108,433	0,143	-0,022
-266,526	-200,000	-0,014	-0,048
-265,511	140,380	-0,032	0,031
-264,497	800,000	0,058	0,122
-263,482	800,000	0,006	-0,018
-262,467	-20,304	0,070	0,031
-261,453	-200,000	0,015	0,093
-260,438	-200,000	0,006	-0,042
-259,424	446,739	-0,097	-0,155
-258,409	-137,307	-0,130	0,011
-257,395	-200,000	0,008	0,064
-256,380	59,046	0,048	0,034
-255,365	-73,443	0,139	0,037
-254,351	-200,000	0,010	0,143
-253,336	119,363	0,016	-0,015
-252,322	-35,310	0,060	-0,024
-251,307	-102,802	-0,095	0,016
-250,292	800,000	-0,018	0,052
-249,278	800,000	0,020	-0,062
-248,263	-200,000	-0,013	0,062
-247,249	53,727	0,081	0,056
-246,234	165,191	-0,127	-0,131
-245,219	-200,000	0,004	0,072
-244,205	324,475	-0,089	-0,124
-243,190	-200,000	-0,011	0,120
-242,176	679,624	-0,019	0,036
-241,161	24,658	0,013	-0,008
-240,146	321,914	-0,079	0,110
-239,132	342,269	-0,014	-0,020
-238,117	800,000	0,011	-0,027
-237,103	187,345	-0,033	0,036
-236,088	257,617	0,042	-0,053
-235,073	-99,836	0,063	-0,011
-234,059	800,000	-0,048	-0,117
-233,044	-48,638	-0,046	-0,016
-232,030	-45,616	0,047	-0,017
-231,015	-41,163	-0,051	0,019
-230,000	29,577	-0,067	-0,042
-228,986	707,559	-0,026	0,050
-227,971	800,000	-0,015	0,033
-226,957	385,561	0,064	0,096
-225,942	-200,000	0,009	0,088
-224,927	458,240	-0,104	-0,168
-223,913	-93,892	-0,041	-0,008
-222,898	-20,786	-0,067	-0,030
-221,884	131,115	0,052	0,048
-220,869	51,729	0,102	-0,070
-219,855	-96,708	0,154	0,029
-218,840	-200,000	-0,003	0,043
-217,825	322,861	-0,073	-0,102
-216,811	-200,000	-0,015	-0,124
-215,796	140,541	-0,077	-0,074
-214,782	-200,000	-0,010	-0,071
-213,767	250,347	0,091	0,112
-212,752	-20,796	0,118	0,052
-211,738	-200,000	0,022	0,087
-210,723	-200,000	0,013	0,082
-209,709	162,060	0,037	0,037
-208,694	-200,000	0,008	-0,076
-207,679	800,000	-0,007	-0,018
-206,665	-78,633	0,039	0,010
-205,650	483,345	0,085	0,142
-204,636	-86,651	0,211	0,047
-203,621	-200,000	0,021	-0,132
-202,606	-80,758	-0,079	0,019
-201,592	-200,000	0,027	-0,141
-200,577	182,614	0,072	-0,077
-199,563	-200,000	-0,007	-0,051
-198,548	255,799	-0,066	-0,082
-197,533	-200,000	-0,004	-0,035
-196,519	73,583	-0,059	-0,045
-195,504	160,501	-0,030	-0,030
-194,490	2,336	-0,076	-0,040
-193,475	-49,556	-0,065	-0,022
-192,460	-142,048	0,103	-0,007
-191,446	25,541	0,162	0,098
-190,431	-200,000	-0,001	0,075
-189,417	-139,958	-0,038	0,003
-188,402	800,000	-0,038	0,095
-187,387	-200,000	0,024	-0,080
-186,373	90,479	-0,090	-0,073
-185,358	-125,342	0,116	-0,013
-184,344	670,541	-0,025	-0,046
-183,329	-136,035	0,244	0,021
-182,315	800,000	0,077	-0,161
-181,300	-200,000	0,001	0,014
-180,285	-56,067	-0,064	0,021
-179,271	-200,000	-0,036	-0,167
-178,256	-94,557	0,207	0,041
-177,242	95,063	0,089	0,073
-176,227	44,412	0,025	-0,017
-175,212	800,000	-0,012	-0,026
-174,198	86,057	-0,053	-0,042
-173,183	-200,000	-0,012	-0,049
-172,169	98,439	-0,075	-0,063
-171,154	315,181	-0,026	-0,035
-170,139	-15,087	0,002	0,001
-169,125	-200,000	-0,002	-0,131
-168,110	381,432	-0,021	-0,031
-167,096	-200,000	-0,023	-0,098
-166,081	337,594	0,032	0,046
-165,066	391,499	-0,045	-0,068
-164,052	-143,181	0,115	-0,008
-163,037	800,000	0,051	0,119
-162,023	496,619	0,103	0,173
-161,008	-5,900	-0,133	0,066
-159,993	-200,000	0,021	0,169
-158,979	-200,000	0,015	0,106
-157,964	-163,168	0,157	0,005
-156,950	-38,960	0,040	0,015
-155,935	-14,076	0,137	0,064
-154,920	-200,000	0,015	0,112
-153,906	800,000	0,014	-0,028
-152,891	89,876	-0,070	-0,057
-151,877	274,992	0,026	0,033
-150,862	-200,000	-0,020	0,116
-149,847	633,751	-0,037	-0,068
-148,833	175,709	-0,064	0,067
-147,818	296,998	0,034	-0,046
-146,804	-200,000	-0,003	-0,072
-145,789	800,000	0,017	-0,040
-144,775	110,193	-0,039	-0,034
-143,760	-109,909	-0,146	0,022
-142,745	-42,081	-0,100	-0,037
-141,731	145,272	-0,026	-0,025
-140,716	-89,345	-0,076	0,016
-139,702	-200,000	-0,006	0,165
-138,687	-200,000	0,003	-0,022
-137,672	103,887	0,070	0,060
-136,658	66,573	-0,042	0,031
-135,643	-200,000	-0,009	-0,141
-134,629	-200,000	0,030	0,106
-133,614	-126,368	0,080	0,009
-132,599	-107,281	0,027	-0,004
-131,585	-53,425	0,191	0,063
-130,570	-0,782	-0,049	0,025
-129,556	-36,884	0,049	-0,019
-128,541	-200,000	-0,020	0,093
-127,526	112,741	-0,078	0,069
-126,512	51,752	0,062	-0,043
-125,497	41,940	0,045	0,030
-124,483	-90,539	0,019	-0,004
-123,468	-200,000	0,010	0,197
-122,453	-200,000	0,017	0,056
-121,439	67,514	0,041	-0,031
-120,424	122,808	-0,082	0,074
-119,410	-61,160	0,157	0,048
-118,395	-200,000	0,025	0,140
-117,380	48,979	0,035	0,024
-116,366	227,095	0,046	-0,055
-115,351	-49,409	-0,067	0,023
-114,337	800,000	0,070	-0,171
-113,322	-67,780	0,034	0,010
-112,307	-64,132	-0,027	0,008
-111,293	-200,000	0,000	-0,059
-110,278	418,121	0,075	0,117
-109,264	101,069	-0,074	-0,062
-108,249	223,152	0,064	0,075
-107,234	-16,901	-0,064	0,029
-106,220	51,920	0,062	-0,043
-105,205	100,980	-0,104	0,088
-104,191	523,923	0,064	0,110
-103,176	55,808	0,136	0,096
-102,162	248,308	-0,024	-0,030
-101,147	-200,000	0,033	0,198
-100,132	-32,364	0,071	-0,029
-99,118	-200,000	-0,008	-0,067
-98,103	-138,718	-0,256	-0,020
-97,089	630,813	-0,017	-0,031
-96,074	50,003	0,041	0,028
-95,059	-58,515	0,095	-0,030
-94,045	422,248	0,031	0,048
-93,030	-200,000	-0,035	-0,129
-92,016	237,387	0,152	-0,183
-91,001	365,124	0,005	-0,008
-89,986	800,000	0,024	0,053
-88,972	-3,802	-0,033	0,016
-87,957	-200,000	0,000	-0,019
-86,943	-200,000	-0,009	-0,084
-85,928	188,092	-0,044	0,048
-84,913	-200,000	0,050	-0,206
-83,899	-24,808	-0,114	0,049
-82,884	241,242	0,088	0,106
-81,870	800,000	0,030	0,062
-80,855	102,925	0,124	-0,105
-79,840	12,181	0,034	0,019
-78,826	-200,000	-0,012	-0,105
-77,811	511,705	-0,028	-0,048
-76,797	348,696	-0,054	-0,077
-75,782	-139,584	0,098	0,007
-74,767	-107,357	-0,065	-0,010
-73,753	-200,000	0,001	-0,107
-72,738	186,487	-0,058	-0,063
-71,724	-26,715	-0,085	-0,036
-70,709	-200,000	-0,004	-0,103
-69,694	323,649	-0,064	0,088
-68,680	128,232	0,082	0,076
-67,665	8,722	-0,103	0,056
-66,651	-13,772	0,123	0,058
-65,636	-6,834	-0,136	0,067
-64,622	242,609	-0,066	-0,081
-63,607	-66,963	-0,221	-0,063
-62,592	800,000	0,053	-0,147
-61,578	-148,660	0,172	0,010
-60,563	800,000	0,026	0,057
-59,549	168,928	0,086	0,089
-58,534	-81,222	-1,498	-0,355
-57,519	745,826	-0,686	-1,341
-56,505	-200,000	-0,871	-4,658
-55,490	-196,571	0,566	-0,003
-54,476	800,000	5,116	11,943
-53,461	-200,000	14,822	262,808
-52,446	-200,000	698,122	2236,334
-51,432	564,648	1621,965	2853,428
-50,417	119,287	1628,709	1457,087
-49,403	76,806	1283,018	983,552
-48,388	37,522	1021,929	654,084
-47,373	22,803	981,969	580,213
-46,359	21,916	971,468	571,084
-45,344	20,647	967,036	564,316
-44,330	20,644	965,646	563,473
-43,315	20,522	964,007	562,097
-42,300	20,501	963,057	561,454
-41,286	20,435	962,060	560,636
-40,271	20,478	960,994	560,132
-39,257	20,478	960,115	559,598
-38,242	20,490	959,275	559,122
-37,227	20,468	958,449	558,547
-36,213	20,429	957,631	557,924
-35,198	20,387	956,725	557,240
-34,184	20,445	955,955	556,955
-33,169	20,376	955,081	556,201
-32,154	20,487	954,010	555,913
-31,140	20,485	953,200	555,411
-30,125	20,451	952,619	554,943
-29,111	20,471	951,713	554,456
-28,096	20,438	951,069	553,952
-27,082	20,419	950,337	553,443
-26,067	20,458	949,351	552,975
-25,052	20,484	948,765	552,694
-24,038	20,492	948,072	552,292
-23,023	20,504	947,325	551,874
-22,009	20,501	946,877	551,583
-20,994	20,516	946,267	551,252
-19,979	20,500	945,704	550,853
-18,965	20,477	944,977	550,332
-17,950	20,491	944,355	549,993
-16,936	20,380	943,919	549,363
-15,921	20,466	943,060	549,117
-14,906	20,383	942,197	548,327
-13,892	20,357	941,723	547,948
-12,877	20,331	941,054	547,453
-11,863	20,319	940,408	547,020
-10,848	20,298	940,107	546,755
-9,833	20,472	939,480	546,921
-8,819	20,376	938,987	546,307
-7,804	20,354	938,356	545,850
-6,790	20,310	937,795	545,364
-5,775	20,417	937,006	545,218
-4,760	20,407	936,516	544,881
-3,746	20,391	935,858	544,425
-2,731	20,270	935,155	543,614
-1,717	20,194	934,478	542,959
-0,702	20,240	933,729	542,649
0,313	19,931	933,267	542,226
1,327	23,103	931,267	550,974
2,342	32,400	793,373	494,039
3,356	29,798	450,678	276,705
4,371	-0,424	295,938	151,361
5,386	-4,666	277,145	137,695
6,400	-6,011	271,582	133,663
7,415	-6,302	269,172	132,195
8,429	-6,181	268,005	131,722
9,444	-6,028	267,074	131,393
10,459	-6,042	266,330	131,003
11,473	-6,182	265,752	130,578
12,488	-6,300	265,298	130,236
13,502	-6,521	264,689	129,724
14,517	-6,623	264,463	129,509
15,531	-6,386	264,071	129,520
16,546	-6,101	263,512	129,493
17,561	-6,329	263,141	129,093
18,575	-6,259	262,850	129,002
19,590	-6,381	262,652	128,783
20,604	-6,426	262,348	128,582
21,619	-6,297	261,850	128,443
22,634	-6,468	261,607	128,159
23,648	-6,238	261,179	128,144
24,663	-6,408	261,021	127,902
25,677	-6,262	260,767	127,897
26,692	-6,435	260,460	127,581
27,707	-6,364	260,201	127,505
28,721	-6,443	259,892	127,272
29,736	-6,496	259,725	127,132
30,750	-6,488	259,523	127,029
31,765	-6,560	259,149	126,770
32,780	-6,623	259,064	126,661
33,794	-6,573	258,714	126,523
34,809	-6,663	258,580	126,367
35,823	-6,351	258,191	126,442
36,838	-6,557	258,002	126,156
37,853	-6,609	257,891	126,044
38,867	-6,568	257,572	125,913
39,882	-6,544	257,231	125,756
40,896	-6,627	257,061	125,589
41,911	-6,485	256,855	125,602
42,926	-6,564	256,651	125,422
43,940	-6,427	256,286	125,352
44,955	-6,537	256,217	125,211
45,969	-6,690	255,911	124,916
46,984	-6,951	255,701	124,573
47,999	-7,063	255,380	124,307
49,013	-7,258	255,132	124,005
50,028	-7,205	254,803	123,881
51,042	-7,509	254,596	123,503
52,057	-7,373	254,391	123,512
53,071	-7,456	254,185	123,328
54,086	-7,222	254,018	123,440
55,101	-7,111	253,788	123,413
56,115	-6,962	253,783	123,530
57,130	-6,485	253,671	123,879
58,144	-6,331	253,562	123,949
59,159	-6,063	253,254	124,020
60,174	-6,045	252,989	123,894
61,188	-6,354	252,936	123,590
62,203	-6,460	252,739	123,390
63,217	-6,424	252,408	123,249
64,232	-6,402	252,180	123,146
65,247	-6,496	252,146	123,037
66,261	-6,256	251,754	123,042
67,276	-6,589	251,560	122,649
68,290	-6,802	251,067	122,215
69,305	-6,841	251,017	122,146
70,320	-6,975	250,788	121,909
71,334	-6,628	250,905	122,252
72,349	-6,365	250,593	122,315
73,363	-6,265	250,441	122,316
74,378	-6,115	250,180	122,306
75,393	-6,419	250,151	122,021
76,407	-6,441	249,824	121,831
77,422	-6,477	249,498	121,631
78,436	-6,484	249,379	121,556
79,451	-6,359	249,105	121,518
80,466	-6,387	249,021	121,443
81,480	-6,727	248,587	120,931
82,495	-6,641	248,331	120,868
83,509	-6,617	248,226	120,827
84,524	-6,635	248,023	120,702
85,539	-7,125	247,938	120,234
86,553	-6,889	247,739	120,327
87,568	-6,703	247,566	120,390
88,582	-6,668	247,274	120,267
89,597	-6,809	247,156	120,079
90,611	-6,774	246,989	120,017
91,626	-6,525	246,855	120,151
92,641	-6,499	246,661	120,068
93,655	-6,571	246,515	119,926
94,670	-6,740	246,317	119,677
95,684	-6,688	246,059	119,584
96,699	-6,663	245,970	119,551
97,714	-6,669	245,663	119,386
98,728	-6,789	245,452	119,173
99,743	-6,921	245,268	118,962
100,757	-6,974	244,980	118,768
101,772	-6,865	244,908	118,813
102,787	-6,604	244,653	118,897
103,801	-6,695	244,577	118,774
104,816	-6,717	244,369	118,644
105,830	-6,605	244,357	118,720
106,845	-6,468	244,223	118,759
107,860	-6,406	243,810	118,600
108,874	-6,790	243,763	118,246
109,889	-6,681	243,529	118,213
110,903	-6,691	243,267	118,067
111,918	-6,651	243,110	118,013
112,933	-7,010	242,968	117,636
113,947	-6,795	242,919	117,780
114,962	-6,472	242,529	117,848
115,976	-6,413	242,473	117,859
116,991	-6,565	242,351	117,663
118,006	-6,532	242,107	117,562
119,020	-6,628	242,023	117,431
120,035	-6,488	241,791	117,424
121,049	-6,386	241,638	117,423
122,064	-6,595	241,649	117,245
123,079	-6,561	241,363	117,124
124,093	-6,560	240,913	116,896
125,108	-6,906	240,867	116,580
126,122	-6,935	240,435	116,336
127,137	-6,962	240,258	116,219
128,151	-7,126	240,378	116,132
129,166	-6,841	240,134	116,237
130,181	-6,929	239,864	116,023
131,195	-6,778	239,726	116,069
132,210	-6,744	239,560	116,007
133,224	-6,673	239,453	116,002
134,239	-6,492	239,264	116,048
135,254	-6,707	239,264	115,863
136,268	-6,667	238,827	115,673
137,283	-6,906	238,614	115,365
138,297	-7,039	238,492	115,189
139,312	-7,189	238,341	114,983
140,327	-6,724	238,318	115,339
141,341	-5,958	238,059	115,824
142,356	-6,087	238,111	115,735
143,370	-6,154	237,960	115,596
144,385	-6,098	237,727	115,519
145,400	-6,286	237,585	115,287
146,414	-6,159	237,402	115,290
147,429	-6,273	237,160	115,071
148,443	-6,310	236,936	114,922
149,458	-6,208	236,874	114,964
150,473	-6,170	236,642	114,871
151,487	-6,251	236,460	114,707
152,502	-6,281	236,284	114,588
153,516	-5,996	236,082	114,709
154,531	-6,201	235,983	114,486
155,546	-6,119	235,664	114,386
156,560	-6,325	235,545	114,154
157,575	-6,276	235,407	114,116
158,589	-6,332	235,160	113,942
159,604	-6,202	235,145	114,028
160,619	-6,082	234,988	114,037
161,633	-5,777	234,783	114,171
162,648	-6,039	234,715	113,919
163,662	-6,134	234,536	113,746
164,677	-6,183	234,285	113,575
165,692	-6,313	234,285	113,461
166,706	-6,118	234,166	113,549
167,721	-6,048	233,851	113,442
168,735	-5,984	233,769	113,443
169,750	-6,246	233,551	113,119
170,764	-6,074	233,379	113,162
171,779	-6,023	233,191	113,101
172,794	-6,144	233,159	112,979
173,808	-6,325	232,905	112,703
174,823	-6,805	232,557	112,146
175,837	-6,926	232,375	111,953
176,852	-6,553	232,398	112,248
177,867	-6,248	232,332	112,446
178,881	-6,061	232,126	112,484
179,896	-6,031	232,089	112,479
180,910	-6,160	231,910	112,281
181,925	-6,011	231,563	112,220
182,940	-5,981	231,497	112,202
183,954	-6,030	231,439	112,125
184,969	-5,913	231,255	112,118
185,983	-6,019	231,132	111,965
186,998	-5,765	230,883	112,033
188,013	-5,946	230,730	111,808
189,027	-5,714	230,520	111,877
190,042	-5,939	230,612	111,736
191,056	-5,971	230,357	111,578
192,071	-5,906	230,142	111,514
193,086	-6,127	230,049	111,287
194,100	-5,904	229,930	111,393
195,115	-6,220	229,510	110,935
196,129	-6,800	229,319	110,381
197,144	-3,230	230,539	113,743
198,159	1,230	231,651	117,770
199,173	3,436	232,255	119,792
200,188	3,799	232,152	120,012
201,202	3,604	232,104	119,824
202,217	3,691	232,182	119,921
203,232	4,082	231,801	120,019
204,246	4,316	231,624	120,099
205,261	4,241	231,596	120,015
206,275	4,584	231,461	120,201
207,290	4,361	231,393	119,982
208,304	4,511	231,030	119,899
209,319	4,545	230,907	119,851
210,334	4,291	230,831	119,604
211,348	4,353	230,475	119,457
212,363	3,897	230,240	118,972
213,377	3,588	230,025	118,611
214,392	3,696	229,837	118,587
215,407	3,659	229,855	118,557
216,421	3,785	229,743	118,586
217,436	3,642	229,547	118,364
218,450	3,313	229,343	117,995
219,465	3,240	229,083	117,794
220,480	3,401	228,998	117,864
221,494	3,259	228,863	117,675
222,509	3,809	228,624	117,964
223,523	3,574	228,576	117,748
224,538	3,462	228,352	117,536
225,553	3,597	228,292	117,599
226,567	3,602	228,210	117,549
227,582	3,975	228,125	117,781
228,596	4,042	227,950	117,731
229,611	3,668	227,742	117,328
230,626	3,367	227,672	117,051
231,640	3,230	227,447	116,820
232,655	3,816	227,287	117,174
233,669	4,134	227,299	117,413
234,684	4,305	227,150	117,456
235,699	3,926	226,977	117,067
236,713	3,845	226,596	116,799
237,728	3,415	226,566	116,446
238,742	3,439	226,378	116,357
239,757	3,588	226,141	116,338
240,772	3,443	226,014	116,153
241,786	3,625	225,820	116,180
242,801	3,641	225,875	116,211
243,815	3,975	225,912	116,472
244,830	4,031	225,590	116,338
245,844	3,762	225,395	116,024
246,859	3,682	225,185	115,845
247,874	3,995	225,107	116,030
248,888	3,703	224,935	115,712
249,903	3,723	224,867	115,681
250,917	3,657	224,653	115,511
251,932	3,399	224,517	115,237
252,947	3,356	224,312	115,089
253,961	3,634	224,147	115,203
254,976	3,433	224,086	115,010
255,990	3,717	223,903	115,119
257,005	3,955	223,739	115,202
258,020	3,902	223,735	115,151
259,034	4,102	223,615	115,229
260,049	3,941	223,268	114,919
261,063	3,798	223,323	114,830
262,078	3,873	223,135	114,779
263,093	4,210	222,963	114,932
264,107	3,737	222,826	114,499
265,122	3,903	222,686	114,540
266,136	4,002	222,562	114,540
267,151	4,125	222,496	114,587
268,166	3,766	222,244	114,181
269,180	3,449	221,954	113,786
270,195	3,345	221,774	113,606
271,209	3,467	221,728	113,663
272,224	3,442	221,590	113,564
273,239	3,579	221,414	113,565
274,253	3,670	221,208	113,516
275,268	3,663	220,911	113,349
276,282	3,318	220,990	113,124
277,297	3,360	220,558	112,924
278,312	3,412	220,661	113,005
279,326	3,560	220,541	113,043
280,341	3,603	220,425	113,005
281,355	3,752	220,244	113,011
282,370	3,648	220,129	112,865
283,384	3,331	220,011	112,562
284,399	3,340	219,855	112,479
285,414	3,390	219,685	112,419
286,428	3,595	219,653	112,543
287,443	3,758	219,536	112,592
288,457	3,744	219,311	112,457
289,472	3,545	219,164	112,225
290,487	3,142	218,945	111,809
291,501	3,233	218,792	111,787
292,516	3,308	218,634	111,751
293,530	3,340	218,492	111,692
294,545	3,435	218,435	111,722
295,560	3,605	218,204	111,718
296,574	3,506	218,118	111,592
297,589	3,479	218,062	111,534
298,603	3,646	217,913	111,569
299,618	3,897	217,750	111,658
300,633	3,615	217,671	111,403
301,647	3,892	217,498	111,505
302,662	3,727	217,472	111,362
303,676	3,965	217,233	111,402
304,691	3,956	217,081	111,308
305,706	3,770	217,074	111,160
306,720	3,526	216,922	110,896
307,735	3,372	216,652	110,636
308,749	3,530	216,461	110,643
309,764	3,906	216,406	110,876
310,779	3,948	216,402	110,895
311,793	3,641	216,219	110,569
312,808	3,739	216,044	110,541
313,822	3,756	215,754	110,394
314,837	3,576	215,726	110,241
315,852	3,646	215,378	110,103
316,866	3,671	215,348	110,097
317,881	3,944	215,257	110,236
318,895	3,822	215,068	110,042
319,910	3,683	215,029	109,913
320,925	3,355	214,765	109,533
321,939	2,954	214,615	109,160
322,954	3,073	214,532	109,193
323,968	3,630	214,634	109,633
324,983	4,004	214,321	109,731
325,997	3,963	214,198	109,629
327,012	3,765	214,166	109,461
328,027	3,869	213,795	109,336
329,041	4,044	213,950	109,530
330,056	4,252	213,885	109,635
331,070	3,516	213,740	109,028
332,085	3,430	213,374	108,770
333,100	3,425	213,191	108,664
334,114	3,629	213,077	108,741
335,129	3,711	213,085	108,793
336,143	3,728	212,754	108,626
337,158	3,512	212,782	108,478
338,173	3,617	212,482	108,389
339,187	3,509	212,370	108,246
340,202	3,303	212,359	108,086
341,216	3,341	212,135	107,989
342,231	3,513	211,989	108,027
343,246	3,360	211,786	107,805
344,260	3,330	211,775	107,769
345,275	3,528	211,697	107,859
346,289	3,855	211,432	107,944
347,304	3,652	211,222	107,685
348,319	3,597	211,154	107,602
349,333	3,424	211,149	107,469
350,348	3,566	210,991	107,478
351,362	3,643	210,910	107,481
352,377	3,805	210,739	107,498
353,392	3,704	210,580	107,337
354,406	3,757	210,527	107,337
355,421	194,584	1342,997	1428,547
356,435	155,363	1481,030	1428,638
