DTS Sentinel unit serial number:	SN410029Multiplexer serial number:	ORYXHardware model number:	OX2-SRSoftware version number:	ORYX F/W v4,00 Oryx Data Collector v3.7.2.0data status	okinstallation	B6 Nyhavnadifferential loss correction	single-endedforward channel	channel 2reverse channel	N/Adate	2023/12/09time	21:30:08forward acquisition time	300,00reverse acquisition time	0,00gamma	499,1914k internal	0,3127k external	0,3127temperature offset calibration	1,0000default loss term (dB/km)	0,3820temperature slope calibration	1,0000multiplexer offset coefficient	1,0000multiplexer slope coefficient	1,0000fibre end	0,00T internal ref (°C)	21,56T ext. ref 1 (°C)	5,43T ext. ref 2 (°C)	5,42length (m)	temperature (°C)	Stokes	anti-Stokes-744,400	-28,761	-0,088	0,037
-743,385	11,339	-0,188	0,107
-742,371	-200,000	0,006	-0,044
-741,356	428,114	-0,141	0,227
-740,342	-200,000	0,023	0,089
-739,327	403,531	-0,163	0,257
-738,312	-200,000	-0,018	-0,183
-737,298	-95,662	-0,270	0,053
-736,283	-200,000	0,005	-0,039
-735,269	681,325	-0,060	0,117
-734,254	-200,000	0,046	-0,168
-733,239	-33,227	-0,417	-0,171
-732,225	-117,746	-0,038	-0,005
-731,210	-80,795	0,125	0,031
-730,196	212,407	-0,096	-0,113
-729,181	-170,348	0,018	0,000
-728,167	-200,000	-0,038	-0,140
-727,152	329,167	0,056	-0,080
-726,137	800,000	-0,027	-0,089
-725,123	-65,754	-0,161	0,048
-724,108	-110,594	-0,181	-0,028
-723,094	-146,159	-0,227	-0,015
-722,079	212,525	-0,036	0,042
-721,064	800,000	-0,019	-0,056
-720,050	744,559	0,012	-0,025
-719,035	171,866	0,072	-0,077
-718,021	168,655	0,036	-0,038
-717,006	73,721	-0,208	-0,162
-715,991	-52,944	-0,031	-0,011
-714,977	60,075	-0,164	-0,120
-713,962	283,765	-0,041	0,055
-712,948	-200,000	0,001	0,047
-711,933	32,165	0,084	-0,054
-710,918	487,873	0,020	0,034
-709,904	567,010	-0,061	-0,110
-708,889	-200,000	-0,003	-0,073
-707,875	211,612	-0,120	-0,141
-706,860	-200,000	0,030	-0,117
-705,845	-200,000	0,031	-0,153
-704,831	-200,000	0,026	-0,092
-703,816	-161,864	-0,148	0,005
-702,802	-200,000	0,022	0,107
-701,787	202,562	-0,058	-0,067
-700,772	746,680	-0,047	0,094
-699,758	-200,000	0,004	-0,035
-698,743	-57,123	0,055	-0,018
-697,729	15,395	-0,071	0,041
-696,714	-37,127	-0,107	0,042
-695,699	800,000	-0,013	-0,031
-694,685	509,035	0,042	-0,072
-693,670	578,747	-0,038	-0,069
-692,656	-36,182	-0,069	0,028
-691,641	63,693	0,053	0,039
-690,627	-124,083	-0,058	-0,007
-689,612	-110,252	0,014	-0,002
-688,597	45,874	0,064	-0,044
-687,583	5,448	0,026	-0,014
-686,568	-200,000	0,002	-0,125
-685,554	666,389	-0,044	-0,085
-684,539	-120,117	0,083	0,010
-683,524	-54,396	0,104	0,035
-682,510	-200,000	-0,001	-0,041
-681,495	-200,000	0,007	-0,126
-680,481	612,518	0,059	-0,110
-679,466	-200,000	-0,030	-0,104
-678,451	-12,447	-0,113	-0,055
-677,437	-200,000	-0,041	0,158
-676,422	800,000	-0,027	0,064
-675,408	-200,000	-0,007	0,032
-674,393	-77,338	0,070	0,018
-673,378	800,000	-0,036	-0,091
-672,364	164,177	-0,148	-0,155
-671,349	136,517	-0,187	-0,182
-670,335	-82,965	-0,069	-0,016
-669,320	-70,898	-0,154	-0,043
-668,305	-200,000	-0,034	-0,116
-667,291	800,000	-0,009	-0,030
-666,276	193,033	-0,029	0,032
-665,262	800,000	0,076	-0,202
-664,247	-93,769	0,130	-0,026
-663,232	-200,000	0,001	-0,083
-662,218	-200,000	-0,027	0,165
-661,203	50,503	-0,050	0,035
-660,189	530,723	-0,076	-0,134
-659,174	800,000	-0,020	0,042
-658,159	-200,000	-0,029	0,000
-657,145	800,000	0,022	0,057
-656,130	-200,000	0,000	0,102
-655,116	-200,000	0,018	0,065
-654,101	800,000	-0,032	0,100
-653,086	800,000	-0,035	0,074
-652,072	583,400	-0,066	-0,121
-651,057	650,295	0,038	-0,073
-650,043	-200,000	0,049	-0,159
-649,028	-200,000	0,012	-0,128
-648,014	-200,000	0,018	-0,126
-646,999	480,458	-0,038	-0,065
-645,984	-200,000	-0,004	0,082
-644,970	449,822	-0,035	0,058
-643,955	-200,000	-0,009	-0,211
-642,941	333,519	0,042	0,061
-641,926	-13,778	0,019	0,009
-640,911	179,337	-0,122	-0,132
-639,897	-200,000	-0,014	0,100
-638,882	19,867	-0,028	0,017
-637,868	-200,000	-0,011	-0,043
-636,853	-200,000	0,015	-0,183
-635,838	-172,976	-0,162	-0,004
-634,824	34,307	-0,051	-0,033
-633,809	-200,000	0,026	-0,110
-632,795	800,000	0,044	-0,115
-631,780	576,164	0,043	-0,078
-630,765	-142,632	-0,142	0,010
-629,751	800,000	-0,048	0,104
-628,736	-18,080	-0,085	0,039
-627,722	-72,775	0,098	0,026
-626,707	-200,000	0,013	0,068
-625,692	218,907	-0,031	-0,036
-624,678	-123,765	0,071	0,008
-623,663	-200,000	-0,009	0,037
-622,649	12,996	-0,101	0,058
-621,634	142,948	0,064	-0,063
-620,619	-187,050	0,127	0,001
-619,605	-119,116	-0,059	-0,008
-618,590	-200,000	-0,009	0,067
-617,576	482,178	-0,036	0,061
-616,561	-184,689	0,193	0,002
-615,546	-59,746	-0,085	-0,027
-614,532	37,047	-0,133	-0,087
-613,517	323,819	-0,050	0,071
-612,503	196,405	0,059	0,067
-611,488	-200,000	-0,007	-0,025
-610,474	542,600	-0,021	0,037
-609,459	127,145	0,013	0,012
-608,444	-74,668	0,043	0,011
-607,430	10,518	0,039	0,022
-606,415	-110,166	-0,017	-0,003
-605,401	-33,038	-0,076	0,031
-604,386	-66,718	0,103	0,030
-603,371	-137,515	-0,089	-0,007
-602,357	116,762	-0,037	0,034
-601,342	-65,561	-0,024	-0,007
-600,328	533,954	-0,030	0,053
-599,313	150,469	-0,047	0,048
-598,298	-200,000	0,006	-0,115
-597,284	-170,612	0,149	-0,004
-596,269	104,548	0,019	-0,017
-595,255	152,970	0,080	-0,081
-594,240	-34,643	0,017	-0,007
-593,225	-52,093	-0,101	0,034
-592,211	428,048	-0,082	-0,132
-591,196	26,009	0,080	-0,049
-590,182	495,720	0,061	-0,105
-589,167	-93,093	0,067	0,014
-588,152	63,940	-0,012	0,009
-587,138	179,006	-0,054	0,059
-586,123	-200,000	-0,026	-0,159
-585,109	-200,000	0,018	-0,118
-584,094	34,820	0,080	-0,052
-583,079	-121,189	-0,024	-0,003
-582,065	-76,999	0,033	0,008
-581,050	800,000	0,032	-0,077
-580,036	800,000	0,039	0,082
-579,021	390,210	0,088	-0,136
-578,006	190,724	-0,078	-0,086
-576,992	18,284	0,131	-0,077
-575,977	188,274	-0,116	-0,128
-574,963	-200,000	0,030	0,102
-573,948	3,974	0,104	0,056
-572,934	-52,763	-0,111	-0,038
-571,919	-13,773	-0,059	0,028
-570,904	19,162	-0,070	-0,041
-569,890	63,641	-0,082	-0,061
-568,875	-147,349	0,138	-0,009
-567,861	-200,000	-0,018	-0,103
-566,846	162,487	0,014	0,015
-565,831	231,718	-0,048	0,058
-564,817	-20,093	-0,059	0,027
-563,802	-200,000	-0,004	0,022
-562,788	800,000	-0,039	-0,085
-561,773	277,150	0,084	-0,111
-560,758	-44,952	0,093	-0,034
-559,744	-200,000	-0,075	0,000
-558,729	31,202	0,068	0,043
-557,715	-200,000	0,021	0,104
-556,700	-183,169	-0,181	0,002
-555,685	417,378	-0,055	-0,088
-554,671	334,802	-0,043	0,062
-553,656	590,152	-0,009	-0,017
-552,642	-200,000	-0,003	-0,105
-551,627	-111,767	-0,061	-0,009
-550,612	-200,000	0,016	0,083
-549,598	275,976	-0,121	-0,159
-548,583	-85,488	0,064	0,015
-547,569	800,000	0,007	-0,019
-546,554	800,000	0,048	-0,120
-545,539	800,000	0,031	-0,066
-544,525	285,470	0,082	0,110
-543,510	78,993	-0,102	0,081
-542,496	-200,000	0,005	-0,289
-541,481	-131,317	-0,201	0,019
-540,466	-106,408	0,167	0,027
-539,452	201,415	0,063	-0,072
-538,437	84,843	0,066	0,053
-537,423	-200,000	-0,013	0,101
-536,408	-17,456	0,104	0,048
-535,393	476,808	0,083	-0,140
-534,379	-46,961	-0,085	0,031
-533,364	176,870	0,064	-0,068
-532,350	627,110	-0,051	0,095
-531,335	800,000	0,044	0,104
-530,321	-200,000	0,047	0,217
-529,306	-50,901	-0,047	0,016
-528,291	-99,148	0,001	-0,000
-527,277	23,817	-0,071	0,043
-526,262	-15,203	-0,070	-0,033
-525,248	192,876	-0,081	0,091
-524,233	-17,642	-0,071	-0,033
-523,218	-200,000	-0,030	0,111
-522,204	-200,000	0,017	0,057
-521,189	267,446	-0,045	-0,058
-520,175	107,707	-0,076	-0,067
-519,160	-82,978	-0,070	0,016
-518,145	736,760	-0,023	-0,045
-517,131	-15,394	0,062	0,029
-516,116	-200,000	-0,014	0,071
-515,102	391,095	0,057	0,087
-514,087	83,009	0,079	-0,064
-513,072	-58,786	0,063	0,020
-512,058	-57,606	0,067	-0,021
-511,043	119,764	0,078	-0,071
-510,029	-200,000	-0,015	-0,115
-509,014	37,262	-0,080	-0,052
-507,999	483,267	-0,063	0,107
-506,985	26,528	-0,006	-0,004
-505,970	159,972	-0,061	-0,062
-504,956	370,386	-0,030	0,045
-503,941	141,120	-0,094	-0,092
-502,926	-200,000	0,006	-0,063
-501,912	114,583	0,063	-0,057
-500,897	-200,000	0,003	0,023
-499,883	-187,461	0,059	0,001
-498,868	-7,623	-0,109	0,054
-497,853	-30,432	0,144	-0,060
-496,839	-30,209	0,050	0,021
-495,824	43,307	0,079	0,053
-494,810	-200,000	-0,003	0,129
-493,795	8,397	-0,025	-0,014
-492,781	-116,036	0,044	0,006
-491,766	-200,000	-0,028	-0,098
-490,751	374,889	-0,023	-0,034
-489,737	365,342	-0,082	0,122
-488,722	13,909	0,034	0,020
-487,708	150,253	-0,069	0,069
-486,693	800,000	0,054	0,154
-485,678	208,294	-0,045	0,052
-484,664	-200,000	-0,014	0,066
-483,649	618,863	-0,099	-0,183
-482,635	-92,808	0,103	0,021
-481,620	800,000	0,018	-0,054
-480,605	-132,552	-0,013	-0,001
-479,591	-200,000	0,031	0,118
-478,576	102,133	-0,092	0,079
-477,562	800,000	-0,008	0,026
-476,547	800,000	-0,019	0,054
-475,532	452,245	0,038	-0,063
-474,518	681,027	-0,028	-0,053
-473,503	40,324	0,041	0,027
-472,489	-23,557	0,068	-0,030
-471,474	800,000	-0,020	-0,051
-470,459	135,184	-0,020	-0,019
-469,445	-71,694	-0,118	-0,032
-468,430	-200,000	-0,002	0,028
-467,416	800,000	-0,027	-0,074
-466,401	183,670	0,024	0,026
-465,386	528,890	-0,061	0,106
-464,372	-160,569	0,008	0,000
-463,357	44,638	-0,049	0,033
-462,343	-81,525	0,095	0,023
-461,328	-107,719	-0,116	0,018
-460,313	-38,908	-0,212	-0,082
-459,299	-152,323	0,246	-0,013
-458,284	-200,000	-0,016	-0,078
-457,270	-24,902	0,073	0,032
-456,255	-122,855	0,082	-0,010
-455,241	8,836	0,057	-0,031
-454,226	-200,000	-0,033	0,113
-453,211	-49,560	0,094	0,033
-452,197	-73,336	0,017	-0,005
-451,182	-200,000	0,005	0,072
-450,168	-200,000	0,032	0,118
-449,153	-28,558	-0,115	-0,048
-448,138	176,001	-0,114	-0,122
-447,124	-200,000	-0,006	-0,099
-446,109	-200,000	0,002	0,121
-445,095	800,000	0,060	0,134
-444,080	649,984	0,076	0,144
-443,065	60,314	-0,055	0,040
-442,051	-61,956	-0,126	-0,038
-441,036	338,113	0,047	0,068
-440,022	-1,244	0,026	-0,013
-439,007	103,416	0,105	0,090
-437,992	-64,560	0,165	-0,049
-436,978	-88,508	0,142	0,031
-435,963	57,516	0,095	0,068
-434,949	480,116	-0,057	0,095
-433,934	-200,000	-0,002	-0,065
-432,919	-52,302	-0,123	-0,042
-431,905	276,721	-0,030	0,040
-430,890	-200,000	0,035	0,148
-429,876	-200,000	-0,001	0,003
-428,861	-200,000	-0,023	0,145
-427,846	-200,000	-0,002	0,076
-426,832	24,203	0,047	0,028
-425,817	18,435	0,052	0,030
-424,803	224,424	0,028	0,033
-423,788	800,000	-0,029	-0,079
-422,773	-123,273	0,063	-0,007
-421,759	800,000	-0,027	0,061
-420,744	-200,000	0,008	-0,099
-419,730	167,184	0,014	0,014
-418,715	255,546	-0,129	-0,163
-417,701	617,582	0,038	-0,070
-416,686	-91,090	0,133	-0,028
-415,671	800,000	-0,037	-0,108
-414,657	-3,807	-0,087	-0,044
-413,642	289,605	0,105	0,141
-412,628	-154,187	-0,089	0,004
-411,613	-200,000	-0,002	0,012
-410,598	63,925	-0,087	-0,064
-409,584	-200,000	0,033	-0,171
-408,569	91,555	0,036	0,030
-407,555	-7,578	0,074	0,037
-406,540	-200,000	-0,011	0,082
-405,525	-200,000	-0,005	0,051
-404,511	-46,923	0,030	-0,011
-403,496	167,300	-0,037	-0,039
-402,482	152,257	0,083	-0,083
-401,467	800,000	0,065	-0,140
-400,452	-166,440	-0,055	0,002
-399,438	200,004	0,072	-0,081
-398,423	-156,444	0,046	0,002
-397,409	-48,570	0,030	0,011
-396,394	54,251	-0,096	0,068
-395,379	800,000	-0,017	0,036
-394,365	-200,000	0,000	0,127
-393,350	-4,245	0,110	0,056
-392,336	-105,942	0,091	0,015
-391,321	-35,030	-0,061	-0,024
-390,306	337,035	-0,042	-0,060
-389,292	-9,846	-0,055	-0,027
-388,277	-44,601	-0,087	-0,032
-387,263	3,527	0,043	-0,023
-386,248	-3,467	-0,070	0,036
-385,233	-200,000	-0,003	0,055
-384,219	-129,834	0,071	-0,007
-383,204	-200,000	0,005	0,049
-382,190	9,055	0,130	-0,072
-381,175	-200,000	-0,013	0,130
-380,160	265,375	0,084	0,107
-379,146	144,503	-0,037	-0,036
-378,131	85,603	-0,047	-0,038
-377,117	54,977	-0,128	-0,091
-376,102	748,236	-0,031	-0,062
-375,088	-8,684	-0,123	-0,061
-374,073	800,000	0,043	-0,117
-373,058	142,036	0,015	-0,015
-372,044	-200,000	-0,020	-0,078
-371,029	800,000	0,026	-0,060
-370,015	83,205	-0,127	-0,102
-369,000	-92,778	-0,028	-0,006
-367,985	800,000	0,020	-0,046
-366,971	5,602	0,112	0,060
-365,956	-200,000	-0,026	0,101
-364,942	204,908	0,116	0,132
-363,927	-200,000	0,005	0,034
-362,912	800,000	0,032	0,086
-361,898	257,786	0,085	-0,108
-360,883	-70,892	-0,213	-0,058
-359,869	-125,557	0,052	-0,006
-358,854	800,000	0,028	-0,067
-357,839	-200,000	-0,004	0,120
-356,825	-200,000	-0,010	0,048
-355,810	29,024	-0,064	0,039
-354,796	-62,189	0,072	0,022
-353,781	110,387	-0,131	-0,116
-352,766	96,150	-0,107	-0,090
-351,752	-200,000	0,026	0,125
-350,737	484,719	0,076	0,128
-349,723	584,190	0,071	0,129
-348,708	800,000	-0,040	-0,092
-347,693	124,335	-0,063	0,058
-346,679	-4,467	0,095	-0,048
-345,664	6,413	0,060	-0,032
-344,650	-200,000	-0,030	-0,112
-343,635	-128,848	-0,138	-0,014
-342,620	-33,677	0,067	0,027
-341,606	-21,517	0,046	0,020
-340,591	-200,000	-0,026	-0,096
-339,577	-8,236	0,113	0,056
-338,562	232,571	-0,137	-0,165
-337,548	800,000	-0,050	0,111
-336,533	-22,702	0,022	0,010
-335,518	53,831	0,023	-0,016
-334,504	-191,039	0,098	0,001
-333,489	-200,000	-0,004	0,059
-332,475	-25,103	-0,162	0,070
-331,460	62,232	-0,096	-0,070
-330,445	-169,745	0,072	-0,002
-329,431	-135,482	-0,059	-0,005
-328,416	747,993	0,103	-0,204
-327,402	-45,541	-0,101	0,037
-326,387	-200,000	-0,028	-0,119
-325,372	-23,375	0,040	-0,018
-324,358	-200,000	-0,031	-0,103
-323,343	-200,000	-0,047	-0,173
-322,329	-65,701	-0,138	-0,040
-321,314	-38,543	0,053	-0,021
-320,299	800,000	-0,064	0,160
-319,285	-41,515	-0,090	-0,034
-318,270	-172,260	0,034	-0,001
-317,256	278,669	-0,016	0,020
-316,241	42,065	0,078	-0,052
-315,226	800,000	-0,020	0,057
-314,212	-200,000	-0,012	0,121
-313,197	377,017	0,083	0,124
-312,183	166,125	-0,028	0,029
-311,168	-10,419	-0,120	0,058
-310,153	-38,041	-0,120	0,047
-309,139	-200,000	-0,039	-0,200
-308,124	-109,225	0,117	-0,018
-307,110	-158,753	0,082	0,003
-306,095	-52,834	0,093	-0,031
-305,080	-2,651	-0,098	-0,050
-304,066	-90,468	-0,067	-0,014
-303,051	-93,008	-0,075	0,015
-302,037	56,090	-0,086	0,061
-301,022	-66,122	0,092	0,027
-300,008	49,210	0,101	0,069
-298,993	208,983	0,098	0,113
-297,978	-200,000	-0,013	-0,125
-296,964	177,724	-0,106	-0,113
-295,949	800,000	-0,024	-0,055
-294,935	-8,243	-0,093	0,046
-293,920	349,070	0,075	-0,109
-292,905	120,868	0,047	0,042
-291,891	72,545	-0,037	-0,028
-290,876	42,388	0,035	0,023
-289,862	368,494	0,069	-0,103
-288,847	-146,343	-0,012	-0,001
-287,832	800,000	-0,058	-0,163
-286,818	-200,000	0,003	0,176
-285,803	251,796	0,088	0,110
-284,789	280,220	-0,030	-0,039
-283,774	-6,078	0,092	-0,046
-282,759	-75,361	0,119	-0,031
-281,745	-90,257	-0,129	-0,027
-280,730	229,589	0,039	0,047
-279,716	26,868	-0,072	-0,044
-278,701	218,498	0,090	-0,105
-277,686	-32,670	-0,095	0,039
-276,672	25,871	0,023	0,014
-275,657	52,373	0,096	0,067
-274,643	354,897	0,065	-0,095
-273,628	454,309	-0,040	0,065
-272,613	-200,000	0,004	0,079
-271,599	-200,000	0,007	0,143
-270,584	-200,000	-0,036	0,145
-269,570	221,327	-0,099	0,116
-268,555	800,000	0,040	0,100
-267,540	462,802	0,029	-0,047
-266,526	800,000	-0,072	-0,191
-265,511	-200,000	-0,009	-0,186
-264,497	405,633	-0,047	0,073
-263,482	94,561	0,121	0,101
-262,467	800,000	0,047	0,147
-261,453	318,324	-0,020	-0,028
-260,438	-104,664	-0,125	0,021
-259,424	-88,961	0,119	-0,026
-258,409	-59,369	-0,158	0,049
-257,395	90,479	0,085	0,069
-256,380	-17,202	-0,016	0,007
-255,365	649,159	-0,046	0,086
-254,351	436,911	-0,025	0,040
-253,336	800,000	-0,025	0,071
-252,322	-115,335	0,100	-0,014
-251,307	37,752	0,071	-0,046
-250,292	-84,624	-0,008	0,002
-249,278	800,000	-0,064	0,166
-248,263	-163,958	0,037	0,001
-247,249	661,431	0,076	0,143
-246,234	-50,080	0,049	0,017
-245,219	800,000	0,022	-0,069
-244,205	130,291	-0,036	0,033
-243,190	-200,000	0,001	-0,008
-242,176	224,479	0,071	0,084
-241,161	215,518	-0,056	0,065
-240,146	800,000	0,030	0,096
-239,132	-56,782	0,120	0,039
-238,117	800,000	0,057	-0,149
-237,103	-200,000	-0,059	-0,222
-236,088	-34,820	0,046	-0,018
-235,073	338,256	0,089	0,126
-234,059	57,736	-0,124	0,088
-233,044	800,000	0,037	-0,093
-232,030	-200,000	0,008	-0,028
-231,015	-127,243	-0,107	-0,011
-230,000	800,000	0,040	-0,091
-228,986	125,526	-0,065	0,059
-227,971	43,606	0,059	0,039
-226,957	544,511	-0,057	-0,100
-225,942	52,840	0,129	0,090
-224,927	800,000	-0,026	-0,060
-223,913	-31,046	-0,107	-0,044
-222,898	-116,538	-0,079	0,011
-221,884	63,468	-0,044	-0,032
-220,869	-18,087	-0,078	0,036
-219,855	-122,663	-0,040	0,005
-218,840	800,000	0,061	0,133
-217,825	101,803	-0,032	-0,028
-216,811	-134,843	-0,119	0,010
-215,796	-200,000	0,019	-0,122
-214,782	-85,980	-0,058	-0,013
-213,767	192,331	0,042	0,047
-212,752	-200,000	0,013	0,052
-211,738	81,614	0,076	-0,060
-210,723	148,542	-0,071	-0,070
-209,709	197,301	-0,044	0,049
-208,694	-44,352	0,088	-0,032
-207,679	-200,000	-0,011	-0,069
-206,665	689,132	0,039	0,075
-205,650	-200,000	0,008	-0,064
-204,636	778,381	-0,044	0,088
-203,621	32,824	0,084	0,053
-202,606	-75,913	-0,036	-0,009
-201,592	110,043	0,099	0,087
-200,577	-200,000	0,002	0,045
-199,563	108,836	-0,023	-0,020
-198,548	-145,119	0,042	-0,003
-197,533	428,843	0,015	0,024
-196,519	800,000	0,017	0,052
-195,504	-66,625	-0,085	0,024
-194,490	-200,000	-0,014	0,162
-193,475	-97,706	-0,093	-0,017
-192,460	-32,787	0,120	0,048
-191,446	-65,260	0,133	0,039
-190,431	-200,000	0,009	0,067
-189,417	-200,000	-0,005	-0,038
-188,402	-27,124	0,196	0,083
-187,387	-83,385	0,052	0,012
-186,373	-200,000	0,013	0,053
-185,358	800,000	0,039	-0,116
-184,344	327,020	0,070	-0,098
-183,329	-71,653	-0,047	0,013
-182,315	-200,000	-0,020	-0,078
-181,300	-0,472	-0,066	0,034
-180,285	-200,000	-0,003	0,020
-179,271	-94,192	0,087	-0,017
-178,256	458,976	-0,038	0,062
-177,242	-153,707	-0,097	0,005
-176,227	409,794	-0,049	0,076
-175,212	-200,000	0,014	-0,070
-174,198	398,133	0,010	0,016
-173,183	104,471	-0,111	-0,095
-172,169	-83,154	0,038	0,009
-171,154	800,000	-0,039	-0,103
-170,139	-28,710	0,062	0,026
-169,125	184,250	0,020	-0,021
-168,110	-200,000	0,016	0,166
-167,096	172,029	-0,024	0,025
-166,081	96,200	0,114	0,095
-165,066	800,000	-0,062	-0,153
-164,052	800,000	-0,019	0,041
-163,037	-123,853	0,083	0,009
-162,023	-200,000	0,002	0,188
-161,008	-200,000	0,013	0,117
-159,993	-200,000	0,051	-0,214
-158,979	-200,000	-0,026	0,107
-157,964	96,101	-0,076	-0,063
-156,950	68,630	0,031	-0,023
-155,935	-200,000	-0,006	-0,050
-154,920	186,615	0,070	0,076
-153,906	18,155	0,157	-0,091
-152,891	-21,224	-0,016	-0,007
-151,877	47,138	-0,035	-0,024
-150,862	12,818	0,195	-0,110
-149,847	800,000	0,024	0,055
-148,833	17,832	0,100	-0,058
-147,818	-67,774	0,101	-0,029
-146,804	75,631	0,087	0,067
-145,789	-93,805	0,110	0,022
-144,775	700,779	-0,084	0,162
-143,760	510,024	0,052	0,087
-142,745	800,000	-0,030	-0,067
-141,731	800,000	-0,011	-0,031
-140,716	-154,565	0,044	0,002
-139,702	-103,307	-0,061	-0,010
-138,687	800,000	0,020	0,056
-137,672	-50,403	0,018	0,006
-136,658	800,000	-0,048	-0,145
-135,643	398,794	0,083	-0,127
-134,629	-31,997	0,016	0,007
-133,614	-154,588	0,109	-0,005
-132,599	14,318	0,090	-0,051
-131,585	800,000	-0,028	-0,075
-130,570	-143,585	0,130	0,009
-129,556	421,695	-0,030	0,047
-128,541	-120,875	-0,108	0,013
-127,526	-47,989	0,080	0,028
-126,512	38,841	0,066	0,043
-125,497	795,640	0,025	0,051
-124,483	-200,000	0,002	-0,053
-123,468	-54,539	0,109	-0,036
-122,453	800,000	-0,029	-0,061
-121,439	-200,000	-0,051	-0,187
-120,424	-135,515	-0,057	0,005
-119,410	-154,056	0,166	0,008
-118,395	302,400	0,059	-0,079
-117,380	800,000	-0,049	0,107
-116,366	800,000	0,026	0,053
-115,351	-115,809	0,060	0,008
-114,337	159,839	0,038	-0,039
-113,322	-58,886	0,117	-0,037
-112,307	189,484	0,030	0,033
-111,293	800,000	0,025	-0,074
-110,278	-109,395	-0,061	0,009
-109,264	67,849	-0,074	-0,055
-108,249	-71,518	-0,086	0,023
-107,234	-191,129	0,084	0,001
-106,220	-134,436	0,154	0,014
-105,205	-4,141	-0,073	-0,036
-104,191	393,588	-0,051	-0,078
-103,176	22,929	0,062	-0,037
-102,162	-95,108	0,048	0,009
-101,147	-117,391	-0,023	-0,003
-100,132	-128,801	-0,119	0,012
-99,118	-200,000	0,009	0,072
-98,103	-19,868	-0,073	0,033
-97,089	-200,000	-0,009	0,069
-96,074	137,519	-0,042	0,040
-95,059	272,693	0,012	-0,015
-94,045	-153,755	0,041	-0,002
-93,030	193,184	-0,065	-0,071
-92,016	800,000	0,040	-0,117
-91,001	-31,997	0,153	0,062
-89,986	-200,000	0,004	0,030
-88,972	-200,000	-0,008	0,033
-87,957	-200,000	-0,000	-0,059
-86,943	75,780	0,046	0,035
-85,928	221,781	0,016	0,019
-84,913	-119,973	-0,073	0,009
-83,899	285,881	0,066	-0,087
-82,884	61,792	-0,039	-0,028
-81,870	-200,000	-0,013	0,066
-80,855	800,000	0,011	0,032
-79,840	85,857	0,037	-0,030
-78,826	33,075	-0,142	0,089
-77,811	-45,392	-0,145	-0,052
-76,797	800,000	-0,030	-0,067
-75,782	87,047	0,080	0,064
-74,767	-200,000	0,006	0,050
-73,753	-63,742	0,066	0,019
-72,738	-200,000	0,001	0,101
-71,724	-61,198	-0,066	0,020
-70,709	800,000	-0,060	-0,134
-69,694	257,236	-0,066	0,082
-68,680	-200,000	-0,004	0,016
-67,665	373,482	0,030	0,044
-66,651	-200,000	-0,020	0,104
-65,636	48,477	-0,027	0,018
-64,622	-30,288	-0,054	0,022
-63,607	-200,000	-0,004	0,032
-62,592	-200,000	0,007	-0,081
-61,578	800,000	0,019	-0,056
-60,563	2,525	0,103	-0,054
-59,549	-73,639	0,129	0,034
-58,534	-95,024	-1,508	-0,293
-57,519	800,000	-0,680	-1,381
-56,505	-200,000	-0,836	-4,392
-55,490	-69,246	0,678	-0,188
-54,476	800,000	4,973	11,786
-53,461	-200,000	14,285	253,267
-52,446	-200,000	696,134	2228,059
-51,432	565,923	1624,155	2865,954
-50,417	116,734	1630,719	1449,860
-49,403	73,087	1284,577	971,837
-48,388	37,436	1022,028	655,249
-47,373	23,608	980,715	583,368
-46,359	22,810	970,271	574,522
-45,344	21,789	965,818	568,531
-44,330	21,784	964,434	567,680
-43,315	21,621	962,977	566,268
-42,300	21,632	961,864	565,628
-41,286	21,661	960,884	565,123
-40,271	21,601	959,727	564,225
-39,257	21,592	958,906	563,691
-38,242	21,517	958,240	563,035
-37,227	21,609	957,047	562,608
-36,213	21,564	956,374	562,047
-35,198	21,558	955,468	561,471
-34,184	21,532	954,829	560,990
-33,169	21,543	953,872	560,441
-32,154	21,588	952,942	560,015
-31,140	21,640	952,042	559,632
-30,125	21,655	951,194	559,162
-29,111	21,605	950,497	558,568
-28,096	21,543	949,883	557,987
-27,082	21,592	948,959	557,579
-26,067	21,638	948,437	557,396
-25,052	21,566	947,741	556,736
-24,038	21,556	947,163	556,341
-23,023	21,601	946,413	556,023
-22,009	21,592	945,722	555,565
-20,994	21,666	945,079	555,403
-19,979	21,631	944,426	554,885
-18,965	21,610	943,885	554,479
-17,950	21,604	943,235	554,055
-16,936	21,551	942,494	553,429
-15,921	21,587	941,696	553,053
-14,906	21,473	941,123	552,334
-13,892	21,466	940,548	551,951
-12,877	21,446	940,078	551,589
-11,863	21,397	939,350	550,986
-10,848	21,551	938,768	551,110
-9,833	21,532	938,339	550,776
-8,819	21,579	937,532	550,429
-7,804	21,540	936,972	549,955
-6,790	21,490	936,461	549,476
-5,775	21,556	935,809	549,279
-4,760	21,455	935,218	548,591
-3,746	21,527	934,600	548,433
-2,731	21,323	933,950	547,387
-1,717	21,261	933,204	546,734
-0,702	21,235	932,480	546,208
0,313	21,085	931,867	546,202
1,327	24,035	929,930	554,272
2,342	33,274	793,751	497,639
3,356	30,885	450,462	278,799
4,371	0,773	294,154	151,978
5,386	-3,748	275,163	137,872
6,400	-5,005	269,641	133,925
7,415	-5,134	267,034	132,500
8,429	-5,070	265,872	131,970
9,444	-4,977	264,964	131,592
10,459	-5,044	264,366	131,223
11,473	-5,133	263,817	130,858
12,488	-5,079	263,151	130,564
13,502	-5,358	262,851	130,151
14,517	-5,361	262,367	129,897
15,531	-5,123	261,819	129,829
16,546	-5,138	261,510	129,651
17,561	-5,197	261,184	129,424
18,575	-5,009	260,793	129,388
19,590	-5,314	260,526	128,970
20,604	-5,340	260,243	128,796
21,619	-5,198	259,818	128,701
22,634	-5,191	259,550	128,562
23,648	-5,196	259,382	128,463
24,663	-5,459	259,107	128,081
25,677	-5,320	258,781	128,033
26,692	-5,201	258,426	127,951
27,707	-5,119	258,265	127,933
28,721	-5,243	257,949	127,655
29,736	-5,312	257,825	127,521
30,750	-5,413	257,422	127,221
31,765	-5,218	257,169	127,258
32,780	-5,223	256,985	127,150
33,794	-5,388	256,817	126,910
34,809	-5,047	256,473	127,030
35,823	-5,338	256,348	126,700
36,838	-5,326	256,169	126,610
37,853	-5,295	255,861	126,474
38,867	-5,135	255,534	126,442
39,882	-5,190	255,348	126,290
40,896	-5,487	255,140	125,915
41,911	-5,242	254,897	125,999
42,926	-5,358	254,667	125,773
43,940	-5,497	254,463	125,540
44,955	-5,439	254,210	125,454
45,969	-5,418	254,006	125,360
46,984	-5,685	253,698	124,965
47,999	-5,831	253,449	124,704
49,013	-6,007	253,230	124,431
50,028	-6,056	253,027	124,278
51,042	-5,989	252,678	124,153
52,057	-6,124	252,587	123,981
53,071	-6,161	252,384	123,838
54,086	-5,945	252,135	123,892
55,101	-5,660	252,048	124,085
56,115	-5,484	251,811	124,109
57,130	-5,400	251,771	124,151
58,144	-5,020	251,610	124,389
59,159	-5,096	251,339	124,178
60,174	-5,075	251,296	124,164
61,188	-5,086	250,925	123,960
62,203	-5,188	250,774	123,787
63,217	-5,151	250,517	123,680
64,232	-5,135	250,343	123,597
65,247	-5,257	250,149	123,386
66,261	-5,164	249,919	123,341
67,276	-5,297	249,571	123,044
68,290	-5,401	249,364	122,843
69,305	-5,654	249,196	122,533
70,320	-5,707	249,035	122,398
71,334	-5,391	248,699	122,491
72,349	-5,087	248,651	122,715
73,363	-5,085	248,449	122,606
74,378	-5,045	248,265	122,538
75,393	-5,344	248,138	122,211
76,407	-5,097	247,874	122,280
77,422	-5,250	247,656	122,031
78,436	-5,344	247,430	121,830
79,451	-5,200	247,303	121,878
80,466	-5,348	247,025	121,605
81,480	-5,393	246,810	121,450
82,495	-5,405	246,575	121,314
83,509	-5,384	246,529	121,298
84,524	-5,618	246,337	120,995
85,539	-5,549	246,064	120,909
86,553	-5,710	245,737	120,601
87,568	-5,617	245,813	120,706
88,582	-5,695	245,668	120,559
89,597	-5,452	245,297	120,570
90,611	-5,339	245,258	120,635
91,626	-5,243	245,181	120,667
92,641	-5,426	244,881	120,355
93,655	-5,484	244,727	120,220
94,670	-5,530	244,422	120,021
95,684	-5,357	244,154	120,023
96,699	-5,368	244,176	120,014
97,714	-5,357	243,837	119,846
98,728	-5,479	243,706	119,669
99,743	-5,747	243,595	119,381
100,757	-5,735	243,305	119,239
101,772	-5,816	243,090	119,054
102,787	-5,514	242,876	119,191
103,801	-5,607	242,747	119,039
104,816	-5,365	242,679	119,196
105,830	-5,346	242,436	119,082
106,845	-5,150	242,319	119,176
107,860	-5,264	242,022	118,925
108,874	-5,325	241,885	118,796
109,889	-5,260	241,575	118,687
110,903	-5,372	241,415	118,506
111,918	-5,438	241,366	118,417
112,933	-5,419	241,260	118,370
113,947	-5,238	241,019	118,390
114,962	-5,445	240,900	118,151
115,976	-5,379	240,644	118,069
116,991	-5,520	240,554	117,898
118,006	-5,353	240,311	117,906
119,020	-5,185	240,265	118,011
120,035	-5,256	240,093	117,858
121,049	-5,175	240,013	117,874
122,064	-5,369	239,668	117,535
123,079	-5,353	239,568	117,489
124,093	-5,485	239,286	117,233
125,108	-5,497	239,133	117,137
126,122	-5,599	238,775	116,868
127,137	-5,708	238,738	116,751
128,151	-5,617	238,640	116,767
129,166	-5,489	238,262	116,675
130,181	-5,538	238,205	116,597
131,195	-5,856	238,034	116,244
132,210	-5,703	237,918	116,302
133,224	-5,290	237,753	116,546
134,239	-5,463	237,558	116,300
135,254	-5,345	237,410	116,313
136,268	-5,449	237,051	116,042
137,283	-5,744	236,878	115,709
138,297	-5,793	236,725	115,584
139,312	-5,769	236,570	115,518
140,327	-5,502	236,545	115,710
141,341	-5,242	236,565	115,919
142,356	-4,966	236,215	115,959
143,370	-4,995	236,140	115,889
144,385	-4,946	235,943	115,822
145,400	-5,010	235,736	115,658
146,414	-5,187	235,577	115,428
147,429	-4,872	235,369	115,568
148,443	-5,200	235,306	115,264
149,458	-4,847	235,124	115,447
150,473	-5,095	234,984	115,170
151,487	-5,219	234,711	114,927
152,502	-5,032	234,524	114,974
153,516	-4,988	234,502	114,988
154,531	-4,972	234,113	114,800
155,546	-4,940	233,987	114,753
156,560	-5,099	233,726	114,489
157,575	-5,196	233,822	114,448
158,589	-5,115	233,564	114,376
159,604	-5,048	233,348	114,313
160,619	-4,927	233,180	114,317
161,633	-4,910	233,150	114,306
162,648	-5,018	232,975	114,124
163,662	-5,075	232,841	114,003
164,677	-5,131	232,673	113,866
165,692	-4,982	232,371	113,826
166,706	-5,048	232,380	113,769
167,721	-5,032	232,234	113,699
168,735	-4,830	232,081	113,773
169,750	-4,985	231,894	113,550
170,764	-5,130	231,727	113,344
171,779	-5,127	231,660	113,303
172,794	-5,193	231,530	113,177
173,808	-5,035	231,313	113,185
174,823	-5,457	230,936	112,659
175,837	-5,492	230,695	112,505
176,852	-5,256	230,733	112,698
177,867	-5,035	230,658	112,825
178,881	-4,937	230,491	112,810
179,896	-4,832	230,320	112,798
180,910	-5,051	230,266	112,590
181,925	-4,954	230,027	112,539
182,940	-4,871	229,843	112,504
183,954	-4,826	229,784	112,500
184,969	-4,985	229,617	112,284
185,983	-4,891	229,464	112,273
186,998	-4,916	229,340	112,182
188,013	-4,909	229,032	112,027
189,027	-4,985	228,991	111,938
190,042	-4,955	228,838	111,876
191,056	-4,819	228,644	111,877
192,071	-4,871	228,487	111,750
193,086	-5,082	228,331	111,501
194,100	-4,956	228,201	111,524
195,115	-5,147	227,929	111,234
196,129	-5,309	227,783	111,028
197,144	-2,220	228,692	113,854
198,159	1,872	229,826	117,589
199,173	3,694	230,248	119,210
200,188	3,814	230,181	119,258
201,202	3,873	230,043	119,222
202,217	4,058	229,991	119,327
203,232	4,355	229,811	119,453
204,246	4,366	229,684	119,385
205,261	4,369	229,456	119,258
206,275	4,651	229,558	119,519
207,290	4,608	229,246	119,312
208,304	4,936	228,931	119,390
209,319	4,530	228,898	119,049
210,334	4,536	228,860	119,024
211,348	4,155	228,572	118,571
212,363	3,932	228,242	118,217
213,377	3,492	228,196	117,844
214,392	3,615	227,902	117,777
215,407	3,795	227,770	117,836
216,421	3,793	227,746	117,811
217,436	3,661	227,446	117,545
218,450	3,520	227,328	117,365
219,465	3,498	227,023	117,181
220,480	3,569	226,954	117,189
221,494	3,555	226,850	117,114
222,509	3,693	226,665	117,114
223,523	3,679	226,610	117,064
224,538	3,488	226,450	116,825
225,553	3,762	226,347	116,971
226,567	3,826	226,195	116,930
227,582	3,880	226,242	116,985
228,596	4,159	226,054	117,090
229,611	3,858	225,791	116,714
230,626	3,532	225,570	116,342
231,640	3,565	225,430	116,285
232,655	3,873	225,281	116,431
233,669	4,328	225,261	116,754
234,684	4,374	225,121	116,706
235,699	4,108	224,997	116,431
236,713	3,959	224,636	116,121
237,728	3,713	224,553	115,882
238,742	3,712	224,439	115,812
239,757	3,797	224,134	115,708
240,772	3,614	224,101	115,543
241,786	3,663	223,838	115,435
242,801	3,771	223,892	115,533
243,815	4,189	223,745	115,761
244,830	4,124	223,587	115,620
245,844	3,860	223,398	115,314
246,859	3,775	223,279	115,178
247,874	3,860	223,181	115,181
248,888	4,040	222,919	115,170
249,903	4,006	222,700	115,022
250,917	3,647	222,678	114,732
251,932	3,763	222,432	114,682
252,947	3,441	222,434	114,432
253,961	3,538	222,231	114,389
254,976	3,576	221,969	114,273
255,990	3,758	222,100	114,466
257,005	3,933	221,822	114,443
258,020	4,013	221,779	114,470
259,034	4,171	221,621	114,495
260,049	3,910	221,458	114,207
261,063	4,006	221,117	114,092
262,078	3,998	221,174	114,105
263,093	4,008	221,126	114,078
264,107	3,927	220,939	113,911
265,122	3,998	220,747	113,855
266,136	4,062	220,721	113,878
267,151	4,084	220,600	113,822
268,166	3,994	220,183	113,530
269,180	3,646	219,885	113,110
270,195	3,623	219,881	113,081
271,209	3,637	219,762	113,020
272,224	3,817	219,606	113,062
273,239	3,774	219,512	112,972
274,253	3,735	219,329	112,839
275,268	3,399	219,309	112,572
276,282	3,350	218,854	112,293
277,297	3,406	218,776	112,283
278,312	3,696	218,628	112,410
279,326	3,789	218,699	112,504
280,341	3,822	218,442	112,387
281,355	3,616	218,480	112,245
282,370	3,686	218,178	112,131
283,384	3,294	217,987	111,737
284,399	3,310	217,907	111,698
285,414	3,557	217,705	111,764
286,428	3,797	217,571	111,860
287,443	3,819	217,664	111,914
288,457	3,748	217,465	111,750
289,472	3,774	217,196	111,621
290,487	3,310	216,972	111,159
291,501	3,328	216,724	111,035
292,516	3,458	216,694	111,104
293,530	3,400	216,679	111,045
294,545	3,479	216,574	111,038
295,560	3,389	216,427	110,887
296,574	3,274	216,346	110,753
297,589	3,393	216,131	110,718
298,603	3,638	216,036	110,837
299,618	3,863	215,936	110,939
300,633	3,844	215,860	110,876
301,647	3,935	215,711	110,855
302,662	3,988	215,455	110,752
303,676	3,854	215,426	110,631
304,691	3,849	215,376	110,591
305,706	4,029	215,161	110,601
306,720	3,911	214,941	110,393
307,735	3,679	214,772	110,129
308,749	3,642	214,546	109,977
309,764	3,822	214,623	110,136
310,779	3,997	214,445	110,161
311,793	4,100	214,257	110,128
312,808	3,736	214,100	109,777
313,822	4,021	213,954	109,896
314,837	3,738	213,719	109,564
315,852	3,550	213,575	109,346
316,866	3,586	213,463	109,304
317,881	3,664	213,530	109,384
318,895	3,907	213,395	109,479
319,910	3,748	213,071	109,190
320,925	3,319	212,967	108,822
321,939	3,245	212,690	108,618
322,954	3,181	212,619	108,527
323,968	3,756	212,616	108,923
324,983	3,772	212,501	108,866
325,997	4,143	212,416	109,075
327,012	3,856	212,129	108,715
328,027	3,741	212,138	108,629
329,041	3,906	211,997	108,663
330,056	4,293	211,839	108,846
331,070	3,505	211,679	108,199
332,085	3,391	211,374	107,952
333,100	3,329	211,553	107,991
334,114	3,627	211,302	108,063
335,129	3,811	211,022	108,039
336,143	3,781	210,823	107,906
337,158	3,588	210,878	107,789
338,173	3,445	210,739	107,608
339,187	3,684	210,395	107,591
340,202	3,279	210,469	107,335
341,216	3,418	210,173	107,272
342,231	3,655	210,105	107,393
343,246	3,511	209,802	107,128
344,260	3,484	209,727	107,061
345,275	3,573	209,754	107,128
346,289	3,641	209,698	107,137
347,304	3,721	209,519	107,092
348,319	3,664	209,358	106,960
349,333	3,481	209,206	106,746
350,348	3,893	209,104	106,971
351,362	3,813	209,000	106,853
352,377	3,642	208,875	106,660
353,392	3,703	208,790	106,649
354,406	3,859	208,518	106,609
355,421	194,559	1343,337	1431,869
356,435	155,274	1481,698	1431,974
