DTS Sentinel unit serial number:	SN410029Multiplexer serial number:	ORYXHardware model number:	OX2-SRSoftware version number:	ORYX F/W v4,00 Oryx Data Collector v3.7.2.0data status	okinstallation	B6 Nyhavnadifferential loss correction	single-endedforward channel	channel 2reverse channel	N/Adate	2023/12/10time	01:55:08forward acquisition time	300,00reverse acquisition time	0,00gamma	499,1914k internal	0,3126k external	0,3126temperature offset calibration	1,0000default loss term (dB/km)	0,3820temperature slope calibration	1,0000multiplexer offset coefficient	1,0000multiplexer slope coefficient	1,0000fibre end	0,00T internal ref (°C)	21,93T ext. ref 1 (°C)	5,69T ext. ref 2 (°C)	5,69length (m)	temperature (°C)	Stokes	anti-Stokes-744,400	318,949	-0,019	0,027
-743,385	-28,942	-0,148	0,063
-742,371	-65,342	0,090	-0,027
-741,356	89,768	-0,268	0,223
-740,342	7,027	-0,113	0,062
-739,327	29,488	-0,149	0,094
-738,312	-200,000	0,006	-0,156
-737,298	-20,990	-0,140	0,064
-736,283	347,395	0,044	0,065
-735,269	-131,372	-0,381	-0,037
-734,254	-193,323	-0,036	0,000
-733,239	-52,920	-0,358	-0,122
-732,225	-159,359	0,206	-0,008
-731,210	651,067	-0,076	0,145
-730,196	-200,000	-0,001	0,013
-729,181	88,899	-0,030	-0,025
-728,167	-48,784	-0,020	-0,007
-727,152	-86,575	-0,052	0,012
-726,137	12,042	-0,144	-0,082
-725,123	-58,215	-0,190	-0,061
-724,108	-101,261	-0,083	-0,015
-723,094	-200,000	0,010	-0,049
-722,079	-200,000	-0,032	-0,112
-721,064	-28,054	-0,082	-0,035
-720,050	186,069	0,054	-0,060
-719,035	6,613	0,068	0,037
-718,021	-72,803	-0,046	0,012
-717,006	540,085	-0,072	-0,127
-715,991	-23,418	-0,109	0,049
-714,977	-98,404	-0,079	0,015
-713,962	89,892	0,079	-0,066
-712,948	-152,136	-0,081	-0,004
-711,933	675,457	-0,056	-0,108
-710,918	-96,412	0,026	-0,005
-709,904	-27,859	-0,076	0,033
-708,889	29,356	-0,027	-0,017
-707,875	-86,826	0,075	-0,017
-706,860	-200,000	-0,008	0,068
-705,845	-128,897	0,087	0,009
-704,831	199,531	0,127	0,145
-703,816	63,214	-0,079	-0,059
-702,802	51,590	0,089	-0,063
-701,787	71,831	0,073	-0,056
-700,772	-200,000	-0,026	-0,151
-699,758	236,296	0,032	0,040
-698,743	108,537	0,124	0,110
-697,729	126,042	0,037	0,035
-696,714	-200,000	-0,000	0,020
-695,699	-200,000	-0,014	-0,082
-694,685	800,000	-0,038	0,098
-693,670	109,929	0,039	-0,035
-692,656	-55,279	0,050	0,017
-691,641	-19,075	-0,118	-0,055
-690,627	-29,548	-0,058	-0,024
-689,612	800,000	0,029	-0,070
-688,597	268,018	0,042	0,054
-687,583	-48,335	-0,162	0,058
-686,568	-6,832	0,072	0,036
-685,554	453,204	-0,035	-0,057
-684,539	-200,000	-0,062	0,203
-683,524	306,532	-0,084	0,117
-682,510	-156,389	0,143	-0,007
-681,495	-200,000	0,028	-0,106
-680,481	-18,852	-0,103	0,048
-679,466	464,948	0,028	-0,047
-678,451	259,149	-0,087	0,111
-677,437	178,322	0,138	0,150
-676,422	-139,283	0,142	-0,011
-675,408	800,000	0,086	0,233
-674,393	-200,000	0,023	0,113
-673,378	-144,225	-0,082	0,006
-672,364	-34,940	-0,046	0,019
-671,349	800,000	0,016	-0,051
-670,335	-128,971	-0,183	-0,019
-669,320	256,495	0,051	0,066
-668,305	-149,764	0,065	-0,004
-667,291	-200,000	0,003	-0,030
-666,276	145,484	0,098	-0,098
-665,262	85,087	-0,057	0,046
-664,247	37,836	0,075	0,049
-663,232	-60,847	0,019	0,006
-662,218	800,000	0,040	0,096
-661,203	800,000	-0,064	0,141
-660,189	285,182	-0,101	0,135
-659,174	-62,026	-0,083	0,025
-658,159	-155,589	-0,086	0,004
-657,145	-7,644	0,057	-0,028
-656,130	235,681	-0,027	0,033
-655,116	-25,405	-0,053	0,023
-654,101	-200,000	0,006	-0,087
-653,086	259,435	0,077	0,099
-652,072	-61,747	-0,079	0,025
-651,057	322,104	-0,045	-0,063
-650,043	-200,000	0,018	-0,213
-649,028	-200,000	-0,031	-0,134
-648,014	800,000	0,038	0,085
-646,999	718,313	-0,079	0,157
-645,984	540,156	-0,074	0,131
-644,970	-59,579	-0,104	0,033
-643,955	27,062	0,081	0,051
-642,941	176,530	-0,038	-0,040
-641,926	-108,304	0,072	0,011
-640,911	800,000	-0,068	0,149
-639,897	25,978	0,005	-0,003
-638,882	-69,915	0,107	0,030
-637,868	691,178	-0,068	-0,132
-636,853	446,161	-0,111	-0,181
-635,838	-20,661	-0,029	0,013
-634,824	137,916	0,089	-0,086
-633,809	0,519	-0,090	-0,047
-632,795	64,259	0,074	-0,055
-631,780	296,923	-0,133	0,181
-630,765	-200,000	0,023	0,114
-629,751	146,257	-0,112	-0,111
-628,736	-200,000	0,035	-0,161
-627,722	-83,603	0,059	0,014
-626,707	-194,036	0,089	-0,001
-625,692	338,205	-0,055	0,079
-624,678	-144,608	0,130	-0,009
-623,663	-200,000	0,003	-0,064
-622,649	-85,601	0,165	-0,038
-621,634	800,000	-0,019	-0,047
-620,619	-200,000	-0,007	-0,061
-619,605	49,602	-0,101	-0,070
-618,590	800,000	0,022	0,064
-617,576	63,057	0,056	-0,042
-616,561	305,266	0,068	-0,094
-615,546	-200,000	-0,051	0,169
-614,532	241,721	-0,036	-0,044
-613,517	355,532	-0,030	-0,044
-612,503	-143,922	0,115	0,008
-611,488	-200,000	-0,003	0,035
-610,474	-67,674	-0,116	-0,033
-609,459	-200,000	-0,004	-0,068
-608,444	800,000	0,091	-0,198
-607,430	-200,000	0,001	-0,038
-606,415	8,582	-0,133	-0,074
-605,401	530,690	0,044	-0,077
-604,386	-17,280	0,089	-0,041
-603,371	-157,157	0,140	0,006
-602,357	-200,000	0,003	-0,098
-601,342	800,000	-0,069	-0,189
-600,328	335,060	-0,044	-0,063
-599,313	44,498	0,016	-0,011
-598,298	-90,088	-0,076	-0,016
-597,284	-72,441	0,055	-0,015
-596,269	-36,146	0,093	-0,037
-595,255	-200,000	-0,010	0,049
-594,240	291,955	-0,036	-0,049
-593,225	234,395	0,010	-0,012
-592,211	-200,000	-0,006	-0,025
-591,196	-91,293	-0,157	-0,033
-590,182	-200,000	0,011	0,067
-589,167	82,816	0,049	0,040
-588,152	-42,485	0,090	0,034
-587,138	-134,328	0,124	-0,011
-586,123	-200,000	-0,017	0,137
-585,109	72,334	-0,068	0,052
-584,094	-59,938	0,142	0,045
-583,079	-125,463	0,117	0,013
-582,065	-87,567	-0,053	0,012
-581,050	72,894	0,072	0,056
-580,036	127,780	0,065	0,061
-579,021	164,409	0,035	0,037
-578,006	166,108	0,065	-0,068
-576,992	305,283	0,067	0,092
-575,977	-200,000	-0,014	-0,083
-574,963	-100,082	-0,120	0,022
-573,948	-26,810	0,054	-0,023
-572,934	-200,000	-0,036	0,136
-571,919	35,374	0,064	-0,042
-570,904	800,000	0,019	-0,051
-569,890	-200,000	-0,016	-0,093
-568,875	800,000	-0,021	0,066
-567,861	-133,210	-0,045	0,004
-566,846	-200,000	0,035	0,171
-565,831	-200,000	0,048	0,168
-564,817	-74,297	0,092	-0,024
-563,802	-51,374	0,082	-0,028
-562,788	-200,000	-0,004	-0,042
-561,773	289,751	-0,091	0,123
-560,758	163,590	0,017	-0,018
-559,744	-200,000	0,015	-0,074
-558,729	-98,850	-0,114	0,021
-557,715	688,846	-0,043	-0,084
-556,700	-200,000	-0,044	-0,149
-555,685	429,814	0,079	-0,127
-554,671	164,559	-0,019	0,019
-553,656	11,663	0,157	0,089
-552,642	-45,214	-0,093	0,034
-551,627	-200,000	0,009	-0,082
-550,612	186,452	0,020	-0,022
-549,598	90,542	-0,101	-0,083
-548,583	-200,000	0,040	-0,135
-547,569	337,609	0,016	-0,023
-546,554	-6,770	-0,049	0,025
-545,539	800,000	-0,065	0,163
-544,525	-200,000	0,034	0,137
-543,510	-9,378	0,097	-0,048
-542,496	204,401	-0,092	-0,106
-541,481	-200,000	-0,048	-0,198
-540,466	298,513	0,033	-0,044
-539,452	222,834	0,023	-0,027
-538,437	-200,000	-0,013	-0,081
-537,423	-16,341	0,056	0,026
-536,408	-68,446	-0,073	-0,021
-535,393	228,227	-0,052	-0,063
-534,379	492,767	-0,044	-0,074
-533,364	-141,045	-0,072	-0,005
-532,350	-65,079	0,051	0,015
-531,335	81,841	0,008	0,007
-530,321	-123,728	0,059	-0,007
-529,306	-112,301	-0,037	0,005
-528,291	24,472	-0,019	-0,012
-527,277	35,715	-0,145	-0,094
-526,262	-152,209	-0,030	0,002
-525,248	644,164	-0,036	-0,068
-524,233	46,593	-0,071	-0,049
-523,218	-116,276	-0,048	0,006
-522,204	168,447	-0,053	-0,055
-521,189	48,223	-0,051	0,035
-520,175	-200,000	-0,001	-0,068
-519,160	243,659	-0,044	0,055
-518,145	-200,000	0,010	0,154
-517,131	-69,513	0,187	-0,052
-516,116	50,514	-0,097	0,068
-515,102	-93,923	0,051	-0,010
-514,087	316,293	-0,003	0,004
-513,072	-113,331	0,068	-0,010
-512,058	-200,000	-0,025	0,111
-511,043	52,228	-0,142	-0,100
-510,029	-29,083	0,152	0,064
-509,014	-14,343	-0,061	0,029
-507,999	57,663	0,040	0,029
-506,985	106,072	-0,021	0,018
-505,970	66,197	-0,106	-0,079
-504,956	-113,220	-0,122	0,018
-503,941	222,369	-0,062	-0,074
-502,926	13,698	0,145	-0,083
-501,912	23,404	0,091	-0,055
-500,897	26,531	0,101	0,062
-499,883	-200,000	-0,012	0,066
-498,868	20,549	-0,129	0,077
-497,853	-95,525	-0,119	0,023
-496,839	211,663	-0,051	-0,059
-495,824	545,139	-0,040	-0,071
-494,810	800,000	-0,015	0,035
-493,795	-93,778	0,119	-0,024
-492,781	346,652	0,022	0,032
-491,766	800,000	-0,075	-0,154
-490,751	800,000	0,026	-0,058
-489,737	-47,350	0,076	-0,027
-488,722	-102,876	-0,035	0,006
-487,708	-82,338	-0,120	0,028
-486,693	92,346	-0,030	-0,025
-485,678	133,989	0,055	0,052
-484,664	298,821	-0,081	-0,110
-483,649	287,366	-0,034	0,045
-482,635	800,000	0,039	-0,096
-481,620	-200,000	-0,001	-0,056
-480,605	800,000	0,048	0,124
-479,591	102,401	-0,103	0,089
-478,576	800,000	-0,039	0,109
-477,562	-200,000	-0,003	0,035
-476,547	-0,746	-0,100	-0,052
-475,532	85,952	0,168	-0,136
-474,518	800,000	0,024	0,077
-473,503	-200,000	-0,046	0,194
-472,489	166,788	0,057	0,060
-471,474	-31,296	-0,225	-0,093
-470,459	800,000	-0,036	0,074
-469,445	-63,061	-0,081	0,024
-468,430	-168,559	-0,153	-0,004
-467,416	83,330	0,050	0,040
-466,401	667,042	0,022	-0,042
-465,386	22,033	0,014	-0,008
-464,372	-55,147	0,028	-0,009
-463,357	-200,000	0,013	0,064
-462,343	-28,342	-0,081	-0,034
-461,328	-200,000	0,008	0,033
-460,313	179,203	0,042	0,045
-459,299	-73,097	-0,098	-0,026
-458,284	-103,870	0,070	-0,012
-457,270	-200,000	-0,002	0,052
-456,255	-106,026	-0,075	-0,012
-455,241	-57,947	-0,045	-0,014
-454,226	730,303	-0,022	-0,044
-453,211	543,535	-0,046	-0,082
-452,197	58,206	-0,036	0,026
-451,182	193,565	-0,041	0,045
-450,168	303,027	-0,006	0,008
-449,153	-48,981	0,074	-0,026
-448,138	-149,613	0,098	0,006
-447,124	217,205	0,025	-0,029
-446,109	383,101	0,005	-0,007
-445,095	-200,000	-0,001	-0,008
-444,080	-42,212	0,205	0,077
-443,065	-200,000	0,031	-0,106
-442,051	15,460	-0,140	-0,080
-441,036	490,392	-0,086	-0,145
-440,022	-15,068	-0,149	-0,070
-439,007	-127,142	-0,155	-0,016
-437,992	54,706	0,094	0,066
-436,978	800,000	0,101	0,224
-435,963	800,000	-0,048	-0,102
-434,949	423,855	-0,055	-0,087
-433,934	-132,643	-0,157	-0,015
-432,919	-176,922	0,062	0,001
-431,905	103,479	-0,011	-0,010
-430,890	167,233	0,013	0,013
-429,876	-127,862	-0,063	0,007
-428,861	-200,000	-0,010	0,110
-427,846	-113,780	-0,125	0,018
-426,832	105,255	-0,063	-0,054
-425,817	60,622	-0,065	-0,048
-424,803	383,754	0,087	-0,133
-423,788	-165,520	-0,083	0,003
-422,773	-200,000	0,012	0,065
-421,759	800,000	-0,025	0,059
-420,744	-200,000	0,013	-0,060
-419,730	800,000	0,015	0,047
-418,715	-200,000	0,013	-0,056
-417,701	-200,000	0,021	0,136
-416,686	-5,354	0,129	-0,065
-415,671	-71,083	-0,082	-0,022
-414,657	608,256	0,029	0,054
-413,642	171,282	-0,119	0,126
-412,628	390,245	-0,047	0,073
-411,613	-85,274	-0,084	0,019
-410,598	-200,000	0,011	-0,074
-409,584	592,630	-0,088	0,161
-408,569	274,035	0,033	0,043
-407,555	18,275	-0,020	0,011
-406,540	800,000	-0,061	0,167
-405,525	203,794	0,037	0,042
-404,511	-81,373	0,217	-0,052
-403,496	210,602	-0,050	-0,058
-402,482	-62,840	-0,158	0,048
-401,467	-166,281	0,064	-0,002
-400,452	-151,970	0,130	0,007
-399,438	-200,000	-0,008	0,103
-398,423	215,193	-0,030	-0,035
-397,409	-75,448	0,088	-0,023
-396,394	31,009	0,056	0,035
-395,379	134,630	0,063	-0,060
-394,365	726,194	-0,053	0,104
-393,350	800,000	0,037	-0,084
-392,336	800,000	0,056	0,130
-391,321	92,162	-0,040	0,033
-390,306	-51,491	-0,133	-0,045
-389,292	-55,192	0,065	-0,021
-388,277	-200,000	0,011	0,049
-387,263	2,408	0,081	-0,043
-386,248	25,570	0,083	0,051
-385,233	-34,122	-0,074	0,030
-384,219	596,391	0,035	0,065
-383,204	-108,292	-0,050	-0,008
-382,190	-200,000	0,042	-0,168
-381,175	8,163	-0,139	0,076
-380,160	11,933	0,012	0,007
-379,146	800,000	0,065	0,141
-378,131	-72,625	0,134	-0,036
-377,117	502,636	0,012	0,021
-376,102	507,341	-0,021	-0,036
-375,088	187,081	0,052	0,057
-374,073	-3,176	0,070	-0,035
-373,058	-200,000	0,009	0,040
-372,044	-34,961	0,141	0,056
-371,029	-200,000	0,002	-0,072
-370,015	-18,778	0,102	0,046
-369,000	-6,455	-0,059	-0,029
-367,985	-200,000	-0,009	-0,096
-366,971	-146,764	0,069	0,004
-365,956	-13,523	-0,067	-0,032
-364,942	223,639	0,083	0,099
-363,927	-141,089	0,109	0,008
-362,912	746,431	-0,026	0,052
-361,898	-114,137	-0,108	-0,015
-360,883	-120,026	0,038	0,005
-359,869	-1,277	0,098	-0,051
-358,854	50,887	-0,059	0,041
-357,839	-164,506	-0,108	-0,004
-356,825	296,746	-0,013	-0,017
-355,810	-200,000	-0,014	0,059
-354,796	454,976	-0,004	0,007
-353,781	297,635	0,067	-0,090
-352,766	-200,000	0,001	-0,045
-351,752	57,455	0,080	0,057
-350,737	-43,844	-0,116	0,043
-349,723	41,694	0,146	-0,097
-348,708	800,000	0,058	-0,131
-347,693	102,030	-0,074	0,063
-346,679	153,470	-0,013	-0,013
-345,664	800,000	0,074	-0,179
-344,650	71,297	-0,128	-0,097
-343,635	-5,327	0,097	0,049
-342,620	800,000	0,053	0,158
-341,606	81,773	-0,034	0,027
-340,591	800,000	0,070	-0,185
-339,577	800,000	-0,058	-0,151
-338,562	-14,457	0,019	0,009
-337,548	-200,000	-0,011	-0,050
-336,533	-94,369	-0,036	0,007
-335,518	234,807	-0,043	0,052
-334,504	515,255	0,032	0,055
-333,489	-35,119	0,094	-0,037
-332,475	208,981	0,055	-0,063
-331,460	-48,228	-0,079	0,028
-330,445	25,429	0,101	-0,061
-329,431	-200,000	0,012	0,041
-328,416	75,121	0,084	-0,065
-327,402	-133,526	0,092	0,008
-326,387	21,910	-0,070	0,042
-325,372	111,184	0,046	-0,040
-324,358	84,626	0,065	0,052
-323,343	-29,815	-0,071	-0,030
-322,329	-119,677	0,027	0,003
-321,314	350,052	-0,020	0,029
-320,299	-136,487	-0,107	0,009
-319,285	-3,853	-0,059	-0,030
-318,270	-91,706	0,006	-0,001
-317,256	259,087	0,067	-0,085
-316,241	800,000	-0,028	-0,085
-315,226	98,986	0,121	0,103
-314,212	126,798	0,066	0,061
-313,197	-61,125	-0,135	0,042
-312,183	159,674	-0,057	0,058
-311,168	129,007	-0,073	0,069
-310,153	129,957	-0,030	-0,028
-309,139	-200,000	0,002	-0,027
-308,124	185,772	0,040	-0,044
-307,110	46,874	-0,004	0,003
-306,095	-200,000	0,012	-0,097
-305,080	74,569	0,037	0,028
-304,066	-200,000	-0,050	-0,162
-303,051	30,188	0,038	0,024
-302,037	103,098	-0,102	-0,087
-301,022	-97,277	-0,105	-0,020
-300,008	157,135	0,078	0,079
-298,993	-61,890	0,093	0,028
-297,978	-200,000	0,009	-0,038
-296,964	-189,271	0,069	0,001
-295,949	-122,798	-0,111	-0,013
-294,935	31,071	-0,076	-0,047
-293,920	-200,000	0,013	0,076
-292,905	531,244	0,040	0,070
-291,891	-99,363	0,187	0,034
-290,876	-200,000	0,005	0,075
-289,862	800,000	-0,047	-0,098
-288,847	-77,077	-0,127	-0,032
-287,832	18,261	-0,122	0,071
-286,818	-71,588	0,120	-0,033
-285,803	341,762	0,042	-0,061
-284,789	1,435	-0,119	0,062
-283,774	-200,000	0,017	-0,078
-282,759	3,458	-0,091	0,048
-281,745	108,698	-0,034	-0,029
-280,730	760,863	0,024	-0,048
-279,716	-110,907	-0,094	-0,014
-278,701	-47,622	0,036	-0,013
-277,686	692,859	-0,080	0,153
-276,672	-200,000	-0,004	-0,043
-275,657	547,438	0,046	-0,080
-274,643	-187,618	0,076	-0,001
-273,628	-64,479	0,068	-0,020
-272,613	74,204	0,029	-0,022
-271,599	-200,000	-0,012	0,154
-270,584	222,594	0,081	0,096
-269,570	33,547	-0,153	0,097
-268,555	396,095	-0,052	0,080
-267,540	-200,000	-0,002	-0,013
-266,526	138,564	-0,028	0,027
-265,511	-85,308	-0,121	0,027
-264,497	800,000	0,032	0,081
-263,482	87,827	0,114	0,092
-262,467	-99,798	0,114	0,021
-261,453	-200,000	-0,002	0,050
-260,438	4,247	-0,119	-0,064
-259,424	312,480	-0,080	0,111
-258,409	-200,000	0,005	-0,047
-257,395	250,186	0,039	-0,049
-256,380	-107,559	0,032	0,005
-255,365	4,408	0,181	0,097
-254,351	-113,868	0,086	0,012
-253,336	150,778	0,063	0,062
-252,322	-200,000	-0,047	-0,157
-251,307	24,151	-0,008	0,005
-250,292	-2,946	0,043	0,022
-249,278	-12,513	0,087	-0,041
-248,263	-200,000	-0,016	0,057
-247,249	-94,148	0,149	-0,029
-246,234	-111,403	-0,136	-0,020
-245,219	-200,000	-0,022	-0,089
-244,205	-200,000	0,016	0,061
-243,190	34,076	-0,186	-0,118
-242,176	-4,879	0,136	-0,068
-241,161	466,996	0,071	0,117
-240,146	115,784	-0,030	0,027
-239,132	-39,011	-0,082	-0,032
-238,117	-150,824	-0,045	-0,002
-237,103	598,257	-0,020	-0,036
-236,088	179,909	0,039	-0,041
-235,073	1,763	0,032	0,017
-234,059	118,580	-0,059	0,053
-233,044	-94,448	-0,063	-0,013
-232,030	-200,000	-0,012	-0,083
-231,015	63,648	0,128	-0,094
-230,000	423,927	-0,044	-0,069
-228,986	-43,802	-0,053	-0,019
-227,971	800,000	-0,032	-0,065
-226,957	-84,117	0,162	0,037
-225,942	-106,461	-0,021	-0,003
-224,927	1,080	0,037	-0,019
-223,913	-200,000	0,030	-0,120
-222,898	-200,000	0,010	0,050
-221,884	-17,165	-0,035	0,016
-220,869	42,256	0,089	-0,059
-219,855	-200,000	-0,008	-0,045
-218,840	203,332	-0,041	0,046
-217,825	75,078	0,071	-0,055
-216,811	23,069	0,012	0,007
-215,796	67,730	-0,059	-0,044
-214,782	-69,105	0,038	0,011
-213,767	-6,723	0,033	0,016
-212,752	-143,102	-0,051	-0,004
-211,738	-121,865	0,094	0,011
-210,723	-200,000	0,018	0,171
-209,709	-200,000	0,026	-0,117
-208,694	778,799	-0,009	-0,018
-207,679	278,129	-0,066	0,086
-206,665	255,182	-0,015	0,018
-205,650	197,023	0,071	0,080
-204,636	-200,000	0,033	0,123
-203,621	363,904	-0,002	0,003
-202,606	232,879	0,075	-0,090
-201,592	800,000	0,020	0,062
-200,577	99,038	0,061	0,051
-199,563	-60,797	0,160	0,049
-198,548	54,092	0,085	0,059
-197,533	-86,475	0,034	0,008
-196,519	-32,999	0,065	0,026
-195,504	-2,921	-0,064	0,032
-194,490	4,026	-0,067	0,035
-193,475	-108,854	0,059	-0,009
-192,460	800,000	0,021	0,047
-191,446	366,478	-0,006	0,009
-190,431	741,327	0,031	0,061
-189,417	14,895	0,036	-0,021
-188,402	-200,000	-0,008	0,028
-187,387	800,000	0,038	-0,097
-186,373	-200,000	0,023	-0,117
-185,358	337,075	0,076	-0,108
-184,344	-200,000	0,020	0,120
-183,329	-19,392	-0,128	0,058
-182,315	344,812	0,103	0,147
-181,300	195,326	0,033	-0,037
-180,285	29,675	-0,142	-0,088
-179,271	-99,524	-0,067	0,012
-178,256	800,000	0,035	0,088
-177,242	-87,854	0,100	0,022
-176,227	71,145	0,049	0,037
-175,212	566,022	-0,014	0,024
-174,198	248,306	-0,080	0,099
-173,183	-17,535	-0,074	0,034
-172,169	-76,034	-0,098	0,025
-171,154	-39,165	-0,143	-0,054
-170,139	-14,628	-0,027	0,013
-169,125	-200,000	-0,006	0,022
-168,110	800,000	0,008	-0,016
-167,096	-200,000	0,001	0,031
-166,081	-200,000	0,005	0,124
-165,066	800,000	0,018	0,048
-164,052	800,000	-0,045	-0,105
-163,037	-95,993	0,033	0,006
-162,023	-183,040	0,069	0,001
-161,008	800,000	-0,052	0,106
-159,993	-200,000	-0,005	-0,026
-158,979	58,486	0,024	-0,017
-157,964	61,028	0,055	0,040
-156,950	-78,131	-0,120	-0,030
-155,935	-200,000	0,007	-0,033
-154,920	-200,000	-0,005	0,101
-153,906	405,111	-0,039	0,060
-152,891	-200,000	0,028	0,104
-151,877	394,549	-0,034	0,051
-150,862	190,248	-0,064	-0,070
-149,847	101,056	-0,041	-0,035
-148,833	-200,000	0,003	0,011
-147,818	-88,542	-0,058	0,012
-146,804	-200,000	0,008	-0,073
-145,789	800,000	0,031	-0,094
-144,775	62,840	-0,056	0,040
-143,760	150,342	0,024	0,024
-142,745	-53,262	-0,040	0,013
-141,731	-30,911	0,057	0,023
-140,716	114,278	0,097	0,086
-139,702	-200,000	-0,021	0,090
-138,687	-200,000	0,029	0,116
-137,672	456,438	-0,011	0,018
-136,658	34,728	-0,080	-0,051
-135,643	-135,863	0,163	0,014
-134,629	369,599	-0,051	0,076
-133,614	-60,051	0,026	-0,008
-132,599	-200,000	-0,011	0,106
-131,585	800,000	0,063	0,143
-130,570	-97,496	0,017	-0,003
-129,556	22,427	-0,035	0,021
-128,541	-107,931	-0,124	-0,019
-127,526	182,105	-0,067	0,072
-126,512	800,000	0,039	-0,083
-125,497	204,503	0,051	0,057
-124,483	-110,063	0,097	-0,015
-123,468	463,330	-0,046	0,075
-122,453	63,554	-0,073	0,053
-121,439	15,385	0,079	-0,045
-120,424	486,267	0,055	0,092
-119,410	574,024	0,081	0,145
-118,395	177,083	-0,063	0,067
-117,380	-146,756	-0,061	-0,004
-116,366	-200,000	0,003	0,146
-115,351	-200,000	0,003	0,069
-114,337	21,490	-0,086	-0,051
-113,322	-200,000	0,005	0,105
-112,307	-116,948	0,112	-0,015
-111,293	-200,000	-0,013	-0,081
-110,278	-150,386	-0,076	-0,004
-109,264	-19,133	-0,051	0,023
-108,249	-200,000	0,001	-0,043
-107,234	800,000	0,022	0,054
-106,220	-13,499	-0,136	0,064
-105,205	39,608	0,124	0,081
-104,191	-73,514	-0,091	-0,024
-103,176	-144,968	0,054	-0,004
-102,162	117,992	-0,049	-0,044
-101,147	132,819	-0,049	-0,046
-100,132	170,828	-0,084	-0,088
-99,118	-200,000	-0,035	-0,126
-98,103	-29,457	0,038	0,016
-97,089	55,719	0,063	0,044
-96,074	322,198	0,128	0,177
-95,059	404,900	0,037	0,056
-94,045	-200,000	0,010	0,109
-93,030	800,000	0,028	0,085
-92,016	-101,311	-0,071	-0,012
-91,001	32,028	0,074	0,046
-89,986	-200,000	0,011	-0,041
-88,972	800,000	-0,029	-0,080
-87,957	120,086	0,051	-0,046
-86,943	199,538	0,093	0,103
-85,928	784,456	-0,059	0,117
-84,913	346,130	0,088	-0,127
-83,899	-200,000	-0,005	0,159
-82,884	30,059	-0,043	-0,027
-81,870	11,586	-0,054	0,030
-80,855	-67,129	0,082	0,023
-79,840	-5,858	0,058	0,029
-78,826	-133,263	-0,221	-0,020
-77,811	-200,000	0,016	0,132
-76,797	-200,000	0,008	0,114
-75,782	19,663	-0,023	-0,013
-74,767	169,815	0,083	0,087
-73,753	-54,459	-0,092	0,030
-72,738	800,000	0,054	-0,145
-71,724	800,000	-0,028	0,069
-70,709	31,222	-0,083	0,051
-69,694	11,942	0,027	0,015
-68,680	-111,002	-0,049	0,007
-67,665	800,000	0,058	0,136
-66,651	-35,149	-0,051	-0,020
-65,636	800,000	0,005	-0,011
-64,622	226,816	-0,018	0,022
-63,607	299,175	0,010	-0,013
-62,592	216,188	-0,096	-0,111
-61,578	121,412	-0,038	-0,035
-60,563	800,000	0,024	-0,077
-59,549	-200,000	-0,037	0,139
-58,534	-96,735	-1,334	-0,252
-57,519	631,224	-0,791	-1,458
-56,505	-200,000	-0,917	-4,515
-55,490	2,891	0,613	-0,322
-54,476	800,000	4,972	11,675
-53,461	-200,000	13,923	252,847
-52,446	-200,000	693,309	2239,702
-51,432	575,169	1623,670	2885,370
-50,417	117,580	1633,017	1456,759
-49,403	72,323	1286,931	971,067
-48,388	37,556	1023,195	656,774
-47,373	23,938	981,333	585,159
-46,359	23,216	970,765	576,470
-45,344	22,090	966,639	570,321
-44,330	22,069	965,000	569,264
-43,315	22,054	963,595	568,363
-42,300	21,957	962,771	567,538
-41,286	21,990	961,498	566,872
-40,271	21,975	960,655	566,305
-39,257	21,968	959,871	565,796
-38,242	21,888	958,782	564,875
-37,227	21,919	957,955	564,465
-36,213	21,898	957,124	563,884
-35,198	21,902	956,154	563,305
-34,184	21,951	955,580	563,101
-33,169	21,968	954,597	562,555
-32,154	22,019	953,684	562,158
-31,140	22,014	952,701	561,542
-30,125	22,019	952,119	561,191
-29,111	21,971	951,356	560,564
-28,096	21,971	950,558	560,072
-27,082	21,953	950,059	559,701
-26,067	21,937	949,364	559,214
-25,052	21,963	948,511	558,775
-24,038	21,966	947,763	558,321
-23,023	21,917	947,240	557,833
-22,009	22,015	946,381	557,621
-20,994	21,982	945,898	557,208
-19,979	21,997	945,252	556,854
-18,965	21,930	944,674	556,277
-17,950	22,026	943,827	556,063
-16,936	21,908	943,322	555,365
-15,921	21,943	942,606	555,033
-14,906	21,866	941,867	554,332
-13,892	21,908	941,206	554,054
-12,877	21,850	940,637	553,515
-11,863	21,817	940,092	553,067
-10,848	21,905	939,383	552,906
-9,833	21,940	939,116	552,838
-8,819	21,955	938,418	552,453
-7,804	21,863	937,704	551,719
-6,790	21,893	937,155	551,469
-5,775	21,899	936,683	551,188
-4,760	21,855	936,044	550,653
-3,746	21,832	935,303	550,121
-2,731	21,727	934,732	549,433
-1,717	21,664	933,885	548,716
-0,702	21,676	933,124	548,283
0,313	21,495	932,622	548,247
1,327	24,568	930,719	556,729
2,342	34,108	794,751	500,759
3,356	31,891	450,766	280,660
4,371	1,179	293,666	152,222
5,386	-3,409	274,670	138,024
6,400	-4,960	269,227	133,837
7,415	-5,168	266,832	132,443
8,429	-4,945	265,552	132,000
9,444	-4,923	264,550	131,511
10,459	-4,939	264,049	131,235
11,473	-5,003	263,500	130,892
12,488	-5,075	263,104	130,619
13,502	-5,101	262,444	130,256
14,517	-5,144	261,947	129,959
15,531	-5,011	261,695	129,942
16,546	-5,140	261,334	129,635
17,561	-4,952	261,096	129,674
18,575	-4,827	260,572	129,515
19,590	-5,016	260,279	129,188
20,604	-4,925	260,080	129,159
21,619	-5,032	259,691	128,859
22,634	-5,069	259,407	128,674
23,648	-4,937	258,941	128,549
24,663	-5,129	258,815	128,304
25,677	-4,981	258,415	128,226
26,692	-5,151	258,181	127,947
27,707	-4,961	257,974	128,001
28,721	-4,833	257,670	127,953
29,736	-5,167	257,476	127,549
30,750	-5,039	257,178	127,503
31,765	-5,203	256,969	127,244
32,780	-5,061	256,736	127,242
33,794	-5,092	256,418	127,046
34,809	-5,094	256,272	126,960
35,823	-4,952	256,117	126,998
36,838	-5,054	255,858	126,768
37,853	-5,138	255,485	126,498
38,867	-5,043	255,285	126,471
39,882	-5,097	255,227	126,384
40,896	-5,060	254,965	126,275
41,911	-5,028	254,759	126,190
42,926	-5,301	254,576	125,849
43,940	-5,166	254,276	125,808
44,955	-5,194	254,062	125,666
45,969	-5,124	253,754	125,564
46,984	-5,543	253,646	125,133
47,999	-5,424	253,259	125,035
49,013	-5,858	253,140	124,587
50,028	-5,779	252,803	124,479
51,042	-5,787	252,565	124,344
52,057	-5,900	252,427	124,167
53,071	-5,814	252,231	124,134
54,086	-5,642	252,035	124,175
55,101	-5,545	251,856	124,160
56,115	-5,280	251,783	124,342
57,130	-4,910	251,576	124,549
58,144	-4,753	251,472	124,622
59,159	-4,762	251,115	124,426
60,174	-4,903	251,010	124,241
61,188	-5,030	250,696	123,965
62,203	-4,966	250,672	123,997
63,217	-4,775	250,333	123,983
64,232	-4,898	250,149	123,775
65,247	-4,816	249,921	123,722
66,261	-5,093	249,612	123,321
67,276	-5,076	249,368	123,203
68,290	-5,366	249,230	122,876
69,305	-5,491	248,999	122,645
70,320	-5,326	248,854	122,703
71,334	-5,137	248,699	122,777
72,349	-4,924	248,548	122,873
73,363	-4,924	248,311	122,745
74,378	-4,930	248,205	122,676
75,393	-4,738	247,828	122,642
76,407	-4,981	247,657	122,341
77,422	-4,993	247,464	122,225
78,436	-4,888	247,212	122,178
79,451	-5,099	247,263	122,014
80,466	-4,964	246,820	121,898
81,480	-5,005	246,584	121,736
82,495	-5,042	246,338	121,572
83,509	-5,158	246,230	121,410
84,524	-5,146	245,923	121,258
85,539	-5,246	245,979	121,191
86,553	-5,273	245,629	120,984
87,568	-5,399	245,549	120,828
88,582	-5,085	245,275	120,947
89,597	-5,196	245,045	120,730
90,611	-5,211	244,970	120,669
91,626	-5,010	244,943	120,814
92,641	-5,047	244,608	120,607
93,655	-5,262	244,423	120,324
94,670	-5,065	244,213	120,375
95,684	-4,948	243,985	120,350
96,699	-5,005	243,699	120,150
97,714	-5,234	243,626	119,913
98,728	-5,270	243,586	119,853
99,743	-5,337	243,288	119,640
100,757	-5,397	242,994	119,434
101,772	-5,245	242,853	119,481
102,787	-5,135	242,708	119,490
103,801	-5,214	242,539	119,331
104,816	-4,849	242,291	119,500
105,830	-5,014	242,225	119,320
106,845	-4,756	242,158	119,491
107,860	-5,039	241,877	119,107
108,874	-5,198	241,748	118,901
109,889	-5,383	241,662	118,696
110,903	-4,945	241,142	118,791
111,918	-5,006	241,065	118,692
112,933	-5,112	240,961	118,543
113,947	-5,104	240,917	118,517
114,962	-4,827	240,624	118,590
115,976	-5,216	240,545	118,221
116,991	-5,015	240,170	118,191
118,006	-4,997	240,132	118,177
119,020	-4,708	239,878	118,278
120,035	-4,868	239,881	118,138
121,049	-4,916	239,749	118,023
122,064	-4,958	239,443	117,827
123,079	-4,833	239,285	117,841
124,093	-5,087	239,133	117,549
125,108	-5,289	238,981	117,298
126,122	-5,445	238,566	116,957
127,137	-5,557	238,545	116,846
128,151	-5,317	238,385	116,952
129,166	-5,166	238,181	116,964
130,181	-5,424	237,999	116,655
131,195	-5,161	237,763	116,742
132,210	-5,267	237,766	116,648
133,224	-5,024	237,421	116,664
134,239	-4,782	237,240	116,761
135,254	-4,853	237,131	116,639
136,268	-5,160	236,943	116,289
137,283	-5,171	236,737	116,168
138,297	-5,511	236,579	115,806
139,312	-5,686	236,446	115,589
140,327	-5,167	236,247	115,900
141,341	-4,663	236,257	116,300
142,356	-4,636	236,062	116,216
143,370	-4,867	235,968	115,974
144,385	-4,769	235,817	115,967
145,400	-4,751	235,620	115,875
146,414	-4,778	235,515	115,792
147,429	-4,914	235,196	115,515
148,443	-4,626	235,010	115,644
149,458	-4,591	234,918	115,617
150,473	-4,800	234,646	115,306
151,487	-4,870	234,539	115,186
152,502	-4,742	234,368	115,194
153,516	-4,845	234,273	115,055
154,531	-4,565	233,986	115,127
155,546	-4,712	233,840	114,928
156,560	-4,736	233,604	114,782
157,575	-4,848	233,421	114,593
158,589	-4,976	233,418	114,480
159,604	-4,640	233,169	114,615
160,619	-4,703	233,007	114,475
161,633	-4,629	232,903	114,472
162,648	-4,668	232,825	114,393
163,662	-4,906	232,669	114,117
164,677	-4,795	232,514	114,119
165,692	-4,798	232,323	114,012
166,706	-4,701	232,228	114,032
167,721	-4,740	232,069	113,914
168,735	-4,502	231,684	113,902
169,750	-4,709	231,723	113,748
170,764	-4,726	231,661	113,694
171,779	-4,727	231,422	113,565
172,794	-4,717	231,292	113,500
173,808	-4,999	231,092	113,169
174,823	-5,182	230,760	112,853
175,837	-5,485	230,619	112,537
176,852	-5,163	230,591	112,766
177,867	-4,712	230,385	113,008
178,881	-4,530	230,216	113,057
179,896	-4,813	230,238	112,836
180,910	-4,822	229,972	112,689
181,925	-4,923	229,919	112,574
182,940	-4,874	229,683	112,487
183,954	-4,653	229,636	112,626
184,969	-4,584	229,454	112,580
185,983	-4,437	229,217	112,568
186,998	-4,592	229,234	112,446
188,013	-4,620	228,992	112,296
189,027	-4,630	228,832	112,200
190,042	-4,622	228,678	112,120
191,056	-4,556	228,471	112,060
192,071	-4,476	228,345	112,050
193,086	-4,629	228,225	111,862
194,100	-4,442	228,013	111,893
195,115	-4,739	227,690	111,496
196,129	-5,161	227,435	111,035
197,144	-2,768	228,240	113,270
198,159	1,154	229,517	116,940
199,173	3,840	229,927	119,224
200,188	4,015	229,978	119,376
201,202	4,109	229,860	119,376
202,217	3,920	229,747	119,161
203,232	4,436	229,681	119,516
204,246	4,469	229,522	119,448
205,261	4,492	229,417	119,401
206,275	5,040	229,068	119,631
207,290	4,660	229,028	119,307
208,304	4,664	228,963	119,265
209,319	4,667	228,799	119,171
210,334	4,584	228,620	119,003
211,348	4,418	228,374	118,737
212,363	4,066	228,039	118,282
213,377	3,991	227,841	118,111
214,392	3,668	227,849	117,856
215,407	3,959	227,557	117,919
216,421	4,061	227,471	117,942
217,436	4,016	227,116	117,712
218,450	3,656	226,995	117,364
219,465	3,453	226,979	117,190
220,480	3,562	226,792	117,166
221,494	3,727	226,622	117,194
222,509	3,717	226,583	117,156
223,523	3,645	226,348	116,969
224,538	3,715	226,134	116,901
225,553	3,808	226,102	116,945
226,567	3,926	225,958	116,950
227,582	3,941	225,933	116,938
228,596	4,326	225,707	117,103
229,611	3,986	225,425	116,688
230,626	3,677	225,427	116,444
231,640	3,483	225,224	116,182
232,655	3,829	225,139	116,390
233,669	4,275	225,125	116,710
234,684	4,372	224,985	116,700
235,699	4,232	224,743	116,459
236,713	3,874	224,537	116,072
237,728	3,855	224,268	115,908
238,742	3,581	224,145	115,627
239,757	3,643	224,118	115,649
240,772	3,733	223,948	115,619
241,786	3,875	223,745	115,611
242,801	3,850	223,706	115,562
243,815	4,177	223,591	115,738
244,830	4,065	223,360	115,524
245,844	4,082	223,141	115,413
246,859	4,198	223,081	115,459
247,874	4,153	223,049	115,398
248,888	4,347	222,753	115,380
249,903	3,923	222,715	115,032
250,917	3,779	222,477	114,792
251,932	3,914	222,279	114,780
252,947	3,764	222,029	114,529
253,961	3,679	222,083	114,484
254,976	3,968	221,720	114,501
255,990	4,089	221,725	114,583
257,005	4,043	221,701	114,527
258,020	4,057	221,500	114,423
259,034	4,361	221,461	114,619
260,049	4,221	221,341	114,442
261,063	4,006	221,222	114,211
262,078	4,272	220,994	114,280
263,093	4,210	220,951	114,201
264,107	4,055	220,737	113,967
265,122	4,096	220,536	113,883
266,136	4,199	220,542	113,952
267,151	4,418	220,252	113,953
268,166	4,085	220,046	113,591
269,180	3,580	219,857	113,111
270,195	3,715	219,719	113,130
271,209	3,750	219,491	113,028
272,224	3,839	219,489	113,082
273,239	4,016	219,396	113,154
274,253	3,741	219,099	112,789
275,268	3,570	219,060	112,634
276,282	3,657	218,806	112,556
277,297	3,554	218,615	112,373
278,312	3,708	218,572	112,453
279,326	3,670	218,455	112,356
280,341	3,915	218,395	112,494
281,355	3,752	218,183	112,256
282,370	3,790	218,031	112,195
283,384	3,696	217,736	111,965
284,399	3,338	217,620	111,634
285,414	3,484	217,556	111,698
286,428	3,840	217,457	111,896
287,443	4,080	217,401	112,033
288,457	4,121	217,255	111,976
289,472	3,927	217,081	111,736
290,487	3,539	216,785	111,292
291,501	3,224	216,654	110,987
292,516	3,354	216,610	111,048
293,530	3,192	216,446	110,837
294,545	3,402	216,208	110,857
295,560	3,717	216,321	111,134
296,574	4,042	216,172	111,282
297,589	3,716	215,997	110,946
298,603	3,736	215,948	110,925
299,618	3,912	215,711	110,921
300,633	3,738	215,659	110,759
301,647	4,098	215,550	110,953
302,662	4,093	215,334	110,828
303,676	4,027	215,263	110,733
304,691	4,003	215,036	110,590
305,706	4,125	215,054	110,677
306,720	4,162	214,753	110,539
307,735	3,614	214,661	110,088
308,749	3,499	214,523	109,926
309,764	3,975	214,332	110,159
310,779	4,190	214,229	110,250
311,793	4,233	213,963	110,134
312,808	4,103	213,987	110,043
313,822	3,716	213,821	109,672
314,837	3,668	213,696	109,564
315,852	3,534	213,501	109,358
316,866	3,724	213,372	109,418
317,881	3,928	213,257	109,494
318,895	4,012	213,146	109,487
319,910	3,830	212,925	109,235
320,925	3,387	212,825	108,859
321,939	3,352	212,477	108,647
322,954	3,339	212,452	108,615
323,968	3,828	212,415	108,933
324,983	3,830	212,392	108,913
325,997	4,091	212,303	109,042
327,012	3,854	212,100	108,761
328,027	3,828	212,028	108,696
329,041	4,089	211,960	108,835
330,056	4,369	211,910	108,998
331,070	3,835	211,517	108,409
332,085	3,514	211,362	108,094
333,100	3,646	211,127	108,058
334,114	3,691	211,141	108,086
335,129	3,784	210,994	108,067
336,143	3,664	210,858	107,903
337,158	3,553	210,771	107,771
338,173	3,783	210,440	107,753
339,187	3,715	210,205	107,576
340,202	3,356	210,224	107,325
341,216	3,637	210,027	107,412
342,231	3,374	210,115	107,262
343,246	3,755	209,814	107,366
344,260	3,550	209,696	107,153
345,275	3,523	209,658	107,105
346,289	3,906	209,500	107,282
347,304	3,863	209,339	107,159
348,319	3,795	209,213	107,038
349,333	4,016	209,086	107,117
350,348	3,886	209,069	107,009
351,362	3,874	208,950	106,930
352,377	4,487	208,617	107,175
353,392	3,735	208,544	106,607
354,406	3,879	208,379	106,613
355,421	194,298	1344,265	1432,814
356,435	155,050	1482,747	1432,927
