DTS Sentinel unit serial number:	SN410029Multiplexer serial number:	ORYXHardware model number:	OX2-SRSoftware version number:	ORYX F/W v4,00 Oryx Data Collector v3.7.2.0data status	okinstallation	B6 Nyhavnadifferential loss correction	single-endedforward channel	channel 2reverse channel	N/Adate	2023/12/10time	15:30:08forward acquisition time	300,00reverse acquisition time	0,00gamma	499,1914k internal	0,3122k external	0,3122temperature offset calibration	1,0000default loss term (dB/km)	0,3820temperature slope calibration	1,0000multiplexer offset coefficient	1,0000multiplexer slope coefficient	1,0000fibre end	0,00T internal ref (°C)	22,43T ext. ref 1 (°C)	5,90T ext. ref 2 (°C)	5,89length (m)	temperature (°C)	Stokes	anti-Stokes-744,400	6,312	0,046	-0,026
-743,385	-2,660	-0,322	0,167
-742,371	-74,295	0,027	0,007
-741,356	217,689	-0,128	0,153
-740,342	800,000	0,015	-0,037
-739,327	-23,078	-0,222	0,099
-738,312	-200,000	-0,004	-0,045
-737,298	-14,345	-0,189	0,090
-736,283	150,403	0,078	-0,079
-735,269	86,026	-0,221	0,181
-734,254	181,363	-0,051	0,056
-733,239	-56,385	-0,245	-0,081
-732,225	-110,639	0,227	-0,035
-731,210	-16,600	-0,110	0,052
-730,196	27,532	-0,081	0,051
-729,181	180,244	-0,133	-0,146
-728,167	-37,873	0,090	0,035
-727,152	364,156	-0,096	0,144
-726,137	15,930	-0,135	-0,079
-725,123	800,000	-0,045	-0,125
-724,108	67,986	0,043	0,033
-723,094	800,000	-0,053	-0,137
-722,079	91,581	-0,082	0,068
-721,064	144,381	-0,035	0,035
-720,050	-129,666	-0,082	0,008
-719,035	196,808	-0,075	-0,085
-718,021	-125,027	-0,170	0,019
-717,006	646,246	-0,054	-0,104
-715,991	-167,223	-0,037	-0,001
-714,977	-200,000	-0,040	-0,142
-713,962	-149,245	-0,109	-0,006
-712,948	-131,923	0,085	-0,008
-711,933	-69,298	0,033	0,009
-710,918	190,108	-0,073	0,081
-709,904	-75,242	-0,080	0,021
-708,889	371,940	-0,087	-0,133
-707,875	206,495	-0,063	0,074
-706,860	-139,418	-0,109	0,009
-705,845	285,223	0,034	0,045
-704,831	-200,000	0,002	-0,136
-703,816	-6,714	-0,074	0,037
-702,802	-58,398	-0,081	0,026
-701,787	-90,703	0,030	-0,006
-700,772	539,884	-0,043	-0,077
-699,758	-200,000	-0,013	-0,122
-698,743	800,000	0,068	0,202
-697,729	-123,366	-0,116	-0,014
-696,714	41,455	0,095	0,064
-695,699	-154,506	-0,101	0,005
-694,685	-200,000	0,006	-0,071
-693,670	-117,021	0,066	0,009
-692,656	92,416	0,121	-0,101
-691,641	369,080	0,036	0,054
-690,627	-131,375	0,074	0,007
-689,612	-46,221	0,078	-0,028
-688,597	555,563	-0,073	-0,132
-687,583	427,257	-0,099	-0,160
-686,568	-200,000	-0,008	-0,085
-685,554	-38,931	0,034	-0,013
-684,539	252,433	0,085	-0,108
-683,524	-8,360	-0,096	-0,048
-682,510	-50,769	0,039	0,013
-681,495	427,914	0,005	-0,007
-680,481	70,670	-0,117	-0,090
-679,466	-200,000	-0,026	-0,091
-678,451	0,941	-0,103	0,055
-677,437	-200,000	-0,015	-0,123
-676,422	403,892	0,032	-0,051
-675,408	39,551	0,041	0,028
-674,393	-81,965	0,101	-0,024
-673,378	-200,000	0,036	-0,141
-672,364	-200,000	0,002	-0,116
-671,349	-182,472	0,058	-0,001
-670,335	-82,257	-0,135	0,032
-669,320	373,203	-0,054	0,082
-668,305	146,316	0,025	0,025
-667,291	82,945	0,022	0,018
-666,276	-50,396	-0,065	0,023
-665,262	-79,716	-0,072	0,018
-664,247	-80,457	0,026	0,006
-663,232	-200,000	-0,035	-0,123
-662,218	800,000	0,005	0,014
-661,203	-178,646	-0,047	-0,001
-660,189	-97,558	-0,050	0,010
-659,174	800,000	0,041	-0,119
-658,159	295,552	-0,055	0,075
-657,145	88,785	-0,123	-0,102
-656,130	800,000	0,057	-0,131
-655,116	351,347	0,020	0,030
-654,101	800,000	0,027	-0,076
-653,086	711,330	-0,050	0,099
-652,072	-121,287	-0,146	-0,018
-651,057	800,000	-0,050	-0,117
-650,043	364,688	-0,049	0,074
-649,028	5,672	-0,061	-0,033
-648,014	356,260	0,046	-0,068
-646,999	81,734	-0,062	0,050
-645,984	68,467	-0,012	0,009
-644,970	800,000	-0,038	0,095
-643,955	-147,572	-0,143	0,009
-642,941	134,535	0,110	-0,106
-641,926	-37,081	-0,018	0,007
-640,911	-200,000	0,006	0,023
-639,897	-15,195	0,089	0,042
-638,882	-38,378	0,056	0,022
-637,868	73,558	0,111	-0,086
-636,853	-190,349	-0,194	-0,002
-635,838	144,695	-0,083	-0,083
-634,824	-31,602	-0,092	-0,038
-633,809	339,259	0,007	-0,011
-632,795	14,702	-0,111	-0,064
-631,780	221,213	0,073	-0,087
-630,765	708,217	0,034	0,067
-629,751	339,097	-0,132	-0,191
-628,736	-65,917	0,054	-0,016
-627,722	218,288	-0,133	-0,157
-626,707	-200,000	0,014	-0,050
-625,692	800,000	-0,054	-0,131
-624,678	-46,180	-0,052	-0,019
-623,663	-110,248	-0,070	0,011
-622,649	13,349	-0,136	0,078
-621,634	800,000	0,014	-0,041
-620,619	162,612	-0,108	-0,113
-619,605	-70,730	-0,070	-0,019
-618,590	-200,000	-0,013	0,073
-617,576	56,370	0,031	-0,023
-616,561	800,000	0,022	-0,047
-615,546	117,344	-0,099	-0,091
-614,532	-71,037	-0,169	-0,047
-613,517	-200,000	0,012	-0,057
-612,503	-57,297	0,137	0,044
-611,488	78,842	0,066	-0,052
-610,474	-200,000	-0,019	0,085
-609,459	157,564	-0,068	0,070
-608,444	-114,879	-0,122	-0,017
-607,430	404,842	-0,067	-0,105
-606,415	-200,000	0,039	-0,155
-605,401	-92,737	0,044	0,009
-604,386	74,351	0,023	0,018
-603,371	-81,548	0,069	0,017
-602,357	800,000	-0,008	0,019
-601,342	-159,555	-0,095	0,004
-600,328	-200,000	-0,030	-0,101
-599,313	-200,000	0,015	-0,051
-598,298	800,000	0,012	0,033
-597,284	62,927	0,060	-0,045
-596,269	121,959	-0,036	0,034
-595,255	260,002	-0,050	-0,064
-594,240	-200,000	0,005	-0,121
-593,225	-200,000	0,053	-0,242
-592,211	800,000	0,043	-0,126
-591,196	800,000	-0,060	-0,152
-590,182	137,074	0,101	-0,097
-589,167	-69,152	-0,034	0,010
-588,152	171,676	-0,007	-0,007
-587,138	800,000	0,057	-0,145
-586,123	-55,105	-0,087	-0,029
-585,109	-50,222	0,018	-0,006
-584,094	-200,000	0,008	-0,045
-583,079	-21,966	0,141	0,063
-582,065	155,996	-0,030	-0,031
-581,050	441,852	0,036	-0,058
-580,036	65,789	-0,052	0,039
-579,021	-200,000	-0,010	-0,080
-578,006	800,000	-0,070	-0,148
-576,992	65,910	0,133	0,100
-575,977	-7,087	0,091	0,046
-574,963	-200,000	-0,005	0,023
-573,948	203,830	0,067	-0,077
-572,934	409,092	0,026	0,041
-571,919	40,576	-0,085	-0,057
-570,904	-200,000	0,006	-0,023
-569,890	-200,000	0,046	-0,224
-568,875	110,882	0,009	0,008
-567,861	-21,153	-0,099	0,044
-566,846	237,181	0,073	0,090
-565,831	107,511	0,127	0,112
-564,817	84,705	-0,072	0,058
-563,802	-186,825	0,062	0,001
-562,788	-117,029	-0,049	0,007
-561,773	-63,906	-0,129	0,039
-560,758	245,540	0,045	-0,057
-559,744	717,998	-0,049	0,097
-558,729	-200,000	-0,001	-0,052
-557,715	-200,000	0,020	-0,145
-556,700	-200,000	-0,001	-0,004
-555,685	341,753	0,017	-0,025
-554,671	191,325	-0,011	-0,012
-553,656	800,000	-0,049	-0,108
-552,642	468,414	0,014	-0,023
-551,627	-156,777	-0,216	0,010
-550,612	78,382	-0,119	0,094
-549,598	594,305	-0,058	-0,107
-548,583	-36,162	-0,078	-0,031
-547,569	39,547	0,048	-0,032
-546,554	-200,000	-0,011	-0,115
-545,539	-51,104	0,097	0,034
-544,525	123,123	0,079	-0,073
-543,510	-108,517	-0,142	0,022
-542,496	-200,000	-0,007	0,052
-541,481	1,740	-0,010	0,005
-540,466	-59,096	0,103	0,033
-539,452	-39,358	0,075	0,029
-538,437	-129,821	-0,019	-0,002
-537,423	800,000	-0,049	-0,125
-536,408	-82,367	0,083	-0,020
-535,393	800,000	0,028	-0,072
-534,379	167,648	0,068	0,071
-533,364	-59,323	0,090	0,028
-532,350	-200,000	0,008	0,122
-531,335	520,389	-0,040	0,070
-530,321	-67,928	0,101	-0,029
-529,306	-108,018	0,024	0,004
-528,291	-103,765	-0,106	-0,018
-527,277	-170,331	0,071	0,002
-526,262	-67,851	-0,191	-0,055
-525,248	-2,225	0,134	-0,069
-524,233	474,985	0,075	-0,126
-523,218	467,141	-0,056	0,094
-522,204	267,068	0,014	0,018
-521,189	350,742	-0,043	-0,063
-520,175	-200,000	-0,010	-0,084
-519,160	-9,989	0,070	-0,034
-518,145	210,183	-0,024	0,028
-517,131	-129,478	0,183	-0,018
-516,116	-200,000	0,035	0,155
-515,102	145,744	-0,034	-0,033
-514,087	800,000	-0,012	0,031
-513,072	-200,000	-0,006	-0,120
-512,058	-141,550	0,074	-0,005
-511,043	196,822	0,030	-0,034
-510,029	14,890	0,163	0,094
-509,014	128,317	-0,043	-0,041
-507,999	-200,000	0,002	0,012
-506,985	-19,009	0,059	0,027
-505,970	-41,595	-0,183	0,069
-504,956	800,000	-0,014	-0,043
-503,941	-200,000	0,005	-0,053
-502,926	451,211	-0,023	0,038
-501,912	412,681	-0,024	0,037
-500,897	-138,334	0,060	0,005
-499,883	19,353	-0,089	-0,053
-498,868	333,491	0,018	-0,026
-497,853	-200,000	0,013	-0,077
-496,839	-125,422	-0,166	-0,018
-495,824	-200,000	0,001	0,024
-494,810	800,000	0,036	0,099
-493,795	102,710	-0,085	0,074
-492,781	-50,672	-0,016	-0,006
-491,766	113,515	-0,047	-0,042
-490,751	-200,000	0,002	-0,053
-489,737	-73,439	-0,139	0,037
-488,722	433,457	0,073	-0,117
-487,708	800,000	0,011	0,023
-486,693	-19,813	-0,106	0,048
-485,678	72,049	0,050	-0,038
-484,664	-12,631	-0,092	-0,044
-483,649	-200,000	0,011	0,056
-482,635	531,909	-0,100	-0,176
-481,620	-200,000	-0,025	0,149
-480,605	25,750	0,099	0,061
-479,591	293,185	0,056	0,075
-478,576	58,443	0,040	-0,029
-477,562	-53,289	-0,061	-0,021
-476,547	3,292	-0,063	0,034
-475,532	-43,445	0,147	-0,054
-474,518	-200,000	-0,005	0,070
-473,503	-102,372	-0,093	0,016
-472,489	178,051	0,012	0,013
-471,474	800,000	-0,076	-0,172
-470,459	800,000	0,014	-0,033
-469,445	-50,236	0,070	-0,024
-468,430	45,842	0,047	-0,032
-467,416	247,708	-0,039	0,049
-466,401	-146,029	0,091	-0,006
-465,386	-200,000	0,018	-0,092
-464,372	67,718	-0,045	-0,034
-463,357	-200,000	0,011	-0,088
-462,343	74,828	0,061	-0,047
-461,328	-59,666	0,053	0,017
-460,313	-200,000	-0,002	0,014
-459,299	-112,152	0,140	0,021
-458,284	67,289	0,089	0,067
-457,270	341,196	-0,031	0,045
-456,255	275,746	-0,104	-0,137
-455,241	-200,000	-0,003	0,051
-454,226	19,710	-0,102	0,061
-453,211	101,906	-0,108	0,093
-452,197	6,298	0,064	-0,035
-451,182	77,701	0,014	0,011
-450,168	-72,003	-0,025	-0,007
-449,153	800,000	-0,030	-0,095
-448,138	-200,000	0,028	-0,102
-447,124	800,000	0,031	0,100
-446,109	-200,000	-0,013	0,106
-445,095	401,483	0,078	0,120
-444,080	19,320	-0,070	-0,041
-443,065	-182,916	0,063	0,001
-442,051	-200,000	-0,011	0,124
-441,036	-6,812	0,070	-0,035
-440,022	-124,190	-0,075	0,009
-439,007	-200,000	-0,009	-0,096
-437,992	800,000	0,050	0,144
-436,978	625,787	-0,029	0,054
-435,963	244,344	-0,024	0,029
-434,949	-200,000	-0,025	-0,088
-433,934	800,000	0,014	-0,028
-432,919	436,688	-0,043	-0,069
-431,905	661,496	-0,049	0,093
-430,890	15,328	-0,099	0,057
-429,876	-200,000	0,042	-0,145
-428,861	-200,000	-0,011	0,041
-427,846	31,273	0,104	0,066
-426,832	-200,000	-0,013	-0,134
-425,817	-200,000	0,007	-0,133
-424,803	-200,000	0,012	0,067
-423,788	57,338	-0,066	0,047
-422,773	216,064	0,020	-0,023
-421,759	800,000	0,031	0,071
-420,744	16,751	-0,097	0,057
-419,730	-80,501	0,029	0,007
-418,715	800,000	0,015	-0,048
-417,701	-139,176	0,080	0,006
-416,686	-200,000	-0,029	0,112
-415,671	-125,335	-0,093	-0,010
-414,657	-154,286	0,045	-0,002
-413,642	-200,000	-0,012	-0,044
-412,628	290,477	-0,073	0,098
-411,613	-200,000	0,016	-0,059
-410,598	-200,000	-0,015	-0,102
-409,584	8,045	0,048	0,026
-408,569	9,714	0,059	-0,033
-407,555	-138,244	-0,105	-0,008
-406,540	800,000	0,053	-0,157
-405,525	-160,648	0,095	0,004
-404,511	390,653	-0,011	0,018
-403,496	414,958	0,037	0,058
-402,482	65,430	0,074	0,055
-401,467	800,000	0,004	-0,010
-400,452	488,100	-0,048	-0,081
-399,438	-101,878	0,058	-0,010
-398,423	-200,000	-0,029	-0,122
-397,409	-200,000	-0,003	-0,122
-396,394	-69,206	-0,059	0,017
-395,379	-6,841	-0,109	0,055
-394,365	155,631	0,154	0,157
-393,350	187,243	-0,059	0,065
-392,336	25,474	-0,099	-0,060
-391,321	419,951	-0,046	0,073
-390,306	183,402	0,061	-0,066
-389,292	202,597	-0,102	-0,116
-388,277	268,825	-0,049	0,064
-387,263	800,000	-0,075	0,168
-386,248	42,733	0,097	0,065
-385,233	85,747	-0,058	-0,047
-384,219	-200,000	0,027	-0,114
-383,204	66,917	-0,029	-0,021
-382,190	-75,581	0,078	0,020
-381,175	-200,000	-0,006	-0,107
-380,160	295,073	-0,063	0,085
-379,146	-164,958	0,125	-0,004
-378,131	-200,000	-0,015	0,085
-377,117	784,400	-0,061	0,124
-376,102	-155,435	-0,126	0,006
-375,088	350,941	0,013	-0,020
-374,073	7,727	0,030	-0,016
-373,058	800,000	0,059	0,166
-372,044	4,976	-0,134	-0,072
-371,029	800,000	-0,045	0,094
-370,015	-99,982	-0,124	0,023
-369,000	-100,783	-0,126	0,023
-367,985	726,754	-0,038	-0,074
-366,971	-200,000	-0,012	0,076
-365,956	-91,756	-0,095	0,020
-364,942	313,687	-0,051	0,071
-363,927	800,000	0,032	0,095
-362,912	-114,853	0,044	0,006
-361,898	-17,461	-0,034	0,016
-360,883	-200,000	0,021	-0,112
-359,869	-123,966	0,135	0,015
-358,854	522,421	0,058	-0,101
-357,839	-126,779	0,063	0,007
-356,825	-200,000	-0,006	-0,114
-355,810	-7,699	-0,051	-0,025
-354,796	87,168	0,101	0,082
-353,781	-59,260	0,066	0,021
-352,766	300,384	-0,050	0,068
-351,752	16,889	0,070	0,040
-350,737	-200,000	0,032	-0,119
-349,723	800,000	-0,027	0,060
-348,708	53,976	0,099	-0,070
-347,693	-200,000	-0,001	0,036
-346,679	-73,829	-0,056	-0,015
-345,664	800,000	-0,017	0,054
-344,650	-108,790	-0,036	0,006
-343,635	-200,000	-0,014	-0,076
-342,620	-127,452	0,075	-0,008
-341,606	-23,387	-0,099	0,044
-340,591	800,000	-0,070	0,187
-339,577	231,801	-0,144	-0,174
-338,562	56,447	0,137	-0,098
-337,548	139,318	-0,075	-0,073
-336,533	-112,450	0,181	-0,026
-335,518	193,879	0,061	-0,068
-334,504	465,826	0,030	-0,050
-333,489	-200,000	0,009	0,053
-332,475	101,495	0,039	-0,033
-331,460	-24,230	0,099	0,043
-330,445	167,249	-0,102	-0,106
-329,431	-31,853	0,098	0,040
-328,416	-200,000	-0,026	0,093
-327,402	800,000	0,022	0,066
-326,387	-200,000	0,001	0,112
-325,372	-86,536	0,082	-0,018
-324,358	146,065	0,054	-0,053
-323,343	-200,000	-0,007	-0,071
-322,329	-75,432	0,102	0,026
-321,314	189,848	-0,116	0,128
-320,299	448,538	0,060	0,097
-319,285	48,245	0,115	0,079
-318,270	-86,375	-0,154	-0,034
-317,256	-200,000	-0,005	-0,052
-316,241	-200,000	-0,012	-0,049
-315,226	-140,121	0,127	0,010
-314,212	-73,104	-0,078	-0,021
-313,197	169,740	0,095	0,099
-312,183	324,264	-0,059	-0,082
-311,168	-200,000	-0,014	-0,049
-310,153	800,000	-0,089	-0,192
-309,139	-65,347	-0,092	-0,027
-308,124	614,542	0,019	-0,035
-307,110	69,076	0,086	-0,065
-306,095	74,691	0,089	0,068
-305,080	-200,000	0,004	-0,117
-304,066	-10,922	-0,072	-0,035
-303,051	-64,022	-0,042	0,012
-302,037	85,773	0,041	0,033
-301,022	290,667	-0,073	0,097
-300,008	-200,000	0,040	0,181
-298,993	800,000	-0,040	0,109
-297,978	-200,000	-0,023	0,177
-296,964	-97,494	0,058	0,011
-295,949	255,243	0,110	0,139
-294,935	57,145	0,133	0,095
-293,920	12,965	0,083	0,047
-292,905	174,681	0,104	0,110
-291,891	118,733	-0,049	-0,044
-290,876	-62,476	0,111	0,034
-289,862	-200,000	0,019	-0,164
-288,847	-49,034	0,055	-0,019
-287,832	448,199	-0,049	-0,080
-286,818	-200,000	-0,078	0,000
-285,803	-200,000	0,002	0,094
-284,789	-31,662	-0,010	-0,004
-283,774	-29,305	0,057	-0,024
-282,759	800,000	0,018	0,059
-281,745	-97,452	-0,025	0,005
-280,730	-200,000	-0,019	-0,066
-279,716	268,362	-0,010	-0,013
-278,701	-6,791	-0,045	-0,022
-277,686	-97,719	0,177	-0,033
-276,672	308,252	-0,137	0,188
-275,657	-166,234	0,047	-0,001
-274,643	800,000	0,024	0,057
-273,628	17,878	-0,082	-0,048
-272,613	-200,000	0,002	-0,150
-271,599	7,352	0,093	-0,050
-270,584	-200,000	0,023	0,078
-269,570	-200,000	0,028	0,124
-268,555	207,903	-0,042	-0,048
-267,540	385,910	0,049	0,074
-266,526	125,675	-0,055	-0,051
-265,511	-100,552	-0,113	0,020
-264,497	-200,000	0,012	-0,045
-263,482	-19,563	0,149	-0,067
-262,467	-35,438	0,055	0,022
-261,453	85,543	-0,103	0,083
-260,438	36,574	-0,112	-0,072
-259,424	45,858	-0,086	0,058
-258,409	598,938	0,065	0,118
-257,395	-175,937	-0,092	-0,002
-256,380	-166,695	-0,100	0,003
-255,365	800,000	0,039	0,108
-254,351	800,000	-0,036	0,111
-253,336	10,757	-0,057	0,032
-252,322	212,553	-0,016	-0,019
-251,307	800,000	-0,055	-0,126
-250,292	371,443	0,064	0,095
-249,278	199,441	0,091	0,102
-248,263	28,246	0,109	-0,067
-247,249	-77,492	0,079	0,020
-246,234	-200,000	0,014	0,081
-245,219	-73,228	0,116	-0,031
-244,205	-90,076	0,028	0,006
-243,190	75,342	-0,125	0,097
-242,176	91,563	-0,002	0,002
-241,161	-88,347	0,130	-0,028
-240,146	-50,594	-0,048	0,017
-239,132	5,244	-0,041	0,022
-238,117	-86,877	0,073	-0,016
-237,103	141,058	-0,108	-0,104
-236,088	318,276	-0,013	0,018
-235,073	-200,000	0,013	0,067
-234,059	-167,101	0,280	0,008
-233,044	-24,646	-0,001	0,001
-232,030	800,000	-0,007	-0,014
-231,015	-93,946	-0,118	0,024
-230,000	-73,973	-0,063	0,017
-228,986	16,275	-0,136	-0,078
-227,971	800,000	0,069	0,198
-226,957	-152,836	0,098	-0,005
-225,942	-29,619	-0,030	0,012
-224,927	-16,061	0,047	-0,022
-223,913	134,524	-0,093	0,088
-222,898	351,441	-0,068	0,099
-221,884	-200,000	0,006	-0,132
-220,869	-200,000	0,001	-0,011
-219,855	54,509	-0,189	0,133
-218,840	179,114	0,039	0,041
-217,825	17,082	-0,148	0,085
-216,811	784,225	0,008	0,016
-215,796	135,126	0,056	-0,054
-214,782	25,976	-0,091	0,056
-213,767	200,893	0,026	-0,030
-212,752	326,858	0,062	0,086
-211,738	-82,904	0,148	-0,035
-210,723	-200,000	-0,005	0,053
-209,709	-48,040	-0,098	-0,034
-208,694	-200,000	-0,007	0,036
-207,679	402,550	-0,030	-0,047
-206,665	800,000	0,047	0,137
-205,650	105,515	0,071	-0,061
-204,636	79,936	0,088	0,069
-203,621	53,888	0,074	0,052
-202,606	-7,734	-0,022	0,011
-201,592	-200,000	0,004	0,080
-200,577	582,206	-0,048	0,086
-199,563	638,366	0,045	0,084
-198,548	-64,394	0,112	-0,033
-197,533	684,779	-0,052	-0,100
-196,519	-88,634	0,070	0,015
-195,504	-200,000	-0,021	-0,129
-194,490	-93,209	0,040	0,008
-193,475	37,437	-0,103	-0,067
-192,460	-61,431	-0,033	0,010
-191,446	-135,506	0,040	0,003
-190,431	-105,297	0,129	-0,021
-189,417	232,604	0,089	0,107
-188,402	27,396	-0,034	0,021
-187,387	800,000	0,041	0,104
-186,373	800,000	-0,050	0,119
-185,358	39,347	0,030	-0,020
-184,344	758,278	0,073	0,146
-183,329	456,354	0,086	0,140
-182,315	274,164	0,054	0,070
-181,300	-99,457	-0,113	0,020
-180,285	11,442	0,049	0,027
-179,271	335,725	-0,071	0,101
-178,256	-123,239	0,090	0,010
-177,242	-200,000	-0,020	0,088
-176,227	800,000	0,007	-0,020
-175,212	-200,000	-0,034	0,137
-174,198	113,099	-0,051	-0,045
-173,183	489,815	0,095	-0,159
-172,169	250,442	0,058	0,072
-171,154	-64,181	-0,129	0,038
-170,139	-109,018	0,110	-0,017
-169,125	-174,532	0,093	0,002
-168,110	312,693	-0,090	0,124
-167,096	-72,183	0,066	-0,018
-166,081	762,878	-0,052	-0,104
-165,066	-68,550	0,043	-0,012
-164,052	-200,000	-0,032	-0,110
-163,037	-200,000	0,035	-0,130
-162,023	57,555	0,119	0,085
-161,008	800,000	0,047	-0,107
-159,993	230,257	-0,039	0,046
-158,979	800,000	-0,063	0,128
-157,964	-31,631	0,101	0,041
-156,950	-109,478	-0,121	0,018
-155,935	261,448	0,078	0,099
-154,920	-200,000	0,022	0,122
-153,906	529,071	-0,052	-0,091
-152,891	800,000	0,031	0,068
-151,877	-37,940	-0,107	-0,041
-150,862	81,599	-0,093	0,073
-149,847	-200,000	-0,004	0,037
-148,833	137,711	0,046	-0,044
-147,818	366,431	-0,022	0,032
-146,804	180,028	0,039	0,041
-145,789	189,408	-0,047	-0,051
-144,775	92,623	-0,156	-0,128
-143,760	366,002	0,026	0,039
-142,745	-200,000	0,011	-0,059
-141,731	34,510	0,037	-0,024
-140,716	19,751	-0,038	0,022
-139,702	-200,000	-0,026	-0,105
-138,687	-200,000	0,016	-0,076
-137,672	-174,671	-0,079	0,002
-136,658	-200,000	-0,000	-0,137
-135,643	-200,000	-0,001	-0,033
-134,629	-200,000	0,055	-0,189
-133,614	-79,009	0,088	-0,022
-132,599	36,266	0,100	0,064
-131,585	-4,402	-0,084	0,042
-130,570	-61,665	0,070	0,021
-129,556	800,000	-0,061	0,129
-128,541	-51,944	0,029	-0,010
-127,526	31,807	-0,157	-0,098
-126,512	5,889	0,169	-0,091
-125,497	800,000	-0,057	-0,178
-124,483	-200,000	-0,005	0,054
-123,468	-46,537	0,064	-0,023
-122,453	714,019	-0,041	0,080
-121,439	183,131	0,036	-0,039
-120,424	278,105	0,060	-0,078
-119,410	-200,000	-0,025	0,086
-118,395	-200,000	0,004	-0,036
-117,380	151,830	0,088	0,087
-116,366	70,665	-0,023	0,017
-115,351	1,850	-0,046	-0,024
-114,337	-200,000	-0,037	-0,165
-113,322	800,000	0,036	-0,104
-112,307	61,060	-0,066	-0,048
-111,293	-200,000	0,024	0,150
-110,278	-77,623	-0,020	0,005
-109,264	-154,965	-0,032	0,001
-108,249	-186,104	0,109	-0,001
-107,234	-200,000	-0,046	-0,207
-106,220	800,000	-0,072	-0,156
-105,205	40,991	0,059	0,039
-104,191	-200,000	0,003	0,038
-103,176	-200,000	0,001	-0,054
-102,162	457,510	-0,041	0,067
-101,147	-200,000	0,024	-0,110
-100,132	279,496	0,028	-0,036
-99,118	800,000	-0,061	-0,163
-98,103	39,702	-0,057	-0,037
-97,089	-200,000	-0,018	0,083
-96,074	13,474	0,053	0,030
-95,059	-28,376	0,133	0,055
-94,045	-79,321	-0,110	-0,027
-93,030	94,791	-0,075	-0,062
-92,016	-200,000	-0,017	-0,079
-91,001	41,519	-0,060	-0,039
-89,986	75,770	0,048	-0,037
-88,972	-200,000	0,024	0,186
-87,957	30,794	-0,091	0,057
-86,943	-107,049	-0,049	0,008
-85,928	36,601	-0,192	-0,123
-84,913	646,727	-0,035	-0,065
-83,899	-58,750	0,046	-0,014
-82,884	-141,167	-0,071	0,005
-81,870	-69,520	0,070	0,019
-80,855	272,957	-0,142	0,182
-79,840	615,174	0,015	-0,027
-78,826	-200,000	0,013	0,052
-77,811	573,065	-0,079	-0,140
-76,797	800,000	-0,045	-0,101
-75,782	-200,000	0,014	0,074
-74,767	-67,318	0,086	-0,025
-73,753	-59,536	0,116	0,036
-72,738	-92,733	0,057	-0,011
-71,724	-200,000	0,023	-0,148
-70,709	-35,498	-0,035	0,014
-69,694	-149,976	-0,013	-0,001
-68,680	-118,009	-0,017	0,002
-67,665	-200,000	-0,025	0,165
-66,651	-143,607	0,070	0,005
-65,636	800,000	-0,054	0,151
-64,622	105,823	-0,031	0,026
-63,607	-67,937	-0,040	-0,011
-62,592	145,432	-0,064	0,062
-61,578	328,932	-0,025	0,035
-60,563	179,079	0,063	0,067
-59,549	-77,116	-0,070	0,018
-58,534	-135,769	-1,371	-0,116
-57,519	591,871	-0,873	-1,572
-56,505	-200,000	-1,005	-4,398
-55,490	27,156	0,584	-0,355
-54,476	800,000	4,965	11,888
-53,461	-200,000	13,485	252,921
-52,446	-200,000	689,446	2261,837
-51,432	592,618	1622,353	2920,399
-50,417	119,695	1635,185	1470,260
-49,403	73,501	1289,126	978,511
-48,388	38,148	1024,419	660,245
-47,373	24,369	981,975	587,568
-46,359	23,662	971,716	579,087
-45,344	22,657	967,601	573,326
-44,330	22,610	965,902	572,145
-43,315	22,470	964,477	570,821
-42,300	22,462	963,518	570,203
-41,286	22,434	962,653	569,577
-40,271	22,450	961,614	568,993
-39,257	22,418	960,799	568,383
-38,242	22,426	959,658	567,713
-37,227	22,413	958,878	567,185
-36,213	22,426	958,037	566,709
-35,198	22,365	957,361	566,090
-34,184	22,409	956,720	565,830
-33,169	22,432	955,613	565,228
-32,154	22,517	954,656	564,911
-31,140	22,453	953,708	564,122
-30,125	22,489	953,167	563,895
-29,111	22,465	952,058	563,142
-28,096	22,488	951,493	562,859
-27,082	22,501	950,868	562,509
-26,067	22,476	950,016	561,901
-25,052	22,485	949,218	561,436
-24,038	22,450	948,810	561,061
-23,023	22,397	948,180	560,495
-22,009	22,501	947,278	560,273
-20,994	22,473	946,826	559,892
-19,979	22,494	946,116	559,518
-18,965	22,478	945,794	559,253
-17,950	22,463	944,815	558,607
-16,936	22,470	944,218	558,254
-15,921	22,441	943,567	557,755
-14,906	22,364	942,848	557,061
-13,892	22,384	942,159	556,696
-12,877	22,412	941,416	556,323
-11,863	22,354	940,944	555,840
-10,848	22,393	940,356	555,594
-9,833	22,454	939,865	555,474
-8,819	22,457	939,407	555,191
-7,804	22,357	938,830	554,511
-6,790	22,375	938,070	554,096
-5,775	22,443	937,408	553,899
-4,760	22,383	936,941	553,412
-3,746	22,395	936,240	553,014
-2,731	22,207	935,624	552,033
-1,717	22,156	934,967	551,464
-0,702	22,173	934,242	551,067
0,313	22,050	933,422	551,027
1,327	24,861	931,473	558,669
2,342	34,292	796,181	502,658
3,356	32,069	451,428	281,627
4,371	1,466	293,152	152,400
5,386	-2,935	273,919	138,235
6,400	-4,493	268,113	133,851
7,415	-4,964	265,603	132,154
8,429	-4,768	264,470	131,758
9,444	-4,824	263,671	131,297
10,459	-4,581	262,931	131,138
11,473	-4,908	262,394	130,561
12,488	-4,571	261,690	130,505
13,502	-4,941	261,367	129,998
14,517	-4,815	260,855	129,845
15,531	-4,645	260,594	129,857
16,546	-4,597	260,111	129,647
17,561	-4,840	259,914	129,319
18,575	-4,614	259,537	129,323
19,590	-4,713	259,127	129,018
20,604	-4,676	258,826	128,890
21,619	-4,955	258,555	128,495
22,634	-4,714	258,348	128,596
23,648	-4,834	258,132	128,370
24,663	-4,813	257,685	128,154
25,677	-4,802	257,521	128,071
26,692	-4,652	257,069	127,968
27,707	-4,757	256,902	127,781
28,721	-4,860	256,774	127,614
29,736	-4,795	256,431	127,490
30,750	-4,825	256,181	127,328
31,765	-4,785	255,934	127,229
32,780	-4,688	255,617	127,145
33,794	-4,712	255,486	127,048
34,809	-4,731	255,180	126,868
35,823	-4,899	255,003	126,620
36,838	-4,795	254,525	126,463
37,853	-5,061	254,429	126,171
38,867	-5,011	254,188	126,084
39,882	-4,816	254,064	126,182
40,896	-4,822	253,842	126,055
41,911	-4,936	253,651	125,849
42,926	-4,914	253,436	125,751
43,940	-4,896	253,069	125,573
44,955	-5,112	253,047	125,363
45,969	-5,022	252,723	125,270
46,984	-5,092	252,424	125,050
47,999	-5,408	252,144	124,625
49,013	-5,514	251,855	124,380
50,028	-5,525	251,777	124,321
51,042	-5,574	251,445	124,103
52,057	-5,699	251,147	123,836
53,071	-5,597	250,850	123,767
54,086	-5,552	250,833	123,787
55,101	-5,489	250,752	123,790
56,115	-5,072	250,567	124,047
57,130	-4,887	250,472	124,149
58,144	-4,462	250,266	124,400
59,159	-4,525	250,146	124,276
60,174	-4,604	249,875	124,063
61,188	-4,744	249,657	123,823
62,203	-4,554	249,350	123,823
63,217	-4,693	249,333	123,684
64,232	-4,730	249,218	123,584
65,247	-4,719	248,868	123,409
66,261	-4,577	248,570	123,371
67,276	-4,847	248,391	123,041
68,290	-5,009	248,082	122,739
69,305	-5,115	247,742	122,470
70,320	-5,185	247,649	122,354
71,334	-5,078	247,572	122,395
72,349	-4,592	247,461	122,743
73,363	-4,682	247,263	122,557
74,378	-4,601	247,180	122,573
75,393	-4,484	246,743	122,446
76,407	-4,731	246,487	122,098
77,422	-4,770	246,478	122,050
78,436	-4,565	246,234	122,091
79,451	-4,692	245,948	121,832
80,466	-4,822	245,853	121,664
81,480	-4,809	245,415	121,447
82,495	-5,209	245,456	121,119
83,509	-5,245	245,351	121,027
84,524	-4,915	244,882	121,062
85,539	-5,268	244,874	120,751
86,553	-5,098	244,674	120,784
87,568	-5,062	244,577	120,756
88,582	-5,007	244,345	120,677
89,597	-5,159	244,138	120,436
90,611	-4,898	243,913	120,533
91,626	-4,773	243,875	120,608
92,641	-4,909	243,634	120,364
93,655	-4,848	243,427	120,302
94,670	-4,910	243,336	120,195
95,684	-4,788	243,074	120,156
96,699	-4,785	242,805	120,015
97,714	-4,921	242,558	119,769
98,728	-5,107	242,418	119,535
99,743	-4,992	242,109	119,467
100,757	-5,212	242,014	119,228
101,772	-4,910	241,726	119,325
102,787	-5,048	241,677	119,175
103,801	-5,021	241,457	119,079
104,816	-4,956	241,391	119,090
105,830	-4,732	241,153	119,146
106,845	-4,629	241,039	119,164
107,860	-4,712	240,891	119,012
108,874	-4,892	240,680	118,749
109,889	-5,113	240,536	118,485
110,903	-5,017	240,304	118,440
111,918	-4,949	240,175	118,421
112,933	-4,931	240,094	118,386
113,947	-4,963	239,766	118,187
114,962	-4,735	239,680	118,321
115,976	-4,934	239,551	118,083
116,991	-4,719	239,270	118,110
118,006	-4,967	239,168	117,846
119,020	-4,812	238,987	117,874
120,035	-4,734	238,926	117,897
121,049	-4,808	238,825	117,776
122,064	-4,768	238,533	117,655
123,079	-4,731	238,237	117,528
124,093	-4,931	238,189	117,331
125,108	-4,942	237,923	117,181
126,122	-5,119	237,602	116,869
127,137	-5,446	237,563	116,573
128,151	-5,281	237,382	116,608
129,166	-5,085	237,118	116,627
130,181	-5,020	236,913	116,568
131,195	-5,288	236,730	116,251
132,210	-5,055	236,639	116,384
133,224	-4,722	236,363	116,506
134,239	-4,833	236,356	116,403
135,254	-5,063	236,212	116,136
136,268	-5,170	236,164	116,017
137,283	-5,326	235,690	115,648
138,297	-5,423	235,556	115,493
139,312	-5,372	235,243	115,371
140,327	-4,940	235,260	115,715
141,341	-4,487	235,327	116,102
142,356	-4,632	235,135	115,881
143,370	-4,565	235,030	115,873
144,385	-4,528	234,891	115,823
145,400	-4,671	234,662	115,586
146,414	-4,523	234,544	115,635
147,429	-4,579	234,221	115,421
148,443	-4,542	234,123	115,392
149,458	-4,582	234,105	115,341
150,473	-4,488	233,833	115,271
151,487	-4,640	233,618	115,034
152,502	-4,515	233,444	115,038
153,516	-4,696	233,355	114,839
154,531	-4,459	232,974	114,830
155,546	-4,642	232,852	114,614
156,560	-4,776	232,736	114,441
157,575	-4,777	232,581	114,353
158,589	-4,468	232,219	114,410
159,604	-4,592	232,223	114,304
160,619	-4,537	232,179	114,315
161,633	-4,390	231,950	114,308
162,648	-4,468	231,865	114,195
163,662	-4,637	231,686	113,964
164,677	-4,558	231,362	113,856
165,692	-4,558	231,409	113,869
166,706	-4,205	231,196	114,032
167,721	-4,294	231,041	113,875
168,735	-4,356	230,995	113,793
169,750	-4,373	230,676	113,613
170,764	-4,399	230,679	113,583
171,779	-4,630	230,557	113,332
172,794	-4,385	230,323	113,399
173,808	-4,602	230,149	113,133
174,823	-4,821	229,716	112,739
175,837	-5,203	229,596	112,372
176,852	-4,824	229,452	112,587
177,867	-4,655	229,564	112,764
178,881	-4,630	229,452	112,719
179,896	-4,412	229,136	112,724
180,910	-4,511	229,130	112,633
181,925	-4,450	229,104	112,658
182,940	-4,595	228,866	112,418
183,954	-4,502	228,596	112,348
184,969	-4,496	228,378	112,235
185,983	-4,411	228,423	112,313
186,998	-4,624	228,302	112,079
188,013	-4,177	227,961	112,247
189,027	-4,105	227,776	112,202
190,042	-4,263	227,598	111,982
191,056	-4,427	227,556	111,825
192,071	-4,362	227,395	111,785
193,086	-4,290	227,038	111,656
194,100	-4,427	226,977	111,510
195,115	-4,491	226,648	111,289
196,129	-5,324	226,478	110,555
197,144	-1,815	227,444	113,725
198,159	1,951	228,706	117,263
199,173	4,071	229,168	119,130
200,188	4,390	228,902	119,228
201,202	4,227	228,828	119,053
202,217	4,275	228,785	119,058
203,232	4,720	228,610	119,299
204,246	4,708	228,481	119,212
205,261	4,789	228,398	119,220
206,275	5,049	228,307	119,362
207,290	5,001	228,210	119,264
208,304	4,846	227,883	118,963
209,319	5,023	227,670	118,977
210,334	4,775	227,619	118,749
211,348	4,690	227,197	118,454
212,363	4,132	227,093	117,962
213,377	4,135	226,862	117,833
214,392	3,960	226,731	117,621
215,407	4,020	226,743	117,663
216,421	4,175	226,531	117,660
217,436	3,978	226,465	117,465
218,450	3,658	226,056	116,999
219,465	3,753	225,911	116,986
220,480	3,709	225,845	116,907
221,494	3,927	225,682	116,979
222,509	3,876	225,623	116,899
223,523	3,891	225,355	116,761
224,538	3,884	225,147	116,638
225,553	3,675	225,056	116,421
226,567	4,185	224,975	116,756
227,582	4,381	224,914	116,862
228,596	4,223	224,829	116,689
229,611	4,069	224,609	116,447
230,626	3,920	224,472	116,253
231,640	3,935	224,273	116,151
232,655	4,171	224,072	116,215
233,669	4,457	224,284	116,530
234,684	4,689	224,016	116,555
235,699	4,221	223,844	116,103
236,713	4,021	223,713	115,874
237,728	4,103	223,432	115,780
238,742	3,954	223,173	115,523
239,757	3,862	223,085	115,399
240,772	3,934	222,824	115,307
241,786	3,860	222,739	115,197
242,801	4,137	222,681	115,365
243,815	4,290	222,688	115,473
244,830	4,296	222,520	115,380
245,844	4,234	222,227	115,171
246,859	4,093	222,074	114,976
247,874	4,463	221,993	115,200
248,888	4,307	221,885	115,017
249,903	4,010	221,677	114,678
250,917	4,043	221,548	114,625
251,932	4,066	221,368	114,539
252,947	3,924	221,167	114,320
253,961	3,806	220,975	114,122
254,976	3,985	220,880	114,196
255,990	4,143	220,827	114,276
257,005	4,239	220,652	114,246
258,020	4,085	220,466	114,025
259,034	4,349	220,488	114,223
260,049	4,433	220,288	114,171
261,063	4,110	220,178	113,865
262,078	4,514	220,067	114,095
263,093	4,322	220,037	113,928
264,107	4,258	219,792	113,744
265,122	4,359	219,737	113,780
266,136	4,635	219,461	113,830
267,151	4,453	219,357	113,632
268,166	4,028	219,269	113,263
269,180	3,556	219,002	112,769
270,195	3,851	218,732	112,836
271,209	3,868	218,715	112,830
272,224	4,131	218,504	112,904
273,239	3,846	218,394	112,628
274,253	4,037	218,128	112,620
275,268	3,808	218,082	112,419
276,282	3,652	217,943	112,224
277,297	3,729	217,772	112,182
278,312	3,822	217,705	112,205
279,326	4,070	217,501	112,270
280,341	4,074	217,345	112,183
281,355	3,827	217,360	112,001
282,370	4,108	217,170	112,098
283,384	3,908	216,922	111,815
284,399	3,910	216,678	111,680
285,414	3,572	216,618	111,394
286,428	3,925	216,647	111,655
287,443	4,139	216,621	111,787
288,457	4,192	216,306	111,653
289,472	3,976	216,197	111,430
290,487	3,576	215,909	110,982
291,501	3,635	215,718	110,917
292,516	3,768	215,618	110,951
293,530	3,464	215,595	110,711
294,545	3,484	215,501	110,666
295,560	3,556	215,350	110,631
296,574	4,097	215,146	110,906
297,589	3,882	214,948	110,640
298,603	4,201	214,920	110,845
299,618	4,089	214,713	110,648
300,633	3,898	214,622	110,454
301,647	4,468	214,524	110,803
302,662	4,278	214,405	110,595
303,676	4,307	214,253	110,528
304,691	4,142	214,207	110,376
305,706	4,144	214,009	110,265
306,720	4,346	213,768	110,276
307,735	4,052	213,750	110,046
308,749	4,037	213,494	109,894
309,764	4,241	213,409	109,986
310,779	4,043	213,364	109,812
311,793	4,041	213,146	109,689
312,808	4,187	213,030	109,723
313,822	4,157	212,948	109,649
314,837	3,965	212,800	109,427
315,852	3,931	212,539	109,258
316,866	3,826	212,466	109,137
317,881	4,160	212,396	109,328
318,895	4,162	212,231	109,235
319,910	3,949	212,146	109,030
320,925	3,777	211,896	108,771
321,939	3,401	211,694	108,391
322,954	3,663	211,588	108,512
323,968	4,106	211,393	108,716
324,983	4,280	211,417	108,841
325,997	4,113	211,367	108,688
327,012	4,087	211,143	108,544
328,027	4,222	211,006	108,560
329,041	4,472	210,907	108,675
330,056	4,337	210,901	108,567
331,070	4,031	210,653	108,215
332,085	3,849	210,401	107,947
333,100	3,870	210,286	107,894
334,114	3,873	210,109	107,796
335,129	4,181	209,901	107,895
336,143	3,880	209,908	107,678
337,158	3,923	209,754	107,620
338,173	4,041	209,536	107,580
339,187	3,962	209,446	107,470
340,202	3,738	209,242	107,199
341,216	3,642	209,222	107,112
342,231	3,816	209,082	107,152
343,246	3,805	208,820	107,001
344,260	3,764	208,785	106,945
345,275	3,954	208,783	107,067
346,289	3,867	208,657	106,932
347,304	4,061	208,518	106,986
348,319	3,833	208,343	106,728
349,333	3,783	208,120	106,569
350,348	3,959	208,181	106,714
351,362	4,396	207,954	106,891
352,377	4,108	207,822	106,614
353,392	4,105	207,629	106,503
354,406	4,009	207,586	106,405
355,421	193,998	1343,822	1432,820
356,435	154,774	1482,362	1432,936
