DTS Sentinel unit serial number:	SN410029Multiplexer serial number:	ORYXHardware model number:	OX2-SRSoftware version number:	ORYX F/W v4,00 Oryx Data Collector v3.7.2.0data status	okinstallation	B6 Nyhavnadifferential loss correction	single-endedforward channel	channel 2reverse channel	N/Adate	2023/12/08time	21:50:08forward acquisition time	300,00reverse acquisition time	0,00gamma	499,1914k internal	0,3158k external	0,3158temperature offset calibration	1,0000default loss term (dB/km)	0,3820temperature slope calibration	1,0000multiplexer offset coefficient	1,0000multiplexer slope coefficient	1,0000fibre end	0,00T internal ref (°C)	15,25T ext. ref 1 (°C)	-1,28T ext. ref 2 (°C)	-1,27length (m)	temperature (°C)	Stokes	anti-Stokes-744,400	-163,277	0,215	-0,007
-743,385	-74,320	-0,271	0,072
-742,371	-134,550	0,164	-0,015
-741,356	-125,567	-0,239	0,026
-740,342	-200,000	0,001	-0,042
-739,327	-56,932	-0,140	0,045
-738,312	800,000	0,044	-0,103
-737,298	-175,240	-0,259	-0,005
-736,283	36,208	0,093	-0,060
-735,269	-90,371	-0,253	-0,054
-734,254	-27,151	0,095	0,041
-733,239	-71,839	-0,541	-0,147
-732,225	288,883	0,062	-0,083
-731,210	-89,749	0,004	-0,001
-730,196	82,960	-0,085	0,068
-729,181	527,238	-0,024	-0,041
-728,167	-107,912	-0,109	-0,017
-727,152	64,441	0,040	-0,030
-726,137	800,000	0,047	-0,132
-725,123	-13,748	-0,043	-0,020
-724,108	800,000	0,037	-0,104
-723,094	-9,146	-0,081	0,040
-722,079	-102,498	-0,129	-0,022
-721,064	-123,794	-0,045	-0,005
-720,050	-52,591	0,108	-0,037
-719,035	558,379	-0,017	-0,030
-718,021	-200,000	0,023	-0,139
-717,006	167,719	-0,034	-0,036
-715,991	-200,000	0,018	-0,103
-714,977	526,014	-0,029	-0,050
-713,962	-60,145	-0,097	-0,030
-712,948	-143,298	0,229	0,016
-711,933	-200,000	-0,005	-0,034
-710,918	-200,000	0,009	-0,069
-709,904	800,000	-0,020	0,063
-708,889	83,551	0,106	-0,085
-707,875	-200,000	-0,055	-0,186
-706,860	-2,686	-0,130	-0,066
-705,845	627,774	-0,068	-0,126
-704,831	-144,850	0,112	-0,007
-703,816	800,000	-0,053	0,137
-702,802	-45,065	-0,141	0,051
-701,787	14,247	-0,117	-0,067
-700,772	205,336	-0,024	0,027
-699,758	33,116	0,060	-0,038
-698,743	800,000	0,050	0,132
-697,729	489,295	0,091	0,154
-696,714	6,009	0,071	-0,039
-695,699	-200,000	-0,046	-0,200
-694,685	86,192	0,091	0,074
-693,670	-25,824	-0,083	0,036
-692,656	-113,416	0,139	0,020
-691,641	-77,010	-0,044	0,011
-690,627	-190,181	0,050	-0,000
-689,612	-72,573	-0,081	-0,022
-688,597	-1,014	0,030	-0,016
-687,583	-49,965	-0,142	-0,049
-686,568	-200,000	0,002	0,139
-685,554	131,566	-0,119	0,113
-684,539	-143,226	-0,032	0,002
-683,524	323,425	-0,010	0,014
-682,510	-45,577	0,039	-0,014
-681,495	498,956	-0,053	-0,090
-680,481	513,681	-0,086	-0,148
-679,466	172,037	-0,110	0,117
-678,451	780,572	-0,084	-0,171
-677,437	-110,317	0,126	0,019
-676,422	800,000	-0,043	-0,093
-675,408	-200,000	-0,049	-0,218
-674,393	-200,000	0,001	-0,085
-673,378	800,000	-0,063	0,134
-672,364	-54,606	-0,084	0,028
-671,349	-200,000	0,019	-0,063
-670,335	1,020	0,085	0,044
-669,320	-54,078	0,049	-0,016
-668,305	800,000	0,025	0,058
-667,291	178,718	-0,073	-0,078
-666,276	-38,089	-0,052	-0,020
-665,262	-200,000	-0,031	-0,179
-664,247	-200,000	0,054	-0,181
-663,232	800,000	0,008	-0,023
-662,218	25,381	0,139	0,085
-661,203	-200,000	-0,007	-0,155
-660,189	-64,534	0,072	0,021
-659,174	-104,323	0,026	0,004
-658,159	-103,098	-0,056	-0,010
-657,145	13,525	-0,106	0,060
-656,130	25,483	0,046	0,028
-655,116	-63,806	-0,101	0,030
-654,101	-200,000	0,004	-0,116
-653,086	-93,969	-0,025	-0,005
-652,072	146,691	-0,079	0,078
-651,057	-200,000	0,000	-0,032
-650,043	-36,051	-0,067	-0,026
-649,028	423,755	0,025	-0,039
-648,014	-200,000	0,016	0,072
-646,999	-200,000	0,019	-0,178
-645,984	80,224	0,079	-0,062
-644,970	-200,000	0,046	-0,174
-643,955	-200,000	-0,020	0,095
-642,941	-200,000	-0,004	-0,102
-641,926	-200,000	-0,000	-0,043
-640,911	-200,000	0,012	-0,096
-639,897	99,693	-0,037	0,031
-638,882	127,313	-0,047	-0,044
-637,868	800,000	-0,011	0,036
-636,853	-85,786	-0,111	0,025
-635,838	-21,109	-0,143	0,064
-634,824	168,259	0,029	-0,031
-633,809	-200,000	0,019	-0,156
-632,795	554,400	0,048	-0,084
-631,780	-58,436	-0,148	-0,047
-630,765	800,000	-0,057	-0,122
-629,751	-118,916	-0,106	0,014
-628,736	-20,561	-0,080	-0,036
-627,722	780,767	0,030	0,060
-626,707	-45,251	0,108	0,039
-625,692	-152,419	-0,130	0,007
-624,678	-200,000	-0,010	0,036
-623,663	383,615	0,057	-0,087
-622,649	800,000	-0,059	0,128
-621,634	-137,753	-0,031	-0,003
-620,619	-200,000	0,019	0,116
-619,605	-200,000	0,031	-0,123
-618,590	-200,000	-0,009	-0,185
-617,576	134,352	0,043	0,041
-616,561	87,797	-0,121	-0,098
-615,546	-30,389	0,071	0,030
-614,532	462,279	-0,062	-0,102
-613,517	-200,000	-0,017	-0,071
-612,503	19,187	0,103	0,060
-611,488	-200,000	0,024	0,095
-610,474	-200,000	0,012	0,192
-609,459	730,490	-0,053	0,105
-608,444	-200,000	-0,000	-0,163
-607,430	800,000	-0,035	-0,083
-606,415	-200,000	0,019	-0,178
-605,401	-139,048	-0,111	-0,009
-604,386	-14,056	-0,076	-0,036
-603,371	-200,000	0,007	0,054
-602,357	1,471	-0,133	0,070
-601,342	-136,620	-0,033	0,003
-600,328	-200,000	0,009	0,042
-599,313	800,000	0,029	-0,072
-598,298	-61,875	-0,033	-0,010
-597,284	288,914	-0,066	0,088
-596,269	-71,779	0,038	-0,010
-595,255	-200,000	0,007	0,026
-594,240	206,276	-0,048	-0,055
-593,225	-58,587	0,062	-0,020
-592,211	-105,390	-0,070	0,012
-591,196	357,030	0,056	-0,082
-590,182	-200,000	0,002	-0,079
-589,167	-200,000	0,001	0,062
-588,152	-81,447	0,114	0,027
-587,138	-76,382	0,103	0,026
-586,123	-200,000	0,016	-0,186
-585,109	-200,000	0,007	-0,057
-584,094	179,284	0,095	0,102
-583,079	348,303	0,118	0,170
-582,065	127,145	0,030	0,028
-581,050	-200,000	0,003	0,031
-580,036	-116,195	-0,048	0,006
-579,021	-200,000	0,009	-0,094
-578,006	-101,941	-0,068	-0,012
-576,992	-200,000	0,006	0,037
-575,977	-200,000	-0,006	0,216
-574,963	20,697	0,090	0,053
-573,948	91,993	-0,027	0,023
-572,934	-75,230	-0,110	0,029
-571,919	140,644	-0,035	-0,034
-570,904	800,000	-0,010	-0,030
-569,890	-86,109	0,105	-0,023
-568,875	35,152	-0,086	0,055
-567,861	800,000	-0,055	0,124
-566,846	145,120	-0,092	0,090
-565,831	-200,000	0,012	0,046
-564,817	-179,802	-0,157	0,002
-563,802	800,000	-0,018	0,057
-562,788	16,052	0,118	0,068
-561,773	800,000	-0,017	0,041
-560,758	739,707	0,030	0,059
-559,744	-93,748	0,124	-0,025
-558,729	-200,000	-0,024	-0,078
-557,715	640,975	-0,045	-0,083
-556,700	17,961	-0,118	-0,068
-555,685	-107,290	0,113	-0,018
-554,671	77,270	-0,036	0,028
-553,656	-200,000	-0,010	0,120
-552,642	203,425	-0,016	0,018
-551,627	-181,753	0,054	0,001
-550,612	290,291	0,058	-0,077
-549,598	-200,000	-0,003	-0,012
-548,583	-200,000	-0,002	-0,102
-547,569	800,000	-0,006	-0,013
-546,554	-78,377	0,141	0,035
-545,539	225,278	0,080	0,094
-544,525	-4,474	0,036	-0,018
-543,510	-200,000	-0,017	-0,149
-542,496	38,761	-0,052	0,034
-541,481	-129,471	-0,079	0,008
-540,466	-104,819	0,066	-0,011
-539,452	194,107	0,063	0,070
-538,437	-123,063	0,022	-0,003
-537,423	-200,000	-0,012	0,049
-536,408	135,537	-0,037	-0,036
-535,393	12,154	-0,131	-0,074
-534,379	-200,000	-0,026	-0,158
-533,364	99,005	-0,061	-0,052
-532,350	7,771	0,087	-0,048
-531,335	176,536	0,064	-0,068
-530,321	-200,000	-0,021	0,169
-529,306	-163,162	0,069	0,002
-528,291	-200,000	-0,007	-0,135
-527,277	54,523	0,029	-0,020
-526,262	-98,317	-0,102	-0,019
-525,248	800,000	0,039	-0,094
-524,233	-200,000	-0,017	-0,123
-523,218	-200,000	-0,053	-0,000
-522,204	800,000	0,018	0,044
-521,189	-200,000	-0,012	-0,091
-520,175	82,835	-0,179	-0,142
-519,160	-76,390	0,067	0,017
-518,145	-95,081	0,075	-0,015
-517,131	800,000	-0,015	-0,038
-516,116	-28,828	-0,048	-0,020
-515,102	-113,946	-0,043	0,006
-514,087	0,439	0,009	-0,005
-513,072	800,000	-0,026	-0,066
-512,058	800,000	0,028	0,058
-511,043	49,318	0,066	0,045
-510,029	-93,377	0,099	-0,020
-509,014	800,000	0,043	0,108
-507,999	-18,542	0,072	0,033
-506,985	-200,000	0,057	0,191
-505,970	503,163	-0,113	0,192
-504,956	250,686	0,009	0,011
-503,941	382,583	-0,047	-0,070
-502,926	427,838	0,071	-0,112
-501,912	-98,158	0,071	0,013
-500,897	800,000	0,028	-0,071
-499,883	-116,239	-0,048	0,006
-498,868	-17,775	-0,188	-0,086
-497,853	75,561	-0,117	-0,090
-496,839	-105,687	0,070	-0,011
-495,824	211,452	0,075	0,086
-494,810	-34,291	0,046	0,018
-493,795	76,015	0,025	0,019
-492,781	-200,000	-0,045	-0,207
-491,766	339,303	0,047	-0,067
-490,751	-200,000	0,010	-0,057
-489,737	198,428	0,064	0,071
-488,722	38,767	-0,043	0,028
-487,708	152,745	0,081	0,081
-486,693	4,863	0,079	0,042
-485,678	-123,811	0,097	0,011
-484,664	-200,000	0,012	0,096
-483,649	1,306	-0,112	-0,058
-482,635	774,082	-0,031	-0,062
-481,620	-200,000	0,140	0,000
-480,605	497,634	-0,053	0,089
-479,591	489,437	0,073	-0,122
-478,576	-118,857	-0,102	-0,013
-477,562	-103,143	-0,046	0,008
-476,547	-72,861	-0,120	-0,032
-475,532	-200,000	0,034	-0,124
-474,518	42,050	0,053	0,035
-473,503	745,187	0,047	-0,093
-472,489	-5,290	-0,094	0,047
-471,474	-200,000	-0,004	-0,105
-470,459	-61,627	-0,093	0,028
-469,445	294,164	0,030	0,041
-468,430	66,668	-0,061	-0,046
-467,416	-186,826	0,116	-0,001
-466,401	-200,000	-0,022	0,090
-465,386	56,203	-0,095	0,067
-464,372	464,454	-0,012	0,019
-463,357	800,000	-0,032	0,080
-462,343	800,000	0,034	-0,079
-461,328	-200,000	-0,036	-0,240
-460,313	435,491	-0,089	-0,141
-459,299	-200,000	0,018	-0,100
-458,284	800,000	0,002	-0,006
-457,270	-79,713	0,066	0,016
-456,255	-26,416	0,089	-0,038
-455,241	800,000	-0,022	0,055
-454,226	-200,000	-0,009	0,086
-453,211	-200,000	-0,012	0,095
-452,197	-200,000	-0,006	0,075
-451,182	346,359	0,009	0,013
-450,168	496,909	-0,020	-0,033
-449,153	-200,000	-0,009	0,114
-448,138	-200,000	0,003	-0,100
-447,124	-8,397	-0,060	-0,029
-446,109	800,000	0,035	-0,103
-445,095	-200,000	0,004	0,108
-444,080	195,783	-0,056	0,062
-443,065	-88,483	-0,038	0,008
-442,051	-64,324	-0,045	0,013
-441,036	-18,551	-0,214	-0,097
-440,022	800,000	0,040	-0,090
-439,007	-200,000	0,030	0,127
-437,992	163,275	-0,028	0,029
-436,978	594,593	0,050	-0,090
-435,963	-153,761	-0,048	0,002
-434,949	-60,052	-0,034	0,011
-433,934	226,726	0,083	0,099
-432,919	-96,080	0,130	0,025
-431,905	-55,856	-0,078	0,025
-430,890	-200,000	-0,011	-0,043
-429,876	800,000	-0,035	0,075
-428,861	-103,455	-0,086	-0,015
-427,846	87,193	0,100	0,080
-426,832	-200,000	-0,022	-0,086
-425,817	-88,304	-0,051	0,011
-424,803	173,569	-0,032	-0,034
-423,788	-76,708	0,133	0,034
-422,773	-200,000	-0,008	-0,101
-421,759	184,530	0,022	0,024
-420,744	-56,044	0,095	0,031
-419,730	-90,546	0,051	-0,011
-418,715	75,396	0,099	-0,076
-417,701	800,000	0,041	-0,084
-416,686	-37,492	-0,065	0,025
-415,671	758,638	-0,058	0,114
-414,657	175,158	0,044	0,047
-413,642	244,749	0,004	0,005
-412,628	-166,294	-0,174	0,005
-411,613	-200,000	0,011	0,077
-410,598	-4,229	-0,037	0,019
-409,584	-49,753	0,088	-0,030
-408,569	800,000	0,060	-0,122
-407,555	-200,000	-0,003	0,025
-406,540	-200,000	0,000	-0,096
-405,525	486,047	-0,062	0,104
-404,511	57,039	0,044	-0,031
-403,496	-78,470	-0,080	-0,020
-402,482	-200,000	0,025	0,132
-401,467	-72,018	0,085	0,023
-400,452	51,203	-0,030	0,020
-399,438	-200,000	-0,014	0,048
-398,423	190,127	-0,122	0,133
-397,409	143,113	-0,015	0,015
-396,394	464,352	-0,039	-0,064
-395,379	67,678	0,042	0,031
-394,365	-176,892	-0,100	-0,002
-393,350	-200,000	-0,043	0,219
-392,336	6,774	0,065	0,035
-391,321	800,000	0,010	-0,022
-390,306	-43,875	-0,030	-0,011
-389,292	-200,000	0,013	-0,081
-388,277	-200,000	-0,025	0,086
-387,263	-100,875	0,154	-0,027
-386,248	-175,147	0,062	0,001
-385,233	360,879	-0,080	-0,117
-384,219	-200,000	-0,005	-0,104
-383,204	800,000	0,039	0,100
-382,190	126,963	-0,043	0,039
-381,175	-200,000	-0,011	0,113
-380,160	0,815	0,140	0,073
-379,146	92,392	-0,043	-0,035
-378,131	203,253	-0,018	-0,020
-377,117	-200,000	0,012	0,076
-376,102	192,587	-0,054	-0,059
-375,088	319,661	-0,023	-0,032
-374,073	23,120	-0,139	-0,082
-373,058	-200,000	0,007	0,100
-372,044	800,000	0,058	0,149
-371,029	-200,000	-0,019	-0,091
-370,015	-151,290	-0,117	-0,006
-369,000	46,945	-0,080	-0,054
-367,985	-91,950	-0,152	0,031
-366,971	-46,063	0,057	0,020
-365,956	-200,000	0,006	-0,034
-364,942	-106,445	0,107	0,017
-363,927	800,000	-0,024	-0,075
-362,912	206,756	-0,035	0,040
-361,898	285,883	-0,062	0,082
-360,883	10,153	0,230	0,126
-359,869	-75,217	-0,087	0,022
-358,854	-41,370	-0,148	0,055
-357,839	101,570	0,055	-0,046
-356,825	-120,459	0,134	0,016
-355,810	-95,050	-0,114	0,022
-354,796	-118,800	-0,079	0,010
-353,781	-200,000	0,012	-0,058
-352,766	60,902	-0,071	-0,051
-351,752	-37,070	0,132	-0,051
-350,737	270,042	0,070	0,090
-349,723	800,000	0,039	0,108
-348,708	356,528	-0,061	-0,088
-347,693	222,213	-0,083	-0,098
-346,679	-200,000	-0,017	0,067
-345,664	441,632	0,026	0,041
-344,650	-200,000	0,005	0,071
-343,635	540,572	0,047	0,081
-342,620	-105,758	-0,114	-0,018
-341,606	72,322	0,080	0,061
-340,591	-126,579	-0,054	0,006
-339,577	-200,000	-0,043	0,143
-338,562	-62,314	-0,122	0,036
-337,548	46,760	0,077	-0,052
-336,533	-200,000	-0,004	-0,053
-335,518	-200,000	0,005	0,109
-334,504	126,829	-0,071	0,065
-333,489	-6,796	-0,101	0,050
-332,475	299,502	-0,069	-0,093
-331,460	66,838	0,079	-0,058
-330,445	-107,716	0,065	0,010
-329,431	-24,785	0,106	-0,045
-328,416	-69,898	0,168	0,046
-327,402	178,333	0,032	0,034
-326,387	-49,413	-0,065	0,022
-325,372	88,984	-0,066	-0,053
-324,358	-91,514	0,047	-0,010
-323,343	-200,000	-0,002	0,064
-322,329	-200,000	0,012	0,000
-321,314	306,233	0,015	0,021
-320,299	-200,000	0,010	0,090
-319,285	-35,094	-0,083	0,033
-318,270	-69,519	-0,023	0,006
-317,256	-83,735	0,214	0,049
-316,241	-1,944	-0,085	-0,043
-315,226	-113,100	-0,055	-0,008
-314,212	-5,834	0,138	0,068
-313,197	69,404	-0,056	0,041
-312,183	-200,000	0,020	-0,118
-311,168	-33,380	0,039	0,015
-310,153	-77,620	-0,156	0,039
-309,139	-15,522	0,062	-0,028
-308,124	98,110	-0,093	-0,077
-307,110	-83,005	0,163	-0,038
-306,095	-200,000	0,020	0,169
-305,080	101,503	0,072	0,061
-304,066	146,405	0,023	0,022
-303,051	-13,392	0,101	-0,047
-302,037	756,204	0,032	-0,064
-301,022	-200,000	0,008	-0,042
-300,008	-200,000	-0,001	0,020
-298,993	352,851	0,044	0,064
-297,978	407,827	0,017	-0,026
-296,964	85,424	-0,076	0,060
-295,949	-66,595	0,035	0,010
-294,935	429,297	0,057	-0,089
-293,920	35,856	-0,023	-0,015
-292,905	26,782	-0,070	0,043
-291,891	-85,955	0,040	0,009
-290,876	-200,000	0,003	-0,073
-289,862	-200,000	0,001	0,009
-288,847	303,931	-0,060	0,081
-287,832	-30,614	-0,043	-0,018
-286,818	-131,737	-0,027	0,003
-285,803	-82,106	0,083	-0,020
-284,789	27,344	0,122	0,074
-283,774	800,000	-0,021	0,052
-282,759	-200,000	0,002	0,009
-281,745	257,535	0,099	-0,123
-280,730	-200,000	-0,017	-0,097
-279,716	800,000	0,061	-0,159
-278,701	-200,000	-0,020	0,085
-277,686	86,860	0,070	0,056
-276,672	50,150	0,031	0,021
-275,657	-200,000	-0,003	0,063
-274,643	800,000	0,007	0,023
-273,628	-200,000	0,000	-0,070
-272,613	81,632	-0,049	-0,039
-271,599	-98,709	-0,046	-0,008
-270,584	216,612	0,068	-0,079
-269,570	78,820	0,017	-0,013
-268,555	-95,685	-0,066	-0,013
-267,540	-200,000	-0,009	0,046
-266,526	407,081	0,014	0,021
-265,511	-100,557	-0,031	-0,006
-264,497	-81,666	0,112	0,026
-263,482	719,082	-0,006	0,012
-262,467	-88,826	0,144	0,031
-261,453	-200,000	-0,026	-0,090
-260,438	-37,074	-0,072	-0,028
-259,424	800,000	-0,043	0,126
-258,409	-200,000	-0,013	-0,054
-257,395	-53,888	-0,040	-0,013
-256,380	-126,070	0,080	-0,009
-255,365	384,687	0,079	0,117
-254,351	-149,490	-0,089	0,005
-253,336	110,753	-0,075	-0,065
-252,322	207,653	-0,153	-0,173
-251,307	-13,655	0,031	-0,014
-250,292	34,778	0,070	0,044
-249,278	93,604	0,212	0,173
-248,263	116,954	-0,130	0,116
-247,249	119,705	-0,133	-0,119
-246,234	11,985	0,070	-0,039
-245,219	800,000	-0,052	-0,138
-244,205	-91,578	0,064	-0,013
-243,190	119,227	0,043	0,038
-242,176	-9,275	0,039	-0,019
-241,161	6,512	0,033	-0,018
-240,146	31,314	0,060	0,037
-239,132	-200,000	-0,019	0,076
-238,117	-200,000	0,012	-0,049
-237,103	-200,000	0,013	-0,045
-236,088	-200,000	0,007	-0,085
-235,073	78,628	-0,011	0,009
-234,059	162,627	-0,044	0,045
-233,044	800,000	-0,063	-0,140
-232,030	-108,062	-0,057	-0,009
-231,015	-200,000	-0,035	-0,155
-230,000	-200,000	0,023	-0,178
-228,986	-6,524	-0,038	0,019
-227,971	257,969	-0,058	-0,073
-226,957	-88,930	0,181	0,038
-225,942	-94,152	0,059	-0,012
-224,927	-200,000	0,006	-0,032
-223,913	-200,000	-0,091	0,000
-222,898	-139,783	-0,109	-0,008
-221,884	-62,419	0,083	0,025
-220,869	362,001	-0,049	0,072
-219,855	-200,000	-0,043	0,186
-218,840	73,069	0,082	-0,062
-217,825	733,510	0,020	-0,039
-216,811	-120,872	-0,139	0,017
-215,796	190,523	-0,030	-0,033
-214,782	-20,525	-0,039	0,017
-213,767	800,000	0,032	0,085
-212,752	-108,699	0,174	0,027
-211,738	-200,000	0,011	0,056
-210,723	800,000	0,018	0,055
-209,709	-200,000	-0,009	-0,042
-208,694	474,625	-0,039	-0,064
-207,679	335,820	0,075	-0,105
-206,665	-103,930	0,083	0,014
-205,650	126,507	0,025	-0,023
-204,636	114,975	0,083	0,073
-203,621	183,419	-0,026	0,027
-202,606	357,916	-0,041	0,059
-201,592	-200,000	-0,010	-0,034
-200,577	256,246	-0,028	-0,034
-199,563	-200,000	0,016	-0,075
-198,548	295,101	0,035	0,047
-197,533	-200,000	0,011	-0,035
-196,519	-200,000	-0,004	-0,134
-195,504	-120,248	-0,080	0,010
-194,490	61,258	0,074	0,053
-193,475	-117,592	0,126	-0,016
-192,460	20,345	0,029	0,017
-191,446	130,337	-0,066	0,061
-190,431	335,194	0,094	0,132
-189,417	-19,903	0,085	-0,038
-188,402	474,329	-0,085	0,140
-187,387	143,262	-0,057	0,055
-186,373	204,330	-0,047	-0,052
-185,358	800,000	0,036	0,102
-184,344	-20,033	0,058	0,026
-183,329	-200,000	-0,000	0,175
-182,315	-61,447	0,069	0,021
-181,300	-200,000	0,001	0,095
-180,285	556,948	-0,033	0,057
-179,271	800,000	0,019	-0,059
-178,256	-13,332	-0,012	-0,005
-177,242	85,063	0,113	0,089
-176,227	-106,829	0,077	-0,012
-175,212	-99,155	0,073	-0,013
-174,198	-69,855	-0,028	0,008
-173,183	-25,932	-0,128	0,054
-172,169	-41,764	-0,071	-0,026
-171,154	18,864	-0,078	-0,045
-170,139	194,114	-0,048	-0,052
-169,125	329,753	0,080	0,111
-168,110	382,419	-0,042	0,063
-167,096	82,723	-0,026	-0,020
-166,081	6,096	-0,033	-0,017
-165,066	590,297	-0,046	-0,082
-164,052	-103,053	0,072	0,012
-163,037	-200,000	-0,008	-0,068
-162,023	607,784	0,046	0,082
-161,008	124,933	-0,063	0,057
-159,993	-14,954	0,036	0,017
-158,979	-117,763	-0,030	-0,004
-157,964	-200,000	-0,007	-0,071
-156,950	800,000	0,042	-0,106
-155,935	-200,000	-0,004	-0,041
-154,920	-176,492	0,067	0,001
-153,906	-66,658	0,020	0,006
-152,891	-200,000	-0,000	0,043
-151,877	-200,000	-0,014	-0,061
-150,862	-200,000	0,009	-0,047
-149,847	800,000	-0,046	0,105
-148,833	-63,371	-0,081	-0,024
-147,818	4,512	-0,067	0,035
-146,804	-31,315	0,046	-0,019
-145,789	-74,014	0,201	0,052
-144,775	800,000	0,005	-0,013
-143,760	-200,000	-0,045	-0,197
-142,745	281,991	0,015	-0,020
-141,731	738,409	-0,082	-0,160
-140,716	92,127	0,033	-0,027
-139,702	800,000	0,050	0,121
-138,687	-200,000	0,006	0,035
-137,672	-200,000	-0,003	-0,060
-136,658	-45,393	0,080	-0,028
-135,643	-200,000	-0,010	-0,079
-134,629	-73,616	0,188	-0,049
-133,614	-103,129	0,043	0,007
-132,599	800,000	-0,039	-0,092
-131,585	45,482	0,042	-0,028
-130,570	-200,000	-0,002	-0,136
-129,556	237,719	-0,075	-0,090
-128,541	-200,000	-0,016	0,061
-127,526	800,000	-0,062	-0,136
-126,512	800,000	0,043	0,099
-125,497	-103,380	-0,060	-0,010
-124,483	-91,288	0,060	-0,012
-123,468	527,630	-0,031	-0,053
-122,453	40,255	-0,146	-0,095
-121,439	-200,000	0,015	-0,102
-120,424	800,000	-0,011	-0,030
-119,410	425,365	-0,059	0,091
-118,395	-144,421	0,118	-0,008
-117,380	-146,004	0,104	-0,006
-116,366	652,937	0,006	-0,012
-115,351	180,443	-0,041	0,043
-114,337	-149,808	0,116	0,006
-113,322	568,067	-0,048	-0,084
-112,307	345,764	0,080	0,114
-111,293	277,628	-0,086	0,110
-110,278	85,214	0,080	0,063
-109,264	53,645	0,123	-0,085
-108,249	-30,615	0,053	0,022
-107,234	-124,597	-0,035	-0,004
-106,220	115,052	-0,042	-0,037
-105,205	219,579	-0,092	0,106
-104,191	-141,760	0,058	0,004
-103,176	-151,941	0,090	-0,005
-102,162	-158,104	-0,217	0,009
-101,147	800,000	0,050	0,130
-100,132	800,000	-0,038	-0,111
-99,118	-200,000	-0,024	-0,125
-98,103	-200,000	0,003	0,102
-97,089	-200,000	0,006	0,057
-96,074	800,000	0,048	-0,098
-95,059	274,407	-0,098	-0,125
-94,045	552,810	-0,018	0,031
-93,030	345,651	-0,086	0,121
-92,016	800,000	0,042	-0,126
-91,001	-106,710	0,118	-0,019
-89,986	-200,000	-0,015	-0,078
-88,972	158,615	0,046	0,046
-87,957	183,855	-0,022	0,023
-86,943	117,099	0,064	0,057
-85,928	80,949	-0,087	0,067
-84,913	-119,722	0,037	-0,005
-83,899	95,471	-0,045	-0,036
-82,884	274,108	0,055	-0,070
-81,870	800,000	0,054	-0,141
-80,855	621,344	0,062	0,112
-79,840	-200,000	0,007	0,122
-78,826	-10,072	-0,101	0,048
-77,811	406,084	0,018	-0,028
-76,797	331,648	0,067	-0,093
-75,782	-136,892	0,113	0,009
-74,767	-200,000	0,015	0,188
-73,753	76,624	-0,024	-0,018
-72,738	800,000	0,031	0,078
-71,724	2,105	-0,155	-0,080
-70,709	616,848	-0,025	-0,046
-69,694	527,228	0,104	0,177
-68,680	-200,000	-0,023	0,082
-67,665	-15,973	0,059	-0,027
-66,651	-83,361	-0,014	0,003
-65,636	-200,000	0,020	-0,068
-64,622	117,390	0,057	0,050
-63,607	-69,990	-0,163	-0,044
-62,592	548,775	0,049	0,085
-61,578	-38,445	0,066	-0,025
-60,563	-117,397	-0,055	-0,007
-59,549	-147,202	0,029	0,002
-58,534	5,501	-2,107	-1,113
-57,519	-200,000	-0,157	-0,867
-56,505	-200,000	-1,210	-5,001
-55,490	55,308	0,765	0,530
-54,476	800,000	5,317	11,776
-53,461	-200,000	17,929	290,262
-52,446	800,000	726,166	2231,005
-51,432	537,233	1639,288	2805,204
-50,417	109,802	1629,561	1402,064
-49,403	73,358	1283,467	962,771
-48,388	31,597	1026,199	631,851
-47,373	19,959	988,275	570,161
-46,359	18,340	976,219	557,883
-45,344	15,601	972,359	546,699
-44,330	15,767	970,951	546,430
-43,315	15,337	969,072	543,946
-42,300	15,207	968,176	542,999
-41,286	15,261	967,098	542,549
-40,271	15,236	966,074	541,870
-39,257	15,271	965,250	541,502
-38,242	15,297	964,286	541,024
-37,227	15,348	963,391	540,665
-36,213	15,226	962,707	539,864
-35,198	15,221	961,847	539,346
-34,184	15,333	961,099	539,267
-33,169	15,268	959,983	538,410
-32,154	15,300	959,053	537,970
-31,140	15,285	958,305	537,479
-30,125	15,266	957,766	537,096
-29,111	15,334	956,681	536,684
-28,096	15,325	956,145	536,333
-27,082	15,324	955,302	535,837
-26,067	15,325	954,514	535,375
-25,052	15,269	953,905	534,832
-24,038	15,246	953,315	534,406
-23,023	15,263	952,569	534,021
-22,009	15,305	951,845	533,730
-20,994	15,331	951,151	533,403
-19,979	15,298	950,823	533,092
-18,965	15,297	949,961	532,586
-17,950	15,293	949,423	532,250
-16,936	15,140	948,925	531,460
-15,921	15,223	948,271	531,338
-14,906	15,166	947,359	530,622
-13,892	15,209	946,702	530,372
-12,877	15,159	946,004	529,801
-11,863	15,127	945,539	529,417
-10,848	15,144	945,123	529,219
-9,833	15,252	944,690	529,298
-8,819	15,215	943,902	528,716
-7,804	15,202	943,406	528,378
-6,790	15,188	942,716	527,924
-5,775	15,208	942,095	527,619
-4,760	15,188	941,541	527,225
-3,746	15,227	940,843	526,937
-2,731	15,069	940,112	526,008
-1,717	15,004	939,540	525,459
-0,702	15,043	938,902	525,206
0,313	14,811	938,502	525,042
1,327	18,191	936,336	534,425
2,342	27,428	789,984	475,229
3,356	24,048	444,434	262,331
4,371	-5,458	294,943	144,657
5,386	-9,429	276,694	131,937
6,400	-10,730	270,968	127,988
7,415	-10,985	268,777	126,707
8,429	-11,031	267,253	125,936
9,444	-11,103	266,329	125,423
10,459	-11,058	265,813	125,210
11,473	-10,903	265,112	125,009
12,488	-11,053	264,684	124,660
13,502	-11,179	264,108	124,264
14,517	-11,317	263,700	123,937
15,531	-11,235	263,291	123,807
16,546	-11,055	262,846	123,748
17,561	-11,347	262,522	123,323
18,575	-11,062	262,205	123,419
19,590	-11,163	261,791	123,122
20,604	-11,103	261,478	123,018
21,619	-11,282	261,137	122,686
22,634	-11,295	260,905	122,556
23,648	-11,205	260,588	122,475
24,663	-11,109	260,283	122,407
25,677	-11,082	259,958	122,267
26,692	-11,250	259,831	122,047
27,707	-11,226	259,599	121,948
28,721	-11,358	259,201	121,634
29,736	-11,396	259,161	121,570
30,750	-11,324	258,791	121,450
31,765	-11,242	258,480	121,366
32,780	-11,175	258,248	121,305
33,794	-11,189	257,927	121,131
34,809	-11,131	257,663	121,047
35,823	-11,420	257,511	120,710
36,838	-11,258	257,198	120,695
37,853	-11,392	257,116	120,528
38,867	-11,536	256,788	120,238
39,882	-11,385	256,588	120,266
40,896	-11,485	256,235	120,002
41,911	-11,332	255,979	120,005
42,926	-11,369	255,865	119,909
43,940	-11,622	255,639	119,572
44,955	-11,522	255,406	119,538
45,969	-11,449	255,257	119,522
46,984	-11,771	254,916	119,072
47,999	-11,997	254,765	118,795
49,013	-12,085	254,510	118,588
50,028	-12,062	254,038	118,377
51,042	-12,295	253,926	118,113
52,057	-12,410	253,695	117,896
53,071	-12,357	253,560	117,867
54,086	-12,190	253,311	117,886
55,101	-11,903	253,110	118,029
56,115	-11,800	253,041	118,075
57,130	-11,403	252,883	118,334
58,144	-11,221	252,717	118,403
59,159	-11,160	252,475	118,331
60,174	-11,001	252,325	118,387
61,188	-10,973	252,103	118,297
62,203	-11,134	251,799	118,005
63,217	-11,221	251,750	117,896
64,232	-11,113	251,577	117,898
65,247	-11,172	251,229	117,674
66,261	-11,303	251,129	117,504
67,276	-11,341	250,662	117,243
68,290	-11,623	250,543	116,936
69,305	-11,699	250,235	116,717
70,320	-11,742	250,033	116,576
71,334	-11,609	249,996	116,661
72,349	-11,172	249,818	116,940
73,363	-10,988	249,731	117,045
74,378	-11,122	249,412	116,771
75,393	-11,068	249,159	116,688
76,407	-11,422	249,101	116,351
77,422	-11,297	248,811	116,311
78,436	-11,182	248,543	116,273
79,451	-11,211	248,346	116,145
80,466	-11,426	248,159	115,866
81,480	-11,452	247,899	115,712
82,495	-11,643	247,687	115,442
83,509	-11,622	247,521	115,372
84,524	-11,615	247,296	115,263
85,539	-11,678	246,979	115,052
86,553	-11,748	246,820	114,909
87,568	-11,505	246,793	115,090
88,582	-11,414	246,536	115,036
89,597	-11,634	246,457	114,805
90,611	-11,653	246,233	114,674
91,626	-11,477	246,062	114,732
92,641	-11,248	245,845	114,811
93,655	-11,453	245,674	114,550
94,670	-11,581	245,458	114,332
95,684	-11,484	245,189	114,278
96,699	-11,428	245,003	114,228
97,714	-11,520	244,913	114,099
98,728	-11,561	244,574	113,897
99,743	-11,593	244,357	113,759
100,757	-11,817	244,188	113,484
101,772	-11,594	243,934	113,541
102,787	-11,678	243,954	113,470
103,801	-11,433	243,737	113,563
104,816	-11,261	243,543	113,604
105,830	-11,526	243,495	113,352
106,845	-11,353	243,349	113,417
107,860	-11,233	243,038	113,361
108,874	-11,382	242,858	113,144
109,889	-11,374	242,615	113,027
110,903	-11,592	242,311	112,697
111,918	-11,640	242,283	112,634
112,933	-11,583	242,166	112,617
113,947	-11,387	241,989	112,685
114,962	-11,336	241,868	112,660
115,976	-11,429	241,611	112,455
116,991	-11,296	241,549	112,525
118,006	-11,295	241,200	112,353
119,020	-11,306	241,073	112,274
120,035	-11,440	240,913	112,080
121,049	-11,147	240,862	112,286
122,064	-11,265	240,580	112,048
123,079	-11,483	240,445	111,798
124,093	-11,604	240,167	111,560
125,108	-11,741	239,907	111,318
126,122	-11,822	239,634	111,116
127,137	-11,792	239,352	110,999
128,151	-11,686	239,315	111,058
129,166	-11,698	239,195	110,983
130,181	-11,797	239,134	110,864
131,195	-11,766	238,779	110,715
132,210	-11,635	238,748	110,797
133,224	-11,348	238,516	110,911
134,239	-11,456	238,450	110,783
135,254	-11,378	238,348	110,788
136,268	-11,745	237,952	110,299
137,283	-11,770	237,682	110,144
138,297	-11,791	237,575	110,068
139,312	-11,740	237,056	109,858
140,327	-11,498	237,228	110,123
141,341	-11,039	237,225	110,480
142,356	-11,086	237,167	110,405
143,370	-10,991	236,912	110,353
144,385	-11,013	236,895	110,317
145,400	-11,039	236,594	110,147
146,414	-11,129	236,436	109,991
147,429	-11,025	236,256	109,981
148,443	-10,989	235,923	109,845
149,458	-11,146	236,030	109,760
150,473	-11,025	235,896	109,784
151,487	-10,933	235,501	109,664
152,502	-11,237	235,367	109,349
153,516	-11,173	235,203	109,314
154,531	-11,010	235,091	109,382
155,546	-11,044	234,827	109,223
156,560	-11,163	234,712	109,065
157,575	-11,287	234,366	108,796
158,589	-11,026	234,235	108,933
159,604	-11,037	234,117	108,859
160,619	-10,852	234,069	108,974
161,633	-10,942	233,876	108,803
162,648	-10,990	233,702	108,674
163,662	-11,048	233,639	108,589
164,677	-11,136	233,365	108,383
165,692	-11,081	233,314	108,393
166,706	-10,886	233,010	108,396
167,721	-10,897	232,984	108,365
168,735	-10,828	232,886	108,364
169,750	-10,849	232,668	108,236
170,764	-10,927	232,536	108,104
171,779	-10,920	232,489	108,078
172,794	-10,946	232,274	107,948
173,808	-11,228	232,043	107,611
174,823	-11,528	231,764	107,237
175,837	-11,925	231,367	106,734
176,852	-11,394	231,465	107,184
177,867	-11,200	231,432	107,311
178,881	-11,083	231,289	107,326
179,896	-10,988	231,049	107,279
180,910	-10,918	230,925	107,266
181,925	-10,972	230,849	107,180
182,940	-10,753	230,677	107,261
183,954	-11,044	230,534	106,958
184,969	-10,958	230,436	106,970
185,983	-11,008	230,299	106,858
186,998	-10,811	229,983	106,854
188,013	-10,980	229,973	106,709
189,027	-10,867	229,795	106,705
190,042	-10,806	229,610	106,657
191,056	-10,708	229,463	106,655
192,071	-10,887	229,242	106,405
193,086	-10,792	229,122	106,412
194,100	-10,621	228,949	106,454
195,115	-10,933	228,588	106,037
196,129	-11,720	228,454	105,360
197,144	-6,016	230,269	110,606
198,159	0,553	232,190	116,634
199,173	2,964	232,805	118,810
200,188	3,080	232,781	118,877
201,202	3,199	232,627	118,880
202,217	3,570	232,596	119,143
203,232	3,830	232,460	119,264
204,246	4,054	232,273	119,331
205,261	3,942	232,244	119,218
206,275	4,230	232,016	119,314
207,290	4,066	231,999	119,167
208,304	4,009	231,847	119,035
209,319	3,882	231,500	118,748
210,334	3,937	231,370	118,713
211,348	3,880	231,087	118,513
212,363	3,397	230,906	118,038
213,377	3,024	230,790	117,681
214,392	3,052	230,814	117,704
215,407	3,350	230,416	117,720
216,421	3,515	230,294	117,773
217,436	3,369	230,156	117,581
218,450	3,163	229,812	117,236
219,465	3,153	229,854	117,240
220,480	3,091	229,755	117,131
221,494	2,948	229,564	116,914
222,509	3,312	229,335	117,065
223,523	3,388	229,226	117,058
224,538	3,131	229,086	116,779
225,553	3,342	228,905	116,837
226,567	3,322	228,814	116,765
227,582	3,507	228,869	116,924
228,596	3,735	228,687	116,994
229,611	3,331	228,357	116,508
230,626	3,074	228,075	116,158
231,640	3,149	228,010	116,171
232,655	3,558	227,936	116,434
233,669	3,597	227,940	116,455
234,684	3,926	227,902	116,676
235,699	3,679	227,612	116,329
236,713	3,407	227,466	116,039
237,728	3,487	227,085	115,894
238,742	3,217	226,973	115,622
239,757	3,204	226,868	115,549
240,772	3,441	226,625	115,593
241,786	2,967	226,580	115,203
242,801	3,474	226,478	115,523
243,815	3,667	226,354	115,595
244,830	3,901	226,203	115,683
245,844	3,518	225,933	115,247
246,859	3,239	225,800	114,959
247,874	3,446	225,780	115,094
248,888	3,434	225,686	115,027
249,903	3,387	225,586	114,931
250,917	3,458	225,310	114,833
251,932	3,300	225,174	114,635
252,947	3,250	224,836	114,416
253,961	3,238	224,751	114,353
254,976	3,115	224,688	114,219
255,990	3,353	224,668	114,376
257,005	3,420	224,509	114,335
258,020	3,404	224,323	114,218
259,034	3,749	224,167	114,386
260,049	3,533	224,164	114,213
261,063	3,247	223,868	113,839
262,078	3,729	223,616	114,059
263,093	3,490	223,554	113,840
264,107	3,694	223,447	113,927
265,122	3,645	223,352	113,831
266,136	3,824	223,343	113,950
267,151	3,739	223,040	113,723
268,166	3,254	222,804	113,233
269,180	3,295	222,515	113,106
270,195	3,241	222,460	113,028
271,209	3,297	222,321	112,989
272,224	3,106	222,370	112,862
273,239	3,173	222,214	112,822
274,253	3,061	221,949	112,596
275,268	2,897	221,666	112,321
276,282	2,705	221,485	112,079
277,297	3,017	221,338	112,223
278,312	3,168	221,297	112,303
279,326	3,125	221,287	112,257
280,341	3,398	221,209	112,408
281,355	3,485	220,962	112,336
282,370	3,345	220,706	112,093
283,384	2,876	220,536	111,654
284,399	3,171	220,343	111,761
285,414	2,987	220,251	111,570
286,428	3,248	220,233	111,742
287,443	3,443	220,197	111,857
288,457	3,536	220,068	111,849
289,472	3,141	219,803	111,416
290,487	2,739	219,537	110,979
291,501	2,659	219,356	110,819
292,516	2,988	219,268	111,004
293,530	3,066	219,170	111,001
294,545	3,263	218,952	111,024
295,560	3,109	218,920	110,886
296,574	3,297	218,872	110,988
297,589	3,273	218,691	110,869
298,603	3,155	218,583	110,719
299,618	3,188	218,355	110,618
300,633	3,413	218,240	110,712
301,647	3,716	218,236	110,919
302,662	3,799	217,961	110,829
303,676	3,525	217,859	110,570
304,691	3,699	217,719	110,614
305,706	3,603	217,501	110,424
306,720	3,368	217,556	110,274
307,735	3,313	217,264	110,076
308,749	3,024	217,249	109,850
309,764	3,190	217,105	109,887
310,779	3,555	216,921	110,046
311,793	3,345	216,822	109,836
312,808	3,200	216,671	109,646
313,822	3,316	216,533	109,649
314,837	3,268	216,413	109,545
315,852	3,063	216,137	109,248
316,866	3,377	215,902	109,344
317,881	3,611	215,921	109,510
318,895	3,570	215,779	109,399
319,910	3,203	215,673	109,074
320,925	2,934	215,449	108,760
321,939	2,787	215,392	108,617
322,954	2,929	215,203	108,613
323,968	3,262	215,038	108,757
324,983	3,208	214,800	108,588
325,997	3,555	214,833	108,841
327,012	3,419	214,836	108,736
328,027	3,558	214,561	108,686
329,041	3,674	214,619	108,788
330,056	3,775	214,442	108,760
331,070	3,193	214,144	108,188
332,085	3,061	213,978	108,002
333,100	3,219	213,845	108,036
334,114	3,206	213,747	107,968
335,129	3,528	213,516	108,068
336,143	3,026	213,474	107,684
337,158	3,355	213,361	107,849
338,173	3,352	213,193	107,753
339,187	3,097	213,092	107,512
340,202	2,986	212,804	107,279
341,216	3,053	212,632	107,230
342,231	3,118	212,604	107,252
343,246	3,153	212,398	107,163
344,260	3,212	212,372	107,182
345,275	3,306	212,235	107,168
346,289	3,532	212,068	107,233
347,304	3,278	212,041	107,032
348,319	3,397	211,822	106,995
349,333	3,228	211,652	106,782
350,348	3,399	211,636	106,884
351,362	3,305	211,666	106,824
352,377	3,463	211,285	106,732
353,392	3,192	211,171	106,476
354,406	3,405	211,033	106,545
355,421	195,973	1337,815	1416,858
356,435	156,560	1475,073	1416,832
