DTS Sentinel unit serial number:	SN410029Multiplexer serial number:	ORYXHardware model number:	OX2-SRSoftware version number:	ORYX F/W v4,00 Oryx Data Collector v3.7.2.0data status	okinstallation	B6 Nyhavnadifferential loss correction	single-endedforward channel	channel 2reverse channel	N/Adate	2023/12/08time	23:15:08forward acquisition time	300,00reverse acquisition time	0,00gamma	499,1914k internal	0,3157k external	0,3157temperature offset calibration	1,0000default loss term (dB/km)	0,3820temperature slope calibration	1,0000multiplexer offset coefficient	1,0000multiplexer slope coefficient	1,0000fibre end	0,00T internal ref (°C)	15,42T ext. ref 1 (°C)	-1,01T ext. ref 2 (°C)	-1,00length (m)	temperature (°C)	Stokes	anti-Stokes-744,400	341,983	0,062	0,090
-743,385	-133,777	-0,388	0,035
-742,371	26,199	0,231	0,142
-741,356	12,369	-0,103	0,058
-740,342	365,584	-0,023	0,034
-739,327	-117,053	-0,323	0,043
-738,312	-82,369	0,071	-0,017
-737,298	-84,794	-0,372	0,085
-736,283	-200,000	0,016	0,128
-735,269	-184,917	-0,350	-0,004
-734,254	-163,818	0,175	-0,006
-733,239	-96,890	-0,575	-0,110
-732,225	-124,282	0,205	0,023
-731,210	410,817	0,053	0,083
-730,196	-132,981	0,068	0,006
-729,181	116,960	-0,072	-0,065
-728,167	116,678	0,060	0,054
-727,152	562,208	0,078	0,140
-726,137	40,755	-0,189	-0,126
-725,123	88,948	-0,066	-0,054
-724,108	-200,000	-0,012	-0,063
-723,094	-200,000	-0,021	-0,170
-722,079	-79,235	-0,075	0,019
-721,064	-0,795	-0,040	0,021
-720,050	-123,392	0,020	0,002
-719,035	-200,000	-0,014	-0,048
-718,021	67,735	-0,114	-0,086
-717,006	800,000	0,038	-0,108
-715,991	-39,259	0,084	-0,032
-714,977	305,296	-0,034	-0,046
-713,962	-200,000	-0,013	-0,053
-712,948	225,958	-0,039	-0,046
-711,933	423,457	-0,046	-0,073
-710,918	800,000	-0,018	0,043
-709,904	68,160	-0,074	-0,056
-708,889	-200,000	-0,019	-0,137
-707,875	800,000	-0,046	-0,099
-706,860	-35,573	-0,033	0,013
-705,845	-200,000	0,009	-0,141
-704,831	32,599	-0,075	-0,047
-703,816	205,598	-0,054	-0,061
-702,802	-200,000	-0,004	-0,066
-701,787	130,521	-0,049	-0,047
-700,772	250,718	-0,010	0,012
-699,758	800,000	-0,059	-0,138
-698,743	43,669	-0,019	0,013
-697,729	2,418	0,010	0,005
-696,714	52,551	0,018	-0,013
-695,699	-35,099	-0,126	-0,050
-694,685	179,824	-0,025	-0,027
-693,670	-200,000	-0,035	-0,183
-692,656	-5,168	0,060	-0,030
-691,641	706,391	0,014	-0,027
-690,627	800,000	-0,078	0,204
-689,612	27,682	0,057	-0,035
-688,597	-23,391	-0,061	0,027
-687,583	-200,000	-0,007	-0,069
-686,568	-200,000	0,004	0,026
-685,554	696,307	-0,033	0,064
-684,539	-67,068	0,145	-0,042
-683,524	467,269	-0,022	0,037
-682,510	-166,817	0,026	0,001
-681,495	91,083	0,020	-0,017
-680,481	181,440	-0,081	-0,088
-679,466	-200,000	-0,023	-0,096
-678,451	79,562	-0,085	-0,067
-677,437	51,000	-0,110	0,077
-676,422	53,454	0,081	-0,057
-675,408	-106,578	0,122	-0,020
-674,393	118,009	-0,112	-0,102
-673,378	800,000	-0,057	-0,154
-672,364	800,000	0,050	-0,140
-671,349	283,115	-0,155	-0,205
-670,335	-200,000	0,008	-0,043
-669,320	800,000	0,025	-0,051
-668,305	-113,046	-0,141	-0,020
-667,291	306,381	-0,064	0,088
-666,276	800,000	-0,062	-0,148
-665,262	162,630	0,085	-0,087
-664,247	-200,000	-0,021	-0,093
-663,232	800,000	0,080	0,206
-662,218	62,586	-0,045	0,033
-661,203	-61,944	-0,161	-0,049
-660,189	800,000	-0,042	-0,130
-659,174	-157,235	0,061	-0,003
-658,159	25,295	-0,023	-0,014
-657,145	-200,000	0,020	-0,078
-656,130	4,397	0,052	-0,028
-655,116	397,463	0,052	0,080
-654,101	54,297	-0,196	0,139
-653,086	-200,000	-0,026	0,166
-652,072	-200,000	0,013	-0,044
-651,057	-161,382	-0,063	-0,002
-650,043	15,678	-0,054	-0,031
-649,028	283,301	0,035	-0,047
-648,014	800,000	0,028	0,088
-646,999	-200,000	-0,002	-0,010
-645,984	199,799	-0,112	-0,126
-644,970	-1,120	-0,048	0,025
-643,955	800,000	0,054	-0,148
-642,941	559,311	-0,077	-0,137
-641,926	335,931	0,035	-0,050
-640,911	-83,674	0,135	0,031
-639,897	-175,226	-0,034	0,001
-638,882	246,599	0,051	-0,064
-637,868	304,492	0,045	-0,062
-636,853	-50,537	-0,078	-0,027
-635,838	121,820	0,047	-0,043
-634,824	22,306	0,107	0,064
-633,809	-200,000	0,017	0,077
-632,795	-200,000	-0,004	-0,096
-631,780	-112,078	-0,090	-0,013
-630,765	-60,519	-0,028	0,009
-629,751	256,301	-0,055	-0,069
-628,736	71,679	-0,036	0,027
-627,722	-190,837	0,040	-0,000
-626,707	505,882	-0,098	-0,168
-625,692	-200,000	0,004	-0,065
-624,678	-200,000	-0,001	0,068
-623,663	91,717	0,056	0,047
-622,649	105,427	-0,105	0,091
-621,634	97,795	-0,026	0,022
-620,619	-3,082	0,053	-0,027
-619,605	-142,884	0,041	-0,003
-618,590	-200,000	0,003	-0,019
-617,576	143,204	-0,122	0,119
-616,561	231,998	0,094	0,114
-615,546	16,077	0,076	0,044
-614,532	800,000	-0,045	-0,094
-613,517	121,267	-0,111	0,102
-612,503	84,080	0,099	0,080
-611,488	800,000	0,035	0,081
-610,474	-159,967	-0,014	0,001
-609,459	-115,656	0,048	-0,007
-608,444	800,000	-0,039	-0,104
-607,430	-87,948	-0,090	0,020
-606,415	-200,000	-0,015	-0,169
-605,401	-155,591	-0,028	0,001
-604,386	448,447	0,072	0,117
-603,371	-200,000	-0,031	0,197
-602,357	-173,031	0,089	0,002
-601,342	800,000	-0,009	0,023
-600,328	-163,752	-0,081	0,003
-599,313	-36,209	-0,092	-0,036
-598,298	-11,636	-0,073	0,035
-597,284	389,348	0,096	0,146
-596,269	-146,346	-0,105	0,007
-595,255	628,270	-0,047	0,087
-594,240	-8,220	0,065	-0,032
-593,225	72,217	0,027	0,021
-592,211	-91,009	-0,045	-0,009
-591,196	526,354	0,009	-0,016
-590,182	-77,087	0,104	0,026
-589,167	-38,211	-0,066	-0,025
-588,152	-200,000	-0,017	-0,117
-587,138	7,206	0,072	-0,040
-586,123	-164,703	-0,061	0,002
-585,109	329,424	-0,059	-0,083
-584,094	-39,590	-0,083	-0,032
-583,079	800,000	0,015	-0,038
-582,065	405,830	-0,064	-0,099
-581,050	800,000	0,034	0,091
-580,036	38,102	-0,127	-0,083
-579,021	-9,320	-0,043	-0,021
-578,006	395,744	-0,032	0,049
-576,992	368,139	-0,057	0,084
-575,977	-200,000	0,014	-0,099
-574,963	-12,840	-0,039	0,019
-573,948	-21,336	-0,085	0,038
-572,934	-54,745	0,044	-0,014
-571,919	157,465	0,042	0,043
-570,904	-200,000	-0,001	-0,044
-569,890	-200,000	-0,013	-0,141
-568,875	274,262	0,037	-0,048
-567,861	-200,000	-0,007	-0,036
-566,846	160,143	-0,059	0,060
-565,831	315,667	-0,039	0,053
-564,817	-54,225	0,014	0,005
-563,802	-200,000	-0,048	0,166
-562,788	-23,821	0,105	-0,046
-561,773	201,372	0,078	-0,088
-560,758	-52,561	-0,037	-0,012
-559,744	105,449	-0,094	-0,081
-558,729	248,732	-0,066	0,083
-557,715	309,012	-0,018	-0,025
-556,700	-200,000	-0,012	0,072
-555,685	116,778	-0,044	-0,040
-554,671	800,000	0,015	0,047
-553,656	-146,329	-0,094	0,006
-552,642	-148,060	0,082	0,005
-551,627	39,889	0,055	0,036
-550,612	92,599	-0,070	-0,057
-549,598	103,347	0,046	-0,040
-548,583	-36,465	-0,122	-0,048
-547,569	800,000	0,062	-0,140
-546,554	-200,000	-0,002	-0,057
-545,539	-81,535	0,052	0,012
-544,525	431,364	-0,024	0,038
-543,510	-200,000	-0,034	-0,209
-542,496	106,149	-0,088	-0,077
-541,481	633,907	-0,010	-0,019
-540,466	-200,000	0,023	-0,081
-539,452	-162,377	-0,037	0,001
-538,437	56,951	0,071	0,051
-537,423	466,676	-0,056	-0,093
-536,408	341,001	0,040	-0,058
-535,393	-98,689	-0,143	-0,026
-534,379	-107,907	0,025	-0,004
-533,364	800,000	-0,031	0,099
-532,350	-62,254	-0,098	-0,030
-531,335	158,521	0,059	0,060
-530,321	-24,257	0,087	0,038
-529,306	-50,447	-0,062	0,021
-528,291	107,335	-0,060	-0,052
-527,277	124,312	-0,046	0,042
-526,262	-200,000	0,004	-0,035
-525,248	565,081	0,038	-0,068
-524,233	-200,000	-0,033	0,117
-523,218	-161,158	-0,112	-0,004
-522,204	195,475	0,092	-0,103
-521,189	800,000	0,051	-0,135
-520,175	119,020	-0,100	-0,091
-519,160	-151,468	0,077	0,004
-518,145	-200,000	-0,010	-0,063
-517,131	800,000	0,050	0,142
-516,116	-200,000	-0,001	-0,060
-515,102	229,484	-0,023	-0,027
-514,087	-23,705	-0,151	0,066
-513,072	15,718	-0,083	0,048
-512,058	2,198	0,112	0,059
-511,043	-200,000	-0,026	0,105
-510,029	8,621	0,025	0,014
-509,014	800,000	0,048	-0,102
-507,999	-88,090	-0,048	-0,010
-506,985	-200,000	0,003	-0,047
-505,970	-200,000	0,032	-0,120
-504,956	316,026	-0,056	-0,077
-503,941	-74,328	0,067	-0,017
-502,926	-200,000	0,017	-0,093
-501,912	-27,003	0,065	-0,028
-500,897	-7,944	-0,095	-0,047
-499,883	28,694	0,104	0,064
-498,868	-115,845	-0,167	0,023
-497,853	-200,000	-0,008	-0,072
-496,839	328,210	0,082	0,115
-495,824	54,485	-0,060	0,042
-494,810	-56,953	-0,150	0,048
-493,795	94,704	-0,117	-0,097
-492,781	142,915	-0,110	0,107
-491,766	534,108	0,012	-0,020
-490,751	-87,348	0,047	0,010
-489,737	-179,567	0,189	0,003
-488,722	186,586	-0,020	-0,022
-487,708	-144,637	0,121	0,008
-486,693	14,689	-0,152	0,086
-485,678	-84,180	-0,114	-0,026
-484,664	800,000	-0,041	0,129
-483,649	78,697	-0,102	0,079
-482,635	-200,000	0,013	0,167
-481,620	395,029	-0,025	0,038
-480,605	-58,412	0,052	-0,016
-479,591	348,340	0,071	0,103
-478,576	-170,047	0,139	-0,004
-477,562	800,000	0,008	0,024
-476,547	-57,367	-0,040	-0,013
-475,532	-99,515	-0,079	0,014
-474,518	1,603	0,141	0,074
-473,503	-88,939	0,071	0,015
-472,489	800,000	-0,014	0,030
-471,474	-164,028	-0,107	-0,004
-470,459	-95,339	-0,119	0,023
-469,445	-52,368	0,142	-0,048
-468,430	800,000	0,027	-0,070
-467,416	277,463	-0,034	-0,045
-466,401	323,432	0,032	0,045
-465,386	-200,000	-0,011	0,036
-464,372	107,166	-0,078	-0,068
-463,357	6,861	-0,111	0,060
-462,343	72,465	0,141	0,107
-461,328	-200,000	-0,021	-0,123
-460,313	173,949	0,076	-0,080
-459,299	-90,680	0,045	0,009
-458,284	290,662	0,053	0,070
-457,270	-200,000	-0,013	0,081
-456,255	183,033	0,052	0,056
-455,241	461,523	0,068	-0,111
-454,226	-71,365	0,056	0,015
-453,211	800,000	0,026	0,055
-452,197	-200,000	-0,015	-0,055
-451,182	-33,944	0,046	0,018
-450,168	-45,677	0,064	-0,023
-449,153	-200,000	-0,008	0,036
-448,138	-58,933	-0,007	-0,002
-447,124	389,650	0,012	-0,019
-446,109	168,352	-0,042	-0,044
-445,095	-200,000	-0,007	0,023
-444,080	136,997	0,061	-0,058
-443,065	124,615	0,041	0,038
-442,051	-131,033	0,034	0,003
-441,036	14,867	-0,124	-0,070
-440,022	-10,810	0,126	-0,060
-439,007	800,000	-0,017	-0,044
-437,992	-53,493	0,020	-0,007
-436,978	-200,000	-0,034	-0,142
-435,963	-159,245	-0,161	-0,006
-434,949	-57,025	-0,033	-0,011
-433,934	-200,000	-0,025	-0,193
-432,919	800,000	-0,076	-0,193
-431,905	800,000	0,020	-0,054
-430,890	-200,000	-0,028	0,113
-429,876	123,626	0,105	0,096
-428,861	-117,793	-0,074	-0,010
-427,846	800,000	-0,014	0,040
-426,832	115,095	-0,056	0,049
-425,817	-76,847	-0,045	-0,011
-424,803	-200,000	-0,016	-0,086
-423,788	103,714	0,051	-0,044
-422,773	430,737	-0,100	0,159
-421,759	128,827	-0,043	0,040
-420,744	-200,000	-0,017	-0,157
-419,730	-200,000	0,003	0,024
-418,715	165,788	-0,118	0,122
-417,701	-53,240	-0,059	0,020
-416,686	-25,610	0,164	-0,070
-415,671	280,928	0,054	-0,070
-414,657	51,007	0,063	0,043
-413,642	103,422	0,065	-0,055
-412,628	-200,000	-0,001	0,006
-411,613	199,537	-0,072	-0,080
-410,598	-200,000	-0,004	-0,073
-409,584	800,000	0,019	-0,039
-408,569	537,819	-0,019	0,032
-407,555	790,425	-0,087	-0,175
-406,540	307,048	-0,027	-0,036
-405,525	15,523	-0,127	-0,072
-404,511	-200,000	-0,015	-0,057
-403,496	-117,386	0,069	-0,009
-402,482	-151,088	0,143	0,008
-401,467	-200,000	0,008	-0,069
-400,452	-52,825	0,091	0,030
-399,438	203,943	0,050	0,057
-398,423	-122,204	-0,065	0,008
-397,409	-19,863	0,053	0,024
-396,394	-103,247	0,110	-0,019
-395,379	-200,000	-0,000	-0,080
-394,365	81,810	0,069	0,054
-393,350	-111,711	0,121	-0,018
-392,336	-80,233	0,068	-0,017
-391,321	-119,919	0,150	0,018
-390,306	698,516	0,057	-0,109
-389,292	477,671	0,064	-0,106
-388,277	-59,252	-0,060	0,019
-387,263	103,316	-0,072	-0,062
-386,248	-200,000	0,004	-0,066
-385,233	71,872	-0,114	0,086
-384,219	-65,736	0,096	-0,028
-383,204	800,000	0,023	-0,072
-382,190	182,745	0,107	-0,115
-381,175	86,616	-0,026	0,021
-380,160	15,182	0,051	-0,029
-379,146	-200,000	-0,002	0,095
-378,131	800,000	0,071	0,153
-377,117	375,383	0,060	0,089
-376,102	324,909	-0,068	-0,094
-375,088	-185,281	0,091	0,001
-374,073	-148,487	-0,061	-0,004
-373,058	-17,208	0,079	-0,036
-372,044	332,456	0,031	0,043
-371,029	-200,000	-0,031	0,154
-370,015	-30,189	-0,144	-0,059
-369,000	-200,000	-0,021	-0,124
-367,985	-200,000	0,026	-0,121
-366,971	-200,000	0,007	-0,026
-365,956	800,000	0,031	-0,089
-364,942	6,805	0,069	0,037
-363,927	239,270	-0,048	0,058
-362,912	-200,000	-0,014	0,046
-361,898	273,005	0,025	-0,033
-360,883	800,000	0,011	0,025
-359,869	-122,085	0,062	0,007
-358,854	92,605	-0,071	-0,058
-357,839	9,716	0,130	-0,071
-356,825	-130,352	-0,036	-0,004
-355,810	800,000	0,024	0,069
-354,796	110,078	-0,053	-0,046
-353,781	800,000	0,033	-0,078
-352,766	15,600	-0,096	-0,055
-351,752	275,675	-0,036	-0,046
-350,737	-54,932	-0,188	0,061
-349,723	480,216	0,033	0,055
-348,708	747,760	-0,048	-0,095
-347,693	90,226	0,083	0,067
-346,679	-40,932	0,092	0,034
-345,664	-92,435	-0,042	-0,008
-344,650	800,000	-0,056	0,151
-343,635	-88,312	-0,041	-0,009
-342,620	-200,000	0,036	-0,143
-341,606	-8,785	0,076	-0,037
-340,591	296,958	-0,067	0,089
-339,577	142,503	-0,077	-0,074
-338,562	-51,440	-0,138	0,047
-337,548	-200,000	0,020	0,090
-336,533	800,000	-0,011	0,029
-335,518	58,955	0,070	0,050
-334,504	748,911	0,041	0,080
-333,489	246,819	-0,020	-0,025
-332,475	-154,599	-0,048	0,002
-331,460	-200,000	0,040	-0,144
-330,445	39,462	-0,058	-0,037
-329,431	37,131	0,049	0,031
-328,416	800,000	0,055	0,111
-327,402	31,191	0,054	-0,033
-326,387	8,791	0,111	-0,061
-325,372	-139,503	-0,029	0,002
-324,358	97,274	0,058	0,048
-323,343	678,031	-0,038	0,073
-322,329	800,000	-0,015	0,048
-321,314	-200,000	-0,017	-0,146
-320,299	99,135	0,071	0,060
-319,285	-19,299	0,146	0,065
-318,270	800,000	0,018	0,052
-317,256	317,673	0,020	-0,028
-316,241	800,000	0,009	-0,019
-315,226	-176,530	0,043	0,001
-314,212	-32,685	0,093	0,037
-313,197	-200,000	0,008	0,083
-312,183	800,000	-0,015	-0,045
-311,168	-161,551	0,024	0,001
-310,153	280,402	0,074	-0,096
-309,139	-94,135	0,144	-0,028
-308,124	800,000	0,008	0,023
-307,110	-98,715	0,126	0,023
-306,095	-20,245	0,167	0,074
-305,080	300,169	-0,079	0,106
-304,066	210,264	-0,099	-0,113
-303,051	188,024	0,064	0,069
-302,037	-200,000	-0,012	-0,112
-301,022	180,716	-0,096	0,102
-300,008	19,433	0,020	0,012
-298,993	-45,798	0,104	0,037
-297,978	-200,000	0,003	0,042
-296,964	364,684	-0,082	-0,120
-295,949	-105,542	0,141	-0,023
-294,935	60,702	-0,167	-0,120
-293,920	-147,883	-0,024	0,001
-292,905	331,400	0,106	0,149
-291,891	463,860	-0,065	0,105
-290,876	-200,000	0,018	0,150
-289,862	-200,000	-0,003	0,097
-288,847	289,224	-0,053	0,070
-287,832	-200,000	0,046	0,173
-286,818	361,679	-0,079	0,116
-285,803	129,507	-0,041	0,038
-284,789	-117,333	0,119	0,015
-283,774	180,353	0,062	0,066
-282,759	500,835	0,010	0,018
-281,745	510,227	0,038	0,064
-280,730	40,662	-0,065	-0,042
-279,716	591,898	0,024	-0,044
-278,701	-46,655	0,037	0,013
-277,686	-200,000	0,020	-0,110
-276,672	-200,000	-0,043	0,141
-275,657	-26,021	-0,085	-0,036
-274,643	-200,000	0,000	-0,057
-273,628	-200,000	-0,013	0,069
-272,613	-38,318	0,118	0,045
-271,599	-200,000	0,016	0,095
-270,584	112,601	0,065	0,057
-269,570	25,197	0,102	-0,061
-268,555	-82,959	0,064	-0,015
-267,540	-200,000	-0,010	-0,059
-266,526	204,114	-0,152	-0,170
-265,511	38,024	0,166	0,106
-264,497	525,867	-0,059	0,101
-263,482	-115,928	0,204	0,027
-262,467	-200,000	-0,037	0,139
-261,453	0,241	0,134	-0,069
-260,438	-101,297	-0,056	0,010
-259,424	154,677	0,047	0,047
-258,409	418,040	-0,088	-0,136
-257,395	-200,000	0,016	0,098
-256,380	-200,000	-0,013	-0,043
-255,365	-71,835	-0,043	0,012
-254,351	-93,110	-0,128	0,026
-253,336	800,000	-0,041	0,125
-252,322	-16,293	-0,059	-0,027
-251,307	63,503	0,093	-0,067
-250,292	120,900	0,040	0,036
-249,278	-200,000	-0,007	-0,032
-248,263	800,000	0,014	-0,038
-247,249	-200,000	0,009	-0,078
-246,234	37,529	-0,109	0,070
-245,219	157,989	0,012	-0,012
-244,205	61,103	-0,033	-0,023
-243,190	-200,000	-0,031	-0,101
-242,176	283,065	0,027	0,035
-241,161	-115,085	-0,093	0,013
-240,146	-200,000	0,000	-0,083
-239,132	-200,000	-0,005	-0,062
-238,117	74,867	-0,041	0,031
-237,103	-72,269	0,057	-0,015
-236,088	-105,188	0,138	-0,023
-235,073	-200,000	-0,006	0,025
-234,059	-22,363	-0,026	-0,011
-233,044	-200,000	0,011	0,221
-232,030	140,818	0,029	-0,028
-231,015	304,166	-0,068	-0,092
-230,000	753,627	-0,048	-0,095
-228,986	261,755	0,104	-0,130
-227,971	94,777	0,132	0,109
-226,957	780,332	0,030	0,060
-225,942	-27,464	-0,005	-0,002
-224,927	696,367	-0,034	-0,064
-223,913	-200,000	0,013	-0,105
-222,898	-69,741	-0,086	-0,024
-221,884	-97,496	-0,180	-0,033
-220,869	58,450	0,044	0,031
-219,855	524,426	0,082	0,140
-218,840	-200,000	0,056	0,270
-217,825	-170,114	-0,083	0,002
-216,811	800,000	-0,033	-0,072
-215,796	-200,000	0,014	-0,105
-214,782	-115,796	-0,080	-0,011
-213,767	-96,262	0,171	-0,032
-212,752	-52,766	0,111	0,037
-211,738	522,340	-0,062	-0,106
-210,723	-28,386	-0,071	0,030
-209,709	330,004	-0,031	0,044
-208,694	-200,000	-0,004	-0,081
-207,679	80,240	0,068	0,053
-206,665	-200,000	-0,001	-0,167
-205,650	89,376	0,108	0,087
-204,636	-200,000	-0,025	0,109
-203,621	-200,000	0,021	0,184
-202,606	-45,252	-0,173	0,062
-201,592	-189,123	-0,067	0,001
-200,577	90,512	0,028	0,022
-199,563	799,873	-0,011	-0,021
-198,548	512,843	-0,045	0,077
-197,533	-200,000	-0,015	-0,071
-196,519	-72,640	-0,073	-0,019
-195,504	68,523	-0,033	0,025
-194,490	9,817	-0,073	-0,040
-193,475	-85,320	0,086	0,019
-192,460	51,705	-0,082	-0,056
-191,446	-200,000	0,002	0,056
-190,431	124,126	0,066	-0,060
-189,417	-200,000	0,033	0,173
-188,402	-175,415	-0,074	0,001
-187,387	-90,830	-0,119	0,025
-186,373	-67,589	0,093	-0,026
-185,358	-200,000	0,014	-0,150
-184,344	-35,858	-0,042	-0,016
-183,329	399,862	-0,052	0,079
-182,315	800,000	0,021	0,047
-181,300	-160,915	-0,182	-0,007
-180,285	-52,185	-0,152	0,051
-179,271	-76,642	0,028	0,007
-178,256	-110,523	-0,062	-0,009
-177,242	140,410	-0,072	-0,068
-176,227	40,184	0,090	0,058
-175,212	800,000	0,019	0,053
-174,198	800,000	0,022	0,067
-173,183	1,049	-0,077	-0,040
-172,169	-134,502	0,110	-0,010
-171,154	207,487	-0,085	0,096
-170,139	800,000	-0,015	0,031
-169,125	-53,861	-0,066	-0,021
-168,110	-200,000	-0,004	0,061
-167,096	-14,698	-0,029	-0,013
-166,081	-200,000	0,019	0,153
-165,066	800,000	0,068	-0,144
-164,052	518,775	0,041	-0,070
-163,037	800,000	0,069	0,151
-162,023	-10,111	0,245	0,117
-161,008	7,788	0,093	0,050
-159,993	21,991	0,114	0,067
-158,979	-37,721	-0,110	0,042
-157,964	139,629	-0,082	0,078
-156,950	160,750	-0,014	0,014
-155,935	-4,130	0,018	-0,009
-154,920	37,774	0,079	-0,050
-153,906	120,490	-0,089	0,080
-152,891	187,106	0,092	-0,099
-151,877	-200,000	-0,005	0,053
-150,862	276,909	-0,056	0,072
-149,847	-200,000	-0,016	-0,106
-148,833	-200,000	0,016	-0,103
-147,818	-45,560	0,235	-0,083
-146,804	-19,138	-0,092	0,041
-145,789	-200,000	-0,023	0,079
-144,775	496,980	0,022	-0,037
-143,760	71,273	0,039	-0,029
-142,745	-112,290	0,036	-0,005
-141,731	316,550	0,088	0,120
-140,716	3,350	0,092	-0,048
-139,702	23,347	-0,104	0,061
-138,687	381,216	0,117	-0,174
-137,672	264,774	-0,046	0,058
-136,658	23,937	0,006	0,003
-135,643	21,040	0,216	-0,126
-134,629	800,000	0,027	-0,083
-133,614	800,000	0,036	0,084
-132,599	-157,085	0,108	0,005
-131,585	-186,591	-0,100	0,001
-130,570	24,222	-0,101	0,060
-129,556	-38,773	-0,028	0,011
-128,541	16,498	-0,119	-0,068
-127,526	-44,065	-0,037	0,013
-126,512	-21,943	0,079	0,034
-125,497	-35,274	-0,074	0,029
-124,483	-200,000	-0,041	0,159
-123,468	-129,164	-0,110	-0,011
-122,453	-200,000	0,016	-0,160
-121,439	-200,000	0,033	0,118
-120,424	800,000	-0,008	-0,016
-119,410	153,528	0,107	-0,105
-118,395	173,296	0,080	0,083
-117,380	419,323	0,005	0,007
-116,366	-33,188	-0,072	-0,028
-115,351	-200,000	-0,007	-0,033
-114,337	-59,293	-0,046	0,014
-113,322	-30,745	-0,121	0,049
-112,307	800,000	-0,041	-0,112
-111,293	-13,692	0,093	0,043
-110,278	35,254	0,037	0,024
-109,264	-11,153	-0,082	-0,039
-108,249	448,858	0,036	0,057
-107,234	800,000	-0,016	-0,043
-106,220	186,736	-0,036	-0,039
-105,205	800,000	0,018	0,041
-104,191	800,000	0,027	-0,082
-103,176	800,000	-0,035	0,103
-102,162	183,060	0,121	0,128
-101,147	-44,882	-0,157	-0,056
-100,132	-145,608	-0,062	0,004
-99,118	800,000	0,021	-0,062
-98,103	-70,252	-0,175	-0,047
-97,089	7,630	0,200	-0,107
-96,074	168,180	-0,082	-0,084
-95,059	122,166	-0,023	-0,021
-94,045	475,475	-0,026	0,042
-93,030	25,744	-0,188	-0,112
-92,016	764,970	-0,013	0,025
-91,001	516,798	-0,014	-0,023
-89,986	-149,012	-0,095	0,005
-88,972	-200,000	0,050	0,212
-87,957	800,000	-0,033	0,076
-86,943	568,322	0,048	-0,085
-85,928	36,052	0,094	-0,059
-84,913	121,836	-0,038	0,034
-83,899	39,953	0,094	0,061
-82,884	90,631	0,074	-0,060
-81,870	81,047	0,088	0,068
-80,855	800,000	0,011	0,025
-79,840	-200,000	0,022	-0,090
-78,826	-120,056	-0,168	0,020
-77,811	-200,000	0,012	0,127
-76,797	75,172	-0,009	0,006
-75,782	-200,000	0,006	0,106
-74,767	-27,416	0,045	-0,019
-73,753	-176,756	0,077	-0,001
-72,738	226,212	-0,095	0,111
-71,724	-200,000	-0,005	0,105
-70,709	-200,000	-0,006	-0,034
-69,694	468,878	0,029	-0,047
-68,680	-200,000	-0,002	-0,011
-67,665	222,488	0,086	0,099
-66,651	130,310	0,029	0,026
-65,636	-200,000	0,003	-0,031
-64,622	283,627	0,033	-0,043
-63,607	22,816	-0,113	-0,066
-62,592	-52,886	-0,047	-0,016
-61,578	-169,109	0,174	0,005
-60,563	-200,000	-0,001	-0,033
-59,549	-200,000	-0,043	0,150
-58,534	-0,299	-2,024	-1,029
-57,519	-200,000	-0,159	-0,823
-56,505	-200,000	-1,260	-4,916
-55,490	78,572	0,756	0,580
-54,476	800,000	5,315	12,014
-53,461	-200,000	17,717	290,466
-52,446	800,000	724,899	2237,060
-51,432	541,214	1638,082	2812,032
-50,417	110,871	1628,809	1406,728
-49,403	74,330	1283,944	967,168
-48,388	31,936	1027,046	633,624
-47,373	20,039	988,921	570,887
-46,359	18,418	976,934	558,633
-45,344	15,770	973,130	547,771
-44,330	15,910	971,655	547,380
-43,315	15,486	969,917	544,993
-42,300	15,453	968,757	544,212
-41,286	15,411	967,888	543,564
-40,271	15,414	966,854	542,975
-39,257	15,451	965,780	542,469
-38,242	15,511	964,905	542,152
-37,227	15,464	964,151	541,552
-36,213	15,415	963,470	540,989
-35,198	15,457	962,398	540,501
-34,184	15,465	961,688	540,109
-33,169	15,378	960,830	539,322
-32,154	15,461	959,878	539,036
-31,140	15,445	958,979	538,460
-30,125	15,463	958,265	538,096
-29,111	15,547	957,290	537,795
-28,096	15,444	957,055	537,310
-27,082	15,525	956,060	536,990
-26,067	15,479	955,351	536,424
-25,052	15,520	954,522	536,068
-24,038	15,463	953,820	535,470
-23,023	15,401	953,263	534,936
-22,009	15,442	952,682	534,723
-20,994	15,417	952,246	534,376
-19,979	15,431	951,436	533,944
-18,965	15,452	950,795	533,632
-17,950	15,477	950,213	533,364
-16,936	15,396	949,621	532,751
-15,921	15,448	948,803	532,437
-14,906	15,325	948,086	531,622
-13,892	15,365	947,494	531,395
-12,877	15,356	946,905	531,014
-11,863	15,323	946,253	530,523
-10,848	15,320	945,796	530,236
-9,833	15,432	945,222	530,250
-8,819	15,414	944,605	529,827
-7,804	15,350	943,988	529,256
-6,790	15,365	943,297	528,894
-5,775	15,395	942,896	528,742
-4,760	15,419	942,047	528,322
-3,746	15,359	941,431	527,767
-2,731	15,259	940,927	527,148
-1,717	15,158	940,367	526,491
-0,702	15,221	939,524	526,200
0,313	15,002	938,825	525,911
1,327	18,540	936,924	535,941
2,342	27,910	790,953	477,154
3,356	24,591	444,993	263,509
4,371	-5,201	295,072	145,001
5,386	-9,333	276,762	132,081
6,400	-10,434	271,036	128,315
7,415	-10,726	268,689	126,924
8,429	-10,822	267,391	126,211
9,444	-10,747	266,366	125,785
10,459	-10,873	265,830	125,406
11,473	-10,944	265,152	125,010
12,488	-10,827	264,673	124,879
13,502	-10,994	263,997	124,398
14,517	-11,146	263,766	124,142
15,531	-11,090	263,330	123,975
16,546	-10,788	262,857	124,013
17,561	-10,941	262,474	123,684
18,575	-10,911	262,314	123,624
19,590	-11,120	261,823	123,195
20,604	-10,949	261,536	123,202
21,619	-10,882	261,206	123,095
22,634	-10,871	260,654	122,834
23,648	-11,089	260,565	122,587
24,663	-11,047	260,241	122,462
25,677	-10,949	260,051	122,448
26,692	-11,124	259,940	122,229
27,707	-11,280	259,614	121,927
28,721	-11,150	259,244	121,858
29,736	-11,223	259,057	121,694
30,750	-11,037	258,803	121,728
31,765	-10,908	258,276	121,583
32,780	-11,120	258,365	121,427
33,794	-11,103	258,017	121,268
34,809	-11,025	257,781	121,215
35,823	-11,131	257,495	120,976
36,838	-11,281	257,331	120,757
37,853	-11,162	257,106	120,744
38,867	-11,306	256,923	120,522
39,882	-11,115	256,542	120,499
40,896	-11,093	256,307	120,398
41,911	-11,222	256,127	120,189
42,926	-11,371	255,981	119,980
43,940	-11,346	255,571	119,799
44,955	-11,229	255,490	119,852
45,969	-11,514	255,305	119,506
46,984	-11,596	254,891	119,231
47,999	-11,784	254,587	118,915
49,013	-11,972	254,330	118,621
50,028	-11,890	254,111	118,580
51,042	-12,069	253,843	118,289
52,057	-12,212	253,607	118,045
53,071	-12,082	253,472	118,083
54,086	-11,792	253,240	118,215
55,101	-11,739	253,097	118,183
56,115	-11,619	253,063	118,261
57,130	-11,168	252,869	118,549
58,144	-10,775	252,646	118,772
59,159	-11,028	252,559	118,503
60,174	-11,110	252,245	118,274
61,188	-10,964	252,067	118,306
62,203	-11,024	252,067	118,244
63,217	-10,900	251,644	118,141
64,232	-11,079	251,549	117,932
65,247	-11,043	251,168	117,774
66,261	-11,012	250,984	117,704
67,276	-11,431	250,830	117,263
68,290	-11,749	250,520	116,836
69,305	-11,574	250,190	116,821
70,320	-11,442	250,014	116,841
71,334	-11,294	249,937	116,920
72,349	-10,928	249,678	117,100
73,363	-10,976	249,592	117,008
74,378	-10,908	249,381	116,957
75,393	-10,961	249,180	116,807
76,407	-11,067	248,897	116,574
77,422	-11,084	248,784	116,496
78,436	-10,999	248,550	116,448
79,451	-11,025	248,324	116,311
80,466	-11,142	247,939	116,020
81,480	-11,198	247,838	115,916
82,495	-11,451	247,662	115,610
83,509	-11,508	247,483	115,469
84,524	-11,434	247,292	115,432
85,539	-11,256	246,882	115,379
86,553	-11,606	246,822	115,047
87,568	-11,283	246,693	115,248
88,582	-11,363	246,485	115,073
89,597	-11,453	246,292	114,897
90,611	-11,401	245,974	114,782
91,626	-11,140	245,928	114,968
92,641	-11,166	245,842	114,897
93,655	-11,147	245,438	114,713
94,670	-11,178	245,337	114,630
95,684	-11,148	245,047	114,509
96,699	-11,217	245,016	114,427
97,714	-11,406	244,721	114,122
98,728	-11,471	244,476	113,944
99,743	-11,638	244,327	113,725
100,757	-11,583	244,108	113,658
101,772	-11,781	243,968	113,419
102,787	-11,237	243,641	113,708
103,801	-11,393	243,642	113,568
104,816	-11,371	243,486	113,504
105,830	-11,288	243,477	113,558
106,845	-11,122	243,223	113,567
107,860	-11,163	242,960	113,400
108,874	-11,263	242,740	113,205
109,889	-11,530	242,691	112,952
110,903	-11,270	242,222	112,937
111,918	-11,550	242,227	112,700
112,933	-11,106	242,042	112,968
113,947	-11,184	241,911	112,832
114,962	-11,149	241,664	112,737
115,976	-11,316	241,609	112,564
116,991	-11,247	241,387	112,506
118,006	-11,188	241,031	112,379
119,020	-11,174	241,032	112,381
120,035	-11,201	240,998	112,333
121,049	-10,953	240,690	112,382
122,064	-11,200	240,612	112,134
123,079	-11,418	240,540	111,912
124,093	-11,286	240,093	111,802
125,108	-11,512	239,825	111,483
126,122	-11,443	239,697	111,470
127,137	-11,692	239,524	111,177
128,151	-11,586	239,190	111,098
129,166	-11,295	239,150	111,306
130,181	-11,588	239,038	111,006
131,195	-11,479	238,664	110,911
132,210	-11,376	238,591	110,951
133,224	-11,272	238,424	110,947
134,239	-11,187	238,163	110,885
135,254	-11,131	238,035	110,860
136,268	-11,122	237,881	110,785
137,283	-11,770	237,619	110,132
138,297	-11,783	237,331	109,978
139,312	-11,966	237,308	109,811
140,327	-11,361	237,209	110,241
141,341	-10,808	237,254	110,696
142,356	-10,991	237,024	110,432
143,370	-10,797	236,825	110,486
144,385	-11,007	236,652	110,227
145,400	-10,733	236,382	110,310
146,414	-10,662	236,189	110,267
147,429	-10,915	236,057	109,994
148,443	-10,791	235,931	110,024
149,458	-10,997	235,855	109,814
150,473	-10,944	235,682	109,766
151,487	-11,065	235,503	109,577
152,502	-10,869	235,162	109,564
153,516	-11,011	235,311	109,511
154,531	-10,844	234,943	109,463
155,546	-11,218	234,952	109,159
156,560	-10,869	234,573	109,250
157,575	-10,950	234,445	109,117
158,589	-11,068	234,181	108,891
159,604	-10,764	234,124	109,095
160,619	-10,752	234,007	109,040
161,633	-10,488	233,760	109,124
162,648	-10,661	233,563	108,886
163,662	-10,739	233,419	108,748
164,677	-10,944	233,296	108,519
165,692	-10,934	233,039	108,398
166,706	-10,779	233,153	108,563
167,721	-10,720	232,916	108,490
168,735	-10,668	232,863	108,496
169,750	-10,866	232,648	108,231
170,764	-10,721	232,444	108,240
171,779	-10,736	232,367	108,183
172,794	-10,850	232,244	108,027
173,808	-10,990	231,971	107,780
174,823	-11,428	231,532	107,225
175,837	-11,691	231,417	106,957
176,852	-11,010	231,315	107,431
177,867	-11,059	231,477	107,458
178,881	-10,789	231,163	107,514
179,896	-10,757	231,128	107,513
180,910	-10,657	230,829	107,442
181,925	-10,788	230,693	107,267
182,940	-10,670	230,554	107,285
183,954	-10,737	230,455	107,177
184,969	-10,680	230,284	107,132
185,983	-10,453	230,147	107,235
186,998	-10,445	229,922	107,127
188,013	-10,701	229,949	106,931
189,027	-10,567	229,662	106,892
190,042	-10,703	229,500	106,702
191,056	-10,819	229,460	106,584
192,071	-10,836	229,212	106,446
193,086	-10,675	229,069	106,494
194,100	-10,473	228,839	106,534
195,115	-10,702	228,433	106,159
196,129	-11,287	228,440	105,703
197,144	-6,097	230,213	110,534
198,159	0,199	232,046	116,305
199,173	3,002	232,749	118,830
200,188	3,306	232,711	119,036
201,202	3,443	232,511	119,030
202,217	3,648	232,457	119,151
203,232	3,608	232,599	119,181
204,246	3,720	232,307	119,108
205,261	4,031	232,068	119,216
206,275	4,103	232,028	119,240
207,290	4,231	231,975	119,302
208,304	4,130	231,729	119,086
209,319	4,046	231,462	118,874
210,334	3,958	231,306	118,715
211,348	3,878	231,203	118,590
212,363	3,450	230,732	118,008
213,377	3,294	230,594	117,808
214,392	3,224	230,499	117,694
215,407	3,357	230,366	117,718
216,421	3,525	230,294	117,800
217,436	3,282	230,091	117,499
218,450	2,975	229,879	117,145
219,465	2,975	229,716	117,051
220,480	2,992	229,525	116,956
221,494	3,141	229,434	117,014
222,509	3,171	229,435	117,027
223,523	3,297	229,174	116,979
224,538	3,202	228,933	116,773
225,553	3,215	228,848	116,730
226,567	3,293	228,781	116,745
227,582	3,670	228,565	116,911
228,596	3,609	228,537	116,840
229,611	3,373	228,316	116,537
230,626	3,239	228,016	116,272
231,640	3,122	227,952	116,140
232,655	3,640	227,734	116,411
233,669	3,948	227,703	116,619
234,684	3,989	227,618	116,596
235,699	3,598	227,499	116,228
236,713	3,416	227,212	115,933
237,728	3,319	227,146	115,817
238,742	3,146	226,927	115,563
239,757	3,337	226,656	115,560
240,772	3,347	226,519	115,487
241,786	3,148	226,324	115,227
242,801	3,224	226,389	115,307
243,815	3,756	226,264	115,634
244,830	3,449	226,215	115,368
245,844	3,577	225,790	115,236
246,859	3,336	225,814	115,058
247,874	3,343	225,762	115,026
248,888	3,684	225,420	115,097
249,903	3,360	225,300	114,783
250,917	3,230	225,258	114,653
251,932	3,426	224,930	114,623
252,947	3,146	224,774	114,325
253,961	3,333	224,663	114,397
254,976	3,366	224,535	114,346
255,990	3,565	224,529	114,482
257,005	3,452	224,377	114,310
258,020	3,481	224,189	114,225
259,034	3,603	224,160	114,291
260,049	3,683	224,010	114,264
261,063	3,732	223,726	114,145
262,078	3,774	223,654	114,130
263,093	3,884	223,575	114,161
264,107	3,726	223,301	113,894
265,122	3,952	223,151	113,974
266,136	3,706	223,256	113,836
267,151	3,841	222,954	113,771
268,166	3,340	222,683	113,253
269,180	2,995	222,515	112,902
270,195	3,149	222,300	112,896
271,209	3,016	222,281	112,779
272,224	3,198	222,087	112,804
273,239	3,315	222,001	112,837
274,253	3,137	221,900	112,644
275,268	3,173	221,702	112,560
276,282	3,008	221,529	112,341
277,297	3,057	221,372	112,287
278,312	3,000	221,214	112,155
279,326	3,328	221,081	112,319
280,341	3,044	221,010	112,064
281,355	3,291	220,887	112,173
282,370	3,420	220,662	112,143
283,384	3,002	220,540	111,765
284,399	3,075	220,319	111,697
285,414	2,963	220,171	111,529
286,428	3,126	220,115	111,611
287,443	3,631	219,950	111,885
288,457	3,418	219,931	111,710
289,472	3,429	219,655	111,568
290,487	2,897	219,408	111,046
291,501	2,912	219,216	110,950
292,516	2,871	219,270	110,938
293,530	3,018	219,088	110,942
294,545	3,069	218,927	110,887
295,560	3,158	218,812	110,884
296,574	3,279	218,674	110,892
297,589	3,234	218,539	110,781
298,603	3,373	218,482	110,843
299,618	3,264	218,311	110,667
300,633	3,522	218,262	110,819
301,647	3,804	218,011	110,885
302,662	3,554	218,020	110,700
303,676	3,465	217,877	110,553
304,691	3,378	217,715	110,398
305,706	3,362	217,591	110,314
306,720	3,350	217,492	110,245
307,735	3,392	217,170	110,102
308,749	3,246	217,063	109,933
309,764	3,337	217,080	109,998
310,779	3,407	216,914	109,954
311,793	3,498	216,718	109,910
312,808	3,408	216,536	109,743
313,822	3,345	216,493	109,667
314,837	3,055	216,288	109,346
315,852	3,119	216,131	109,302
316,866	2,989	216,208	109,239
317,881	3,392	215,938	109,380
318,895	3,393	215,769	109,286
319,910	3,190	215,622	109,057
320,925	3,146	215,316	108,861
321,939	2,654	215,177	108,431
322,954	2,819	215,142	108,521
323,968	3,225	214,876	108,666
324,983	3,003	214,887	108,504
325,997	3,564	214,959	108,929
327,012	3,410	214,633	108,645
328,027	3,505	214,566	108,668
329,041	3,826	214,438	108,821
330,056	3,867	214,372	108,807
331,070	3,132	214,202	108,191
332,085	3,100	213,860	107,986
333,100	3,382	213,789	108,139
334,114	3,350	213,630	108,027
335,129	3,480	213,642	108,115
336,143	3,082	213,459	107,732
337,158	2,880	213,294	107,497
338,173	3,358	213,053	107,702
339,187	3,049	212,989	107,443
340,202	3,017	212,730	107,281
341,216	2,800	212,645	107,075
342,231	3,295	212,477	107,329
343,246	2,769	212,463	106,943
344,260	2,941	212,225	106,934
345,275	3,204	212,212	107,102
346,289	3,483	212,082	107,223
347,304	3,499	211,899	107,131
348,319	3,388	211,696	106,942
349,333	3,351	211,640	106,878
350,348	3,632	211,444	106,966
351,362	3,526	211,385	106,852
352,377	3,670	211,329	106,915
353,392	3,294	211,219	106,588
354,406	3,310	211,099	106,529
355,421	197,341	1339,699	1423,471
356,435	157,701	1477,182	1423,453
