DTS Sentinel unit serial number:	SN410029Multiplexer serial number:	ORYXHardware model number:	OX2-SRSoftware version number:	ORYX F/W v4,00 Oryx Data Collector v3.7.2.0data status	okinstallation	B6 Nyhavnadifferential loss correction	single-endedforward channel	channel 2reverse channel	N/Adate	2023/12/07time	12:20:08forward acquisition time	300,00reverse acquisition time	0,00gamma	499,1914k internal	0,3203k external	0,3203temperature offset calibration	1,0000default loss term (dB/km)	0,3820temperature slope calibration	1,0000multiplexer offset coefficient	1,0000multiplexer slope coefficient	1,0000fibre end	0,00T internal ref (°C)	9,92T ext. ref 1 (°C)	-3,73T ext. ref 2 (°C)	-3,71length (m)	temperature (°C)	Stokes	anti-Stokes-744,400	-43,246	0,211	-0,077
-743,385	-34,621	-0,315	-0,125
-742,371	-126,775	0,206	-0,022
-741,356	-61,496	-0,403	0,122
-740,342	90,782	0,023	0,019
-739,327	-50,973	-0,343	-0,116
-738,312	180,502	0,016	0,017
-737,298	-70,424	-0,242	-0,066
-736,283	129,229	0,117	-0,108
-735,269	-132,920	-0,399	-0,036
-734,254	-5,499	0,121	0,060
-733,239	-40,793	-0,500	-0,187
-732,225	-52,046	0,169	-0,057
-731,210	401,591	0,021	0,032
-730,196	800,000	0,019	-0,051
-729,181	800,000	-0,081	-0,178
-728,167	-91,026	-0,061	0,013
-727,152	-200,000	0,009	-0,041
-726,137	-175,852	-0,112	-0,002
-725,123	472,507	-0,043	-0,071
-724,108	-86,539	-0,125	-0,028
-723,094	-200,000	0,004	-0,053
-722,079	-200,000	0,027	-0,120
-721,064	-152,017	0,243	-0,013
-720,050	66,752	-0,080	-0,059
-719,035	102,284	0,050	-0,042
-718,021	-67,754	-0,145	-0,041
-717,006	-48,091	-0,103	0,036
-715,991	800,000	-0,041	-0,107
-714,977	800,000	0,010	-0,023
-713,962	113,254	-0,066	0,058
-712,948	340,924	-0,038	0,053
-711,933	-200,000	0,005	0,062
-710,918	33,794	-0,100	0,063
-709,904	-15,164	-0,193	0,089
-708,889	-200,000	0,011	0,071
-707,875	266,930	0,072	-0,092
-706,860	-200,000	0,006	-0,104
-705,845	345,595	-0,072	0,103
-704,831	-200,000	0,043	0,170
-703,816	-155,507	0,055	-0,003
-702,802	-151,424	-0,065	-0,003
-701,787	348,402	-0,067	-0,096
-700,772	285,099	-0,063	-0,082
-699,758	217,885	0,092	-0,106
-698,743	775,803	-0,031	-0,062
-697,729	583,197	-0,049	-0,088
-696,714	-200,000	-0,008	-0,044
-695,699	-105,810	0,044	-0,007
-694,685	-48,761	-0,188	-0,065
-693,670	-75,593	0,162	0,041
-692,656	-139,792	-0,055	0,004
-691,641	224,680	-0,074	0,087
-690,627	-164,312	0,059	0,002
-689,612	2,063	-0,096	0,050
-688,597	100,676	0,085	0,072
-687,583	167,176	-0,022	-0,023
-686,568	174,146	-0,092	-0,096
-685,554	201,477	0,025	-0,027
-684,539	-27,416	-0,089	0,037
-683,524	800,000	0,036	-0,106
-682,510	240,482	0,086	0,105
-681,495	166,096	-0,082	0,084
-680,481	800,000	-0,055	-0,118
-679,466	-200,000	0,023	-0,145
-678,451	700,345	-0,014	0,027
-677,437	-114,421	-0,061	0,008
-676,422	-34,699	-0,065	-0,026
-675,408	41,354	-0,112	-0,074
-674,393	-200,000	-0,018	-0,084
-673,378	-75,361	-0,145	0,037
-672,364	-200,000	-0,005	-0,143
-671,349	-200,000	-0,045	-0,183
-670,335	466,779	-0,082	-0,134
-669,320	-138,765	0,092	-0,007
-668,305	99,820	-0,145	0,122
-667,291	-58,805	-0,082	0,026
-666,276	137,042	-0,048	-0,045
-665,262	77,100	-0,041	-0,032
-664,247	-58,579	0,147	-0,046
-663,232	-25,469	-0,095	-0,040
-662,218	-67,889	0,143	-0,040
-661,203	-91,289	-0,147	-0,030
-660,189	-182,015	0,056	0,001
-659,174	24,910	-0,090	-0,054
-658,159	800,000	0,050	-0,143
-657,145	370,551	-0,066	0,098
-656,130	362,489	0,084	0,123
-655,116	137,903	0,129	0,123
-654,101	-50,654	0,116	0,040
-653,086	290,216	-0,040	-0,053
-652,072	-21,465	0,044	0,019
-651,057	420,322	-0,053	-0,083
-650,043	-200,000	0,010	0,103
-649,028	-200,000	-0,019	0,098
-648,014	800,000	-0,026	0,078
-646,999	357,607	0,070	0,102
-645,984	-0,234	0,090	0,046
-644,970	45,773	-0,069	-0,046
-643,955	-42,262	0,108	-0,040
-642,941	187,950	-0,071	-0,077
-641,926	58,638	0,086	-0,061
-640,911	-132,007	0,135	0,013
-639,897	26,096	0,105	0,063
-638,882	-200,000	0,037	0,123
-637,868	-15,232	-0,205	-0,094
-636,853	-200,000	-0,006	-0,029
-635,838	-20,940	-0,055	0,024
-634,824	-104,310	0,030	-0,005
-633,809	-200,000	-0,022	0,081
-632,795	325,835	0,084	0,116
-631,780	-200,000	-0,022	0,123
-630,765	-200,000	-0,021	-0,103
-629,751	-47,950	-0,045	0,016
-628,736	-106,718	-0,133	-0,021
-627,722	-200,000	-0,001	-0,030
-626,707	-124,873	-0,119	-0,013
-625,692	800,000	-0,044	0,090
-624,678	456,632	0,052	0,084
-623,663	-200,000	-0,001	0,055
-622,649	-174,450	-0,126	-0,003
-621,634	800,000	0,029	0,093
-620,619	-45,107	0,065	-0,023
-619,605	17,268	-0,080	-0,046
-618,590	-72,354	-0,043	-0,011
-617,576	-200,000	-0,006	-0,136
-616,561	108,516	0,097	0,084
-615,546	-149,435	-0,107	0,006
-614,532	-2,151	-0,008	-0,004
-613,517	800,000	0,035	0,109
-612,503	-39,078	0,024	-0,009
-611,488	800,000	0,043	0,097
-610,474	55,064	-0,036	0,025
-609,459	593,820	-0,078	0,141
-608,444	557,668	-0,042	-0,074
-607,430	-200,000	-0,017	-0,067
-606,415	800,000	-0,058	-0,183
-605,401	21,093	-0,035	-0,020
-604,386	-50,625	0,163	-0,055
-603,371	800,000	-0,049	0,141
-602,357	-200,000	-0,013	0,101
-601,342	800,000	0,003	-0,009
-600,328	-6,926	-0,161	0,079
-599,313	799,830	0,018	0,036
-598,298	-200,000	0,000	-0,151
-597,284	167,744	0,055	-0,056
-596,269	-63,333	-0,026	-0,008
-595,255	800,000	-0,014	0,041
-594,240	800,000	0,031	0,078
-593,225	-200,000	0,002	-0,145
-592,211	62,180	-0,069	-0,050
-591,196	28,330	0,076	-0,047
-590,182	-28,060	-0,063	0,026
-589,167	-104,240	-0,061	-0,010
-588,152	-200,000	-0,011	0,049
-587,138	-200,000	-0,009	-0,139
-586,123	186,372	-0,069	0,075
-585,109	-93,495	0,023	0,005
-584,094	723,521	-0,111	-0,215
-583,079	319,561	0,098	0,135
-582,065	-200,000	-0,002	0,018
-581,050	763,749	0,012	0,024
-580,036	69,508	-0,037	0,027
-579,021	-121,931	-0,183	-0,021
-578,006	8,511	0,118	-0,064
-576,992	-200,000	0,007	0,046
-575,977	-151,245	0,086	0,005
-574,963	-200,000	-0,003	0,018
-573,948	87,248	-0,126	0,101
-572,934	-200,000	-0,003	-0,068
-571,919	800,000	0,030	-0,091
-570,904	91,483	0,049	-0,040
-569,890	-150,519	-0,165	0,009
-568,875	82,084	-0,051	0,040
-567,861	88,081	0,096	-0,077
-566,846	98,077	-0,037	-0,031
-565,831	-70,729	0,033	-0,009
-564,817	-98,157	0,058	0,011
-563,802	113,153	0,067	-0,058
-562,788	78,951	-0,113	0,088
-561,773	546,610	-0,010	0,017
-560,758	65,006	-0,071	0,052
-559,744	253,494	0,043	0,053
-558,729	-67,242	-0,065	0,018
-557,715	800,000	0,037	0,088
-556,700	661,691	0,026	-0,049
-555,685	607,349	-0,044	-0,080
-554,671	-17,832	-0,037	0,017
-553,656	800,000	-0,034	0,078
-552,642	14,768	0,025	-0,014
-551,627	38,247	0,085	0,054
-550,612	-200,000	0,070	-0,000
-549,598	-38,425	-0,166	0,063
-548,583	-200,000	0,001	-0,049
-547,569	84,105	0,042	-0,033
-546,554	771,065	-0,050	-0,098
-545,539	-4,381	0,054	0,027
-544,525	98,786	-0,021	-0,018
-543,510	553,516	0,027	-0,046
-542,496	145,986	-0,092	-0,089
-541,481	800,000	-0,026	-0,065
-540,466	-200,000	0,008	-0,159
-539,452	-200,000	0,009	0,142
-538,437	-200,000	0,139	-0,000
-537,423	800,000	0,023	0,059
-536,408	-29,132	0,123	-0,051
-535,393	-72,434	-0,022	0,006
-534,379	512,910	-0,023	0,039
-533,364	-7,297	0,156	0,076
-532,350	201,321	0,089	0,099
-531,335	169,826	0,034	-0,035
-530,321	131,065	0,052	-0,048
-529,306	-5,286	-0,035	-0,017
-528,291	-16,437	0,056	0,026
-527,277	-195,591	0,092	0,000
-526,262	-200,000	0,002	-0,115
-525,248	-94,947	0,031	0,006
-524,233	-200,000	-0,025	0,125
-523,218	-200,000	-0,006	0,074
-522,204	800,000	0,012	0,033
-521,189	800,000	-0,024	-0,050
-520,175	-32,195	0,095	0,038
-519,160	-200,000	0,005	-0,101
-518,145	255,828	0,065	0,080
-517,131	-163,861	0,197	0,007
-516,116	-194,123	-0,168	0,001
-515,102	-60,897	-0,037	0,011
-514,087	750,647	-0,064	-0,125
-513,072	800,000	-0,049	0,126
-512,058	-106,101	0,078	0,013
-511,043	-143,643	-0,094	-0,006
-510,029	21,880	-0,049	0,029
-509,014	179,762	0,061	-0,065
-507,999	-200,000	-0,015	-0,049
-506,985	800,000	0,016	0,043
-505,970	395,167	-0,088	0,132
-504,956	3,447	-0,097	0,051
-503,941	393,405	-0,031	-0,046
-502,926	-42,458	0,088	-0,032
-501,912	-58,517	0,120	-0,037
-500,897	800,000	0,049	-0,118
-499,883	-200,000	0,007	-0,034
-498,868	-200,000	0,005	0,047
-497,853	-200,000	0,008	-0,050
-496,839	-200,000	-0,023	0,141
-495,824	-109,077	0,154	-0,023
-494,810	-103,628	0,017	0,003
-493,795	-72,865	0,058	-0,015
-492,781	26,170	-0,073	0,044
-491,766	800,000	0,027	-0,074
-490,751	-200,000	-0,005	-0,162
-489,737	74,763	0,156	-0,118
-488,722	22,070	-0,116	0,068
-487,708	800,000	-0,044	0,119
-486,693	-73,240	0,065	-0,017
-485,678	165,625	-0,015	0,015
-484,664	800,000	0,012	0,025
-483,649	800,000	0,041	-0,122
-482,635	-200,000	-0,027	-0,086
-481,620	-200,000	-0,007	0,056
-480,605	613,499	0,029	0,052
-479,591	111,637	0,079	-0,069
-478,576	-27,413	-0,050	0,021
-477,562	671,983	-0,054	-0,101
-476,547	200,414	-0,065	-0,072
-475,532	-200,000	0,019	-0,139
-474,518	-200,000	0,027	-0,171
-473,503	94,089	-0,086	0,070
-472,489	-93,589	0,099	0,020
-471,474	109,863	0,019	0,017
-470,459	-200,000	0,009	-0,161
-469,445	60,891	-0,097	-0,069
-468,430	800,000	0,045	0,137
-467,416	-176,847	0,085	0,002
-466,401	571,235	0,028	-0,049
-465,386	-84,664	0,155	-0,035
-464,372	-111,010	0,090	0,013
-463,357	141,716	-0,111	-0,106
-462,343	5,144	-0,068	0,036
-461,328	-81,636	-0,115	-0,027
-460,313	800,000	-0,031	0,090
-459,299	-19,739	0,151	0,067
-458,284	800,000	0,023	0,055
-457,270	800,000	0,025	0,060
-456,255	800,000	-0,027	-0,072
-455,241	743,158	-0,053	-0,103
-454,226	-4,548	-0,094	-0,046
-453,211	-200,000	0,004	-0,014
-452,197	-200,000	-0,004	0,054
-451,182	800,000	0,068	0,160
-450,168	-148,722	-0,087	0,005
-449,153	14,077	-0,140	-0,078
-448,138	-109,855	-0,063	-0,009
-447,124	464,413	-0,030	-0,049
-446,109	-103,564	0,048	-0,008
-445,095	-162,810	0,123	-0,004
-444,080	-147,198	0,032	-0,002
-443,065	-104,672	0,079	-0,013
-442,051	-133,311	-0,039	-0,004
-441,036	-40,891	-0,101	0,037
-440,022	-200,000	-0,009	-0,070
-439,007	333,341	0,107	-0,149
-437,992	-93,455	-0,175	-0,035
-436,978	231,245	-0,046	0,055
-435,963	800,000	-0,061	0,162
-434,949	77,519	0,102	0,078
-433,934	277,122	0,038	-0,049
-432,919	218,435	-0,080	0,092
-431,905	-88,777	-0,085	0,018
-430,890	-44,471	-0,079	-0,028
-429,876	236,384	0,084	0,100
-428,861	-200,000	-0,013	0,134
-427,846	800,000	-0,047	0,142
-426,832	-200,000	-0,016	0,056
-425,817	-43,420	0,016	-0,006
-424,803	-200,000	-0,020	-0,169
-423,788	-129,770	-0,013	-0,001
-422,773	-15,785	0,056	0,025
-421,759	-192,209	0,038	0,000
-420,744	-26,448	-0,043	-0,018
-419,730	107,166	0,059	0,050
-418,715	135,920	0,153	-0,143
-417,701	-154,167	0,033	-0,002
-416,686	274,328	-0,032	-0,041
-415,671	232,544	0,048	-0,056
-414,657	-200,000	-0,006	0,155
-413,642	290,255	-0,008	0,011
-412,628	-200,000	0,005	-0,040
-411,613	151,371	-0,062	0,061
-410,598	-55,442	-0,020	0,006
-409,584	17,409	0,056	-0,032
-408,569	316,368	-0,054	0,073
-407,555	-133,251	0,073	0,007
-406,540	800,000	-0,049	0,139
-405,525	-1,879	0,030	-0,015
-404,511	505,198	-0,010	-0,017
-403,496	-169,673	0,048	0,001
-402,482	-35,357	-0,162	-0,063
-401,467	-163,924	0,177	-0,006
-400,452	156,569	-0,054	0,053
-399,438	-69,425	-0,088	0,024
-398,423	-10,568	-0,053	0,025
-397,409	-16,275	-0,008	0,003
-396,394	-200,000	-0,013	-0,154
-395,379	110,228	-0,064	-0,055
-394,365	-151,669	0,092	-0,005
-393,350	150,039	-0,079	-0,077
-392,336	116,160	0,039	-0,034
-391,321	-16,098	0,111	-0,050
-390,306	123,508	-0,071	0,064
-389,292	-200,000	-0,019	-0,069
-388,277	-200,000	0,021	0,118
-387,263	-200,000	-0,002	0,203
-386,248	27,250	0,114	0,069
-385,233	-200,000	-0,009	0,101
-384,219	800,000	0,055	0,139
-383,204	-123,766	0,123	0,014
-382,190	-147,168	-0,068	0,004
-381,175	-57,431	-0,052	-0,016
-380,160	-34,471	0,074	0,029
-379,146	6,785	0,143	-0,076
-378,131	283,344	-0,025	0,032
-377,117	-52,377	-0,156	-0,052
-376,102	-200,000	0,002	0,039
-375,088	74,826	0,019	0,014
-374,073	-144,165	0,100	0,007
-373,058	-112,483	0,151	-0,021
-372,044	181,354	0,056	0,059
-371,029	800,000	0,016	0,034
-370,015	126,816	0,089	-0,080
-369,000	-55,793	-0,132	-0,042
-367,985	-200,000	0,027	-0,148
-366,971	363,314	-0,012	-0,018
-365,956	-200,000	-0,023	0,189
-364,942	-42,101	0,051	-0,019
-363,927	800,000	-0,026	0,058
-362,912	800,000	-0,034	0,082
-361,898	-200,000	0,005	-0,094
-360,883	184,341	-0,079	-0,084
-359,869	70,297	0,071	-0,052
-358,854	-48,889	0,083	0,028
-357,839	524,463	0,092	0,156
-356,825	-200,000	0,017	-0,071
-355,810	-160,230	-0,130	0,005
-354,796	-39,471	-0,074	0,027
-353,781	-200,000	0,010	-0,094
-352,766	-61,829	-0,138	0,041
-351,752	-74,437	-0,094	-0,024
-350,737	800,000	0,035	0,093
-349,723	-121,860	-0,096	-0,011
-348,708	-164,862	-0,070	0,002
-347,693	-100,735	-0,048	0,008
-346,679	179,166	-0,028	-0,029
-345,664	244,348	-0,062	0,075
-344,650	-200,000	-0,001	0,021
-343,635	88,466	0,108	-0,085
-342,620	239,365	-0,015	-0,018
-341,606	177,841	-0,055	0,057
-340,591	-103,064	-0,142	-0,024
-339,577	175,918	0,059	-0,061
-338,562	-200,000	-0,030	0,099
-337,548	144,928	0,155	0,149
-336,533	-200,000	0,016	0,087
-335,518	800,000	0,020	-0,057
-334,504	459,988	-0,018	0,029
-333,489	-111,605	-0,040	0,006
-332,475	-137,991	-0,098	-0,008
-331,460	441,059	0,046	-0,072
-330,445	-103,945	0,044	0,007
-329,431	123,941	0,058	-0,052
-328,416	-7,518	0,016	-0,008
-327,402	248,875	-0,048	-0,058
-326,387	-69,642	0,102	0,028
-325,372	63,664	0,038	-0,028
-324,358	-200,000	0,016	-0,052
-323,343	-200,000	-0,021	-0,125
-322,329	-200,000	-0,009	0,044
-321,314	-200,000	-0,002	0,027
-320,299	-62,298	0,147	-0,043
-319,285	-128,544	0,162	-0,016
-318,270	-200,000	0,035	-0,175
-317,256	800,000	0,031	0,066
-316,241	-200,000	0,018	0,000
-315,226	50,673	0,056	-0,038
-314,212	238,235	0,110	-0,130
-313,197	18,957	-0,023	-0,013
-312,183	-55,322	0,215	0,069
-311,168	-78,427	-0,067	-0,016
-310,153	-150,126	-0,167	0,009
-309,139	86,288	-0,073	-0,057
-308,124	-200,000	-0,003	-0,074
-307,110	800,000	0,064	-0,181
-306,095	-35,149	0,016	-0,006
-305,080	38,613	0,066	0,042
-304,066	117,971	0,046	0,041
-303,051	-200,000	-0,000	0,015
-302,037	278,200	-0,030	-0,039
-301,022	18,844	0,044	0,025
-300,008	15,828	0,027	-0,015
-298,993	1,495	0,139	-0,071
-297,978	-64,687	-0,022	0,006
-296,964	-38,201	-0,026	-0,010
-295,949	-37,297	-0,138	0,053
-294,935	-105,053	0,031	-0,005
-293,920	-200,000	0,005	-0,090
-292,905	-49,040	0,139	-0,047
-291,891	113,888	-0,027	0,023
-290,876	-200,000	0,011	0,066
-289,862	175,587	-0,128	-0,132
-288,847	558,291	-0,060	-0,104
-287,832	-119,943	0,056	0,007
-286,818	-200,000	0,007	0,066
-285,803	800,000	0,024	-0,073
-284,789	-200,000	0,013	0,119
-283,774	59,748	-0,030	0,021
-282,759	-200,000	0,014	-0,048
-281,745	800,000	-0,045	-0,094
-280,730	104,034	-0,062	0,052
-279,716	115,266	0,115	0,100
-278,701	-200,000	0,004	-0,044
-277,686	9,797	0,028	-0,015
-276,672	-51,873	-0,025	-0,008
-275,657	3,199	-0,076	-0,040
-274,643	-162,254	-0,130	-0,005
-273,628	-43,806	-0,092	-0,033
-272,613	694,020	-0,017	-0,032
-271,599	-200,000	-0,029	-0,102
-270,584	71,083	-0,089	0,066
-269,570	-177,822	0,152	-0,003
-268,555	-99,709	-0,043	0,008
-267,540	171,973	-0,079	-0,081
-266,526	-200,000	0,044	0,144
-265,511	-121,589	-0,066	0,008
-264,497	-200,000	-0,011	0,067
-263,482	657,632	0,026	-0,047
-262,467	-200,000	0,012	0,101
-261,453	800,000	0,023	-0,061
-260,438	359,441	0,064	0,091
-259,424	154,508	-0,076	0,074
-258,409	-200,000	-0,003	-0,027
-257,395	586,654	-0,065	0,114
-256,380	800,000	0,032	0,084
-255,365	-118,386	0,166	-0,021
-254,351	287,249	0,059	-0,076
-253,336	-20,473	0,082	0,036
-252,322	800,000	-0,014	-0,034
-251,307	-200,000	0,010	-0,090
-250,292	25,852	-0,048	-0,029
-249,278	-96,998	-0,143	-0,027
-248,263	-200,000	0,002	0,100
-247,249	800,000	0,019	0,054
-246,234	800,000	0,027	-0,076
-245,219	-200,000	0,023	-0,162
-244,205	256,133	-0,130	-0,159
-243,190	134,844	-0,031	0,028
-242,176	-124,750	-0,059	0,006
-241,161	800,000	0,038	-0,096
-240,146	-200,000	-0,026	-0,136
-239,132	-95,560	-0,069	-0,013
-238,117	25,419	0,041	-0,024
-237,103	-94,828	0,048	0,009
-236,088	433,175	0,018	0,027
-235,073	-139,207	0,148	-0,011
-234,059	800,000	0,040	0,083
-233,044	-88,501	-0,082	0,017
-232,030	-200,000	0,012	0,045
-231,015	328,914	-0,050	-0,069
-230,000	182,860	-0,063	0,066
-228,986	800,000	0,037	-0,080
-227,971	800,000	0,005	-0,013
-226,957	-200,000	0,011	0,184
-225,942	107,831	-0,112	0,095
-224,927	-128,095	-0,127	0,013
-223,913	-77,466	-0,122	-0,030
-222,898	800,000	-0,037	0,074
-221,884	800,000	0,067	0,147
-220,869	-200,000	0,022	0,154
-219,855	-200,000	-0,004	0,025
-218,840	-84,617	0,115	0,026
-217,825	-200,000	-0,017	0,085
-216,811	245,403	-0,106	-0,128
-215,796	800,000	0,025	-0,060
-214,782	-92,128	-0,021	0,004
-213,767	800,000	-0,017	0,047
-212,752	89,934	-0,124	-0,099
-211,738	-200,000	-0,006	0,199
-210,723	-200,000	-0,018	0,131
-209,709	-200,000	-0,023	0,075
-208,694	-200,000	-0,013	0,056
-207,679	-67,526	-0,094	0,026
-206,665	800,000	0,033	0,066
-205,650	-2,766	0,037	0,018
-204,636	800,000	0,038	0,080
-203,621	800,000	0,054	0,158
-202,606	532,216	-0,063	-0,107
-201,592	225,847	-0,069	0,080
-200,577	394,077	-0,135	-0,201
-199,563	521,625	0,033	-0,056
-198,548	-185,246	0,107	-0,001
-197,533	61,828	0,081	0,057
-196,519	-95,324	-0,012	0,002
-195,504	800,000	-0,010	0,026
-194,490	724,642	-0,073	0,139
-193,475	30,113	-0,124	-0,075
-192,460	223,774	0,068	-0,078
-191,446	153,440	0,028	-0,027
-190,431	-174,953	0,091	0,002
-189,417	-135,010	-0,153	-0,013
-188,402	125,171	0,060	-0,054
-187,387	-200,000	-0,009	-0,066
-186,373	-200,000	0,002	0,031
-185,358	100,270	0,093	-0,077
-184,344	800,000	0,065	-0,148
-183,329	134,061	-0,042	-0,038
-182,315	-139,250	0,105	-0,008
-181,300	-58,815	-0,184	-0,056
-180,285	-200,000	0,015	0,143
-179,271	-200,000	0,010	-0,150
-178,256	-200,000	0,009	-0,142
-177,242	-74,434	0,110	-0,028
-176,227	214,755	0,105	0,118
-175,212	-46,529	-0,026	-0,009
-174,198	-43,772	0,139	-0,050
-173,183	-79,859	0,092	-0,022
-172,169	-145,691	-0,136	-0,008
-171,154	151,625	0,023	-0,022
-170,139	-83,106	0,018	0,004
-169,125	327,480	0,027	0,037
-168,110	222,309	-0,089	0,102
-167,096	21,292	-0,042	0,024
-166,081	91,325	0,107	0,085
-165,066	-200,000	0,006	-0,048
-164,052	-93,351	0,035	-0,007
-163,037	-200,000	0,002	-0,074
-162,023	800,000	0,063	0,188
-161,008	-200,000	-0,034	-0,192
-159,993	264,600	0,042	0,052
-158,979	404,890	-0,094	-0,141
-157,964	-200,000	0,001	-0,072
-156,950	323,553	0,019	-0,026
-155,935	-11,392	-0,051	-0,024
-154,920	-200,000	-0,008	0,032
-153,906	-200,000	-0,007	0,033
-152,891	142,686	-0,074	0,070
-151,877	-92,829	-0,092	0,018
-150,862	-200,000	-0,006	-0,102
-149,847	513,875	0,040	0,066
-148,833	67,145	-0,088	0,064
-147,818	83,575	0,108	-0,083
-146,804	-200,000	0,009	0,030
-145,789	-66,042	0,102	0,029
-144,775	800,000	-0,031	-0,078
-143,760	-10,549	0,105	-0,049
-142,745	-43,550	-0,165	-0,059
-141,731	800,000	0,038	0,092
-140,716	-25,794	0,159	0,066
-139,702	112,186	-0,130	0,112
-138,687	-200,000	-0,019	0,110
-137,672	-92,251	-0,031	-0,006
-136,658	98,407	-0,115	-0,094
-135,643	-3,874	0,047	0,023
-134,629	17,489	-0,103	-0,058
-133,614	-63,466	0,057	-0,016
-132,599	800,000	0,051	0,159
-131,585	-200,000	-0,004	0,039
-130,570	-72,108	-0,116	-0,030
-129,556	168,052	-0,050	0,051
-128,541	800,000	0,023	-0,069
-127,526	161,572	0,052	-0,051
-126,512	-200,000	0,019	0,111
-125,497	-8,228	0,097	-0,046
-124,483	-164,353	0,058	-0,002
-123,468	-95,332	-0,231	0,044
-122,453	-11,116	0,074	-0,035
-121,439	-157,352	-0,052	0,002
-120,424	800,000	-0,059	-0,171
-119,410	-200,000	0,034	0,136
-118,395	-159,149	-0,094	-0,004
-117,380	-26,067	-0,069	0,029
-116,366	-200,000	0,011	-0,052
-115,351	-114,419	-0,083	-0,011
-114,337	800,000	0,053	0,127
-113,322	800,000	-0,076	0,172
-112,307	-200,000	0,047	0,164
-111,293	296,364	-0,023	0,030
-110,278	-145,379	0,036	0,002
-109,264	12,471	0,101	0,055
-108,249	514,636	-0,045	-0,074
-107,234	79,878	-0,102	-0,078
-106,220	533,027	-0,019	0,032
-105,205	800,000	0,033	-0,096
-104,191	-23,995	0,149	-0,063
-103,176	800,000	-0,057	0,168
-102,162	284,174	-0,104	0,133
-101,147	320,148	-0,019	0,026
-100,132	-200,000	-0,003	-0,021
-99,118	51,626	0,091	0,061
-98,103	72,379	-0,092	-0,068
-97,089	472,277	0,085	-0,135
-96,074	800,000	-0,013	-0,037
-95,059	-200,000	-0,033	-0,117
-94,045	-200,000	0,000	-0,076
-93,030	209,721	0,032	-0,035
-92,016	-18,426	-0,145	-0,064
-91,001	-119,581	0,064	0,008
-89,986	25,462	-0,056	0,033
-88,972	366,292	0,062	0,089
-87,957	-200,000	0,009	0,032
-86,943	800,000	-0,039	-0,102
-85,928	-71,760	-0,088	-0,023
-84,913	-87,543	-0,125	-0,027
-83,899	-200,000	-0,070	0,000
-82,884	800,000	0,014	-0,039
-81,870	185,651	0,041	-0,043
-80,855	-200,000	-0,000	0,105
-79,840	205,903	0,047	0,052
-78,826	-48,036	-0,053	-0,018
-77,811	-90,799	0,042	-0,009
-76,797	-14,816	-0,094	-0,043
-75,782	203,666	0,023	-0,025
-74,767	28,103	0,085	-0,050
-73,753	650,160	0,078	-0,142
-72,738	-200,000	-0,010	0,038
-71,724	45,378	0,013	-0,008
-70,709	136,742	-0,069	-0,063
-69,694	800,000	-0,024	-0,050
-68,680	-200,000	-0,005	0,132
-67,665	-200,000	0,018	0,060
-66,651	800,000	0,050	0,142
-65,636	800,000	0,024	-0,052
-64,622	-0,521	0,042	-0,021
-63,607	800,000	0,088	0,205
-62,592	94,012	-0,087	-0,070
-61,578	-92,937	-0,140	-0,027
-60,563	-44,031	0,181	-0,064
-59,549	-41,651	-0,126	0,046
-58,534	79,009	-2,523	-1,910
-57,519	800,000	0,134	-0,349
-56,505	-200,000	-1,673	-5,462
-55,490	318,466	1,022	1,373
-54,476	800,000	5,350	11,985
-53,461	-200,000	21,004	341,893
-52,446	800,000	760,856	2337,724
-51,432	537,746	1663,484	2807,598
-50,417	71,069	1675,733	1227,545
-49,403	16,818	1595,997	891,274
-48,388	11,465	1549,905	837,927
-47,373	18,946	1543,120	872,552
-46,359	15,004	1532,050	846,240
-45,344	10,155	1527,831	819,227
-44,330	10,009	1525,837	817,382
-43,315	9,962	1524,131	816,196
-42,300	9,951	1522,577	815,273
-41,286	9,932	1521,124	814,368
-40,271	9,889	1519,502	813,250
-39,257	9,938	1518,117	812,721
-38,242	9,913	1516,771	811,841
-37,227	9,926	1515,411	811,152
-36,213	9,938	1514,030	810,437
-35,198	9,966	1512,764	809,868
-34,184	9,993	1511,335	809,207
-33,169	9,943	1510,057	808,240
-32,154	9,967	1508,795	807,654
-31,140	9,992	1507,414	807,007
-30,125	10,038	1505,927	806,408
-29,111	9,970	1504,934	805,508
-28,096	9,976	1503,781	804,889
-27,082	9,996	1502,701	804,375
-26,067	9,920	1501,600	803,374
-25,052	9,969	1500,127	802,799
-24,038	9,946	1499,145	802,127
-23,023	9,885	1498,315	801,349
-22,009	9,910	1497,381	800,943
-20,994	9,978	1496,267	800,655
-19,979	9,932	1495,162	799,801
-18,965	9,962	1494,194	799,401
-17,950	9,935	1493,078	798,639
-16,936	9,924	1492,014	797,979
-15,921	9,905	1490,731	797,170
-14,906	9,859	1489,957	796,494
-13,892	9,849	1488,740	795,762
-12,877	9,832	1487,798	795,144
-11,863	9,784	1486,868	794,380
-10,848	9,839	1485,965	794,137
-9,833	9,884	1485,190	793,912
-8,819	9,879	1484,042	793,241
-7,804	9,864	1482,807	792,479
-6,790	9,832	1482,336	792,038
-5,775	9,940	1481,248	791,957
-4,760	9,876	1480,454	791,184
-3,746	9,851	1479,031	790,272
-2,731	9,724	1477,985	789,053
-1,717	9,639	1477,162	788,164
-0,702	9,659	1476,195	787,718
0,313	9,492	1475,018	787,457
1,327	13,319	1472,443	804,779
2,342	22,711	1233,024	712,187
3,356	19,046	691,755	391,152
4,371	-9,285	466,907	219,747
5,386	-12,711	439,284	201,646
6,400	-13,729	430,422	196,080
7,415	-13,402	426,703	194,840
8,429	-14,885	423,990	191,460
9,444	-15,070	422,389	190,455
10,459	-15,307	421,317	189,618
11,473	-15,320	420,324	189,136
12,488	-15,425	419,392	188,551
13,502	-15,618	418,422	187,825
14,517	-15,942	417,620	186,991
15,531	-16,007	416,660	186,453
16,546	-16,157	415,952	185,908
17,561	-16,249	415,488	185,555
18,575	-16,147	414,731	185,343
19,590	-16,192	414,237	185,043
20,604	-16,230	413,730	184,747
21,619	-16,406	413,174	184,237
22,634	-16,278	412,641	184,162
23,648	-16,379	412,198	183,807
24,663	-16,402	411,773	183,569
25,677	-16,448	411,425	183,334
26,692	-16,316	410,816	183,229
27,707	-16,325	410,302	182,971
28,721	-16,416	410,100	182,739
29,736	-16,489	409,491	182,350
30,750	-16,359	409,179	182,375
31,765	-16,457	408,638	181,982
32,780	-16,318	408,185	181,955
33,794	-16,417	408,027	181,732
34,809	-16,411	407,454	181,470
35,823	-16,385	407,061	181,314
36,838	-16,500	406,708	180,982
37,853	-16,511	406,242	180,744
38,867	-16,511	405,949	180,597
39,882	-16,465	405,580	180,480
40,896	-16,468	405,088	180,241
41,911	-16,461	404,635	180,032
42,926	-16,445	404,261	179,872
43,940	-16,501	403,890	179,614
44,955	-16,611	403,607	179,323
45,969	-16,571	403,216	179,188
46,984	-16,690	402,886	178,863
47,999	-16,818	402,497	178,501
49,013	-16,774	401,992	178,321
50,028	-16,853	401,628	178,037
51,042	-16,823	401,117	177,835
52,057	-17,008	401,003	177,519
53,071	-17,028	400,690	177,338
54,086	-16,840	400,315	177,409
55,101	-16,753	400,055	177,395
56,115	-16,551	399,797	177,537
57,130	-16,207	399,471	177,839
58,144	-15,867	399,187	178,153
59,159	-15,956	398,924	177,901
60,174	-15,981	398,500	177,662
61,188	-15,959	398,218	177,551
62,203	-16,242	397,776	176,959
63,217	-16,220	397,323	176,771
64,232	-16,217	397,048	176,636
65,247	-15,890	396,810	176,951
66,261	-16,228	396,397	176,301
67,276	-16,275	395,807	175,960
68,290	-16,620	395,464	175,333
69,305	-16,522	395,235	175,346
70,320	-16,557	394,812	175,096
71,334	-16,358	394,648	175,272
72,349	-15,970	394,360	175,643
73,363	-15,862	393,947	175,586
74,378	-16,102	393,738	175,160
75,393	-16,199	393,379	174,857
76,407	-16,175	392,878	174,649
77,422	-16,266	392,613	174,397
78,436	-16,144	392,341	174,421
79,451	-16,173	392,095	174,258
80,466	-16,317	391,614	173,838
81,480	-16,481	391,187	173,418
82,495	-16,488	390,800	173,222
83,509	-16,348	390,528	173,270
84,524	-16,473	390,257	172,970
85,539	-16,629	389,923	172,602
86,553	-16,470	389,534	172,623
87,568	-16,475	389,329	172,511
88,582	-16,378	388,826	172,398
89,597	-16,452	388,779	172,266
90,611	-16,362	388,434	172,215
91,626	-16,326	388,351	172,209
92,641	-16,302	387,784	171,975
93,655	-16,376	387,566	171,765
94,670	-16,432	387,266	171,545
95,684	-16,349	386,995	171,518
96,699	-16,272	386,678	171,462
97,714	-16,385	386,252	171,110
98,728	-16,496	386,004	170,842
99,743	-16,536	385,508	170,555
100,757	-16,555	385,179	170,371
101,772	-16,491	384,962	170,342
102,787	-16,343	384,646	170,377
103,801	-16,241	384,496	170,428
104,816	-16,290	384,139	170,191
105,830	-16,131	384,054	170,343
106,845	-16,087	383,724	170,237
107,860	-16,013	383,358	170,155
108,874	-16,157	383,031	169,810
109,889	-16,087	382,570	169,680
110,903	-16,309	382,478	169,340
111,918	-16,090	382,165	169,466
112,933	-16,196	381,677	169,099
113,947	-16,100	381,455	169,109
114,962	-15,996	381,306	169,160
115,976	-16,056	381,039	168,950
116,991	-16,200	380,571	168,544
118,006	-16,195	380,417	168,468
119,020	-16,108	380,170	168,453
120,035	-16,211	379,975	168,222
121,049	-15,963	379,498	168,310
122,064	-16,061	379,391	168,123
123,079	-15,998	378,970	168,001
124,093	-16,068	378,700	167,778
125,108	-16,254	378,185	167,300
126,122	-16,534	377,864	166,788
127,137	-16,684	377,599	166,467
128,151	-16,409	377,387	166,706
129,166	-16,404	377,220	166,623
130,181	-16,294	376,659	166,500
131,195	-16,381	376,237	166,189
132,210	-16,229	376,350	166,416
133,224	-15,975	375,849	166,498
134,239	-15,989	375,722	166,409
135,254	-15,968	375,478	166,313
136,268	-16,181	375,096	165,861
137,283	-16,451	374,748	165,355
138,297	-16,476	374,200	165,067
139,312	-16,501	373,899	164,888
140,327	-16,124	373,888	165,340
141,341	-15,916	373,748	165,523
142,356	-15,735	373,434	165,595
143,370	-15,771	373,168	165,417
144,385	-15,742	372,928	165,331
145,400	-15,748	372,686	165,203
146,414	-15,758	372,396	165,047
147,429	-15,909	371,964	164,653
148,443	-15,934	371,762	164,519
149,458	-15,914	371,593	164,453
150,473	-15,825	371,333	164,435
151,487	-15,809	370,825	164,214
152,502	-15,918	370,641	163,984
153,516	-15,950	370,511	163,872
154,531	-15,838	370,252	163,880
155,546	-15,868	369,832	163,643
156,560	-15,799	369,633	163,626
157,575	-15,764	369,284	163,500
158,589	-15,782	369,002	163,338
159,604	-15,766	368,945	163,318
160,619	-15,760	368,461	163,096
161,633	-15,839	368,272	162,901
162,648	-15,757	368,121	162,921
163,662	-15,853	367,868	162,677
164,677	-15,819	367,439	162,514
165,692	-15,783	367,295	162,479
166,706	-15,705	367,055	162,455
167,721	-15,786	366,956	162,297
168,735	-15,479	366,513	162,462
169,750	-15,761	366,457	162,077
170,764	-15,681	366,132	162,018
171,779	-15,430	365,849	162,184
172,794	-15,581	365,611	161,880
173,808	-15,795	365,258	161,449
174,823	-16,230	364,835	160,718
175,837	-16,203	364,500	160,590
176,852	-15,877	364,524	160,982
177,867	-15,739	364,501	161,125
178,881	-15,569	364,140	161,157
179,896	-15,616	363,984	161,016
180,910	-15,682	363,621	160,762
181,925	-15,626	363,332	160,687
182,940	-15,642	363,156	160,575
183,954	-15,518	362,808	160,557
184,969	-15,696	362,803	160,325
185,983	-15,701	362,353	160,107
186,998	-15,550	362,212	160,212
188,013	-15,500	361,817	160,083
189,027	-15,585	361,545	159,847
190,042	-15,699	361,303	159,588
191,056	-15,483	361,029	159,712
192,071	-15,322	360,906	159,837
193,086	-15,356	360,756	159,715
194,100	-14,619	360,863	160,633
195,115	-13,874	360,815	161,491
196,129	-12,815	361,607	163,103
197,144	-8,868	363,329	168,626
198,159	-5,612	364,796	173,228
199,173	-2,524	366,037	177,542
200,188	-2,249	365,813	177,751
201,202	-2,457	365,590	177,375
202,217	-2,330	365,404	177,422
203,232	-1,994	365,366	177,793
204,246	-2,018	365,211	177,673
205,261	-1,662	365,070	178,017
206,275	-1,501	364,927	178,126
207,290	-1,624	364,369	177,689
208,304	-1,873	364,158	177,271
209,319	-1,802	364,019	177,273
210,334	-1,805	363,778	177,137
211,348	-1,681	363,316	177,045
212,363	-1,906	363,106	176,657
213,377	-1,739	362,859	176,721
214,392	-1,617	362,900	176,871
215,407	-1,560	362,770	176,860
216,421	-1,345	362,505	176,973
217,436	-1,416	362,198	176,722
218,450	-1,647	361,865	176,268
219,465	-1,668	361,573	176,085
220,480	-1,639	361,372	176,006
221,494	-1,646	361,035	175,818
222,509	-1,310	361,090	176,230
223,523	-1,139	360,641	176,198
224,538	-1,458	360,411	175,691
225,553	-1,552	360,232	175,476
226,567	-1,489	359,963	175,404
227,582	-1,293	359,925	175,602
228,596	-0,884	359,850	176,035
229,611	-1,171	359,300	175,411
230,626	-1,732	359,042	174,605
231,640	-1,570	358,861	174,694
232,655	-1,238	358,536	174,912
233,669	-1,046	358,499	175,104
234,684	-0,941	358,395	175,162
235,699	-1,156	357,980	174,690
236,713	-1,368	357,663	174,270
237,728	-1,457	357,573	174,106
238,742	-1,617	357,029	173,637
239,757	-1,448	356,768	173,694
240,772	-1,530	356,404	173,404
241,786	-1,618	356,396	173,282
242,801	-1,448	356,375	173,456
243,815	-1,279	356,174	173,541
244,830	-1,376	355,787	173,224
245,844	-1,800	355,493	172,568
246,859	-1,659	355,183	172,567
247,874	-1,286	355,005	172,902
248,888	-1,289	354,941	172,851
249,903	-1,378	354,540	172,536
250,917	-1,570	354,438	172,248
251,932	-1,531	354,066	172,097
252,947	-1,536	353,778	171,936
253,961	-1,607	353,558	171,731
254,976	-1,601	353,442	171,666
255,990	-1,544	353,252	171,625
257,005	-1,307	353,094	171,808
258,020	-1,143	352,866	171,872
259,034	-1,110	352,588	171,759
260,049	-1,322	352,328	171,372
261,063	-1,444	352,068	171,089
262,078	-1,216	351,948	171,280
263,093	-0,968	351,849	171,502
264,107	-0,900	351,623	171,456
265,122	-1,207	351,143	170,852
266,136	-1,190	351,053	170,812
267,151	-1,052	350,918	170,891
268,166	-1,481	350,445	170,152
269,180	-1,779	350,159	169,655
270,195	-1,451	349,833	169,859
271,209	-1,526	349,649	169,669
272,224	-1,488	349,565	169,656
273,239	-1,340	349,385	169,722
274,253	-1,341	349,217	169,625
275,268	-1,554	348,827	169,177
276,282	-1,618	348,459	168,910
277,297	-1,562	348,268	168,866
278,312	-1,392	348,290	169,056
279,326	-1,302	348,002	169,004
280,341	-1,495	347,934	168,736
281,355	-1,273	347,523	168,774
282,370	-1,200	347,325	168,746
283,384	-1,276	346,981	168,477
284,399	-1,494	346,654	168,055
285,414	-1,675	346,552	167,786
286,428	-1,441	346,485	168,005
287,443	-0,992	346,325	168,421
288,457	-1,043	346,161	168,269
289,472	-1,218	345,706	167,835
290,487	-1,539	345,305	167,262
291,501	-1,759	345,024	166,861
292,516	-1,629	344,934	166,950
293,530	-1,641	344,790	166,852
294,545	-1,563	344,570	166,818
295,560	-1,258	344,430	167,080
296,574	-1,300	344,096	166,856
297,589	-1,403	344,032	166,694
298,603	-1,280	343,752	166,682
299,618	-1,423	343,586	166,426
300,633	-1,238	343,373	166,516
301,647	-1,259	343,316	166,449
302,662	-1,043	342,945	166,497
303,676	-1,077	342,752	166,351
304,691	-0,986	342,428	166,280
305,706	-1,153	342,230	165,983
306,720	-1,213	341,910	165,746
307,735	-1,456	341,788	165,400
308,749	-1,259	341,363	165,400
309,764	-1,153	341,420	165,531
310,779	-1,213	341,172	165,329
311,793	-1,265	340,881	165,115
312,808	-1,068	340,723	165,243
313,822	-1,071	340,347	165,043
314,837	-1,363	340,220	164,642
315,852	-1,437	339,978	164,428
316,866	-1,187	339,743	164,577
317,881	-1,146	339,696	164,585
318,895	-1,240	339,449	164,346
319,910	-1,322	339,052	164,048
320,925	-1,592	338,787	163,607
321,939	-1,510	338,476	163,533
322,954	-1,221	338,380	163,791
323,968	-1,058	338,325	163,931
324,983	-0,975	338,312	164,001
325,997	-0,839	338,013	163,991
327,012	-1,051	337,799	163,639
328,027	-1,032	337,610	163,554
329,041	-0,699	337,332	163,771
330,056	-0,974	337,158	163,370
331,070	-1,337	336,926	162,844
332,085	-1,312	336,475	162,639
333,100	-1,131	336,296	162,737
334,114	-1,118	336,149	162,665
335,129	-1,117	335,860	162,512
336,143	-1,170	335,658	162,341
337,158	-0,956	335,520	162,494
338,173	-1,040	335,220	162,243
339,187	-1,165	335,047	162,007
340,202	-1,140	334,776	161,890
341,216	-1,166	334,507	161,717
342,231	-1,240	334,473	161,606
343,246	-1,235	334,067	161,400
344,260	-1,353	333,909	161,181
345,275	-1,131	333,658	161,287
346,289	-1,212	333,601	161,156
347,304	-1,104	333,224	161,078
348,319	-1,171	333,066	160,914
349,333	-0,882	332,844	161,106
350,348	-0,863	332,840	161,110
351,362	-0,670	332,600	161,189
352,377	-0,734	332,347	160,982
353,392	-1,026	332,198	160,580
354,406	-1,046	332,031	160,463
355,421	196,232	1326,062	1385,437
356,435	160,629	1447,017	1385,316
