DTS Sentinel unit serial number:	SN410029Multiplexer serial number:	ORYXHardware model number:	OX2-SRSoftware version number:	ORYX F/W v4,00 Oryx Data Collector v3.7.2.0data status	okinstallation	B6 Nyhavnadifferential loss correction	single-endedforward channel	channel 2reverse channel	N/Adate	2023/12/10time	03:45:08forward acquisition time	300,00reverse acquisition time	0,00gamma	499,1914k internal	0,3125k external	0,3125temperature offset calibration	1,0000default loss term (dB/km)	0,3820temperature slope calibration	1,0000multiplexer offset coefficient	1,0000multiplexer slope coefficient	1,0000fibre end	0,00T internal ref (°C)	22,06T ext. ref 1 (°C)	6,00T ext. ref 2 (°C)	5,97length (m)	temperature (°C)	Stokes	anti-Stokes-744,400	100,050	-0,062	-0,053
-743,385	-4,850	-0,267	0,137
-742,371	317,469	0,033	0,047
-741,356	-79,046	-0,256	0,064
-740,342	14,046	0,107	0,062
-739,327	-76,389	-0,283	0,074
-738,312	187,019	0,069	-0,077
-737,298	-177,682	-0,159	-0,003
-736,283	-200,000	0,001	-0,132
-735,269	75,703	-0,223	0,175
-734,254	800,000	0,045	-0,120
-733,239	-78,418	-0,452	-0,115
-732,225	-41,208	0,048	-0,018
-731,210	-70,055	0,089	0,025
-730,196	-24,224	-0,035	0,015
-729,181	800,000	0,024	0,075
-728,167	173,963	0,032	-0,034
-727,152	349,337	-0,036	-0,054
-726,137	-142,667	-0,043	0,003
-725,123	-200,000	0,016	-0,076
-724,108	70,062	-0,163	-0,125
-723,094	740,658	0,016	-0,033
-722,079	-97,198	-0,097	-0,019
-721,064	106,353	0,125	-0,110
-720,050	-75,362	0,016	0,004
-719,035	-65,177	0,074	-0,022
-718,021	-62,916	-0,033	0,010
-717,006	738,930	0,056	-0,113
-715,991	800,000	-0,050	-0,140
-714,977	-200,000	0,006	-0,147
-713,962	-187,088	-0,060	0,001
-712,948	40,187	0,040	-0,026
-711,933	-200,000	-0,010	-0,121
-710,918	-114,188	-0,212	0,030
-709,904	800,000	-0,042	-0,101
-708,889	23,621	-0,106	-0,065
-707,875	374,290	-0,086	-0,131
-706,860	209,451	0,099	-0,116
-705,845	-200,000	-0,002	-0,105
-704,831	-4,903	0,056	0,029
-703,816	137,451	0,064	0,063
-702,802	238,753	0,096	-0,119
-701,787	-148,048	-0,243	0,015
-700,772	800,000	0,037	-0,096
-699,758	261,459	-0,020	-0,026
-698,743	411,185	0,063	0,100
-697,729	-200,000	-0,002	0,030
-696,714	47,731	0,079	-0,055
-695,699	-200,000	-0,004	0,015
-694,685	178,819	0,078	-0,084
-693,670	-70,886	-0,111	-0,031
-692,656	136,620	-0,078	-0,076
-691,641	-5,954	0,046	0,023
-690,627	-139,163	0,025	0,002
-689,612	174,920	-0,072	0,078
-688,597	-200,000	-0,016	-0,112
-687,583	86,289	0,027	-0,022
-686,568	23,026	-0,111	-0,067
-685,554	24,599	0,075	-0,046
-684,539	-64,192	0,062	0,019
-683,524	-200,000	0,012	0,072
-682,510	253,202	0,068	-0,086
-681,495	-200,000	0,029	0,098
-680,481	93,341	-0,112	0,094
-679,466	-200,000	0,011	-0,082
-678,451	800,000	-0,044	-0,117
-677,437	25,258	0,057	-0,035
-676,422	173,633	0,050	0,054
-675,408	-146,135	-0,123	-0,008
-674,393	-82,156	0,100	-0,024
-673,378	396,313	-0,054	-0,083
-672,364	336,238	-0,029	0,042
-671,349	308,777	-0,043	-0,059
-670,335	73,666	0,051	-0,040
-669,320	-200,000	-0,016	-0,056
-668,305	90,288	0,020	-0,017
-667,291	105,753	-0,111	-0,098
-666,276	314,810	-0,096	-0,135
-665,262	800,000	-0,031	-0,099
-664,247	-200,000	-0,016	-0,082
-663,232	-200,000	0,011	-0,055
-662,218	800,000	-0,018	0,047
-661,203	147,949	-0,040	-0,040
-660,189	-200,000	-0,004	-0,084
-659,174	-200,000	-0,019	-0,077
-658,159	-200,000	0,015	-0,054
-657,145	-124,491	0,134	-0,015
-656,130	57,606	-0,091	-0,066
-655,116	-200,000	-0,006	0,036
-654,101	254,627	-0,104	0,133
-653,086	800,000	-0,023	-0,061
-652,072	-36,263	-0,070	0,028
-651,057	-83,465	-0,114	-0,027
-650,043	-200,000	-0,009	0,068
-649,028	337,433	-0,022	-0,031
-648,014	279,827	0,071	-0,095
-646,999	-0,034	-0,105	0,055
-645,984	-200,000	0,005	0,052
-644,970	643,026	-0,065	0,123
-643,955	4,781	-0,138	-0,075
-642,941	800,000	-0,020	-0,052
-641,926	800,000	-0,035	-0,099
-640,911	-77,890	0,058	-0,015
-639,897	305,757	0,082	-0,114
-638,882	-136,621	-0,086	-0,007
-637,868	24,550	-0,051	-0,031
-636,853	-26,607	-0,081	-0,035
-635,838	200,729	-0,147	-0,168
-634,824	800,000	0,013	-0,040
-633,809	35,714	-0,092	0,060
-632,795	800,000	0,007	-0,019
-631,780	-3,988	0,122	0,062
-630,765	-81,408	-0,063	-0,015
-629,751	-200,000	-0,000	-0,126
-628,736	-75,640	-0,059	0,015
-627,722	-47,428	0,060	-0,021
-626,707	800,000	-0,059	0,123
-625,692	800,000	-0,070	-0,181
-624,678	-200,000	-0,001	0,053
-623,663	-200,000	0,009	-0,062
-622,649	148,590	-0,133	-0,133
-621,634	678,174	0,063	0,121
-620,619	-114,185	-0,079	0,011
-619,605	470,000	-0,089	-0,149
-618,590	52,068	0,084	0,059
-617,576	141,222	-0,029	0,029
-616,561	208,115	-0,079	0,091
-615,546	-200,000	0,026	-0,142
-614,532	123,764	0,031	-0,028
-613,517	-86,227	0,054	-0,012
-612,503	-14,283	0,016	0,008
-611,488	-200,000	-0,018	0,089
-610,474	796,197	-0,046	-0,094
-609,459	800,000	-0,027	-0,057
-608,444	-120,962	0,044	-0,005
-607,430	-199,655	-0,059	0,000
-606,415	-200,000	0,005	-0,148
-605,401	-56,159	0,058	-0,019
-604,386	-200,000	-0,027	0,209
-603,371	800,000	-0,015	0,047
-602,357	-200,000	-0,032	0,109
-601,342	-79,729	-0,139	-0,034
-600,328	-181,121	-0,101	0,001
-599,313	-113,126	-0,104	0,015
-598,298	-113,586	0,015	0,002
-597,284	-103,479	-0,101	0,017
-596,269	32,562	0,106	-0,068
-595,255	102,558	-0,028	0,025
-594,240	-200,000	0,035	-0,170
-593,225	-148,567	-0,093	-0,006
-592,211	-132,704	0,020	0,002
-591,196	-110,554	0,043	-0,007
-590,182	39,673	0,188	0,125
-589,167	800,000	-0,052	0,122
-588,152	-155,889	-0,076	-0,004
-587,138	-112,727	0,109	-0,016
-586,123	48,076	-0,139	-0,096
-585,109	-200,000	-0,013	-0,128
-584,094	-124,998	0,091	-0,010
-583,079	-122,951	0,063	-0,007
-582,065	109,353	0,037	-0,033
-581,050	-200,000	0,024	-0,105
-580,036	26,592	0,041	0,025
-579,021	-59,600	-0,077	-0,024
-578,006	-200,000	0,009	-0,085
-576,992	127,473	0,104	-0,098
-575,977	113,470	0,127	-0,114
-574,963	-200,000	0,027	0,124
-573,948	59,541	-0,149	0,108
-572,934	340,458	0,021	-0,031
-571,919	43,095	0,045	-0,030
-570,904	-29,499	-0,101	0,043
-569,890	-50,198	0,081	0,028
-568,875	43,931	0,084	-0,057
-567,861	3,236	0,037	-0,020
-566,846	-62,983	-0,122	-0,037
-565,831	800,000	-0,029	0,064
-564,817	800,000	-0,047	-0,136
-563,802	-170,232	-0,167	0,004
-562,788	235,419	0,061	0,075
-561,773	43,864	0,042	-0,028
-560,758	-174,130	-0,071	-0,002
-559,744	190,360	-0,047	-0,052
-558,729	7,790	-0,079	-0,044
-557,715	-19,744	-0,088	-0,040
-556,700	16,846	-0,142	0,083
-555,685	-124,236	-0,055	-0,006
-554,671	800,000	-0,055	-0,142
-553,656	445,575	0,022	-0,036
-552,642	-168,899	0,083	-0,002
-551,627	800,000	0,032	0,078
-550,612	40,028	-0,043	-0,029
-549,598	-134,154	-0,097	-0,009
-548,583	800,000	-0,002	-0,006
-547,569	-162,343	-0,025	0,001
-546,554	488,769	0,062	-0,105
-545,539	46,198	0,072	-0,049
-544,525	-200,000	-0,015	-0,124
-543,510	-49,455	-0,086	0,030
-542,496	532,725	0,072	-0,126
-541,481	222,997	-0,154	-0,183
-540,466	765,004	-0,029	-0,059
-539,452	-200,000	0,011	0,118
-538,437	62,560	0,101	0,074
-537,423	-70,317	0,072	-0,020
-536,408	-200,000	-0,033	-0,124
-535,393	-200,000	-0,034	-0,176
-534,379	0,759	0,030	0,016
-533,364	-17,869	0,072	0,033
-532,350	142,896	0,111	-0,109
-531,335	-200,000	0,014	-0,061
-530,321	-200,000	-0,031	0,157
-529,306	-18,557	0,010	-0,004
-528,291	-127,362	0,216	0,023
-527,277	120,740	-0,101	0,093
-526,262	-97,579	-0,129	-0,025
-525,248	-162,612	-0,038	0,001
-524,233	636,305	-0,004	-0,008
-523,218	35,344	0,041	0,026
-522,204	40,638	0,119	0,079
-521,189	-114,308	-0,148	0,021
-520,175	209,640	0,047	-0,054
-519,160	-200,000	-0,001	0,050
-518,145	579,295	0,039	-0,071
-517,131	-130,297	-0,063	-0,006
-516,116	-200,000	0,015	0,087
-515,102	-65,449	0,069	-0,020
-514,087	-200,000	0,009	0,038
-513,072	800,000	-0,043	-0,096
-512,058	24,648	-0,070	0,043
-511,043	-200,000	0,023	-0,096
-510,029	602,962	0,040	0,075
-509,014	-200,000	0,017	0,092
-507,999	229,267	0,056	0,068
-506,985	94,757	-0,076	-0,064
-505,970	60,533	-0,029	0,021
-504,956	-200,000	0,003	-0,115
-503,941	800,000	0,017	0,044
-502,926	181,089	0,043	-0,047
-501,912	-74,782	0,048	0,013
-500,897	-54,286	-0,121	0,040
-499,883	451,380	0,006	-0,010
-498,868	-144,958	0,103	-0,007
-497,853	-200,000	0,003	0,035
-496,839	-200,000	-0,017	-0,085
-495,824	-200,000	0,029	0,107
-494,810	27,270	0,077	-0,047
-493,795	97,080	-0,083	-0,070
-492,781	-200,000	-0,004	0,111
-491,766	434,321	-0,071	0,114
-490,751	4,745	-0,099	-0,054
-489,737	47,634	0,059	0,041
-488,722	92,317	0,145	0,121
-487,708	5,928	0,088	0,048
-486,693	-149,731	-0,107	0,006
-485,678	25,129	-0,086	0,052
-484,664	-200,000	-0,027	-0,116
-483,649	472,420	-0,098	-0,164
-482,635	-200,000	-0,007	-0,058
-481,620	131,761	0,090	-0,086
-480,605	-23,980	0,045	-0,020
-479,591	-200,000	0,011	-0,159
-478,576	345,345	0,007	0,011
-477,562	-106,025	0,027	0,004
-476,547	121,425	0,023	0,022
-475,532	652,263	0,016	-0,029
-474,518	175,701	0,105	0,112
-473,503	-64,932	-0,073	0,022
-472,489	240,824	0,044	-0,054
-471,474	-45,152	-0,151	0,055
-470,459	507,213	0,045	0,078
-469,445	-200,000	-0,006	-0,066
-468,430	5,549	-0,070	0,038
-467,416	-200,000	-0,017	-0,149
-466,401	800,000	0,013	-0,040
-465,386	-70,896	0,049	0,013
-464,372	174,811	0,055	-0,059
-463,357	-200,000	-0,013	-0,059
-462,343	52,219	0,096	0,068
-461,328	800,000	0,031	-0,099
-460,313	156,871	-0,021	-0,022
-459,299	-94,392	0,146	-0,029
-458,284	-41,636	0,093	0,035
-457,270	-200,000	0,111	-0,000
-456,255	361,932	0,014	0,020
-455,241	180,705	0,036	0,038
-454,226	-0,900	-0,104	-0,054
-453,211	-200,000	0,012	0,106
-452,197	11,653	0,082	0,046
-451,182	701,488	-0,078	0,152
-450,168	54,362	0,059	0,042
-449,153	363,197	0,055	-0,082
-448,138	-197,042	0,082	-0,000
-447,124	-130,741	-0,075	-0,007
-446,109	-61,230	0,050	0,015
-445,095	-200,000	0,011	0,055
-444,080	800,000	0,056	-0,151
-443,065	800,000	-0,045	0,093
-442,051	-200,000	-0,005	0,183
-441,036	-55,800	-0,051	0,017
-440,022	220,302	-0,100	-0,118
-439,007	781,489	-0,043	0,087
-437,992	476,807	-0,055	0,092
-436,978	41,505	0,017	-0,011
-435,963	31,988	-0,068	0,043
-434,949	151,430	0,085	0,085
-433,934	800,000	-0,036	-0,087
-432,919	-27,039	0,061	0,026
-431,905	-75,072	0,066	-0,017
-430,890	-50,933	0,080	-0,028
-429,876	800,000	-0,023	0,060
-428,861	145,698	0,159	0,157
-427,846	800,000	-0,060	0,143
-426,832	800,000	-0,025	0,073
-425,817	791,261	0,034	-0,069
-424,803	3,056	-0,101	-0,054
-423,788	-200,000	0,016	0,099
-422,773	-188,977	0,175	-0,002
-421,759	800,000	-0,048	0,111
-420,744	-121,151	-0,099	-0,012
-419,730	40,687	-0,030	0,020
-418,715	610,166	-0,036	-0,066
-417,701	800,000	-0,062	-0,184
-416,686	800,000	-0,026	-0,076
-415,671	-200,000	-0,007	-0,061
-414,657	100,507	0,066	0,056
-413,642	-171,190	-0,104	-0,003
-412,628	-49,288	-0,130	0,045
-411,613	-73,349	-0,128	-0,034
-410,598	-200,000	0,020	-0,076
-409,584	225,016	0,068	-0,081
-408,569	-26,653	0,065	-0,028
-407,555	-200,000	0,004	0,032
-406,540	45,364	0,053	0,036
-405,525	-200,000	-0,008	0,077
-404,511	29,663	0,079	-0,049
-403,496	800,000	0,013	-0,035
-402,482	2,815	0,089	-0,047
-401,467	-200,000	0,006	-0,095
-400,452	800,000	0,026	0,069
-399,438	-200,000	0,005	0,045
-398,423	413,121	0,047	0,074
-397,409	800,000	-0,042	-0,096
-396,394	-22,012	-0,076	0,034
-395,379	-200,000	-0,016	0,063
-394,365	136,298	-0,032	-0,030
-393,350	-34,424	0,104	-0,042
-392,336	387,828	0,012	0,019
-391,321	94,776	-0,028	0,024
-390,306	105,416	0,039	-0,034
-389,292	140,963	0,033	0,032
-388,277	64,339	-0,180	0,133
-387,263	-47,067	0,098	0,035
-386,248	-200,000	0,028	0,156
-385,233	800,000	0,013	0,027
-384,219	144,917	-0,075	0,074
-383,204	289,125	-0,037	0,049
-382,190	800,000	-0,029	0,071
-381,175	-31,156	0,091	0,038
-380,160	-129,631	-0,097	-0,010
-379,146	20,896	-0,027	-0,016
-378,131	128,351	0,085	0,079
-377,117	116,102	-0,158	0,142
-376,102	-200,000	-0,012	0,043
-375,088	127,945	-0,058	-0,054
-374,073	-200,000	0,025	0,092
-373,058	-200,000	0,048	-0,166
-372,044	36,312	0,084	0,055
-371,029	-200,000	0,041	0,173
-370,015	25,949	-0,055	-0,034
-369,000	800,000	-0,022	0,069
-367,985	-200,000	-0,006	-0,045
-366,971	800,000	-0,021	-0,049
-365,956	-24,820	0,124	0,054
-364,942	-37,075	0,121	0,047
-363,927	-200,000	-0,002	0,089
-362,912	369,536	-0,052	0,077
-361,898	128,130	0,042	0,039
-360,883	-106,953	-0,127	0,020
-359,869	-200,000	-0,022	0,240
-358,854	71,729	0,019	-0,014
-357,839	39,299	0,055	-0,036
-356,825	384,026	-0,054	0,082
-355,810	-200,000	0,010	0,093
-354,796	-62,566	-0,064	0,019
-353,781	-200,000	0,013	0,086
-352,766	199,863	-0,155	-0,175
-351,752	716,017	-0,035	-0,068
-350,737	-200,000	0,021	0,146
-349,723	-115,698	0,064	0,009
-348,708	-200,000	0,033	0,160
-347,693	-200,000	-0,020	0,098
-346,679	95,927	-0,094	-0,079
-345,664	-49,662	0,096	-0,033
-344,650	280,937	0,031	-0,040
-343,635	-17,703	0,145	0,067
-342,620	105,267	0,100	0,087
-341,606	27,216	-0,161	0,099
-340,591	-200,000	0,048	0,197
-339,577	-200,000	-0,042	-0,181
-338,562	-200,000	-0,017	-0,063
-337,548	5,190	-0,152	-0,082
-336,533	-200,000	0,007	-0,129
-335,518	439,294	-0,020	0,032
-334,504	16,638	-0,073	0,042
-333,489	-85,753	-0,034	-0,008
-332,475	800,000	0,033	-0,073
-331,460	800,000	0,057	-0,150
-330,445	-112,798	0,020	0,003
-329,431	800,000	0,023	0,067
-328,416	108,900	0,056	-0,049
-327,402	-200,000	0,040	0,137
-326,387	213,274	0,021	0,025
-325,372	800,000	-0,020	0,049
-324,358	800,000	-0,024	0,052
-323,343	-200,000	0,007	0,027
-322,329	-124,188	0,060	-0,007
-321,314	-19,700	0,092	0,041
-320,299	90,062	0,147	0,121
-319,285	187,855	-0,081	0,089
-318,270	-136,206	0,212	0,018
-317,256	29,200	0,101	-0,063
-316,241	87,329	-0,051	-0,042
-315,226	-200,000	0,019	0,061
-314,212	-137,555	-0,042	0,003
-313,197	-200,000	-0,030	-0,116
-312,183	146,497	0,073	0,072
-311,168	800,000	-0,020	0,058
-310,153	-200,000	0,043	0,149
-309,139	404,778	-0,039	0,060
-308,124	157,173	-0,061	0,062
-307,110	800,000	0,051	0,137
-306,095	134,575	0,084	0,080
-305,080	200,711	-0,102	-0,114
-304,066	462,017	0,040	-0,066
-303,051	0,165	-0,055	-0,029
-302,037	-200,000	0,002	-0,053
-301,022	-53,958	0,076	-0,025
-300,008	52,420	0,084	0,058
-298,993	259,217	-0,110	-0,139
-297,978	267,749	0,015	0,019
-296,964	-66,796	0,091	0,026
-295,949	-200,000	-0,014	0,064
-294,935	-10,191	-0,134	-0,065
-293,920	-51,430	0,033	0,011
-292,905	285,025	-0,061	0,081
-291,891	89,999	0,061	0,050
-290,876	372,366	-0,027	-0,041
-289,862	197,647	-0,041	-0,046
-288,847	-200,000	0,005	-0,038
-287,832	-28,774	0,035	0,015
-286,818	-37,502	-0,057	-0,022
-285,803	66,508	-0,125	-0,093
-284,789	-22,767	-0,017	0,008
-283,774	1,381	0,046	-0,024
-282,759	800,000	0,017	-0,046
-281,745	800,000	-0,031	-0,100
-280,730	-0,346	-0,020	0,011
-279,716	106,853	0,101	0,088
-278,701	-122,335	-0,115	-0,014
-277,686	800,000	-0,011	0,030
-276,672	-200,000	0,027	0,090
-275,657	-200,000	0,113	-0,000
-274,643	-71,855	-0,158	-0,043
-273,628	-200,000	0,029	-0,145
-272,613	-200,000	-0,006	-0,065
-271,599	-73,115	-0,029	-0,008
-270,584	-200,000	0,016	-0,071
-269,570	76,727	-0,095	-0,074
-268,555	-57,521	-0,077	0,025
-267,540	381,011	0,036	-0,054
-266,526	236,052	0,038	-0,047
-265,511	210,621	0,089	0,103
-264,497	-200,000	0,001	0,111
-263,482	24,433	0,076	0,046
-262,467	800,000	0,037	0,101
-261,453	341,897	0,030	-0,043
-260,438	109,125	0,050	-0,044
-259,424	-67,438	-0,099	-0,028
-258,409	29,243	-0,056	0,034
-257,395	18,291	0,105	-0,061
-256,380	299,118	0,006	0,008
-255,365	-10,002	0,028	0,013
-254,351	-84,349	-0,085	-0,020
-253,336	-200,000	0,011	-0,137
-252,322	384,412	0,045	-0,068
-251,307	-200,000	0,022	-0,090
-250,292	-38,498	0,203	-0,078
-249,278	163,104	-0,050	-0,052
-248,263	8,319	0,048	0,026
-247,249	315,159	0,037	0,051
-246,234	800,000	-0,051	0,145
-245,219	-146,016	-0,033	0,002
-244,205	800,000	-0,030	0,073
-243,190	-200,000	0,009	0,070
-242,176	-200,000	0,019	0,066
-241,161	-200,000	-0,009	0,057
-240,146	800,000	-0,029	0,083
-239,132	-66,636	0,060	0,017
-238,117	684,067	0,010	-0,019
-237,103	415,902	-0,082	-0,128
-236,088	124,858	0,143	0,131
-235,073	130,309	0,070	0,065
-234,059	-70,823	0,050	0,014
-233,044	-151,117	0,075	-0,004
-232,030	-162,851	-0,056	-0,002
-231,015	86,398	0,080	-0,064
-230,000	-58,435	-0,078	0,025
-228,986	-198,786	0,014	0,000
-227,971	-28,122	0,044	-0,018
-226,957	77,566	0,155	0,121
-225,942	134,828	0,150	0,142
-224,927	-74,669	-0,105	0,027
-223,913	-38,182	-0,069	-0,026
-222,898	-200,000	-0,003	-0,142
-221,884	-200,000	-0,021	-0,206
-220,869	101,341	-0,079	0,067
-219,855	-200,000	0,032	0,106
-218,840	526,844	-0,085	0,147
-217,825	144,296	-0,073	0,071
-216,811	-70,170	0,039	-0,011
-215,796	-66,286	-0,095	0,027
-214,782	223,946	0,037	0,043
-213,767	-200,000	0,028	-0,115
-212,752	36,925	0,057	0,037
-211,738	-200,000	-0,032	-0,129
-210,723	-35,644	0,117	-0,046
-209,709	120,045	-0,080	-0,072
-208,694	-97,385	-0,097	-0,018
-207,679	800,000	0,013	-0,033
-206,665	570,955	0,048	-0,086
-205,650	110,147	-0,069	0,060
-204,636	800,000	0,059	0,180
-203,621	631,268	-0,064	0,119
-202,606	-24,025	0,116	-0,050
-201,592	387,413	0,032	-0,049
-200,577	-200,000	0,012	-0,041
-199,563	800,000	0,034	-0,072
-198,548	-114,625	0,074	-0,010
-197,533	-200,000	0,035	0,118
-196,519	107,523	-0,030	0,026
-195,504	-200,000	-0,023	0,129
-194,490	-200,000	0,015	-0,120
-193,475	6,745	-0,052	-0,028
-192,460	-31,948	-0,082	0,033
-191,446	361,720	0,098	0,144
-190,431	-177,058	0,088	-0,002
-189,417	800,000	-0,007	0,016
-188,402	-200,000	0,002	0,035
-187,387	-60,516	0,092	-0,028
-186,373	-200,000	0,001	-0,192
-185,358	800,000	-0,059	-0,177
-184,344	95,697	-0,090	0,075
-183,329	800,000	0,064	-0,135
-182,315	120,923	-0,048	-0,043
-181,300	-62,718	0,029	-0,009
-180,285	-90,815	-0,039	-0,008
-179,271	-189,155	0,089	-0,001
-178,256	-186,151	-0,047	0,000
-177,242	-200,000	0,023	-0,106
-176,227	60,546	-0,132	0,095
-175,212	426,231	-0,055	0,086
-174,198	800,000	-0,045	-0,097
-173,183	67,263	-0,116	-0,086
-172,169	-49,436	0,037	-0,013
-171,154	-200,000	-0,016	-0,101
-170,139	606,893	-0,052	-0,095
-169,125	-105,991	0,110	0,018
-168,110	-200,000	-0,019	0,097
-167,096	-163,342	-0,089	-0,003
-166,081	13,641	0,136	-0,077
-165,066	56,942	0,015	-0,010
-164,052	159,303	0,018	0,018
-163,037	-123,517	-0,070	0,008
-162,023	-200,000	-0,016	-0,135
-161,008	581,400	0,022	-0,040
-159,993	-200,000	-0,005	0,112
-158,979	61,938	0,055	0,040
-157,964	33,822	-0,088	-0,056
-156,950	83,418	0,066	-0,052
-155,935	157,097	-0,040	0,040
-154,920	120,286	0,162	0,147
-153,906	800,000	0,017	0,053
-152,891	-200,000	0,007	-0,137
-151,877	190,957	-0,067	-0,073
-150,862	-200,000	-0,029	-0,123
-149,847	-200,000	0,013	-0,113
-148,833	-200,000	0,002	0,062
-147,818	-200,000	0,006	-0,102
-146,804	613,611	-0,041	-0,076
-145,789	-67,968	-0,059	-0,017
-144,775	138,168	-0,045	0,043
-143,760	213,611	0,078	-0,090
-142,745	218,510	0,077	-0,090
-141,731	230,251	-0,037	0,044
-140,716	-79,783	0,038	0,009
-139,702	408,261	0,026	0,041
-138,687	-200,000	-0,001	0,056
-137,672	308,956	-0,087	0,118
-136,658	68,411	-0,090	0,067
-135,643	800,000	-0,019	0,046
-134,629	800,000	-0,024	0,069
-133,614	108,631	0,018	0,015
-132,599	644,809	0,055	0,102
-131,585	243,149	-0,045	0,055
-130,570	144,075	-0,078	0,075
-129,556	330,938	0,008	-0,012
-128,541	-101,862	-0,017	0,003
-127,526	-200,000	-0,006	0,074
-126,512	-200,000	0,026	0,134
-125,497	-67,105	0,119	0,034
-124,483	-200,000	-0,018	0,111
-123,468	-190,816	-0,036	-0,000
-122,453	509,380	-0,114	-0,193
-121,439	-109,603	-0,050	-0,008
-120,424	-200,000	0,019	0,120
-119,410	19,954	-0,033	-0,019
-118,395	-200,000	-0,003	0,046
-117,380	294,802	-0,032	0,043
-116,366	237,312	0,102	-0,123
-115,351	-83,650	-0,241	-0,056
-114,337	-200,000	-0,012	-0,062
-113,322	434,938	0,057	-0,090
-112,307	634,610	-0,068	-0,126
-111,293	327,292	-0,070	-0,097
-110,278	-34,647	0,038	0,015
-109,264	258,947	-0,073	0,092
-108,249	-200,000	-0,002	0,101
-107,234	12,653	-0,134	-0,075
-106,220	-200,000	0,026	-0,107
-105,205	-78,460	0,235	-0,058
-104,191	800,000	-0,072	0,160
-103,176	800,000	-0,024	0,056
-102,162	494,735	0,070	-0,116
-101,147	671,753	-0,039	-0,073
-100,132	128,548	0,107	-0,099
-99,118	800,000	0,024	-0,071
-98,103	0,220	-0,071	-0,037
-97,089	-200,000	0,011	-0,067
-96,074	2,528	0,102	-0,054
-95,059	37,886	-0,027	-0,018
-94,045	124,979	-0,061	0,056
-93,030	447,098	-0,068	0,109
-92,016	0,828	0,068	-0,035
-91,001	-200,000	-0,038	-0,124
-89,986	171,527	0,050	-0,052
-88,972	-200,000	-0,028	0,098
-87,957	-29,849	-0,106	0,044
-86,943	800,000	0,064	-0,176
-85,928	190,605	0,039	0,042
-84,913	288,044	0,023	0,030
-83,899	693,895	-0,057	-0,110
-82,884	258,245	-0,011	0,013
-81,870	-200,000	0,005	0,079
-80,855	497,623	-0,058	0,097
-79,840	-124,356	0,140	-0,016
-78,826	800,000	0,054	0,117
-77,811	512,475	-0,062	-0,106
-76,797	-129,568	0,059	-0,006
-75,782	-114,792	0,039	-0,005
-74,767	316,806	0,060	0,082
-73,753	800,000	0,028	-0,059
-72,738	-200,000	0,017	-0,103
-71,724	-46,189	-0,039	-0,014
-70,709	-75,458	0,108	-0,028
-69,694	-149,377	-0,021	0,001
-68,680	167,885	-0,094	0,098
-67,665	56,421	0,144	0,101
-66,651	-80,377	-0,039	-0,009
-65,636	-64,829	-0,124	-0,036
-64,622	650,002	0,078	0,146
-63,607	268,792	-0,087	0,111
-62,592	-143,124	0,104	-0,007
-61,578	-200,000	-0,005	0,085
-60,563	-200,000	-0,008	0,084
-59,549	449,510	0,019	0,031
-58,534	-116,710	-1,461	-0,192
-57,519	470,512	-0,893	-1,462
-56,505	-200,000	-0,847	-4,500
-55,490	-50,590	0,615	-0,209
-54,476	800,000	4,985	11,710
-53,461	-200,000	13,833	253,089
-52,446	-200,000	691,737	2243,296
-51,432	578,501	1623,018	2891,074
-50,417	117,941	1633,763	1459,254
-49,403	72,343	1287,485	971,639
-48,388	37,599	1023,533	657,188
-47,373	24,079	981,140	585,555
-46,359	23,363	970,739	576,978
-45,344	22,335	966,504	571,083
-44,330	22,251	965,194	570,014
-43,315	22,108	963,970	568,801
-42,300	22,094	962,653	567,957
-41,286	22,155	961,571	567,494
-40,271	22,077	960,718	566,715
-39,257	22,054	959,846	566,105
-38,242	22,064	958,961	565,593
-37,227	22,105	958,094	565,191
-36,213	22,032	957,192	564,401
-35,198	22,037	956,339	563,890
-34,184	22,065	955,811	563,648
-33,169	22,029	954,813	562,920
-32,154	22,078	953,875	562,502
-31,140	22,058	953,052	561,931
-30,125	22,165	952,164	561,730
-29,111	22,083	951,470	561,033
-28,096	22,113	950,657	560,630
-27,082	22,114	949,804	560,108
-26,067	22,084	949,191	559,628
-25,052	22,104	948,457	559,236
-24,038	22,152	947,805	558,982
-23,023	22,083	947,390	558,497
-22,009	22,169	946,451	558,195
-20,994	22,068	946,068	557,623
-19,979	22,142	945,380	557,432
-18,965	22,111	944,598	556,851
-17,950	22,100	944,086	556,492
-16,936	22,098	943,317	556,010
-15,921	22,045	942,597	555,396
-14,906	21,948	941,993	554,708
-13,892	21,997	941,299	554,432
-12,877	21,999	940,740	554,089
-11,863	21,922	940,131	553,462
-10,848	21,931	939,683	553,205
-9,833	22,082	939,259	553,414
-8,819	22,059	938,555	552,905
-7,804	21,955	938,030	552,243
-6,790	22,010	937,188	551,898
-5,775	22,009	936,588	551,520
-4,760	22,030	935,970	551,201
-3,746	21,987	935,347	550,676
-2,731	21,862	934,722	549,892
-1,717	21,758	934,062	549,156
-0,702	21,803	933,338	548,848
0,313	21,604	932,774	548,719
1,327	24,752	930,605	557,280
2,342	34,307	795,195	501,602
3,356	32,046	451,268	281,227
4,371	1,259	294,213	152,598
5,386	-3,367	275,064	138,272
6,400	-4,493	269,364	134,349
7,415	-4,839	267,030	132,855
8,429	-4,575	265,711	132,428
9,444	-4,633	264,883	131,951
10,459	-4,780	264,205	131,467
11,473	-4,633	263,735	131,355
12,488	-4,859	263,277	130,910
13,502	-4,924	262,641	130,524
14,517	-4,726	262,081	130,413
15,531	-4,836	261,775	130,150
16,546	-4,795	261,459	130,017
17,561	-4,944	261,135	129,711
18,575	-4,811	260,767	129,636
19,590	-4,817	260,360	129,417
20,604	-4,710	260,041	129,342
21,619	-4,905	259,816	129,044
22,634	-4,852	259,470	128,908
23,648	-4,818	259,044	128,716
24,663	-4,804	258,956	128,673
25,677	-4,673	258,721	128,661
26,692	-4,762	258,397	128,410
27,707	-4,861	258,142	128,184
28,721	-4,934	257,738	127,907
29,736	-5,145	257,776	127,727
30,750	-4,858	257,376	127,772
31,765	-4,828	256,977	127,589
32,780	-4,790	256,962	127,604
33,794	-4,909	256,799	127,406
34,809	-4,779	256,384	127,303
35,823	-5,010	256,157	126,976
36,838	-5,158	255,998	126,755
37,853	-5,008	255,638	126,697
38,867	-5,125	255,455	126,493
39,882	-5,060	255,201	126,413
40,896	-5,022	255,137	126,403
41,911	-5,009	254,907	126,289
42,926	-5,060	254,669	126,116
43,940	-5,120	254,529	125,983
44,955	-5,072	254,249	125,874
45,969	-5,441	254,177	125,505
46,984	-5,240	253,749	125,458
47,999	-5,336	253,233	125,108
49,013	-5,417	253,119	124,970
50,028	-5,643	252,878	124,644
51,042	-5,639	252,725	124,560
52,057	-5,590	252,509	124,486
53,071	-5,581	252,179	124,320
54,086	-5,581	252,149	124,293
55,101	-5,473	251,900	124,253
56,115	-5,297	251,850	124,370
57,130	-4,909	251,683	124,612
58,144	-4,776	251,564	124,657
59,159	-4,688	251,359	124,620
60,174	-4,713	251,160	124,488
61,188	-4,684	250,882	124,364
62,203	-4,779	250,773	124,218
63,217	-5,002	250,593	123,926
64,232	-4,872	250,410	123,936
65,247	-4,648	249,969	123,899
66,261	-5,013	249,994	123,587
67,276	-5,020	249,530	123,341
68,290	-5,251	249,353	123,044
69,305	-5,475	249,105	122,719
70,320	-5,188	248,896	122,851
71,334	-5,049	248,808	122,915
72,349	-4,743	248,542	123,033
73,363	-4,784	248,357	122,896
74,378	-4,728	248,276	122,892
75,393	-4,882	248,051	122,639
76,407	-5,066	247,822	122,359
77,422	-4,990	247,782	122,392
78,436	-4,913	247,537	122,327
79,451	-4,786	247,168	122,241
80,466	-4,900	247,059	122,079
81,480	-5,049	246,797	121,813
82,495	-5,109	246,522	121,615
83,509	-4,992	246,362	121,625
84,524	-5,018	246,081	121,453
85,539	-5,243	245,901	121,164
86,553	-5,034	245,715	121,237
87,568	-5,237	245,629	121,013
88,582	-5,114	245,495	121,040
89,597	-5,132	245,146	120,842
90,611	-4,885	245,016	120,975
91,626	-4,775	244,862	120,979
92,641	-4,926	244,847	120,835
93,655	-4,964	244,554	120,648
94,670	-4,889	244,353	120,600
95,684	-5,072	244,193	120,357
96,699	-5,015	244,091	120,344
97,714	-5,189	243,778	120,034
98,728	-5,192	243,675	119,970
99,743	-5,028	243,283	119,903
100,757	-5,134	243,082	119,705
101,772	-5,271	243,023	119,551
102,787	-5,181	242,802	119,506
103,801	-5,376	242,726	119,297
104,816	-4,965	242,496	119,514
105,830	-4,807	242,443	119,608
106,845	-4,836	242,217	119,463
107,860	-5,077	242,123	119,205
108,874	-5,010	241,837	119,109
109,889	-4,862	241,618	119,113
110,903	-4,979	241,458	118,927
111,918	-4,987	241,265	118,815
112,933	-5,046	241,160	118,704
113,947	-4,916	241,001	118,723
114,962	-4,819	240,777	118,681
115,976	-5,135	240,776	118,410
116,991	-5,006	240,448	118,344
118,006	-5,064	240,363	118,244
119,020	-5,068	240,273	118,186
120,035	-4,803	240,135	118,325
121,049	-4,912	239,901	118,110
122,064	-4,793	239,537	118,017
123,079	-5,170	239,538	117,699
124,093	-5,058	239,286	117,657
125,108	-5,382	239,102	117,291
126,122	-5,221	238,643	117,186
127,137	-5,368	238,555	117,013
128,151	-5,394	238,416	116,914
129,166	-5,015	238,402	117,205
130,181	-5,237	238,033	116,832
131,195	-5,060	237,921	116,911
132,210	-5,081	237,796	116,821
133,224	-4,889	237,600	116,870
134,239	-4,964	237,588	116,793
135,254	-4,940	237,278	116,650
136,268	-4,791	237,016	116,632
137,283	-5,136	236,765	116,218
138,297	-5,341	236,666	115,995
139,312	-5,444	236,337	115,740
140,327	-5,160	236,433	116,005
141,341	-4,770	236,412	116,299
142,356	-4,586	236,242	116,353
143,370	-4,811	236,156	116,119
144,385	-4,598	235,823	116,116
145,400	-4,534	235,687	116,091
146,414	-4,696	235,551	115,883
147,429	-4,483	235,176	115,859
148,443	-4,786	235,168	115,602
149,458	-4,933	235,066	115,424
150,473	-4,717	234,932	115,520
151,487	-4,677	234,692	115,424
152,502	-4,685	234,486	115,306
153,516	-4,573	234,305	115,296
154,531	-4,720	234,195	115,115
155,546	-4,584	233,941	115,088
156,560	-4,867	233,804	114,785
157,575	-4,817	233,599	114,714
158,589	-4,747	233,392	114,658
159,604	-4,561	233,279	114,740
160,619	-4,528	233,136	114,686
161,633	-4,363	232,941	114,710
162,648	-4,624	232,923	114,484
163,662	-4,412	232,710	114,537
164,677	-4,721	232,604	114,230
165,692	-4,505	232,418	114,300
166,706	-4,429	232,272	114,278
167,721	-4,551	232,191	114,131
168,735	-4,641	232,114	114,012
169,750	-4,752	231,910	113,814
170,764	-4,590	231,754	113,855
171,779	-4,576	231,621	113,791
172,794	-4,510	231,435	113,741
173,808	-4,586	231,145	113,529
174,823	-4,999	230,720	112,986
175,837	-5,090	230,517	112,805
176,852	-4,942	230,645	112,973
177,867	-4,528	230,561	113,246
178,881	-4,749	230,396	112,983
179,896	-4,526	230,233	113,067
180,910	-4,522	230,069	112,979
181,925	-4,591	229,975	112,870
182,940	-4,591	229,889	112,817
183,954	-4,456	229,584	112,762
184,969	-4,470	229,520	112,710
185,983	-4,337	229,332	112,711
186,998	-4,379	229,131	112,570
188,013	-4,255	228,956	112,570
189,027	-4,524	228,865	112,307
190,042	-4,303	228,817	112,444
191,056	-4,389	228,572	112,247
192,071	-4,278	228,516	112,295
193,086	-4,297	228,243	112,137
194,100	-4,664	228,114	111,780
195,115	-4,810	227,742	111,474
196,129	-5,486	227,451	110,801
197,144	-3,306	228,178	112,832
198,159	0,619	229,285	116,416
199,173	3,696	230,019	119,169
200,188	4,301	229,982	119,608
201,202	4,021	229,905	119,341
202,217	4,094	229,875	119,371
203,232	4,426	229,516	119,431
204,246	4,437	229,474	119,407
205,261	4,457	229,372	119,359
206,275	4,605	229,255	119,402
207,290	4,690	229,185	119,420
208,304	4,575	229,100	119,277
209,319	4,481	228,842	119,059
210,334	4,704	228,635	119,113
211,348	4,116	228,484	118,570
212,363	3,868	228,123	118,182
213,377	3,731	227,900	117,951
214,392	3,857	227,702	117,935
215,407	3,939	227,631	117,950
216,421	3,984	227,619	117,968
217,436	3,824	227,383	117,712
218,450	3,508	227,215	117,373
219,465	3,627	226,922	117,302
220,480	3,330	226,896	117,051
221,494	3,605	226,688	117,143
222,509	3,727	226,606	117,184
223,523	3,664	226,497	117,069
224,538	3,838	226,194	117,034
225,553	3,639	226,156	116,853
226,567	3,657	226,030	116,791
227,582	3,859	225,938	116,887
228,596	4,266	225,784	117,106
229,611	3,788	225,735	116,706
230,626	3,519	225,447	116,344
231,640	3,615	225,307	116,334
232,655	3,755	225,314	116,434
233,669	4,288	225,226	116,780
234,684	4,368	225,101	116,766
235,699	4,262	224,811	116,525
236,713	3,911	224,570	116,125
237,728	4,081	224,249	116,077
238,742	3,758	224,274	115,836
239,757	3,786	224,003	115,706
240,772	3,653	223,834	115,509
241,786	3,658	223,796	115,483
242,801	3,929	223,783	115,670
243,815	4,231	223,690	115,838
244,830	4,098	223,432	115,594
245,844	4,060	223,210	115,441
246,859	3,902	223,073	115,241
247,874	3,990	223,065	115,293
248,888	4,236	222,809	115,334
249,903	4,012	222,705	115,102
250,917	3,830	222,445	114,822
251,932	3,773	222,327	114,709
252,947	3,807	222,066	114,589
253,961	3,655	221,982	114,422
254,976	3,669	221,899	114,379
255,990	4,032	221,872	114,626
257,005	3,889	221,661	114,400
258,020	3,822	221,559	114,287
259,034	4,306	221,533	114,623
260,049	3,788	221,218	114,066
261,063	3,952	221,125	114,129
262,078	3,963	221,096	114,112
263,093	4,203	220,840	114,148
264,107	4,186	220,596	113,999
265,122	4,177	220,659	114,015
266,136	4,394	220,441	114,052
267,151	4,447	220,288	114,002
268,166	4,044	220,079	113,586
269,180	3,580	219,785	113,082
270,195	3,706	219,643	113,092
271,209	3,649	219,681	113,060
272,224	3,816	219,649	113,156
273,239	3,889	219,383	113,063
274,253	3,808	219,230	112,914
275,268	3,657	218,948	112,648
276,282	3,639	218,802	112,550
277,297	3,495	218,579	112,319
278,312	3,552	218,642	112,384
279,326	3,772	218,477	112,450
280,341	3,675	218,354	112,306
281,355	3,993	218,302	112,502
282,370	3,877	218,120	112,313
283,384	3,738	217,873	112,074
284,399	3,542	217,696	111,830
285,414	3,460	217,618	111,721
286,428	3,806	217,597	111,952
287,443	3,701	217,437	111,783
288,457	3,655	217,348	111,694
289,472	3,826	216,982	111,620
290,487	3,348	216,824	111,182
291,501	3,223	216,557	110,944
292,516	3,281	216,414	110,903
293,530	3,302	216,540	110,973
294,545	3,392	216,175	110,842
295,560	3,558	216,117	110,922
296,574	3,779	216,146	111,086
297,589	3,831	215,912	110,994
298,603	4,064	215,747	111,067
299,618	3,773	215,847	110,899
300,633	3,740	215,645	110,761
301,647	3,879	215,539	110,797
302,662	4,109	215,392	110,878
303,676	3,817	215,330	110,625
304,691	3,862	215,151	110,556
305,706	3,833	214,981	110,438
306,720	4,017	214,765	110,450
307,735	3,939	214,640	110,319
308,749	3,789	214,473	110,116
309,764	3,945	214,447	110,204
310,779	4,058	214,245	110,171
311,793	3,860	214,160	109,977
312,808	3,741	214,105	109,853
313,822	3,680	213,829	109,658
314,837	3,720	213,674	109,598
315,852	3,602	213,619	109,476
316,866	3,630	213,442	109,395
317,881	3,679	213,375	109,386
318,895	3,889	213,164	109,417
319,910	3,719	212,999	109,202
320,925	3,661	212,823	109,061
321,939	3,273	212,519	108,620
322,954	3,500	212,486	108,755
323,968	3,744	212,525	108,938
324,983	3,861	212,403	108,948
325,997	4,118	212,181	109,007
327,012	3,997	212,100	108,870
328,027	3,958	211,999	108,781
329,041	3,850	212,013	108,702
330,056	4,231	211,806	108,855
331,070	3,972	211,475	108,493
332,085	3,528	211,283	108,072
333,100	3,691	211,205	108,137
334,114	3,807	211,068	108,139
335,129	3,845	211,045	108,144
336,143	3,801	210,851	108,004
337,158	3,706	210,668	107,834
338,173	3,758	210,440	107,744
339,187	3,629	210,435	107,641
340,202	3,588	210,218	107,492
341,216	3,595	209,958	107,355
342,231	3,619	209,914	107,339
343,246	3,540	209,772	107,202
344,260	3,916	209,682	107,409
345,275	3,798	209,614	107,282
346,289	3,839	209,444	107,214
347,304	4,007	209,435	107,318
348,319	3,847	209,254	107,104
349,333	3,818	209,054	106,972
350,348	3,665	209,024	106,840
351,362	4,192	208,828	107,097
352,377	4,246	208,782	107,101
353,392	3,829	208,593	106,705
354,406	3,962	208,436	106,708
355,421	193,775	1344,991	1431,982
356,435	154,607	1483,560	1432,089
