DTS Sentinel unit serial number:	SN410029Multiplexer serial number:	ORYXHardware model number:	OX2-SRSoftware version number:	ORYX F/W v4,00 Oryx Data Collector v3.7.2.0data status	okinstallation	B6 Nyhavnadifferential loss correction	single-endedforward channel	channel 2reverse channel	N/Adate	2023/12/09time	20:40:08forward acquisition time	300,00reverse acquisition time	0,00gamma	499,1914k internal	0,3129k external	0,3129temperature offset calibration	1,0000default loss term (dB/km)	0,3820temperature slope calibration	1,0000multiplexer offset coefficient	1,0000multiplexer slope coefficient	1,0000fibre end	0,00T internal ref (°C)	21,38T ext. ref 1 (°C)	5,39T ext. ref 2 (°C)	5,39length (m)	temperature (°C)	Stokes	anti-Stokes-744,400	-200,000	-0,003	-0,075
-743,385	-106,364	-0,232	0,038
-742,371	-12,595	0,169	-0,082
-741,356	303,897	-0,146	0,201
-740,342	-200,000	0,007	0,166
-739,327	28,280	-0,219	0,137
-738,312	-12,991	0,125	-0,060
-737,298	-146,943	-0,230	0,014
-736,283	-200,000	0,018	0,112
-735,269	-31,816	-0,262	0,109
-734,254	67,584	0,131	0,100
-733,239	-62,996	-0,300	-0,092
-732,225	-87,534	0,150	0,033
-731,210	-200,000	-0,009	0,116
-730,196	249,636	-0,030	0,038
-729,181	800,000	0,023	0,052
-728,167	241,338	0,031	-0,038
-727,152	-114,795	0,065	0,009
-726,137	-25,167	-0,089	-0,039
-725,123	-99,285	-0,103	-0,019
-724,108	-200,000	-0,019	-0,115
-723,094	36,045	-0,091	-0,059
-722,079	-87,380	-0,210	-0,047
-721,064	800,000	0,064	-0,138
-720,050	90,564	-0,033	-0,027
-719,035	-200,000	0,142	0,000
-718,021	-91,000	0,040	-0,008
-717,006	-157,265	-0,181	0,008
-715,991	43,863	-0,219	-0,149
-714,977	187,660	0,028	-0,031
-713,962	200,990	0,018	-0,021
-712,948	800,000	0,054	0,155
-711,933	-200,000	0,007	0,054
-710,918	800,000	0,066	-0,187
-709,904	30,301	0,117	0,074
-708,889	142,223	0,040	0,040
-707,875	28,180	-0,052	0,032
-706,860	170,525	-0,035	-0,037
-705,845	-9,111	-0,088	-0,044
-704,831	-85,698	0,018	0,004
-703,816	-200,000	-0,002	0,030
-702,802	800,000	-0,015	-0,043
-701,787	800,000	0,014	-0,031
-700,772	-200,000	-0,004	-0,119
-699,758	-200,000	-0,004	-0,021
-698,743	-37,685	-0,068	0,027
-697,729	-14,044	0,097	-0,046
-696,714	80,677	0,112	-0,090
-695,699	393,694	-0,086	-0,134
-694,685	-200,000	-0,003	0,056
-693,670	-61,220	-0,101	-0,031
-692,656	-200,000	0,003	0,017
-691,641	-200,000	0,018	0,130
-690,627	-57,143	0,116	-0,038
-689,612	316,103	0,037	-0,052
-688,597	-54,030	-0,123	-0,041
-687,583	800,000	0,020	-0,051
-686,568	800,000	-0,015	0,049
-685,554	37,801	-0,092	0,060
-684,539	248,241	0,045	-0,056
-683,524	-18,572	-0,107	0,049
-682,510	341,797	-0,034	0,050
-681,495	-200,000	0,014	0,182
-680,481	-200,000	0,002	-0,080
-679,466	-200,000	-0,005	-0,058
-678,451	-200,000	0,008	-0,142
-677,437	800,000	0,001	0,002
-676,422	800,000	-0,026	0,054
-675,408	273,092	0,059	0,078
-674,393	-200,000	0,013	-0,105
-673,378	200,422	-0,082	-0,093
-672,364	-124,676	0,103	-0,012
-671,349	-151,542	-0,010	-0,001
-670,335	298,452	0,085	-0,117
-669,320	-145,150	-0,093	-0,006
-668,305	-200,000	-0,024	0,121
-667,291	-25,952	-0,179	0,078
-666,276	242,651	0,036	0,045
-665,262	595,941	-0,052	-0,096
-664,247	-200,000	0,014	-0,048
-663,232	-70,039	0,095	0,027
-662,218	245,303	-0,026	0,033
-661,203	330,783	-0,032	0,046
-660,189	-200,000	-0,007	0,080
-659,174	-200,000	-0,013	-0,152
-658,159	-200,000	-0,006	-0,117
-657,145	268,579	0,075	-0,097
-656,130	53,181	-0,025	0,018
-655,116	207,108	0,156	0,180
-654,101	800,000	0,028	0,066
-653,086	9,963	-0,052	0,029
-652,072	-200,000	0,007	0,053
-651,057	138,745	-0,028	-0,027
-650,043	36,177	0,028	-0,018
-649,028	75,917	0,114	0,089
-648,014	24,436	-0,097	-0,059
-646,999	150,734	-0,125	-0,126
-645,984	172,836	0,028	-0,030
-644,970	-40,402	-0,110	0,042
-643,955	-200,000	-0,003	-0,048
-642,941	-200,000	-0,040	-0,186
-641,926	389,272	0,080	0,123
-640,911	135,109	-0,037	-0,036
-639,897	143,068	-0,077	-0,076
-638,882	-86,376	-0,206	0,047
-637,868	-200,000	0,005	-0,031
-636,853	-129,650	-0,051	-0,005
-635,838	216,802	-0,059	-0,069
-634,824	-24,794	-0,051	-0,022
-633,809	-114,936	0,113	-0,016
-632,795	800,000	-0,025	0,056
-631,780	-46,168	0,062	-0,022
-630,765	378,184	-0,049	-0,074
-629,751	-34,327	-0,077	-0,031
-628,736	-131,554	-0,048	-0,005
-627,722	-64,175	-0,145	-0,044
-626,707	-30,213	0,095	0,040
-625,692	611,923	-0,051	0,096
-624,678	125,661	-0,140	0,131
-623,663	-200,000	-0,036	0,127
-622,649	58,676	-0,085	-0,062
-621,634	223,340	-0,020	-0,024
-620,619	54,419	-0,097	0,069
-619,605	-200,000	-0,007	-0,170
-618,590	15,798	-0,118	0,069
-617,576	-154,208	0,092	0,005
-616,561	800,000	-0,057	0,125
-615,546	-69,639	-0,071	-0,020
-614,532	447,592	-0,058	-0,095
-613,517	-136,068	0,094	-0,008
-612,503	29,073	-0,088	-0,055
-611,488	800,000	-0,007	0,018
-610,474	-12,842	0,113	-0,054
-609,459	-200,000	0,002	-0,059
-608,444	-200,000	0,005	-0,137
-607,430	249,619	0,045	-0,056
-606,415	-200,000	-0,015	-0,052
-605,401	-47,134	0,050	-0,018
-604,386	-160,591	0,022	0,001
-603,371	-186,061	0,203	-0,002
-602,357	-44,319	0,032	-0,012
-601,342	800,000	0,033	-0,085
-600,328	800,000	0,014	0,035
-599,313	207,739	0,070	-0,081
-598,298	-200,000	0,023	0,078
-597,284	-200,000	0,006	0,048
-596,269	800,000	-0,012	0,032
-595,255	-200,000	0,015	-0,063
-594,240	800,000	-0,071	-0,153
-593,225	-4,402	-0,033	-0,017
-592,211	20,766	0,079	-0,047
-591,196	-200,000	0,008	-0,044
-590,182	285,738	-0,075	0,100
-589,167	-76,386	-0,061	-0,016
-588,152	-48,469	-0,081	0,029
-587,138	-200,000	-0,033	0,184
-586,123	70,905	0,062	0,048
-585,109	800,000	0,023	-0,067
-584,094	800,000	0,016	0,052
-583,079	325,144	-0,042	0,060
-582,065	-48,108	0,057	-0,020
-581,050	49,822	0,080	-0,056
-580,036	435,664	-0,025	0,040
-579,021	16,969	-0,028	0,017
-578,006	393,081	-0,074	-0,114
-576,992	-200,000	-0,007	-0,070
-575,977	482,570	0,033	0,055
-574,963	-45,300	-0,067	0,024
-573,948	-50,987	0,051	0,018
-572,934	-17,713	-0,131	0,061
-571,919	706,761	-0,051	0,099
-570,904	347,005	-0,020	0,029
-569,890	800,000	-0,042	-0,093
-568,875	209,748	0,032	-0,037
-567,861	155,548	-0,078	-0,080
-566,846	-200,000	-0,046	0,195
-565,831	-122,489	0,065	0,008
-564,817	-200,000	-0,002	-0,032
-563,802	548,137	-0,028	-0,049
-562,788	748,123	0,063	-0,126
-561,773	206,785	-0,013	0,015
-560,758	446,302	0,035	0,057
-559,744	-40,674	0,084	0,032
-558,729	450,275	-0,031	0,051
-557,715	316,389	-0,029	0,040
-556,700	15,763	0,033	0,019
-555,685	24,404	-0,124	-0,075
-554,671	106,776	0,060	0,052
-553,656	108,473	-0,035	-0,031
-552,642	800,000	-0,045	0,112
-551,627	-174,321	0,160	-0,003
-550,612	800,000	-0,029	-0,067
-549,598	800,000	0,025	-0,052
-548,583	402,398	0,040	-0,062
-547,569	-200,000	0,010	-0,137
-546,554	800,000	0,046	-0,104
-545,539	-200,000	0,020	0,111
-544,525	53,593	-0,072	-0,051
-543,510	528,645	0,057	0,101
-542,496	-147,066	-0,047	0,003
-541,481	8,220	-0,066	0,036
-540,466	-46,967	-0,049	0,018
-539,452	575,514	0,033	0,060
-538,437	65,493	0,117	0,087
-537,423	800,000	-0,016	-0,035
-536,408	-200,000	-0,005	0,057
-535,393	-158,543	0,044	0,002
-534,379	-158,235	-0,102	0,004
-533,364	800,000	0,053	-0,154
-532,350	-200,000	0,023	-0,152
-531,335	-34,288	-0,018	0,007
-530,321	-200,000	0,024	0,146
-529,306	448,877	-0,012	-0,019
-528,291	221,640	-0,077	-0,092
-527,277	240,827	-0,095	-0,117
-526,262	202,124	0,032	0,036
-525,248	67,464	-0,106	-0,080
-524,233	363,660	-0,052	0,078
-523,218	-79,939	-0,083	-0,021
-522,204	-200,000	0,004	-0,165
-521,189	-200,000	0,018	-0,101
-520,175	347,635	-0,022	0,032
-519,160	-200,000	0,044	-0,145
-518,145	-58,936	-0,067	-0,021
-517,131	495,347	0,044	0,075
-516,116	10,602	0,116	0,065
-515,102	514,420	0,055	-0,096
-514,087	800,000	-0,018	0,055
-513,072	-200,000	-0,014	-0,076
-512,058	-200,000	0,015	-0,060
-511,043	-200,000	0,025	0,127
-510,029	607,911	0,093	-0,172
-509,014	800,000	0,052	0,137
-507,999	391,378	-0,011	-0,017
-506,985	800,000	0,006	0,016
-505,970	44,336	-0,178	-0,120
-504,956	30,674	-0,047	0,029
-503,941	-200,000	0,012	-0,093
-502,926	19,158	-0,114	0,067
-501,912	-200,000	0,011	-0,038
-500,897	249,383	-0,065	0,081
-499,883	311,741	0,082	0,113
-498,868	-200,000	-0,004	-0,059
-497,853	800,000	-0,021	-0,061
-496,839	48,206	-0,046	0,032
-495,824	171,800	0,050	-0,053
-494,810	288,034	0,008	0,011
-493,795	449,363	0,090	0,146
-492,781	290,910	-0,047	0,063
-491,766	-42,555	0,045	-0,017
-490,751	543,958	-0,060	0,105
-489,737	-3,073	-0,024	0,012
-488,722	114,893	0,058	-0,052
-487,708	-200,000	-0,015	0,064
-486,693	518,969	-0,031	0,054
-485,678	97,134	-0,059	-0,050
-484,664	-81,280	-0,087	-0,021
-483,649	800,000	-0,027	-0,068
-482,635	267,741	0,089	0,114
-481,620	42,948	0,059	0,039
-480,605	-21,861	0,088	0,039
-479,591	63,939	0,026	0,019
-478,576	-128,547	-0,189	-0,019
-477,562	-61,425	0,076	-0,024
-476,547	-200,000	-0,010	-0,116
-475,532	-101,248	-0,245	-0,044
-474,518	163,762	-0,047	0,049
-473,503	31,192	0,136	0,086
-472,489	434,849	0,091	0,146
-471,474	-200,000	0,004	-0,068
-470,459	0,363	0,017	0,009
-469,445	-200,000	0,057	-0,189
-468,430	-75,740	-0,018	0,005
-467,416	-72,843	-0,040	-0,011
-466,401	25,380	-0,060	-0,037
-465,386	-169,616	0,082	-0,002
-464,372	-162,199	0,126	0,005
-463,357	-111,497	0,104	0,015
-462,343	-25,636	0,024	0,010
-461,328	648,650	0,005	0,010
-460,313	-200,000	-0,017	0,119
-459,299	800,000	0,029	0,060
-458,284	548,198	0,012	0,022
-457,270	-133,843	-0,055	0,005
-456,255	-200,000	0,027	0,104
-455,241	-12,463	0,074	-0,036
-454,226	-200,000	-0,010	-0,153
-453,211	-26,898	-0,105	-0,045
-452,197	-27,772	0,027	-0,012
-451,182	-56,492	-0,200	-0,065
-450,168	182,230	0,068	-0,074
-449,153	-200,000	-0,024	-0,113
-448,138	-120,057	0,104	-0,013
-447,124	216,801	-0,032	0,037
-446,109	470,424	0,033	0,054
-445,095	800,000	-0,027	0,059
-444,080	800,000	0,034	0,091
-443,065	22,988	-0,064	-0,038
-442,051	104,391	0,103	0,089
-441,036	-200,000	-0,009	0,063
-440,022	-97,389	-0,054	-0,010
-439,007	554,714	-0,067	0,120
-437,992	225,609	0,053	0,064
-436,978	-110,842	0,019	0,003
-435,963	78,593	-0,061	0,048
-434,949	754,986	-0,022	0,044
-433,934	119,445	-0,144	-0,131
-432,919	-158,717	-0,052	0,002
-431,905	142,086	0,067	-0,065
-430,890	-40,685	0,118	0,045
-429,876	-67,529	0,084	-0,024
-428,861	-200,000	0,011	-0,041
-427,846	170,629	-0,109	-0,115
-426,832	-200,000	-0,005	-0,055
-425,817	-134,095	-0,099	-0,009
-424,803	-54,455	0,023	-0,008
-423,788	-182,401	0,033	0,000
-422,773	260,392	0,076	-0,097
-421,759	389,056	0,085	0,130
-420,744	-7,182	-0,088	0,044
-419,730	784,766	0,029	-0,059
-418,715	-200,000	-0,002	0,121
-417,701	-200,000	0,024	0,123
-416,686	-200,000	0,004	0,076
-415,671	406,454	0,079	0,123
-414,657	256,184	0,024	-0,030
-413,642	-39,684	-0,126	0,048
-412,628	-200,000	-0,006	0,025
-411,613	95,992	-0,078	-0,066
-410,598	160,841	0,035	-0,036
-409,584	-200,000	-0,014	-0,057
-408,569	-200,000	0,020	0,164
-407,555	-22,768	-0,058	0,026
-406,540	182,315	-0,045	-0,049
-405,525	53,297	0,020	-0,014
-404,511	-200,000	-0,003	-0,092
-403,496	253,016	0,038	-0,048
-402,482	47,047	-0,167	0,114
-401,467	-200,000	0,023	0,115
-400,452	-179,616	-0,015	0,000
-399,438	-200,000	-0,024	0,163
-398,423	800,000	-0,032	0,081
-397,409	-160,605	-0,067	0,003
-396,394	88,683	-0,049	-0,040
-395,379	-97,520	0,100	0,019
-394,365	-48,090	0,111	-0,039
-393,350	-200,000	0,009	-0,039
-392,336	240,922	-0,005	-0,006
-391,321	291,878	-0,055	0,073
-390,306	212,696	-0,088	0,102
-389,292	87,894	0,099	-0,081
-388,277	244,906	0,065	-0,080
-387,263	185,016	-0,055	-0,059
-386,248	-200,000	0,003	0,184
-385,233	-70,865	0,125	-0,034
-384,219	15,962	0,178	-0,103
-383,204	-200,000	-0,038	-0,147
-382,190	-200,000	-0,024	-0,204
-381,175	226,302	0,044	-0,052
-380,160	-200,000	0,001	-0,026
-379,146	171,945	-0,048	0,050
-378,131	800,000	-0,024	0,053
-377,117	48,844	-0,070	-0,048
-376,102	-75,737	0,047	-0,012
-375,088	-200,000	0,012	-0,140
-374,073	-138,135	-0,138	-0,011
-373,058	-52,227	0,082	0,028
-372,044	-200,000	0,033	-0,144
-371,029	-200,000	0,008	0,118
-370,015	-200,000	0,004	0,024
-369,000	-90,766	-0,112	0,024
-367,985	800,000	-0,016	-0,032
-366,971	137,804	-0,035	-0,034
-365,956	593,589	-0,059	0,107
-364,942	-22,606	0,024	-0,011
-363,927	156,239	0,015	-0,015
-362,912	-70,668	0,072	0,020
-361,898	800,000	0,052	-0,129
-360,883	200,064	-0,072	-0,081
-359,869	-200,000	0,040	-0,135
-358,854	-200,000	-0,009	0,122
-357,839	236,666	0,074	0,090
-356,825	64,783	0,134	0,099
-355,810	-200,000	-0,041	0,151
-354,796	800,000	-0,062	-0,145
-353,781	-30,264	-0,089	0,037
-352,766	-200,000	-0,028	-0,106
-351,752	428,331	-0,022	-0,034
-350,737	66,257	0,048	-0,035
-349,723	122,651	0,052	0,048
-348,708	144,978	0,161	-0,158
-347,693	-200,000	0,002	0,050
-346,679	-134,431	-0,129	-0,011
-345,664	800,000	-0,016	0,033
-344,650	-200,000	-0,020	-0,093
-343,635	800,000	-0,018	0,045
-342,620	261,214	0,061	0,077
-341,606	-43,508	-0,079	0,029
-340,591	-111,723	-0,083	0,012
-339,577	253,760	0,053	-0,067
-338,562	-200,000	0,007	0,048
-337,548	-106,805	-0,078	-0,013
-336,533	104,103	0,170	-0,147
-335,518	785,230	-0,052	0,106
-334,504	387,183	-0,029	0,045
-333,489	-200,000	0,034	0,160
-332,475	16,901	0,074	0,043
-331,460	22,042	0,094	-0,056
-330,445	189,544	-0,138	-0,151
-329,431	265,288	0,068	-0,087
-328,416	800,000	-0,038	-0,100
-327,402	-200,000	0,008	0,103
-326,387	173,715	-0,072	-0,076
-325,372	-200,000	-0,018	0,128
-324,358	800,000	-0,026	-0,066
-323,343	452,420	-0,023	-0,038
-322,329	516,174	0,101	0,173
-321,314	-200,000	-0,003	-0,034
-320,299	-103,178	0,153	-0,026
-319,285	425,354	-0,026	0,042
-318,270	-12,911	-0,076	0,036
-317,256	599,153	-0,006	0,011
-316,241	-147,973	0,094	-0,006
-315,226	-200,000	-0,013	0,057
-314,212	154,718	0,103	-0,104
-313,197	-200,000	-0,020	0,085
-312,183	-115,228	0,170	0,023
-311,168	-200,000	-0,013	-0,046
-310,153	-121,495	-0,035	-0,004
-309,139	800,000	-0,060	-0,151
-308,124	114,466	-0,036	0,032
-307,110	-12,022	0,062	0,030
-306,095	43,277	0,094	0,063
-305,080	238,636	0,060	0,074
-304,066	-109,853	-0,043	-0,007
-303,051	-200,000	0,007	-0,102
-302,037	116,874	0,019	0,017
-301,022	800,000	-0,016	-0,042
-300,008	-200,000	-0,002	-0,011
-298,993	-58,677	-0,200	0,063
-297,978	-121,282	-0,114	0,014
-296,964	487,534	-0,033	-0,056
-295,949	43,191	-0,033	-0,022
-294,935	49,947	0,041	0,028
-293,920	326,706	0,072	-0,101
-292,905	-200,000	0,034	0,114
-291,891	-107,803	0,068	-0,011
-290,876	-14,046	-0,052	-0,025
-289,862	218,885	-0,073	-0,085
-288,847	415,276	-0,073	0,114
-287,832	-42,584	0,069	0,025
-286,818	349,756	-0,072	-0,105
-285,803	800,000	0,034	0,091
-284,789	195,798	-0,090	0,100
-283,774	325,292	0,070	0,099
-282,759	-75,230	0,112	-0,029
-281,745	-200,000	-0,047	0,184
-280,730	129,945	-0,080	-0,075
-279,716	800,000	0,038	-0,107
-278,701	-59,182	0,022	-0,007
-277,686	-200,000	-0,023	0,080
-276,672	559,515	-0,044	0,078
-275,657	471,441	-0,055	-0,090
-274,643	104,399	0,060	-0,051
-273,628	94,026	-0,044	-0,036
-272,613	-200,000	-0,025	-0,084
-271,599	-50,750	0,161	0,055
-270,584	-49,438	0,076	-0,026
-269,570	-177,866	0,025	0,000
-268,555	37,996	-0,066	-0,043
-267,540	44,994	-0,101	0,068
-266,526	298,014	0,118	-0,158
-265,511	800,000	-0,033	-0,086
-264,497	93,627	-0,091	0,075
-263,482	-166,727	0,084	-0,002
-262,467	341,062	0,069	0,099
-261,453	165,845	0,082	-0,084
-260,438	431,310	0,045	-0,072
-259,424	-165,947	-0,067	-0,002
-258,409	652,789	-0,067	0,126
-257,395	753,144	0,033	-0,066
-256,380	511,937	0,030	-0,052
-255,365	-133,997	0,081	-0,007
-254,351	-25,614	0,117	0,050
-253,336	-108,094	0,086	-0,013
-252,322	244,733	0,029	0,036
-251,307	-200,000	-0,016	-0,099
-250,292	-97,056	-0,047	0,009
-249,278	800,000	-0,030	0,073
-248,263	-200,000	-0,016	0,181
-247,249	-31,233	0,015	-0,006
-246,234	-0,957	-0,058	-0,030
-245,219	454,046	-0,037	-0,060
-244,205	-18,401	0,038	-0,017
-243,190	378,805	0,053	-0,080
-242,176	659,876	0,072	0,135
-241,161	-200,000	-0,017	0,237
-240,146	-154,403	0,110	-0,005
-239,132	-200,000	0,018	0,092
-238,117	-200,000	0,004	-0,036
-237,103	-29,038	0,047	0,020
-236,088	-105,047	-0,122	0,020
-235,073	800,000	0,024	-0,049
-234,059	383,715	0,041	0,061
-233,044	-112,510	-0,101	-0,014
-232,030	45,262	0,070	-0,047
-231,015	-57,604	0,091	0,029
-230,000	800,000	-0,024	0,074
-228,986	177,989	0,026	-0,028
-227,971	-35,096	0,052	-0,021
-226,957	-200,000	0,008	0,159
-225,942	-200,000	0,000	0,021
-224,927	675,283	0,037	-0,070
-223,913	-200,000	0,004	0,137
-222,898	93,107	0,099	0,081
-221,884	-200,000	-0,005	0,068
-220,869	-200,000	-0,043	-0,143
-219,855	60,602	0,055	0,039
-218,840	800,000	0,018	0,052
-217,825	555,327	-0,066	-0,116
-216,811	257,307	0,067	-0,085
-215,796	-17,325	0,066	0,030
-214,782	51,643	-0,056	-0,039
-213,767	212,563	-0,117	-0,135
-212,752	-200,000	-0,004	0,068
-211,738	800,000	0,023	-0,072
-210,723	10,208	0,006	-0,003
-209,709	-150,075	0,097	0,005
-208,694	-100,951	-0,094	-0,017
-207,679	432,678	-0,056	0,088
-206,665	169,749	0,035	0,036
-205,650	175,693	0,095	0,101
-204,636	-93,168	0,044	-0,009
-203,621	-92,041	0,061	0,013
-202,606	417,656	0,024	-0,037
-201,592	196,928	-0,113	-0,125
-200,577	68,609	-0,152	-0,113
-199,563	-200,000	0,002	-0,066
-198,548	-200,000	0,010	0,070
-197,533	800,000	0,007	0,018
-196,519	-182,844	0,034	0,000
-195,504	-182,180	-0,137	-0,002
-194,490	277,281	-0,025	-0,033
-193,475	165,320	-0,055	-0,056
-192,460	-200,000	-0,001	-0,007
-191,446	-59,130	0,138	0,043
-190,431	800,000	0,031	-0,092
-189,417	323,312	0,063	0,087
-188,402	-200,000	0,023	0,074
-187,387	82,937	-0,068	-0,054
-186,373	-0,061	-0,147	-0,076
-185,358	-200,000	0,005	-0,061
-184,344	-200,000	-0,001	-0,021
-183,329	-200,000	0,025	-0,123
-182,315	404,705	0,074	0,113
-181,300	554,363	-0,069	0,122
-180,285	-79,052	-0,040	-0,010
-179,271	196,755	-0,007	0,008
-178,256	800,000	0,088	0,181
-177,242	-200,000	0,023	-0,110
-176,227	140,679	0,057	-0,055
-175,212	146,482	0,113	0,110
-174,198	-146,424	0,098	0,006
-173,183	-38,413	0,085	0,033
-172,169	-72,323	0,101	-0,027
-171,154	-200,000	-0,019	0,124
-170,139	245,796	0,037	0,045
-169,125	446,382	0,055	0,088
-168,110	2,275	0,048	0,025
-167,096	-200,000	-0,011	-0,070
-166,081	-137,515	-0,140	-0,011
-165,066	53,159	0,101	-0,070
-164,052	-200,000	0,024	0,079
-163,037	14,817	0,171	0,097
-162,023	276,191	-0,016	0,020
-161,008	248,828	-0,009	-0,011
-159,993	-200,000	0,021	0,121
-158,979	800,000	-0,073	-0,164
-157,964	800,000	-0,025	-0,075
-156,950	50,052	-0,087	-0,060
-155,935	-200,000	-0,001	0,113
-154,920	-200,000	0,022	0,141
-153,906	-200,000	-0,005	0,122
-152,891	-200,000	0,001	-0,047
-151,877	-25,304	-0,142	-0,061
-150,862	715,405	0,047	-0,092
-149,847	-65,946	0,178	-0,051
-148,833	120,861	-0,036	0,032
-147,818	-50,131	0,156	-0,053
-146,804	227,268	0,025	-0,029
-145,789	-200,000	0,000	0,180
-144,775	-200,000	-0,005	-0,017
-143,760	0,227	-0,116	0,060
-142,745	621,011	-0,030	0,055
-141,731	89,361	0,073	-0,059
-140,716	166,326	0,095	0,098
-139,702	-82,282	0,134	-0,032
-138,687	-27,895	-0,039	-0,017
-137,672	605,490	0,045	-0,083
-136,658	42,770	-0,036	-0,024
-135,643	315,664	0,024	0,032
-134,629	-200,000	-0,034	-0,127
-133,614	-132,027	-0,164	-0,015
-132,599	19,160	0,065	-0,038
-131,585	-200,000	0,006	0,113
-130,570	-34,813	-0,065	0,025
-129,556	-200,000	-0,006	0,108
-128,541	15,002	-0,105	0,059
-127,526	30,663	0,049	0,031
-126,512	-87,040	0,010	0,002
-125,497	800,000	-0,017	-0,048
-124,483	-200,000	-0,024	-0,086
-123,468	-200,000	-0,051	-0,000
-122,453	410,896	-0,006	-0,010
-121,439	-1,706	-0,085	-0,043
-120,424	800,000	0,025	-0,069
-119,410	-174,618	-0,059	0,001
-118,395	132,106	0,021	-0,019
-117,380	-200,000	0,022	-0,099
-116,366	-115,177	0,175	-0,024
-115,351	140,946	-0,056	-0,054
-114,337	800,000	0,020	-0,062
-113,322	150,547	0,092	-0,090
-112,307	800,000	-0,034	0,070
-111,293	-156,085	0,057	0,003
-110,278	-0,499	-0,142	-0,073
-109,264	520,274	-0,047	0,081
-108,249	547,838	-0,036	-0,063
-107,234	769,604	-0,055	-0,109
-106,220	368,622	0,051	0,075
-105,205	-51,836	-0,119	-0,040
-104,191	-200,000	-0,001	0,144
-103,176	-58,302	0,104	-0,033
-102,162	327,855	0,039	-0,054
-101,147	41,277	0,057	-0,037
-100,132	-200,000	0,022	-0,115
-99,118	-38,502	-0,030	0,011
-98,103	132,933	0,016	0,015
-97,089	62,518	0,126	0,092
-96,074	121,413	-0,008	0,007
-95,059	-102,768	-0,095	0,016
-94,045	285,471	-0,087	0,114
-93,030	321,096	-0,040	0,055
-92,016	269,319	0,025	0,032
-91,001	-149,950	0,070	0,004
-89,986	-9,791	0,107	-0,051
-88,972	-200,000	0,010	0,114
-87,957	343,915	0,071	0,101
-86,943	6,059	0,046	0,025
-85,928	-168,238	-0,110	0,003
-84,913	280,067	0,023	-0,030
-83,899	-39,867	-0,127	0,048
-82,884	253,130	0,053	0,065
-81,870	84,274	-0,158	0,125
-80,855	17,758	0,044	0,025
-79,840	185,320	0,051	0,055
-78,826	-200,000	-0,028	-0,095
-77,811	78,573	0,049	0,038
-76,797	-19,423	-0,052	-0,023
-75,782	-200,000	0,005	0,152
-74,767	-93,459	0,109	0,022
-73,753	583,663	-0,033	-0,060
-72,738	-112,966	-0,086	0,012
-71,724	800,000	-0,061	-0,137
-70,709	74,576	-0,183	0,139
-69,694	-200,000	0,001	-0,073
-68,680	134,117	0,075	-0,071
-67,665	312,275	0,109	0,149
-66,651	-6,168	0,074	-0,037
-65,636	292,167	-0,024	0,032
-64,622	-28,683	-0,034	0,014
-63,607	-169,735	0,034	0,001
-62,592	800,000	-0,050	0,111
-61,578	-200,000	-0,041	0,139
-60,563	800,000	0,066	0,136
-59,549	-200,000	-0,001	0,150
-58,534	-94,059	-1,329	-0,262
-57,519	800,000	-0,631	-1,424
-56,505	-200,000	-0,956	-4,490
-55,490	-56,929	0,745	-0,237
-54,476	800,000	4,990	11,642
-53,461	-200,000	14,452	255,684
-52,446	-200,000	696,959	2229,866
-51,432	564,452	1624,618	2862,415
-50,417	116,903	1631,291	1450,487
-49,403	73,559	1284,887	973,519
-48,388	37,490	1022,503	655,425
-47,373	23,506	981,479	583,207
-46,359	22,670	970,830	574,122
-45,344	21,606	966,504	568,070
-44,330	21,550	965,112	567,046
-43,315	21,469	963,607	565,874
-42,300	21,518	962,388	565,297
-41,286	21,447	961,465	564,502
-40,271	21,411	960,552	563,826
-39,257	21,448	959,484	563,295
-38,242	21,373	958,679	562,560
-37,227	21,426	957,812	562,198
-36,213	21,356	956,952	561,446
-35,198	21,328	956,207	560,895
-34,184	21,424	955,311	560,657
-33,169	21,404	954,574	560,139
-32,154	21,441	953,630	559,680
-31,140	21,484	952,721	559,264
-30,125	21,419	951,845	558,519
-29,111	21,409	951,231	558,105
-28,096	21,431	950,527	557,741
-27,082	21,385	949,808	557,149
-26,067	21,389	949,109	556,729
-25,052	21,442	948,317	556,412
-24,038	21,380	947,775	555,874
-23,023	21,362	947,169	555,439
-22,009	21,497	946,373	555,380
-20,994	21,433	945,823	554,831
-19,979	21,468	945,106	554,501
-18,965	21,435	944,386	553,952
-17,950	21,407	943,896	553,554
-16,936	21,395	943,057	553,000
-15,921	21,387	942,521	552,640
-14,906	21,335	941,744	551,997
-13,892	21,348	940,996	551,577
-12,877	21,268	940,596	551,065
-11,863	21,290	939,948	550,736
-10,848	21,285	939,557	550,469
-9,833	21,379	939,091	550,471
-8,819	21,370	938,407	550,020
-7,804	21,297	937,706	549,355
-6,790	21,239	937,161	548,832
-5,775	21,287	936,493	548,570
-4,760	21,310	935,836	548,238
-3,746	21,332	935,168	547,891
-2,731	21,117	934,601	546,862
-1,717	21,138	933,748	546,406
-0,702	21,159	933,035	546,032
0,313	20,998	932,525	546,053
1,327	23,916	930,628	554,054
2,342	33,138	793,951	497,166
3,356	30,716	450,847	278,649
4,371	0,707	294,699	152,121
5,386	-3,614	275,730	138,218
6,400	-4,814	269,806	134,121
7,415	-5,200	267,503	132,608
8,429	-4,949	266,226	132,194
9,444	-5,036	265,460	131,722
10,459	-5,134	264,790	131,288
11,473	-5,280	264,203	130,853
12,488	-5,293	263,819	130,639
13,502	-5,349	263,086	130,214
14,517	-5,368	262,700	129,994
15,531	-5,389	262,305	129,768
16,546	-5,191	261,953	129,761
17,561	-5,093	261,464	129,595
18,575	-5,273	261,394	129,387
19,590	-5,377	260,928	129,052
20,604	-5,274	260,688	129,014
21,619	-5,417	260,412	128,738
22,634	-5,350	260,044	128,604
23,648	-5,387	259,772	128,425
24,663	-5,581	259,511	128,111
25,677	-5,410	259,311	128,153
26,692	-5,178	258,828	128,110
27,707	-5,371	258,736	127,881
28,721	-5,506	258,450	127,609
29,736	-5,477	258,074	127,437
30,750	-5,472	257,864	127,327
31,765	-5,497	257,728	127,226
32,780	-5,540	257,428	127,029
33,794	-5,475	257,251	126,987
34,809	-5,397	256,892	126,868
35,823	-5,591	256,861	126,670
36,838	-5,488	256,396	126,520
37,853	-5,410	256,275	126,518
38,867	-5,475	256,041	126,333
39,882	-5,476	255,661	126,134
40,896	-5,643	255,696	125,994
41,911	-5,452	255,338	125,974
42,926	-5,369	254,974	125,855
43,940	-5,365	254,714	125,719
44,955	-5,670	254,450	125,311
45,969	-5,642	254,519	125,358
46,984	-5,897	254,175	124,955
47,999	-6,064	254,066	124,745
49,013	-6,044	253,593	124,518
50,028	-6,141	253,500	124,377
51,042	-6,260	253,051	124,042
52,057	-6,304	252,898	123,918
53,071	-6,255	252,698	123,851
54,086	-5,925	252,552	124,055
55,101	-6,103	252,382	123,806
56,115	-5,647	252,124	124,064
57,130	-5,323	252,201	124,371
58,144	-5,178	252,078	124,424
59,159	-5,196	251,834	124,277
60,174	-5,231	251,537	124,089
61,188	-5,200	251,363	124,020
62,203	-5,235	251,226	123,910
63,217	-5,270	250,959	123,737
64,232	-5,434	250,671	123,443
65,247	-5,177	250,438	123,538
66,261	-5,341	250,330	123,333
67,276	-5,422	249,923	123,053
68,290	-5,778	249,747	122,650
69,305	-5,982	249,583	122,384
70,320	-5,718	249,317	122,468
71,334	-5,591	249,290	122,553
72,349	-5,271	249,054	122,699
73,363	-5,157	248,963	122,740
74,378	-5,203	248,666	122,544
75,393	-5,280	248,412	122,342
76,407	-5,241	248,307	122,312
77,422	-5,323	247,995	122,078
78,436	-5,370	247,878	121,970
79,451	-5,353	247,712	121,892
80,466	-5,282	247,284	121,730
81,480	-5,451	247,017	121,445
82,495	-5,672	247,088	121,282
83,509	-5,595	246,787	121,189
84,524	-5,741	246,645	120,985
85,539	-5,857	246,359	120,736
86,553	-5,630	246,176	120,827
87,568	-5,514	246,005	120,830
88,582	-5,609	245,862	120,669
89,597	-5,508	245,596	120,613
90,611	-5,426	245,484	120,616
91,626	-5,283	245,401	120,684
92,641	-5,478	245,132	120,378
93,655	-5,484	245,045	120,319
94,670	-5,657	244,732	120,010
95,684	-5,571	244,676	120,044
96,699	-5,456	244,430	120,008
97,714	-5,607	244,183	119,751
98,728	-5,566	244,019	119,694
99,743	-5,789	243,882	119,430
100,757	-5,766	243,494	119,248
101,772	-5,646	243,359	119,271
102,787	-5,458	243,254	119,366
103,801	-5,797	243,293	119,092
104,816	-5,607	243,014	119,103
105,830	-5,278	242,732	119,227
106,845	-5,381	242,675	119,103
107,860	-5,453	242,528	118,960
108,874	-5,502	242,230	118,763
109,889	-5,727	242,026	118,466
110,903	-5,501	241,957	118,608
111,918	-5,766	241,748	118,277
112,933	-5,695	241,505	118,206
113,947	-5,385	241,388	118,394
114,962	-5,595	241,266	118,150
115,976	-5,519	240,970	118,057
116,991	-5,519	240,802	117,964
118,006	-5,503	240,676	117,906
119,020	-5,291	240,492	117,979
120,035	-5,304	240,482	117,953
121,049	-5,220	240,414	117,978
122,064	-5,433	240,077	117,627
123,079	-5,436	239,925	117,540
124,093	-5,397	239,578	117,392
125,108	-5,617	239,411	117,119
126,122	-5,798	239,089	116,804
127,137	-5,956	238,952	116,598
128,151	-5,784	238,977	116,739
129,166	-5,564	238,642	116,745
130,181	-5,597	238,369	116,574
131,195	-5,782	238,291	116,375
132,210	-5,605	238,120	116,425
133,224	-5,418	237,974	116,495
134,239	-5,470	237,854	116,383
135,254	-5,398	237,690	116,352
136,268	-5,468	237,442	116,163
137,283	-5,817	237,347	115,823
138,297	-5,856	236,901	115,564
139,312	-5,985	236,851	115,425
140,327	-5,618	236,745	115,659
141,341	-5,229	236,830	116,005
142,356	-5,037	236,604	116,038
143,370	-5,260	236,552	115,823
144,385	-5,334	236,364	115,661
145,400	-5,191	236,166	115,669
146,414	-5,005	235,980	115,716
147,429	-5,056	235,737	115,546
148,443	-5,070	235,658	115,485
149,458	-5,031	235,271	115,317
150,473	-5,087	235,190	115,222
151,487	-5,149	235,035	115,086
152,502	-5,246	234,902	114,934
153,516	-5,001	234,642	114,992
154,531	-5,200	234,484	114,746
155,546	-5,071	234,392	114,793
156,560	-5,306	234,177	114,491
157,575	-5,272	234,008	114,425
158,589	-5,355	233,819	114,256
159,604	-5,159	233,775	114,380
160,619	-5,142	233,496	114,247
161,633	-5,065	233,327	114,215
162,648	-5,032	233,156	114,147
163,662	-4,893	232,993	114,167
164,677	-5,383	232,973	113,760
165,692	-5,220	232,869	113,827
166,706	-5,005	232,616	113,864
167,721	-5,087	232,534	113,749
168,735	-5,224	232,400	113,565
169,750	-4,978	232,184	113,643
170,764	-5,154	232,011	113,409
171,779	-5,054	231,869	113,409
172,794	-5,075	231,751	113,324
173,808	-5,238	231,508	113,067
174,823	-5,615	231,291	112,655
175,837	-5,659	230,932	112,436
176,852	-5,329	230,990	112,713
177,867	-5,084	230,961	112,881
178,881	-5,105	230,811	112,781
179,896	-5,256	230,719	112,607
180,910	-5,023	230,480	112,663
181,925	-5,132	230,326	112,493
182,940	-4,994	230,143	112,501
183,954	-4,992	230,023	112,434
184,969	-4,916	229,836	112,392
185,983	-4,874	229,852	112,422
186,998	-5,073	229,650	112,159
188,013	-4,817	229,466	112,257
189,027	-4,770	229,249	112,178
190,042	-4,809	229,070	112,050
191,056	-4,747	228,926	112,018
192,071	-4,943	228,817	111,802
193,086	-4,923	228,658	111,731
194,100	-5,045	228,657	111,625
195,115	-5,044	228,210	111,398
196,129	-5,640	227,960	110,805
197,144	-2,400	229,066	113,847
198,159	1,962	230,203	117,796
199,173	3,702	230,638	119,361
200,188	3,914	230,400	119,392
201,202	3,998	230,425	119,460
202,217	4,099	230,221	119,421
203,232	4,253	230,095	119,465
204,246	4,484	230,083	119,627
205,261	4,573	229,886	119,583
206,275	4,601	229,818	119,559
207,290	4,458	229,770	119,412
208,304	4,531	229,424	119,278
209,319	4,524	229,370	119,234
210,334	4,483	229,078	119,040
211,348	4,260	228,891	118,760
212,363	4,008	228,681	118,447
213,377	3,712	228,331	118,027
214,392	3,851	228,206	118,059
215,407	3,881	228,051	117,991
216,421	3,785	227,935	117,847
217,436	3,681	227,874	117,726
218,450	3,660	227,601	117,558
219,465	3,171	227,534	117,138
220,480	3,590	227,394	117,376
221,494	3,573	227,237	117,272
222,509	3,711	227,060	117,275
223,523	3,978	226,893	117,382
224,538	3,591	226,765	117,011
225,553	3,733	226,549	116,997
226,567	3,968	226,401	117,089
227,582	4,175	226,368	117,219
228,596	4,160	226,329	117,177
229,611	3,829	226,020	116,755
230,626	3,518	225,915	116,454
231,640	3,689	225,621	116,422
232,655	3,948	225,643	116,620
233,669	4,416	225,672	116,979
234,684	4,119	225,560	116,685
235,699	4,198	225,252	116,575
236,713	3,732	225,233	116,203
237,728	3,673	224,951	116,002
238,742	3,466	224,777	115,745
239,757	3,648	224,685	115,825
240,772	3,962	224,246	115,825
241,786	3,668	224,210	115,575
242,801	4,134	224,086	115,852
243,815	4,132	224,088	115,840
244,830	4,048	223,993	115,718
245,844	3,951	223,713	115,490
246,859	3,727	223,677	115,293
247,874	4,066	223,462	115,426
248,888	4,161	223,210	115,357
249,903	3,966	223,019	115,102
250,917	3,769	223,045	114,958
251,932	3,586	222,813	114,691
252,947	3,837	222,771	114,847
253,961	3,658	222,458	114,541
254,976	3,722	222,278	114,486
255,990	3,908	222,426	114,691
257,005	3,768	222,242	114,482
258,020	3,973	222,115	114,559
259,034	4,041	222,006	114,542
260,049	4,009	221,888	114,448
261,063	3,946	221,729	114,309
262,078	4,090	221,501	114,288
263,093	4,134	221,455	114,286
264,107	3,854	221,308	113,993
265,122	4,139	221,071	114,072
266,136	4,289	221,058	114,166
267,151	4,202	220,904	114,012
268,166	3,881	220,569	113,592
269,180	3,695	220,193	113,251
270,195	3,518	220,247	113,138
271,209	3,515	220,164	113,083
272,224	3,771	220,009	113,182
273,239	3,976	219,904	113,269
274,253	3,801	219,652	113,001
275,268	3,624	219,490	112,777
276,282	3,555	219,364	112,651
277,297	3,478	219,195	112,498
278,312	3,394	219,129	112,392
279,326	3,536	218,922	112,380
280,341	3,737	218,880	112,496
281,355	3,767	218,749	112,440
282,370	3,631	218,567	112,238
283,384	3,561	218,354	112,067
284,399	3,410	218,118	111,826
285,414	3,502	218,150	111,899
286,428	3,459	218,002	111,782
287,443	4,178	217,779	112,181
288,457	3,943	217,693	111,956
289,472	3,826	217,498	111,760
290,487	3,349	217,262	111,282
291,501	3,212	217,049	111,064
292,516	2,981	217,196	110,962
293,530	3,413	217,019	111,175
294,545	3,400	216,717	111,001
295,560	3,621	216,637	111,110
296,574	3,776	216,602	111,195
297,589	3,370	216,462	110,820
298,603	3,876	216,233	111,058
299,618	3,841	216,066	110,936
300,633	3,851	216,065	110,933
301,647	4,181	215,957	111,106
302,662	4,119	215,858	111,001
303,676	3,976	215,662	110,787
304,691	3,920	215,571	110,690
305,706	3,982	215,379	110,626
306,720	4,004	215,212	110,546
307,735	3,878	215,110	110,394
308,749	3,444	215,072	110,053
309,764	3,937	215,010	110,365
310,779	4,068	214,778	110,330
311,793	3,975	214,576	110,149
312,808	3,728	214,481	109,914
313,822	3,811	214,259	109,850
314,837	3,856	214,153	109,818
315,852	3,702	214,059	109,650
316,866	3,632	213,832	109,475
317,881	4,061	213,875	109,792
318,895	4,007	213,637	109,622
319,910	3,785	213,366	109,315
320,925	3,397	213,153	108,920
321,939	3,301	213,094	108,812
322,954	3,275	213,068	108,771
323,968	3,969	212,906	109,171
324,983	3,886	212,822	109,059
325,997	3,930	212,723	109,030
327,012	3,890	212,524	108,890
328,027	4,028	212,313	108,870
329,041	3,843	212,524	108,838
330,056	4,411	212,117	109,020
331,070	3,943	211,991	108,616
332,085	3,571	211,747	108,219
333,100	3,698	211,680	108,264
334,114	3,791	211,624	108,292
335,129	3,689	211,326	108,058
336,143	3,823	211,107	108,031
337,158	3,561	211,049	107,807
338,173	3,653	210,996	107,835
339,187	3,492	210,862	107,643
340,202	3,533	210,730	107,595
341,216	3,557	210,491	107,480
342,231	3,709	210,431	107,546
343,246	3,755	210,088	107,394
344,260	3,615	210,087	107,286
345,275	3,606	210,138	107,296
346,289	3,851	209,955	107,364
347,304	3,827	209,798	107,258
348,319	3,688	209,694	107,098
349,333	3,695	209,476	106,982
350,348	3,791	209,445	107,024
351,362	3,894	209,341	107,033
352,377	3,954	209,210	106,998
353,392	3,639	208,943	106,633
354,406	3,780	208,911	106,705
355,421	195,339	1342,000	1432,307
356,435	155,949	1480,137	1432,408
