DTS Sentinel unit serial number:	SN410029Multiplexer serial number:	ORYXHardware model number:	OX2-SRSoftware version number:	ORYX F/W v4,00 Oryx Data Collector v3.7.2.0data status	okinstallation	B6 Nyhavnadifferential loss correction	single-endedforward channel	channel 2reverse channel	N/Adate	2023/12/10time	13:55:08forward acquisition time	300,00reverse acquisition time	0,00gamma	499,1914k internal	0,3122k external	0,3122temperature offset calibration	1,0000default loss term (dB/km)	0,3820temperature slope calibration	1,0000multiplexer offset coefficient	1,0000multiplexer slope coefficient	1,0000fibre end	0,00T internal ref (°C)	22,70T ext. ref 1 (°C)	6,22T ext. ref 2 (°C)	6,22length (m)	temperature (°C)	Stokes	anti-Stokes-744,400	577,801	0,065	-0,119
-743,385	-52,947	-0,176	0,060
-742,371	-200,000	0,012	-0,061
-741,356	151,666	-0,178	0,181
-740,342	-89,607	0,032	0,007
-739,327	-129,479	-0,290	0,030
-738,312	354,292	-0,010	0,015
-737,298	-123,133	-0,266	0,031
-736,283	800,000	-0,045	-0,094
-735,269	-29,466	-0,171	0,072
-734,254	800,000	-0,014	-0,039
-733,239	-111,620	-0,380	0,057
-732,225	-193,288	0,130	-0,001
-731,210	733,669	-0,036	-0,073
-730,196	-200,000	0,004	-0,042
-729,181	-29,787	-0,100	0,042
-728,167	1,145	-0,112	-0,060
-727,152	28,128	-0,042	-0,026
-726,137	566,278	-0,050	-0,092
-725,123	-46,338	-0,058	0,021
-724,108	-200,000	0,036	-0,163
-723,094	-115,223	-0,243	-0,034
-722,079	-68,349	-0,055	0,016
-721,064	374,245	-0,028	-0,042
-720,050	598,835	-0,032	0,059
-719,035	43,346	-0,078	-0,053
-718,021	-36,897	-0,096	-0,038
-717,006	69,381	-0,088	-0,068
-715,991	24,045	-0,092	-0,056
-714,977	-200,000	0,019	-0,091
-713,962	140,307	-0,070	-0,069
-712,948	660,827	-0,061	-0,118
-711,933	426,458	-0,089	0,143
-710,918	15,094	0,071	-0,041
-709,904	423,826	-0,051	-0,081
-708,889	-200,000	-0,027	-0,154
-707,875	21,385	-0,070	0,042
-706,860	-200,000	0,002	-0,055
-705,845	12,018	0,113	0,065
-704,831	137,969	-0,079	0,078
-703,816	800,000	0,016	-0,045
-702,802	800,000	-0,079	0,190
-701,787	-200,000	0,015	-0,074
-700,772	-200,000	0,033	-0,126
-699,758	800,000	0,015	0,046
-698,743	-105,177	-0,033	0,006
-697,729	62,243	-0,067	0,050
-696,714	800,000	-0,023	0,066
-695,699	-96,208	0,080	-0,016
-694,685	-200,000	-0,017	-0,066
-693,670	451,304	-0,037	0,061
-692,656	64,749	-0,027	-0,020
-691,641	104,783	-0,041	0,036
-690,627	266,591	0,110	0,144
-689,612	425,942	0,049	-0,079
-688,597	-200,000	0,006	-0,066
-687,583	-30,589	-0,058	-0,024
-686,568	-136,147	-0,121	0,010
-685,554	-76,092	-0,111	0,029
-684,539	-200,000	0,020	0,076
-683,524	288,266	0,058	0,078
-682,510	800,000	0,047	-0,122
-681,495	348,942	-0,080	-0,118
-680,481	117,094	-0,019	0,018
-679,466	90,430	-0,019	-0,016
-678,451	-80,638	0,099	0,024
-677,437	-124,511	0,059	-0,007
-676,422	13,103	0,098	-0,056
-675,408	264,291	-0,042	0,054
-674,393	60,521	0,017	0,012
-673,378	-121,806	-0,117	-0,014
-672,364	-68,064	-0,251	-0,072
-671,349	0,233	0,056	0,030
-670,335	-38,903	-0,056	0,022
-669,320	50,308	0,057	-0,040
-668,305	-200,000	0,025	-0,086
-667,291	800,000	0,023	-0,065
-666,276	-200,000	-0,022	-0,195
-665,262	27,146	0,043	-0,027
-664,247	54,202	-0,094	-0,067
-663,232	718,829	-0,016	-0,031
-662,218	163,106	0,104	0,108
-661,203	-200,000	0,002	0,106
-660,189	54,161	-0,040	0,028
-659,174	-200,000	-0,007	-0,170
-658,159	-200,000	-0,005	0,019
-657,145	-123,191	0,069	-0,008
-656,130	-200,000	-0,010	-0,071
-655,116	-63,960	-0,078	0,024
-654,101	-95,324	0,142	0,028
-653,086	-200,000	-0,018	0,117
-652,072	143,390	0,069	-0,068
-651,057	-200,000	-0,024	-0,122
-650,043	-154,150	-0,078	0,004
-649,028	-9,935	0,044	-0,022
-648,014	-63,549	0,177	-0,054
-646,999	-55,662	-0,193	0,064
-645,984	229,875	0,112	0,136
-644,970	-200,000	-0,001	0,032
-643,955	-78,661	-0,145	-0,037
-642,941	410,469	0,009	-0,014
-641,926	-131,393	0,162	-0,016
-640,911	-17,430	-0,008	-0,004
-639,897	800,000	0,056	0,157
-638,882	-13,495	-0,103	-0,050
-637,868	165,097	0,042	-0,044
-636,853	349,909	-0,102	0,150
-635,838	800,000	0,032	-0,100
-634,824	-140,522	0,083	-0,006
-633,809	-138,696	0,057	-0,005
-632,795	-126,067	-0,146	0,016
-631,780	-200,000	-0,048	0,227
-630,765	-200,000	0,018	0,134
-629,751	563,808	-0,030	-0,055
-628,736	259,541	0,050	-0,064
-627,722	-26,805	-0,176	-0,076
-626,707	462,798	-0,047	-0,078
-625,692	-73,461	0,136	0,037
-624,678	10,205	-0,052	0,029
-623,663	-25,873	-0,024	-0,011
-622,649	611,320	0,063	-0,117
-621,634	-200,000	-0,002	-0,019
-620,619	-31,750	-0,071	-0,030
-619,605	305,971	-0,046	-0,064
-618,590	-200,000	0,001	-0,089
-617,576	-200,000	-0,038	0,148
-616,561	338,538	0,040	0,058
-615,546	-57,807	-0,142	-0,046
-614,532	164,083	-0,061	0,064
-613,517	-200,000	-0,018	-0,169
-612,503	-200,000	0,002	-0,133
-611,488	-3,019	-0,067	-0,035
-610,474	-72,611	-0,062	-0,017
-609,459	-200,000	-0,003	0,069
-608,444	-4,656	-0,041	-0,021
-607,430	800,000	0,025	-0,055
-606,415	259,815	0,090	-0,115
-605,401	-111,309	-0,136	0,020
-604,386	-200,000	0,010	0,063
-603,371	-200,000	0,015	0,090
-602,357	14,213	0,050	0,029
-601,342	-26,722	0,058	0,025
-600,328	373,102	-0,065	-0,099
-599,313	392,510	-0,060	-0,093
-598,298	19,286	-0,010	0,006
-597,284	-127,202	0,093	0,010
-596,269	-30,488	-0,069	0,029
-595,255	263,611	0,045	-0,059
-594,240	-52,539	-0,126	-0,043
-593,225	800,000	0,044	-0,112
-592,211	154,446	-0,046	0,047
-591,196	-200,000	-0,002	-0,091
-590,182	136,398	0,046	-0,044
-589,167	-181,087	0,071	-0,001
-588,152	19,622	0,081	-0,048
-587,138	76,326	-0,213	-0,167
-586,123	-200,000	-0,008	-0,143
-585,109	328,595	-0,121	-0,172
-584,094	-200,000	-0,011	-0,039
-583,079	27,928	0,101	-0,063
-582,065	800,000	-0,016	-0,046
-581,050	-200,000	0,009	-0,151
-580,036	197,411	0,055	0,063
-579,021	800,000	-0,056	0,165
-578,006	63,643	-0,050	-0,037
-576,992	800,000	-0,032	0,099
-575,977	-188,651	0,057	-0,001
-574,963	25,463	0,058	-0,036
-573,948	-131,020	0,115	-0,011
-572,934	800,000	0,007	0,022
-571,919	-200,000	0,002	0,070
-570,904	-94,606	0,178	0,035
-569,890	-200,000	0,000	-0,010
-568,875	-44,300	0,033	0,012
-567,861	205,592	0,071	0,081
-566,846	-131,711	0,178	0,017
-565,831	617,613	0,026	-0,049
-564,817	-73,923	-0,182	-0,049
-563,802	800,000	-0,064	0,154
-562,788	-6,054	-0,134	-0,068
-561,773	17,866	-0,195	-0,115
-560,758	-128,035	0,203	0,021
-559,744	64,478	-0,023	0,017
-558,729	-65,775	-0,134	-0,039
-557,715	-200,000	-0,001	-0,037
-556,700	-94,622	-0,116	-0,023
-555,685	43,948	0,082	0,056
-554,671	318,498	-0,077	0,109
-553,656	-200,000	-0,023	0,175
-552,642	800,000	-0,024	0,069
-551,627	-40,095	-0,131	-0,050
-550,612	-21,183	0,007	-0,003
-549,598	118,864	-0,057	0,052
-548,583	111,455	-0,030	-0,026
-547,569	-200,000	-0,011	-0,132
-546,554	86,479	-0,040	-0,033
-545,539	800,000	0,001	0,004
-544,525	-107,312	0,137	0,022
-543,510	-64,467	0,054	0,016
-542,496	-126,508	-0,054	0,006
-541,481	-200,000	-0,015	-0,191
-540,466	49,440	-0,121	0,084
-539,452	57,849	-0,023	0,017
-538,437	-200,000	-0,030	0,108
-537,423	468,080	0,022	0,037
-536,408	800,000	-0,053	-0,145
-535,393	-200,000	-0,011	-0,100
-534,379	800,000	0,018	-0,040
-533,364	88,778	-0,052	0,043
-532,350	117,744	0,111	0,101
-531,335	-200,000	0,003	0,061
-530,321	415,922	0,040	-0,063
-529,306	97,264	0,106	0,090
-528,291	76,977	-0,119	-0,093
-527,277	101,782	-0,069	-0,059
-526,262	-10,743	0,156	-0,076
-525,248	-200,000	0,007	0,111
-524,233	-83,125	0,048	0,011
-523,218	-142,360	-0,239	-0,017
-522,204	131,843	-0,093	0,088
-521,189	-200,000	0,011	0,080
-520,175	-200,000	0,004	-0,021
-519,160	-33,327	-0,092	-0,037
-518,145	105,086	-0,086	-0,075
-517,131	-200,000	-0,001	0,083
-516,116	474,923	0,020	0,034
-515,102	226,438	-0,056	0,067
-514,087	679,679	0,052	-0,101
-513,072	-42,454	0,126	-0,047
-512,058	128,192	-0,041	-0,038
-511,043	281,605	-0,021	0,028
-510,029	-91,782	0,039	-0,008
-509,014	800,000	0,036	-0,076
-507,999	-1,753	-0,126	-0,065
-506,985	169,027	0,030	-0,031
-505,970	-13,079	-0,101	0,048
-504,956	-200,000	0,050	-0,204
-503,941	-131,360	-0,043	-0,004
-502,926	-200,000	0,002	0,062
-501,912	-200,000	-0,018	-0,134
-500,897	-119,536	-0,109	0,014
-499,883	116,752	-0,105	0,095
-498,868	-15,694	0,021	-0,010
-497,853	521,633	-0,058	-0,100
-496,839	-200,000	0,019	0,187
-495,824	-127,580	0,019	-0,002
-494,810	255,444	-0,052	0,066
-493,795	-200,000	0,018	0,087
-492,781	-19,387	0,032	-0,015
-491,766	151,234	0,048	-0,048
-490,751	-200,000	-0,022	0,094
-489,737	-200,000	0,013	-0,060
-488,722	271,630	0,017	0,023
-487,708	154,044	-0,078	0,079
-486,693	120,416	-0,032	-0,030
-485,678	47,070	0,118	-0,081
-484,664	-200,000	0,010	-0,071
-483,649	-200,000	0,001	-0,110
-482,635	-75,678	0,085	-0,022
-481,620	-112,028	0,133	0,020
-480,605	252,602	-0,055	-0,069
-479,591	-109,454	-0,051	-0,008
-478,576	800,000	0,039	0,088
-477,562	59,765	-0,123	0,090
-476,547	130,896	-0,135	-0,127
-475,532	-200,000	0,002	-0,118
-474,518	-124,890	0,222	-0,025
-473,503	-112,199	-0,106	-0,016
-472,489	-4,819	-0,079	0,040
-471,474	-200,000	-0,009	-0,059
-470,459	-200,000	0,025	0,097
-469,445	39,940	0,044	-0,029
-468,430	5,349	0,120	-0,065
-467,416	12,452	-0,120	-0,068
-466,401	800,000	0,023	0,058
-465,386	279,035	-0,108	-0,143
-464,372	800,000	-0,042	-0,105
-463,357	112,347	-0,048	0,042
-462,343	115,149	-0,141	-0,127
-461,328	-42,880	-0,113	-0,042
-460,313	800,000	0,022	-0,061
-459,299	-200,000	0,000	-0,129
-458,284	113,505	0,064	0,057
-457,270	-200,000	-0,019	0,096
-456,255	-200,000	0,011	0,042
-455,241	592,823	0,128	0,233
-454,226	800,000	0,012	0,039
-453,211	27,131	0,052	-0,032
-452,197	225,924	0,084	0,101
-451,182	-200,000	0,029	0,201
-450,168	-136,159	0,063	0,005
-449,153	-136,404	-0,228	-0,019
-448,138	350,716	-0,056	-0,082
-447,124	683,349	0,021	0,041
-446,109	-200,000	-0,023	0,121
-445,095	149,423	-0,040	0,040
-444,080	-23,392	-0,072	-0,032
-443,065	-200,000	0,001	-0,038
-442,051	-33,248	-0,099	-0,040
-441,036	-200,000	-0,013	0,054
-440,022	12,247	0,077	-0,043
-439,007	50,167	0,072	0,050
-437,992	559,281	-0,065	-0,117
-436,978	-154,396	0,070	0,003
-435,963	-23,634	0,038	-0,017
-434,949	-125,640	-0,096	0,011
-433,934	8,662	-0,002	0,001
-432,919	-13,798	-0,070	0,033
-431,905	497,338	-0,076	-0,129
-430,890	383,434	-0,050	0,076
-429,876	-200,000	0,004	-0,057
-428,861	-116,918	0,090	0,012
-427,846	-12,101	-0,030	0,014
-426,832	-142,509	-0,119	-0,008
-425,817	800,000	-0,020	-0,061
-424,803	-200,000	-0,005	-0,051
-423,788	-116,373	0,117	0,016
-422,773	-82,524	0,071	-0,017
-421,759	-93,470	0,123	-0,025
-420,744	207,349	0,125	0,143
-419,730	-153,983	0,084	0,004
-418,715	-200,000	0,014	-0,052
-417,701	-200,000	-0,018	-0,141
-416,686	-77,616	-0,053	-0,013
-415,671	521,691	0,054	0,093
-414,657	-2,183	-0,007	0,004
-413,642	689,344	0,015	0,028
-412,628	166,028	0,087	0,090
-411,613	-80,806	-0,030	0,007
-410,598	-43,319	-0,055	-0,020
-409,584	196,817	0,073	0,082
-408,569	-177,568	0,151	0,003
-407,555	-112,264	0,156	0,023
-406,540	412,328	-0,013	-0,021
-405,525	-16,225	-0,193	-0,090
-404,511	-200,000	-0,018	0,065
-403,496	-83,275	0,170	0,040
-402,482	213,832	0,091	-0,106
-401,467	300,168	0,029	0,040
-400,452	800,000	-0,051	0,106
-399,438	-200,000	-0,021	0,137
-398,423	800,000	-0,052	0,119
-397,409	-70,216	0,042	-0,012
-396,394	-140,398	-0,205	-0,015
-395,379	-200,000	-0,046	-0,158
-394,365	-98,118	-0,053	-0,010
-393,350	38,574	0,070	0,046
-392,336	-200,000	0,007	-0,066
-391,321	90,107	0,087	-0,071
-390,306	-96,778	0,114	0,022
-389,292	88,323	0,015	0,013
-388,277	-47,222	-0,102	-0,036
-387,263	-200,000	0,005	0,018
-386,248	-200,000	0,029	0,176
-385,233	93,466	-0,031	-0,026
-384,219	423,116	0,033	-0,052
-383,204	-65,045	-0,182	0,054
-382,190	-200,000	0,021	0,150
-381,175	800,000	-0,048	-0,107
-380,160	188,845	0,076	-0,084
-379,146	87,693	0,044	-0,036
-378,131	-153,708	0,053	-0,003
-377,117	-200,000	0,000	0,117
-376,102	287,225	0,036	-0,048
-375,088	-200,000	-0,021	-0,142
-374,073	-10,479	0,058	-0,028
-373,058	-200,000	0,007	-0,041
-372,044	800,000	0,015	-0,031
-371,029	-200,000	0,028	-0,137
-370,015	23,725	-0,064	-0,039
-369,000	126,503	0,035	0,032
-367,985	-44,219	-0,122	-0,045
-366,971	91,101	0,118	-0,097
-365,956	-200,000	-0,013	0,110
-364,942	800,000	-0,020	0,052
-363,927	-74,547	0,085	0,022
-362,912	-143,501	-0,134	0,009
-361,898	-200,000	0,049	0,161
-360,883	-200,000	-0,010	0,034
-359,869	-5,104	0,043	-0,022
-358,854	81,176	-0,108	0,086
-357,839	783,557	-0,022	0,045
-356,825	116,145	0,049	0,044
-355,810	-200,000	0,006	0,027
-354,796	742,289	-0,024	0,047
-353,781	149,559	0,036	0,036
-352,766	78,774	-0,072	0,057
-351,752	-200,000	0,007	-0,025
-350,737	800,000	-0,039	0,109
-349,723	219,687	-0,023	-0,028
-348,708	222,199	0,039	0,046
-347,693	205,296	0,072	-0,082
-346,679	-96,229	-0,067	0,013
-345,664	703,746	0,048	-0,093
-344,650	470,127	-0,035	-0,058
-343,635	-200,000	0,004	0,102
-342,620	-200,000	-0,005	0,141
-341,606	741,736	0,033	0,066
-340,591	-200,000	-0,019	-0,240
-339,577	37,973	-0,077	0,050
-338,562	243,782	-0,042	0,052
-337,548	-200,000	0,047	0,187
-336,533	165,644	0,033	0,034
-335,518	800,000	0,009	0,027
-334,504	574,154	0,052	-0,093
-333,489	-200,000	0,005	0,119
-332,475	26,440	-0,020	0,012
-331,460	25,182	0,029	0,017
-330,445	117,011	0,095	0,086
-329,431	663,959	0,064	0,122
-328,416	-200,000	-0,013	0,098
-327,402	-200,000	0,009	-0,101
-326,387	800,000	0,010	-0,022
-325,372	-93,790	-0,172	0,034
-324,358	-8,958	0,068	-0,033
-323,343	186,673	0,063	0,069
-322,329	-200,000	0,011	0,045
-321,314	-200,000	-0,005	0,025
-320,299	-200,000	0,011	0,100
-319,285	89,144	0,061	0,050
-318,270	-12,628	0,069	0,033
-317,256	-79,252	-0,016	-0,004
-316,241	617,353	-0,007	0,013
-315,226	-87,849	0,053	-0,012
-314,212	538,768	0,054	0,095
-313,197	-200,000	0,014	-0,067
-312,183	206,337	0,033	-0,038
-311,168	322,849	0,071	-0,099
-310,153	93,861	-0,093	-0,077
-309,139	738,659	0,030	0,059
-308,124	194,765	-0,138	-0,153
-307,110	-200,000	0,004	-0,019
-306,095	45,866	0,049	0,033
-305,080	800,000	-0,066	-0,165
-304,066	-26,503	-0,097	-0,042
-303,051	21,083	0,098	0,058
-302,037	-200,000	-0,012	0,059
-301,022	-200,000	-0,000	0,004
-300,008	800,000	0,054	-0,144
-298,993	-200,000	0,018	0,099
-297,978	800,000	0,019	0,060
-296,964	418,435	0,030	-0,047
-295,949	800,000	-0,038	-0,119
-294,935	99,972	0,048	0,041
-293,920	119,557	0,091	0,083
-292,905	-86,943	0,070	0,016
-291,891	129,471	-0,149	0,140
-290,876	612,184	0,068	0,125
-289,862	194,898	0,104	0,115
-288,847	-200,000	-0,026	-0,136
-287,832	-159,625	-0,040	-0,002
-286,818	-104,017	-0,038	-0,006
-285,803	73,321	0,110	0,084
-284,789	79,893	0,009	0,007
-283,774	786,551	-0,055	-0,111
-282,759	387,943	-0,057	-0,087
-281,745	-30,884	-0,080	-0,033
-280,730	-172,212	0,087	-0,002
-279,716	-200,000	0,001	0,064
-278,701	118,412	0,057	0,051
-277,686	-200,000	-0,000	-0,032
-276,672	800,000	-0,035	0,087
-275,657	-152,310	0,055	-0,003
-274,643	-200,000	0,001	0,047
-273,628	126,916	-0,059	0,055
-272,613	800,000	0,033	-0,093
-271,599	-18,778	0,087	0,040
-270,584	-200,000	0,000	0,133
-269,570	-200,000	0,024	0,146
-268,555	7,914	0,019	0,011
-267,540	-140,068	-0,182	-0,014
-266,526	587,075	-0,033	-0,060
-265,511	-90,095	0,057	-0,012
-264,497	-15,664	0,071	-0,033
-263,482	575,412	-0,067	0,120
-262,467	800,000	-0,024	0,061
-261,453	297,158	0,022	-0,029
-260,438	-200,000	-0,001	-0,036
-259,424	250,234	0,031	-0,039
-258,409	60,544	-0,046	-0,034
-257,395	-170,704	0,151	-0,004
-256,380	0,480	0,079	-0,041
-255,365	579,488	0,062	-0,111
-254,351	-200,000	0,021	0,145
-253,336	27,204	0,090	-0,055
-252,322	236,921	-0,031	0,037
-251,307	66,359	-0,119	-0,089
-250,292	255,038	0,083	0,104
-249,278	260,812	-0,094	0,119
-248,263	169,750	-0,095	0,099
-247,249	800,000	0,049	0,102
-246,234	19,695	-0,063	0,037
-245,219	-200,000	-0,014	-0,075
-244,205	800,000	-0,021	-0,047
-243,190	599,075	-0,011	-0,020
-242,176	800,000	0,029	0,079
-241,161	59,428	0,037	-0,027
-240,146	411,634	0,067	0,104
-239,132	48,971	0,073	0,050
-238,117	1,669	-0,050	0,026
-237,103	248,436	-0,067	-0,083
-236,088	96,932	0,073	-0,061
-235,073	-148,994	-0,034	0,002
-234,059	-200,000	0,021	0,100
-233,044	-200,000	-0,006	-0,039
-232,030	269,650	-0,130	-0,167
-231,015	545,359	-0,043	0,076
-230,000	800,000	0,035	-0,099
-228,986	-67,083	0,036	0,010
-227,971	23,011	-0,095	0,057
-226,957	-200,000	0,003	0,093
-225,942	800,000	0,045	-0,122
-224,927	5,864	0,082	-0,044
-223,913	378,058	0,057	-0,085
-222,898	-200,000	0,011	0,065
-221,884	450,911	-0,027	0,043
-220,869	800,000	0,037	0,093
-219,855	-114,239	-0,061	0,008
-218,840	3,664	0,197	-0,105
-217,825	800,000	-0,028	0,064
-216,811	-109,738	0,042	-0,006
-215,796	-200,000	-0,008	0,049
-214,782	9,107	0,097	0,053
-213,767	-150,968	-0,095	-0,005
-212,752	19,058	0,119	0,070
-211,738	27,619	0,104	-0,064
-210,723	-200,000	0,003	-0,113
-209,709	-200,000	-0,004	0,072
-208,694	-65,686	-0,130	0,038
-207,679	800,000	0,049	-0,149
-206,665	-87,447	0,057	-0,012
-205,650	99,575	0,047	0,040
-204,636	128,364	-0,037	0,035
-203,621	-158,020	0,134	-0,006
-202,606	-200,000	-0,031	-0,107
-201,592	-200,000	0,016	-0,061
-200,577	-23,469	-0,095	-0,042
-199,563	492,125	0,031	-0,052
-198,548	61,814	0,073	-0,053
-197,533	-200,000	0,008	0,085
-196,519	-200,000	0,017	-0,067
-195,504	134,382	0,078	0,074
-194,490	-21,042	-0,052	0,023
-193,475	-72,699	-0,060	-0,016
-192,460	-200,000	0,002	0,030
-191,446	-200,000	0,000	0,028
-190,431	-174,675	0,215	0,004
-189,417	-200,000	-0,029	-0,112
-188,402	-97,802	-0,064	0,012
-187,387	-59,160	-0,081	0,025
-186,373	800,000	0,025	0,062
-185,358	-200,000	0,001	-0,123
-184,344	800,000	-0,016	-0,035
-183,329	-6,002	0,039	-0,019
-182,315	-1,718	-0,104	0,053
-181,300	-200,000	0,014	-0,181
-180,285	383,387	-0,037	-0,055
-179,271	89,448	0,072	-0,059
-178,256	479,797	0,044	0,074
-177,242	-101,710	-0,083	-0,015
-176,227	82,499	-0,092	0,073
-175,212	253,047	0,037	-0,047
-174,198	-116,339	-0,069	-0,009
-173,183	-68,315	-0,115	-0,032
-172,169	-124,715	0,043	0,005
-171,154	-38,292	0,081	-0,031
-170,139	59,306	0,085	0,061
-169,125	20,306	0,049	0,029
-168,110	-71,758	0,057	0,015
-167,096	122,218	0,043	0,039
-166,081	240,611	0,091	-0,111
-165,066	-200,000	-0,011	-0,099
-164,052	800,000	0,060	0,160
-163,037	-106,731	0,048	0,008
-162,023	683,376	0,039	-0,074
-161,008	800,000	-0,094	0,210
-159,993	-200,000	-0,004	0,030
-158,979	-53,702	-0,066	-0,022
-157,964	800,000	-0,047	-0,103
-156,950	-200,000	-0,021	-0,169
-155,935	261,113	0,095	0,120
-154,920	-200,000	0,001	0,094
-153,906	185,646	-0,062	-0,067
-152,891	-85,216	0,080	-0,018
-151,877	-200,000	-0,011	-0,041
-150,862	-42,712	0,049	0,018
-149,847	142,500	0,072	0,069
-148,833	-200,000	-0,000	-0,103
-147,818	-200,000	-0,007	-0,064
-146,804	-56,992	0,165	0,053
-145,789	-200,000	0,000	0,025
-144,775	-30,343	-0,150	-0,062
-143,760	559,434	0,014	-0,024
-142,745	102,141	-0,094	-0,080
-141,731	-151,144	0,098	-0,005
-140,716	560,925	0,044	0,078
-139,702	-200,000	0,025	0,112
-138,687	316,875	0,061	-0,084
-137,672	-16,189	-0,055	0,025
-136,658	103,076	-0,074	-0,063
-135,643	233,213	-0,085	0,102
-134,629	221,703	0,093	0,109
-133,614	-152,749	0,165	-0,008
-132,599	-200,000	0,001	0,143
-131,585	-200,000	0,012	-0,049
-130,570	-39,402	-0,166	-0,063
-129,556	800,000	0,022	-0,059
-128,541	297,390	-0,025	0,033
-127,526	327,385	0,042	-0,058
-126,512	509,675	-0,098	-0,167
-125,497	-200,000	-0,021	-0,091
-124,483	800,000	0,039	-0,079
-123,468	-64,346	0,040	0,012
-122,453	-25,893	0,073	-0,031
-121,439	-56,719	-0,061	0,020
-120,424	-169,444	-0,089	-0,002
-119,410	-53,066	-0,070	0,023
-118,395	-200,000	0,010	0,056
-117,380	136,367	0,099	0,094
-116,366	117,391	-0,027	-0,024
-115,351	126,125	-0,007	0,006
-114,337	-150,121	0,075	-0,004
-113,322	800,000	-0,027	-0,084
-112,307	-75,670	-0,038	-0,010
-111,293	800,000	-0,037	0,089
-110,278	294,011	0,075	-0,100
-109,264	-200,000	0,006	-0,067
-108,249	183,722	0,099	-0,106
-107,234	-19,937	-0,009	-0,004
-106,220	-192,545	-0,074	0,000
-105,205	800,000	0,047	0,114
-104,191	-200,000	-0,025	0,176
-103,176	373,880	-0,038	0,056
-102,162	-200,000	0,008	-0,050
-101,147	482,774	-0,011	-0,018
-100,132	205,449	0,056	-0,064
-99,118	-200,000	-0,021	0,067
-98,103	-200,000	0,013	-0,055
-97,089	9,153	0,057	0,031
-96,074	-80,691	-0,094	-0,023
-95,059	-200,000	-0,025	-0,130
-94,045	526,411	-0,045	0,077
-93,030	-200,000	-0,005	-0,043
-92,016	-104,937	-0,157	-0,026
-91,001	-10,874	-0,116	-0,055
-89,986	-49,069	0,148	0,051
-88,972	371,137	0,034	-0,050
-87,957	-200,000	0,022	0,084
-86,943	-200,000	-0,012	0,114
-85,928	-161,020	-0,016	-0,001
-84,913	13,144	-0,020	0,011
-83,899	-200,000	0,013	0,103
-82,884	-83,128	0,217	-0,050
-81,870	-200,000	0,003	0,076
-80,855	-134,522	0,101	-0,009
-79,840	-200,000	-0,041	-0,162
-78,826	800,000	-0,071	0,195
-77,811	108,590	-0,067	-0,058
-76,797	74,206	0,027	-0,020
-75,782	-60,549	-0,075	-0,023
-74,767	0,690	0,069	0,036
-73,753	324,008	0,053	0,073
-72,738	-151,130	-0,158	0,008
-71,724	-200,000	0,022	-0,074
-70,709	29,927	-0,051	0,032
-69,694	659,086	-0,088	-0,166
-68,680	800,000	0,043	0,116
-67,665	154,103	-0,086	-0,086
-66,651	-103,867	0,073	-0,012
-65,636	-133,441	0,016	0,001
-64,622	345,379	-0,137	0,195
-63,607	-80,970	-0,144	0,034
-62,592	-200,000	-0,024	-0,089
-61,578	360,293	0,076	0,110
-60,563	-40,837	0,096	0,036
-59,549	-62,202	-0,145	-0,044
-58,534	-168,330	-1,272	-0,035
-57,519	787,385	-0,728	-1,457
-56,505	-200,000	-0,929	-4,443
-55,490	33,229	0,751	-0,472
-54,476	800,000	4,870	11,831
-53,461	-200,000	13,261	252,286
-52,446	-200,000	687,939	2272,294
-51,432	599,361	1622,522	2934,274
-50,417	121,144	1636,898	1478,954
-49,403	73,657	1291,071	980,796
-48,388	38,489	1025,681	662,338
-47,373	24,665	982,850	589,178
-46,359	23,853	972,719	580,417
-45,344	22,870	968,707	574,784
-44,330	22,857	967,014	573,714
-43,315	22,735	965,702	572,514
-42,300	22,677	964,733	571,725
-41,286	22,683	963,526	571,007
-40,271	22,743	962,654	570,663
-39,257	22,720	961,856	570,094
-38,242	22,663	960,976	569,364
-37,227	22,675	960,080	568,848
-36,213	22,688	959,097	568,286
-35,198	22,715	958,246	567,846
-34,184	22,739	957,564	567,497
-33,169	22,693	956,675	566,801
-32,154	22,766	955,872	566,536
-31,140	22,731	954,927	565,841
-30,125	22,722	954,374	565,462
-29,111	22,758	953,345	564,948
-28,096	22,726	952,784	564,489
-27,082	22,832	951,885	564,275
-26,067	22,741	951,271	563,596
-25,052	22,765	950,456	563,169
-24,038	22,729	949,821	562,655
-23,023	22,741	949,252	562,334
-22,009	22,790	948,516	562,030
-20,994	22,756	947,923	561,549
-19,979	22,805	947,215	561,265
-18,965	22,733	946,760	560,743
-17,950	22,796	946,021	560,484
-16,936	22,682	945,411	559,737
-15,921	22,671	944,712	559,265
-14,906	22,630	943,971	558,673
-13,892	22,670	943,273	558,365
-12,877	22,571	942,800	557,747
-11,863	22,563	942,079	557,275
-10,848	22,576	941,702	557,071
-9,833	22,755	941,101	557,262
-8,819	22,692	940,425	556,639
-7,804	22,660	939,670	556,069
-6,790	22,650	939,165	555,715
-5,775	22,656	938,555	555,353
-4,760	22,602	938,014	554,839
-3,746	22,608	937,415	554,482
-2,731	22,501	936,753	553,728
-1,717	22,484	935,839	553,113
-0,702	22,436	935,284	552,612
0,313	22,260	934,508	552,433
1,327	25,423	932,602	561,214
2,342	35,192	797,342	505,874
3,356	33,254	452,306	284,017
4,371	2,012	293,523	153,172
5,386	-2,469	274,358	138,923
6,400	-4,220	268,521	134,332
7,415	-4,774	265,986	132,543
8,429	-4,287	264,831	132,402
9,444	-4,117	263,898	132,078
10,459	-4,222	263,309	131,676
11,473	-4,469	262,765	131,168
12,488	-4,602	262,205	130,757
13,502	-4,636	261,680	130,452
14,517	-4,486	261,264	130,369
15,531	-4,432	261,064	130,306
16,546	-4,122	260,553	130,318
17,561	-4,323	260,264	129,981
18,575	-4,393	259,961	129,755
19,590	-4,331	259,614	129,626
20,604	-4,275	259,341	129,529
21,619	-4,380	258,931	129,218
22,634	-4,434	258,630	129,009
23,648	-4,327	258,382	128,968
24,663	-4,445	258,162	128,742
25,677	-4,448	257,836	128,566
26,692	-4,413	257,589	128,462
27,707	-4,274	257,351	128,455
28,721	-4,307	257,069	128,273
29,736	-4,519	256,910	127,996
30,750	-4,368	256,559	127,943
31,765	-4,426	256,391	127,796
32,780	-4,346	256,051	127,686
33,794	-4,364	255,960	127,613
34,809	-4,413	255,684	127,422
35,823	-4,467	255,509	127,275
36,838	-4,463	255,213	127,120
37,853	-4,478	254,958	126,968
38,867	-4,447	254,742	126,876
39,882	-4,544	254,593	126,706
40,896	-4,571	254,304	126,527
41,911	-4,377	254,063	126,566
42,926	-4,458	253,725	126,315
43,940	-4,531	253,711	126,233
44,955	-4,491	253,240	126,023
45,969	-4,833	253,150	125,668
46,984	-4,760	252,762	125,528
47,999	-5,078	252,709	125,214
49,013	-5,138	252,313	124,955
50,028	-5,215	252,065	124,754
51,042	-5,255	252,003	124,677
52,057	-5,232	251,579	124,476
53,071	-5,092	251,443	124,519
54,086	-5,071	251,319	124,465
55,101	-4,996	251,109	124,415
56,115	-4,765	250,982	124,539
57,130	-4,519	250,828	124,665
58,144	-4,320	250,809	124,816
59,159	-4,282	250,661	124,763
60,174	-4,102	250,398	124,776
61,188	-4,400	250,098	124,359
62,203	-4,474	249,940	124,207
63,217	-4,292	249,704	124,234
64,232	-4,295	249,609	124,173
65,247	-4,207	249,265	124,067
66,261	-4,461	249,124	123,767
67,276	-4,381	248,767	123,648
68,290	-4,688	248,501	123,243
69,305	-4,820	248,299	123,019
70,320	-4,684	248,179	123,064
71,334	-4,537	248,056	123,118
72,349	-4,214	247,961	123,334
73,363	-4,231	247,723	123,191
74,378	-4,285	247,516	123,031
75,393	-4,448	247,313	122,780
76,407	-4,465	247,155	122,677
77,422	-4,415	246,884	122,573
78,436	-4,392	246,908	122,594
79,451	-4,275	246,456	122,458
80,466	-4,433	246,260	122,216
81,480	-4,556	246,101	122,023
82,495	-4,468	245,701	121,887
83,509	-4,548	245,722	121,819
84,524	-4,808	245,635	121,547
85,539	-4,703	245,084	121,351
86,553	-4,884	245,132	121,212
87,568	-4,824	244,967	121,170
88,582	-4,727	244,623	121,070
89,597	-4,598	244,459	121,087
90,611	-4,376	244,415	121,240
91,626	-4,426	244,218	121,090
92,641	-4,419	243,936	120,944
93,655	-4,581	243,954	120,807
94,670	-4,413	243,581	120,752
95,684	-4,468	243,500	120,655
96,699	-4,738	243,363	120,352
97,714	-4,628	242,953	120,230
98,728	-4,697	242,961	120,165
99,743	-4,777	242,615	119,917
100,757	-4,793	242,548	119,860
101,772	-4,701	242,287	119,797
102,787	-4,749	242,170	119,688
103,801	-4,526	242,052	119,804
104,816	-4,614	241,925	119,657
105,830	-4,398	241,747	119,738
106,845	-4,209	241,573	119,797
107,860	-4,397	241,272	119,482
108,874	-4,654	241,201	119,223
109,889	-4,585	240,914	119,129
110,903	-4,517	240,777	119,106
111,918	-4,599	240,538	118,910
112,933	-4,704	240,410	118,750
113,947	-4,597	240,384	118,814
114,962	-4,646	240,225	118,685
115,976	-4,570	239,961	118,606
116,991	-4,350	239,694	118,644
118,006	-4,582	239,510	118,352
119,020	-4,631	239,549	118,321
120,035	-4,442	239,415	118,398
121,049	-4,551	239,328	118,256
122,064	-4,302	239,029	118,301
123,079	-4,483	238,791	118,025
124,093	-4,586	238,593	117,833
125,108	-4,937	238,401	117,441
126,122	-4,968	238,223	117,318
127,137	-4,820	237,759	117,200
128,151	-4,675	237,820	117,337
129,166	-4,764	237,709	117,200
130,181	-4,817	237,300	116,944
131,195	-4,904	237,290	116,858
132,210	-4,758	237,223	116,933
133,224	-4,558	236,965	116,957
134,239	-4,744	236,994	116,811
135,254	-4,455	236,607	116,843
136,268	-4,656	236,452	116,594
137,283	-4,824	236,161	116,304
138,297	-5,122	235,932	115,941
139,312	-4,958	235,660	115,929
140,327	-4,609	235,710	116,224
141,341	-4,222	235,840	116,590
142,356	-4,353	235,718	116,413
143,370	-4,326	235,427	116,281
144,385	-4,016	235,223	116,418
145,400	-4,143	234,946	116,169
146,414	-4,078	234,852	116,164
147,429	-4,032	234,486	116,010
148,443	-4,440	234,637	115,748
149,458	-4,229	234,329	115,754
150,473	-4,179	234,115	115,678
151,487	-4,249	233,952	115,531
152,502	-4,085	233,825	115,589
153,516	-4,081	233,727	115,533
154,531	-4,224	233,505	115,300
155,546	-4,099	233,281	115,278
156,560	-4,304	233,100	115,016
157,575	-4,163	232,721	114,930
158,589	-4,249	232,729	114,855
159,604	-4,157	232,619	114,863
160,619	-4,114	232,439	114,799
161,633	-4,016	232,266	114,781
162,648	-4,034	232,056	114,652
163,662	-4,202	232,076	114,519
164,677	-4,293	231,822	114,312
165,692	-4,212	231,761	114,335
166,706	-4,121	231,787	114,410
167,721	-3,957	231,560	114,417
168,735	-4,122	231,340	114,168
169,750	-4,081	231,178	114,110
170,764	-4,187	230,998	113,928
171,779	-4,091	230,902	113,946
172,794	-4,027	230,675	113,874
173,808	-4,047	230,485	113,754
174,823	-4,765	230,256	113,069
175,837	-4,891	230,125	112,896
176,852	-4,423	230,006	113,193
177,867	-4,255	229,918	113,271
178,881	-4,096	229,840	113,347
179,896	-4,166	229,713	113,219
180,910	-4,158	229,513	113,117
181,925	-4,140	229,497	113,113
182,940	-4,168	229,090	112,881
183,954	-4,095	229,051	112,908
184,969	-4,040	228,939	112,886
185,983	-3,844	228,865	112,991
186,998	-4,001	228,491	112,675
188,013	-3,900	228,464	112,731
189,027	-3,930	228,227	112,580
190,042	-4,068	228,081	112,391
191,056	-3,857	227,952	112,481
192,071	-3,960	227,735	112,284
193,086	-4,227	227,628	112,014
194,100	-4,090	227,427	112,012
195,115	-4,402	226,991	111,547
196,129	-5,774	226,626	110,301
197,144	-2,660	227,765	113,253
198,159	2,052	228,850	117,436
199,173	4,204	229,283	119,315
200,188	4,153	229,224	119,234
201,202	4,278	229,028	119,218
202,217	4,436	229,042	119,337
203,232	4,713	228,925	119,479
204,246	4,656	228,844	119,382
205,261	4,623	228,595	119,216
206,275	4,806	228,598	119,348
207,290	5,204	228,358	119,519
208,304	5,116	228,234	119,376
209,319	4,989	228,066	119,180
210,334	4,896	227,768	118,941
211,348	4,575	227,800	118,702
212,363	4,176	227,313	118,131
213,377	4,082	227,254	118,017
214,392	4,229	226,992	117,984
215,407	4,187	226,950	117,920
216,421	4,262	226,783	117,879
217,436	4,073	226,596	117,627
218,450	3,773	226,332	117,251
219,465	3,783	226,337	117,251
220,480	3,858	226,154	117,202
221,494	3,804	225,976	117,058
222,509	4,009	225,951	117,191
223,523	3,931	225,815	117,051
224,538	3,838	225,611	116,864
225,553	3,837	225,376	116,731
226,567	4,235	225,233	116,949
227,582	4,312	225,309	117,036
228,596	4,357	225,210	117,009
229,611	4,188	224,936	116,728
230,626	3,873	224,633	116,322
231,640	4,038	224,633	116,436
232,655	4,512	224,433	116,680
233,669	4,588	224,502	116,763
234,684	4,645	224,337	116,710
235,699	4,229	224,124	116,275
236,713	4,356	223,898	116,243
237,728	3,992	223,718	115,865
238,742	3,990	223,500	115,740
239,757	4,032	223,297	115,656
240,772	4,024	223,135	115,556
241,786	4,024	223,056	115,505
242,801	3,978	223,095	115,481
243,815	4,491	222,941	115,775
244,830	4,394	222,927	115,685
245,844	4,139	222,651	115,340
246,859	4,175	222,399	115,226
247,874	4,315	222,357	115,299
248,888	4,477	222,106	115,280
249,903	4,224	221,949	114,999
250,917	4,210	221,841	114,922
251,932	3,845	221,698	114,566
252,947	4,026	221,606	114,644
253,961	3,898	221,316	114,388
254,976	3,883	221,329	114,373
255,990	4,235	221,180	114,548
257,005	4,302	221,074	114,532
258,020	4,342	220,837	114,428
259,034	4,233	220,987	114,415
260,049	4,261	220,713	114,284
261,063	4,236	220,536	114,164
262,078	4,337	220,338	114,126
263,093	4,311	220,328	114,091
264,107	4,250	220,144	113,941
265,122	4,258	219,963	113,842
266,136	4,562	219,851	113,999
267,151	4,576	219,691	113,916
268,166	4,101	219,438	113,425
269,180	4,019	219,228	113,246
270,195	3,918	218,944	113,015
271,209	3,848	218,871	112,915
272,224	4,076	218,818	113,046
273,239	4,360	218,699	113,182
274,253	4,234	218,621	113,040
275,268	3,779	218,357	112,560
276,282	3,659	218,070	112,314
277,297	4,088	217,869	112,514
278,312	4,012	217,875	112,452
279,326	3,902	217,823	112,335
280,341	4,110	217,784	112,456
281,355	4,119	217,603	112,360
282,370	4,172	217,340	112,252
283,384	3,825	217,258	111,947
284,399	3,729	217,093	111,782
285,414	3,520	216,849	111,495
286,428	3,793	216,886	111,702
287,443	4,184	216,826	111,945
288,457	4,090	216,567	111,733
289,472	3,983	216,434	111,577
290,487	3,857	216,099	111,303
291,501	3,667	215,957	111,083
292,516	3,791	216,084	111,228
293,530	3,757	215,885	111,091
294,545	3,782	215,773	111,041
295,560	3,783	215,635	110,962
296,574	3,970	215,545	111,040
297,589	3,999	215,367	110,960
298,603	4,135	215,167	110,945
299,618	4,025	215,006	110,772
300,633	4,017	214,884	110,694
301,647	4,427	214,836	110,954
302,662	4,374	214,822	110,899
303,676	4,357	214,546	110,734
304,691	4,382	214,341	110,637
305,706	4,384	214,278	110,596
306,720	4,502	214,186	110,623
307,735	3,981	213,962	110,124
308,749	4,232	213,718	110,169
309,764	4,211	213,744	110,157
310,779	4,510	213,565	110,268
311,793	4,203	213,584	110,049
312,808	4,134	213,307	109,847
313,822	4,172	213,170	109,794
314,837	4,054	213,048	109,638
315,852	3,774	212,933	109,369
316,866	3,784	212,900	109,350
317,881	4,415	212,657	109,664
318,895	4,064	212,522	109,335
319,910	4,177	212,264	109,272
320,925	3,924	212,060	108,979
321,939	3,373	211,919	108,506
322,954	3,595	211,819	108,603
323,968	3,999	211,745	108,840
324,983	3,978	211,737	108,812
325,997	4,271	211,676	108,978
327,012	4,037	211,511	108,718
328,027	4,112	211,342	108,675
329,041	4,398	211,247	108,818
330,056	4,551	211,175	108,878
331,070	4,153	210,862	108,427
332,085	3,722	210,573	107,966
333,100	3,926	210,584	108,105
334,114	4,020	210,509	108,123
335,129	3,916	210,263	107,914
336,143	3,859	210,190	107,827
337,158	4,064	209,989	107,858
338,173	4,025	209,956	107,804
339,187	3,689	209,855	107,508
340,202	3,697	209,576	107,361
341,216	3,851	209,411	107,374
342,231	3,758	209,292	107,238
343,246	3,774	209,253	107,220
344,260	3,872	208,988	107,143
345,275	4,035	209,036	107,272
346,289	4,097	208,908	107,240
347,304	4,195	208,699	107,191
348,319	3,974	208,669	107,013
349,333	3,912	208,549	106,899
350,348	4,023	208,393	106,886
351,362	4,425	208,194	107,053
352,377	4,456	208,207	107,072
353,392	4,261	208,073	106,858
354,406	3,956	207,792	106,494
355,421	193,768	1345,521	1434,133
356,435	154,579	1484,255	1434,260
