DTS Sentinel unit serial number:	SN410029Multiplexer serial number:	ORYXHardware model number:	OX2-SRSoftware version number:	ORYX F/W v4,00 Oryx Data Collector v3.7.2.0data status	okinstallation	B6 Nyhavnadifferential loss correction	single-endedforward channel	channel 2reverse channel	N/Adate	2023/12/09time	07:45:08forward acquisition time	300,00reverse acquisition time	0,00gamma	499,1914k internal	0,3139k external	0,3139temperature offset calibration	1,0000default loss term (dB/km)	0,3820temperature slope calibration	1,0000multiplexer offset coefficient	1,0000multiplexer slope coefficient	1,0000fibre end	0,00T internal ref (°C)	18,55T ext. ref 1 (°C)	1,91T ext. ref 2 (°C)	1,91length (m)	temperature (°C)	Stokes	anti-Stokes-744,400	800,000	0,011	-0,030
-743,385	111,223	-0,188	0,168
-742,371	-200,000	0,011	-0,050
-741,356	81,625	-0,214	0,171
-740,342	302,898	0,048	0,066
-739,327	-46,548	-0,224	0,081
-738,312	-25,535	-0,045	0,020
-737,298	-51,996	-0,307	-0,105
-736,283	-62,646	0,093	-0,028
-735,269	102,141	-0,210	0,182
-734,254	723,005	0,053	-0,105
-733,239	-93,255	-0,431	-0,088
-732,225	9,317	0,056	-0,031
-731,210	34,657	0,045	-0,029
-730,196	312,604	-0,082	-0,114
-729,181	109,993	0,106	0,095
-728,167	-91,204	-0,012	0,003
-727,152	-70,167	0,177	-0,050
-726,137	3,934	-0,063	-0,034
-725,123	-33,437	-0,091	0,037
-724,108	195,083	-0,113	-0,127
-723,094	-3,704	-0,084	-0,043
-722,079	-69,248	-0,109	0,031
-721,064	-81,157	0,126	0,031
-720,050	-31,732	0,082	0,034
-719,035	-68,439	0,111	-0,032
-718,021	8,358	-0,136	0,076
-717,006	-200,000	0,027	-0,096
-715,991	-200,000	-0,023	-0,090
-714,977	-200,000	0,021	-0,069
-713,962	800,000	0,056	-0,124
-712,948	-159,052	0,046	-0,002
-711,933	-200,000	0,028	0,182
-710,918	-200,000	0,007	0,099
-709,904	112,798	0,071	-0,064
-708,889	447,741	0,087	0,143
-707,875	-59,055	-0,139	0,044
-706,860	-200,000	-0,003	0,066
-705,845	-200,000	0,000	0,072
-704,831	-33,941	-0,034	0,014
-703,816	-190,261	0,073	-0,001
-702,802	83,403	-0,040	-0,032
-701,787	-200,000	-0,043	-0,142
-700,772	800,000	-0,060	-0,195
-699,758	-118,843	-0,109	-0,014
-698,743	77,633	0,105	0,083
-697,729	372,342	-0,055	0,082
-696,714	-200,000	-0,011	-0,055
-695,699	370,289	0,062	-0,094
-694,685	-7,667	0,012	-0,006
-693,670	597,495	-0,027	0,050
-692,656	27,695	-0,023	0,014
-691,641	217,512	0,051	0,060
-690,627	-200,000	-0,008	0,130
-689,612	657,757	0,050	0,096
-688,597	65,211	0,107	0,080
-687,583	419,421	-0,111	-0,176
-686,568	87,984	0,046	0,037
-685,554	-29,602	-0,073	-0,031
-684,539	-150,588	-0,112	-0,006
-683,524	-200,000	0,026	-0,119
-682,510	-200,000	0,020	0,070
-681,495	-200,000	-0,013	0,088
-680,481	-71,626	-0,097	0,027
-679,466	-200,000	0,010	-0,108
-678,451	296,935	-0,055	0,075
-677,437	-200,000	-0,004	-0,092
-676,422	-200,000	-0,016	-0,076
-675,408	-200,000	0,043	-0,229
-674,393	81,617	-0,039	-0,031
-673,378	1,553	-0,070	-0,037
-672,364	-133,090	-0,078	-0,007
-671,349	-110,468	-0,050	0,008
-670,335	-200,000	-0,016	0,057
-669,320	-200,000	-0,039	-0,129
-668,305	-200,000	0,007	0,064
-667,291	193,307	0,021	0,023
-666,276	-200,000	-0,022	-0,086
-665,262	701,420	-0,079	-0,154
-664,247	14,736	-0,085	0,049
-663,232	-200,000	0,021	-0,194
-662,218	-200,000	0,007	0,036
-661,203	-200,000	0,011	0,144
-660,189	566,158	-0,040	-0,072
-659,174	-71,043	-0,085	0,024
-658,159	800,000	-0,058	-0,137
-657,145	-161,099	0,073	0,003
-656,130	-200,000	-0,020	-0,090
-655,116	254,993	0,076	0,097
-654,101	-43,324	0,068	-0,025
-653,086	-144,635	-0,089	-0,006
-652,072	800,000	-0,024	0,074
-651,057	190,834	-0,089	0,099
-650,043	-200,000	0,008	0,033
-649,028	800,000	-0,065	0,161
-648,014	-61,248	-0,047	0,015
-646,999	-200,000	-0,010	0,035
-645,984	790,037	0,010	-0,021
-644,970	800,000	0,010	0,030
-643,955	589,556	-0,033	-0,061
-642,941	-200,000	-0,048	-0,185
-641,926	340,407	-0,046	-0,067
-640,911	-94,035	0,146	0,029
-639,897	-66,581	0,126	0,037
-638,882	571,294	0,008	0,014
-637,868	-200,000	0,019	-0,133
-636,853	-200,000	0,009	-0,128
-635,838	557,746	-0,045	-0,081
-634,824	-34,086	0,107	-0,043
-633,809	-200,000	-0,001	-0,009
-632,795	354,008	0,058	0,085
-631,780	221,165	0,076	0,090
-630,765	303,986	-0,072	-0,099
-629,751	800,000	-0,017	-0,041
-628,736	113,748	-0,060	0,054
-627,722	-4,657	-0,058	-0,030
-626,707	611,122	0,079	0,146
-625,692	-73,994	0,181	0,048
-624,678	90,146	-0,039	0,032
-623,663	-171,782	-0,107	-0,003
-622,649	97,488	0,029	-0,025
-621,634	-99,146	-0,021	-0,004
-620,619	-53,432	0,134	0,045
-619,605	800,000	0,052	-0,129
-618,590	-200,000	0,010	-0,065
-617,576	-200,000	0,026	0,163
-616,561	800,000	-0,040	0,124
-615,546	-96,404	-0,057	0,011
-614,532	-87,154	-0,124	0,027
-613,517	-112,520	-0,018	-0,003
-612,503	125,749	-0,044	-0,041
-611,488	59,410	0,046	-0,034
-610,474	650,511	-0,022	0,042
-609,459	-200,000	0,031	-0,126
-608,444	-155,384	0,081	-0,004
-607,430	435,560	-0,094	-0,152
-606,415	25,979	-0,117	-0,072
-605,401	-114,997	0,105	0,015
-604,386	-200,000	0,037	0,147
-603,371	800,000	0,027	0,064
-602,357	-77,427	0,128	-0,032
-601,342	775,302	-0,030	-0,061
-600,328	15,643	0,070	-0,040
-599,313	245,509	-0,085	-0,106
-598,298	228,094	-0,088	-0,106
-597,284	-198,414	-0,065	0,000
-596,269	228,783	-0,054	0,065
-595,255	-196,371	0,145	-0,001
-594,240	-200,000	0,030	-0,135
-593,225	-20,582	-0,117	0,053
-592,211	-89,336	-0,115	0,025
-591,196	-73,969	-0,063	0,017
-590,182	348,697	-0,124	-0,181
-589,167	164,282	-0,098	-0,101
-588,152	75,289	-0,131	0,102
-587,138	-200,000	-0,020	-0,079
-586,123	502,792	-0,085	-0,145
-585,109	-93,366	-0,039	0,008
-584,094	461,921	-0,031	-0,050
-583,079	-200,000	-0,002	-0,117
-582,065	317,772	0,016	0,022
-581,050	-200,000	-0,022	0,158
-580,036	-53,629	0,099	0,033
-579,021	107,261	-0,060	-0,053
-578,006	215,883	-0,007	0,008
-576,992	70,702	-0,058	-0,044
-575,977	111,398	-0,071	-0,063
-574,963	800,000	0,018	-0,049
-573,948	-200,000	0,000	0,051
-572,934	-78,103	0,023	0,006
-571,919	93,973	0,049	0,041
-570,904	76,639	0,009	-0,007
-569,890	18,450	-0,045	0,026
-568,875	24,369	-0,017	-0,011
-567,861	-113,259	0,128	-0,018
-566,846	-200,000	-0,012	0,168
-565,831	-200,000	0,003	0,052
-564,817	-36,191	0,074	-0,029
-563,802	65,115	-0,087	0,064
-562,788	-200,000	-0,029	-0,109
-561,773	-141,111	-0,116	-0,009
-560,758	-111,166	0,040	-0,006
-559,744	-138,057	0,082	-0,007
-558,729	-115,074	0,095	-0,013
-557,715	31,061	0,120	-0,076
-556,700	566,524	-0,049	-0,087
-555,685	-200,000	0,009	-0,090
-554,671	22,957	0,061	-0,037
-553,656	70,778	-0,042	0,032
-552,642	-55,008	0,166	-0,055
-551,627	-183,169	-0,029	-0,000
-550,612	-200,000	0,002	-0,070
-549,598	-17,210	0,064	-0,030
-548,583	-5,711	-0,073	-0,037
-547,569	34,865	0,156	0,100
-546,554	-142,192	-0,097	-0,007
-545,539	9,723	0,051	0,028
-544,525	-200,000	0,025	0,124
-543,510	-91,846	0,044	0,009
-542,496	-200,000	-0,010	-0,067
-541,481	48,789	-0,078	-0,054
-540,466	800,000	-0,029	-0,091
-539,452	-29,852	-0,081	-0,034
-538,437	800,000	-0,055	0,158
-537,423	340,108	-0,121	0,173
-536,408	-200,000	-0,016	-0,060
-535,393	-200,000	-0,009	-0,071
-534,379	800,000	0,032	-0,073
-533,364	-61,468	-0,054	-0,017
-532,350	-200,000	0,006	0,035
-531,335	-43,894	0,055	-0,020
-530,321	-200,000	0,000	0,123
-529,306	-31,435	0,094	-0,039
-528,291	-14,707	-0,135	-0,064
-527,277	-146,585	-0,047	-0,003
-526,262	-114,892	0,062	0,009
-525,248	20,375	-0,106	0,063
-524,233	45,818	0,117	0,079
-523,218	96,117	-0,076	0,064
-522,204	139,890	-0,018	0,018
-521,189	-200,000	-0,044	-0,154
-520,175	183,143	-0,054	0,059
-519,160	166,657	-0,028	-0,029
-518,145	-200,000	-0,007	-0,133
-517,131	253,301	0,084	-0,106
-516,116	342,618	0,050	0,073
-515,102	59,298	-0,027	-0,020
-514,087	266,479	0,032	0,041
-513,072	-200,000	-0,011	-0,116
-512,058	-200,000	-0,003	-0,104
-511,043	254,173	-0,080	0,101
-510,029	-200,000	0,013	0,104
-509,014	-200,000	-0,009	0,110
-507,999	655,813	0,053	0,101
-506,985	-152,499	0,032	-0,002
-505,970	532,351	-0,067	0,117
-504,956	-40,797	-0,090	0,034
-503,941	800,000	-0,033	0,090
-502,926	-200,000	-0,005	0,035
-501,912	-71,744	0,090	-0,025
-500,897	-61,877	-0,099	-0,030
-499,883	304,254	0,071	-0,097
-498,868	-200,000	-0,008	-0,030
-497,853	-188,011	-0,089	-0,001
-496,839	45,228	0,069	0,047
-495,824	218,869	-0,032	0,038
-494,810	-107,654	-0,062	-0,010
-493,795	800,000	-0,007	-0,021
-492,781	-200,000	-0,011	0,055
-491,766	-67,749	-0,060	-0,017
-490,751	308,424	0,081	0,112
-489,737	-127,834	-0,183	0,019
-488,722	-35,454	0,070	-0,028
-487,708	3,506	0,114	-0,061
-486,693	20,232	0,038	0,023
-485,678	-93,714	-0,019	0,004
-484,664	62,392	-0,108	-0,079
-483,649	487,330	-0,065	-0,109
-482,635	-200,000	-0,004	-0,095
-481,620	7,484	0,212	0,116
-480,605	79,987	0,010	-0,008
-479,591	-108,281	0,011	0,002
-478,576	-86,013	-0,091	0,021
-477,562	-200,000	0,028	0,194
-476,547	131,830	-0,076	-0,072
-475,532	-77,892	-0,082	0,021
-474,518	280,643	-0,018	0,024
-473,503	468,768	-0,037	0,061
-472,489	318,481	0,097	-0,135
-471,474	-200,000	0,029	-0,102
-470,459	-50,504	0,100	0,034
-469,445	800,000	-0,039	-0,093
-468,430	-188,556	0,129	0,001
-467,416	800,000	0,050	-0,106
-466,401	800,000	-0,026	0,082
-465,386	122,903	-0,069	0,063
-464,372	-7,276	-0,065	-0,032
-463,357	393,958	-0,051	0,079
-462,343	39,073	-0,149	0,098
-461,328	-200,000	0,014	-0,077
-460,313	-200,000	-0,003	0,102
-459,299	56,248	0,095	0,068
-458,284	-41,435	0,127	-0,048
-457,270	-110,594	0,024	-0,004
-456,255	511,127	-0,098	0,167
-455,241	800,000	-0,020	0,049
-454,226	98,925	-0,050	0,043
-453,211	116,240	0,050	-0,045
-452,197	110,393	-0,050	0,044
-451,182	-129,382	0,063	0,006
-450,168	542,692	-0,019	-0,033
-449,153	51,968	-0,115	0,080
-448,138	512,063	-0,046	0,079
-447,124	-14,980	0,079	-0,037
-446,109	-200,000	0,003	-0,047
-445,095	800,000	-0,025	-0,051
-444,080	800,000	-0,041	0,087
-443,065	82,355	-0,030	0,023
-442,051	-200,000	-0,019	-0,087
-441,036	-134,169	-0,131	-0,012
-440,022	5,110	-0,019	-0,010
-439,007	-42,284	-0,123	0,046
-437,992	-200,000	-0,010	0,116
-436,978	490,148	-0,008	0,013
-435,963	-200,000	-0,021	0,113
-434,949	800,000	0,018	-0,047
-433,934	-200,000	-0,013	-0,203
-432,919	800,000	0,024	-0,060
-431,905	-200,000	-0,058	-0,234
-430,890	33,169	-0,043	-0,027
-429,876	414,903	0,029	0,045
-428,861	-152,176	-0,042	0,002
-427,846	95,917	0,064	0,054
-426,832	800,000	0,034	-0,089
-425,817	372,882	0,080	-0,119
-424,803	454,379	-0,027	0,044
-423,788	800,000	-0,065	-0,179
-422,773	-110,694	0,132	-0,020
-421,759	210,996	-0,057	0,066
-420,744	800,000	0,030	0,094
-419,730	-144,746	0,040	-0,003
-418,715	800,000	0,021	-0,068
-417,701	20,447	-0,138	0,081
-416,686	125,458	0,075	0,070
-415,671	800,000	0,026	-0,065
-414,657	8,652	0,078	0,043
-413,642	-144,945	-0,016	0,001
-412,628	-71,487	0,173	0,047
-411,613	106,142	0,013	-0,011
-410,598	-153,151	-0,099	0,005
-409,584	43,336	-0,058	0,039
-408,569	-51,135	0,073	0,025
-407,555	-38,649	0,016	-0,006
-406,540	643,610	0,095	-0,178
-405,525	-162,800	0,097	-0,003
-404,511	422,938	-0,080	0,127
-403,496	-200,000	-0,003	-0,045
-402,482	-167,081	0,131	-0,004
-401,467	800,000	-0,024	0,054
-400,452	-60,582	0,175	0,054
-399,438	-114,781	0,198	-0,027
-398,423	-15,241	-0,083	0,039
-397,409	800,000	-0,032	-0,098
-396,394	-200,000	-0,000	-0,019
-395,379	-41,718	-0,069	-0,026
-394,365	-38,196	0,122	0,047
-393,350	161,319	-0,052	0,053
-392,336	-200,000	-0,002	0,032
-391,321	-200,000	0,034	0,149
-390,306	41,390	-0,122	-0,080
-389,292	79,908	0,095	-0,075
-388,277	26,651	0,061	0,037
-387,263	-34,547	0,175	0,070
-386,248	14,651	0,140	0,080
-385,233	-200,000	0,010	0,045
-384,219	-200,000	-0,002	0,023
-383,204	-117,886	0,076	-0,010
-382,190	648,953	-0,026	-0,048
-381,175	800,000	-0,042	-0,130
-380,160	-28,633	0,117	0,049
-379,146	-200,000	0,008	0,136
-378,131	-49,460	0,137	-0,047
-377,117	-200,000	-0,010	0,066
-376,102	-200,000	-0,001	0,084
-375,088	-200,000	-0,032	0,104
-374,073	-152,174	0,138	-0,007
-373,058	78,853	-0,068	-0,053
-372,044	88,701	0,107	-0,087
-371,029	800,000	0,049	0,140
-370,015	14,220	0,054	-0,031
-369,000	-200,000	-0,007	-0,111
-367,985	-18,329	-0,067	-0,030
-366,971	-200,000	-0,014	0,073
-365,956	390,044	0,021	0,031
-364,942	253,644	-0,013	-0,016
-363,927	25,321	0,050	-0,030
-362,912	-84,828	-0,065	0,015
-361,898	-118,910	-0,081	-0,010
-360,883	800,000	-0,036	-0,112
-359,869	-200,000	0,013	0,047
-358,854	-3,271	0,058	-0,030
-357,839	800,000	0,056	0,130
-356,825	734,979	-0,060	-0,119
-355,810	225,697	-0,056	-0,066
-354,796	-68,453	0,080	-0,023
-353,781	73,227	-0,131	-0,100
-352,766	-11,605	-0,135	-0,065
-351,752	71,507	-0,061	-0,046
-350,737	-198,127	0,217	-0,001
-349,723	800,000	0,032	0,071
-348,708	-109,623	0,134	-0,020
-347,693	600,736	0,062	0,114
-346,679	800,000	0,029	0,084
-345,664	116,825	-0,104	0,094
-344,650	-11,975	0,112	-0,053
-343,635	65,228	-0,003	-0,002
-342,620	-1,291	0,037	0,019
-341,606	5,051	0,071	0,038
-340,591	563,348	-0,071	-0,125
-339,577	-10,559	-0,090	-0,043
-338,562	451,216	0,044	-0,071
-337,548	-200,000	-0,030	0,112
-336,533	360,403	-0,027	-0,039
-335,518	-200,000	0,015	0,049
-334,504	800,000	-0,011	-0,034
-333,489	152,817	0,062	0,062
-332,475	255,176	-0,034	-0,042
-331,460	308,531	0,020	-0,027
-330,445	-200,000	-0,004	-0,061
-329,431	-200,000	0,016	-0,064
-328,416	216,706	-0,035	-0,041
-327,402	-141,762	-0,129	0,009
-326,387	-200,000	0,010	0,097
-325,372	-108,212	-0,011	-0,002
-324,358	-103,649	0,071	0,012
-323,343	593,345	0,026	-0,048
-322,329	-94,356	0,141	0,028
-321,314	-139,128	-0,088	0,007
-320,299	336,332	0,060	0,085
-319,285	-200,000	-0,010	0,042
-318,270	-91,650	0,045	-0,009
-317,256	-100,999	-0,031	0,005
-316,241	-57,233	-0,061	-0,019
-315,226	-129,568	0,093	0,009
-314,212	-200,000	0,022	-0,073
-313,197	11,203	0,038	-0,021
-312,183	-135,330	-0,021	0,002
-311,168	61,272	-0,082	0,059
-310,153	-89,504	0,058	0,012
-309,139	-42,133	-0,189	0,070
-308,124	103,673	0,041	-0,035
-307,110	104,548	-0,112	-0,096
-306,095	145,731	-0,038	-0,037
-305,080	-200,000	-0,020	-0,071
-304,066	-200,000	0,007	-0,066
-303,051	-118,088	-0,116	-0,015
-302,037	66,632	0,052	-0,038
-301,022	54,977	0,096	-0,067
-300,008	-200,000	-0,012	0,112
-298,993	-81,651	0,244	0,058
-297,978	-200,000	0,006	-0,083
-296,964	-200,000	0,011	0,062
-295,949	-131,198	-0,113	-0,011
-294,935	-134,534	-0,097	-0,008
-293,920	-200,000	0,021	0,096
-292,905	-24,519	-0,124	-0,053
-291,891	800,000	0,037	0,080
-290,876	22,308	0,068	0,040
-289,862	2,485	0,122	0,064
-288,847	-50,541	-0,126	-0,043
-287,832	544,503	-0,027	-0,048
-286,818	482,281	0,076	-0,126
-285,803	87,005	0,129	0,104
-284,789	-200,000	-0,010	-0,049
-283,774	-165,300	0,180	-0,006
-282,759	741,482	0,033	0,066
-281,745	169,366	0,168	-0,175
-280,730	-200,000	-0,007	-0,078
-279,716	21,925	-0,042	-0,025
-278,701	800,000	0,027	0,065
-277,686	-35,589	0,124	-0,049
-276,672	-200,000	0,016	0,069
-275,657	27,396	-0,151	0,092
-274,643	7,750	-0,068	0,037
-273,628	47,324	-0,078	-0,053
-272,613	-78,170	-0,103	0,026
-271,599	400,016	0,041	0,063
-270,584	-38,792	0,087	0,033
-269,570	-34,552	-0,035	0,014
-268,555	169,660	-0,081	0,084
-267,540	800,000	-0,016	0,050
-266,526	800,000	0,029	-0,068
-265,511	-189,132	-0,136	0,001
-264,497	-65,439	0,149	0,043
-263,482	387,457	0,045	0,067
-262,467	665,805	0,124	0,235
-261,453	190,155	-0,053	0,058
-260,438	-200,000	0,004	-0,012
-259,424	132,558	-0,180	-0,169
-258,409	-200,000	-0,018	-0,066
-257,395	-200,000	0,011	-0,046
-256,380	-200,000	-0,007	0,071
-255,365	137,719	0,058	0,055
-254,351	179,610	0,024	0,026
-253,336	43,913	-0,016	0,010
-252,322	241,525	-0,079	-0,096
-251,307	-62,843	-0,032	0,010
-250,292	271,620	-0,024	-0,031
-249,278	330,212	0,106	-0,149
-248,263	-42,487	-0,091	0,034
-247,249	100,080	-0,032	-0,027
-246,234	5,214	0,039	-0,021
-245,219	-124,856	-0,075	0,008
-244,205	131,364	-0,077	0,072
-243,190	121,188	-0,086	0,078
-242,176	150,362	0,071	-0,070
-241,161	146,699	0,103	0,101
-240,146	59,682	-0,089	0,064
-239,132	-157,748	0,075	0,003
-238,117	215,931	-0,040	0,046
-237,103	-200,000	0,009	0,072
-236,088	266,327	0,057	-0,073
-235,073	488,174	0,005	0,008
-234,059	800,000	-0,026	-0,074
-233,044	-47,959	0,073	-0,026
-232,030	-200,000	0,000	-0,017
-231,015	800,000	-0,011	0,023
-230,000	42,667	-0,178	-0,117
-228,986	253,920	0,070	-0,088
-227,971	-89,322	0,024	0,005
-226,957	-200,000	0,022	0,082
-225,942	-200,000	-0,003	-0,040
-224,927	-11,574	-0,043	0,020
-223,913	13,653	-0,109	0,061
-222,898	-63,146	-0,050	-0,015
-221,884	-37,089	-0,078	-0,030
-220,869	632,162	0,024	-0,045
-219,855	800,000	-0,017	0,047
-218,840	135,569	0,008	0,008
-217,825	-200,000	-0,002	0,026
-216,811	42,160	0,012	0,008
-215,796	86,953	0,034	-0,027
-214,782	227,980	0,051	0,061
-213,767	19,041	0,076	-0,044
-212,752	74,614	0,067	0,051
-211,738	800,000	-0,059	-0,140
-210,723	334,946	0,006	-0,009
-209,709	467,416	-0,013	-0,021
-208,694	66,892	0,043	0,032
-207,679	-121,437	-0,169	0,020
-206,665	-109,476	-0,019	-0,003
-205,650	35,798	0,090	-0,057
-204,636	-31,448	0,087	-0,035
-203,621	375,519	0,030	0,045
-202,606	543,542	-0,046	-0,080
-201,592	44,789	0,107	-0,071
-200,577	800,000	-0,040	-0,089
-199,563	-96,404	0,095	-0,018
-198,548	800,000	0,056	0,112
-197,533	133,058	-0,059	0,056
-196,519	800,000	0,057	0,154
-195,504	276,999	0,081	0,105
-194,490	800,000	-0,005	0,014
-193,475	-105,718	0,097	-0,016
-192,460	212,261	-0,058	-0,066
-191,446	782,268	0,050	0,101
-190,431	-200,000	-0,001	-0,043
-189,417	202,483	0,093	-0,104
-188,402	243,549	-0,035	-0,043
-187,387	271,122	-0,037	-0,048
-186,373	-152,553	-0,109	-0,006
-185,358	-5,247	0,081	-0,040
-184,344	800,000	-0,051	0,151
-183,329	-200,000	-0,011	0,071
-182,315	-200,000	-0,012	0,081
-181,300	-200,000	-0,024	0,179
-180,285	-200,000	0,033	-0,153
-179,271	-63,914	-0,184	-0,054
-178,256	-200,000	0,006	-0,079
-177,242	-200,000	-0,002	-0,073
-176,227	257,480	-0,059	0,074
-175,212	270,480	0,019	0,024
-174,198	484,234	-0,081	0,134
-173,183	394,946	0,021	0,032
-172,169	158,628	-0,075	0,076
-171,154	-200,000	0,005	-0,042
-170,139	800,000	0,032	-0,077
-169,125	-200,000	0,006	0,029
-168,110	-161,934	0,052	-0,002
-167,096	-200,000	-0,003	0,043
-166,081	415,460	-0,057	-0,088
-165,066	117,516	-0,072	-0,064
-164,052	461,343	-0,010	-0,016
-163,037	-200,000	-0,001	-0,032
-162,023	289,808	-0,127	0,167
-161,008	115,095	0,031	-0,027
-159,993	-200,000	-0,001	-0,122
-158,979	258,542	-0,061	0,076
-157,964	-30,366	-0,071	-0,029
-156,950	645,287	0,028	-0,053
-155,935	-93,632	0,090	0,018
-154,920	-200,000	-0,019	0,147
-153,906	-200,000	0,038	0,129
-152,891	78,052	-0,081	0,062
-151,877	87,081	-0,055	-0,044
-150,862	800,000	0,078	-0,172
-149,847	-112,178	-0,099	0,014
-148,833	-39,600	0,203	-0,077
-147,818	174,120	0,096	-0,100
-146,804	-3,986	0,035	0,018
-145,789	56,077	-0,109	-0,076
-144,775	84,219	-0,103	0,081
-143,760	800,000	-0,040	-0,114
-142,745	-200,000	-0,033	-0,128
-141,731	800,000	0,013	0,038
-140,716	800,000	0,053	0,107
-139,702	87,554	-0,019	0,015
-138,687	184,606	0,104	-0,112
-137,672	-140,545	-0,117	-0,009
-136,658	-200,000	-0,004	-0,204
-135,643	800,000	0,063	-0,156
-134,629	-87,223	0,154	-0,034
-133,614	386,981	0,045	0,068
-132,599	-133,019	-0,129	-0,012
-131,585	107,268	0,079	0,068
-130,570	-200,000	0,000	0,098
-129,556	800,000	0,061	-0,134
-128,541	124,378	-0,086	0,078
-127,526	370,314	0,035	-0,052
-126,512	276,537	-0,106	-0,137
-125,497	141,056	0,052	-0,050
-124,483	367,588	0,038	0,055
-123,468	96,812	-0,079	0,066
-122,453	669,908	-0,058	-0,110
-121,439	-200,000	0,035	-0,129
-120,424	123,599	0,074	-0,067
-119,410	114,498	0,110	-0,097
-118,395	37,900	0,024	0,015
-117,380	78,539	0,032	-0,025
-116,366	91,416	-0,140	-0,114
-115,351	36,835	-0,044	0,028
-114,337	19,113	-0,070	-0,041
-113,322	-200,000	0,003	0,066
-112,307	-9,060	-0,058	0,028
-111,293	800,000	0,013	0,029
-110,278	-107,747	0,148	0,023
-109,264	-83,115	0,057	-0,013
-108,249	-66,358	0,019	-0,005
-107,234	42,440	-0,099	-0,065
-106,220	-200,000	-0,019	-0,087
-105,205	218,228	0,029	-0,033
-104,191	-200,000	-0,003	0,107
-103,176	-200,000	-0,003	0,063
-102,162	-174,210	0,134	0,003
-101,147	108,108	0,117	0,101
-100,132	-156,304	-0,018	-0,001
-99,118	-83,729	0,082	0,019
-98,103	-10,511	0,079	-0,038
-97,089	-26,517	0,068	-0,029
-96,074	800,000	-0,048	0,107
-95,059	322,909	0,019	-0,026
-94,045	800,000	-0,049	-0,124
-93,030	258,653	-0,075	0,094
-92,016	-54,910	-0,118	0,038
-91,001	-200,000	0,020	-0,145
-89,986	447,374	0,047	-0,076
-88,972	-59,065	0,068	0,021
-87,957	800,000	0,011	-0,027
-86,943	91,395	-0,071	-0,058
-85,928	-129,284	0,096	0,010
-84,913	-200,000	-0,021	-0,069
-83,899	687,995	-0,062	-0,118
-82,884	-142,386	-0,054	-0,004
-81,870	-110,827	-0,132	0,019
-80,855	800,000	0,063	0,165
-79,840	-35,797	-0,058	0,022
-78,826	437,452	0,024	-0,038
-77,811	5,425	0,067	0,036
-76,797	-135,880	-0,092	-0,008
-75,782	-200,000	0,000	-0,158
-74,767	-108,877	0,021	-0,003
-73,753	800,000	-0,027	0,077
-72,738	800,000	0,039	0,110
-71,724	-55,693	-0,016	0,005
-70,709	800,000	-0,030	-0,081
-69,694	177,289	0,141	-0,148
-68,680	114,242	0,089	0,078
-67,665	800,000	-0,073	0,148
-66,651	-5,920	0,177	0,087
-65,636	81,160	-0,043	-0,033
-64,622	-126,454	-0,143	0,015
-63,607	-200,000	0,009	0,041
-62,592	-183,851	0,006	0,000
-61,578	402,966	0,052	-0,079
-60,563	-200,000	-0,005	-0,106
-59,549	-7,226	-0,061	0,030
-58,534	-35,402	-1,657	-0,647
-57,519	800,000	-0,519	-1,167
-56,505	-200,000	-1,077	-4,614
-55,490	-120,760	0,622	-0,075
-54,476	800,000	5,235	12,301
-53,461	-200,000	15,893	278,637
-52,446	-200,000	702,752	2247,310
-51,432	563,501	1618,957	2841,402
-50,417	121,467	1623,296	1460,219
-49,403	81,781	1283,987	1002,616
-48,388	36,825	1027,884	654,507
-47,373	21,618	989,911	580,054
-46,359	20,596	978,513	569,982
-45,344	18,843	974,517	561,870
-44,330	18,971	973,126	561,466
-43,315	18,663	971,436	559,460
-42,300	18,616	970,470	558,728
-41,286	18,665	969,364	558,227
-40,271	18,638	968,352	557,535
-39,257	18,635	967,625	557,085
-38,242	18,583	966,844	556,443
-37,227	18,638	966,080	556,160
-36,213	18,571	965,249	555,443
-35,198	18,573	964,440	554,961
-34,184	18,593	963,616	554,530
-33,169	18,613	962,609	553,993
-32,154	18,621	962,000	553,647
-31,140	18,595	960,869	552,892
-30,125	18,662	960,200	552,701
-29,111	18,663	959,419	552,231
-28,096	18,619	958,935	551,789
-27,082	18,590	958,116	551,201
-26,067	18,578	957,276	550,658
-25,052	18,485	956,631	549,964
-24,038	18,568	955,725	549,690
-23,023	18,552	955,115	549,266
-22,009	18,703	954,434	549,340
-20,994	18,605	953,831	548,655
-19,979	18,634	953,232	548,381
-18,965	18,567	952,738	547,860
-17,950	18,553	952,251	547,512
-16,936	18,529	951,473	546,969
-15,921	18,486	950,902	546,478
-14,906	18,436	950,034	545,799
-13,892	18,459	949,396	545,483
-12,877	18,409	948,694	544,899
-11,863	18,446	948,146	544,682
-10,848	18,453	947,650	544,398
-9,833	18,575	947,122	544,462
-8,819	18,540	946,494	543,969
-7,804	18,471	945,791	543,321
-6,790	18,440	945,301	542,920
-5,775	18,510	944,699	542,774
-4,760	18,473	943,944	542,202
-3,746	18,474	943,396	541,870
-2,731	18,321	942,614	540,913
-1,717	18,244	942,002	540,295
-0,702	18,367	941,166	540,184
0,313	18,062	940,928	539,894
1,327	21,165	938,751	548,422
2,342	30,013	796,206	488,707
3,356	26,875	449,134	270,945
4,371	-2,540	294,829	148,420
5,386	-6,677	276,098	135,054
6,400	-8,082	270,336	130,917
7,415	-8,414	267,835	129,389
8,429	-8,363	266,836	128,941
9,444	-8,111	265,871	128,694
10,459	-8,251	265,198	128,229
11,473	-8,287	264,559	127,875
12,488	-8,348	264,058	127,567
13,502	-8,578	263,668	127,159
14,517	-8,354	263,208	127,129
15,531	-8,207	262,729	127,018
16,546	-8,095	262,315	126,908
17,561	-8,223	262,070	126,662
18,575	-8,025	261,758	126,679
19,590	-8,428	261,460	126,161
20,604	-8,283	261,133	126,123
21,619	-8,425	260,931	125,886
22,634	-8,531	260,540	125,592
23,648	-8,296	260,062	125,560
24,663	-8,517	259,995	125,319
25,677	-8,334	259,613	125,287
26,692	-8,217	259,333	125,245
27,707	-8,182	259,028	125,117
28,721	-8,419	258,881	124,824
29,736	-8,466	258,625	124,648
30,750	-8,546	258,435	124,474
31,765	-8,469	258,062	124,353
32,780	-8,397	257,812	124,284
33,794	-8,520	257,716	124,118
34,809	-8,237	257,302	124,157
35,823	-8,623	257,273	123,791
36,838	-8,443	256,836	123,729
37,853	-8,446	256,613	123,608
38,867	-8,344	256,361	123,565
39,882	-8,535	256,212	123,314
40,896	-8,490	255,902	123,194
41,911	-8,609	255,738	122,999
42,926	-8,380	255,495	123,073
43,940	-8,689	255,329	122,711
44,955	-8,686	255,124	122,604
45,969	-8,631	254,910	122,538
46,984	-8,817	254,508	122,172
47,999	-8,917	254,273	121,961
49,013	-9,095	253,958	121,644
50,028	-9,384	253,792	121,302
51,042	-9,221	253,368	121,230
52,057	-9,361	253,279	121,055
53,071	-9,414	253,101	120,914
54,086	-9,357	253,017	120,912
55,101	-9,090	252,762	121,011
56,115	-8,964	252,773	121,114
57,130	-8,440	252,565	121,457
58,144	-8,250	252,351	121,508
59,159	-7,966	252,067	121,605
60,174	-8,333	252,023	121,257
61,188	-8,255	251,751	121,182
62,203	-8,275	251,472	121,020
63,217	-8,396	251,447	120,893
64,232	-8,536	251,188	120,637
65,247	-8,434	250,875	120,563
66,261	-8,508	250,627	120,370
67,276	-8,585	250,394	120,181
68,290	-8,726	250,020	119,870
69,305	-8,893	249,757	119,591
70,320	-8,837	249,700	119,601
71,334	-8,550	249,505	119,741
72,349	-8,407	249,451	119,827
73,363	-8,146	249,264	119,950
74,378	-8,366	249,129	119,686
75,393	-8,317	248,779	119,549
76,407	-8,327	248,663	119,474
77,422	-8,436	248,449	119,268
78,436	-8,382	248,270	119,218
79,451	-8,587	248,103	118,952
80,466	-8,532	247,822	118,854
81,480	-8,743	247,589	118,553
82,495	-8,804	247,520	118,458
83,509	-8,744	247,206	118,348
84,524	-8,807	247,157	118,260
85,539	-8,979	246,788	117,928
86,553	-9,025	246,673	117,824
87,568	-8,675	246,326	117,942
88,582	-8,694	246,182	117,847
89,597	-8,891	245,977	117,573
90,611	-8,608	246,024	117,822
91,626	-8,565	245,760	117,722
92,641	-8,350	245,477	117,755
93,655	-8,657	245,328	117,416
94,670	-8,634	245,134	117,333
95,684	-8,674	244,981	117,215
96,699	-8,580	244,716	117,157
97,714	-8,842	244,521	116,834
98,728	-8,941	244,407	116,687
99,743	-8,670	243,939	116,679
100,757	-8,685	243,737	116,559
101,772	-8,695	243,699	116,522
102,787	-8,758	243,557	116,392
103,801	-8,704	243,373	116,338
104,816	-8,702	243,412	116,347
105,830	-8,482	243,266	116,450
106,845	-8,514	242,845	116,211
107,860	-8,424	242,697	116,205
108,874	-8,668	242,533	115,914
109,889	-8,678	242,284	115,777
110,903	-8,768	242,155	115,631
111,918	-8,850	241,802	115,384
112,933	-8,655	241,711	115,491
113,947	-8,610	241,619	115,474
114,962	-8,577	241,485	115,427
115,976	-8,541	241,295	115,355
116,991	-8,667	241,069	115,133
118,006	-8,693	241,012	115,075
119,020	-8,558	240,854	115,100
120,035	-8,461	240,734	115,111
121,049	-8,433	240,587	115,054
122,064	-8,403	240,433	114,994
123,079	-8,515	240,143	114,754
124,093	-8,551	239,905	114,601
125,108	-8,849	239,702	114,250
126,122	-9,019	239,495	114,003
127,137	-8,804	239,195	114,025
128,151	-9,029	239,079	113,776
129,166	-8,751	238,957	113,934
130,181	-8,855	238,713	113,723
131,195	-8,938	238,676	113,628
132,210	-8,869	238,298	113,494
133,224	-8,635	238,264	113,657
134,239	-8,766	238,157	113,490
135,254	-8,656	237,938	113,464
136,268	-8,728	237,701	113,283
137,283	-8,924	237,430	112,985
138,297	-8,948	237,188	112,841
139,312	-9,096	237,101	112,670
140,327	-8,858	237,056	112,831
141,341	-8,430	237,011	113,144
142,356	-8,208	236,809	113,217
143,370	-8,136	236,608	113,168
144,385	-8,173	236,512	113,082
145,400	-8,188	236,479	113,045
146,414	-8,224	236,174	112,859
147,429	-8,221	235,968	112,753
148,443	-8,333	235,795	112,571
149,458	-8,389	235,723	112,482
150,473	-8,073	235,423	112,581
151,487	-8,440	235,230	112,186
152,502	-8,361	235,016	112,137
153,516	-8,290	235,041	112,195
154,531	-8,209	234,696	112,086
155,546	-8,237	234,638	112,025
156,560	-8,320	234,420	111,845
157,575	-8,490	234,234	111,612
158,589	-8,505	234,029	111,492
159,604	-8,028	233,875	111,787
160,619	-7,915	233,718	111,792
161,633	-8,103	233,735	111,641
162,648	-8,110	233,673	111,596
163,662	-8,382	233,378	111,230
164,677	-8,405	233,189	111,111
165,692	-8,407	233,129	111,071
166,706	-7,886	232,940	111,382
167,721	-8,031	232,818	111,200
168,735	-8,057	232,733	111,129
169,750	-8,168	232,476	110,909
170,764	-8,202	232,274	110,776
171,779	-8,252	232,080	110,634
172,794	-8,119	232,051	110,715
173,808	-8,109	231,845	110,615
174,823	-8,793	231,480	109,894
175,837	-8,987	231,316	109,654
176,852	-8,641	231,408	109,959
177,867	-8,161	231,088	110,173
178,881	-8,009	230,990	110,235
179,896	-8,115	230,975	110,136
180,910	-8,220	230,826	109,973
181,925	-8,219	230,425	109,773
182,940	-8,275	230,410	109,712
183,954	-8,004	230,212	109,820
184,969	-7,894	230,190	109,885
185,983	-7,982	229,891	109,663
186,998	-7,683	229,870	109,877
188,013	-7,788	229,780	109,742
189,027	-7,870	229,525	109,547
190,042	-7,777	229,320	109,511
191,056	-8,163	229,235	109,162
192,071	-8,001	228,894	109,115
193,086	-8,014	228,921	109,109
194,100	-8,138	228,622	108,860
195,115	-8,626	228,363	108,350
196,129	-9,371	228,125	107,652
197,144	-4,954	229,712	111,823
198,159	0,636	231,282	116,937
199,173	3,294	231,808	119,266
200,188	3,498	231,806	119,413
201,202	3,615	231,634	119,405
202,217	3,805	231,500	119,472
203,232	4,093	231,412	119,640
204,246	4,196	231,370	119,688
205,261	4,160	230,991	119,453
206,275	4,299	231,064	119,588
207,290	4,343	230,840	119,495
208,304	4,341	230,772	119,448
209,319	4,182	230,551	119,200
210,334	4,081	230,403	119,035
211,348	4,045	229,972	118,774
212,363	3,540	229,810	118,290
213,377	3,237	229,688	117,983
214,392	3,325	229,442	117,914
215,407	3,447	229,335	117,943
216,421	3,426	229,207	117,850
217,436	3,522	229,003	117,809
218,450	3,142	228,786	117,394
219,465	3,308	228,548	117,389
220,480	3,271	228,524	117,338
221,494	3,308	228,459	117,323
222,509	3,384	228,378	117,329
223,523	3,287	228,197	117,151
224,538	3,294	228,065	117,079
225,553	3,445	227,873	117,085
226,567	3,322	227,981	117,035
227,582	3,762	227,695	117,215
228,596	3,883	227,672	117,284
229,611	3,605	227,294	116,867
230,626	3,374	227,095	116,579
231,640	3,449	226,940	116,546
232,655	3,534	226,849	116,553
233,669	3,862	226,893	116,815
234,684	3,990	226,770	116,839
235,699	3,652	226,596	116,482
236,713	3,628	226,328	116,315
237,728	3,425	226,119	116,044
238,742	3,293	225,996	115,871
239,757	3,278	225,766	115,731
240,772	3,201	225,654	115,605
241,786	3,300	225,503	115,592
242,801	3,582	225,440	115,762
243,815	3,809	225,457	115,932
244,830	3,648	225,337	115,738
245,844	3,473	225,131	115,491
246,859	3,541	224,876	115,400
247,874	3,605	224,747	115,372
248,888	3,653	224,613	115,329
249,903	3,777	224,408	115,307
250,917	3,471	224,297	115,010
251,932	3,200	224,141	114,717
252,947	3,389	223,988	114,770
253,961	3,352	223,758	114,614
254,976	3,209	223,682	114,457
255,990	3,402	223,529	114,513
257,005	3,729	223,434	114,699
258,020	3,489	223,390	114,487
259,034	3,744	223,325	114,634
260,049	3,949	223,104	114,663
261,063	3,649	222,976	114,363
262,078	3,719	222,785	114,307
263,093	3,707	222,775	114,283
264,107	3,539	222,492	114,003
265,122	3,654	222,277	113,968
266,136	3,670	222,263	113,962
267,151	3,857	222,181	114,049
268,166	3,604	221,850	113,681
269,180	3,329	221,493	113,285
270,195	3,284	221,424	113,206
271,209	3,405	221,304	113,224
272,224	3,435	221,293	113,230
273,239	3,548	221,142	113,226
274,253	3,272	220,808	112,842
275,268	3,148	220,719	112,695
276,282	2,987	220,570	112,491
277,297	3,097	220,430	112,490
278,312	3,167	220,355	112,494
279,326	3,296	220,351	112,576
280,341	3,428	220,071	112,520
281,355	3,295	220,040	112,396
282,370	3,344	219,766	112,282
283,384	3,293	219,518	112,108
284,399	3,190	219,389	111,957
285,414	3,205	219,185	111,854
286,428	3,425	219,377	112,103
287,443	3,558	219,147	112,072
288,457	3,516	219,017	111,965
289,472	3,566	218,785	111,873
290,487	3,095	218,484	111,366
291,501	2,811	218,425	111,120
292,516	2,904	218,404	111,167
293,530	2,952	218,252	111,114
294,545	3,165	218,052	111,157
295,560	3,162	217,981	111,109
296,574	3,626	217,785	111,336
297,589	3,449	217,589	111,097
298,603	3,502	217,721	111,193
299,618	3,509	217,429	111,040
300,633	3,493	217,439	111,022
301,647	3,603	217,276	111,009
302,662	3,540	217,134	110,881
303,676	3,536	216,970	110,785
304,691	3,691	216,929	110,866
305,706	3,721	216,764	110,794
306,720	3,480	216,529	110,489
307,735	3,580	216,297	110,434
308,749	3,275	216,116	110,111
309,764	3,558	216,105	110,300
310,779	3,604	215,993	110,266
311,793	3,621	215,792	110,165
312,808	3,426	215,694	109,966
313,822	3,235	215,501	109,721
314,837	3,117	215,255	109,501
315,852	3,505	215,184	109,733
316,866	3,566	215,143	109,746
317,881	3,810	215,024	109,850
318,895	3,458	214,820	109,484
319,910	3,223	214,777	109,285
320,925	3,259	214,408	109,113
321,939	3,009	214,189	108,814
322,954	3,178	214,139	108,899
323,968	3,582	214,100	109,157
324,983	3,588	214,139	109,172
325,997	3,692	213,964	109,146
327,012	3,393	213,772	108,827
328,027	3,198	213,799	108,692
329,041	3,625	213,654	108,912
330,056	4,030	213,399	109,059
331,070	3,464	213,117	108,505
332,085	3,090	213,061	108,202
333,100	3,303	212,877	108,249
334,114	3,547	212,718	108,331
335,129	3,478	212,670	108,248
336,143	3,156	212,470	107,909
337,158	3,004	212,428	107,771
338,173	3,341	212,294	107,931
339,187	3,298	212,110	107,798
340,202	3,069	211,914	107,528
341,216	3,242	211,787	107,575
342,231	3,440	211,689	107,655
343,246	3,238	211,569	107,442
344,260	3,285	211,301	107,330
345,275	3,369	211,360	107,409
346,289	3,501	211,207	107,414
347,304	3,664	210,998	107,412
348,319	3,404	210,932	107,188
349,333	3,043	210,931	106,925
350,348	3,250	210,717	106,952
351,362	3,525	210,605	107,077
352,377	3,499	210,321	106,905
353,392	3,245	210,314	106,715
354,406	3,359	210,300	106,778
355,421	195,421	1341,876	1427,863
356,435	156,059	1479,772	1427,905
