DTS Sentinel unit serial number:	SN410029Multiplexer serial number:	ORYXHardware model number:	OX2-SRSoftware version number:	ORYX F/W v4,00 Oryx Data Collector v3.7.2.0data status	okinstallation	B6 Nyhavnadifferential loss correction	single-endedforward channel	channel 2reverse channel	N/Adate	2023/12/08time	08:05:08forward acquisition time	300,00reverse acquisition time	0,00gamma	499,1914k internal	0,3190k external	0,3190temperature offset calibration	1,0000default loss term (dB/km)	0,3820temperature slope calibration	1,0000multiplexer offset coefficient	1,0000multiplexer slope coefficient	1,0000fibre end	0,00T internal ref (°C)	10,97T ext. ref 1 (°C)	-2,61T ext. ref 2 (°C)	-2,61length (m)	temperature (°C)	Stokes	anti-Stokes-744,400	-200,000	0,027	0,120
-743,385	104,494	-0,312	-0,268
-742,371	-4,828	0,228	0,115
-741,356	-132,139	-0,211	-0,020
-740,342	-5,339	0,044	0,022
-739,327	36,443	-0,367	-0,236
-738,312	378,258	0,112	0,168
-737,298	-49,706	-0,452	-0,156
-736,283	147,005	0,094	0,093
-735,269	-90,415	-0,381	-0,080
-734,254	-100,203	0,154	0,028
-733,239	-86,921	-0,500	-0,110
-732,225	800,000	0,094	0,206
-731,210	141,085	-0,122	0,118
-730,196	-200,000	0,027	-0,134
-729,181	-200,000	-0,032	-0,205
-728,167	-71,412	-0,053	-0,014
-727,152	800,000	0,021	-0,062
-726,137	729,577	-0,062	-0,121
-725,123	106,161	-0,024	-0,021
-724,108	-39,338	-0,119	-0,045
-723,094	279,207	-0,057	-0,074
-722,079	-150,563	-0,076	0,004
-721,064	311,590	0,021	-0,028
-720,050	-41,129	0,069	0,026
-719,035	-80,410	0,018	0,004
-718,021	-79,382	-0,165	-0,040
-717,006	-35,808	-0,042	-0,017
-715,991	435,167	0,027	-0,042
-714,977	-111,644	-0,122	-0,018
-713,962	571,029	-0,043	0,077
-712,948	-200,000	-0,012	0,048
-711,933	-113,545	-0,190	0,027
-710,918	-63,660	-0,044	-0,013
-709,904	-200,000	-0,029	-0,138
-708,889	707,377	0,073	0,140
-707,875	1,649	-0,200	-0,104
-706,860	-72,878	0,096	-0,026
-705,845	-200,000	0,015	-0,128
-704,831	-176,813	0,025	0,000
-703,816	800,000	0,035	0,094
-702,802	147,893	-0,056	-0,055
-701,787	800,000	0,030	-0,088
-700,772	57,831	-0,060	0,043
-699,758	-200,000	-0,028	0,092
-698,743	-43,727	0,056	0,020
-697,729	-200,000	0,007	0,059
-696,714	800,000	0,040	-0,114
-695,699	69,090	0,122	-0,091
-694,685	76,440	-0,107	-0,082
-693,670	-103,412	0,027	0,005
-692,656	800,000	-0,040	0,083
-691,641	800,000	0,017	-0,038
-690,627	255,210	0,019	0,024
-689,612	-44,904	0,060	0,022
-688,597	629,988	0,054	-0,101
-687,583	292,063	-0,041	-0,054
-686,568	-113,251	-0,115	0,016
-685,554	-157,469	-0,064	0,003
-684,539	-128,914	0,155	-0,016
-683,524	-19,618	-0,087	-0,039
-682,510	800,000	0,039	0,104
-681,495	800,000	-0,027	0,080
-680,481	-43,677	-0,108	-0,039
-679,466	106,453	-0,074	-0,064
-678,451	667,802	-0,036	-0,068
-677,437	61,697	0,019	0,014
-676,422	-53,318	-0,074	0,025
-675,408	430,594	0,052	-0,083
-674,393	800,000	-0,035	-0,091
-673,378	-120,256	-0,220	-0,027
-672,364	800,000	0,026	-0,071
-671,349	122,154	0,051	-0,046
-670,335	800,000	0,034	-0,076
-669,320	-85,066	0,154	0,035
-668,305	-80,356	0,064	0,015
-667,291	478,916	-0,058	-0,095
-666,276	274,322	-0,088	-0,113
-665,262	315,059	0,069	-0,095
-664,247	519,073	-0,045	-0,076
-663,232	-23,298	0,042	-0,018
-662,218	232,696	0,041	-0,050
-661,203	-200,000	-0,008	0,052
-660,189	21,285	-0,092	0,054
-659,174	800,000	0,043	-0,107
-658,159	89,046	-0,069	-0,056
-657,145	800,000	0,052	-0,114
-656,130	228,292	0,040	0,048
-655,116	800,000	-0,031	-0,087
-654,101	-200,000	-0,004	0,047
-653,086	-47,505	0,151	-0,053
-652,072	352,323	0,043	-0,062
-651,057	56,582	-0,083	-0,058
-650,043	-200,000	0,001	0,021
-649,028	-135,460	0,124	0,011
-648,014	-200,000	0,016	0,071
-646,999	-200,000	-0,016	0,056
-645,984	-90,943	-0,138	-0,029
-644,970	-62,704	0,127	0,038
-643,955	231,562	-0,067	-0,080
-642,941	-200,000	-0,032	-0,118
-641,926	800,000	0,010	-0,024
-640,911	671,921	0,083	0,156
-639,897	800,000	-0,069	0,154
-638,882	56,968	-0,043	-0,030
-637,868	627,116	0,079	-0,145
-636,853	595,604	0,035	-0,064
-635,838	440,932	-0,053	-0,085
-634,824	175,700	-0,094	-0,099
-633,809	615,536	0,077	-0,141
-632,795	251,493	0,058	0,072
-631,780	-200,000	0,008	-0,056
-630,765	800,000	0,040	0,098
-629,751	108,803	-0,100	0,086
-628,736	800,000	-0,014	-0,029
-627,722	-79,408	-0,111	0,027
-626,707	98,713	-0,082	-0,069
-625,692	-200,000	0,007	-0,064
-624,678	310,930	-0,031	0,042
-623,663	-200,000	0,009	-0,064
-622,649	122,774	-0,123	0,112
-621,634	484,436	0,047	-0,078
-620,619	672,847	-0,034	0,065
-619,605	226,765	0,044	0,052
-618,590	800,000	-0,026	-0,073
-617,576	108,510	0,040	0,035
-616,561	-17,435	-0,055	0,025
-615,546	170,888	-0,068	-0,071
-614,532	-200,000	-0,031	-0,166
-613,517	54,108	0,062	-0,043
-612,503	-200,000	-0,016	0,251
-611,488	110,777	0,091	0,079
-610,474	-200,000	-0,011	0,134
-609,459	14,258	0,154	0,087
-608,444	8,380	-0,194	-0,105
-607,430	-62,618	-0,077	-0,023
-606,415	71,656	-0,153	-0,115
-605,401	800,000	0,039	-0,096
-604,386	121,953	0,095	0,086
-603,371	-105,785	0,089	0,014
-602,357	480,743	-0,053	0,088
-601,342	138,969	0,038	0,036
-600,328	124,474	-0,155	-0,142
-599,313	-200,000	0,009	-0,061
-598,298	-200,000	-0,002	-0,117
-597,284	800,000	0,042	-0,094
-596,269	181,042	0,087	0,093
-595,255	-0,456	-0,086	0,044
-594,240	800,000	-0,014	-0,044
-593,225	-83,719	-0,116	0,027
-592,211	45,489	-0,138	-0,092
-591,196	36,035	0,109	0,070
-590,182	800,000	-0,025	0,067
-589,167	58,107	-0,061	0,043
-588,152	432,376	0,060	0,094
-587,138	-128,824	-0,029	-0,003
-586,123	-6,181	-0,080	0,039
-585,109	800,000	0,006	0,014
-584,094	-200,000	-0,027	0,122
-583,079	-104,547	0,144	-0,024
-582,065	50,540	0,023	-0,015
-581,050	2,195	0,047	-0,025
-580,036	237,701	-0,051	0,062
-579,021	800,000	0,045	-0,104
-578,006	-34,755	-0,086	0,034
-576,992	161,601	0,133	0,135
-575,977	34,337	0,078	0,049
-574,963	81,911	-0,072	-0,057
-573,948	26,529	0,104	0,063
-572,934	763,554	-0,016	0,031
-571,919	564,035	-0,041	0,072
-570,904	-73,243	0,101	-0,027
-569,890	30,737	0,086	-0,053
-568,875	445,712	0,050	0,080
-567,861	133,615	-0,064	-0,060
-566,846	800,000	0,009	0,022
-565,831	-200,000	-0,003	0,080
-564,817	29,936	-0,141	0,087
-563,802	649,552	-0,099	-0,185
-562,788	545,169	-0,040	0,069
-561,773	-52,428	-0,088	-0,029
-560,758	48,834	0,208	0,141
-559,744	-200,000	0,018	0,093
-558,729	-160,041	-0,058	-0,002
-557,715	574,858	-0,071	-0,127
-556,700	-36,098	-0,108	-0,042
-555,685	-200,000	0,013	0,060
-554,671	215,432	-0,063	0,073
-553,656	-66,477	0,134	0,038
-552,642	-18,798	0,047	0,021
-551,627	-200,000	0,001	0,064
-550,612	110,929	-0,073	-0,064
-549,598	273,606	0,043	-0,056
-548,583	-200,000	-0,033	-0,167
-547,569	31,758	0,189	-0,117
-546,554	800,000	0,039	0,114
-545,539	100,442	0,118	0,099
-544,525	-34,356	-0,067	0,026
-543,510	-56,106	0,039	0,012
-542,496	-75,971	-0,063	-0,016
-541,481	38,865	-0,011	-0,007
-540,466	11,490	-0,084	0,046
-539,452	212,295	0,105	0,120
-538,437	16,488	-0,123	0,070
-537,423	183,596	-0,064	0,068
-536,408	453,519	-0,019	-0,030
-535,393	-12,966	-0,153	-0,072
-534,379	61,851	-0,055	-0,039
-533,364	-16,813	-0,042	-0,019
-532,350	76,774	-0,110	-0,084
-531,335	-56,113	0,047	-0,015
-530,321	-200,000	-0,020	0,094
-529,306	567,292	-0,027	-0,048
-528,291	148,905	-0,097	-0,095
-527,277	-200,000	0,016	-0,150
-526,262	-55,845	-0,090	0,029
-525,248	164,406	0,073	-0,074
-524,233	-105,940	-0,105	0,017
-523,218	-97,922	0,059	-0,011
-522,204	-200,000	-0,005	-0,041
-521,189	-123,042	0,041	-0,005
-520,175	800,000	-0,040	-0,082
-519,160	800,000	-0,018	0,053
-518,145	-161,677	-0,027	0,001
-517,131	-200,000	0,023	0,096
-516,116	-77,797	-0,057	-0,014
-515,102	-200,000	0,033	0,123
-514,087	-200,000	-0,028	0,090
-513,072	-128,400	-0,037	-0,004
-512,058	800,000	-0,030	0,087
-511,043	61,265	-0,094	0,068
-510,029	191,510	-0,069	0,075
-509,014	92,137	0,024	0,020
-507,999	278,862	0,101	-0,131
-506,985	800,000	-0,058	-0,172
-505,970	0,062	-0,088	-0,045
-504,956	-55,053	0,044	0,014
-503,941	64,133	0,093	-0,067
-502,926	-76,286	-0,074	0,019
-501,912	-123,491	0,163	0,018
-500,897	324,054	-0,067	-0,093
-499,883	-200,000	-0,001	-0,133
-498,868	800,000	0,029	-0,074
-497,853	-200,000	0,000	-0,035
-496,839	-23,081	-0,108	0,047
-495,824	-5,432	-0,024	0,012
-494,810	-5,735	-0,004	0,002
-493,795	-49,537	0,062	-0,021
-492,781	-131,995	-0,042	-0,004
-491,766	204,482	-0,035	0,039
-490,751	234,303	-0,068	0,081
-489,737	388,344	0,079	-0,119
-488,722	-121,294	0,051	0,006
-487,708	800,000	0,042	0,124
-486,693	-22,252	0,019	0,008
-485,678	-200,000	0,019	-0,112
-484,664	-88,012	0,037	0,008
-483,649	765,039	0,056	0,110
-482,635	197,780	0,063	-0,069
-481,620	-200,000	-0,008	0,105
-480,605	-133,379	0,050	-0,004
-479,591	443,883	-0,062	0,098
-478,576	462,382	-0,031	-0,050
-477,562	800,000	-0,013	-0,031
-476,547	-111,944	0,077	0,011
-475,532	-76,831	-0,029	0,007
-474,518	65,751	0,047	0,034
-473,503	88,771	0,026	-0,021
-472,489	-200,000	-0,006	-0,046
-471,474	-99,606	0,146	0,026
-470,459	86,469	-0,066	-0,052
-469,445	0,945	0,032	-0,017
-468,430	113,044	0,042	-0,036
-467,416	800,000	0,043	-0,114
-466,401	19,616	0,026	-0,015
-465,386	-200,000	0,004	0,044
-464,372	-10,881	0,068	-0,032
-463,357	-200,000	0,007	-0,038
-462,343	-97,100	0,098	-0,018
-461,328	285,731	-0,073	0,095
-460,313	-195,392	0,094	0,000
-459,299	-200,000	0,036	0,163
-458,284	800,000	-0,093	-0,204
-457,270	-95,543	-0,045	-0,009
-456,255	14,185	-0,026	0,015
-455,241	-200,000	0,001	-0,046
-454,226	300,970	0,064	-0,086
-453,211	-200,000	0,008	-0,057
-452,197	171,260	-0,072	-0,075
-451,182	48,372	-0,077	-0,052
-450,168	441,389	-0,045	0,071
-449,153	290,641	-0,003	0,003
-448,138	107,744	0,058	-0,050
-447,124	800,000	-0,017	-0,035
-446,109	800,000	-0,035	-0,076
-445,095	-200,000	-0,026	-0,098
-444,080	-200,000	-0,013	-0,058
-443,065	-102,282	-0,155	-0,027
-442,051	-51,107	0,164	0,055
-441,036	133,207	-0,152	-0,142
-440,022	-200,000	0,015	-0,088
-439,007	800,000	0,020	-0,046
-437,992	-123,414	0,063	-0,007
-436,978	-60,572	0,086	-0,026
-435,963	800,000	-0,009	0,022
-434,949	-117,917	-0,140	-0,018
-433,934	5,346	0,051	0,027
-432,919	-200,000	0,016	0,153
-431,905	13,929	-0,047	-0,026
-430,890	-45,740	-0,034	-0,012
-429,876	19,326	0,052	-0,030
-428,861	702,026	0,041	0,079
-427,846	675,872	-0,042	0,079
-426,832	-200,000	-0,016	-0,084
-425,817	-200,000	-0,020	-0,116
-424,803	800,000	-0,032	-0,074
-423,788	-51,431	0,050	0,017
-422,773	64,816	-0,104	0,075
-421,759	87,730	0,084	-0,067
-420,744	181,528	-0,104	-0,111
-419,730	-200,000	0,017	-0,112
-418,715	68,910	0,107	0,079
-417,701	-65,905	0,035	0,010
-416,686	475,346	-0,026	-0,043
-415,671	-200,000	0,017	0,101
-414,657	-48,598	0,024	-0,008
-413,642	800,000	0,039	0,110
-412,628	93,484	0,131	0,107
-411,613	-79,566	-0,048	0,012
-410,598	-144,914	0,123	-0,008
-409,584	36,742	-0,029	0,018
-408,569	-172,794	-0,020	0,000
-407,555	-87,744	0,074	-0,016
-406,540	-97,131	0,075	0,014
-405,525	118,317	-0,087	0,077
-404,511	800,000	0,078	0,184
-403,496	800,000	0,011	-0,025
-402,482	240,686	-0,023	0,027
-401,467	-49,970	0,081	-0,027
-400,452	800,000	0,015	-0,044
-399,438	-200,000	-0,029	-0,125
-398,423	-200,000	-0,013	-0,086
-397,409	138,442	-0,124	-0,117
-396,394	-52,677	0,008	-0,003
-395,379	3,714	-0,067	0,035
-394,365	-200,000	0,049	0,171
-393,350	-200,000	0,013	-0,067
-392,336	21,815	-0,058	0,034
-391,321	733,909	0,024	-0,047
-390,306	800,000	0,026	-0,072
-389,292	800,000	-0,051	-0,116
-388,277	-55,097	-0,023	0,007
-387,263	-53,122	0,139	-0,046
-386,248	-200,000	0,009	0,234
-385,233	-90,884	0,121	0,025
-384,219	-129,708	0,096	0,009
-383,204	533,726	0,072	-0,123
-382,190	800,000	0,021	-0,053
-381,175	139,130	-0,010	-0,010
-380,160	538,750	0,092	-0,158
-379,146	107,120	0,104	-0,089
-378,131	306,957	0,034	-0,045
-377,117	607,498	0,054	0,097
-376,102	110,531	0,108	-0,093
-375,088	-102,206	-0,038	0,007
-374,073	232,023	-0,048	-0,057
-373,058	-186,723	-0,202	-0,002
-372,044	41,227	0,047	0,031
-371,029	-200,000	-0,040	0,149
-370,015	100,770	-0,142	0,118
-369,000	-26,445	0,130	-0,054
-367,985	677,989	-0,042	-0,079
-366,971	-107,310	0,013	0,002
-365,956	-200,000	-0,027	0,106
-364,942	314,142	0,111	0,151
-363,927	143,496	0,083	0,079
-362,912	-97,593	-0,150	0,028
-361,898	800,000	0,009	-0,026
-360,883	-200,000	-0,024	-0,091
-359,869	-200,000	-0,006	0,043
-358,854	87,766	-0,077	0,061
-357,839	-200,000	-0,029	0,107
-356,825	-71,481	0,169	-0,045
-355,810	-42,140	-0,078	-0,028
-354,796	165,506	0,077	0,078
-353,781	-93,634	-0,100	-0,020
-352,766	623,052	-0,041	-0,074
-351,752	-139,909	0,019	0,001
-350,737	450,201	0,076	0,121
-349,723	681,796	-0,051	0,096
-348,708	-72,280	-0,184	-0,049
-347,693	-61,050	0,084	0,025
-346,679	-90,361	-0,193	-0,040
-345,664	410,488	0,103	-0,157
-344,650	4,874	-0,039	-0,021
-343,635	-113,238	0,048	0,007
-342,620	384,144	-0,165	-0,245
-341,606	278,744	0,075	0,096
-340,591	119,650	0,077	-0,068
-339,577	236,901	-0,028	-0,034
-338,562	800,000	-0,033	0,105
-337,548	36,281	0,102	-0,065
-336,533	158,560	0,095	-0,095
-335,518	-200,000	0,001	0,073
-334,504	140,157	0,060	-0,057
-333,489	800,000	-0,006	0,013
-332,475	-60,754	0,115	-0,035
-331,460	58,943	-0,065	-0,046
-330,445	534,357	-0,053	-0,091
-329,431	6,782	0,113	0,060
-328,416	26,128	-0,009	0,005
-327,402	-178,975	-0,076	0,001
-326,387	-200,000	0,000	0,070
-325,372	467,872	-0,069	-0,111
-324,358	-62,986	-0,078	0,023
-323,343	12,401	-0,083	0,046
-322,329	800,000	0,019	-0,057
-321,314	48,415	0,163	0,110
-320,299	-200,000	0,031	0,286
-319,285	620,195	-0,077	0,139
-318,270	-200,000	0,004	-0,067
-317,256	-39,448	0,112	-0,042
-316,241	352,060	-0,060	0,086
-315,226	-4,772	0,076	-0,037
-314,212	131,323	-0,021	0,019
-313,197	73,092	0,130	0,098
-312,183	309,830	0,073	0,098
-311,168	400,887	-0,047	0,071
-310,153	-69,380	-0,065	-0,018
-309,139	-200,000	-0,031	0,100
-308,124	-200,000	-0,002	0,036
-307,110	-200,000	0,034	0,127
-306,095	-107,842	0,078	0,012
-305,080	-68,979	-0,088	-0,024
-304,066	-126,748	0,030	-0,003
-303,051	-60,673	-0,087	-0,026
-302,037	-200,000	-0,022	-0,086
-301,022	-200,000	-0,010	-0,049
-300,008	-200,000	0,005	-0,029
-298,993	-200,000	-0,012	-0,063
-297,978	-37,138	0,032	-0,012
-296,964	-20,922	-0,078	-0,034
-295,949	-31,932	-0,055	-0,022
-294,935	-42,185	-0,047	0,017
-293,920	226,535	0,117	0,137
-292,905	-200,000	0,014	0,128
-291,891	-57,596	0,190	0,059
-290,876	-200,000	-0,011	0,066
-289,862	-70,200	-0,099	-0,027
-288,847	800,000	-0,028	0,060
-287,832	-83,856	0,040	-0,009
-286,818	367,930	-0,045	0,066
-285,803	800,000	0,028	-0,057
-284,789	800,000	-0,049	0,118
-283,774	67,276	0,031	-0,023
-282,759	-200,000	0,008	-0,129
-281,745	-200,000	0,029	0,114
-280,730	-141,187	-0,100	-0,007
-279,716	122,640	0,079	0,071
-278,701	-200,000	-0,018	-0,135
-277,686	-66,227	-0,012	-0,004
-276,672	-200,000	-0,005	0,066
-275,657	-200,000	0,042	-0,141
-274,643	190,472	-0,086	-0,093
-273,628	-200,000	-0,030	0,099
-272,613	800,000	-0,006	-0,017
-271,599	-200,000	0,010	-0,034
-270,584	800,000	0,010	-0,025
-269,570	746,540	0,045	0,086
-268,555	800,000	0,061	0,130
-267,540	-27,257	-0,053	-0,022
-266,526	-198,233	0,023	0,000
-265,511	236,718	0,009	0,011
-264,497	-200,000	0,001	0,007
-263,482	420,070	-0,069	0,106
-262,467	70,645	-0,087	0,064
-261,453	-51,072	0,109	-0,036
-260,438	234,926	-0,110	-0,130
-259,424	-200,000	-0,023	-0,121
-258,409	-200,000	0,012	-0,145
-257,395	-200,000	0,003	0,132
-256,380	39,515	0,069	0,044
-255,365	127,108	-0,067	0,061
-254,351	214,350	0,056	0,063
-253,336	452,839	-0,101	-0,160
-252,322	-200,000	-0,033	-0,110
-251,307	-200,000	-0,008	-0,057
-250,292	248,000	0,109	0,132
-249,278	800,000	-0,054	0,157
-248,263	-200,000	-0,005	0,113
-247,249	-52,190	0,139	0,046
-246,234	58,486	0,125	-0,087
-245,219	397,473	-0,137	-0,206
-244,205	49,087	-0,050	-0,033
-243,190	518,932	0,081	-0,136
-242,176	800,000	0,053	0,111
-241,161	-200,000	0,015	0,113
-240,146	800,000	-0,013	0,035
-239,132	10,394	0,116	0,063
-238,117	800,000	0,024	0,055
-237,103	800,000	-0,029	0,063
-236,088	29,182	-0,100	-0,061
-235,073	-131,228	0,127	-0,012
-234,059	32,288	-0,093	0,057
-233,044	25,647	-0,027	-0,016
-232,030	303,404	0,027	-0,036
-231,015	-200,000	0,028	-0,122
-230,000	-29,292	-0,106	-0,043
-228,986	87,428	-0,086	0,068
-227,971	443,911	0,076	-0,120
-226,957	-200,000	0,001	0,058
-225,942	387,599	0,070	0,103
-224,927	-200,000	0,024	0,081
-223,913	372,232	0,026	-0,038
-222,898	-155,078	-0,081	-0,004
-221,884	-200,000	0,127	0,000
-220,869	48,902	-0,116	0,077
-219,855	800,000	0,025	-0,052
-218,840	800,000	-0,014	0,039
-217,825	-111,585	-0,062	0,009
-216,811	-53,980	-0,115	-0,037
-215,796	-164,092	0,139	-0,005
-214,782	397,267	0,068	-0,102
-213,767	-200,000	-0,007	-0,056
-212,752	-82,569	0,175	0,040
-211,738	-28,501	0,040	-0,016
-210,723	-200,000	0,008	0,100
-209,709	44,895	-0,062	0,040
-208,694	800,000	0,032	-0,066
-207,679	-200,000	0,022	0,070
-206,665	-200,000	-0,012	0,050
-205,650	-10,407	0,061	-0,029
-204,636	-65,145	-0,147	0,042
-203,621	-93,321	0,068	-0,013
-202,606	800,000	0,006	-0,013
-201,592	-103,050	0,064	0,011
-200,577	800,000	-0,015	0,038
-199,563	-33,183	-0,050	-0,020
-198,548	190,355	0,036	0,039
-197,533	-131,707	-0,043	-0,004
-196,519	119,970	0,081	0,072
-195,504	-200,000	0,034	-0,160
-194,490	-51,022	0,044	-0,015
-193,475	-72,213	0,119	-0,031
-192,460	201,217	-0,025	-0,027
-191,446	-59,312	0,083	-0,025
-190,431	592,682	-0,039	0,068
-189,417	-200,000	0,008	-0,072
-188,402	167,349	-0,050	-0,050
-187,387	800,000	0,033	-0,100
-186,373	-168,607	-0,079	0,002
-185,358	399,535	0,021	0,031
-184,344	800,000	0,020	-0,052
-183,329	779,644	0,073	-0,143
-182,315	-87,779	0,008	-0,002
-181,300	-81,544	-0,030	0,007
-180,285	-200,000	-0,008	-0,040
-179,271	212,166	-0,126	-0,142
-178,256	800,000	-0,026	0,080
-177,242	800,000	0,026	0,060
-176,227	792,869	0,018	-0,035
-175,212	17,517	0,076	0,043
-174,198	-89,042	-0,254	-0,053
-173,183	-16,637	-0,052	0,024
-172,169	54,419	-0,091	0,062
-171,154	78,976	0,137	-0,105
-170,139	-200,000	-0,017	0,098
-169,125	-115,597	0,068	-0,009
-168,110	800,000	-0,052	0,104
-167,096	-77,592	-0,139	-0,034
-166,081	2,397	-0,024	-0,012
-165,066	-50,955	-0,199	0,066
-164,052	54,072	0,109	0,075
-163,037	-138,283	0,110	-0,009
-162,023	-44,699	0,068	0,024
-161,008	-17,914	0,117	0,052
-159,993	-200,000	0,028	0,101
-158,979	770,156	0,012	0,024
-157,964	5,555	-0,080	-0,042
-156,950	-200,000	0,002	-0,036
-155,935	379,228	-0,042	-0,062
-154,920	-162,123	-0,142	0,005
-153,906	14,303	0,114	-0,063
-152,891	-50,852	-0,051	-0,017
-151,877	262,386	0,042	0,051
-150,862	71,275	-0,121	0,089
-149,847	94,117	-0,057	0,046
-148,833	255,768	-0,065	0,079
-147,818	-200,000	-0,039	0,131
-146,804	-200,000	0,007	-0,047
-145,789	-200,000	-0,021	-0,069
-144,775	707,405	0,077	-0,147
-143,760	-53,677	-0,153	-0,050
-142,745	-200,000	0,007	0,090
-141,731	-51,124	-0,094	0,031
-140,716	190,231	0,092	0,098
-139,702	-109,557	0,162	0,024
-138,687	8,835	-0,095	-0,051
-137,672	-200,000	0,003	-0,110
-136,658	-93,637	-0,096	0,019
-135,643	534,475	0,019	-0,032
-134,629	374,569	-0,060	-0,087
-133,614	-9,246	0,107	-0,051
-132,599	-200,000	0,008	-0,038
-131,585	536,225	0,063	0,107
-130,570	363,492	0,041	0,059
-129,556	800,000	-0,040	-0,087
-128,541	609,070	0,056	0,101
-127,526	-200,000	-0,012	0,062
-126,512	165,776	0,058	-0,058
-125,497	29,490	-0,081	0,049
-124,483	744,705	0,085	0,164
-123,468	-2,520	0,083	0,041
-122,453	77,165	-0,156	-0,118
-121,439	376,551	0,074	-0,109
-120,424	-69,038	-0,073	0,020
-119,410	-200,000	-0,048	0,170
-118,395	-143,096	-0,072	0,005
-117,380	800,000	0,081	0,215
-116,366	679,775	-0,039	0,073
-115,351	-66,816	0,074	-0,021
-114,337	-200,000	-0,001	0,012
-113,322	800,000	0,049	0,106
-112,307	-25,424	0,030	-0,013
-111,293	800,000	0,023	0,055
-110,278	272,579	-0,077	-0,097
-109,264	-200,000	0,012	-0,100
-108,249	132,484	-0,080	-0,074
-107,234	699,281	0,021	0,040
-106,220	138,209	0,072	0,067
-105,205	12,107	-0,076	0,041
-104,191	800,000	0,068	0,198
-103,176	-174,404	0,105	-0,002
-102,162	800,000	0,020	-0,062
-101,147	-21,510	-0,059	-0,025
-100,132	-200,000	0,029	-0,114
-99,118	-148,780	0,056	0,003
-98,103	800,000	-0,030	0,075
-97,089	800,000	-0,074	0,160
-96,074	-200,000	0,029	0,096
-95,059	-200,000	0,001	-0,007
-94,045	-200,000	-0,007	0,069
-93,030	-200,000	-0,002	-0,097
-92,016	-200,000	0,019	-0,157
-91,001	800,000	-0,019	0,043
-89,986	143,887	0,053	0,050
-88,972	800,000	-0,047	0,114
-87,957	14,889	0,053	0,029
-86,943	75,818	-0,064	0,048
-85,928	-146,418	-0,078	-0,005
-84,913	800,000	0,055	-0,112
-83,899	-200,000	0,013	-0,098
-82,884	-61,942	-0,052	0,015
-81,870	800,000	0,072	-0,176
-80,855	415,720	-0,055	-0,084
-79,840	-33,724	-0,073	0,028
-78,826	800,000	-0,020	-0,059
-77,811	800,000	-0,019	-0,053
-76,797	68,461	0,041	0,030
-75,782	8,331	0,061	0,032
-74,767	63,211	0,088	0,063
-73,753	-60,622	-0,026	0,008
-72,738	-44,550	0,073	-0,026
-71,724	275,782	-0,019	0,025
-70,709	-135,034	0,098	0,008
-69,694	-170,359	-0,067	0,002
-68,680	800,000	0,044	0,095
-67,665	-42,385	0,056	-0,020
-66,651	-10,693	0,076	0,035
-65,636	-20,251	0,021	0,009
-64,622	-200,000	0,001	0,023
-63,607	800,000	-0,064	-0,142
-62,592	80,306	0,049	-0,037
-61,578	-200,000	0,012	-0,094
-60,563	-200,000	-0,032	0,123
-59,549	800,000	-0,039	-0,094
-58,534	114,088	-2,806	-2,425
-57,519	-88,512	0,760	-0,160
-56,505	800,000	-1,798	-5,439
-55,490	305,987	1,064	1,410
-54,476	800,000	5,525	12,319
-53,461	-200,000	22,583	346,883
-52,446	800,000	777,039	2318,360
-51,432	517,823	1678,887	2800,750
-50,417	111,717	1638,685	1404,485
-49,403	81,333	1282,720	983,679
-48,388	28,916	1025,202	615,726
-47,373	19,712	989,681	564,288
-46,359	15,085	976,911	541,949
-45,344	11,582	973,685	528,752
-44,330	12,015	971,688	529,054
-43,315	11,077	969,723	524,922
-42,300	11,083	968,680	524,355
-41,286	11,045	967,900	523,789
-40,271	11,027	967,096	523,276
-39,257	11,030	965,981	522,659
-38,242	11,086	965,088	522,338
-37,227	11,046	964,315	521,767
-36,213	11,000	963,473	521,146
-35,198	10,995	962,724	520,701
-34,184	11,074	961,762	520,416
-33,169	10,956	960,949	519,575
-32,154	11,030	959,941	519,248
-31,140	10,995	959,073	518,647
-30,125	11,020	958,406	518,345
-29,111	11,025	957,425	517,808
-28,096	11,042	956,929	517,574
-27,082	11,065	956,176	517,220
-26,067	11,034	955,315	516,635
-25,052	11,053	954,462	516,214
-24,038	10,952	953,940	515,588
-23,023	10,996	953,114	515,261
-22,009	11,046	952,501	515,070
-20,994	10,871	952,044	514,246
-19,979	10,926	951,503	514,108
-18,965	10,958	950,587	513,693
-17,950	10,885	950,208	513,237
-16,936	10,919	949,541	512,964
-15,921	10,995	948,954	512,866
-14,906	10,994	948,108	512,386
-13,892	10,934	947,458	511,825
-12,877	10,894	946,804	511,324
-11,863	10,913	946,368	511,130
-10,848	10,873	945,782	510,668
-9,833	10,936	945,096	510,475
-8,819	10,886	944,631	510,046
-7,804	10,929	943,694	509,656
-6,790	10,834	943,055	508,989
-5,775	10,890	942,792	509,003
-4,760	10,874	941,985	508,497
-3,746	10,839	941,631	508,177
-2,731	10,819	940,802	507,647
-1,717	10,816	940,295	507,343
-0,702	10,828	939,605	506,987
0,313	10,617	938,804	506,658
1,327	14,328	936,511	516,986
2,342	24,137	780,992	456,515
3,356	20,630	437,786	250,799
4,371	-7,313	296,125	141,884
5,386	-10,655	278,439	130,246
6,400	-11,710	272,608	126,532
7,415	-11,603	270,259	125,529
8,429	-11,997	268,610	124,394
9,444	-12,202	267,497	123,681
10,459	-12,315	266,976	123,327
11,473	-12,255	266,322	123,068
12,488	-12,481	265,696	122,564
13,502	-12,608	265,125	122,176
14,517	-12,690	264,757	121,921
15,531	-12,870	264,426	121,597
16,546	-12,612	263,848	121,551
17,561	-12,698	263,446	121,279
18,575	-12,512	263,238	121,337
19,590	-12,789	262,767	120,863
20,604	-12,612	262,563	120,916
21,619	-12,843	262,155	120,512
22,634	-12,706	261,804	120,462
23,648	-12,957	261,491	120,085
24,663	-12,942	261,313	120,005
25,677	-12,913	261,019	119,885
26,692	-12,883	260,701	119,755
27,707	-12,898	260,420	119,602
28,721	-12,973	260,318	119,479
29,736	-12,960	259,897	119,286
30,750	-12,955	259,527	119,110
31,765	-13,013	259,306	118,947
32,780	-12,826	259,165	119,036
33,794	-12,936	258,750	118,738
34,809	-12,936	258,601	118,659
35,823	-12,923	258,411	118,573
36,838	-12,877	258,072	118,447
37,853	-12,969	257,879	118,268
38,867	-12,949	257,643	118,166
39,882	-12,937	257,350	118,031
40,896	-12,892	257,263	118,020
41,911	-12,928	256,825	117,777
42,926	-12,944	256,778	117,732
43,940	-13,044	256,330	117,429
44,955	-13,033	256,124	117,334
45,969	-12,997	255,804	117,208
46,984	-13,362	255,646	116,810
47,999	-13,634	255,368	116,437
49,013	-13,752	255,191	116,245
50,028	-13,852	254,834	115,985
51,042	-13,857	254,619	115,873
52,057	-13,985	254,377	115,642
53,071	-13,688	254,276	115,842
54,086	-13,592	254,021	115,797
55,101	-13,548	253,792	115,720
56,115	-13,346	253,778	115,877
57,130	-12,734	253,574	116,298
58,144	-12,462	253,486	116,479
59,159	-12,632	253,378	116,273
60,174	-12,525	253,127	116,240
61,188	-12,842	252,996	115,898
62,203	-12,809	252,661	115,763
63,217	-12,797	252,341	115,616
64,232	-12,660	252,125	115,623
65,247	-12,622	252,063	115,617
66,261	-12,741	251,709	115,344
67,276	-13,009	251,414	114,971
68,290	-13,224	251,124	114,646
69,305	-13,262	250,967	114,532
70,320	-13,263	250,739	114,417
71,334	-13,063	250,697	114,557
72,349	-12,548	250,477	114,880
73,363	-12,621	250,409	114,778
74,378	-12,686	250,148	114,592
75,393	-12,743	249,892	114,417
76,407	-12,921	249,769	114,201
77,422	-12,720	249,481	114,228
78,436	-12,689	249,291	114,157
79,451	-12,801	249,024	113,930
80,466	-12,823	248,739	113,771
81,480	-13,205	248,636	113,394
82,495	-13,239	248,287	113,196
83,509	-12,995	248,187	113,345
84,524	-13,238	247,859	112,982
85,539	-13,294	247,514	112,768
86,553	-13,084	247,513	112,932
87,568	-13,068	247,225	112,804
88,582	-13,183	247,195	112,684
89,597	-13,251	246,929	112,497
90,611	-13,130	246,879	112,565
91,626	-12,727	246,666	112,792
92,641	-12,860	246,546	112,617
93,655	-13,100	246,423	112,351
94,670	-12,951	245,970	112,258
95,684	-12,967	245,932	112,218
96,699	-12,854	245,471	112,091
97,714	-12,888	245,373	112,008
98,728	-13,207	245,186	111,650
99,743	-13,432	245,029	111,383
100,757	-13,542	244,826	111,190
101,772	-13,276	244,652	111,320
102,787	-13,171	244,519	111,335
103,801	-13,051	244,303	111,326
104,816	-12,985	244,189	111,318
105,830	-12,675	244,043	111,496
106,845	-12,730	243,888	111,370
107,860	-12,812	243,665	111,191
108,874	-12,934	243,306	110,918
109,889	-13,053	243,249	110,785
110,903	-13,155	242,996	110,576
111,918	-13,140	242,793	110,486
112,933	-13,005	242,807	110,593
113,947	-12,971	242,577	110,506
114,962	-12,988	242,400	110,401
115,976	-12,832	242,146	110,403
116,991	-12,681	241,875	110,392
118,006	-12,907	241,919	110,219
119,020	-12,860	241,696	110,145
120,035	-12,730	241,593	110,195
121,049	-12,627	241,294	110,131
122,064	-12,662	241,216	110,058
123,079	-12,844	240,943	109,776
124,093	-13,194	240,704	109,374
125,108	-13,282	240,557	109,227
126,122	-13,428	240,308	108,987
127,137	-13,452	239,939	108,790
128,151	-13,283	239,845	108,874
129,166	-13,150	239,568	108,846
130,181	-13,195	239,430	108,737
131,195	-13,227	239,302	108,643
132,210	-13,160	239,286	108,680
133,224	-13,003	239,110	108,716
134,239	-12,712	238,899	108,844
135,254	-12,882	238,671	108,594
136,268	-12,906	238,509	108,492
137,283	-13,148	238,121	108,112
138,297	-13,351	238,022	107,896
139,312	-13,398	237,891	107,789
140,327	-12,771	237,865	108,268
141,341	-12,689	237,803	108,296
142,356	-12,385	237,511	108,395
143,370	-12,500	237,422	108,253
144,385	-12,428	237,285	108,238
145,400	-12,615	237,201	108,041
146,414	-12,522	236,861	107,951
147,429	-12,394	236,666	107,953
148,443	-12,522	236,664	107,842
149,458	-12,546	236,464	107,722
150,473	-12,435	236,213	107,686
151,487	-12,471	235,980	107,542
152,502	-12,467	235,797	107,451
153,516	-12,402	235,740	107,468
154,531	-12,427	235,603	107,375
155,546	-12,502	235,393	107,211
156,560	-12,470	235,054	107,072
157,575	-12,963	235,008	106,654
158,589	-12,691	234,914	106,816
159,604	-12,751	234,773	106,695
160,619	-12,348	234,667	106,954
161,633	-12,298	234,299	106,815
162,648	-12,419	234,305	106,714
163,662	-12,479	233,943	106,493
164,677	-12,420	233,854	106,489
165,692	-12,650	233,655	106,209
166,706	-12,489	233,731	106,359
167,721	-12,368	233,490	106,335
168,735	-12,572	233,454	106,150
169,750	-12,452	233,126	106,085
170,764	-12,310	233,018	106,137
171,779	-12,253	232,926	106,130
172,794	-12,384	232,795	105,959
173,808	-12,555	232,418	105,645
174,823	-13,071	232,117	105,098
175,837	-13,136	231,912	104,946
176,852	-12,825	232,076	105,252
177,867	-12,326	231,740	105,477
178,881	-12,262	231,782	105,536
179,896	-12,439	231,571	105,294
180,910	-12,275	231,451	105,357
181,925	-12,257	231,187	105,241
182,940	-12,271	231,219	105,235
183,954	-12,446	231,086	105,030
184,969	-12,265	230,938	105,093
185,983	-12,298	230,665	104,934
186,998	-12,159	230,432	104,926
188,013	-12,143	230,341	104,887
189,027	-12,230	230,281	104,784
190,042	-12,159	230,106	104,749
191,056	-11,955	229,901	104,802
192,071	-11,997	229,631	104,639
193,086	-12,176	229,593	104,474
194,100	-11,987	229,612	104,619
195,115	-11,758	229,454	104,713
196,129	-10,578	229,648	105,695
197,144	-5,096	231,681	110,848
198,159	0,187	233,140	115,624
199,173	2,862	233,636	117,929
200,188	2,837	233,743	117,953
201,202	2,950	233,556	117,935
202,217	3,115	233,324	117,935
203,232	3,434	233,326	118,171
204,246	3,451	233,224	118,122
205,261	3,580	233,050	118,123
206,275	3,852	232,951	118,271
207,290	3,684	232,790	118,050
208,304	3,680	232,680	117,980
209,319	3,706	232,447	117,871
210,334	3,572	232,162	117,614
211,348	3,412	231,767	117,281
212,363	3,208	231,594	117,027
213,377	2,942	231,525	116,778
214,392	2,928	231,386	116,687
215,407	2,813	231,205	116,497
216,421	3,188	230,965	116,652
217,436	3,057	230,933	116,526
218,450	2,861	230,539	116,168
219,465	2,444	230,682	115,911
220,480	2,547	230,363	115,819
221,494	2,649	230,393	115,901
222,509	3,201	230,257	116,242
223,523	2,918	230,090	115,933
224,538	2,842	229,986	115,812
225,553	2,869	229,766	115,712
226,567	2,972	229,696	115,744
227,582	3,170	229,626	115,849
228,596	3,168	229,489	115,767
229,611	2,932	229,403	115,536
230,626	2,801	228,935	115,191
231,640	2,825	228,640	115,049
232,655	2,816	228,861	115,144
233,669	3,249	228,758	115,408
234,684	3,581	228,462	115,498
235,699	3,284	228,390	115,228
236,713	3,117	228,044	114,918
237,728	2,915	227,924	114,695
238,742	2,963	227,667	114,592
239,757	2,825	227,699	114,495
240,772	2,677	227,501	114,274
241,786	2,954	227,356	114,398
242,801	3,066	227,287	114,437
243,815	3,385	227,141	114,592
244,830	3,218	226,968	114,370
245,844	3,036	226,909	114,194
246,859	2,718	226,672	113,826
247,874	3,224	226,529	114,122
248,888	3,418	226,262	114,123
249,903	3,068	226,340	113,891
250,917	2,926	226,065	113,637
251,932	2,996	225,841	113,566
252,947	2,484	225,762	113,135
253,961	2,886	225,496	113,291
254,976	2,878	225,283	113,167
255,990	3,014	225,246	113,240
257,005	3,149	225,154	113,283
258,020	2,988	225,227	113,190
259,034	3,118	225,047	113,187
260,049	2,986	224,953	113,031
261,063	3,142	224,600	112,959
262,078	3,305	224,570	113,055
263,093	3,431	224,471	113,087
264,107	3,090	224,263	112,721
265,122	3,075	224,201	112,668
266,136	3,252	224,053	112,714
267,151	3,433	223,849	112,735
268,166	2,887	223,522	112,159
269,180	2,705	223,460	111,984
270,195	2,775	223,196	111,893
271,209	2,875	223,113	111,915
272,224	3,102	223,066	112,048
273,239	2,939	222,948	111,860
274,253	2,881	222,710	111,687
275,268	2,356	222,543	111,210
276,282	2,427	222,415	111,188
277,297	2,619	222,149	111,186
278,312	2,667	222,074	111,173
279,326	2,932	221,934	111,286
280,341	2,973	221,896	111,287
281,355	2,860	221,749	111,121
282,370	2,731	221,712	110,998
283,384	2,727	221,524	110,891
284,399	2,444	221,250	110,539
285,414	2,583	221,065	110,537
286,428	2,831	221,120	110,735
287,443	3,045	221,005	110,823
288,457	3,108	220,695	110,703
289,472	2,830	220,577	110,434
290,487	2,335	220,378	109,965
291,501	2,444	220,192	109,941
292,516	2,738	219,968	110,032
293,530	2,626	220,058	109,987
294,545	2,804	219,852	110,002
295,560	2,693	219,710	109,841
296,574	3,089	219,532	110,028
297,589	2,971	219,441	109,887
298,603	3,048	219,242	109,833
299,618	2,988	219,109	109,714
300,633	2,892	219,179	109,670
301,647	3,219	219,009	109,810
302,662	3,226	218,772	109,686
303,676	3,165	218,657	109,575
304,691	3,142	218,596	109,519
305,706	3,104	218,426	109,396
306,720	2,981	218,268	109,219
307,735	2,923	217,997	109,032
308,749	2,915	217,921	108,979
309,764	2,796	217,867	108,858
310,779	3,157	217,641	108,992
311,793	2,861	217,451	108,676
312,808	2,874	217,493	108,697
313,822	2,757	217,284	108,500
314,837	3,202	217,141	108,735
315,852	2,615	216,950	108,213
316,866	3,244	216,850	108,600
317,881	3,100	216,783	108,454
318,895	3,262	216,589	108,462
319,910	2,996	216,199	108,070
320,925	2,558	216,220	107,760
321,939	2,406	215,879	107,473
322,954	2,677	215,830	107,631
323,968	3,030	215,813	107,862
324,983	2,968	215,839	107,821
325,997	3,118	215,715	107,856
327,012	3,143	215,531	107,772
328,027	3,135	215,323	107,652
329,041	3,346	215,352	107,806
330,056	3,276	215,018	107,579
331,070	2,874	214,970	107,264
332,085	2,553	214,727	106,907
333,100	2,650	214,340	106,773
334,114	2,555	214,258	106,657
335,129	3,011	214,386	107,030
336,143	3,028	214,178	106,929
337,158	3,240	214,102	107,029
338,173	2,738	213,948	106,592
339,187	2,924	213,675	106,576
340,202	2,680	213,691	106,405
341,216	2,816	213,274	106,282
342,231	2,766	213,311	106,256
343,246	2,745	213,226	106,190
344,260	2,642	213,224	106,107
345,275	3,101	213,067	106,340
346,289	3,087	212,928	106,250
347,304	2,967	212,785	106,087
348,319	2,895	212,476	105,873
349,333	3,072	212,376	105,937
350,348	2,807	212,324	105,717
351,362	3,202	212,187	105,913
352,377	3,097	212,200	105,838
353,392	2,956	211,997	105,630
354,406	2,826	211,867	105,466
355,421	199,278	1329,457	1403,933
356,435	159,389	1465,438	1403,721
