DTS Sentinel unit serial number:	SN410029Multiplexer serial number:	ORYXHardware model number:	OX2-SRSoftware version number:	ORYX F/W v4,00 Oryx Data Collector v3.7.2.0data status	okinstallation	B6 Nyhavnadifferential loss correction	single-endedforward channel	channel 2reverse channel	N/Adate	2023/12/09time	20:55:08forward acquisition time	300,00reverse acquisition time	0,00gamma	499,1914k internal	0,3128k external	0,3128temperature offset calibration	1,0000default loss term (dB/km)	0,3820temperature slope calibration	1,0000multiplexer offset coefficient	1,0000multiplexer slope coefficient	1,0000fibre end	0,00T internal ref (°C)	21,43T ext. ref 1 (°C)	5,39T ext. ref 2 (°C)	5,37length (m)	temperature (°C)	Stokes	anti-Stokes-744,400	533,498	0,086	-0,153
-743,385	-1,463	-0,158	0,083
-742,371	344,764	0,062	0,091
-741,356	295,571	-0,140	0,192
-740,342	-200,000	-0,003	0,096
-739,327	85,439	-0,270	0,221
-738,312	-200,000	-0,008	-0,057
-737,298	-144,976	-0,214	0,014
-736,283	-109,251	0,034	-0,005
-735,269	23,459	-0,164	0,100
-734,254	-64,444	0,031	0,009
-733,239	-135,580	-0,419	-0,037
-732,225	-66,454	0,151	0,044
-731,210	132,801	0,059	0,056
-730,196	537,875	0,073	0,130
-729,181	-52,595	-0,125	0,043
-728,167	267,678	-0,024	0,031
-727,152	-172,167	-0,068	0,002
-726,137	327,823	-0,105	-0,150
-725,123	372,002	-0,073	-0,110
-724,108	318,628	-0,038	-0,054
-723,094	49,074	-0,099	-0,069
-722,079	131,278	-0,129	-0,123
-721,064	-48,524	-0,036	-0,013
-720,050	-194,845	-0,094	-0,001
-719,035	-31,874	0,021	-0,009
-718,021	124,445	0,100	-0,094
-717,006	800,000	-0,042	0,090
-715,991	-200,000	-0,049	-0,162
-714,977	800,000	-0,050	-0,121
-713,962	361,769	-0,044	0,066
-712,948	24,186	0,026	0,016
-711,933	-200,000	0,001	-0,052
-710,918	-75,800	0,046	-0,012
-709,904	800,000	-0,045	-0,107
-708,889	-90,603	0,115	0,024
-707,875	46,708	-0,079	0,055
-706,860	800,000	0,041	-0,114
-705,845	257,862	0,053	-0,068
-704,831	-82,178	0,073	-0,018
-703,816	-46,180	-0,155	-0,056
-702,802	-67,840	-0,068	0,020
-701,787	-25,073	-0,063	-0,028
-700,772	-200,000	-0,021	-0,097
-699,758	-200,000	-0,029	-0,134
-698,743	-73,656	-0,083	0,022
-697,729	800,000	0,006	0,014
-696,714	770,426	-0,087	0,177
-695,699	-200,000	0,000	-0,014
-694,685	568,680	-0,001	-0,002
-693,670	-99,487	-0,110	-0,020
-692,656	87,623	-0,063	-0,052
-691,641	123,689	0,068	-0,064
-690,627	106,310	0,087	0,076
-689,612	-68,646	0,088	0,025
-688,597	84,377	0,035	-0,028
-687,583	-134,420	-0,144	-0,013
-686,568	7,985	0,104	0,058
-685,554	800,000	0,036	-0,110
-684,539	800,000	0,038	0,118
-683,524	18,331	-0,106	0,063
-682,510	-15,694	-0,160	-0,075
-681,495	-175,591	-0,067	0,001
-680,481	-101,294	0,053	0,010
-679,466	103,433	-0,057	-0,050
-678,451	-200,000	-0,005	-0,109
-677,437	-200,000	-0,017	-0,123
-676,422	274,895	-0,075	-0,098
-675,408	73,373	0,051	0,040
-674,393	800,000	-0,023	0,051
-673,378	-200,000	-0,018	-0,107
-672,364	-200,000	0,006	-0,042
-671,349	71,067	0,049	-0,038
-670,335	-42,790	0,051	0,019
-669,320	-71,258	0,043	-0,012
-668,305	130,878	0,065	0,062
-667,291	800,000	-0,032	0,070
-666,276	800,000	-0,035	-0,076
-665,262	800,000	0,058	-0,122
-664,247	280,635	0,055	0,073
-663,232	800,000	0,012	0,034
-662,218	50,190	0,107	0,075
-661,203	-74,557	0,026	0,007
-660,189	230,147	-0,071	-0,087
-659,174	-41,263	0,064	0,025
-658,159	111,343	0,065	0,058
-657,145	696,403	0,058	-0,113
-656,130	800,000	0,043	-0,106
-655,116	-200,000	0,009	-0,084
-654,101	-200,000	0,047	0,208
-653,086	176,534	0,014	-0,015
-652,072	-200,000	0,015	-0,114
-651,057	354,898	-0,105	-0,155
-650,043	-200,000	-0,004	0,050
-649,028	-94,059	-0,114	0,023
-648,014	-77,159	0,189	-0,049
-646,999	330,149	0,076	0,109
-645,984	-200,000	-0,004	0,042
-644,970	-200,000	0,001	-0,063
-643,955	13,334	-0,078	-0,045
-642,941	-200,000	-0,014	-0,075
-641,926	-96,675	0,117	0,023
-640,911	-88,440	0,075	-0,017
-639,897	800,000	0,029	0,090
-638,882	222,355	-0,105	0,126
-637,868	314,859	-0,095	0,133
-636,853	-200,000	0,037	-0,158
-635,838	800,000	-0,032	-0,068
-634,824	-200,000	-0,032	0,130
-633,809	-74,469	0,037	0,010
-632,795	-200,000	0,006	-0,114
-631,780	800,000	-0,026	-0,073
-630,765	800,000	-0,009	0,022
-629,751	5,632	0,051	0,028
-628,736	-200,000	-0,001	-0,069
-627,722	333,377	0,074	-0,107
-626,707	-200,000	0,007	0,129
-625,692	-150,824	-0,025	0,001
-624,678	-195,563	0,043	0,000
-623,663	-121,963	-0,061	0,007
-622,649	567,124	-0,076	-0,136
-621,634	800,000	-0,029	-0,087
-620,619	174,812	0,021	0,022
-619,605	-149,050	-0,119	0,007
-618,590	87,958	-0,114	0,094
-617,576	800,000	0,052	-0,163
-616,561	632,490	-0,072	-0,135
-615,546	800,000	-0,031	-0,098
-614,532	-100,648	0,045	0,008
-613,517	-19,831	0,126	-0,058
-612,503	800,000	0,029	-0,075
-611,488	59,296	0,080	-0,058
-610,474	-200,000	-0,001	-0,108
-609,459	18,344	-0,066	-0,039
-608,444	-200,000	-0,013	-0,090
-607,430	800,000	-0,020	-0,063
-606,415	-200,000	0,019	-0,092
-605,401	-200,000	0,000	0,216
-604,386	-124,601	0,077	-0,009
-603,371	-68,792	-0,038	0,011
-602,357	-61,659	-0,050	-0,015
-601,342	800,000	0,054	0,127
-600,328	272,230	-0,084	-0,110
-599,313	-57,482	0,134	0,043
-598,298	-200,000	0,012	0,057
-597,284	53,545	-0,037	0,026
-596,269	320,236	-0,081	0,114
-595,255	-200,000	-0,040	-0,150
-594,240	35,455	0,037	-0,024
-593,225	-85,820	-0,134	-0,031
-592,211	332,047	-0,026	0,037
-591,196	249,702	0,057	-0,071
-590,182	51,367	0,040	-0,028
-589,167	16,630	0,095	-0,056
-588,152	107,625	0,074	0,065
-587,138	-200,000	0,015	0,074
-586,123	130,054	-0,132	-0,125
-585,109	-200,000	0,000	-0,060
-584,094	-35,952	-0,051	0,020
-583,079	257,452	0,076	-0,097
-582,065	-200,000	-0,032	-0,119
-581,050	-200,000	-0,000	0,064
-580,036	-43,298	0,050	-0,019
-579,021	-200,000	-0,039	-0,196
-578,006	93,931	0,072	-0,060
-576,992	-94,460	-0,134	-0,027
-575,977	-191,765	0,169	0,001
-574,963	-200,000	-0,021	-0,098
-573,948	-200,000	-0,001	-0,132
-572,934	-21,850	0,032	-0,014
-571,919	-58,211	0,090	0,029
-570,904	800,000	-0,043	-0,107
-569,890	800,000	-0,018	0,040
-568,875	34,079	0,114	0,073
-567,861	800,000	0,020	-0,045
-566,846	-147,993	0,071	0,004
-565,831	-96,629	0,041	-0,008
-564,817	51,404	-0,166	0,117
-563,802	800,000	0,032	-0,088
-562,788	57,723	-0,039	-0,028
-561,773	-200,000	0,001	-0,022
-560,758	-200,000	-0,023	-0,095
-559,744	-200,000	-0,109	0,000
-558,729	-200,000	0,025	-0,104
-557,715	-107,431	0,056	-0,009
-556,700	-200,000	-0,015	-0,116
-555,685	22,393	-0,119	-0,072
-554,671	-132,138	-0,131	0,012
-553,656	-200,000	-0,014	0,143
-552,642	56,545	0,100	-0,072
-551,627	800,000	-0,027	-0,079
-550,612	350,038	0,041	-0,060
-549,598	614,219	0,026	0,049
-548,583	-200,000	0,003	0,067
-547,569	800,000	-0,033	-0,092
-546,554	-36,290	0,134	0,053
-545,539	800,000	-0,032	-0,077
-544,525	321,868	0,015	0,021
-543,510	-200,000	0,001	0,007
-542,496	-200,000	0,002	0,011
-541,481	-37,463	-0,086	0,034
-540,466	-200,000	0,009	-0,077
-539,452	368,589	-0,008	-0,011
-538,437	-200,000	0,016	0,106
-537,423	-200,000	-0,001	-0,018
-536,408	482,612	-0,046	-0,077
-535,393	217,165	-0,142	-0,167
-534,379	-0,081	-0,113	0,059
-533,364	88,989	0,012	0,010
-532,350	-46,889	0,117	0,042
-531,335	396,863	0,027	0,042
-530,321	392,528	-0,047	0,073
-529,306	-149,508	-0,068	0,004
-528,291	649,099	-0,030	-0,057
-527,277	182,555	0,053	-0,058
-526,262	800,000	-0,052	-0,116
-525,248	-169,117	-0,053	0,001
-524,233	-97,235	0,101	-0,019
-523,218	74,366	0,047	-0,036
-522,204	311,441	-0,068	0,095
-521,189	-75,987	-0,167	-0,043
-520,175	225,656	-0,061	-0,072
-519,160	-200,000	-0,012	-0,094
-518,145	800,000	-0,045	0,097
-517,131	-44,647	-0,094	0,034
-516,116	301,361	0,027	-0,037
-515,102	-118,299	-0,087	0,011
-514,087	71,413	-0,095	0,073
-513,072	-200,000	0,022	-0,142
-512,058	-200,000	0,024	-0,117
-511,043	320,657	-0,051	0,072
-510,029	-200,000	0,019	0,112
-509,014	245,577	0,083	0,103
-507,999	104,492	0,081	-0,070
-506,985	55,896	-0,082	-0,059
-505,970	69,279	-0,053	0,040
-504,956	-200,000	0,002	-0,131
-503,941	304,933	-0,016	-0,022
-502,926	800,000	-0,006	-0,015
-501,912	50,574	-0,027	0,019
-500,897	1,040	0,145	-0,077
-499,883	268,662	0,049	-0,063
-498,868	-76,151	-0,110	0,028
-497,853	-21,647	-0,149	-0,067
-496,839	-200,000	0,008	0,053
-495,824	-200,000	-0,002	-0,104
-494,810	281,094	0,058	-0,077
-493,795	-200,000	0,000	0,090
-492,781	-138,057	0,128	0,010
-491,766	-135,329	0,106	-0,009
-490,751	534,406	-0,018	-0,031
-489,737	-170,712	-0,127	-0,003
-488,722	148,105	0,078	0,077
-487,708	764,651	0,020	0,040
-486,693	-200,000	0,000	0,116
-485,678	800,000	0,073	-0,154
-484,664	-200,000	0,026	-0,089
-483,649	-21,820	-0,096	-0,043
-482,635	172,933	-0,026	0,028
-481,620	800,000	0,076	0,177
-480,605	471,358	0,037	0,062
-479,591	638,324	0,039	-0,074
-478,576	160,260	0,042	-0,044
-477,562	-200,000	0,007	0,067
-476,547	-69,419	-0,074	-0,021
-475,532	442,613	-0,038	0,061
-474,518	800,000	0,018	0,050
-473,503	800,000	0,046	0,098
-472,489	-110,712	0,087	0,013
-471,474	-134,173	0,047	-0,004
-470,459	196,181	-0,074	-0,083
-469,445	119,423	-0,007	-0,006
-468,430	-35,099	-0,075	0,030
-467,416	-133,672	0,103	0,009
-466,401	66,094	0,068	0,050
-465,386	-200,000	0,017	-0,056
-464,372	8,104	-0,099	0,054
-463,357	233,292	0,052	-0,063
-462,343	800,000	-0,034	0,079
-461,328	-9,325	-0,081	-0,040
-460,313	800,000	0,016	0,039
-459,299	141,559	-0,028	-0,027
-458,284	-53,180	-0,046	0,015
-457,270	-200,000	0,033	0,169
-456,255	555,842	-0,058	-0,104
-455,241	30,115	-0,179	-0,112
-454,226	800,000	0,009	-0,028
-453,211	24,629	-0,027	-0,016
-452,197	800,000	-0,034	0,102
-451,182	76,892	-0,106	0,082
-450,168	-200,000	-0,010	-0,053
-449,153	-97,471	-0,194	-0,037
-448,138	58,559	-0,009	-0,006
-447,124	800,000	-0,043	0,118
-446,109	228,547	0,079	0,094
-445,095	-200,000	-0,017	0,058
-444,080	-183,049	-0,101	-0,001
-443,065	-73,578	0,026	-0,007
-442,051	-55,810	-0,073	0,024
-441,036	203,956	-0,034	-0,039
-440,022	-200,000	0,013	-0,091
-439,007	800,000	0,072	-0,151
-437,992	-200,000	0,019	0,110
-436,978	115,942	0,053	0,047
-435,963	800,000	-0,039	0,094
-434,949	796,674	-0,053	0,107
-433,934	-166,382	0,032	0,001
-432,919	-9,053	0,033	-0,016
-431,905	2,037	0,087	-0,046
-430,890	-55,733	0,072	0,023
-429,876	-41,858	-0,103	0,039
-428,861	120,266	0,033	0,030
-427,846	-7,677	0,062	0,031
-426,832	-200,000	0,016	0,090
-425,817	163,667	0,003	-0,003
-424,803	162,318	0,036	0,037
-423,788	-113,920	0,119	0,017
-422,773	-200,000	-0,004	0,154
-421,759	-200,000	0,001	-0,005
-420,744	-200,000	0,041	-0,178
-419,730	-200,000	0,019	-0,069
-418,715	800,000	-0,027	-0,056
-417,701	363,222	0,092	-0,136
-416,686	-64,168	0,012	-0,003
-415,671	-61,791	0,189	0,058
-414,657	800,000	0,006	0,014
-413,642	-123,697	-0,031	0,004
-412,628	307,428	-0,054	0,075
-411,613	-127,729	-0,113	0,012
-410,598	617,157	0,041	0,077
-409,584	-200,000	-0,002	0,015
-408,569	451,303	0,069	0,112
-407,555	-41,026	-0,052	0,019
-406,540	55,281	0,046	-0,033
-405,525	-26,120	0,110	0,047
-404,511	50,198	-0,083	-0,057
-403,496	658,977	0,021	0,040
-402,482	90,048	0,109	0,089
-401,467	-21,516	0,106	0,047
-400,452	-62,737	0,094	0,028
-399,438	306,861	0,098	0,135
-398,423	800,000	-0,024	0,065
-397,409	24,541	0,081	0,049
-396,394	-154,142	-0,155	-0,008
-395,379	-73,276	-0,049	0,013
-394,365	-200,000	-0,012	0,112
-393,350	216,698	-0,088	0,103
-392,336	406,571	0,061	-0,095
-391,321	-38,401	-0,116	0,045
-390,306	800,000	0,023	-0,058
-389,292	273,007	-0,063	-0,082
-388,277	-200,000	0,002	0,018
-387,263	-200,000	0,013	-0,090
-386,248	-200,000	0,009	0,062
-385,233	500,349	0,080	0,136
-384,219	224,977	-0,070	-0,083
-383,204	45,809	-0,076	-0,051
-382,190	800,000	0,016	-0,044
-381,175	-115,894	-0,049	0,007
-380,160	-56,437	0,105	0,034
-379,146	-200,000	-0,003	0,013
-378,131	800,000	0,012	-0,031
-377,117	-200,000	-0,020	0,081
-376,102	-46,606	-0,053	0,019
-375,088	-200,000	-0,005	0,042
-374,073	109,209	0,017	-0,015
-373,058	79,319	0,072	-0,056
-372,044	-74,557	-0,008	-0,002
-371,029	800,000	-0,015	-0,041
-370,015	607,684	-0,039	0,073
-369,000	-100,740	-0,136	-0,024
-367,985	60,377	-0,033	-0,024
-366,971	51,615	0,060	0,042
-365,956	-110,125	0,058	-0,009
-364,942	-87,739	-0,117	-0,026
-363,927	21,081	0,130	0,077
-362,912	-22,937	-0,044	-0,019
-361,898	800,000	0,055	-0,115
-360,883	109,420	-0,105	-0,093
-359,869	800,000	-0,056	-0,122
-358,854	409,549	-0,067	0,105
-357,839	562,794	0,016	0,028
-356,825	-200,000	-0,041	0,291
-355,810	-25,964	0,075	-0,032
-354,796	766,474	-0,040	-0,079
-353,781	800,000	0,040	-0,089
-352,766	286,211	0,113	-0,149
-351,752	576,512	0,078	0,140
-350,737	-200,000	-0,011	-0,044
-349,723	-200,000	0,012	0,145
-348,708	-60,274	0,058	-0,018
-347,693	800,000	-0,077	0,214
-346,679	-110,953	0,104	0,016
-345,664	175,752	-0,075	-0,080
-344,650	69,968	0,051	-0,039
-343,635	-200,000	-0,036	0,139
-342,620	-168,797	0,184	0,005
-341,606	800,000	0,022	0,066
-340,591	-24,501	0,062	-0,027
-339,577	217,532	-0,047	0,055
-338,562	10,312	-0,122	-0,068
-337,548	102,148	-0,004	0,004
-336,533	186,273	0,061	0,066
-335,518	-200,000	0,002	-0,008
-334,504	7,671	-0,055	-0,030
-333,489	-93,350	-0,092	-0,018
-332,475	-34,437	0,096	-0,038
-331,460	-66,558	-0,219	-0,063
-330,445	-133,741	0,036	-0,003
-329,431	-76,457	0,082	-0,021
-328,416	800,000	0,053	0,157
-327,402	-200,000	0,038	0,154
-326,387	800,000	0,049	0,121
-325,372	31,622	0,057	-0,036
-324,358	-70,048	0,039	-0,011
-323,343	303,549	-0,046	-0,063
-322,329	800,000	0,038	-0,090
-321,314	17,730	0,056	0,033
-320,299	68,286	0,035	-0,026
-319,285	-200,000	-0,014	-0,189
-318,270	5,495	-0,129	-0,070
-317,256	264,709	0,082	0,105
-316,241	-200,000	0,019	0,125
-315,226	49,145	0,060	-0,041
-314,212	-200,000	0,026	-0,151
-313,197	90,666	-0,050	0,041
-312,183	85,782	-0,102	0,082
-311,168	-200,000	0,003	-0,066
-310,153	-200,000	-0,013	-0,112
-309,139	224,439	-0,173	-0,205
-308,124	-7,369	0,028	-0,014
-307,110	83,694	0,082	0,065
-306,095	-43,862	-0,054	0,020
-305,080	516,486	-0,026	0,045
-304,066	161,415	-0,050	0,051
-303,051	-121,225	-0,161	0,019
-302,037	92,900	-0,040	-0,033
-301,022	383,097	-0,015	-0,023
-300,008	-156,363	0,228	-0,010
-298,993	-61,623	-0,155	0,047
-297,978	800,000	-0,049	-0,152
-296,964	13,142	0,033	0,018
-295,949	18,960	-0,102	-0,060
-294,935	79,451	0,197	-0,154
-293,920	162,067	0,038	-0,039
-292,905	800,000	0,037	0,083
-291,891	800,000	0,011	0,022
-290,876	-200,000	0,009	-0,037
-289,862	57,877	0,067	0,048
-288,847	800,000	0,013	-0,035
-287,832	468,523	-0,073	-0,120
-286,818	16,344	0,099	0,057
-285,803	800,000	-0,015	0,033
-284,789	-49,034	-0,167	0,058
-283,774	738,156	0,060	0,119
-282,759	-49,042	-0,083	0,029
-281,745	-128,100	-0,091	-0,009
-280,730	-64,056	0,108	-0,032
-279,716	-124,245	-0,072	0,008
-278,701	800,000	0,032	0,087
-277,686	243,287	0,068	0,083
-276,672	-140,351	0,043	-0,003
-275,657	117,700	-0,009	0,008
-274,643	800,000	0,008	-0,024
-273,628	-200,000	0,001	0,091
-272,613	548,875	0,023	-0,040
-271,599	441,799	0,078	-0,125
-270,584	384,616	-0,062	-0,094
-269,570	50,941	0,074	0,051
-268,555	-7,050	-0,047	0,023
-267,540	77,733	-0,057	0,044
-266,526	-200,000	-0,020	-0,112
-265,511	385,814	-0,021	-0,032
-264,497	800,000	0,017	-0,044
-263,482	-150,116	0,172	-0,010
-262,467	91,630	0,023	0,019
-261,453	190,839	0,032	0,035
-260,438	-36,305	-0,078	0,031
-259,424	-58,038	-0,037	-0,012
-258,409	274,590	0,052	-0,067
-257,395	-200,000	-0,013	0,139
-256,380	-200,000	-0,001	0,153
-255,365	153,297	0,081	-0,081
-254,351	440,770	0,040	0,065
-253,336	508,498	-0,029	0,049
-252,322	-200,000	-0,022	0,109
-251,307	-196,415	0,042	-0,000
-250,292	139,761	0,090	0,087
-249,278	-200,000	0,015	0,085
-248,263	-91,000	0,135	-0,028
-247,249	-119,230	-0,069	-0,009
-246,234	733,895	-0,070	-0,137
-245,219	-51,532	0,097	-0,033
-244,205	800,000	0,029	0,059
-243,190	-47,634	0,135	-0,047
-242,176	234,953	0,069	-0,083
-241,161	-21,488	0,048	-0,021
-240,146	-200,000	0,014	0,217
-239,132	800,000	-0,033	0,077
-238,117	-200,000	-0,006	-0,098
-237,103	142,647	-0,104	-0,101
-236,088	62,502	-0,039	-0,028
-235,073	37,857	-0,067	-0,043
-234,059	-32,113	0,070	-0,028
-233,044	-137,719	-0,144	-0,012
-232,030	-12,339	0,023	-0,011
-231,015	-200,000	-0,018	-0,136
-230,000	107,861	0,093	0,081
-228,986	792,122	0,035	-0,070
-227,971	800,000	-0,045	-0,113
-226,957	800,000	0,013	0,031
-225,942	-200,000	-0,010	-0,112
-224,927	116,672	0,044	0,039
-223,913	143,776	-0,009	-0,009
-222,898	-200,000	0,004	-0,194
-221,884	23,250	0,033	-0,020
-220,869	297,536	0,082	0,110
-219,855	-47,467	-0,095	0,034
-218,840	149,130	-0,041	0,041
-217,825	800,000	0,042	0,101
-216,811	-92,048	0,114	-0,023
-215,796	146,840	-0,046	-0,046
-214,782	93,766	0,049	0,041
-213,767	-123,864	0,053	-0,006
-212,752	149,426	-0,104	0,103
-211,738	698,165	-0,055	0,107
-210,723	800,000	0,013	-0,039
-209,709	103,509	-0,041	0,035
-208,694	273,009	0,047	0,061
-207,679	432,889	-0,140	-0,222
-206,665	-42,558	-0,038	-0,014
-205,650	631,920	-0,028	0,053
-204,636	-200,000	-0,002	-0,008
-203,621	-200,000	0,000	0,058
-202,606	800,000	-0,014	-0,031
-201,592	195,696	-0,036	0,040
-200,577	85,402	-0,134	0,107
-199,563	52,604	-0,056	0,039
-198,548	152,828	0,002	-0,002
-197,533	-36,898	0,137	0,053
-196,519	-178,512	0,163	-0,003
-195,504	-154,579	-0,122	0,006
-194,490	-200,000	0,001	0,038
-193,475	-200,000	0,040	0,141
-192,460	287,018	-0,080	0,106
-191,446	-94,424	0,119	-0,023
-190,431	25,609	-0,120	0,072
-189,417	-200,000	0,024	-0,092
-188,402	-62,486	0,065	-0,020
-187,387	-200,000	-0,014	0,058
-186,373	43,838	0,043	-0,029
-185,358	-200,000	-0,041	0,153
-184,344	-200,000	0,055	0,215
-183,329	8,324	0,104	0,057
-182,315	-18,471	-0,104	0,047
-181,300	-108,515	-0,192	-0,030
-180,285	90,624	0,043	0,035
-179,271	-71,250	-0,147	-0,040
-178,256	80,755	0,105	-0,082
-177,242	66,276	0,128	-0,095
-176,227	-16,678	0,066	-0,030
-175,212	-200,000	0,004	0,119
-174,198	-200,000	0,008	0,077
-173,183	-200,000	0,024	-0,085
-172,169	426,666	-0,039	-0,061
-171,154	143,594	0,058	-0,056
-170,139	-7,560	0,052	-0,025
-169,125	800,000	-0,034	0,076
-168,110	457,140	-0,079	0,129
-167,096	-57,932	0,060	0,019
-166,081	-151,160	-0,038	0,002
-165,066	800,000	-0,022	-0,072
-164,052	800,000	-0,077	0,189
-163,037	380,116	-0,058	0,087
-162,023	800,000	-0,007	0,019
-161,008	48,268	0,060	0,041
-159,993	-200,000	-0,009	0,032
-158,979	800,000	-0,075	-0,177
-157,964	-134,711	-0,141	0,012
-156,950	185,286	0,098	0,106
-155,935	-115,914	0,213	0,029
-154,920	-200,000	-0,012	0,088
-153,906	228,828	0,039	0,047
-152,891	-200,000	-0,012	-0,065
-151,877	800,000	0,079	0,177
-150,862	-99,602	0,027	0,005
-149,847	127,817	-0,141	0,131
-148,833	-200,000	0,040	0,219
-147,818	322,792	0,040	-0,055
-146,804	144,298	0,093	-0,090
-145,789	-200,000	-0,022	0,159
-144,775	800,000	-0,076	0,157
-143,760	48,223	-0,116	-0,079
-142,745	62,138	0,116	0,084
-141,731	308,751	0,071	-0,097
-140,716	127,026	0,047	-0,043
-139,702	248,149	0,029	0,035
-138,687	116,754	-0,105	0,093
-137,672	-58,721	-0,104	-0,033
-136,658	12,913	-0,093	-0,052
-135,643	800,000	-0,027	-0,059
-134,629	-32,024	0,077	0,031
-133,614	-89,638	0,140	-0,030
-132,599	800,000	-0,016	0,050
-131,585	800,000	-0,048	0,104
-130,570	663,776	0,026	-0,049
-129,556	-10,406	0,051	-0,025
-128,541	-200,000	0,001	-0,064
-127,526	52,441	-0,051	-0,036
-126,512	-200,000	-0,031	0,160
-125,497	751,765	-0,107	0,210
-124,483	586,728	0,023	0,042
-123,468	-200,000	0,006	-0,044
-122,453	-200,000	-0,008	-0,039
-121,439	211,127	-0,092	0,105
-120,424	227,086	0,094	-0,111
-119,410	-200,000	0,023	-0,083
-118,395	637,439	0,064	-0,118
-117,380	515,773	0,062	0,106
-116,366	-200,000	0,016	0,113
-115,351	-57,237	-0,084	0,027
-114,337	13,441	-0,110	-0,062
-113,322	-54,371	0,022	0,007
-112,307	2,223	-0,074	-0,039
-111,293	554,587	0,062	0,109
-110,278	100,158	0,075	0,063
-109,264	-200,000	-0,016	0,057
-108,249	-48,921	-0,018	-0,006
-107,234	112,282	0,082	-0,072
-106,220	-94,147	-0,062	-0,012
-105,205	44,217	-0,034	0,023
-104,191	173,476	0,044	0,046
-103,176	55,784	-0,024	0,017
-102,162	-200,000	-0,016	0,132
-101,147	23,343	-0,063	-0,038
-100,132	-200,000	-0,001	-0,108
-99,118	800,000	0,055	-0,118
-98,103	-103,460	-0,111	0,019
-97,089	800,000	0,026	-0,061
-96,074	706,781	0,024	0,047
-95,059	87,607	0,035	0,028
-94,045	76,859	-0,046	0,035
-93,030	3,987	0,146	-0,077
-92,016	229,989	0,039	0,047
-91,001	-200,000	0,004	-0,036
-89,986	-200,000	-0,004	0,129
-88,972	442,719	0,029	0,046
-87,957	-200,000	0,009	0,110
-86,943	-200,000	0,001	0,030
-85,928	-54,328	-0,060	0,020
-84,913	65,951	-0,088	-0,064
-83,899	315,592	0,047	0,064
-82,884	800,000	-0,015	-0,045
-81,870	60,122	0,068	0,048
-80,855	526,202	-0,056	0,097
-79,840	-23,007	-0,068	0,030
-78,826	-139,989	-0,018	-0,001
-77,811	-200,000	0,006	-0,105
-76,797	-200,000	-0,005	-0,065
-75,782	-52,637	0,074	0,024
-74,767	-155,781	0,059	-0,003
-73,753	388,495	-0,110	0,166
-72,738	208,038	-0,039	0,044
-71,724	-200,000	0,002	0,068
-70,709	-200,000	0,029	0,132
-69,694	525,451	-0,089	0,152
-68,680	-77,572	-0,061	0,015
-67,665	152,258	0,070	0,069
-66,651	153,078	-0,080	0,079
-65,636	112,395	0,120	0,105
-64,622	-72,985	-0,145	0,038
-63,607	15,753	0,063	0,036
-62,592	-131,692	0,053	-0,005
-61,578	320,810	0,044	-0,060
-60,563	40,203	0,121	0,079
-59,549	158,249	0,026	0,026
-58,534	-130,857	-1,436	-0,138
-57,519	800,000	-0,735	-1,521
-56,505	-200,000	-0,904	-4,514
-55,490	-42,869	0,636	-0,233
-54,476	800,000	5,004	11,776
-53,461	-200,000	14,526	254,713
-52,446	800,000	696,994	2227,920
-51,432	564,031	1624,439	2861,685
-50,417	116,689	1630,575	1449,053
-49,403	73,413	1284,225	972,577
-48,388	37,448	1022,101	655,126
-47,373	23,545	980,770	583,005
-46,359	22,712	970,384	574,081
-45,344	21,583	966,220	567,914
-44,330	21,656	964,477	567,103
-43,315	21,495	963,153	565,779
-42,300	21,504	962,085	565,159
-41,286	21,497	961,051	564,506
-40,271	21,492	960,122	563,924
-39,257	21,496	959,120	563,324
-38,242	21,419	958,310	562,578
-37,227	21,410	957,435	562,014
-36,213	21,466	956,498	561,622
-35,198	21,372	955,649	560,798
-34,184	21,480	954,892	560,677
-33,169	21,351	954,269	559,874
-32,154	21,520	953,051	559,684
-31,140	21,442	952,379	559,015
-30,125	21,467	951,651	558,645
-29,111	21,477	950,761	558,133
-28,096	21,486	949,942	557,657
-27,082	21,531	949,202	557,346
-26,067	21,530	948,481	556,897
-25,052	21,498	947,862	556,411
-24,038	21,492	947,302	556,040
-23,023	21,510	946,698	555,721
-22,009	21,553	945,930	555,384
-20,994	21,455	945,506	554,803
-19,979	21,493	944,776	554,472
-18,965	21,466	944,047	553,935
-17,950	21,447	943,434	553,495
-16,936	21,430	942,867	553,084
-15,921	21,440	942,089	552,638
-14,906	21,389	941,270	551,976
-13,892	21,340	940,773	551,505
-12,877	21,330	940,221	551,127
-11,863	21,245	939,635	550,492
-10,848	21,355	938,920	550,400
-9,833	21,379	938,615	550,275
-8,819	21,404	937,958	549,949
-7,804	21,346	937,357	549,390
-6,790	21,355	936,709	549,018
-5,775	21,442	936,104	548,918
-4,760	21,331	935,525	548,206
-3,746	21,359	934,779	547,835
-2,731	21,145	934,299	546,855
-1,717	21,196	933,324	546,425
-0,702	21,180	932,693	545,984
0,313	20,978	932,064	545,804
1,327	24,029	930,301	554,297
2,342	33,256	793,709	497,404
3,356	30,949	450,628	278,908
4,371	0,806	294,507	152,146
5,386	-3,538	275,490	138,191
6,400	-4,941	269,861	134,051
7,415	-5,237	267,441	132,564
8,429	-5,194	266,272	132,012
9,444	-5,137	265,434	131,638
10,459	-5,032	264,805	131,409
11,473	-5,209	264,206	130,939
12,488	-5,195	263,724	130,701
13,502	-5,375	263,172	130,253
14,517	-5,308	262,752	130,094
15,531	-5,284	262,379	129,919
16,546	-5,090	261,864	129,828
17,561	-5,266	261,511	129,483
18,575	-5,118	261,196	129,448
19,590	-5,199	260,957	129,245
20,604	-5,091	260,456	129,082
21,619	-5,430	260,235	128,658
22,634	-5,232	259,921	128,668
23,648	-5,292	259,700	128,494
24,663	-5,399	259,374	128,226
25,677	-5,300	259,210	128,221
26,692	-5,224	258,830	128,090
27,707	-5,416	258,639	127,813
28,721	-5,383	258,432	127,729
29,736	-5,422	258,115	127,526
30,750	-5,406	257,938	127,441
31,765	-5,448	257,545	127,199
32,780	-5,504	257,473	127,103
33,794	-5,245	256,986	127,079
34,809	-5,518	256,860	126,764
35,823	-5,405	256,626	126,737
36,838	-5,589	256,260	126,383
37,853	-5,719	256,168	126,212
38,867	-5,526	255,938	126,258
39,882	-5,433	255,816	126,268
40,896	-5,551	255,499	125,996
41,911	-5,453	255,111	125,879
42,926	-5,421	254,862	125,774
43,940	-5,528	254,773	125,625
44,955	-5,602	254,513	125,421
45,969	-5,579	254,468	125,407
46,984	-5,755	254,167	125,094
47,999	-5,905	253,772	124,758
49,013	-6,045	253,507	124,494
50,028	-5,998	253,298	124,421
51,042	-6,099	253,017	124,185
52,057	-6,145	252,855	124,054
53,071	-6,265	252,678	123,852
54,086	-6,069	252,480	123,914
55,101	-5,951	252,396	123,964
56,115	-5,771	252,224	124,025
57,130	-5,536	252,150	124,180
58,144	-5,113	252,019	124,471
59,159	-5,024	251,667	124,362
60,174	-5,146	251,548	124,188
61,188	-5,226	251,281	123,975
62,203	-5,266	251,053	123,818
63,217	-5,138	250,760	123,772
64,232	-5,353	250,591	123,493
65,247	-5,105	250,276	123,539
66,261	-5,251	250,125	123,328
67,276	-5,460	249,841	122,999
68,290	-5,682	249,658	122,707
69,305	-5,676	249,254	122,503
70,320	-5,704	249,086	122,385
71,334	-5,462	249,077	122,577
72,349	-5,243	248,997	122,713
73,363	-5,129	248,878	122,742
74,378	-5,275	248,634	122,486
75,393	-5,152	248,402	122,464
76,407	-5,316	248,327	122,278
77,422	-5,369	248,005	122,063
78,436	-5,306	247,742	121,976
79,451	-5,357	247,582	121,843
80,466	-5,467	247,479	121,689
81,480	-5,577	247,133	121,414
82,495	-5,439	246,865	121,388
83,509	-5,382	246,756	121,372
84,524	-5,603	246,579	121,088
85,539	-5,615	246,255	120,908
86,553	-5,730	246,105	120,727
87,568	-5,587	246,052	120,810
88,582	-5,586	245,831	120,692
89,597	-5,573	245,530	120,544
90,611	-5,635	245,536	120,484
91,626	-5,559	245,360	120,451
92,641	-5,421	245,187	120,471
93,655	-5,574	244,910	120,196
94,670	-5,412	244,733	120,234
95,684	-5,433	244,529	120,105
96,699	-5,474	244,340	119,968
97,714	-5,474	244,179	119,878
98,728	-5,583	244,021	119,699
99,743	-5,515	243,753	119,613
100,757	-5,749	243,586	119,326
101,772	-5,792	243,486	119,230
102,787	-5,581	243,240	119,274
103,801	-5,552	242,995	119,168
104,816	-5,442	242,840	119,173
105,830	-5,242	242,745	119,282
106,845	-5,198	242,595	119,233
107,860	-5,350	242,346	118,974
108,874	-5,308	242,206	118,930
109,889	-5,337	242,008	118,798
110,903	-5,344	241,730	118,645
111,918	-5,590	241,580	118,358
112,933	-5,544	241,566	118,379
113,947	-5,437	241,189	118,271
114,962	-5,344	241,045	118,267
115,976	-5,277	240,865	118,223
116,991	-5,396	240,692	118,030
118,006	-5,483	240,654	117,929
119,020	-5,423	240,552	117,918
120,035	-5,443	240,362	117,798
121,049	-5,344	240,279	117,828
122,064	-5,218	239,977	117,772
123,079	-5,380	239,825	117,555
124,093	-5,406	239,353	117,292
125,108	-5,434	239,296	117,231
126,122	-5,699	239,145	116,930
127,137	-5,965	238,978	116,621
128,151	-5,857	238,797	116,610
129,166	-5,440	238,417	116,754
130,181	-5,783	238,514	116,511
131,195	-5,682	238,195	116,427
132,210	-5,566	238,116	116,472
133,224	-5,502	237,886	116,401
134,239	-5,443	237,841	116,417
135,254	-5,413	237,801	116,411
136,268	-5,414	237,368	116,188
137,283	-5,598	237,120	115,908
138,297	-5,730	236,849	115,659
139,312	-5,826	236,943	115,617
140,327	-5,557	236,807	115,757
141,341	-5,152	236,783	116,061
142,356	-5,104	236,582	115,991
143,370	-5,161	236,435	115,863
144,385	-5,029	236,224	115,855
145,400	-5,216	236,148	115,658
146,414	-5,229	235,878	115,505
147,429	-5,055	235,548	115,472
148,443	-5,095	235,407	115,361
149,458	-5,134	235,262	115,248
150,473	-5,050	235,165	115,257
151,487	-5,079	234,978	115,132
152,502	-5,144	234,845	115,005
153,516	-5,122	234,654	114,919
154,531	-5,126	234,507	114,834
155,546	-5,206	234,280	114,648
156,560	-5,071	234,142	114,678
157,575	-5,217	233,801	114,385
158,589	-5,039	233,762	114,497
159,604	-5,177	233,714	114,354
160,619	-5,045	233,430	114,309
161,633	-4,994	233,278	114,265
162,648	-4,908	233,248	114,308
163,662	-5,163	233,099	114,023
164,677	-5,220	232,995	113,917
165,692	-5,043	232,640	113,873
166,706	-5,075	232,689	113,861
167,721	-5,107	232,538	113,752
168,735	-5,158	232,333	113,601
169,750	-4,950	232,079	113,631
170,764	-5,292	231,896	113,262
171,779	-5,141	231,845	113,346
172,794	-4,976	231,602	113,347
173,808	-5,345	231,472	112,983
174,823	-5,485	231,137	112,699
175,837	-5,546	230,829	112,492
176,852	-5,344	230,866	112,657
177,867	-5,026	230,875	112,901
178,881	-4,937	230,651	112,852
179,896	-4,940	230,551	112,790
180,910	-5,084	230,547	112,665
181,925	-5,016	230,213	112,545
182,940	-4,901	230,081	112,560
183,954	-4,964	229,998	112,461
184,969	-4,923	229,798	112,385
185,983	-4,808	229,676	112,405
186,998	-4,857	229,480	112,261
188,013	-4,872	229,357	112,179
189,027	-4,799	229,194	112,146
190,042	-4,862	228,941	111,963
191,056	-4,894	228,839	111,878
192,071	-4,765	228,655	111,879
193,086	-4,900	228,609	111,741
194,100	-4,811	228,412	111,704
195,115	-5,034	228,061	111,350
196,129	-5,403	227,929	110,991
197,144	-2,459	228,986	113,779
198,159	2,188	230,238	118,008
199,173	3,948	230,395	119,445
200,188	3,916	230,361	119,392
201,202	4,266	230,181	119,560
202,217	4,096	230,280	119,468
203,232	4,347	230,096	119,557
204,246	4,502	229,947	119,589
205,261	4,449	229,715	119,417
206,275	4,634	229,764	119,574
207,290	4,628	229,609	119,478
208,304	4,538	229,420	119,300
209,319	4,664	229,219	119,282
210,334	4,482	229,051	119,043
211,348	4,135	228,672	118,569
212,363	3,986	228,594	118,403
213,377	3,843	228,335	118,149
214,392	3,689	228,181	117,940
215,407	3,712	228,101	117,906
216,421	3,894	227,955	117,959
217,436	3,744	227,791	117,749
218,450	3,659	227,493	117,520
219,465	3,455	227,318	117,262
220,480	3,665	227,310	117,409
221,494	3,543	227,015	117,152
222,509	3,726	226,940	117,243
223,523	3,712	226,821	117,161
224,538	3,524	226,731	116,960
225,553	3,707	226,510	116,975
226,567	3,724	226,553	117,000
227,582	4,035	226,388	117,141
228,596	4,137	226,286	117,155
229,611	4,017	226,010	116,911
230,626	3,807	225,820	116,643
231,640	3,811	225,535	116,488
232,655	3,919	225,580	116,583
233,669	4,469	225,590	116,995
234,684	4,545	225,418	116,953
235,699	4,202	225,122	116,528
236,713	3,911	224,970	116,220
237,728	3,810	224,886	116,090
238,742	3,647	224,557	115,787
239,757	3,787	224,436	115,820
240,772	3,548	224,373	115,597
241,786	3,513	224,172	115,457
242,801	3,926	224,124	115,732
243,815	4,116	224,086	115,845
244,830	4,237	223,774	115,765
245,844	3,918	223,598	115,424
246,859	3,798	223,617	115,333
247,874	4,113	223,379	115,436
248,888	3,942	223,311	115,263
249,903	3,838	223,138	115,085
250,917	3,639	222,886	114,796
251,932	3,546	222,741	114,642
252,947	3,798	222,631	114,763
253,961	3,633	222,445	114,534
254,976	3,722	222,270	114,500
255,990	3,945	222,196	114,618
257,005	3,938	222,142	114,574
258,020	3,782	222,008	114,379
259,034	4,166	221,954	114,627
260,049	3,982	221,688	114,343
261,063	3,861	221,618	114,206
262,078	4,040	221,400	114,217
263,093	4,219	221,181	114,226
264,107	3,970	221,108	113,994
265,122	4,300	220,926	114,134
266,136	4,351	220,902	114,150
267,151	4,054	220,692	113,811
268,166	3,847	220,469	113,533
269,180	3,447	220,154	113,065
270,195	3,783	220,148	113,301
271,209	3,669	220,043	113,152
272,224	3,544	220,004	113,030
273,239	3,968	219,770	113,212
274,253	3,720	219,493	112,877
275,268	3,489	219,421	112,659
276,282	3,475	219,132	112,491
277,297	3,458	219,165	112,485
278,312	3,427	218,982	112,359
279,326	3,815	218,862	112,571
280,341	3,679	218,781	112,420
281,355	3,842	218,637	112,455
282,370	3,609	218,453	112,180
283,384	3,542	218,279	112,032
284,399	3,450	218,118	111,872
285,414	3,503	217,956	111,818
286,428	3,737	217,988	111,994
287,443	3,981	217,855	112,095
288,457	3,941	217,693	111,972
289,472	3,824	217,566	111,811
290,487	3,506	217,231	111,399
291,501	3,299	217,066	111,154
292,516	3,474	217,025	111,250
293,530	3,644	216,864	111,281
294,545	3,259	216,626	110,869
295,560	3,610	216,634	111,117
296,574	3,684	216,491	111,089
297,589	3,573	216,364	110,933
298,603	3,848	216,183	111,029
299,618	3,680	216,100	110,855
300,633	3,981	216,027	111,025
301,647	4,012	216,101	111,075
302,662	3,863	215,831	110,819
303,676	4,009	215,749	110,873
304,691	3,988	215,491	110,715
305,706	4,048	215,407	110,704
306,720	4,013	215,176	110,551
307,735	3,936	214,998	110,394
308,749	3,683	214,783	110,093
309,764	3,796	214,875	110,211
310,779	4,009	214,657	110,242
311,793	3,867	214,617	110,110
312,808	3,873	214,322	109,953
313,822	3,956	214,252	109,967
314,837	3,800	214,090	109,763
315,852	3,641	213,871	109,527
316,866	3,652	213,785	109,482
317,881	3,956	213,710	109,649
318,895	3,896	213,601	109,542
319,910	3,907	213,304	109,387
320,925	3,580	213,152	109,067
321,939	3,343	212,923	108,771
322,954	3,489	212,889	108,848
323,968	3,850	212,829	109,064
324,983	3,950	212,776	109,098
325,997	3,931	212,661	109,016
327,012	3,762	212,559	108,834
328,027	3,898	212,406	108,842
329,041	4,019	212,364	108,897
330,056	4,387	212,160	109,043
331,070	3,896	211,931	108,568
332,085	3,642	211,674	108,248
333,100	3,942	211,547	108,385
334,114	3,788	211,568	108,277
335,129	3,742	211,287	108,092
336,143	3,604	211,095	107,887
337,158	3,783	210,880	107,893
338,173	3,799	210,805	107,856
339,187	3,631	210,801	107,726
340,202	3,148	210,594	107,272
341,216	3,448	210,460	107,405
342,231	3,507	210,253	107,331
343,246	3,769	210,241	107,499
344,260	3,516	210,138	107,259
345,275	3,620	209,979	107,241
346,289	3,568	209,990	107,201
347,304	3,831	209,756	107,256
348,319	3,539	209,586	106,955
349,333	3,722	209,493	107,026
350,348	4,111	209,312	107,195
351,362	3,918	209,274	107,031
352,377	3,892	209,143	106,937
353,392	3,747	208,969	106,737
354,406	3,827	208,835	106,715
355,421	195,694	1342,308	1434,015
356,435	156,241	1480,498	1434,116
