DTS Sentinel unit serial number:	SN410029Multiplexer serial number:	ORYXHardware model number:	OX2-SRSoftware version number:	ORYX F/W v4,00 Oryx Data Collector v3.7.2.0data status	okinstallation	B6 Nyhavnadifferential loss correction	single-endedforward channel	channel 2reverse channel	N/Adate	2023/12/08time	15:00:08forward acquisition time	300,00reverse acquisition time	0,00gamma	499,1914k internal	0,3159k external	0,3159temperature offset calibration	1,0000default loss term (dB/km)	0,3820temperature slope calibration	1,0000multiplexer offset coefficient	1,0000multiplexer slope coefficient	1,0000fibre end	0,00T internal ref (°C)	15,06T ext. ref 1 (°C)	-1,48T ext. ref 2 (°C)	-1,48length (m)	temperature (°C)	Stokes	anti-Stokes-744,400	-58,771	0,098	-0,031
-743,385	-99,212	-0,250	-0,046
-742,371	-59,434	0,152	0,048
-741,356	-143,000	-0,267	-0,019
-740,342	95,968	-0,059	0,049
-739,327	-95,349	-0,416	0,082
-738,312	325,755	-0,037	0,052
-737,298	-35,371	-0,179	0,071
-736,283	-32,092	0,234	0,096
-735,269	-178,191	-0,281	0,005
-734,254	-144,106	-0,052	0,004
-733,239	-72,023	-0,527	-0,143
-732,225	158,251	0,020	-0,020
-731,210	-200,000	0,004	-0,038
-730,196	491,232	-0,062	-0,104
-729,181	214,605	0,042	-0,049
-728,167	-129,329	-0,055	-0,006
-727,152	434,708	0,021	0,034
-726,137	21,317	-0,020	0,012
-725,123	136,899	0,055	-0,053
-724,108	44,366	-0,119	-0,081
-723,094	784,103	0,090	-0,181
-722,079	557,743	-0,107	-0,191
-721,064	280,123	0,037	0,048
-720,050	800,000	0,024	0,053
-719,035	78,810	-0,109	0,086
-718,021	800,000	-0,011	-0,026
-717,006	312,737	-0,050	-0,069
-715,991	59,144	-0,036	-0,026
-714,977	-102,251	-0,065	0,011
-713,962	800,000	-0,032	-0,082
-712,948	205,042	0,142	0,162
-711,933	-62,624	-0,107	-0,032
-710,918	211,418	0,087	-0,101
-709,904	-50,165	-0,116	-0,040
-708,889	-106,088	-0,137	-0,022
-707,875	-200,000	-0,011	0,058
-706,860	-122,076	0,063	-0,008
-705,845	800,000	0,020	-0,063
-704,831	-200,000	-0,014	0,167
-703,816	-200,000	0,004	-0,057
-702,802	633,314	-0,037	-0,069
-701,787	-161,523	-0,069	0,003
-700,772	145,541	-0,132	-0,130
-699,758	439,610	0,079	-0,128
-698,743	351,952	-0,101	-0,148
-697,729	-200,000	0,016	0,102
-696,714	-200,000	0,007	0,039
-695,699	-200,000	0,004	-0,058
-694,685	226,090	-0,015	0,018
-693,670	-0,068	0,011	-0,006
-692,656	594,655	-0,040	-0,073
-691,641	-172,005	-0,163	-0,004
-690,627	-200,000	0,003	0,101
-689,612	-149,345	0,061	0,004
-688,597	-128,767	-0,141	-0,014
-687,583	11,985	-0,066	-0,037
-686,568	54,353	-0,123	-0,087
-685,554	702,470	0,010	-0,020
-684,539	800,000	-0,030	-0,070
-683,524	84,864	0,050	-0,040
-682,510	-115,338	-0,084	0,012
-681,495	18,119	-0,089	-0,052
-680,481	-160,733	0,130	0,005
-679,466	-200,000	-0,006	-0,087
-678,451	-200,000	0,001	0,106
-677,437	-14,879	0,087	0,041
-676,422	-143,620	0,067	-0,005
-675,408	644,970	-0,024	-0,046
-674,393	395,527	-0,049	-0,076
-673,378	-41,625	-0,127	-0,048
-672,364	783,632	0,032	-0,065
-671,349	-145,871	-0,184	-0,012
-670,335	-200,000	-0,011	0,049
-669,320	209,863	0,033	-0,038
-668,305	-88,435	0,079	0,017
-667,291	83,272	-0,063	-0,050
-666,276	159,448	-0,010	0,010
-665,262	288,320	-0,028	-0,037
-664,247	-200,000	0,024	-0,106
-663,232	-137,132	-0,036	-0,003
-662,218	-109,777	0,030	-0,005
-661,203	274,529	-0,045	0,058
-660,189	158,655	0,058	0,059
-659,174	800,000	-0,034	-0,100
-658,159	683,014	-0,082	-0,159
-657,145	-46,425	-0,034	-0,012
-656,130	292,342	0,098	-0,131
-655,116	66,709	-0,067	-0,050
-654,101	-142,916	-0,129	0,009
-653,086	-200,000	-0,000	-0,073
-652,072	-121,889	-0,031	0,004
-651,057	800,000	-0,019	-0,041
-650,043	800,000	0,035	0,078
-649,028	-200,000	-0,023	-0,150
-648,014	550,828	-0,013	-0,022
-646,999	-200,000	-0,045	0,234
-645,984	22,449	-0,049	0,029
-644,970	-93,001	-0,111	-0,022
-643,955	800,000	-0,069	-0,167
-642,941	113,456	-0,077	-0,068
-641,926	-200,000	-0,019	-0,091
-640,911	-11,736	0,168	0,081
-639,897	-200,000	-0,026	0,086
-638,882	190,782	-0,064	-0,071
-637,868	-74,735	-0,181	0,048
-636,853	491,200	0,003	-0,005
-635,838	-200,000	-0,040	-0,196
-634,824	-200,000	0,006	-0,024
-633,809	-173,615	-0,036	0,001
-632,795	195,877	-0,073	-0,082
-631,780	186,047	-0,089	-0,097
-630,765	250,022	-0,024	0,029
-629,751	-200,000	-0,015	-0,086
-628,736	448,374	0,020	0,033
-627,722	-69,661	0,110	-0,031
-626,707	189,155	0,032	-0,036
-625,692	-59,362	0,050	-0,016
-624,678	31,648	-0,064	-0,040
-623,663	-49,222	-0,030	-0,011
-622,649	-110,504	-0,052	-0,008
-621,634	-115,698	-0,068	-0,009
-620,619	-200,000	-0,032	0,155
-619,605	-90,519	-0,075	0,016
-618,590	-200,000	0,003	-0,034
-617,576	-200,000	-0,005	0,113
-616,561	696,606	0,038	0,073
-615,546	87,891	-0,092	-0,075
-614,532	61,752	-0,042	0,031
-613,517	-149,101	0,002	-0,000
-612,503	8,146	-0,037	0,020
-611,488	-30,663	-0,061	0,025
-610,474	410,969	-0,024	-0,037
-609,459	438,445	-0,055	0,088
-608,444	48,432	-0,005	0,003
-607,430	-105,568	0,082	-0,013
-606,415	800,000	0,048	-0,148
-605,401	-73,690	0,161	0,043
-604,386	-200,000	0,006	-0,041
-603,371	128,320	-0,102	-0,095
-602,357	-200,000	0,032	-0,115
-601,342	106,872	-0,060	0,052
-600,328	-119,813	-0,081	0,010
-599,313	185,130	-0,089	-0,097
-598,298	800,000	-0,030	0,065
-597,284	-153,198	-0,032	0,002
-596,269	-200,000	0,014	-0,175
-595,255	-200,000	-0,001	0,192
-594,240	419,230	-0,043	0,068
-593,225	-142,970	0,091	-0,006
-592,211	-187,295	-0,127	-0,001
-591,196	-162,998	0,059	0,002
-590,182	554,663	-0,093	-0,165
-589,167	102,316	0,052	-0,044
-588,152	493,258	-0,078	0,132
-587,138	420,984	0,021	-0,032
-586,123	-113,164	-0,072	-0,010
-585,109	68,919	-0,042	0,032
-584,094	800,000	-0,044	0,097
-583,079	-46,757	0,108	-0,039
-582,065	61,936	-0,033	0,024
-581,050	78,435	-0,040	0,031
-580,036	-200,000	-0,001	0,114
-579,021	-200,000	0,004	-0,020
-578,006	110,122	0,083	-0,073
-576,992	273,695	0,065	-0,084
-575,977	-200,000	-0,012	-0,148
-574,963	22,521	0,147	-0,088
-573,948	-16,148	0,039	-0,018
-572,934	5,502	-0,042	0,023
-571,919	322,254	0,018	-0,026
-570,904	-44,274	-0,046	-0,017
-569,890	-51,124	-0,134	-0,046
-568,875	800,000	-0,039	-0,095
-567,861	419,412	0,084	-0,132
-566,846	-90,089	0,094	0,020
-565,831	-7,888	-0,051	0,025
-564,817	-200,000	0,025	-0,137
-563,802	-58,131	-0,134	-0,042
-562,788	-200,000	-0,020	-0,077
-561,773	543,222	0,034	-0,059
-560,758	-200,000	0,009	0,036
-559,744	-102,635	0,163	-0,028
-558,729	800,000	-0,023	0,058
-557,715	-200,000	0,002	-0,080
-556,700	800,000	-0,042	-0,091
-555,685	47,092	-0,004	-0,003
-554,671	413,963	0,037	0,057
-553,656	410,046	0,038	0,058
-552,642	-200,000	0,032	-0,121
-551,627	201,630	-0,056	0,063
-550,612	-156,144	-0,057	-0,003
-549,598	-82,287	-0,178	-0,042
-548,583	-47,386	0,079	0,028
-547,569	-200,000	-0,025	0,083
-546,554	800,000	0,059	0,155
-545,539	-37,344	0,100	0,039
-544,525	-200,000	0,005	-0,048
-543,510	263,317	-0,070	0,089
-542,496	-84,925	-0,094	-0,021
-541,481	-200,000	-0,015	-0,139
-540,466	-55,223	0,091	0,030
-539,452	453,979	0,084	0,137
-538,437	56,071	0,064	0,045
-537,423	-38,311	0,162	-0,062
-536,408	20,863	-0,061	0,036
-535,393	-200,000	-0,021	0,153
-534,379	62,059	-0,013	0,010
-533,364	-200,000	-0,014	-0,138
-532,350	-200,000	-0,013	-0,087
-531,335	-169,532	0,036	0,001
-530,321	134,050	0,076	-0,072
-529,306	-200,000	-0,014	0,074
-528,291	-200,000	-0,008	0,050
-527,277	269,614	0,088	0,113
-526,262	-110,349	0,057	0,009
-525,248	800,000	-0,028	0,087
-524,233	-99,533	0,085	-0,016
-523,218	-200,000	-0,017	0,110
-522,204	114,591	-0,066	-0,059
-521,189	-75,625	0,054	0,014
-520,175	-200,000	0,017	0,064
-519,160	59,896	0,032	-0,023
-518,145	-162,016	0,197	-0,007
-517,131	-61,800	-0,122	0,037
-516,116	-74,652	0,036	0,009
-515,102	-22,076	0,118	0,052
-514,087	111,024	0,118	-0,104
-513,072	-72,795	-0,183	-0,049
-512,058	800,000	0,030	-0,088
-511,043	47,798	0,099	-0,067
-510,029	-162,815	-0,040	0,001
-509,014	9,125	-0,056	0,031
-507,999	197,897	-0,009	0,010
-506,985	231,742	0,085	0,102
-505,970	95,275	-0,087	-0,073
-504,956	779,526	0,049	-0,098
-503,941	63,312	-0,078	-0,057
-502,926	-55,697	0,042	0,014
-501,912	-200,000	0,026	0,140
-500,897	440,040	0,022	-0,035
-499,883	-47,935	0,062	-0,022
-498,868	800,000	-0,049	0,115
-497,853	-88,017	-0,108	-0,023
-496,839	-157,443	0,175	0,008
-495,824	800,000	-0,046	0,117
-494,810	310,805	-0,043	0,058
-493,795	800,000	0,037	0,076
-492,781	-99,281	-0,130	0,024
-491,766	-124,644	0,043	-0,005
-490,751	-200,000	-0,013	0,077
-489,737	800,000	0,034	-0,085
-488,722	800,000	0,006	-0,019
-487,708	84,687	0,044	-0,036
-486,693	-159,651	0,040	0,002
-485,678	694,279	0,052	0,099
-484,664	81,459	-0,051	0,040
-483,649	-5,853	-0,094	-0,047
-482,635	134,363	0,027	0,026
-481,620	133,750	0,145	0,137
-480,605	258,602	0,017	-0,022
-479,591	273,161	-0,010	-0,012
-478,576	-173,208	0,031	-0,001
-477,562	373,702	0,047	-0,070
-476,547	21,178	0,147	-0,087
-475,532	21,009	0,150	0,089
-474,518	-200,000	-0,011	0,068
-473,503	800,000	0,055	0,172
-472,489	0,021	0,026	-0,013
-471,474	247,979	-0,091	0,112
-470,459	-89,990	-0,194	-0,041
-469,445	-200,000	0,026	-0,135
-468,430	151,053	0,036	0,036
-467,416	-89,659	-0,111	0,024
-466,401	299,128	-0,054	0,072
-465,386	263,480	-0,079	0,100
-464,372	226,065	0,018	0,021
-463,357	-142,706	-0,017	0,001
-462,343	198,531	-0,051	-0,057
-461,328	-200,000	0,013	-0,111
-460,313	-80,872	-0,040	0,010
-459,299	-63,808	0,050	0,015
-458,284	57,005	0,087	0,062
-457,270	-33,915	-0,043	-0,017
-456,255	454,454	0,049	-0,079
-455,241	-200,000	0,001	-0,116
-454,226	136,574	0,066	-0,063
-453,211	-200,000	0,027	-0,092
-452,197	-128,009	-0,094	0,010
-451,182	-200,000	-0,006	0,155
-450,168	428,018	-0,048	0,075
-449,153	-151,620	0,029	0,002
-448,138	800,000	0,054	-0,110
-447,124	-200,000	-0,000	-0,098
-446,109	-200,000	0,008	-0,110
-445,095	199,777	0,043	-0,049
-444,080	129,307	-0,013	-0,012
-443,065	599,788	-0,070	0,127
-442,051	800,000	-0,020	-0,065
-441,036	278,795	-0,072	-0,093
-440,022	338,158	0,049	-0,070
-439,007	-162,546	0,098	0,003
-437,992	-99,191	0,056	-0,010
-436,978	-158,773	-0,042	0,002
-435,963	-200,000	-0,019	0,119
-434,949	-38,532	-0,054	0,021
-433,934	-200,000	-0,005	-0,031
-432,919	800,000	-0,037	-0,083
-431,905	3,469	0,092	-0,049
-430,890	-200,000	-0,019	-0,129
-429,876	-46,559	0,033	0,012
-428,861	143,794	0,136	0,132
-427,846	-49,008	-0,058	-0,020
-426,832	-200,000	0,026	-0,103
-425,817	46,536	-0,088	0,059
-424,803	115,121	-0,106	0,094
-423,788	-127,517	0,094	0,010
-422,773	8,378	0,052	0,029
-421,759	-200,000	-0,036	-0,125
-420,744	-20,347	-0,152	0,068
-419,730	260,339	0,080	-0,101
-418,715	78,059	-0,081	0,063
-417,701	-35,512	-0,086	0,034
-416,686	32,116	0,165	0,103
-415,671	41,760	-0,006	0,004
-414,657	254,425	0,052	0,065
-413,642	800,000	-0,033	0,081
-412,628	-77,811	0,079	0,020
-411,613	668,761	-0,060	-0,114
-410,598	114,715	-0,070	-0,062
-409,584	148,855	0,078	0,077
-408,569	7,444	0,050	0,027
-407,555	-200,000	0,022	0,221
-406,540	-167,809	0,127	-0,004
-405,525	304,054	0,029	-0,039
-404,511	25,295	-0,048	0,029
-403,496	-100,428	-0,112	-0,020
-402,482	37,499	0,095	-0,061
-401,467	-200,000	-0,020	-0,075
-400,452	-15,489	0,098	-0,045
-399,438	369,650	0,058	-0,086
-398,423	800,000	-0,081	-0,219
-397,409	-200,000	0,000	-0,091
-396,394	-200,000	0,009	-0,089
-395,379	800,000	0,020	-0,061
-394,365	264,975	0,053	0,068
-393,350	156,938	0,061	-0,061
-392,336	-200,000	-0,031	0,176
-391,321	41,373	0,092	0,061
-390,306	7,434	-0,140	0,076
-389,292	-200,000	-0,017	0,104
-388,277	-200,000	0,036	0,125
-387,263	-101,318	0,126	-0,022
-386,248	-2,999	-0,069	0,035
-385,233	-110,228	0,139	-0,021
-384,219	-200,000	0,010	0,209
-383,204	-73,919	0,180	0,047
-382,190	800,000	0,046	0,147
-381,175	312,307	0,118	0,161
-380,160	-118,993	0,179	-0,023
-379,146	64,073	0,034	0,025
-378,131	-141,758	0,041	0,003
-377,117	156,674	-0,051	0,051
-376,102	612,535	0,015	-0,027
-375,088	-200,000	0,020	-0,096
-374,073	186,168	-0,073	0,079
-373,058	-15,983	0,036	-0,017
-372,044	476,497	-0,024	0,040
-371,029	-35,324	0,050	0,020
-370,015	-38,317	-0,108	0,041
-369,000	-200,000	-0,017	-0,167
-367,985	-200,000	-0,008	-0,068
-366,971	-25,065	-0,013	-0,006
-365,956	-200,000	-0,006	0,103
-364,942	12,807	-0,137	-0,077
-363,927	424,247	0,055	-0,086
-362,912	79,151	0,060	0,047
-361,898	-200,000	0,006	-0,047
-360,883	-50,947	0,081	0,027
-359,869	-200,000	-0,085	0,000
-358,854	-200,000	0,008	0,061
-357,839	-200,000	-0,009	0,030
-356,825	396,030	0,045	0,068
-355,810	303,135	-0,113	0,152
-354,796	242,200	-0,136	-0,166
-353,781	222,795	-0,110	-0,128
-352,766	-198,716	-0,064	-0,000
-351,752	30,846	0,073	-0,045
-350,737	-200,000	-0,005	-0,035
-349,723	139,192	0,091	0,087
-348,708	-72,974	-0,071	-0,019
-347,693	-200,000	0,005	-0,098
-346,679	62,668	-0,124	-0,090
-345,664	-200,000	0,016	-0,054
-344,650	158,981	-0,078	-0,079
-343,635	-200,000	-0,000	0,050
-342,620	-200,000	-0,035	0,162
-341,606	-45,596	0,017	0,006
-340,591	800,000	0,011	0,028
-339,577	-200,000	-0,009	-0,131
-338,562	-84,475	0,109	-0,025
-337,548	-121,458	-0,015	-0,002
-336,533	244,474	0,041	-0,050
-335,518	103,659	0,129	-0,110
-334,504	-7,306	0,057	0,028
-333,489	-200,000	0,001	0,115
-332,475	-104,406	-0,146	-0,024
-331,460	-128,349	-0,041	-0,004
-330,445	-66,847	0,069	-0,020
-329,431	93,258	-0,081	0,067
-328,416	-200,000	0,020	-0,065
-327,402	293,230	-0,087	0,116
-326,387	61,594	-0,120	-0,086
-325,372	-119,620	0,097	-0,012
-324,358	-44,703	-0,068	-0,024
-323,343	86,645	0,012	-0,009
-322,329	308,194	-0,030	0,041
-321,314	-200,000	0,020	-0,065
-320,299	219,457	-0,106	0,123
-319,285	33,113	-0,029	-0,018
-318,270	527,502	0,042	-0,072
-317,256	92,282	0,054	-0,044
-316,241	-12,593	0,035	-0,016
-315,226	800,000	0,024	0,053
-314,212	86,467	0,175	0,140
-313,197	0,602	-0,144	0,074
-312,183	-43,057	-0,039	0,014
-311,168	-129,177	-0,044	-0,004
-310,153	800,000	-0,037	-0,091
-309,139	47,854	0,066	0,044
-308,124	64,426	0,154	0,112
-307,110	800,000	-0,011	-0,024
-306,095	553,846	0,042	-0,074
-305,080	-16,545	0,034	-0,016
-304,066	156,607	-0,059	-0,059
-303,051	51,644	-0,027	-0,019
-302,037	245,543	0,089	0,109
-301,022	800,000	-0,029	0,084
-300,008	-171,858	0,048	-0,001
-298,993	-200,000	-0,010	0,040
-297,978	-200,000	0,012	0,137
-296,964	-116,642	-0,066	0,009
-295,949	-148,624	0,055	-0,003
-294,935	800,000	-0,053	-0,137
-293,920	-59,414	0,044	0,014
-292,905	-122,249	0,142	-0,017
-291,891	538,212	-0,067	0,115
-290,876	800,000	0,026	-0,069
-289,862	-200,000	0,006	-0,066
-288,847	-200,000	0,003	-0,048
-287,832	271,536	-0,105	-0,134
-286,818	290,059	0,045	0,059
-285,803	-139,193	0,013	-0,001
-284,789	-200,000	0,032	-0,224
-283,774	-200,000	-0,034	-0,167
-282,759	-200,000	-0,003	-0,017
-281,745	38,034	-0,105	-0,067
-280,730	-200,000	0,053	-0,171
-279,716	205,342	-0,037	-0,041
-278,701	-50,397	0,043	-0,015
-277,686	-119,779	-0,058	0,007
-276,672	126,268	-0,024	0,022
-275,657	158,254	-0,113	-0,113
-274,643	119,986	-0,138	-0,124
-273,628	800,000	0,028	0,062
-272,613	-101,416	-0,019	0,003
-271,599	542,451	0,020	-0,035
-270,584	43,349	-0,053	-0,035
-269,570	135,444	0,053	0,050
-268,555	-85,565	0,073	0,016
-267,540	187,304	-0,041	-0,045
-266,526	569,882	-0,021	-0,037
-265,511	-48,753	-0,043	0,015
-264,497	10,422	-0,063	-0,035
-263,482	6,907	-0,116	-0,062
-262,467	25,799	-0,169	0,101
-261,453	543,458	0,081	0,141
-260,438	31,162	-0,054	0,033
-259,424	-137,986	0,014	0,001
-258,409	-28,359	-0,102	-0,042
-257,395	440,093	0,054	-0,086
-256,380	-48,205	-0,024	0,008
-255,365	110,046	-0,076	-0,066
-254,351	-148,878	-0,058	-0,003
-253,336	208,975	-0,021	-0,023
-252,322	19,688	-0,220	0,128
-251,307	222,159	0,052	-0,060
-250,292	631,647	0,071	-0,131
-249,278	12,336	0,094	-0,052
-248,263	-200,000	-0,002	0,085
-247,249	-200,000	0,023	0,078
-246,234	208,278	0,121	-0,137
-245,219	-6,487	-0,238	0,117
-244,205	800,000	0,056	0,154
-243,190	17,543	-0,127	-0,073
-242,176	800,000	-0,023	-0,067
-241,161	89,797	0,062	0,050
-240,146	-200,000	-0,000	-0,013
-239,132	64,412	0,117	-0,085
-238,117	-200,000	-0,021	-0,076
-237,103	-200,000	0,009	-0,042
-236,088	333,597	-0,055	-0,077
-235,073	-87,701	0,129	-0,028
-234,059	-106,501	-0,170	-0,027
-233,044	800,000	-0,050	-0,147
-232,030	522,020	-0,029	-0,049
-231,015	-10,890	-0,135	0,064
-230,000	-135,203	0,153	-0,013
-228,986	24,285	-0,142	-0,084
-227,971	20,124	0,080	0,047
-226,957	-6,113	0,203	0,100
-225,942	92,504	-0,105	0,085
-224,927	30,395	0,072	0,045
-223,913	48,459	-0,035	0,023
-222,898	164,544	-0,056	0,057
-221,884	348,607	-0,034	-0,049
-220,869	-170,696	0,034	0,001
-219,855	800,000	0,028	0,069
-218,840	86,753	0,228	0,182
-217,825	-138,458	0,006	0,000
-216,811	-200,000	-0,013	-0,130
-215,796	-27,615	-0,040	0,017
-214,782	-200,000	-0,025	-0,120
-213,767	295,402	0,016	0,021
-212,752	223,884	0,144	0,168
-211,738	162,540	-0,080	-0,081
-210,723	187,095	0,024	-0,026
-209,709	381,234	-0,105	-0,155
-208,694	800,000	-0,045	-0,098
-207,679	46,502	0,045	0,030
-206,665	93,578	-0,058	0,048
-205,650	800,000	0,049	0,111
-204,636	386,951	0,066	0,099
-203,621	-200,000	0,011	0,170
-202,606	-200,000	0,015	0,174
-201,592	-42,345	-0,066	-0,024
-200,577	800,000	-0,043	0,101
-199,563	-200,000	0,008	0,101
-198,548	800,000	-0,027	0,070
-197,533	238,814	-0,078	-0,093
-196,519	-106,290	0,030	-0,005
-195,504	411,687	-0,024	0,037
-194,490	800,000	0,004	0,009
-193,475	-126,023	0,175	-0,019
-192,460	-153,091	-0,149	0,007
-191,446	-200,000	-0,008	-0,053
-190,431	-200,000	0,001	0,072
-189,417	-200,000	-0,015	0,063
-188,402	-50,497	-0,016	0,006
-187,387	800,000	0,028	0,075
-186,373	-200,000	-0,066	0,212
-185,358	706,706	0,030	-0,057
-184,344	-160,098	0,082	-0,003
-183,329	-200,000	-0,010	0,104
-182,315	-200,000	0,014	0,134
-181,300	-200,000	-0,014	0,049
-180,285	-200,000	0,012	0,039
-179,271	800,000	0,042	0,096
-178,256	154,632	-0,064	-0,063
-177,242	-141,412	0,159	0,011
-176,227	172,558	0,086	0,089
-175,212	-118,207	0,045	-0,006
-174,198	460,861	0,046	-0,075
-173,183	55,505	0,047	0,033
-172,169	104,988	-0,047	-0,040
-171,154	3,913	0,086	-0,045
-170,139	105,614	0,124	-0,106
-169,125	800,000	0,073	0,159
-168,110	800,000	-0,021	0,044
-167,096	-35,420	-0,184	-0,072
-166,081	133,928	-0,054	0,050
-165,066	-3,306	-0,041	0,020
-164,052	800,000	-0,022	-0,048
-163,037	800,000	0,049	0,146
-162,023	-200,000	-0,009	-0,035
-161,008	-200,000	0,017	-0,071
-159,993	-85,334	0,110	0,025
-158,979	-51,287	-0,063	0,021
-157,964	-200,000	0,004	-0,111
-156,950	235,069	0,067	0,080
-155,935	0,997	0,020	-0,010
-154,920	688,204	0,042	-0,079
-153,906	-200,000	-0,010	0,152
-152,891	59,268	0,101	0,071
-151,877	76,360	-0,081	0,062
-150,862	-67,240	-0,166	0,047
-149,847	388,081	0,013	0,020
-148,833	379,872	0,033	-0,049
-147,818	322,457	0,021	-0,029
-146,804	81,405	-0,029	0,022
-145,789	-40,384	-0,122	0,046
-144,775	-82,404	-0,133	-0,031
-143,760	333,636	0,017	-0,024
-142,745	347,940	-0,067	-0,096
-141,731	-86,862	-0,038	0,008
-140,716	360,463	0,041	-0,059
-139,702	-121,339	0,081	-0,010
-138,687	800,000	0,034	0,091
-137,672	-166,638	-0,064	-0,002
-136,658	-107,512	-0,212	0,033
-135,643	-200,000	-0,005	-0,140
-134,629	-89,686	-0,189	-0,040
-133,614	434,357	0,056	0,088
-132,599	-200,000	-0,031	-0,105
-131,585	224,341	0,116	0,135
-130,570	66,742	-0,098	0,072
-129,556	-134,390	-0,077	0,007
-128,541	-200,000	-0,010	-0,068
-127,526	567,990	0,038	-0,067
-126,512	-6,167	-0,095	-0,046
-125,497	-47,671	0,204	0,071
-124,483	800,000	-0,036	0,086
-123,468	232,125	0,097	-0,115
-122,453	695,861	-0,044	-0,084
-121,439	-3,275	-0,009	-0,004
-120,424	-137,531	0,139	0,011
-119,410	-131,664	-0,080	-0,007
-118,395	157,863	-0,041	-0,041
-117,380	-78,342	-0,042	0,010
-116,366	-200,000	-0,006	0,046
-115,351	-46,801	-0,072	-0,025
-114,337	-126,404	-0,165	-0,017
-113,322	126,998	0,084	-0,077
-112,307	17,988	0,115	0,066
-111,293	-200,000	0,003	-0,087
-110,278	-107,675	-0,037	-0,006
-109,264	30,533	-0,060	-0,037
-108,249	123,193	-0,034	-0,030
-107,234	-35,251	0,063	0,024
-106,220	211,790	-0,058	-0,066
-105,205	127,820	0,044	-0,040
-104,191	800,000	-0,038	-0,078
-103,176	687,289	0,034	0,065
-102,162	206,572	0,074	0,083
-101,147	800,000	0,040	0,095
-100,132	53,445	-0,071	0,049
-99,118	439,001	-0,068	0,107
-98,103	273,605	0,053	0,067
-97,089	45,018	0,064	0,042
-96,074	-200,000	-0,009	0,044
-95,059	168,975	-0,099	-0,102
-94,045	-11,494	-0,123	0,058
-93,030	-13,142	0,063	-0,029
-92,016	36,200	0,025	-0,016
-91,001	-200,000	-0,012	-0,055
-89,986	-187,776	0,211	-0,002
-88,972	105,477	0,134	0,114
-87,957	-200,000	-0,006	0,019
-86,943	434,347	-0,122	0,191
-85,928	39,884	-0,127	-0,082
-84,913	-200,000	-0,020	-0,113
-83,899	-19,165	-0,143	-0,064
-82,884	-200,000	0,000	0,034
-81,870	-200,000	0,007	0,144
-80,855	114,128	0,193	0,168
-79,840	325,598	-0,044	-0,061
-78,826	163,766	0,033	0,033
-77,811	-126,869	0,032	-0,003
-76,797	800,000	-0,024	-0,054
-75,782	-63,607	0,114	-0,033
-74,767	665,351	0,031	-0,057
-73,753	629,501	-0,027	0,050
-72,738	-156,886	0,063	-0,003
-71,724	-108,322	-0,049	-0,008
-70,709	263,024	-0,034	0,042
-69,694	151,537	-0,035	-0,034
-68,680	471,255	-0,040	-0,066
-67,665	610,213	-0,036	0,064
-66,651	-200,000	-0,007	-0,115
-65,636	649,459	-0,051	0,093
-64,622	770,688	0,052	-0,101
-63,607	68,826	-0,056	-0,042
-62,592	-134,723	-0,061	-0,005
-61,578	-30,216	-0,102	-0,041
-60,563	-200,000	-0,027	-0,108
-59,549	757,078	-0,040	0,078
-58,534	26,524	-1,982	-1,187
-57,519	-200,000	-0,140	-0,741
-56,505	-200,000	-1,426	-4,916
-55,490	104,995	1,097	0,928
-54,476	800,000	5,098	11,477
-53,461	-200,000	17,990	290,827
-52,446	800,000	728,558	2224,652
-51,432	532,061	1640,926	2795,602
-50,417	108,718	1629,580	1396,242
-49,403	72,624	1282,838	958,909
-48,388	31,214	1025,893	630,067
-47,373	19,878	988,085	569,516
-46,359	18,231	975,950	557,109
-45,344	15,386	972,151	545,622
-44,330	15,555	970,644	545,307
-43,315	15,185	968,791	543,038
-42,300	15,108	967,696	542,153
-41,286	15,073	966,704	541,462
-40,271	15,064	965,710	540,853
-39,257	15,074	964,920	540,423
-38,242	15,118	964,022	540,042
-37,227	15,091	963,121	539,426
-36,213	15,130	962,293	539,067
-35,198	15,021	961,529	538,267
-34,184	15,118	960,742	538,118
-33,169	15,027	959,775	537,260
-32,154	15,088	958,823	536,903
-31,140	15,150	957,892	536,559
-30,125	15,103	957,286	536,049
-29,111	15,060	956,367	535,375
-28,096	15,128	955,773	535,239
-27,082	15,105	955,225	534,836
-26,067	15,073	954,400	534,250
-25,052	15,053	953,561	533,695
-24,038	15,113	952,899	533,496
-23,023	15,072	952,311	533,014
-22,009	15,075	951,631	532,623
-20,994	15,106	950,953	532,322
-19,979	15,095	950,371	531,937
-18,965	15,118	949,765	531,652
-17,950	15,046	949,148	531,057
-16,936	15,028	948,450	530,588
-15,921	15,054	947,827	530,299
-14,906	14,948	947,183	529,582
-13,892	15,023	946,238	529,269
-12,877	14,953	945,854	528,813
-11,863	15,002	944,970	528,452
-10,848	15,005	944,780	528,335
-9,833	15,051	944,168	528,117
-8,819	15,102	943,337	527,793
-7,804	15,062	943,031	527,474
-6,790	15,035	942,281	526,948
-5,775	15,042	941,835	526,701
-4,760	15,064	941,112	526,345
-3,746	14,960	940,545	525,679
-2,731	14,824	939,927	524,883
-1,717	14,860	939,079	524,501
-0,702	14,845	938,519	524,119
0,313	14,668	937,855	523,981
1,327	18,187	935,851	533,884
2,342	27,581	789,168	474,915
3,356	24,179	444,005	262,149
4,371	-5,776	295,191	144,390
5,386	-9,631	276,992	131,826
6,400	-10,921	271,394	127,951
7,415	-10,895	268,967	126,820
8,429	-11,139	267,664	125,972
9,444	-11,176	266,731	125,487
10,459	-11,109	266,235	125,304
11,473	-11,162	265,522	124,908
12,488	-11,272	264,893	124,502
13,502	-11,618	264,533	124,008
14,517	-11,236	264,004	124,094
15,531	-11,410	263,662	123,766
16,546	-11,153	263,026	123,687
17,561	-11,455	263,003	123,394
18,575	-11,239	262,528	123,354
19,590	-11,385	262,186	123,052
20,604	-11,342	261,841	122,917
21,619	-11,423	261,588	122,715
22,634	-11,371	261,130	122,535
23,648	-11,334	260,997	122,495
24,663	-11,437	260,617	122,214
25,677	-11,469	260,357	122,053
26,692	-11,616	260,165	121,821
27,707	-11,342	259,843	121,903
28,721	-11,276	259,637	121,854
29,736	-11,583	259,462	121,489
30,750	-11,480	259,084	121,391
31,765	-11,371	258,718	121,306
32,780	-11,629	258,644	121,032
33,794	-11,471	258,457	121,074
34,809	-11,367	258,019	120,949
35,823	-11,500	257,946	120,787
36,838	-11,550	257,690	120,613
37,853	-11,497	257,376	120,502
38,867	-11,485	257,057	120,352
39,882	-11,422	256,749	120,252
40,896	-11,385	256,572	120,191
41,911	-11,642	256,503	119,923
42,926	-11,566	256,228	119,850
43,940	-11,625	255,892	119,630
44,955	-11,567	255,715	119,588
45,969	-11,764	255,509	119,309
46,984	-11,883	255,185	119,043
47,999	-12,060	254,845	118,720
49,013	-12,210	254,684	118,504
50,028	-12,251	254,326	118,292
51,042	-12,284	254,133	118,164
52,057	-12,389	253,983	117,992
53,071	-12,164	253,800	118,091
54,086	-12,115	253,632	118,044
55,101	-12,199	253,411	117,859
56,115	-11,869	253,288	118,075
57,130	-11,327	253,231	118,506
58,144	-11,096	252,894	118,537
59,159	-11,323	252,887	118,328
60,174	-11,182	252,602	118,305
61,188	-11,418	252,484	118,036
62,203	-11,408	252,085	117,848
63,217	-11,398	252,062	117,835
64,232	-11,148	251,726	117,883
65,247	-11,340	251,464	117,585
66,261	-11,243	251,187	117,528
67,276	-11,680	250,959	117,037
68,290	-11,783	250,721	116,827
69,305	-11,967	250,496	116,555
70,320	-11,856	250,309	116,553
71,334	-11,658	250,420	116,762
72,349	-11,513	250,297	116,819
73,363	-11,363	249,901	116,751
74,378	-11,301	249,772	116,733
75,393	-11,468	249,454	116,432
76,407	-11,565	249,309	116,272
77,422	-11,480	249,071	116,222
78,436	-11,424	248,911	116,184
79,451	-11,501	248,594	115,961
80,466	-11,485	248,350	115,851
81,480	-11,736	248,097	115,511
82,495	-11,688	247,942	115,468
83,509	-11,581	247,715	115,442
84,524	-11,667	247,499	115,259
85,539	-11,723	247,282	115,101
86,553	-11,707	247,061	115,001
87,568	-11,793	247,015	114,897
88,582	-11,758	246,774	114,804
89,597	-11,899	246,786	114,682
90,611	-11,532	246,359	114,780
91,626	-11,405	246,246	114,823
92,641	-11,388	246,009	114,717
93,655	-11,467	245,804	114,545
94,670	-11,610	245,534	114,289
95,684	-11,654	245,501	114,228
96,699	-11,719	245,265	114,053
97,714	-11,713	245,077	113,961
98,728	-11,789	244,844	113,779
99,743	-11,884	244,589	113,571
100,757	-11,717	244,362	113,595
101,772	-11,945	244,194	113,317
102,787	-11,564	244,179	113,616
103,801	-11,649	243,960	113,434
104,816	-11,534	243,792	113,440
105,830	-11,434	243,646	113,446
106,845	-11,396	243,494	113,395
107,860	-11,307	243,212	113,328
108,874	-11,624	243,024	112,968
109,889	-11,434	242,715	112,971
110,903	-11,584	242,697	112,829
111,918	-11,584	242,386	112,675
112,933	-11,724	242,197	112,462
113,947	-11,625	242,111	112,493
114,962	-11,582	241,926	112,432
115,976	-11,536	241,708	112,359
116,991	-11,408	241,486	112,351
118,006	-11,599	241,320	112,107
119,020	-11,507	241,299	112,163
120,035	-11,299	241,105	112,232
121,049	-11,273	241,004	112,196
122,064	-11,232	240,686	112,071
123,079	-11,658	240,728	111,734
124,093	-11,549	240,327	111,626
125,108	-11,709	240,059	111,362
126,122	-11,828	239,826	111,147
127,137	-11,994	239,708	110,948
128,151	-11,789	239,570	111,041
129,166	-11,598	239,304	111,062
130,181	-11,748	239,050	110,813
131,195	-12,059	239,125	110,586
132,210	-11,814	238,902	110,671
133,224	-11,754	238,689	110,611
134,239	-11,666	238,705	110,680
135,254	-11,770	238,435	110,461
136,268	-11,798	238,236	110,336
137,283	-11,827	237,987	110,188
138,297	-12,087	237,652	109,814
139,312	-12,038	237,515	109,780
140,327	-11,522	237,395	110,129
141,341	-11,242	237,455	110,371
142,356	-11,193	237,259	110,311
143,370	-11,294	237,194	110,189
144,385	-11,135	236,797	110,122
145,400	-11,152	236,632	110,022
146,414	-11,185	236,678	110,007
147,429	-11,088	236,354	109,924
148,443	-11,464	236,250	109,566
149,458	-11,230	235,993	109,624
150,473	-11,313	235,774	109,446
151,487	-11,268	235,607	109,394
152,502	-11,336	235,569	109,313
153,516	-10,941	235,463	109,569
154,531	-11,353	235,221	109,119
155,546	-11,278	234,956	109,045
156,560	-11,314	234,855	108,961
157,575	-11,268	234,505	108,825
158,589	-11,499	234,389	108,578
159,604	-11,241	234,360	108,760
160,619	-11,122	234,169	108,755
161,633	-11,080	234,036	108,717
162,648	-10,978	233,836	108,695
163,662	-11,120	233,793	108,553
164,677	-11,341	233,519	108,241
165,692	-11,016	233,346	108,408
166,706	-11,185	233,375	108,279
167,721	-11,127	233,204	108,236
168,735	-11,011	232,993	108,219
169,750	-11,136	232,869	108,053
170,764	-11,150	232,681	107,945
171,779	-11,165	232,642	107,906
172,794	-11,091	232,372	107,830
173,808	-11,309	232,167	107,554
174,823	-11,827	231,829	106,983
175,837	-11,729	231,693	106,987
176,852	-11,545	231,647	107,100
177,867	-11,176	231,544	107,331
178,881	-11,222	231,461	107,247
179,896	-10,787	231,099	107,409
180,910	-11,152	231,158	107,141
181,925	-11,105	230,906	107,052
182,940	-11,174	230,875	106,975
183,954	-11,045	230,622	106,948
184,969	-11,153	230,618	106,852
185,983	-10,849	230,408	106,982
186,998	-10,882	230,153	106,828
188,013	-11,013	230,084	106,685
189,027	-10,702	229,877	106,820
190,042	-10,839	229,740	106,641
191,056	-10,912	229,538	106,482
192,071	-10,978	229,431	106,372
193,086	-11,123	229,181	106,135
194,100	-10,771	229,002	106,313
195,115	-11,251	228,754	105,819
196,129	-11,801	228,697	105,359
197,144	-6,596	230,429	110,182
198,159	-0,456	232,090	115,746
199,173	2,843	232,873	118,694
200,188	3,137	233,018	118,987
201,202	3,274	232,821	118,982
202,217	3,277	232,771	118,948
203,232	3,540	232,572	119,040
204,246	3,623	232,550	119,082
205,261	3,756	232,352	119,074
206,275	4,110	232,154	119,236
207,290	4,054	232,054	119,130
208,304	3,866	231,926	118,909
209,319	3,894	231,666	118,786
210,334	3,755	231,507	118,587
211,348	3,623	231,346	118,392
212,363	3,450	230,915	118,028
213,377	3,124	230,678	117,645
214,392	3,143	230,733	117,678
215,407	3,112	230,609	117,580
216,421	3,386	230,313	117,628
217,436	3,098	230,306	117,393
218,450	2,982	229,991	117,133
219,465	2,711	229,929	116,884
220,480	2,784	229,774	116,851
221,494	2,767	229,707	116,793
222,509	3,163	229,532	116,997
223,523	2,887	229,473	116,745
224,538	2,906	229,215	116,618
225,553	2,913	229,091	116,550
226,567	3,199	228,951	116,687
227,582	3,430	229,012	116,884
228,596	3,404	228,828	116,759
229,611	3,248	228,411	116,417
230,626	2,927	228,245	116,079
231,640	3,092	228,181	116,161
232,655	3,309	228,122	116,285
233,669	3,559	228,106	116,457
234,684	3,465	227,957	116,298
235,699	3,488	227,775	116,213
236,713	3,251	227,495	115,880
237,728	3,067	227,309	115,636
238,742	2,821	227,235	115,402
239,757	2,981	226,845	115,314
240,772	2,922	226,704	115,188
241,786	2,945	226,591	115,138
242,801	3,181	226,720	115,371
243,815	3,410	226,586	115,465
244,830	3,432	226,438	115,395
245,844	3,115	226,238	115,045
246,859	3,113	225,997	114,911
247,874	3,343	225,834	114,991
248,888	3,558	225,743	115,095
249,903	3,131	225,635	114,710
250,917	2,969	225,470	114,494
251,932	2,991	225,301	114,414
252,947	3,140	224,956	114,341
253,961	2,869	224,941	114,120
254,976	3,099	224,760	114,190
255,990	3,327	224,781	114,361
257,005	3,247	224,620	114,209
258,020	3,161	224,505	114,076
259,034	3,492	224,360	114,239
260,049	3,295	224,194	113,997
261,063	3,266	223,960	113,847
262,078	3,494	223,966	114,009
263,093	3,641	223,721	113,983
264,107	3,453	223,585	113,764
265,122	3,206	223,473	113,514
266,136	3,658	223,345	113,775
267,151	3,619	223,201	113,661
268,166	3,354	222,895	113,299
269,180	2,952	222,696	112,891
270,195	2,917	222,582	112,797
271,209	2,990	222,390	112,744
272,224	3,009	222,368	112,736
273,239	3,212	222,157	112,770
274,253	3,054	222,046	112,587
275,268	2,830	221,781	112,277
276,282	2,654	221,682	112,088
277,297	2,749	221,556	112,084
278,312	2,999	221,547	112,253
279,326	3,177	221,305	112,251
280,341	3,270	221,122	112,217
281,355	3,388	221,028	112,246
282,370	3,044	220,853	111,894
283,384	3,040	220,615	111,761
284,399	2,681	220,497	111,428
285,414	2,987	220,294	111,540
286,428	3,037	220,319	111,579
287,443	3,164	220,349	111,677
288,457	3,308	220,162	111,677
289,472	3,055	219,725	111,262
290,487	2,549	219,640	110,841
291,501	2,375	219,463	110,614
292,516	2,638	219,428	110,779
293,530	2,833	219,280	110,835
294,545	2,542	219,316	110,632
295,560	3,091	219,084	110,904
296,574	2,992	218,901	110,730
297,589	3,055	218,760	110,694
298,603	3,012	218,619	110,581
299,618	2,940	218,554	110,486
300,633	2,986	218,363	110,414
301,647	3,199	218,458	110,606
302,662	3,185	218,150	110,429
303,676	3,165	218,112	110,386
304,691	3,176	217,959	110,307
305,706	3,204	217,674	110,173
306,720	3,350	217,558	110,210
307,735	2,934	217,332	109,786
308,749	2,672	217,358	109,601
309,764	3,172	217,261	109,902
310,779	3,351	216,957	109,867
311,793	3,172	216,834	109,667
312,808	3,320	216,784	109,737
313,822	3,327	216,459	109,568
314,837	3,178	216,507	109,476
315,852	2,973	216,239	109,184
316,866	3,031	216,154	109,173
317,881	3,326	215,961	109,276
318,895	3,501	215,886	109,353
319,910	3,012	215,662	108,882
320,925	2,745	215,418	108,559
321,939	2,525	215,330	108,348
322,954	2,930	215,255	108,589
323,968	3,173	215,297	108,773
324,983	3,058	215,215	108,640
325,997	3,485	215,035	108,843
327,012	3,150	214,769	108,461
328,027	3,181	214,577	108,376
329,041	3,594	214,599	108,671
330,056	3,411	214,426	108,443
331,070	2,937	214,244	108,006
332,085	2,636	214,040	107,681
333,100	2,812	213,849	107,699
334,114	3,229	213,805	107,962
335,129	2,985	213,862	107,809
336,143	2,876	213,570	107,576
337,158	3,129	213,449	107,683
338,173	3,314	213,265	107,711
339,187	3,034	212,996	107,369
340,202	3,058	212,948	107,352
341,216	3,049	212,777	107,249
342,231	2,904	212,657	107,078
343,246	2,900	212,492	106,983
344,260	3,025	212,411	107,020
345,275	3,214	212,355	107,114
346,289	3,415	212,216	107,176
347,304	3,357	212,216	107,125
348,319	3,157	211,971	106,852
349,333	2,916	211,916	106,646
350,348	3,018	211,742	106,621
351,362	3,307	211,635	106,759
352,377	3,369	211,400	106,674
353,392	3,053	211,309	106,399
354,406	3,103	211,233	106,386
355,421	195,743	1339,191	1416,908
356,435	156,369	1476,581	1416,880
