DTS Sentinel unit serial number:	SN410029Multiplexer serial number:	ORYXHardware model number:	OX2-SRSoftware version number:	ORYX F/W v4,00 Oryx Data Collector v3.7.2.0data status	okinstallation	B6 Nyhavnadifferential loss correction	single-endedforward channel	channel 2reverse channel	N/Adate	2023/12/08time	19:20:08forward acquisition time	300,00reverse acquisition time	0,00gamma	499,1914k internal	0,3158k external	0,3158temperature offset calibration	1,0000default loss term (dB/km)	0,3820temperature slope calibration	1,0000multiplexer offset coefficient	1,0000multiplexer slope coefficient	1,0000fibre end	0,00T internal ref (°C)	15,25T ext. ref 1 (°C)	-1,41T ext. ref 2 (°C)	-1,43length (m)	temperature (°C)	Stokes	anti-Stokes-744,400	800,000	0,031	-0,095
-743,385	-136,883	-0,323	0,027
-742,371	28,919	0,145	-0,090
-741,356	18,899	-0,270	0,159
-740,342	-48,419	0,018	-0,006
-739,327	-122,818	-0,414	0,049
-738,312	530,950	0,017	-0,030
-737,298	-200,000	-0,410	0,001
-736,283	25,762	-0,031	-0,019
-735,269	38,748	-0,195	-0,128
-734,254	23,846	0,065	-0,039
-733,239	-87,905	-0,526	-0,116
-732,225	-44,806	0,199	0,073
-731,210	163,218	-0,058	0,061
-730,196	250,365	-0,043	-0,054
-729,181	-200,000	-0,002	-0,008
-728,167	-119,322	-0,129	0,016
-727,152	-200,000	-0,005	-0,027
-726,137	800,000	0,037	0,090
-725,123	-200,000	0,019	-0,089
-724,108	-200,000	0,000	-0,036
-723,094	-53,093	-0,105	0,035
-722,079	800,000	0,018	-0,048
-721,064	-200,000	0,004	-0,116
-720,050	800,000	0,033	-0,094
-719,035	10,354	-0,089	-0,050
-718,021	800,000	-0,023	0,049
-717,006	800,000	-0,025	-0,079
-715,991	337,165	-0,090	-0,129
-714,977	800,000	0,037	-0,078
-713,962	-200,000	0,026	0,114
-712,948	468,172	0,038	0,063
-711,933	496,129	-0,055	0,093
-710,918	703,504	0,012	0,023
-709,904	-71,357	-0,062	-0,017
-708,889	-38,479	-0,089	-0,034
-707,875	-200,000	-0,028	-0,124
-706,860	-35,481	-0,081	-0,032
-705,845	800,000	-0,035	0,073
-704,831	-12,946	-0,079	-0,038
-703,816	800,000	-0,051	-0,163
-702,802	-56,064	-0,150	0,049
-701,787	391,810	-0,044	0,067
-700,772	-200,000	-0,041	0,174
-699,758	10,700	-0,131	-0,073
-698,743	-83,258	0,119	0,028
-697,729	328,927	-0,070	0,099
-696,714	800,000	-0,015	-0,041
-695,699	800,000	0,015	0,042
-694,685	-19,451	-0,139	-0,063
-693,670	800,000	-0,076	-0,168
-692,656	301,790	0,028	-0,038
-691,641	68,718	-0,052	0,039
-690,627	800,000	-0,057	-0,170
-689,612	-148,680	-0,143	-0,008
-688,597	-200,000	0,014	0,105
-687,583	7,366	-0,148	-0,081
-686,568	84,076	-0,072	-0,058
-685,554	184,477	0,034	-0,037
-684,539	472,755	-0,040	-0,067
-683,524	450,555	0,064	0,105
-682,510	127,751	-0,045	-0,042
-681,495	-74,628	-0,075	0,020
-680,481	79,028	0,041	0,032
-679,466	-22,249	0,154	-0,068
-678,451	242,095	-0,038	0,046
-677,437	-58,330	0,090	0,029
-676,422	87,104	-0,128	0,104
-675,408	-129,528	0,087	0,009
-674,393	-200,000	-0,026	-0,148
-673,378	-200,000	-0,005	-0,048
-672,364	-37,487	0,114	0,045
-671,349	-37,940	0,108	-0,042
-670,335	-73,996	0,079	0,021
-669,320	-200,000	0,003	0,018
-668,305	34,386	0,095	-0,061
-667,291	275,704	-0,043	-0,056
-666,276	-61,073	0,120	-0,037
-665,262	-86,962	-0,118	0,026
-664,247	-57,735	0,059	-0,019
-663,232	-200,000	-0,043	-0,175
-662,218	-104,324	0,086	0,015
-661,203	210,536	-0,052	-0,060
-660,189	705,449	-0,034	-0,067
-659,174	-141,996	-0,069	0,005
-658,159	800,000	-0,034	0,094
-657,145	-164,894	-0,067	0,002
-656,130	-32,159	-0,072	-0,029
-655,116	-200,000	-0,003	0,012
-654,101	800,000	0,041	0,113
-653,086	-106,252	-0,072	-0,012
-652,072	688,851	-0,050	-0,097
-651,057	370,452	-0,074	-0,111
-650,043	-30,447	0,032	-0,013
-649,028	-200,000	-0,004	0,108
-648,014	-90,529	0,026	-0,005
-646,999	39,974	-0,065	-0,043
-645,984	-84,478	0,065	-0,015
-644,970	151,476	0,076	-0,076
-643,955	800,000	-0,038	-0,101
-642,941	800,000	0,015	0,032
-641,926	800,000	-0,047	-0,105
-640,911	279,771	0,053	-0,070
-639,897	800,000	0,020	-0,054
-638,882	129,608	-0,032	-0,030
-637,868	-72,193	0,053	-0,014
-636,853	15,642	-0,062	0,036
-635,838	800,000	-0,039	-0,099
-634,824	-200,000	0,018	-0,094
-633,809	800,000	0,063	0,178
-632,795	-200,000	0,019	-0,069
-631,780	2,637	0,005	-0,003
-630,765	736,009	-0,017	-0,034
-629,751	-200,000	0,021	-0,161
-628,736	242,811	-0,066	-0,081
-627,722	-112,754	-0,081	-0,012
-626,707	52,847	0,089	-0,062
-625,692	-45,221	0,158	0,057
-624,678	34,109	-0,041	-0,026
-623,663	40,790	-0,073	-0,048
-622,649	141,578	0,056	-0,055
-621,634	46,937	-0,077	0,052
-620,619	-100,668	0,132	0,024
-619,605	644,646	-0,089	0,168
-618,590	800,000	-0,057	0,144
-617,576	-200,000	0,027	0,128
-616,561	-200,000	0,011	0,075
-615,546	385,798	0,012	-0,018
-614,532	164,995	-0,040	-0,042
-613,517	186,057	0,047	-0,052
-612,503	-103,172	-0,039	0,007
-611,488	-20,936	0,057	0,026
-610,474	-200,000	-0,018	0,088
-609,459	12,615	0,054	0,030
-608,444	33,676	-0,148	-0,094
-607,430	189,687	-0,025	0,028
-606,415	800,000	-0,041	-0,093
-605,401	158,536	-0,056	0,057
-604,386	552,268	0,023	0,041
-603,371	-7,467	0,109	-0,054
-602,357	379,630	-0,059	0,089
-601,342	800,000	-0,047	0,120
-600,328	229,830	-0,033	-0,039
-599,313	800,000	0,037	-0,117
-598,298	-200,000	0,011	-0,063
-597,284	-163,543	-0,087	0,003
-596,269	-200,000	-0,009	0,062
-595,255	86,690	-0,076	0,062
-594,240	63,020	0,141	-0,103
-593,225	37,623	-0,060	-0,039
-592,211	305,088	-0,069	0,094
-591,196	-200,000	0,037	-0,161
-590,182	148,343	0,050	0,049
-589,167	800,000	0,058	0,145
-588,152	-200,000	-0,009	0,187
-587,138	538,881	-0,054	0,095
-586,123	-144,863	-0,093	0,006
-585,109	-50,455	-0,070	0,024
-584,094	211,936	-0,077	-0,089
-583,079	-200,000	0,007	-0,061
-582,065	97,600	0,074	0,062
-581,050	800,000	-0,034	-0,089
-580,036	233,928	0,054	0,065
-579,021	-200,000	0,006	-0,031
-578,006	-65,061	-0,150	-0,044
-576,992	800,000	-0,012	0,029
-575,977	-29,896	0,071	0,029
-574,963	529,786	-0,058	0,101
-573,948	219,420	-0,093	0,109
-572,934	117,542	-0,009	0,008
-571,919	800,000	-0,053	-0,115
-570,904	107,230	0,058	0,051
-569,890	-200,000	0,042	0,147
-568,875	-140,427	0,115	0,009
-567,861	-102,622	-0,062	0,011
-566,846	468,099	-0,069	0,114
-565,831	-200,000	0,001	0,036
-564,817	66,915	0,070	-0,052
-563,802	-69,126	-0,053	-0,015
-562,788	-200,000	0,007	-0,089
-561,773	571,577	-0,035	0,063
-560,758	-200,000	0,016	0,057
-559,744	800,000	0,045	0,094
-558,729	-200,000	0,001	0,008
-557,715	-114,117	0,065	-0,009
-556,700	111,036	-0,072	-0,063
-555,685	-55,256	-0,122	0,040
-554,671	-200,000	0,012	-0,050
-553,656	-137,472	-0,042	-0,003
-552,642	-200,000	-0,005	-0,167
-551,627	-76,711	-0,127	0,032
-550,612	110,231	-0,108	-0,095
-549,598	-200,000	0,003	-0,070
-548,583	-56,729	-0,117	0,038
-547,569	-168,927	0,068	0,002
-546,554	-200,000	0,002	0,081
-545,539	-200,000	0,031	0,109
-544,525	224,515	0,043	-0,051
-543,510	768,515	0,007	-0,014
-542,496	585,231	-0,027	-0,050
-541,481	-136,070	-0,065	0,005
-540,466	32,230	-0,070	0,044
-539,452	-33,109	-0,112	-0,045
-538,437	62,135	0,086	0,062
-537,423	-18,712	-0,054	-0,025
-536,408	800,000	0,031	-0,066
-535,393	-146,504	-0,035	-0,002
-534,379	-200,000	0,002	0,087
-533,364	-17,121	-0,015	0,007
-532,350	434,974	-0,025	-0,039
-531,335	-200,000	0,005	0,184
-530,321	-102,012	0,121	-0,021
-529,306	-200,000	-0,001	0,069
-528,291	261,506	-0,125	-0,159
-527,277	-21,485	-0,158	-0,070
-526,262	-53,334	-0,105	-0,035
-525,248	-80,890	0,061	-0,015
-524,233	800,000	0,079	0,166
-523,218	-200,000	-0,012	0,129
-522,204	125,029	-0,169	0,156
-521,189	-200,000	0,011	-0,078
-520,175	429,029	0,052	-0,082
-519,160	-84,763	-0,065	0,015
-518,145	122,828	0,108	0,098
-517,131	-103,644	-0,041	0,007
-516,116	109,465	-0,038	0,034
-515,102	-88,694	0,179	0,039
-514,087	174,950	-0,066	0,069
-513,072	695,500	0,024	-0,045
-512,058	169,202	0,068	-0,070
-511,043	624,292	0,013	-0,024
-510,029	-38,932	0,063	0,024
-509,014	199,286	-0,016	-0,018
-507,999	301,635	0,008	0,011
-506,985	-200,000	0,000	-0,050
-505,970	-43,477	-0,161	0,059
-504,956	-130,131	0,036	-0,004
-503,941	-200,000	0,013	-0,128
-502,926	-63,701	0,095	0,028
-501,912	787,121	-0,075	-0,151
-500,897	-152,721	-0,102	-0,005
-499,883	-82,412	-0,174	-0,041
-498,868	-51,532	-0,177	-0,060
-497,853	106,864	0,061	0,053
-496,839	-166,040	0,074	0,002
-495,824	-23,413	0,164	0,072
-494,810	18,577	-0,095	0,055
-493,795	-200,000	0,009	-0,118
-492,781	-200,000	-0,010	-0,095
-491,766	-126,123	0,041	0,004
-490,751	-200,000	-0,015	-0,080
-489,737	431,281	0,031	-0,049
-488,722	249,993	0,052	0,065
-487,708	-200,000	-0,024	0,080
-486,693	-200,000	0,007	0,129
-485,678	-200,000	-0,045	0,168
-484,664	362,758	0,008	-0,012
-483,649	-7,329	0,037	-0,018
-482,635	-200,000	0,007	-0,045
-481,620	-79,690	0,164	0,040
-480,605	264,255	0,108	0,137
-479,591	-51,222	0,053	0,018
-478,576	127,881	-0,069	-0,064
-477,562	19,701	-0,174	-0,102
-476,547	151,238	-0,040	-0,039
-475,532	-200,000	0,018	0,078
-474,518	-77,310	-0,244	-0,061
-473,503	172,050	0,087	0,091
-472,489	212,147	-0,047	-0,054
-471,474	-200,000	-0,017	-0,107
-470,459	800,000	-0,031	-0,062
-469,445	87,151	-0,054	0,043
-468,430	-200,000	-0,006	-0,149
-467,416	248,298	0,103	-0,127
-466,401	0,706	-0,039	-0,020
-465,386	578,601	-0,005	-0,010
-464,372	255,553	0,075	0,094
-463,357	-65,975	-0,144	-0,042
-462,343	800,000	0,036	-0,090
-461,328	-200,000	0,003	0,043
-460,313	164,206	-0,063	0,065
-459,299	-96,529	0,117	0,022
-458,284	-113,006	0,209	0,030
-457,270	-200,000	-0,002	0,016
-456,255	155,339	0,042	-0,042
-455,241	165,414	-0,061	0,063
-454,226	-64,539	0,021	0,006
-453,211	800,000	0,024	0,061
-452,197	330,302	0,059	0,083
-451,182	647,936	0,050	0,094
-450,168	-200,000	0,042	0,146
-449,153	53,290	-0,039	-0,027
-448,138	-66,063	-0,052	0,015
-447,124	-200,000	-0,032	-0,125
-446,109	-200,000	-0,005	-0,113
-445,095	-58,342	0,126	-0,040
-444,080	528,172	0,025	-0,043
-443,065	405,882	-0,057	-0,088
-442,051	-141,890	0,102	0,007
-441,036	-200,000	-0,017	-0,087
-440,022	258,895	-0,084	-0,105
-439,007	800,000	0,041	0,111
-437,992	176,582	0,051	-0,054
-436,978	90,208	-0,075	0,061
-435,963	437,258	-0,067	0,106
-434,949	800,000	-0,046	0,095
-433,934	184,581	-0,076	-0,082
-432,919	-200,000	-0,011	-0,132
-431,905	340,942	0,050	0,071
-430,890	800,000	0,017	-0,040
-429,876	-200,000	-0,013	-0,042
-428,861	209,176	0,081	-0,093
-427,846	193,052	-0,130	-0,143
-426,832	69,680	-0,133	-0,100
-425,817	-200,000	0,021	-0,116
-424,803	270,920	-0,030	-0,039
-423,788	-200,000	0,002	0,124
-422,773	-200,000	-0,016	-0,080
-421,759	94,978	0,065	0,054
-420,744	332,726	-0,046	0,065
-419,730	-12,757	0,064	-0,030
-418,715	-66,766	-0,052	-0,015
-417,701	-200,000	0,043	-0,164
-416,686	187,825	-0,058	-0,063
-415,671	-86,484	-0,014	0,003
-414,657	680,537	0,013	0,025
-413,642	-108,631	-0,043	0,007
-412,628	46,118	-0,040	0,027
-411,613	-200,000	-0,018	0,067
-410,598	185,566	-0,029	-0,031
-409,584	81,874	0,165	0,130
-408,569	106,270	0,115	0,099
-407,555	-200,000	-0,029	-0,113
-406,540	57,166	-0,058	0,041
-405,525	226,320	-0,034	-0,040
-404,511	800,000	-0,069	-0,165
-403,496	-200,000	-0,001	-0,012
-402,482	688,879	-0,010	-0,020
-401,467	-88,257	0,052	-0,011
-400,452	-200,000	-0,034	0,136
-399,438	15,575	-0,086	-0,049
-398,423	-200,000	0,009	0,072
-397,409	507,637	-0,079	-0,134
-396,394	800,000	-0,014	0,041
-395,379	124,561	0,018	-0,017
-394,365	-200,000	0,026	0,115
-393,350	671,080	-0,049	0,093
-392,336	440,588	0,058	0,093
-391,321	57,266	0,025	-0,018
-390,306	111,497	0,011	-0,010
-389,292	-200,000	0,003	0,031
-388,277	-135,409	0,093	-0,008
-387,263	-200,000	0,016	-0,054
-386,248	-200,000	-0,006	0,041
-385,233	116,277	0,056	0,050
-384,219	-55,312	-0,060	0,019
-383,204	-28,592	-0,034	0,014
-382,190	-200,000	-0,018	0,094
-381,175	111,251	-0,034	0,029
-380,160	-200,000	-0,005	-0,028
-379,146	-56,847	-0,041	-0,013
-378,131	-95,111	0,099	0,019
-377,117	-55,787	0,133	0,043
-376,102	800,000	0,022	-0,047
-375,088	89,100	-0,053	0,043
-374,073	132,178	0,110	-0,103
-373,058	-200,000	-0,005	-0,071
-372,044	122,433	0,075	0,069
-371,029	800,000	-0,015	-0,041
-370,015	800,000	-0,015	-0,042
-369,000	-200,000	0,006	-0,057
-367,985	123,935	0,024	-0,022
-366,971	45,754	-0,084	0,057
-365,956	-153,496	-0,121	0,006
-364,942	77,543	0,071	0,055
-363,927	-200,000	-0,003	0,160
-362,912	351,508	0,010	0,015
-361,898	430,745	-0,071	0,111
-360,883	89,660	0,093	-0,075
-359,869	-96,016	0,042	0,008
-358,854	-200,000	0,013	0,061
-357,839	-55,923	0,078	0,025
-356,825	-200,000	-0,001	0,073
-355,810	506,619	-0,063	-0,106
-354,796	-200,000	-0,012	-0,063
-353,781	39,030	0,065	0,042
-352,766	352,076	0,016	-0,022
-351,752	-150,801	-0,095	-0,005
-350,737	-200,000	0,012	0,049
-349,723	-40,697	-0,081	0,030
-348,708	800,000	-0,022	-0,060
-347,693	-105,104	-0,036	0,006
-346,679	-115,625	-0,108	-0,015
-345,664	800,000	0,033	-0,086
-344,650	-64,603	0,066	-0,019
-343,635	-45,840	-0,030	-0,011
-342,620	-45,489	0,133	0,048
-341,606	183,856	-0,059	-0,064
-340,591	-94,265	-0,058	0,011
-339,577	-200,000	0,014	-0,088
-338,562	292,383	0,056	0,075
-337,548	135,121	0,062	-0,059
-336,533	59,082	0,102	0,073
-335,518	-92,088	0,021	0,004
-334,504	684,601	0,087	0,166
-333,489	-107,183	-0,008	0,001
-332,475	-47,155	0,048	-0,017
-331,460	-92,791	-0,169	0,034
-330,445	72,613	0,160	-0,121
-329,431	205,809	0,020	-0,023
-328,416	237,539	0,052	-0,063
-327,402	800,000	0,028	0,057
-326,387	104,264	-0,071	-0,060
-325,372	389,622	0,049	-0,074
-324,358	319,137	0,043	0,060
-323,343	233,156	0,059	0,071
-322,329	79,715	-0,121	0,094
-321,314	-84,060	0,138	0,032
-320,299	-9,287	0,167	-0,081
-319,285	-60,577	-0,014	0,004
-318,270	5,189	-0,032	0,017
-317,256	800,000	-0,006	-0,013
-316,241	800,000	0,032	-0,088
-315,226	-116,806	0,108	0,014
-314,212	44,470	0,016	-0,011
-313,197	647,343	0,063	-0,117
-312,183	-200,000	-0,008	-0,062
-311,168	649,138	-0,044	-0,081
-310,153	800,000	-0,017	0,034
-309,139	-200,000	-0,016	-0,053
-308,124	166,293	0,123	0,126
-307,110	-30,123	0,173	-0,071
-306,095	800,000	-0,022	-0,068
-305,080	-200,000	-0,005	-0,157
-304,066	-131,312	0,088	-0,008
-303,051	-41,430	-0,105	-0,039
-302,037	800,000	-0,045	-0,094
-301,022	-199,468	-0,079	-0,000
-300,008	3,055	0,045	-0,023
-298,993	373,646	-0,036	-0,054
-297,978	-200,000	-0,074	0,000
-296,964	-118,294	0,103	-0,013
-295,949	-112,388	-0,099	-0,014
-294,935	-200,000	-0,003	-0,042
-293,920	654,567	0,050	-0,094
-292,905	800,000	-0,022	0,048
-291,891	-8,350	0,094	-0,046
-290,876	-83,283	0,057	-0,013
-289,862	75,686	-0,101	-0,077
-288,847	24,099	0,070	-0,042
-287,832	25,195	-0,143	-0,086
-286,818	800,000	0,052	-0,148
-285,803	382,337	-0,070	-0,105
-284,789	62,430	-0,008	0,006
-283,774	219,633	-0,096	-0,112
-282,759	175,511	-0,046	0,049
-281,745	171,351	-0,026	-0,027
-280,730	-144,177	0,140	0,009
-279,716	-49,691	-0,049	0,017
-278,701	-95,190	-0,063	-0,012
-277,686	800,000	0,018	0,054
-276,672	800,000	-0,037	0,078
-275,657	-200,000	0,031	0,157
-274,643	-200,000	-0,017	0,126
-273,628	137,772	0,104	-0,098
-272,613	-200,000	0,005	-0,083
-271,599	800,000	-0,048	0,126
-270,584	277,916	0,065	0,084
-269,570	-58,639	-0,055	-0,017
-268,555	79,069	0,175	0,135
-267,540	800,000	0,013	-0,042
-266,526	-24,014	0,024	-0,010
-265,511	13,565	0,047	-0,026
-264,497	536,996	0,042	-0,073
-263,482	80,426	0,134	-0,105
-262,467	-122,000	0,196	0,023
-261,453	-200,000	-0,019	0,162
-260,438	187,209	-0,027	0,029
-259,424	218,099	-0,090	-0,104
-258,409	150,883	-0,020	-0,020
-257,395	-200,000	0,005	0,033
-256,380	-55,203	0,052	0,017
-255,365	-181,832	0,095	0,001
-254,351	194,870	-0,051	0,056
-253,336	-103,570	0,071	-0,012
-252,322	324,039	-0,039	-0,054
-251,307	800,000	-0,020	-0,040
-250,292	-44,217	0,082	-0,030
-249,278	624,048	-0,027	0,050
-248,263	-86,720	0,059	-0,013
-247,249	197,679	-0,039	0,043
-246,234	800,000	0,057	0,134
-245,219	800,000	0,045	-0,125
-244,205	-127,844	-0,102	0,011
-243,190	800,000	0,032	-0,084
-242,176	407,920	-0,048	0,073
-241,161	183,704	0,042	0,045
-240,146	800,000	-0,049	0,108
-239,132	-200,000	0,023	-0,151
-238,117	-42,506	-0,143	-0,052
-237,103	-185,987	-0,084	-0,001
-236,088	-108,341	-0,084	0,013
-235,073	367,233	0,084	0,123
-234,059	-200,000	0,001	-0,013
-233,044	115,745	0,085	0,075
-232,030	-200,000	0,006	-0,051
-231,015	106,638	-0,028	-0,024
-230,000	-66,323	0,039	0,011
-228,986	337,899	-0,065	0,092
-227,971	-200,000	0,013	0,078
-226,957	6,716	0,093	0,050
-225,942	800,000	-0,049	-0,120
-224,927	572,581	-0,004	0,007
-223,913	-19,376	0,046	-0,021
-222,898	21,307	-0,104	-0,061
-221,884	-87,684	0,150	0,032
-220,869	488,395	0,063	0,104
-219,855	-10,469	-0,091	0,043
-218,840	290,278	0,108	0,142
-217,825	25,913	-0,079	0,048
-216,811	-200,000	0,012	-0,070
-215,796	-184,725	0,121	-0,001
-214,782	-200,000	0,016	-0,057
-213,767	-99,276	0,076	-0,014
-212,752	-200,000	-0,013	-0,089
-211,738	384,892	0,020	0,029
-210,723	-200,000	-0,002	-0,008
-209,709	158,973	-0,071	0,072
-208,694	107,939	0,073	-0,063
-207,679	800,000	-0,092	-0,221
-206,665	-200,000	0,012	-0,048
-205,650	-200,000	0,033	-0,143
-204,636	800,000	-0,025	0,058
-203,621	800,000	0,019	0,045
-202,606	-200,000	-0,005	0,021
-201,592	344,018	0,034	0,049
-200,577	800,000	-0,016	0,051
-199,563	-200,000	-0,024	0,102
-198,548	-34,543	0,121	0,048
-197,533	-200,000	-0,019	-0,092
-196,519	534,305	-0,078	0,134
-195,504	420,105	0,061	-0,094
-194,490	286,186	-0,059	-0,077
-193,475	147,897	0,044	-0,043
-192,460	-60,310	-0,074	0,023
-191,446	-200,000	-0,020	0,168
-190,431	-130,836	0,089	-0,009
-189,417	-61,378	-0,141	-0,043
-188,402	219,871	-0,051	-0,059
-187,387	111,728	0,051	-0,044
-186,373	248,418	0,057	-0,070
-185,358	249,704	-0,031	0,038
-184,344	800,000	-0,038	0,088
-183,329	800,000	-0,076	0,154
-182,315	-200,000	0,028	0,101
-181,300	800,000	-0,041	0,114
-180,285	455,895	-0,027	0,043
-179,271	-200,000	0,010	0,031
-178,256	-138,292	0,056	0,004
-177,242	-160,413	0,109	0,004
-176,227	-200,000	-0,025	0,104
-175,212	800,000	-0,030	-0,067
-174,198	-59,342	-0,049	-0,015
-173,183	-200,000	-0,029	-0,098
-172,169	5,221	-0,069	-0,036
-171,154	613,918	0,041	-0,074
-170,139	-200,000	0,003	0,062
-169,125	800,000	0,023	0,069
-168,110	-200,000	0,002	0,016
-167,096	8,249	-0,138	-0,074
-166,081	137,684	0,082	-0,078
-165,066	-78,300	-0,072	-0,018
-164,052	-200,000	0,010	-0,076
-163,037	88,848	-0,048	-0,038
-162,023	159,630	0,090	0,091
-161,008	-200,000	-0,013	0,043
-159,993	-200,000	-0,009	0,120
-158,979	52,534	-0,040	-0,028
-157,964	-200,000	0,002	0,056
-156,950	800,000	0,034	0,072
-155,935	-129,402	-0,028	0,003
-154,920	-200,000	0,041	0,234
-153,906	-31,269	0,058	0,024
-152,891	540,905	0,033	-0,056
-151,877	136,790	0,052	-0,049
-150,862	-162,694	-0,061	-0,002
-149,847	800,000	0,013	-0,032
-148,833	30,937	0,033	0,020
-147,818	-10,965	0,137	-0,065
-146,804	619,952	0,076	-0,139
-145,789	94,471	-0,127	-0,103
-144,775	144,591	0,023	0,022
-143,760	14,098	-0,083	0,047
-142,745	178,999	0,060	0,063
-141,731	-82,904	0,018	-0,004
-140,716	-163,230	0,042	0,001
-139,702	-41,751	-0,032	-0,012
-138,687	211,407	-0,084	0,095
-137,672	90,703	-0,055	0,044
-136,658	-120,663	-0,157	0,019
-135,643	339,896	0,035	0,049
-134,629	-200,000	0,019	-0,065
-133,614	359,240	-0,076	0,109
-132,599	-9,250	0,073	0,035
-131,585	264,255	-0,093	0,117
-130,570	-200,000	-0,017	-0,079
-129,556	-200,000	-0,026	-0,108
-128,541	-200,000	0,001	0,139
-127,526	-200,000	-0,012	-0,045
-126,512	294,181	0,049	-0,064
-125,497	318,367	0,084	0,114
-124,483	112,259	-0,024	-0,021
-123,468	269,148	0,048	-0,061
-122,453	94,610	0,140	-0,115
-121,439	183,207	-0,080	-0,086
-120,424	-5,479	0,055	-0,027
-119,410	-200,000	0,006	-0,154
-118,395	53,523	0,058	0,040
-117,380	-81,884	0,036	0,008
-116,366	-200,000	-0,018	-0,068
-115,351	-55,997	-0,069	0,022
-114,337	-148,569	-0,085	-0,005
-113,322	-200,000	-0,007	0,126
-112,307	-31,274	-0,043	0,018
-111,293	-200,000	0,032	0,170
-110,278	224,576	0,017	0,020
-109,264	-79,501	0,036	0,009
-108,249	761,008	0,054	-0,105
-107,234	273,045	-0,022	0,027
-106,220	16,895	0,084	0,048
-105,205	800,000	0,062	0,179
-104,191	-142,785	-0,067	-0,005
-103,176	-200,000	0,023	0,122
-102,162	78,764	0,007	0,006
-101,147	60,579	-0,100	-0,071
-100,132	66,580	-0,075	0,054
-99,118	-200,000	-0,002	-0,041
-98,103	-5,332	0,026	0,013
-97,089	6,342	-0,092	-0,049
-96,074	-135,108	0,107	0,009
-95,059	-14,288	0,069	0,032
-94,045	754,187	0,026	0,050
-93,030	86,595	0,066	-0,052
-92,016	-36,443	-0,085	0,033
-91,001	-200,000	-0,005	-0,081
-89,986	-171,142	0,042	0,001
-88,972	-28,136	0,070	0,029
-87,957	800,000	0,057	0,137
-86,943	25,125	0,045	-0,027
-85,928	-113,458	-0,034	-0,005
-84,913	189,540	0,098	-0,106
-83,899	800,000	0,026	0,066
-82,884	-196,048	0,068	-0,000
-81,870	464,336	0,080	0,129
-80,855	-180,849	-0,015	0,000
-79,840	-60,155	-0,019	-0,006
-78,826	415,024	-0,077	-0,119
-77,811	-14,064	0,055	0,025
-76,797	-47,742	0,044	-0,015
-75,782	-31,768	-0,050	-0,020
-74,767	-27,211	0,066	-0,027
-73,753	-200,000	-0,002	-0,051
-72,738	503,039	0,019	0,032
-71,724	100,004	0,086	-0,072
-70,709	-12,808	-0,075	-0,035
-69,694	-200,000	-0,015	-0,131
-68,680	494,224	-0,091	0,150
-67,665	-91,903	-0,120	0,024
-66,651	175,763	0,022	-0,023
-65,636	800,000	-0,091	0,200
-64,622	-200,000	0,002	-0,152
-63,607	270,365	0,031	0,039
-62,592	8,390	-0,035	-0,019
-61,578	-152,436	-0,092	0,005
-60,563	-200,000	0,141	0,000
-59,549	132,556	0,045	0,042
-58,534	15,274	-2,022	-1,135
-57,519	-200,000	-0,206	-0,926
-56,505	-200,000	-1,202	-4,949
-55,490	18,716	0,878	0,503
-54,476	800,000	5,288	11,938
-53,461	-200,000	17,827	290,289
-52,446	800,000	726,206	2231,467
-51,432	537,556	1639,141	2805,452
-50,417	109,840	1629,458	1402,060
-49,403	73,413	1283,581	963,010
-48,388	31,629	1026,445	632,070
-47,373	19,955	988,436	570,203
-46,359	18,288	976,566	557,872
-45,344	15,578	972,604	546,727
-44,330	15,776	971,098	546,505
-43,315	15,359	969,292	544,106
-42,300	15,328	968,197	543,370
-41,286	15,304	967,214	542,718
-40,271	15,230	966,286	541,934
-39,257	15,267	965,237	541,446
-38,242	15,320	964,434	541,146
-37,227	15,317	963,669	540,685
-36,213	15,272	962,926	540,099
-35,198	15,231	961,845	539,339
-34,184	15,264	961,230	539,080
-33,169	15,265	960,172	538,468
-32,154	15,351	959,190	538,176
-31,140	15,287	958,501	537,561
-30,125	15,324	957,661	537,187
-29,111	15,267	956,896	536,551
-28,096	15,288	956,355	536,295
-27,082	15,294	955,668	535,909
-26,067	15,300	954,673	535,347
-25,052	15,285	954,055	534,932
-24,038	15,241	953,471	534,444
-23,023	15,266	952,742	534,094
-22,009	15,283	952,139	533,789
-20,994	15,269	951,601	533,421
-19,979	15,320	950,690	533,052
-18,965	15,279	950,198	532,625
-17,950	15,306	949,526	532,314
-16,936	15,275	948,792	531,779
-15,921	15,217	948,339	531,319
-14,906	15,198	947,578	530,813
-13,892	15,213	946,764	530,382
-12,877	15,190	946,109	529,924
-11,863	15,136	945,557	529,421
-10,848	15,129	945,190	529,171
-9,833	15,311	944,634	529,418
-8,819	15,208	944,037	528,735
-7,804	15,154	943,491	528,236
-6,790	15,150	942,927	527,886
-5,775	15,182	942,253	527,592
-4,760	15,204	941,610	527,278
-3,746	15,234	940,855	526,932
-2,731	15,057	940,432	526,113
-1,717	15,013	939,600	525,487
-0,702	15,009	939,068	525,158
0,313	14,811	938,406	524,954
1,327	18,267	936,275	534,594
2,342	27,401	789,961	475,111
3,356	23,892	444,508	262,125
4,371	-5,570	294,920	144,522
5,386	-9,681	276,494	131,594
6,400	-10,823	270,777	127,803
7,415	-11,159	268,542	126,428
8,429	-11,017	267,082	125,859
9,444	-11,186	266,293	125,322
10,459	-10,952	265,583	125,189
11,473	-11,266	264,925	124,584
12,488	-11,234	264,495	124,400
13,502	-11,428	263,906	123,936
14,517	-11,328	263,521	123,834
15,531	-11,284	263,161	123,693
16,546	-11,165	262,729	123,586
17,561	-11,241	262,463	123,382
18,575	-11,036	262,050	123,361
19,590	-11,282	261,848	123,035
20,604	-10,988	261,245	123,003
21,619	-11,214	260,958	122,655
22,634	-11,151	260,776	122,615
23,648	-11,330	260,443	122,288
24,663	-11,067	260,067	122,334
25,677	-11,220	259,906	122,112
26,692	-11,350	259,642	121,862
27,707	-11,364	259,373	121,712
28,721	-11,366	259,058	121,551
29,736	-11,438	258,879	121,393
30,750	-11,205	258,468	121,395
31,765	-11,471	258,340	121,090
32,780	-11,343	258,192	121,122
33,794	-11,193	257,951	121,131
34,809	-11,209	257,618	120,949
35,823	-11,312	257,330	120,713
36,838	-11,299	257,101	120,606
37,853	-11,319	256,840	120,455
38,867	-11,381	256,702	120,326
39,882	-11,354	256,351	120,174
40,896	-11,322	256,159	120,101
41,911	-11,517	255,900	119,798
42,926	-11,497	255,788	119,753
43,940	-11,489	255,337	119,538
44,955	-11,422	255,264	119,551
45,969	-11,275	254,852	119,476
46,984	-11,650	254,744	119,088
47,999	-11,933	254,418	118,679
49,013	-12,168	254,284	118,403
50,028	-12,210	253,937	118,194
51,042	-12,210	253,646	118,048
52,057	-12,215	253,383	117,911
53,071	-12,049	253,202	117,959
54,086	-12,049	253,117	117,909
55,101	-12,058	252,969	117,822
56,115	-11,980	252,993	117,890
57,130	-11,274	252,688	118,346
58,144	-11,050	252,439	118,412
59,159	-10,970	252,435	118,468
60,174	-11,141	252,204	118,202
61,188	-11,128	251,988	118,101
62,203	-11,054	251,677	118,008
63,217	-11,250	251,566	117,778
64,232	-11,175	251,229	117,673
65,247	-11,225	251,063	117,543
66,261	-11,246	250,684	117,337
67,276	-11,388	250,745	117,234
68,290	-11,590	250,131	116,764
69,305	-11,837	250,120	116,538
70,320	-11,609	249,797	116,571
71,334	-11,403	249,667	116,675
72,349	-11,184	249,563	116,802
73,363	-11,114	249,387	116,769
74,378	-11,040	249,194	116,731
75,393	-11,331	249,046	116,404
76,407	-11,469	248,772	116,150
77,422	-11,154	248,581	116,316
78,436	-11,239	248,382	116,141
79,451	-11,284	248,231	116,022
80,466	-11,346	247,855	115,783
81,480	-11,452	247,598	115,564
82,495	-11,704	247,670	115,374
83,509	-11,668	247,454	115,294
84,524	-11,698	247,077	115,083
85,539	-11,695	246,827	114,959
86,553	-11,725	246,654	114,843
87,568	-11,564	246,593	114,939
88,582	-11,592	246,206	114,725
89,597	-11,613	246,301	114,741
90,611	-11,475	246,035	114,723
91,626	-11,273	245,917	114,827
92,641	-11,471	245,614	114,509
93,655	-11,447	245,420	114,429
94,670	-11,358	245,271	114,424
95,684	-11,433	245,114	114,278
96,699	-11,382	244,836	114,180
97,714	-11,475	244,633	113,998
98,728	-11,894	244,398	113,530
99,743	-11,564	244,246	113,723
100,757	-11,706	243,906	113,437
101,772	-11,426	243,673	113,551
102,787	-11,655	243,751	113,387
103,801	-11,612	243,610	113,347
104,816	-11,429	243,378	113,380
105,830	-11,249	243,238	113,453
106,845	-11,264	243,102	113,368
107,860	-11,119	242,825	113,348
108,874	-11,335	242,719	113,110
109,889	-11,563	242,476	112,800
110,903	-11,498	242,208	112,718
111,918	-11,706	241,973	112,428
112,933	-11,635	241,873	112,430
113,947	-11,455	241,731	112,501
114,962	-11,382	241,612	112,496
115,976	-11,240	241,366	112,488
116,991	-11,472	241,148	112,186
118,006	-11,445	241,110	112,181
119,020	-11,503	240,952	112,049
120,035	-11,273	240,774	112,145
121,049	-11,248	240,573	112,061
122,064	-11,209	240,326	111,968
123,079	-11,512	240,241	111,672
124,093	-11,531	240,012	111,540
125,108	-11,730	239,648	111,199
126,122	-11,837	239,502	111,035
127,137	-11,787	239,269	110,957
128,151	-11,653	239,241	111,043
129,166	-11,739	238,992	110,848
130,181	-12,003	238,775	110,524
131,195	-11,698	238,643	110,699
132,210	-11,633	238,558	110,702
133,224	-11,388	238,288	110,766
134,239	-11,498	238,303	110,673
135,254	-11,328	238,095	110,704
136,268	-11,409	237,734	110,461
137,283	-11,784	237,415	110,002
138,297	-11,859	237,411	109,930
139,312	-11,914	237,148	109,754
140,327	-11,368	237,009	110,118
141,341	-11,152	236,974	110,265
142,356	-11,189	236,885	110,184
143,370	-11,035	236,629	110,178
144,385	-10,897	236,467	110,204
145,400	-11,074	236,383	110,013
146,414	-11,079	236,294	109,958
147,429	-11,213	236,005	109,707
148,443	-11,217	235,946	109,666
149,458	-11,044	235,570	109,619
150,473	-11,092	235,473	109,526
151,487	-11,113	235,273	109,407
152,502	-11,043	235,183	109,411
153,516	-11,029	235,058	109,355
154,531	-11,168	234,828	109,127
155,546	-11,321	234,791	108,979
156,560	-11,303	234,476	108,837
157,575	-11,443	234,246	108,610
158,589	-11,221	234,003	108,663
159,604	-11,188	234,129	108,737
160,619	-10,888	233,849	108,835
161,633	-10,941	233,717	108,722
162,648	-10,764	233,501	108,751
163,662	-11,169	233,413	108,382
164,677	-11,120	233,263	108,341
165,692	-11,050	232,978	108,254
166,706	-10,720	232,880	108,459
167,721	-10,747	232,608	108,301
168,735	-10,610	232,578	108,385
169,750	-10,869	232,559	108,163
170,764	-11,043	232,428	107,956
171,779	-11,232	232,255	107,717
172,794	-10,787	232,009	107,942
173,808	-11,236	231,816	107,492
174,823	-11,511	231,371	107,061
175,837	-11,652	231,273	106,896
176,852	-11,288	231,289	107,178
177,867	-11,033	231,231	107,341
178,881	-11,184	231,133	107,168
179,896	-10,824	230,929	107,344
180,910	-10,949	230,752	107,155
181,925	-10,942	230,522	107,044
182,940	-10,969	230,491	106,999
183,954	-10,797	230,290	107,030
184,969	-10,859	230,251	106,954
185,983	-10,897	230,064	106,828
186,998	-10,672	229,775	106,859
188,013	-10,841	229,703	106,685
189,027	-11,016	229,677	106,528
190,042	-10,785	229,447	106,590
191,056	-10,900	229,236	106,393
192,071	-10,859	228,941	106,279
193,086	-10,949	228,930	106,195
194,100	-10,675	228,687	106,284
195,115	-11,229	228,286	105,662
196,129	-11,290	228,373	105,646
197,144	-5,948	230,188	110,612
198,159	-0,102	231,935	115,990
199,173	3,197	232,512	118,834
200,188	3,275	232,543	118,899
201,202	3,410	232,423	118,932
202,217	3,726	232,171	119,037
203,232	3,869	232,267	119,187
204,246	3,657	232,108	118,931
205,261	3,825	231,996	118,992
206,275	3,817	231,892	118,923
207,290	3,963	231,687	118,920
208,304	3,916	231,677	118,868
209,319	4,038	231,434	118,827
210,334	3,812	231,047	118,443
211,348	3,738	230,984	118,343
212,363	3,328	230,601	117,821
213,377	3,226	230,501	117,681
214,392	3,148	230,399	117,558
215,407	3,342	230,152	117,570
216,421	3,502	230,143	117,678
217,436	3,182	230,023	117,361
218,450	3,012	229,583	116,996
219,465	3,103	229,435	116,980
220,480	3,029	229,415	116,903
221,494	2,967	229,315	116,794
222,509	3,313	229,177	116,977
223,523	3,305	228,945	116,843
224,538	3,218	228,795	116,689
225,553	3,178	228,694	116,597
226,567	3,309	228,730	116,704
227,582	3,406	228,590	116,696
228,596	3,514	228,386	116,664
229,611	3,306	228,181	116,391
230,626	2,938	227,951	115,984
231,640	3,082	227,835	116,024
232,655	3,326	227,724	116,142
233,669	3,649	227,733	116,381
234,684	3,745	227,568	116,359
235,699	3,714	227,293	116,185
236,713	3,390	227,137	115,849
237,728	3,096	227,140	115,618
238,742	2,933	226,732	115,277
239,757	3,266	226,535	115,418
240,772	3,163	226,504	115,314
241,786	2,891	226,422	115,057
242,801	3,199	226,275	115,204
243,815	3,456	226,248	115,374
244,830	3,591	225,996	115,337
245,844	3,269	225,792	114,981
246,859	3,157	225,607	114,792
247,874	3,503	225,565	115,020
248,888	3,509	225,359	114,909
249,903	3,476	225,141	114,763
250,917	3,407	225,102	114,681
251,932	3,206	224,943	114,440
252,947	3,050	224,835	114,258
253,961	3,083	224,548	114,126
254,976	3,202	224,362	114,110
255,990	3,628	224,288	114,380
257,005	3,242	224,260	114,068
258,020	3,474	224,023	114,110
259,034	3,675	223,993	114,234
260,049	3,444	223,867	113,988
261,063	3,310	223,763	113,825
262,078	3,343	223,617	113,765
263,093	3,444	223,472	113,756
264,107	3,612	223,167	113,716
265,122	3,448	223,154	113,577
266,136	3,679	223,093	113,707
267,151	3,746	222,809	113,602
268,166	3,273	222,561	113,115
269,180	2,878	222,353	112,708
270,195	3,065	222,199	112,758
271,209	2,950	222,114	112,620
272,224	3,156	221,995	112,702
273,239	3,367	221,940	112,818
274,253	3,149	221,707	112,530
275,268	3,062	221,426	112,313
276,282	2,995	221,319	112,200
277,297	2,891	221,119	112,012
278,312	3,081	221,083	112,123
279,326	3,176	221,087	112,185
280,341	3,319	220,812	112,140
281,355	3,110	220,788	111,965
282,370	3,047	220,675	111,852
283,384	3,003	220,209	111,573
284,399	2,941	220,156	111,491
285,414	2,955	220,087	111,457
286,428	3,182	220,087	111,612
287,443	3,368	219,832	111,608
288,457	3,179	219,867	111,478
289,472	2,959	219,593	111,169
290,487	2,716	219,409	110,890
291,501	2,740	219,106	110,744
292,516	2,910	219,038	110,824
293,530	2,906	219,030	110,807
294,545	2,853	218,898	110,691
295,560	2,898	218,609	110,568
296,574	3,044	218,723	110,722
297,589	2,875	218,462	110,457
298,603	3,177	218,432	110,651
299,618	3,071	218,166	110,430
300,633	3,110	218,079	110,404
301,647	3,457	218,007	110,608
302,662	3,445	217,866	110,518
303,676	3,105	217,786	110,222
304,691	3,352	217,596	110,295
305,706	3,473	217,398	110,272
306,720	3,492	217,242	110,196
307,735	3,179	217,094	109,886
308,749	3,031	217,063	109,754
309,764	3,142	216,849	109,716
310,779	3,287	216,794	109,782
311,793	3,421	216,598	109,770
312,808	3,029	216,448	109,403
313,822	3,046	216,227	109,294
314,837	3,130	216,160	109,310
315,852	2,896	215,843	108,973
316,866	3,113	215,787	109,090
317,881	3,312	215,768	109,213
318,895	3,269	215,720	109,148
319,910	3,152	215,391	108,888
320,925	2,973	215,122	108,615
321,939	2,558	214,940	108,219
322,954	2,795	215,094	108,455
323,968	3,180	214,957	108,650
324,983	3,093	214,954	108,577
325,997	3,276	214,652	108,544
327,012	3,215	214,390	108,359
328,027	2,834	214,464	108,117
329,041	3,432	214,393	108,495
330,056	3,426	214,169	108,368
331,070	3,377	213,952	108,213
332,085	3,074	213,849	107,938
333,100	3,207	213,793	107,994
334,114	3,297	213,679	107,990
335,129	3,275	213,377	107,812
336,143	3,151	213,216	107,634
337,158	3,467	213,161	107,820
338,173	3,220	213,002	107,555
339,187	3,103	212,802	107,363
340,202	2,966	212,622	107,166
341,216	2,836	212,352	106,929
342,231	2,857	212,610	107,064
343,246	2,812	212,338	106,887
344,260	2,774	212,206	106,784
345,275	3,262	212,078	107,051
346,289	3,364	211,994	107,071
347,304	3,149	211,793	106,810
348,319	3,106	211,661	106,703
349,333	3,091	211,447	106,575
350,348	3,018	211,480	106,531
351,362	3,505	211,304	106,773
352,377	3,217	211,158	106,489
353,392	3,511	210,937	106,573
354,406	3,355	210,849	106,410
355,421	194,818	1340,857	1416,259
356,435	155,568	1478,505	1416,221
