DTS Sentinel unit serial number:	SN410029Multiplexer serial number:	ORYXHardware model number:	OX2-SRSoftware version number:	ORYX F/W v4,00 Oryx Data Collector v3.7.2.0data status	okinstallation	B6 Nyhavnadifferential loss correction	single-endedforward channel	channel 2reverse channel	N/Adate	2023/12/09time	01:30:08forward acquisition time	300,00reverse acquisition time	0,00gamma	499,1914k internal	0,3156k external	0,3156temperature offset calibration	1,0000default loss term (dB/km)	0,3820temperature slope calibration	1,0000multiplexer offset coefficient	1,0000multiplexer slope coefficient	1,0000fibre end	0,00T internal ref (°C)	15,78T ext. ref 1 (°C)	-0,56T ext. ref 2 (°C)	-0,57length (m)	temperature (°C)	Stokes	anti-Stokes-744,400	-10,696	0,240	0,116
-743,385	-154,522	-0,245	-0,012
-742,371	-161,589	0,139	0,005
-741,356	-107,881	-0,324	0,052
-740,342	259,447	0,108	0,137
-739,327	-95,753	-0,360	0,070
-738,312	39,836	0,125	0,082
-737,298	-136,160	-0,231	0,020
-736,283	285,451	0,096	0,128
-735,269	-83,842	-0,202	-0,047
-734,254	101,901	0,132	0,114
-733,239	-58,388	-0,659	-0,210
-732,225	-50,203	0,285	0,099
-731,210	46,795	0,052	0,036
-730,196	-66,628	-0,116	0,034
-729,181	-82,916	-0,095	-0,022
-728,167	-200,000	-0,001	-0,013
-727,152	213,802	0,103	-0,120
-726,137	800,000	0,024	-0,077
-725,123	-200,000	-0,017	-0,110
-724,108	-109,567	-0,086	0,013
-723,094	105,899	-0,103	-0,090
-722,079	478,715	-0,057	-0,096
-721,064	-86,339	-0,110	0,025
-720,050	-200,000	-0,012	-0,064
-719,035	-122,991	-0,124	-0,014
-718,021	113,869	-0,043	-0,039
-717,006	-200,000	0,001	-0,122
-715,991	-144,191	-0,112	-0,008
-714,977	102,966	-0,117	-0,101
-713,962	94,088	-0,040	0,033
-712,948	261,197	0,056	-0,071
-711,933	800,000	0,057	-0,143
-710,918	227,328	0,074	0,089
-709,904	92,270	-0,032	-0,026
-708,889	-200,000	0,012	0,048
-707,875	800,000	-0,017	-0,035
-706,860	413,322	-0,008	-0,013
-705,845	-182,363	0,184	0,002
-704,831	24,341	-0,021	-0,013
-703,816	65,530	0,062	-0,046
-702,802	-93,931	-0,104	0,021
-701,787	-17,753	-0,131	-0,060
-700,772	752,095	-0,052	0,105
-699,758	37,741	-0,061	0,039
-698,743	-89,492	0,108	0,023
-697,729	24,798	0,085	-0,052
-696,714	-200,000	0,025	0,086
-695,699	-200,000	0,038	-0,170
-694,685	800,000	-0,087	-0,233
-693,670	531,378	-0,024	0,043
-692,656	336,616	0,064	-0,092
-691,641	204,513	-0,076	0,087
-690,627	275,126	-0,035	0,045
-689,612	718,067	0,037	-0,072
-688,597	42,968	-0,034	0,023
-687,583	-66,247	-0,103	-0,030
-686,568	-110,420	-0,087	0,013
-685,554	-200,000	-0,012	0,100
-684,539	-74,451	-0,068	-0,018
-683,524	-200,000	0,003	-0,028
-682,510	34,855	0,210	0,135
-681,495	142,336	-0,111	0,109
-680,481	-91,571	-0,187	-0,039
-679,466	199,504	0,079	-0,090
-678,451	-24,988	-0,059	-0,025
-677,437	-62,357	-0,005	0,002
-676,422	-200,000	0,021	-0,104
-675,408	-19,416	0,088	0,040
-674,393	-48,912	0,021	-0,007
-673,378	-49,125	-0,041	0,014
-672,364	800,000	0,029	0,093
-671,349	65,444	0,019	0,014
-670,335	-57,758	0,100	-0,032
-669,320	133,855	-0,029	-0,028
-668,305	-137,221	0,071	-0,006
-667,291	68,378	-0,005	-0,004
-666,276	251,824	-0,059	0,075
-665,262	27,969	-0,081	0,050
-664,247	189,835	-0,007	-0,008
-663,232	529,429	0,062	-0,109
-662,218	-200,000	-0,000	0,095
-661,203	-200,000	-0,015	-0,138
-660,189	389,358	0,050	0,076
-659,174	800,000	0,033	-0,080
-658,159	435,823	0,015	-0,024
-657,145	-96,536	-0,149	-0,029
-656,130	194,704	0,041	0,045
-655,116	-200,000	-0,001	0,101
-654,101	-45,684	-0,062	-0,023
-653,086	-6,295	0,045	-0,022
-652,072	651,497	0,061	0,115
-651,057	800,000	-0,071	-0,153
-650,043	-200,000	-0,011	0,046
-649,028	800,000	0,043	-0,092
-648,014	7,394	0,050	-0,027
-646,999	-85,411	-0,134	0,031
-645,984	73,331	-0,018	0,014
-644,970	295,874	-0,061	0,082
-643,955	-110,008	-0,105	0,016
-642,941	407,862	0,037	0,058
-641,926	11,283	0,133	0,075
-640,911	783,730	-0,047	-0,095
-639,897	800,000	0,037	0,114
-638,882	9,805	-0,057	-0,031
-637,868	-200,000	0,019	-0,064
-636,853	66,447	0,070	-0,052
-635,838	100,364	-0,044	-0,037
-634,824	-60,195	-0,073	-0,023
-633,809	-94,045	-0,096	-0,019
-632,795	-166,792	0,234	-0,007
-631,780	800,000	0,041	-0,109
-630,765	647,037	0,021	-0,039
-629,751	-74,580	-0,119	-0,031
-628,736	117,554	-0,041	0,037
-627,722	-157,069	0,071	0,003
-626,707	55,200	-0,061	0,043
-625,692	-89,628	0,119	-0,025
-624,678	-121,669	-0,118	0,014
-623,663	-36,954	0,016	-0,006
-622,649	761,277	-0,032	0,064
-621,634	-200,000	0,013	-0,056
-620,619	-200,000	-0,001	-0,011
-619,605	-105,950	0,084	0,014
-618,590	-156,213	0,102	0,005
-617,576	-200,000	0,002	0,109
-616,561	-27,177	-0,065	-0,028
-615,546	-62,778	0,022	0,007
-614,532	-200,000	0,009	0,141
-613,517	800,000	-0,018	0,038
-612,503	-31,665	-0,089	-0,036
-611,488	-64,871	0,028	-0,008
-610,474	549,305	0,056	-0,100
-609,459	409,331	-0,035	-0,054
-608,444	-91,562	-0,092	0,019
-607,430	800,000	0,052	-0,106
-606,415	55,440	-0,166	-0,118
-605,401	800,000	0,044	-0,136
-604,386	800,000	0,033	0,093
-603,371	-200,000	-0,003	0,051
-602,357	704,461	0,046	0,089
-601,342	65,613	0,021	-0,016
-600,328	406,965	-0,100	0,155
-599,313	-66,609	0,030	0,009
-598,298	800,000	0,047	0,117
-597,284	45,284	0,092	0,062
-596,269	284,641	-0,011	-0,014
-595,255	800,000	-0,035	-0,098
-594,240	800,000	-0,029	0,071
-593,225	-200,000	0,011	-0,142
-592,211	-200,000	-0,003	-0,140
-591,196	-12,051	-0,070	-0,034
-590,182	202,714	0,068	0,078
-589,167	33,237	-0,075	0,048
-588,152	565,387	-0,046	0,081
-587,138	632,809	0,031	-0,059
-586,123	-200,000	0,000	-0,123
-585,109	-53,881	-0,028	0,009
-584,094	10,684	0,080	0,045
-583,079	-200,000	-0,020	-0,098
-582,065	-17,061	0,085	0,039
-581,050	268,060	0,026	-0,033
-580,036	800,000	-0,023	0,059
-579,021	-119,474	0,035	-0,004
-578,006	-200,000	-0,037	-0,166
-576,992	-89,215	0,109	0,023
-575,977	299,874	-0,059	-0,080
-574,963	800,000	0,065	0,177
-573,948	265,214	0,071	0,091
-572,934	193,543	0,102	-0,113
-571,919	800,000	-0,013	0,027
-570,904	800,000	-0,075	-0,180
-569,890	68,752	-0,057	-0,043
-568,875	308,130	0,049	-0,067
-567,861	798,276	0,026	0,053
-566,846	800,000	-0,023	-0,052
-565,831	66,518	0,133	-0,099
-564,817	-22,645	-0,037	-0,017
-563,802	-112,965	-0,049	0,007
-562,788	-96,925	-0,049	-0,009
-561,773	-35,847	0,168	0,066
-560,758	328,790	0,052	-0,074
-559,744	-129,545	0,086	0,009
-558,729	15,309	-0,041	-0,023
-557,715	800,000	-0,015	-0,047
-556,700	347,897	-0,035	-0,050
-555,685	-200,000	-0,009	-0,038
-554,671	141,240	-0,119	0,115
-553,656	171,207	0,057	0,060
-552,642	800,000	0,006	0,017
-551,627	-99,295	-0,056	0,010
-550,612	145,245	-0,109	0,107
-549,598	16,363	0,090	0,052
-548,583	10,843	0,075	0,042
-547,569	211,848	-0,112	-0,130
-546,554	-127,992	0,054	-0,006
-545,539	278,769	0,064	0,084
-544,525	57,608	-0,128	0,092
-543,510	800,000	0,038	-0,077
-542,496	27,782	-0,070	-0,043
-541,481	-138,664	-0,117	0,009
-540,466	800,000	-0,032	0,069
-539,452	66,263	0,139	0,103
-538,437	-200,000	0,044	0,156
-537,423	-41,378	-0,021	-0,008
-536,408	-200,000	0,016	-0,101
-535,393	18,887	0,114	0,067
-534,379	-200,000	0,007	-0,117
-533,364	800,000	0,036	-0,080
-532,350	-200,000	-0,022	0,071
-531,335	-200,000	-0,007	-0,046
-530,321	534,701	-0,096	0,167
-529,306	-200,000	-0,007	0,095
-528,291	237,729	-0,072	-0,088
-527,277	800,000	-0,048	-0,122
-526,262	-11,508	-0,039	-0,019
-525,248	95,065	0,053	-0,044
-524,233	-104,032	0,051	-0,009
-523,218	-200,000	-0,002	0,024
-522,204	54,027	0,084	-0,059
-521,189	800,000	-0,037	-0,107
-520,175	-77,172	0,047	-0,012
-519,160	-200,000	-0,010	0,089
-518,145	-29,760	0,132	0,055
-517,131	-70,273	0,058	0,016
-516,116	-12,255	0,055	-0,026
-515,102	297,006	-0,072	-0,096
-514,087	800,000	0,037	-0,106
-513,072	-200,000	0,003	-0,117
-512,058	183,963	-0,042	-0,045
-511,043	138,363	-0,079	0,076
-510,029	413,832	-0,080	0,124
-509,014	-200,000	0,005	0,056
-507,999	-106,568	0,128	0,021
-506,985	-200,000	-0,017	0,126
-505,970	798,329	0,064	-0,130
-504,956	328,538	-0,034	-0,049
-503,941	-200,000	0,000	0,024
-502,926	800,000	0,032	-0,065
-501,912	-200,000	-0,002	0,014
-500,897	-25,020	-0,061	-0,026
-499,883	111,251	-0,088	-0,077
-498,868	800,000	-0,023	-0,058
-497,853	-56,689	-0,057	0,018
-496,839	257,882	-0,075	0,094
-495,824	354,810	0,095	-0,138
-494,810	800,000	0,007	0,016
-493,795	-22,255	0,098	0,043
-492,781	-200,000	-0,020	-0,073
-491,766	36,433	-0,038	-0,025
-490,751	162,766	-0,031	0,032
-489,737	342,666	0,064	0,091
-488,722	-7,082	-0,115	0,057
-487,708	-200,000	0,001	0,010
-486,693	800,000	0,045	0,127
-485,678	2,877	-0,021	-0,011
-484,664	-34,803	-0,035	-0,014
-483,649	-197,887	-0,076	-0,000
-482,635	308,171	0,061	-0,083
-481,620	-1,073	-0,125	-0,064
-480,605	614,680	-0,025	-0,045
-479,591	-200,000	-0,012	0,071
-478,576	70,620	-0,054	0,041
-477,562	-56,743	-0,178	-0,057
-476,547	6,964	-0,019	0,010
-475,532	-200,000	0,006	0,034
-474,518	800,000	0,046	0,149
-473,503	-124,338	-0,198	-0,022
-472,489	36,482	0,016	-0,010
-471,474	247,912	-0,137	0,170
-470,459	-84,458	-0,129	-0,030
-469,445	-104,237	0,097	-0,016
-468,430	-200,000	-0,004	-0,065
-467,416	756,291	0,034	0,067
-466,401	-200,000	-0,020	-0,104
-465,386	800,000	-0,027	-0,056
-464,372	-200,000	0,000	-0,043
-463,357	-151,285	-0,212	-0,011
-462,343	483,560	0,081	-0,136
-461,328	531,345	0,026	-0,045
-460,313	347,982	-0,040	-0,058
-459,299	800,000	-0,037	0,108
-458,284	306,935	0,091	0,124
-457,270	800,000	-0,031	0,085
-456,255	91,188	-0,045	0,037
-455,241	107,215	-0,032	0,028
-454,226	313,148	-0,006	0,008
-453,211	800,000	0,054	0,125
-452,197	800,000	0,043	0,129
-451,182	800,000	0,051	0,129
-450,168	-101,368	-0,108	0,019
-449,153	800,000	-0,033	-0,089
-448,138	99,239	0,022	0,019
-447,124	40,120	0,032	-0,021
-446,109	-200,000	-0,005	0,106
-445,095	-65,989	0,146	0,042
-444,080	-165,896	0,075	-0,002
-443,065	5,161	-0,073	0,039
-442,051	-59,773	0,067	-0,021
-441,036	694,354	-0,075	-0,145
-440,022	179,911	-0,034	-0,037
-439,007	-200,000	0,006	0,049
-437,992	800,000	0,029	-0,087
-436,978	167,073	0,076	-0,079
-435,963	46,658	-0,038	-0,026
-434,949	-150,365	-0,057	-0,003
-433,934	275,398	-0,031	-0,040
-432,919	-200,000	-0,035	-0,126
-431,905	-84,072	0,063	-0,014
-430,890	218,759	0,002	0,002
-429,876	514,789	0,067	-0,114
-428,861	262,328	-0,071	0,090
-427,846	-22,411	0,075	0,033
-426,832	-72,330	-0,079	-0,021
-425,817	-200,000	0,007	-0,077
-424,803	-200,000	-0,004	0,041
-423,788	-40,155	0,115	0,043
-422,773	-96,697	0,069	-0,013
-421,759	184,672	0,021	0,023
-420,744	-180,500	-0,125	0,002
-419,730	50,801	-0,022	0,015
-418,715	800,000	0,052	-0,115
-417,701	-35,031	-0,053	-0,021
-416,686	552,749	0,039	0,068
-415,671	-200,000	-0,011	0,077
-414,657	623,651	-0,048	-0,089
-413,642	800,000	0,043	-0,104
-412,628	90,543	-0,092	-0,075
-411,613	-99,783	-0,079	-0,014
-410,598	-117,473	0,104	-0,013
-409,584	-99,068	0,132	0,024
-408,569	-200,000	0,008	0,057
-407,555	-200,000	0,029	0,167
-406,540	344,706	-0,049	0,070
-405,525	-76,919	-0,081	0,020
-404,511	94,517	-0,035	0,029
-403,496	-106,184	-0,133	0,022
-402,482	34,652	-0,078	-0,050
-401,467	800,000	0,010	0,032
-400,452	165,605	0,065	0,067
-399,438	424,559	-0,061	0,096
-398,423	-84,934	-0,022	-0,005
-397,409	245,259	0,067	-0,082
-396,394	-200,000	0,001	-0,100
-395,379	-200,000	-0,014	-0,117
-394,365	-200,000	-0,017	0,083
-393,350	-174,920	0,143	-0,003
-392,336	-200,000	0,023	-0,098
-391,321	12,684	-0,097	-0,054
-390,306	800,000	0,027	-0,073
-389,292	138,143	0,032	-0,030
-388,277	-104,196	-0,104	-0,017
-387,263	271,737	0,059	0,075
-386,248	531,538	0,066	0,114
-385,233	329,783	-0,059	-0,082
-384,219	291,127	-0,053	-0,070
-383,204	75,248	-0,084	-0,064
-382,190	20,138	-0,077	-0,045
-381,175	136,894	-0,022	-0,021
-380,160	-200,000	0,010	0,049
-379,146	266,739	-0,011	0,014
-378,131	800,000	0,023	-0,073
-377,117	97,463	-0,092	-0,076
-376,102	-74,051	0,084	0,022
-375,088	58,576	-0,118	-0,084
-374,073	521,240	0,060	0,102
-373,058	800,000	0,042	0,100
-372,044	-143,643	0,132	0,009
-371,029	555,355	0,015	-0,027
-370,015	-200,000	-0,023	-0,106
-369,000	57,224	0,017	-0,012
-367,985	147,729	-0,109	-0,107
-366,971	66,181	0,113	-0,083
-365,956	56,046	0,137	0,097
-364,942	800,000	-0,060	0,147
-363,927	-200,000	-0,009	0,054
-362,912	-200,000	0,023	0,150
-361,898	-200,000	0,001	0,096
-360,883	97,422	0,066	-0,055
-359,869	-196,372	-0,067	-0,000
-358,854	-200,000	-0,012	-0,184
-357,839	-111,037	0,059	-0,009
-356,825	-200,000	0,004	0,024
-355,810	768,138	-0,070	0,138
-354,796	-200,000	0,011	0,036
-353,781	-133,111	-0,108	-0,010
-352,766	241,404	-0,018	-0,022
-351,752	-200,000	0,010	0,128
-350,737	-141,111	0,066	0,005
-349,723	-70,341	0,172	-0,047
-348,708	-35,740	-0,093	-0,036
-347,693	-56,761	0,085	-0,027
-346,679	800,000	-0,054	-0,143
-345,664	-69,402	-0,107	0,030
-344,650	279,362	0,060	0,078
-343,635	-200,000	0,015	0,069
-342,620	-3,662	0,053	-0,027
-341,606	-84,929	0,105	0,024
-340,591	-90,018	-0,198	-0,042
-339,577	160,629	0,023	0,023
-338,562	-63,118	-0,027	0,008
-337,548	-200,000	0,006	-0,037
-336,533	-200,000	-0,003	0,014
-335,518	-5,217	0,104	0,052
-334,504	-200,000	-0,000	-0,142
-333,489	-200,000	0,012	-0,087
-332,475	-200,000	-0,001	0,121
-331,460	-17,014	-0,038	0,017
-330,445	-200,000	0,014	-0,088
-329,431	-200,000	-0,010	0,074
-328,416	-200,000	-0,025	-0,085
-327,402	-200,000	0,031	0,110
-326,387	66,427	-0,057	0,042
-325,372	-148,954	0,043	0,002
-324,358	-64,910	-0,100	0,029
-323,343	227,603	-0,035	0,041
-322,329	135,390	0,023	0,022
-321,314	219,999	0,158	0,184
-320,299	236,464	-0,130	0,157
-319,285	-200,000	0,058	-0,210
-318,270	-6,802	-0,113	-0,056
-317,256	699,694	0,013	-0,025
-316,241	-200,000	-0,006	-0,100
-315,226	52,335	0,129	0,089
-314,212	-149,099	0,046	-0,003
-313,197	-200,000	0,004	0,169
-312,183	14,109	0,065	0,037
-311,168	300,200	0,068	-0,091
-310,153	-140,520	-0,044	-0,003
-309,139	-14,657	0,067	-0,031
-308,124	298,595	-0,055	-0,073
-307,110	-55,363	0,110	0,036
-306,095	-94,071	0,123	0,024
-305,080	56,470	-0,089	-0,063
-304,066	800,000	0,011	0,031
-303,051	-200,000	-0,002	-0,080
-302,037	121,684	-0,100	-0,091
-301,022	-200,000	-0,033	-0,144
-300,008	271,067	-0,060	-0,077
-298,993	3,671	-0,049	-0,026
-297,978	8,990	0,103	0,056
-296,964	-69,413	-0,118	-0,033
-295,949	800,000	0,025	-0,076
-294,935	490,166	-0,040	-0,066
-293,920	-43,182	0,056	0,020
-292,905	-18,971	0,077	0,035
-291,891	75,117	-0,090	0,069
-290,876	-27,955	-0,064	-0,027
-289,862	110,600	0,090	0,078
-288,847	-200,000	-0,005	0,075
-287,832	245,503	0,065	-0,079
-286,818	385,964	-0,021	-0,031
-285,803	177,729	0,029	-0,031
-284,789	375,354	0,091	0,134
-283,774	-54,398	0,120	0,039
-282,759	-115,360	-0,078	0,011
-281,745	-113,931	-0,062	-0,009
-280,730	-88,620	-0,061	0,013
-279,716	-46,582	0,022	0,008
-278,701	-13,086	0,110	-0,052
-277,686	-108,602	0,200	0,031
-276,672	800,000	0,012	0,034
-275,657	-200,000	-0,013	-0,134
-274,643	-49,158	0,029	-0,010
-273,628	-126,724	0,028	0,003
-272,613	800,000	-0,011	-0,025
-271,599	800,000	0,023	-0,047
-270,584	712,577	0,049	0,094
-269,570	-200,000	-0,048	0,226
-268,555	-106,856	-0,109	-0,017
-267,540	-118,044	0,044	0,006
-266,526	800,000	-0,052	-0,150
-265,511	-200,000	-0,021	-0,093
-264,497	-82,462	-0,074	-0,017
-263,482	399,615	0,123	0,188
-262,467	800,000	0,043	0,113
-261,453	270,994	-0,057	0,073
-260,438	5,704	0,048	0,026
-259,424	446,516	-0,054	-0,087
-258,409	800,000	0,019	0,053
-257,395	800,000	-0,040	0,087
-256,380	153,238	-0,095	0,095
-255,365	1,552	0,005	0,002
-254,351	800,000	0,035	0,096
-253,336	82,199	-0,107	0,084
-252,322	214,557	-0,064	-0,073
-251,307	378,040	0,037	0,056
-250,292	99,550	0,049	0,041
-249,278	-200,000	0,001	0,076
-248,263	800,000	0,042	-0,131
-247,249	-200,000	-0,021	0,147
-246,234	42,920	-0,112	-0,074
-245,219	52,542	-0,065	-0,045
-244,205	77,351	0,096	-0,074
-243,190	66,599	0,124	0,091
-242,176	-200,000	-0,008	-0,147
-241,161	590,449	0,059	-0,106
-240,146	620,634	0,029	-0,052
-239,132	2,722	0,117	0,061
-238,117	272,196	-0,048	0,061
-237,103	141,090	0,119	-0,114
-236,088	-200,000	-0,010	-0,061
-235,073	800,000	-0,008	-0,019
-234,059	-200,000	0,022	0,130
-233,044	-122,939	0,071	-0,008
-232,030	800,000	-0,024	-0,074
-231,015	-64,866	-0,163	0,047
-230,000	-92,102	-0,101	0,021
-228,986	-28,487	0,152	0,063
-227,971	800,000	0,043	0,103
-226,957	184,202	0,107	0,115
-225,942	-200,000	-0,017	0,089
-224,927	800,000	-0,032	-0,074
-223,913	-172,806	-0,029	-0,001
-222,898	146,891	0,052	-0,051
-221,884	504,100	0,014	-0,024
-220,869	22,754	0,082	0,048
-219,855	-139,886	-0,070	-0,005
-218,840	215,905	0,015	0,017
-217,825	-36,062	-0,115	0,045
-216,811	171,979	-0,099	-0,103
-215,796	-200,000	-0,016	-0,113
-214,782	-16,517	-0,059	0,027
-213,767	619,465	-0,064	0,116
-212,752	290,204	0,045	-0,060
-211,738	-96,537	0,146	0,028
-210,723	-117,617	0,056	0,007
-209,709	-200,000	0,017	-0,121
-208,694	-200,000	0,006	-0,124
-207,679	-200,000	0,011	-0,037
-206,665	-66,222	0,099	0,028
-205,650	-23,063	0,053	0,023
-204,636	15,424	-0,031	0,018
-203,621	133,698	0,038	-0,036
-202,606	-114,954	-0,038	-0,005
-201,592	800,000	-0,067	-0,166
-200,577	-97,774	0,048	-0,009
-199,563	-200,000	0,003	0,070
-198,548	75,690	0,094	0,072
-197,533	-20,889	-0,123	0,054
-196,519	-1,568	-0,070	-0,035
-195,504	-108,936	-0,057	-0,009
-194,490	-70,320	0,052	-0,014
-193,475	417,576	0,072	0,111
-192,460	-200,000	-0,002	-0,012
-191,446	800,000	-0,026	0,076
-190,431	133,779	0,126	0,117
-189,417	-129,878	-0,103	-0,010
-188,402	800,000	-0,019	0,045
-187,387	-200,000	0,016	-0,118
-186,373	-113,367	0,130	0,018
-185,358	492,251	0,096	-0,160
-184,344	-74,709	-0,076	-0,019
-183,329	591,931	0,063	-0,113
-182,315	125,946	-0,023	0,021
-181,300	-158,710	-0,120	-0,005
-180,285	-113,083	-0,097	0,014
-179,271	800,000	-0,051	0,104
-178,256	-36,368	-0,017	0,006
-177,242	-200,000	0,006	0,040
-176,227	800,000	-0,050	-0,122
-175,212	-12,554	-0,059	0,028
-174,198	-68,387	-0,156	0,043
-173,183	133,561	0,136	0,127
-172,169	800,000	-0,046	-0,142
-171,154	-200,000	0,016	0,066
-170,139	166,333	0,080	0,082
-169,125	36,648	0,050	-0,032
-168,110	-200,000	-0,012	-0,122
-167,096	267,314	-0,006	-0,007
-166,081	-122,162	0,082	0,010
-165,066	-200,000	0,043	0,198
-164,052	383,304	-0,090	0,133
-163,037	-2,540	-0,099	-0,050
-162,023	-200,000	0,024	-0,131
-161,008	800,000	-0,015	-0,041
-159,993	529,708	0,087	0,149
-158,979	800,000	0,014	-0,038
-157,964	24,844	-0,201	-0,120
-156,950	796,266	0,052	0,103
-155,935	-35,308	-0,011	0,004
-154,920	8,332	0,172	0,093
-153,906	-100,521	-0,107	0,019
-152,891	1,725	0,085	-0,044
-151,877	-200,000	-0,018	-0,080
-150,862	152,333	-0,160	-0,157
-149,847	322,280	0,043	0,059
-148,833	-200,000	0,010	-0,085
-147,818	33,550	0,048	0,030
-146,804	529,319	-0,004	0,006
-145,789	800,000	-0,012	0,031
-144,775	-27,169	-0,125	-0,052
-143,760	800,000	0,012	0,025
-142,745	-62,592	-0,052	0,015
-141,731	317,583	0,058	-0,079
-140,716	-133,329	0,092	0,008
-139,702	800,000	-0,046	0,142
-138,687	78,287	0,063	-0,048
-137,672	-28,533	-0,104	-0,043
-136,658	127,195	-0,085	-0,078
-135,643	-200,000	0,001	-0,041
-134,629	-115,974	-0,059	0,008
-133,614	-118,203	0,204	-0,026
-132,599	-200,000	0,001	0,082
-131,585	31,316	0,045	-0,028
-130,570	721,438	-0,073	0,141
-129,556	264,111	0,032	-0,040
-128,541	204,271	-0,040	-0,044
-127,526	132,056	-0,040	-0,037
-126,512	-200,000	0,009	-0,082
-125,497	399,649	0,040	0,060
-124,483	-200,000	0,006	-0,154
-123,468	800,000	0,068	-0,146
-122,453	512,436	-0,045	0,075
-121,439	-200,000	-0,013	-0,047
-120,424	800,000	0,029	0,064
-119,410	800,000	0,017	0,038
-118,395	-200,000	-0,005	-0,050
-117,380	-200,000	-0,004	0,055
-116,366	42,373	-0,069	0,045
-115,351	208,553	-0,024	0,027
-114,337	169,943	-0,079	-0,082
-113,322	-58,630	-0,180	0,056
-112,307	16,219	0,095	0,054
-111,293	-53,801	-0,048	0,016
-110,278	-22,180	0,118	0,051
-109,264	18,230	0,088	0,050
-108,249	-93,029	0,070	0,014
-107,234	162,721	0,067	-0,067
-106,220	121,797	-0,063	0,057
-105,205	347,999	0,015	-0,021
-104,191	-200,000	-0,016	0,232
-103,176	-200,000	0,002	0,024
-102,162	648,215	0,021	0,039
-101,147	800,000	-0,017	-0,038
-100,132	-33,656	0,109	0,043
-99,118	-200,000	-0,048	0,175
-98,103	-144,704	0,123	0,008
-97,089	-16,202	0,106	0,048
-96,074	-105,681	-0,029	0,005
-95,059	326,833	0,048	-0,067
-94,045	800,000	0,061	-0,168
-93,030	800,000	-0,046	-0,097
-92,016	800,000	0,020	-0,053
-91,001	63,412	0,061	0,044
-89,986	355,402	0,082	0,118
-88,972	197,315	0,089	-0,098
-87,957	800,000	0,027	-0,071
-86,943	-147,941	0,131	-0,008
-85,928	-22,745	-0,062	0,027
-84,913	446,730	-0,079	-0,126
-83,899	800,000	0,065	-0,192
-82,884	78,265	0,046	0,035
-81,870	772,156	-0,051	0,101
-80,855	-60,808	0,167	-0,051
-79,840	11,550	0,113	-0,062
-78,826	117,677	0,055	-0,048
-77,811	-200,000	0,004	-0,187
-76,797	-58,828	0,105	-0,032
-75,782	-200,000	0,002	-0,105
-74,767	12,900	0,069	0,038
-73,753	800,000	-0,037	0,076
-72,738	437,617	0,021	0,033
-71,724	-107,022	-0,074	-0,012
-70,709	82,147	-0,024	-0,019
-69,694	-200,000	-0,040	-0,198
-68,680	-36,984	-0,142	0,055
-67,665	-75,182	0,045	0,012
-66,651	800,000	0,021	0,052
-65,636	-26,889	-0,106	-0,044
-64,622	184,070	-0,057	-0,061
-63,607	181,220	-0,055	0,058
-62,592	-200,000	-0,007	0,044
-61,578	135,992	0,063	-0,059
-60,563	-200,000	0,002	0,158
-59,549	780,646	-0,063	0,125
-58,534	3,628	-1,919	-1,002
-57,519	-200,000	-0,229	-0,915
-56,505	-200,000	-1,249	-4,966
-55,490	0,980	0,812	0,417
-54,476	800,000	5,329	12,244
-53,461	-200,000	17,534	285,468
-52,446	800,000	722,855	2221,245
-51,432	537,438	1635,687	2800,803
-50,417	111,242	1627,552	1407,856
-49,403	74,469	1284,609	968,531
-48,388	32,460	1028,455	636,477
-47,373	20,080	990,369	572,041
-46,359	18,552	978,957	560,409
-45,344	16,106	974,991	550,096
-44,330	16,245	973,584	549,736
-43,315	15,804	971,554	547,126
-42,300	15,714	970,821	546,398
-41,286	15,775	969,716	545,953
-40,271	15,766	968,770	545,370
-39,257	15,847	967,555	544,928
-38,242	15,842	967,066	544,615
-37,227	15,868	966,048	544,105
-36,213	15,829	965,165	543,458
-35,198	15,797	964,251	542,818
-34,184	15,828	963,574	542,516
-33,169	15,786	962,520	541,765
-32,154	15,836	961,632	541,406
-31,140	15,787	960,993	540,865
-30,125	15,863	959,823	540,431
-29,111	15,845	959,093	539,942
-28,096	15,856	958,662	539,712
-27,082	15,797	957,952	539,103
-26,067	15,793	957,172	538,628
-25,052	15,792	956,440	538,193
-24,038	15,861	955,640	537,941
-23,023	15,789	954,987	537,323
-22,009	15,832	954,433	537,128
-20,994	15,790	953,848	536,640
-19,979	15,850	953,229	536,465
-18,965	15,797	952,660	535,952
-17,950	15,777	952,148	535,579
-16,936	15,785	951,403	535,165
-15,921	15,775	950,699	534,717
-14,906	15,720	949,940	534,091
-13,892	15,678	949,431	533,650
-12,877	15,662	948,753	533,196
-11,863	15,643	948,119	532,758
-10,848	15,643	947,632	532,464
-9,833	15,786	947,037	532,562
-8,819	15,781	946,372	532,152
-7,804	15,698	945,872	531,586
-6,790	15,678	945,229	531,141
-5,775	15,698	944,522	530,784
-4,760	15,767	943,918	530,646
-3,746	15,709	943,357	530,126
-2,731	15,538	942,709	529,196
-1,717	15,531	942,099	528,811
-0,702	15,532	941,432	528,420
0,313	15,337	940,662	528,168
1,327	18,631	938,647	537,385
2,342	27,580	793,073	477,714
3,356	24,119	446,968	264,058
4,371	-5,018	296,580	145,974
5,386	-8,855	278,253	133,290
6,400	-10,150	272,562	129,344
7,415	-10,568	270,245	127,846
8,429	-10,373	268,738	127,301
9,444	-10,384	267,938	126,900
10,459	-10,190	267,221	126,727
11,473	-10,335	266,681	126,327
12,488	-10,654	266,204	125,800
13,502	-10,918	265,643	125,283
14,517	-10,607	265,069	125,284
15,531	-10,581	264,736	125,139
16,546	-10,558	264,336	124,959
17,561	-10,622	264,010	124,736
18,575	-10,555	263,591	124,587
19,590	-10,441	263,170	124,480
20,604	-10,529	263,103	124,358
21,619	-10,744	262,636	123,933
22,634	-10,713	262,329	123,804
23,648	-10,772	262,097	123,631
24,663	-10,754	261,846	123,518
25,677	-10,730	261,521	123,375
26,692	-10,993	261,323	123,036
27,707	-10,631	261,151	123,267
28,721	-10,778	260,850	122,983
29,736	-10,786	260,433	122,768
30,750	-10,722	260,178	122,694
31,765	-11,033	260,093	122,366
32,780	-10,841	259,695	122,339
33,794	-10,938	259,427	122,115
34,809	-10,735	259,288	122,219
35,823	-10,696	258,966	122,091
36,838	-10,692	258,697	121,957
37,853	-10,867	258,588	121,740
38,867	-10,845	258,337	121,631
39,882	-10,955	258,068	121,396
40,896	-11,013	257,952	121,279
41,911	-10,864	257,552	121,211
42,926	-10,884	257,319	121,074
43,940	-11,011	257,160	120,876
44,955	-10,937	256,862	120,790
45,969	-11,201	256,687	120,466
46,984	-11,418	256,520	120,187
47,999	-11,395	256,142	120,019
49,013	-11,615	255,769	119,641
50,028	-11,488	255,553	119,641
51,042	-11,706	255,327	119,334
52,057	-11,823	255,131	119,130
53,071	-11,717	254,936	119,121
54,086	-11,628	254,851	119,148
55,101	-11,447	254,496	119,128
56,115	-11,301	254,564	119,277
57,130	-11,024	254,486	119,469
58,144	-10,509	254,194	119,768
59,159	-10,641	254,126	119,611
60,174	-10,691	253,891	119,447
61,188	-10,759	253,713	119,293
62,203	-10,651	253,330	119,196
63,217	-10,811	253,141	118,958
64,232	-10,790	252,911	118,858
65,247	-10,754	252,779	118,816
66,261	-10,636	252,450	118,752
67,276	-11,080	252,217	118,250
68,290	-11,081	251,789	118,039
69,305	-11,300	251,670	117,784
70,320	-11,241	251,565	117,775
71,334	-10,850	251,333	117,991
72,349	-10,693	251,330	118,113
73,363	-10,505	251,186	118,196
74,378	-10,616	250,988	117,997
75,393	-10,645	250,783	117,866
76,407	-10,870	250,481	117,521
77,422	-10,718	250,177	117,497
78,436	-10,716	250,075	117,440
79,451	-10,704	249,826	117,324
80,466	-10,987	249,430	116,887
81,480	-10,967	249,127	116,752
82,495	-10,955	248,965	116,676
83,509	-11,023	248,992	116,620
84,524	-11,006	248,624	116,452
85,539	-11,049	248,443	116,320
86,553	-11,296	248,271	116,021
87,568	-11,309	248,094	115,917
88,582	-11,072	247,802	115,970
89,597	-11,111	247,590	115,827
90,611	-10,933	247,601	115,971
91,626	-10,824	247,459	115,987
92,641	-10,800	247,237	115,893
93,655	-11,074	247,102	115,589
94,670	-11,129	246,863	115,420
95,684	-10,780	246,490	115,528
96,699	-10,799	246,474	115,494
97,714	-11,099	246,118	115,066
98,728	-11,212	246,021	114,917
99,743	-11,378	245,943	114,731
100,757	-11,308	245,590	114,615
101,772	-11,352	245,442	114,499
102,787	-11,108	245,290	114,620
103,801	-11,172	245,116	114,476
104,816	-11,029	244,957	114,510
105,830	-10,881	244,795	114,548
106,845	-10,880	244,709	114,498
107,860	-10,848	244,504	114,419
108,874	-10,809	244,114	114,258
109,889	-10,766	243,915	114,191
110,903	-11,186	243,881	113,816
111,918	-11,107	243,614	113,747
112,933	-10,922	243,585	113,877
113,947	-11,041	243,447	113,703
114,962	-11,087	243,158	113,520
115,976	-10,838	242,884	113,587
116,991	-10,830	242,812	113,550
118,006	-10,777	242,506	113,440
119,020	-10,675	242,433	113,481
120,035	-10,904	242,352	113,244
121,049	-10,809	242,264	113,270
122,064	-10,643	241,912	113,232
123,079	-10,890	241,679	112,911
124,093	-10,935	241,549	112,803
125,108	-11,134	241,240	112,486
126,122	-11,370	241,194	112,262
127,137	-11,379	240,792	112,057
128,151	-11,253	240,744	112,128
129,166	-11,204	240,617	112,099
130,181	-11,284	240,404	111,924
131,195	-10,973	240,186	112,065
132,210	-11,235	240,078	111,792
133,224	-10,845	239,942	112,036
134,239	-10,978	239,877	111,887
135,254	-10,923	239,609	111,797
136,268	-10,969	239,348	111,628
137,283	-11,374	239,055	111,154
138,297	-11,478	238,965	111,017
139,312	-11,489	238,623	110,840
140,327	-10,894	238,547	111,275
141,341	-10,462	238,664	111,669
142,356	-10,589	238,543	111,500
143,370	-10,520	238,280	111,423
144,385	-10,535	238,215	111,370
145,400	-10,390	238,010	111,381
146,414	-10,390	237,795	111,270
147,429	-10,471	237,610	111,108
148,443	-10,729	237,497	110,839
149,458	-10,760	237,360	110,740
150,473	-10,460	237,020	110,812
151,487	-10,493	236,820	110,683
152,502	-10,747	236,842	110,480
153,516	-10,434	236,663	110,636
154,531	-10,579	236,424	110,399
155,546	-10,617	236,284	110,293
156,560	-10,529	235,874	110,163
157,575	-11,037	235,820	109,723
158,589	-10,758	235,666	109,863
159,604	-10,455	235,559	110,044
160,619	-10,396	235,564	110,084
161,633	-10,368	235,166	109,911
162,648	-10,374	235,099	109,865
163,662	-10,687	234,995	109,558
164,677	-10,678	234,702	109,419
165,692	-10,722	234,754	109,398
166,706	-10,483	234,548	109,482
167,721	-10,404	234,405	109,468
168,735	-10,329	234,290	109,464
169,750	-10,396	234,044	109,286
170,764	-10,478	233,805	109,101
171,779	-10,310	233,646	109,149
172,794	-10,130	233,497	109,211
173,808	-10,593	233,502	108,838
174,823	-11,120	232,941	108,153
175,837	-11,175	232,814	108,042
176,852	-10,966	232,872	108,223
177,867	-10,453	232,712	108,542
178,881	-10,598	232,687	108,407
179,896	-10,365	232,448	108,468
180,910	-10,322	232,220	108,386
181,925	-10,306	232,086	108,326
182,940	-10,714	232,069	107,989
183,954	-10,401	231,822	108,110
184,969	-10,383	231,768	108,088
185,983	-10,298	231,620	108,077
186,998	-10,333	231,515	107,991
188,013	-10,128	231,218	108,002
189,027	-10,179	230,973	107,838
190,042	-10,182	230,905	107,795
191,056	-10,469	230,930	107,573
192,071	-10,150	230,639	107,676
193,086	-10,251	230,507	107,527
194,100	-10,333	230,280	107,347
195,115	-10,362	229,985	107,178
196,129	-10,674	229,888	106,881
197,144	-5,382	231,644	111,813
198,159	0,333	233,260	117,055
199,173	3,245	234,053	119,723
200,188	3,443	234,096	119,890
201,202	3,678	233,780	119,900
202,217	3,850	233,805	120,037
203,232	3,838	233,694	119,960
204,246	4,059	233,500	120,022
205,261	4,039	233,377	119,933
206,275	4,109	233,351	119,963
207,290	4,225	233,149	119,939
208,304	4,176	232,996	119,811
209,319	4,117	232,833	119,671
210,334	4,116	232,549	119,513
211,348	4,075	232,369	119,378
212,363	3,373	232,105	118,689
213,377	3,325	231,836	118,503
214,392	3,146	231,944	118,409
215,407	3,285	231,644	118,353
216,421	3,357	231,624	118,388
217,436	3,305	231,352	118,198
218,450	3,178	231,051	117,936
219,465	3,039	230,918	117,751
220,480	3,198	230,782	117,793
221,494	2,945	230,725	117,559
222,509	3,257	230,727	117,789
223,523	3,188	230,440	117,579
224,538	3,231	230,183	117,470
225,553	3,344	230,100	117,504
226,567	3,410	229,940	117,463
227,582	3,719	229,962	117,701
228,596	3,752	229,810	117,637
229,611	3,342	229,588	117,200
230,626	3,097	229,398	116,905
231,640	3,264	229,260	116,952
232,655	3,549	229,198	117,127
233,669	3,868	229,114	117,318
234,684	3,836	229,011	117,230
235,699	3,746	228,718	117,001
236,713	3,456	228,617	116,718
237,728	3,494	228,304	116,576
238,742	3,315	228,172	116,363
239,757	3,382	228,042	116,337
240,772	3,126	227,943	116,081
241,786	3,439	227,646	116,157
242,801	3,636	227,610	116,278
243,815	3,644	227,605	116,271
244,830	3,717	227,429	116,226
245,844	3,426	227,284	115,921
246,859	3,236	227,091	115,669
247,874	3,542	226,911	115,798
248,888	3,548	226,794	115,733
249,903	3,400	226,719	115,572
250,917	3,648	226,461	115,617
251,932	3,379	226,266	115,305
252,947	3,288	226,216	115,201
253,961	3,109	226,004	114,948
254,976	3,266	225,889	114,997
255,990	3,436	225,870	115,105
257,005	3,377	225,643	114,935
258,020	3,526	225,505	114,966
259,034	3,611	225,468	115,000
260,049	3,466	225,334	114,813
261,063	3,477	225,065	114,674
262,078	3,767	224,930	114,812
263,093	3,875	224,842	114,837
264,107	3,685	224,775	114,651
265,122	3,832	224,480	114,600
266,136	3,915	224,481	114,653
267,151	3,796	224,335	114,479
268,166	3,493	223,949	114,046
269,180	3,106	223,737	113,641
270,195	3,239	223,595	113,657
271,209	3,225	223,463	113,569
272,224	3,307	223,561	113,670
273,239	3,628	223,299	113,765
274,253	3,307	223,126	113,429
275,268	2,976	222,972	113,095
276,282	3,006	222,741	112,990
277,297	3,183	222,582	113,030
278,312	3,283	222,516	113,060
279,326	3,410	222,363	113,066
280,341	3,252	222,343	112,929
281,355	3,450	222,131	112,958
282,370	3,245	222,035	112,747
283,384	3,009	221,808	112,449
284,399	3,113	221,610	112,415
285,414	2,945	221,482	112,216
286,428	3,097	221,548	112,351
287,443	3,455	221,351	112,504
288,457	3,522	221,213	112,473
289,472	3,179	220,906	112,056
290,487	2,900	220,629	111,701
291,501	2,962	220,469	111,656
292,516	3,036	220,288	111,608
293,530	3,054	220,351	111,644
294,545	3,198	220,116	111,620
295,560	3,209	220,095	111,607
296,574	3,267	219,945	111,564
297,589	3,342	219,792	111,530
298,603	3,343	219,676	111,462
299,618	3,215	219,574	111,307
300,633	3,550	219,456	111,481
301,647	3,228	219,584	111,301
302,662	3,537	219,290	111,367
303,676	3,603	219,047	111,282
304,691	3,731	218,851	111,265
305,706	3,582	218,822	111,132
306,720	3,481	218,658	110,966
307,735	3,334	218,478	110,758
308,749	3,425	218,326	110,737
309,764	3,278	218,190	110,552
310,779	3,494	218,123	110,665
311,793	3,539	217,879	110,564
312,808	3,489	217,723	110,438
313,822	3,475	217,704	110,409
314,837	3,428	217,458	110,240
315,852	3,095	217,310	109,916
316,866	3,339	217,248	110,050
317,881	3,499	217,068	110,064
318,895	3,321	216,999	109,891
319,910	3,445	216,622	109,780
320,925	3,172	216,497	109,511
321,939	2,946	216,227	109,203
322,954	2,860	216,382	109,210
323,968	3,281	216,293	109,456
324,983	3,578	216,095	109,559
325,997	3,636	215,968	109,526
327,012	3,515	215,815	109,352
328,027	3,410	215,726	109,222
329,041	3,776	215,681	109,451
330,056	3,836	215,561	109,423
331,070	3,509	215,290	109,043
332,085	3,352	215,143	108,847
333,100	3,419	214,982	108,803
334,114	3,308	214,842	108,644
335,129	3,310	214,747	108,588
336,143	3,229	214,597	108,445
337,158	3,409	214,400	108,463
338,173	3,453	214,326	108,448
339,187	3,279	214,147	108,224
340,202	3,046	213,903	107,927
341,216	3,068	213,803	107,883
342,231	3,219	213,677	107,915
343,246	3,065	213,520	107,718
344,260	3,152	213,440	107,729
345,275	3,180	213,475	107,757
346,289	3,353	213,270	107,766
347,304	3,663	213,086	107,881
348,319	3,477	213,051	107,723
349,333	3,247	212,881	107,466
350,348	3,355	212,728	107,455
351,362	3,514	212,672	107,529
352,377	3,461	212,579	107,435
353,392	3,341	212,506	107,304
354,406	3,585	212,228	107,325
355,421	196,719	1341,099	1423,409
356,435	157,204	1478,632	1423,393
