DTS Sentinel unit serial number:	SN410029Multiplexer serial number:	ORYXHardware model number:	OX2-SRSoftware version number:	ORYX F/W v4,00 Oryx Data Collector v3.7.2.0data status	okinstallation	B6 Nyhavnadifferential loss correction	single-endedforward channel	channel 2reverse channel	N/Adate	2023/12/10time	16:00:08forward acquisition time	300,00reverse acquisition time	0,00gamma	499,1914k internal	0,3123k external	0,3123temperature offset calibration	1,0000default loss term (dB/km)	0,3820temperature slope calibration	1,0000multiplexer offset coefficient	1,0000multiplexer slope coefficient	1,0000fibre end	0,00T internal ref (°C)	22,37T ext. ref 1 (°C)	6,04T ext. ref 2 (°C)	6,03length (m)	temperature (°C)	Stokes	anti-Stokes-744,400	-59,863	0,097	0,031
-743,385	87,346	-0,127	0,104
-742,371	1,122	0,092	0,049
-741,356	-74,123	-0,312	0,084
-740,342	9,569	0,127	0,071
-739,327	46,972	-0,079	0,055
-738,312	-3,970	0,073	-0,037
-737,298	-116,075	-0,298	0,041
-736,283	-200,000	0,010	-0,080
-735,269	-17,059	-0,156	0,073
-734,254	-39,285	0,097	0,038
-733,239	-59,736	-0,359	-0,114
-732,225	226,451	0,108	0,131
-731,210	-200,000	0,024	0,124
-730,196	-200,000	0,001	-0,081
-729,181	394,454	0,020	0,032
-728,167	-200,000	-0,026	-0,106
-727,152	-38,745	0,118	0,046
-726,137	-114,183	-0,190	-0,027
-725,123	800,000	0,012	0,029
-724,108	800,000	-0,019	-0,048
-723,094	-200,000	-0,037	-0,149
-722,079	-200,000	-0,012	-0,175
-721,064	-200,000	0,023	-0,123
-720,050	-200,000	-0,004	-0,059
-719,035	174,924	0,020	0,022
-718,021	445,684	0,081	-0,133
-717,006	-49,954	-0,108	0,038
-715,991	-200,000	-0,043	-0,170
-714,977	800,000	0,025	-0,053
-713,962	137,553	-0,029	-0,028
-712,948	800,000	-0,031	-0,091
-711,933	-200,000	0,035	-0,137
-710,918	-95,917	-0,176	0,035
-709,904	13,297	-0,131	-0,075
-708,889	2,650	-0,087	-0,047
-707,875	-200,000	-0,028	0,000
-706,860	96,262	-0,026	0,022
-705,845	28,681	0,049	0,031
-704,831	-200,000	-0,002	0,024
-703,816	556,613	0,016	0,029
-702,802	-10,762	0,155	-0,076
-701,787	451,982	0,072	-0,119
-700,772	19,402	0,054	0,032
-699,758	-13,651	-0,094	-0,045
-698,743	681,260	-0,082	0,160
-697,729	800,000	0,030	0,064
-696,714	-200,000	-0,013	-0,072
-695,699	-200,000	-0,013	-0,057
-694,685	81,573	0,067	0,054
-693,670	14,383	-0,079	-0,046
-692,656	-200,000	0,038	0,155
-691,641	-141,751	-0,062	0,005
-690,627	718,312	0,044	-0,088
-689,612	13,932	0,084	-0,049
-688,597	800,000	-0,050	-0,128
-687,583	399,263	-0,025	0,039
-686,568	-52,745	-0,125	0,043
-685,554	55,118	0,084	-0,060
-684,539	-190,145	0,133	0,001
-683,524	800,000	0,015	0,032
-682,510	-200,000	-0,021	0,157
-681,495	-168,441	-0,055	0,002
-680,481	165,025	-0,026	-0,027
-679,466	334,813	0,041	0,059
-678,451	-112,792	-0,009	-0,001
-677,437	-27,876	0,080	-0,034
-676,422	-96,063	0,072	0,014
-675,408	74,979	0,038	-0,029
-674,393	-200,000	-0,011	-0,077
-673,378	-200,000	-0,031	-0,151
-672,364	-200,000	0,018	-0,068
-671,349	676,320	-0,027	-0,053
-670,335	50,340	-0,047	0,033
-669,320	-79,591	-0,051	-0,013
-668,305	-12,770	0,137	0,066
-667,291	128,331	-0,057	0,054
-666,276	181,674	-0,029	0,032
-665,262	15,391	-0,046	-0,027
-664,247	-200,000	-0,009	-0,057
-663,232	148,759	0,031	-0,031
-662,218	-51,521	0,150	0,052
-661,203	31,729	0,070	-0,044
-660,189	640,259	0,063	-0,120
-659,174	800,000	0,015	-0,037
-658,159	468,361	0,033	-0,055
-657,145	-104,724	-0,039	-0,007
-656,130	-200,000	0,013	-0,153
-655,116	225,448	-0,025	-0,030
-654,101	800,000	-0,026	0,062
-653,086	-21,390	0,106	0,048
-652,072	-138,030	-0,077	0,006
-651,057	-95,108	0,146	0,029
-650,043	-194,088	-0,071	0,000
-649,028	-200,000	-0,007	-0,033
-648,014	424,163	-0,031	-0,049
-646,999	129,181	0,120	0,113
-645,984	8,325	-0,073	-0,041
-644,970	-200,000	-0,027	-0,134
-643,955	-200,000	-0,004	-0,043
-642,941	-117,677	-0,047	0,006
-641,926	-118,363	-0,111	-0,014
-640,911	705,587	-0,027	0,054
-639,897	171,685	0,021	-0,022
-638,882	-72,804	0,096	-0,026
-637,868	4,791	-0,159	-0,086
-636,853	-200,000	0,004	0,016
-635,838	-20,458	0,093	0,042
-634,824	-81,071	-0,095	0,023
-633,809	800,000	0,064	-0,185
-632,795	-200,000	0,006	0,060
-631,780	308,472	-0,066	0,092
-630,765	-124,111	-0,117	-0,013
-629,751	-200,000	-0,001	-0,115
-628,736	800,000	-0,047	-0,099
-627,722	25,791	0,049	-0,030
-626,707	-200,000	-0,008	-0,033
-625,692	-200,000	0,008	-0,068
-624,678	644,666	-0,039	0,073
-623,663	800,000	-0,017	-0,048
-622,649	-200,000	0,012	-0,112
-621,634	-119,100	-0,046	-0,006
-620,619	108,337	0,021	-0,019
-619,605	17,049	0,102	0,060
-618,590	-135,506	-0,063	0,006
-617,576	18,786	-0,032	-0,019
-616,561	753,876	-0,036	-0,072
-615,546	2,884	-0,184	-0,099
-614,532	-200,000	0,003	-0,121
-613,517	0,819	0,040	0,021
-612,503	800,000	0,061	-0,155
-611,488	114,727	-0,038	-0,034
-610,474	209,554	-0,088	0,102
-609,459	-87,386	-0,111	-0,025
-608,444	-24,854	0,095	-0,041
-607,430	-89,939	0,146	-0,031
-606,415	-77,043	-0,095	-0,025
-605,401	800,000	-0,015	0,046
-604,386	-200,000	0,000	-0,035
-603,371	52,485	0,078	0,055
-602,357	-197,447	0,094	-0,000
-601,342	-90,348	-0,122	0,026
-600,328	800,000	-0,044	-0,092
-599,313	-115,347	0,158	0,022
-598,298	7,716	-0,083	-0,046
-597,284	-200,000	0,001	-0,016
-596,269	759,380	0,019	0,039
-595,255	-200,000	0,009	-0,049
-594,240	38,811	-0,140	0,093
-593,225	-200,000	0,006	-0,085
-592,211	-200,000	0,008	-0,037
-591,196	-139,963	-0,123	0,009
-590,182	-133,429	0,136	-0,013
-589,167	-200,000	-0,025	-0,113
-588,152	8,524	-0,005	-0,003
-587,138	-200,000	-0,013	-0,103
-586,123	-200,000	0,010	0,050
-585,109	594,920	0,019	0,035
-584,094	800,000	-0,015	0,037
-583,079	-200,000	-0,004	0,087
-582,065	-0,955	-0,041	-0,021
-581,050	-49,467	0,136	-0,048
-580,036	-183,364	-0,173	0,002
-579,021	800,000	0,052	-0,114
-578,006	270,093	0,120	0,157
-576,992	-31,698	0,146	-0,060
-575,977	-200,000	-0,063	-0,000
-574,963	-28,109	0,059	-0,025
-573,948	50,961	-0,063	-0,044
-572,934	-200,000	0,000	0,002
-571,919	800,000	0,028	-0,062
-570,904	272,198	-0,002	-0,003
-569,890	-200,000	0,009	-0,046
-568,875	-89,159	0,040	-0,009
-567,861	-161,114	-0,079	-0,003
-566,846	800,000	0,054	0,117
-565,831	317,328	-0,040	-0,056
-564,817	662,242	0,018	0,035
-563,802	313,122	0,089	-0,124
-562,788	63,221	0,014	-0,010
-561,773	800,000	0,033	0,084
-560,758	-154,758	0,215	0,010
-559,744	140,127	-0,118	-0,116
-558,729	-200,000	0,013	0,141
-557,715	189,220	-0,019	-0,021
-556,700	800,000	0,034	0,083
-555,685	56,887	-0,084	0,060
-554,671	-200,000	-0,008	0,083
-553,656	-77,692	0,073	-0,019
-552,642	-6,901	0,059	-0,029
-551,627	-1,185	-0,080	-0,041
-550,612	-200,000	-0,003	0,092
-549,598	800,000	-0,016	-0,046
-548,583	-200,000	-0,021	0,141
-547,569	4,610	-0,041	-0,022
-546,554	423,456	0,041	0,066
-545,539	-6,538	0,057	-0,028
-544,525	-26,575	-0,078	-0,034
-543,510	-137,809	0,065	-0,005
-542,496	176,524	-0,094	-0,101
-541,481	-200,000	0,015	0,079
-540,466	579,360	0,027	-0,050
-539,452	-81,672	-0,035	-0,009
-538,437	79,440	0,037	-0,029
-537,423	99,538	0,050	-0,043
-536,408	58,139	0,032	-0,023
-535,393	161,439	-0,081	-0,084
-534,379	94,565	-0,048	-0,041
-533,364	477,315	0,027	0,046
-532,350	150,700	-0,023	-0,024
-531,335	-76,861	0,061	-0,016
-530,321	800,000	-0,022	-0,047
-529,306	800,000	0,011	0,030
-528,291	49,806	-0,017	-0,012
-527,277	47,195	-0,056	-0,038
-526,262	119,429	0,057	0,053
-525,248	444,151	0,067	0,108
-524,233	-61,230	0,203	0,063
-523,218	2,580	0,119	0,064
-522,204	800,000	-0,033	0,104
-521,189	127,637	-0,051	-0,048
-520,175	800,000	-0,012	-0,032
-519,160	-200,000	-0,007	-0,085
-518,145	705,470	-0,007	-0,014
-517,131	81,034	0,125	-0,099
-516,116	79,181	-0,020	0,016
-515,102	82,375	-0,025	0,020
-514,087	-200,000	0,009	-0,033
-513,072	-102,360	-0,034	-0,006
-512,058	800,000	-0,028	0,090
-511,043	-118,081	-0,152	0,020
-510,029	-79,025	0,091	0,023
-509,014	-200,000	0,026	0,107
-507,999	800,000	0,011	0,028
-506,985	696,788	-0,043	-0,084
-505,970	592,604	-0,046	0,084
-504,956	-200,000	-0,018	-0,133
-503,941	-200,000	-0,018	-0,061
-502,926	455,691	-0,005	-0,008
-501,912	561,359	0,009	0,016
-500,897	-114,727	0,074	0,010
-499,883	-48,276	-0,044	0,016
-498,868	-200,000	-0,017	-0,128
-497,853	156,784	-0,089	-0,091
-496,839	52,144	-0,053	-0,037
-495,824	-147,094	0,071	0,004
-494,810	33,132	0,107	0,068
-493,795	117,031	-0,103	0,094
-492,781	26,899	0,124	0,077
-491,766	-200,000	-0,001	0,028
-490,751	157,578	-0,087	-0,089
-489,737	-95,257	0,054	0,011
-488,722	-8,713	-0,069	0,034
-487,708	59,932	0,114	0,083
-486,693	-1,256	-0,117	0,061
-485,678	-51,983	0,008	0,003
-484,664	-200,000	0,020	-0,164
-483,649	-200,000	-0,051	-0,168
-482,635	72,759	0,111	0,085
-481,620	-200,000	0,002	-0,024
-480,605	-169,602	0,054	0,001
-479,591	-200,000	0,022	0,089
-478,576	133,127	-0,071	0,067
-477,562	-200,000	-0,023	-0,108
-476,547	-98,919	-0,169	0,031
-475,532	673,377	-0,012	-0,023
-474,518	-186,988	0,184	-0,002
-473,503	800,000	0,006	-0,014
-472,489	-200,000	0,003	0,021
-471,474	374,074	-0,058	-0,087
-470,459	-200,000	-0,004	-0,069
-469,445	122,305	-0,131	0,121
-468,430	800,000	0,063	-0,157
-467,416	-200,000	-0,028	-0,137
-466,401	172,207	0,089	0,095
-465,386	800,000	-0,040	0,093
-464,372	-200,000	0,018	0,111
-463,357	-200,000	0,021	-0,087
-462,343	-200,000	-0,005	0,067
-461,328	-200,000	-0,016	0,061
-460,313	33,490	0,059	-0,038
-459,299	95,015	0,069	-0,058
-458,284	78,618	0,068	0,053
-457,270	-22,629	-0,014	-0,006
-456,255	-1,257	-0,043	-0,022
-455,241	-65,020	-0,065	0,019
-454,226	-28,489	-0,219	-0,093
-453,211	800,000	0,015	-0,039
-452,197	-200,000	0,004	0,039
-451,182	-111,744	0,108	-0,016
-450,168	-200,000	0,011	0,099
-449,153	-200,000	0,003	0,103
-448,138	-200,000	0,020	0,089
-447,124	-200,000	-0,017	-0,059
-446,109	771,741	0,012	-0,025
-445,095	687,220	0,058	-0,112
-444,080	145,130	0,105	0,104
-443,065	370,193	-0,033	-0,049
-442,051	-64,723	-0,021	-0,006
-441,036	23,760	0,064	0,039
-440,022	264,975	0,073	-0,094
-439,007	-2,356	-0,041	-0,021
-437,992	633,533	-0,018	0,034
-436,978	311,913	0,013	0,019
-435,963	-41,635	0,032	0,012
-434,949	424,264	0,079	0,126
-433,934	-200,000	-0,008	-0,135
-432,919	397,676	-0,084	0,129
-431,905	-200,000	0,007	0,159
-430,890	-200,000	0,005	-0,087
-429,876	458,193	-0,045	0,074
-428,861	36,478	0,048	0,031
-427,846	-116,184	-0,091	-0,012
-426,832	39,410	-0,071	-0,047
-425,817	339,155	0,043	-0,061
-424,803	-200,000	-0,005	0,063
-423,788	-171,529	0,045	-0,001
-422,773	800,000	0,068	0,177
-421,759	800,000	-0,035	0,111
-420,744	-173,661	-0,031	-0,001
-419,730	154,128	0,079	0,080
-418,715	-200,000	0,019	-0,103
-417,701	-74,439	0,058	0,015
-416,686	-184,195	0,154	0,002
-415,671	126,513	-0,090	-0,084
-414,657	388,889	-0,038	-0,058
-413,642	800,000	0,034	0,083
-412,628	-40,323	-0,106	-0,040
-411,613	-200,000	-0,013	0,168
-410,598	-200,000	-0,013	-0,045
-409,584	-200,000	-0,018	0,129
-408,569	267,307	-0,032	0,041
-407,555	365,144	0,090	0,133
-406,540	29,007	0,040	0,025
-405,525	211,760	0,055	0,064
-404,511	344,163	-0,124	-0,179
-403,496	-200,000	-0,027	-0,091
-402,482	-78,967	-0,040	0,010
-401,467	-69,485	0,041	0,011
-400,452	-61,161	0,048	-0,015
-399,438	800,000	-0,030	-0,070
-398,423	297,452	0,030	-0,041
-397,409	82,233	0,141	0,112
-396,394	-200,000	0,020	-0,068
-395,379	-67,516	0,098	-0,028
-394,365	-200,000	0,006	-0,055
-393,350	-200,000	0,016	-0,099
-392,336	-52,556	0,086	0,029
-391,321	800,000	-0,093	0,211
-390,306	-200,000	0,017	0,058
-389,292	385,405	-0,075	0,115
-388,277	-78,897	-0,027	-0,007
-387,263	324,290	0,073	0,102
-386,248	-51,898	0,165	0,056
-385,233	303,529	-0,080	-0,110
-384,219	-23,293	0,096	0,042
-383,204	-8,595	0,067	0,033
-382,190	650,551	-0,046	-0,087
-381,175	46,126	0,100	-0,068
-380,160	-49,500	0,069	0,024
-379,146	-200,000	-0,013	0,103
-378,131	430,592	-0,007	0,011
-377,117	466,393	0,024	-0,039
-376,102	-53,313	-0,031	-0,010
-375,088	800,000	-0,002	-0,006
-374,073	-43,942	-0,086	0,032
-373,058	674,126	-0,023	0,044
-372,044	33,562	-0,125	0,079
-371,029	182,025	-0,077	-0,083
-370,015	-100,674	-0,009	0,002
-369,000	-195,813	-0,061	-0,000
-367,985	-200,000	0,007	-0,078
-366,971	106,549	0,126	-0,110
-365,956	429,918	-0,036	0,057
-364,942	-5,441	-0,143	0,072
-363,927	175,376	0,056	-0,060
-362,912	310,726	-0,105	0,145
-361,898	214,586	0,035	-0,040
-360,883	39,865	0,035	-0,023
-359,869	97,908	-0,103	-0,087
-358,854	589,422	0,047	-0,085
-357,839	-122,288	0,058	0,007
-356,825	-200,000	-0,028	0,141
-355,810	-200,000	-0,012	0,094
-354,796	800,000	-0,020	0,050
-353,781	-58,319	-0,169	-0,054
-352,766	1,375	0,086	-0,045
-351,752	-95,550	-0,093	0,018
-350,737	577,581	0,055	0,099
-349,723	26,294	0,039	-0,024
-348,708	-28,599	0,028	-0,012
-347,693	-118,262	-0,026	-0,003
-346,679	455,347	0,023	-0,038
-345,664	-200,000	-0,002	-0,112
-344,650	275,266	-0,062	-0,081
-343,635	81,694	0,139	0,111
-342,620	-200,000	0,003	-0,020
-341,606	-67,051	0,168	-0,048
-340,591	37,403	0,020	0,013
-339,577	-85,825	0,036	0,008
-338,562	266,118	-0,039	-0,050
-337,548	-108,837	-0,039	0,006
-336,533	-48,673	0,012	0,004
-335,518	800,000	0,015	-0,042
-334,504	-57,458	-0,142	0,046
-333,489	800,000	-0,032	0,085
-332,475	216,428	-0,070	0,082
-331,460	56,314	-0,012	-0,009
-330,445	-51,683	0,147	-0,050
-329,431	98,443	0,126	0,107
-328,416	-200,000	0,004	0,039
-327,402	-200,000	0,006	0,046
-326,387	360,882	0,046	-0,068
-325,372	353,873	0,022	0,033
-324,358	-4,609	-0,078	0,039
-323,343	209,419	-0,049	-0,056
-322,329	385,545	0,031	0,046
-321,314	431,766	-0,029	0,046
-320,299	-200,000	0,014	0,137
-319,285	-200,000	-0,002	0,097
-318,270	-109,853	0,096	0,015
-317,256	-151,492	-0,040	0,002
-316,241	-21,306	-0,069	-0,031
-315,226	-50,100	0,097	-0,034
-314,212	-65,809	-0,143	0,042
-313,197	-108,924	-0,045	-0,007
-312,183	-200,000	0,099	-0,000
-311,168	-55,178	-0,072	0,024
-310,153	-200,000	0,024	-0,078
-309,139	800,000	-0,064	-0,147
-308,124	18,561	0,145	-0,085
-307,110	-200,000	-0,019	0,134
-306,095	-93,876	0,133	-0,027
-305,080	-1,489	0,063	0,033
-304,066	-153,024	-0,028	0,001
-303,051	-168,305	-0,058	0,002
-302,037	800,000	0,067	-0,169
-301,022	-200,000	0,004	0,121
-300,008	123,746	0,100	0,092
-298,993	599,101	-0,042	0,077
-297,978	154,982	0,019	-0,020
-296,964	-71,312	-0,034	0,009
-295,949	1,936	-0,139	-0,073
-294,935	149,825	-0,116	-0,115
-293,920	800,000	-0,070	-0,191
-292,905	-2,746	-0,043	-0,022
-291,891	-200,000	-0,032	-0,125
-290,876	-200,000	-0,054	0,000
-289,862	-52,410	-0,078	0,026
-288,847	40,065	0,032	-0,021
-287,832	800,000	-0,040	-0,087
-286,818	-12,082	-0,144	0,069
-285,803	-84,306	0,098	-0,023
-284,789	503,214	0,057	-0,097
-283,774	353,720	0,042	-0,061
-282,759	431,064	-0,061	-0,097
-281,745	749,441	-0,029	-0,057
-280,730	86,588	-0,036	0,029
-279,716	-54,275	0,148	0,049
-278,701	-200,000	-0,008	-0,093
-277,686	30,528	0,068	-0,042
-276,672	800,000	0,024	-0,064
-275,657	-111,778	0,057	-0,008
-274,643	-20,650	0,015	0,007
-273,628	20,359	0,109	-0,064
-272,613	197,478	-0,038	-0,043
-271,599	-200,000	0,005	0,115
-270,584	207,391	0,074	0,084
-269,570	-99,663	-0,048	0,009
-268,555	-200,000	-0,008	0,073
-267,540	-200,000	-0,026	-0,094
-266,526	12,540	-0,020	-0,011
-265,511	-93,105	-0,125	0,025
-264,497	-200,000	0,025	0,105
-263,482	-200,000	0,013	-0,152
-262,467	800,000	-0,044	0,112
-261,453	-187,949	0,069	-0,001
-260,438	-16,114	-0,106	0,049
-259,424	101,473	0,054	0,046
-258,409	800,000	-0,029	-0,060
-257,395	378,358	0,048	0,072
-256,380	-132,270	-0,095	0,009
-255,365	-145,566	0,068	-0,004
-254,351	1,874	0,060	0,032
-253,336	-26,369	-0,146	-0,062
-252,322	-200,000	0,005	0,027
-251,307	-89,163	-0,072	-0,015
-250,292	800,000	0,055	-0,127
-249,278	-154,907	-0,128	0,006
-248,263	800,000	0,016	0,038
-247,249	-200,000	-0,003	-0,124
-246,234	800,000	0,043	-0,125
-245,219	-99,906	0,046	-0,008
-244,205	800,000	-0,027	-0,081
-243,190	-200,000	-0,013	-0,071
-242,176	6,462	-0,086	-0,047
-241,161	-3,954	-0,130	0,066
-240,146	86,376	-0,029	-0,023
-239,132	800,000	-0,047	0,131
-238,117	800,000	-0,013	-0,026
-237,103	17,797	-0,117	0,068
-236,088	546,699	0,103	0,181
-235,073	-200,000	-0,001	0,034
-234,059	-200,000	-0,002	0,072
-233,044	55,362	0,038	0,027
-232,030	343,565	0,021	-0,030
-231,015	800,000	-0,011	-0,031
-230,000	433,470	-0,045	0,071
-228,986	-200,000	-0,006	0,092
-227,971	203,603	-0,052	-0,058
-226,957	-62,715	0,019	-0,006
-225,942	-90,257	0,050	0,011
-224,927	18,219	0,124	0,072
-223,913	-200,000	0,053	-0,174
-222,898	39,826	-0,054	-0,036
-221,884	178,864	-0,017	0,018
-220,869	-200,000	-0,035	-0,148
-219,855	800,000	0,039	0,103
-218,840	-200,000	0,006	0,086
-217,825	-200,000	0,010	-0,101
-216,811	-200,000	-0,011	0,038
-215,796	-92,712	0,043	0,009
-214,782	-200,000	0,022	0,142
-213,767	-126,232	0,066	-0,007
-212,752	-155,409	-0,010	0,000
-211,738	-145,924	0,122	0,008
-210,723	355,826	0,013	0,019
-209,709	2,753	-0,134	-0,071
-208,694	-149,311	-0,159	0,009
-207,679	800,000	0,011	-0,034
-206,665	518,860	0,066	-0,113
-205,650	146,665	-0,093	0,092
-204,636	-4,216	0,109	-0,055
-203,621	157,287	0,049	0,050
-202,606	-101,840	-0,204	-0,036
-201,592	800,000	-0,038	-0,103
-200,577	27,723	-0,065	0,040
-199,563	-200,000	-0,015	0,152
-198,548	-94,136	0,072	-0,014
-197,533	-200,000	-0,005	-0,029
-196,519	-200,000	-0,013	-0,088
-195,504	188,715	-0,071	0,077
-194,490	198,882	-0,089	0,099
-193,475	294,391	0,046	0,062
-192,460	800,000	0,033	0,085
-191,446	253,651	-0,029	-0,036
-190,431	428,737	-0,073	0,116
-189,417	800,000	0,029	-0,091
-188,402	-200,000	0,011	-0,123
-187,387	-200,000	0,006	-0,094
-186,373	-200,000	-0,007	0,068
-185,358	800,000	0,086	0,178
-184,344	-197,756	0,154	0,001
-183,329	-200,000	0,010	0,132
-182,315	214,227	-0,029	-0,033
-181,300	101,474	0,067	-0,057
-180,285	-50,424	0,133	-0,045
-179,271	236,749	-0,065	-0,079
-178,256	-102,665	-0,033	0,006
-177,242	88,555	0,090	0,073
-176,227	59,961	0,087	0,063
-175,212	-200,000	0,015	0,199
-174,198	26,139	-0,074	0,045
-173,183	21,197	-0,039	0,023
-172,169	13,949	-0,043	-0,024
-171,154	-36,621	-0,033	-0,013
-170,139	-182,444	-0,065	-0,001
-169,125	-200,000	-0,014	0,063
-168,110	800,000	-0,036	-0,101
-167,096	-81,129	0,053	0,013
-166,081	462,304	0,070	0,114
-165,066	104,896	-0,090	-0,077
-164,052	-200,000	0,001	0,017
-163,037	-171,422	-0,077	0,002
-162,023	161,312	-0,024	-0,024
-161,008	-55,236	-0,063	-0,021
-159,993	-200,000	0,013	0,110
-158,979	-200,000	-0,010	0,155
-157,964	261,054	0,054	0,068
-156,950	-0,854	0,046	-0,024
-155,935	556,742	-0,005	0,010
-154,920	2,311	0,067	-0,035
-153,906	-74,289	0,129	-0,034
-152,891	709,034	0,029	0,055
-151,877	800,000	0,032	-0,075
-150,862	-200,000	-0,005	0,094
-149,847	-200,000	-0,019	-0,103
-148,833	151,261	-0,078	-0,077
-147,818	203,524	-0,068	-0,076
-146,804	77,565	0,124	0,096
-145,789	46,587	-0,089	0,060
-144,775	75,239	0,085	-0,065
-143,760	182,223	-0,032	-0,035
-142,745	68,423	0,028	0,021
-141,731	190,546	-0,058	0,064
-140,716	-200,000	-0,156	0,000
-139,702	3,053	0,126	-0,067
-138,687	-200,000	0,039	0,128
-137,672	-200,000	0,023	-0,162
-136,658	-9,451	-0,101	-0,049
-135,643	-92,089	-0,096	0,020
-134,629	75,813	-0,070	0,054
-133,614	800,000	0,033	-0,093
-132,599	800,000	-0,017	-0,041
-131,585	-200,000	-0,007	-0,048
-130,570	800,000	-0,022	0,060
-129,556	506,477	-0,032	0,055
-128,541	327,733	0,045	-0,064
-127,526	107,101	-0,090	0,078
-126,512	-86,932	0,162	0,036
-125,497	298,417	-0,081	-0,109
-124,483	-87,340	0,085	-0,019
-123,468	346,060	-0,035	-0,050
-122,453	-200,000	-0,002	0,083
-121,439	800,000	-0,027	0,059
-120,424	2,270	0,061	0,032
-119,410	-48,333	0,136	-0,048
-118,395	800,000	0,014	0,044
-117,380	70,587	0,019	-0,014
-116,366	-200,000	0,006	-0,082
-115,351	425,424	0,061	-0,096
-114,337	800,000	-0,019	-0,047
-113,322	-62,668	-0,140	-0,042
-112,307	50,757	0,107	-0,073
-111,293	-17,049	0,070	0,032
-110,278	-89,866	0,236	-0,050
-109,264	-95,777	-0,032	-0,006
-108,249	-183,077	-0,154	0,002
-107,234	201,569	-0,042	0,047
-106,220	194,517	0,097	-0,107
-105,205	-200,000	0,008	0,085
-104,191	45,557	0,045	0,030
-103,176	800,000	-0,063	0,162
-102,162	-62,282	0,034	0,010
-101,147	-5,973	-0,058	-0,028
-100,132	-200,000	-0,002	-0,074
-99,118	732,510	-0,092	-0,179
-98,103	573,363	0,053	-0,094
-97,089	800,000	-0,010	-0,028
-96,074	-200,000	-0,028	0,104
-95,059	78,466	0,014	-0,011
-94,045	102,039	-0,118	-0,100
-93,030	-200,000	-0,001	-0,018
-92,016	-25,127	-0,069	-0,029
-91,001	187,238	-0,062	0,067
-89,986	-22,880	0,048	-0,021
-88,972	19,705	0,109	0,064
-87,957	121,484	-0,065	0,059
-86,943	2,713	0,056	-0,030
-85,928	-46,522	-0,100	0,035
-84,913	245,298	-0,061	-0,075
-83,899	-56,798	0,114	-0,037
-82,884	5,920	-0,152	0,081
-81,870	224,841	0,021	0,024
-80,855	452,143	-0,060	0,097
-79,840	319,456	-0,087	-0,120
-78,826	-160,124	-0,101	0,004
-77,811	-200,000	0,003	-0,061
-76,797	-200,000	0,003	0,014
-75,782	-200,000	0,006	-0,070
-74,767	-177,626	-0,106	-0,002
-73,753	-200,000	-0,015	0,147
-72,738	59,165	-0,096	-0,069
-71,724	89,433	0,043	-0,035
-70,709	-200,000	0,017	0,072
-69,694	231,549	0,053	-0,063
-68,680	-200,000	-0,006	0,077
-67,665	-176,770	0,060	-0,001
-66,651	190,249	0,035	-0,038
-65,636	146,768	0,092	0,090
-64,622	-65,301	-0,132	-0,038
-63,607	-97,452	0,079	-0,015
-62,592	-36,469	-0,056	0,022
-61,578	-25,619	0,053	0,023
-60,563	-74,632	0,020	0,005
-59,549	655,308	0,029	0,054
-58,534	-117,574	-1,422	-0,184
-57,519	513,015	-0,852	-1,447
-56,505	-200,000	-0,919	-4,315
-55,490	169,819	0,511	-0,531
-54,476	800,000	4,992	11,826
-53,461	-200,000	13,639	253,050
-52,446	-200,000	689,563	2259,658
-51,432	591,696	1622,287	2918,042
-50,417	119,453	1634,903	1468,631
-49,403	73,292	1288,855	977,306
-48,388	38,109	1024,321	659,948
-47,373	24,416	981,789	587,522
-46,359	23,643	971,340	578,711
-45,344	22,637	967,188	572,929
-44,330	22,557	965,797	571,822
-43,315	22,461	964,387	570,652
-42,300	22,437	963,234	569,869
-41,286	22,420	962,338	569,258
-40,271	22,391	961,515	568,656
-39,257	22,370	960,596	568,021
-38,242	22,358	959,683	567,420
-37,227	22,365	958,690	566,835
-36,213	22,347	958,023	566,357
-35,198	22,332	956,845	565,590
-34,184	22,362	956,365	565,381
-33,169	22,346	955,563	564,832
-32,154	22,435	954,522	564,481
-31,140	22,425	953,676	563,928
-30,125	22,442	952,637	563,346
-29,111	22,410	952,031	562,861
-28,096	22,443	951,363	562,551
-27,082	22,405	950,698	562,012
-26,067	22,417	949,829	561,515
-25,052	22,358	949,356	561,025
-24,038	22,407	948,562	560,691
-23,023	22,451	948,082	560,526
-22,009	22,451	947,204	559,985
-20,994	22,451	946,666	559,643
-19,979	22,489	946,014	559,357
-18,965	22,477	945,416	558,943
-17,950	22,512	944,906	558,731
-16,936	22,373	944,217	557,857
-15,921	22,363	943,482	557,371
-14,906	22,357	942,624	556,821
-13,892	22,346	942,168	556,495
-12,877	22,293	941,522	555,923
-11,863	22,265	940,752	555,357
-10,848	22,298	940,323	555,189
-9,833	22,349	940,055	555,169
-8,819	22,316	939,376	554,642
-7,804	22,292	938,465	554,004
-6,790	22,271	938,011	553,649
-5,775	22,345	937,208	553,387
-4,760	22,272	936,927	552,969
-3,746	22,231	936,351	552,478
-2,731	22,182	935,433	551,758
-1,717	22,186	934,722	551,329
-0,702	22,151	933,981	550,761
0,313	21,934	933,390	550,559
1,327	25,077	931,393	559,215
2,342	34,704	796,046	503,590
3,356	32,761	451,450	282,643
4,371	1,684	293,685	152,874
5,386	-2,584	274,561	138,870
6,400	-4,169	268,729	134,439
7,415	-4,689	266,137	132,653
8,429	-4,430	264,974	132,298
9,444	-4,420	264,224	131,921
10,459	-4,596	263,651	131,463
11,473	-4,739	263,045	131,019
12,488	-4,700	262,440	130,742
13,502	-4,820	261,941	130,373
14,517	-4,868	261,584	130,140
15,531	-4,878	261,168	129,913
16,546	-4,685	260,758	129,871
17,561	-4,627	260,272	129,669
18,575	-4,590	260,062	129,586
19,590	-4,714	259,829	129,347
20,604	-4,640	259,395	129,186
21,619	-4,638	259,194	129,076
22,634	-4,707	258,767	128,791
23,648	-4,700	258,374	128,590
24,663	-4,737	258,113	128,416
25,677	-4,854	258,057	128,272
26,692	-4,759	257,740	128,187
27,707	-4,710	257,430	128,065
28,721	-4,704	257,136	127,913
29,736	-4,738	256,884	127,747
30,750	-4,868	256,747	127,552
31,765	-4,860	256,515	127,432
32,780	-4,766	256,199	127,347
33,794	-4,742	256,063	127,289
34,809	-4,860	255,804	127,045
35,823	-4,831	255,610	126,963
36,838	-4,749	255,257	126,848
37,853	-4,865	255,036	126,625
38,867	-5,009	255,000	126,469
39,882	-4,822	254,703	126,475
40,896	-4,795	254,477	126,375
41,911	-4,816	254,122	126,169
42,926	-4,900	253,863	125,955
43,940	-4,797	253,575	125,892
44,955	-4,802	253,412	125,795
45,969	-4,798	253,120	125,642
46,984	-5,293	253,086	125,183
47,999	-5,435	252,780	124,898
49,013	-5,592	252,382	124,553
50,028	-5,692	252,318	124,423
51,042	-5,664	251,931	124,246
52,057	-5,595	251,618	124,140
53,071	-5,808	251,591	123,932
54,086	-5,532	251,439	124,084
55,101	-5,439	251,274	124,073
56,115	-5,279	251,219	124,172
57,130	-4,693	251,163	124,639
58,144	-4,407	250,842	124,715
59,159	-4,666	250,641	124,381
60,174	-4,513	250,516	124,440
61,188	-4,677	250,284	124,173
62,203	-4,722	250,035	123,999
63,217	-4,838	249,928	123,836
64,232	-4,630	249,685	123,883
65,247	-4,634	249,332	123,693
66,261	-4,707	249,175	123,542
67,276	-4,862	248,919	123,271
68,290	-4,951	248,629	123,041
69,305	-5,311	248,542	122,679
70,320	-5,276	248,303	122,581
71,334	-4,800	248,174	122,911
72,349	-4,665	248,052	122,954
73,363	-4,547	247,838	122,938
74,378	-4,637	247,768	122,816
75,393	-4,789	247,457	122,521
76,407	-4,698	247,143	122,432
77,422	-4,730	247,018	122,333
78,436	-4,626	246,815	122,309
79,451	-4,679	246,575	122,134
80,466	-4,731	246,403	121,994
81,480	-4,950	246,087	121,642
82,495	-4,968	245,999	121,573
83,509	-4,959	245,901	121,521
84,524	-4,934	245,569	121,367
85,539	-5,301	245,458	120,993
86,553	-5,173	245,122	120,923
87,568	-4,934	244,974	121,041
88,582	-4,929	244,777	120,937
89,597	-5,033	244,686	120,793
90,611	-4,948	244,579	120,802
91,626	-4,816	244,499	120,862
92,641	-4,950	244,260	120,621
93,655	-4,859	244,003	120,559
94,670	-4,999	243,846	120,354
95,684	-4,865	243,721	120,393
96,699	-4,955	243,487	120,191
97,714	-4,927	243,273	120,098
98,728	-5,023	243,077	119,911
99,743	-5,197	242,735	119,588
100,757	-5,156	242,368	119,430
101,772	-5,133	242,418	119,463
102,787	-5,168	242,325	119,378
103,801	-5,130	242,105	119,290
104,816	-4,880	242,040	119,455
105,830	-4,929	242,004	119,385
106,845	-4,585	241,693	119,505
107,860	-4,868	241,521	119,176
108,874	-4,909	241,255	119,001
109,889	-4,679	240,993	119,051
110,903	-4,850	240,811	118,809
111,918	-5,120	240,688	118,515
112,933	-4,979	240,489	118,523
113,947	-4,952	240,422	118,502
114,962	-4,890	240,304	118,484
115,976	-4,874	240,048	118,360
116,991	-4,741	239,833	118,353
118,006	-4,847	239,775	118,226
119,020	-4,713	239,640	118,259
120,035	-4,844	239,565	118,105
121,049	-4,607	239,248	118,131
122,064	-4,812	239,224	117,941
123,079	-4,800	238,931	117,796
124,093	-4,807	238,730	117,681
125,108	-5,168	238,493	117,260
126,122	-5,170	238,247	117,127
127,137	-5,434	238,134	116,846
128,151	-5,252	237,938	116,887
129,166	-5,008	237,711	116,963
130,181	-5,054	237,585	116,854
131,195	-5,135	237,302	116,638
132,210	-5,144	237,342	116,640
133,224	-4,887	237,242	116,788
134,239	-4,730	237,098	116,834
135,254	-4,582	236,650	116,723
136,268	-4,937	236,511	116,358
137,283	-5,303	236,293	115,944
138,297	-5,283	236,055	115,833
139,312	-5,378	235,953	115,696
140,327	-5,053	235,839	115,892
141,341	-4,458	235,992	116,436
142,356	-4,550	235,713	116,214
143,370	-4,420	235,535	116,220
144,385	-4,519	235,505	116,116
145,400	-4,505	235,236	115,984
146,414	-4,302	235,016	116,028
147,429	-4,528	234,981	115,819
148,443	-4,546	234,672	115,642
149,458	-4,391	234,520	115,681
150,473	-4,510	234,313	115,473
151,487	-4,537	234,098	115,335
152,502	-4,511	234,027	115,310
153,516	-4,424	233,834	115,275
154,531	-4,573	233,753	115,106
155,546	-4,557	233,530	114,998
156,560	-4,640	233,256	114,787
157,575	-4,805	233,174	114,606
158,589	-4,885	232,955	114,424
159,604	-4,387	232,924	114,794
160,619	-4,271	232,625	114,729
161,633	-4,454	232,531	114,527
162,648	-4,190	232,368	114,646
163,662	-4,498	232,246	114,331
164,677	-4,616	232,036	114,124
165,692	-4,642	231,932	114,042
166,706	-4,361	231,890	114,233
167,721	-4,560	231,769	114,006
168,735	-4,283	231,476	114,071
169,750	-4,343	231,469	114,010
170,764	-4,492	231,319	113,808
171,779	-4,559	231,234	113,704
172,794	-4,400	231,032	113,719
173,808	-4,546	230,663	113,413
174,823	-5,020	230,353	112,878
175,837	-4,971	230,027	112,747
176,852	-4,787	230,133	112,933
177,867	-4,428	230,013	113,145
178,881	-4,437	229,872	113,059
179,896	-4,604	229,884	112,924
180,910	-4,437	229,717	112,962
181,925	-4,450	229,649	112,909
182,940	-4,234	229,346	112,918
183,954	-4,490	229,274	112,673
184,969	-4,133	229,110	112,860
185,983	-4,260	228,922	112,659
186,998	-4,401	228,770	112,464
188,013	-4,201	228,526	112,490
189,027	-4,349	228,458	112,332
190,042	-4,499	228,366	112,159
191,056	-4,434	228,146	112,092
192,071	-4,349	227,996	112,074
193,086	-4,453	227,766	111,871
194,100	-4,429	227,735	111,864
195,115	-4,691	227,420	111,497
196,129	-4,974	227,146	111,135
197,144	-1,640	228,131	114,187
198,159	2,118	229,260	117,658
199,173	4,055	229,822	119,440
200,188	4,229	229,563	119,430
201,202	4,261	229,396	119,357
202,217	4,764	229,216	119,641
203,232	4,711	229,212	119,588
204,246	4,827	228,971	119,541
205,261	4,807	228,902	119,479
206,275	4,887	228,884	119,521
207,290	4,984	228,876	119,581
208,304	4,867	228,523	119,296
209,319	5,019	228,446	119,361
210,334	4,877	228,123	119,074
211,348	4,534	227,988	118,728
212,363	4,269	227,746	118,388
213,377	3,991	227,472	118,022
214,392	4,206	227,330	118,102
215,407	4,026	227,292	117,934
216,421	4,305	227,136	118,056
217,436	4,236	226,833	117,836
218,450	4,034	226,547	117,523
219,465	3,739	226,499	117,262
220,480	3,902	226,434	117,343
221,494	3,765	226,291	117,154
222,509	3,833	226,283	117,190
223,523	3,832	225,988	117,026
224,538	3,989	225,908	117,094
225,553	4,026	225,682	116,995
226,567	4,150	225,647	117,060
227,582	4,424	225,558	117,212
228,596	4,270	225,460	117,033
229,611	4,183	225,129	116,785
230,626	4,075	224,964	116,607
231,640	4,019	224,892	116,517
232,655	4,378	224,650	116,653
233,669	4,723	224,681	116,920
234,684	4,644	224,582	116,798
235,699	4,514	224,336	116,562
236,713	4,100	224,301	116,220
237,728	4,014	224,000	115,989
238,742	3,852	223,775	115,741
239,757	3,924	223,772	115,783
240,772	4,224	223,361	115,786
241,786	4,002	223,421	115,639
242,801	4,023	223,507	115,689
243,815	4,167	223,247	115,652
244,830	4,429	223,081	115,753
245,844	4,060	222,911	115,377
246,859	4,150	222,687	115,319
247,874	4,218	222,607	115,318
248,888	4,305	222,388	115,259
249,903	4,204	222,189	115,070
250,917	4,147	222,129	114,987
251,932	4,104	221,920	114,836
252,947	3,882	221,921	114,660
253,961	4,041	221,640	114,624
254,976	4,113	221,366	114,525
255,990	4,386	221,372	114,721
257,005	4,483	221,277	114,734
258,020	4,536	221,091	114,667
259,034	4,499	220,979	114,571
260,049	4,350	220,904	114,411
261,063	4,304	220,811	114,318
262,078	4,357	220,663	114,271
263,093	4,505	220,460	114,265
264,107	4,189	220,317	113,947
265,122	4,310	220,205	113,969
266,136	4,670	220,161	114,201
267,151	4,440	220,032	113,954
268,166	4,078	219,758	113,536
269,180	3,961	219,473	113,292
270,195	3,768	219,451	113,128
271,209	3,824	219,201	113,031
272,224	3,999	219,121	113,108
273,239	4,264	219,014	113,237
274,253	3,958	218,815	112,900
275,268	3,861	218,589	112,702
276,282	3,598	218,430	112,418
277,297	3,826	218,233	112,473
278,312	3,880	218,249	112,510
279,326	3,911	218,090	112,441
280,341	4,244	217,859	112,555
281,355	4,102	217,828	112,426
282,370	4,065	217,754	112,350
283,384	3,852	217,498	112,053
284,399	3,894	217,392	112,019
285,414	3,807	217,342	111,920
286,428	4,037	217,163	111,985
287,443	4,107	217,094	111,991
288,457	4,267	216,880	111,986
289,472	4,273	216,717	111,897
290,487	3,519	216,476	111,215
291,501	3,474	216,195	111,028
292,516	3,639	216,261	111,172
293,530	3,951	216,235	111,375
294,545	3,679	215,984	111,039
295,560	3,842	215,845	111,076
296,574	3,769	215,852	111,016
297,589	3,977	215,622	111,039
298,603	4,101	215,568	111,090
299,618	4,034	215,315	110,901
300,633	3,999	215,308	110,863
301,647	4,485	215,101	111,096
302,662	4,424	215,059	111,020
303,676	4,209	214,911	110,780
304,691	4,494	214,670	110,850
305,706	4,304	214,660	110,699
306,720	4,137	214,558	110,516
307,735	4,053	214,363	110,345
308,749	3,857	214,143	110,082
309,764	4,045	214,072	110,171
310,779	4,327	213,980	110,315
311,793	4,198	213,650	110,044
312,808	4,315	213,466	110,022
313,822	4,257	213,469	109,973
314,837	4,158	213,270	109,789
315,852	4,008	213,108	109,589
316,866	4,036	213,131	109,611
317,881	4,408	212,906	109,751
318,895	4,288	212,800	109,601
319,910	4,059	212,648	109,350
320,925	3,631	212,414	108,916
321,939	3,536	212,250	108,755
322,954	3,744	212,111	108,822
323,968	3,930	212,066	108,920
324,983	4,212	211,919	109,035
325,997	4,356	211,915	109,125
327,012	4,052	211,730	108,805
328,027	4,134	211,481	108,726
329,041	4,357	211,531	108,898
330,056	4,472	211,405	108,905
331,070	4,009	211,113	108,419
332,085	4,004	210,915	108,304
333,100	3,849	210,770	108,111
334,114	3,895	210,783	108,140
335,129	4,023	210,541	108,096
336,143	3,951	210,357	107,942
337,158	4,132	210,231	107,995
338,173	4,074	210,246	107,951
339,187	3,887	209,914	107,640
340,202	3,730	209,773	107,449
341,216	3,890	209,538	107,431
342,231	3,902	209,605	107,465
343,246	3,785	209,506	107,322
344,260	3,658	209,444	107,192
345,275	3,947	209,254	107,287
346,289	4,113	209,190	107,360
347,304	4,026	209,169	107,279
348,319	4,054	208,973	107,188
349,333	3,957	208,857	107,052
350,348	4,071	208,708	107,045
351,362	4,237	208,526	107,058
352,377	4,241	208,425	106,999
353,392	3,927	208,182	106,647
354,406	3,806	208,199	106,563
355,421	194,780	1343,692	1435,026
356,435	155,450	1482,143	1435,146
