DTS Sentinel unit serial number:	SN410029Multiplexer serial number:	ORYXHardware model number:	OX2-SRSoftware version number:	ORYX F/W v4,00 Oryx Data Collector v3.7.2.0data status	okinstallation	B6 Nyhavnadifferential loss correction	single-endedforward channel	channel 2reverse channel	N/Adate	2023/12/10time	07:25:08forward acquisition time	300,00reverse acquisition time	0,00gamma	499,1914k internal	0,3124k external	0,3124temperature offset calibration	1,0000default loss term (dB/km)	0,3820temperature slope calibration	1,0000multiplexer offset coefficient	1,0000multiplexer slope coefficient	1,0000fibre end	0,00T internal ref (°C)	22,62T ext. ref 1 (°C)	6,31T ext. ref 2 (°C)	6,30length (m)	temperature (°C)	Stokes	anti-Stokes-744,400	-200,000	-0,001	-0,092
-743,385	93,237	-0,126	0,106
-742,371	72,988	0,006	-0,005
-741,356	146,578	-0,304	0,304
-740,342	800,000	-0,046	0,114
-739,327	-35,199	-0,122	0,049
-738,312	-200,000	-0,053	-0,223
-737,298	-100,278	-0,317	0,058
-736,283	800,000	0,048	-0,120
-735,269	-104,251	-0,232	0,040
-734,254	-74,496	-0,056	-0,015
-733,239	-1,928	-0,357	-0,186
-732,225	294,892	0,039	-0,054
-731,210	243,648	0,151	0,189
-730,196	49,691	-0,072	0,050
-729,181	800,000	-0,024	-0,066
-728,167	-50,046	0,021	0,007
-727,152	264,220	0,072	-0,093
-726,137	165,674	-0,166	-0,175
-725,123	206,372	-0,055	-0,064
-724,108	-200,000	-0,008	-0,045
-723,094	167,238	-0,104	-0,111
-722,079	-200,000	-0,019	-0,139
-721,064	35,119	-0,086	0,056
-720,050	78,144	0,036	0,029
-719,035	-200,000	0,002	0,104
-718,021	-92,489	-0,115	0,024
-717,006	800,000	-0,035	0,080
-715,991	-200,000	-0,011	-0,094
-714,977	333,288	0,057	0,082
-713,962	300,181	-0,060	0,082
-712,948	800,000	-0,039	0,091
-711,933	40,918	0,117	-0,078
-710,918	800,000	-0,031	0,085
-709,904	-177,517	-0,097	-0,002
-708,889	-200,000	0,024	0,148
-707,875	4,972	-0,043	-0,023
-706,860	32,820	0,066	-0,043
-705,845	56,201	-0,039	0,028
-704,831	-7,994	-0,040	0,020
-703,816	-18,176	-0,041	0,019
-702,802	215,350	0,093	-0,110
-701,787	-200,000	-0,002	-0,032
-700,772	12,094	-0,027	0,015
-699,758	58,719	0,020	0,014
-698,743	-200,000	-0,001	0,065
-697,729	33,061	0,135	0,087
-696,714	485,254	0,006	0,011
-695,699	174,263	-0,042	-0,045
-694,685	-200,000	0,000	-0,149
-693,670	285,828	0,044	-0,059
-692,656	567,018	0,075	0,136
-691,641	-157,956	-0,068	0,003
-690,627	-162,588	-0,145	0,005
-689,612	80,522	-0,083	0,067
-688,597	183,506	0,044	-0,049
-687,583	-200,000	0,023	-0,082
-686,568	130,661	-0,071	-0,068
-685,554	-179,643	-0,103	-0,002
-684,539	245,813	0,074	0,093
-683,524	800,000	-0,040	0,089
-682,510	141,442	-0,122	0,120
-681,495	151,141	-0,023	-0,023
-680,481	-58,032	-0,092	-0,030
-679,466	537,109	-0,103	-0,183
-678,451	96,844	-0,075	-0,064
-677,437	410,273	0,019	-0,030
-676,422	-200,000	-0,024	0,171
-675,408	-43,842	-0,148	-0,055
-674,393	-200,000	0,037	-0,143
-673,378	-200,000	0,001	0,006
-672,364	-81,866	-0,050	-0,012
-671,349	-7,977	-0,046	0,023
-670,335	-68,013	-0,104	0,030
-669,320	46,291	-0,053	-0,037
-668,305	107,867	-0,093	0,083
-667,291	-200,000	-0,017	0,156
-666,276	-58,196	0,059	-0,019
-665,262	-55,182	-0,137	0,046
-664,247	76,411	0,055	0,043
-663,232	-200,000	0,007	0,025
-662,218	81,400	-0,057	0,046
-661,203	-26,052	0,096	-0,042
-660,189	109,961	-0,052	0,046
-659,174	97,454	-0,093	-0,079
-658,159	-200,000	0,008	-0,064
-657,145	800,000	0,007	0,023
-656,130	-90,133	-0,049	-0,011
-655,116	-200,000	0,019	0,066
-654,101	-30,944	0,149	-0,062
-653,086	538,415	-0,026	0,046
-652,072	-51,813	-0,094	-0,032
-651,057	-84,391	-0,010	0,002
-650,043	373,853	-0,109	-0,165
-649,028	-71,870	-0,041	0,011
-648,014	405,654	-0,034	0,053
-646,999	695,426	0,031	0,061
-645,984	-156,508	0,033	-0,001
-644,970	-200,000	0,018	0,103
-643,955	-18,822	0,132	0,061
-642,941	212,307	-0,058	-0,068
-641,926	-47,940	-0,118	-0,042
-640,911	800,000	0,036	-0,075
-639,897	-194,528	-0,041	0,000
-638,882	-200,000	-0,025	0,090
-637,868	391,664	-0,055	0,085
-636,853	-133,052	-0,096	-0,009
-635,838	534,592	0,083	-0,147
-634,824	-176,150	-0,136	-0,003
-633,809	780,572	0,034	0,070
-632,795	20,198	0,077	0,046
-631,780	83,637	0,065	0,052
-630,765	800,000	0,038	-0,118
-629,751	-31,654	-0,134	-0,055
-628,736	800,000	-0,019	0,060
-627,722	57,843	0,055	-0,040
-626,707	201,861	-0,067	-0,076
-625,692	33,075	0,035	0,022
-624,678	238,803	-0,036	0,044
-623,663	-20,041	-0,044	0,020
-622,649	286,334	-0,072	-0,096
-621,634	-200,000	-0,182	-0,000
-620,619	-49,994	-0,118	0,041
-619,605	800,000	0,031	-0,101
-618,590	10,755	0,134	-0,075
-617,576	-162,739	-0,101	0,004
-616,561	-200,000	-0,009	-0,061
-615,546	14,794	0,058	0,034
-614,532	163,981	-0,099	-0,104
-613,517	236,311	0,051	-0,062
-612,503	382,382	-0,003	-0,005
-611,488	183,890	-0,015	0,017
-610,474	-200,000	-0,027	0,098
-609,459	-200,000	-0,056	0,213
-608,444	-149,890	-0,080	-0,005
-607,430	-47,246	0,019	-0,007
-606,415	-66,632	-0,125	-0,037
-605,401	-173,694	0,054	-0,001
-604,386	177,601	0,043	0,047
-603,371	-200,000	0,026	0,085
-602,357	800,000	-0,047	0,107
-601,342	-83,880	-0,131	-0,031
-600,328	-95,405	-0,124	-0,025
-599,313	16,339	-0,149	-0,087
-598,298	677,577	0,015	-0,030
-597,284	800,000	-0,065	-0,142
-596,269	-121,439	-0,105	0,013
-595,255	-26,296	-0,209	-0,091
-594,240	800,000	-0,021	0,049
-593,225	-200,000	0,001	0,057
-592,211	460,089	-0,045	-0,074
-591,196	154,878	0,029	-0,029
-590,182	-200,000	-0,023	0,103
-589,167	-160,889	-0,050	-0,002
-588,152	460,715	0,115	0,191
-587,138	-63,648	-0,083	-0,025
-586,123	212,374	0,023	0,027
-585,109	-200,000	-0,013	-0,151
-584,094	-33,670	0,038	0,015
-583,079	199,015	-0,090	0,102
-582,065	90,582	-0,042	0,035
-581,050	-167,170	-0,048	0,001
-580,036	-200,000	-0,021	0,118
-579,021	92,316	-0,069	0,058
-578,006	-200,000	-0,028	-0,100
-576,992	692,522	0,046	-0,090
-575,977	162,655	0,088	0,091
-574,963	25,324	0,076	0,046
-573,948	-2,674	-0,181	-0,093
-572,934	104,536	0,065	0,057
-571,919	53,426	-0,060	-0,042
-570,904	-127,905	-0,078	-0,008
-569,890	-200,000	0,024	-0,106
-568,875	-101,835	-0,050	0,009
-567,861	-129,933	0,040	-0,004
-566,846	-140,872	-0,151	0,011
-565,831	-200,000	0,009	-0,093
-564,817	24,160	-0,045	-0,028
-563,802	-88,495	-0,050	0,011
-562,788	396,820	0,074	-0,116
-561,773	20,688	-0,147	0,088
-560,758	-1,189	0,093	0,048
-559,744	161,526	0,013	0,014
-558,729	-33,199	0,085	0,035
-557,715	436,130	-0,102	-0,165
-556,700	242,403	-0,123	-0,153
-555,685	-86,380	0,088	0,020
-554,671	-200,000	-0,000	-0,121
-553,656	493,401	0,097	-0,165
-552,642	-102,469	-0,062	0,011
-551,627	-200,000	-0,004	0,081
-550,612	102,703	-0,132	0,114
-549,598	-126,374	-0,083	0,009
-548,583	-47,636	-0,037	-0,013
-547,569	-200,000	-0,007	0,063
-546,554	-200,000	-0,007	0,101
-545,539	242,937	0,046	0,057
-544,525	-68,627	0,073	0,021
-543,510	62,896	0,019	0,014
-542,496	-200,000	-0,009	-0,059
-541,481	-18,323	-0,104	-0,048
-540,466	317,714	-0,034	-0,048
-539,452	-28,739	-0,107	0,045
-538,437	135,277	0,097	0,094
-537,423	-48,933	-0,064	-0,022
-536,408	800,000	0,045	-0,108
-535,393	-200,000	-0,012	-0,064
-534,379	154,639	-0,104	-0,105
-533,364	800,000	0,027	-0,083
-532,350	-103,941	0,123	-0,021
-531,335	-200,000	-0,003	-0,075
-530,321	-5,512	-0,064	-0,032
-529,306	-119,008	0,105	0,013
-528,291	483,622	-0,023	0,039
-527,277	13,281	0,119	-0,068
-526,262	90,005	-0,066	0,055
-525,248	488,716	-0,017	0,028
-524,233	-200,000	-0,017	0,069
-523,218	314,297	0,012	-0,017
-522,204	-200,000	-0,040	-0,162
-521,189	14,947	-0,107	-0,062
-520,175	-110,635	-0,107	0,016
-519,160	-109,409	-0,158	-0,025
-518,145	-158,373	0,080	0,003
-517,131	-200,000	-0,008	-0,120
-516,116	-74,231	0,031	-0,008
-515,102	800,000	0,066	0,166
-514,087	-23,199	-0,151	0,067
-513,072	800,000	0,043	-0,088
-512,058	-200,000	0,003	0,086
-511,043	800,000	-0,008	-0,024
-510,029	-16,791	0,043	0,020
-509,014	9,884	-0,028	-0,016
-507,999	-188,405	0,082	-0,001
-506,985	-108,536	-0,048	0,008
-505,970	-9,842	-0,134	-0,066
-504,956	-26,088	0,122	-0,053
-503,941	-200,000	0,014	-0,104
-502,926	182,405	0,082	0,090
-501,912	-95,425	0,102	-0,020
-500,897	237,002	-0,017	0,020
-499,883	-88,006	-0,088	-0,019
-498,868	529,523	0,016	0,027
-497,853	165,736	-0,116	-0,121
-496,839	483,983	0,034	0,058
-495,824	-200,000	-0,018	0,086
-494,810	-200,000	-0,003	-0,037
-493,795	-23,222	-0,170	-0,075
-492,781	800,000	0,031	-0,065
-491,766	729,892	-0,044	-0,087
-490,751	46,959	-0,092	-0,063
-489,737	379,858	-0,060	-0,090
-488,722	689,761	0,063	-0,123
-487,708	800,000	0,017	0,049
-486,693	800,000	-0,008	0,021
-485,678	-200,000	0,008	0,082
-484,664	-200,000	0,005	-0,043
-483,649	236,442	0,063	-0,078
-482,635	800,000	-0,022	-0,050
-481,620	333,794	0,078	-0,112
-480,605	-81,315	0,052	-0,013
-479,591	-200,000	-0,029	0,229
-478,576	-96,174	0,135	0,026
-477,562	-200,000	-0,055	0,240
-476,547	800,000	-0,030	-0,072
-475,532	654,058	0,028	0,052
-474,518	149,234	0,050	0,050
-473,503	10,217	0,073	0,041
-472,489	317,297	0,066	-0,092
-471,474	-176,103	-0,090	-0,002
-470,459	360,666	-0,067	0,099
-469,445	330,788	-0,088	-0,126
-468,430	-200,000	0,004	-0,015
-467,416	539,137	-0,091	-0,160
-466,401	-138,486	0,073	0,006
-465,386	325,909	0,029	-0,042
-464,372	-178,702	0,079	0,001
-463,357	133,050	-0,128	-0,122
-462,343	-200,000	0,008	-0,065
-461,328	-200,000	-0,013	0,049
-460,313	-118,488	0,138	0,018
-459,299	800,000	0,020	0,044
-458,284	-134,652	0,089	-0,008
-457,270	-94,719	-0,015	-0,003
-456,255	-12,065	-0,075	0,036
-455,241	134,860	-0,082	-0,079
-454,226	-130,594	0,043	0,004
-453,211	-200,000	0,001	0,039
-452,197	-34,089	-0,021	-0,009
-451,182	-64,566	0,108	0,032
-450,168	-17,649	-0,188	0,087
-449,153	-200,000	-0,018	-0,087
-448,138	301,299	-0,025	-0,034
-447,124	-200,000	0,009	-0,121
-446,109	-84,547	-0,052	0,012
-445,095	-200,000	0,016	0,083
-444,080	800,000	0,039	0,082
-443,065	-200,000	-0,013	0,057
-442,051	193,055	-0,016	-0,017
-441,036	379,233	-0,123	-0,187
-440,022	15,162	-0,087	0,050
-439,007	-64,489	0,065	0,019
-437,992	-200,000	0,016	0,150
-436,978	-117,022	0,114	-0,015
-435,963	-200,000	-0,023	0,088
-434,949	-74,761	0,038	-0,010
-433,934	-177,135	-0,138	-0,002
-432,919	182,720	0,082	0,089
-431,905	-200,000	-0,011	-0,052
-430,890	-119,109	-0,085	0,011
-429,876	-28,368	0,087	0,037
-428,861	-48,758	-0,082	0,029
-427,846	5,118	0,063	0,034
-426,832	176,570	-0,045	-0,048
-425,817	118,196	0,094	-0,086
-424,803	800,000	-0,040	0,111
-423,788	-62,212	0,101	0,031
-422,773	-7,340	0,162	0,081
-421,759	-124,995	-0,179	-0,020
-420,744	-103,024	0,148	-0,026
-419,730	105,567	-0,099	0,086
-418,715	78,834	-0,174	0,137
-417,701	543,466	-0,070	0,123
-416,686	26,947	0,077	0,047
-415,671	171,039	-0,036	0,038
-414,657	69,936	0,051	0,038
-413,642	192,759	0,086	-0,095
-412,628	337,960	-0,026	0,038
-411,613	800,000	0,015	0,032
-410,598	-130,786	0,102	0,010
-409,584	45,066	-0,066	-0,044
-408,569	219,559	-0,074	-0,088
-407,555	19,991	0,082	0,048
-406,540	-200,000	0,011	0,051
-405,525	-200,000	0,013	-0,082
-404,511	46,257	-0,099	0,067
-403,496	481,565	0,039	-0,066
-402,482	-200,000	-0,010	-0,063
-401,467	-200,000	-0,043	-0,139
-400,452	109,646	-0,019	-0,016
-399,438	-23,683	0,088	0,039
-398,423	-200,000	-0,039	0,142
-397,409	800,000	-0,072	-0,151
-396,394	206,241	0,104	-0,120
-395,379	-61,472	-0,125	-0,038
-394,365	800,000	-0,018	-0,055
-393,350	-200,000	0,000	0,060
-392,336	-18,978	-0,144	0,066
-391,321	211,244	-0,059	-0,068
-390,306	-185,393	-0,041	0,000
-389,292	-78,469	0,102	-0,025
-388,277	93,868	0,061	-0,051
-387,263	-100,091	0,128	-0,023
-386,248	-200,000	-0,014	-0,054
-385,233	-200,000	-0,007	-0,035
-384,219	-94,451	0,133	-0,026
-383,204	-143,526	-0,105	-0,007
-382,190	622,287	-0,020	-0,038
-381,175	32,111	0,100	-0,063
-380,160	171,431	0,107	-0,113
-379,146	-122,158	0,172	-0,021
-378,131	17,489	-0,080	-0,047
-377,117	0,039	0,108	-0,056
-376,102	119,959	-0,015	0,013
-375,088	800,000	0,044	0,098
-374,073	58,091	-0,048	0,035
-373,058	563,389	0,041	0,074
-372,044	-131,082	0,162	0,016
-371,029	-148,617	-0,128	0,008
-370,015	800,000	0,052	0,124
-369,000	696,822	-0,035	0,067
-367,985	-200,000	0,006	-0,047
-366,971	41,155	0,103	0,068
-365,956	-46,519	-0,054	-0,019
-364,942	-79,845	0,119	0,029
-363,927	262,301	0,027	-0,035
-362,912	221,011	-0,073	0,086
-361,898	-119,308	0,089	-0,011
-360,883	-83,429	0,055	0,013
-359,869	-68,824	0,077	0,022
-358,854	-25,991	-0,027	-0,011
-357,839	-200,000	-0,007	0,111
-356,825	144,550	-0,048	0,047
-355,810	371,293	0,034	0,050
-354,796	68,943	-0,088	-0,066
-353,781	-200,000	0,006	0,121
-352,766	322,244	-0,080	0,111
-351,752	800,000	0,022	-0,071
-350,737	-200,000	0,024	0,126
-349,723	-46,719	-0,027	0,010
-348,708	-200,000	-0,018	-0,101
-347,693	364,239	0,104	-0,155
-346,679	182,952	0,043	0,046
-345,664	-200,000	-0,016	-0,070
-344,650	399,333	-0,041	-0,063
-343,635	-200,000	0,042	0,151
-342,620	71,780	0,081	0,062
-341,606	0,512	0,101	0,053
-340,591	800,000	0,016	-0,043
-339,577	-62,958	0,070	0,021
-338,562	-200,000	-0,020	-0,074
-337,548	-200,000	0,001	0,010
-336,533	-66,900	0,140	-0,040
-335,518	-110,352	0,170	0,026
-334,504	800,000	-0,026	-0,054
-333,489	800,000	0,036	-0,077
-332,475	-200,000	0,016	-0,159
-331,460	249,970	0,063	0,078
-330,445	-200,000	-0,017	-0,107
-329,431	-48,711	0,140	0,049
-328,416	115,146	0,077	0,069
-327,402	224,613	0,085	0,101
-326,387	800,000	0,014	0,033
-325,372	-87,390	0,096	-0,021
-324,358	239,940	0,084	-0,102
-323,343	216,308	0,023	-0,026
-322,329	-173,853	0,061	-0,001
-321,314	-14,035	0,080	0,038
-320,299	-200,000	-0,041	-0,149
-319,285	-46,351	-0,064	-0,023
-318,270	800,000	-0,028	0,064
-317,256	7,709	0,105	-0,058
-316,241	90,809	-0,163	-0,134
-315,226	-101,274	0,099	0,018
-314,212	-16,540	0,112	-0,052
-313,197	152,544	-0,058	0,058
-312,183	146,643	0,026	0,026
-311,168	294,193	0,015	0,020
-310,153	0,856	-0,113	-0,059
-309,139	514,368	0,051	-0,088
-308,124	329,751	0,083	-0,117
-307,110	-134,606	-0,014	-0,001
-306,095	144,733	0,072	-0,071
-305,080	-200,000	0,009	0,030
-304,066	800,000	-0,026	0,056
-303,051	562,725	0,056	-0,099
-302,037	-105,612	-0,112	-0,018
-301,022	140,749	0,090	0,087
-300,008	134,704	0,112	0,106
-298,993	-45,413	0,111	0,040
-297,978	-200,000	0,011	-0,069
-296,964	-115,061	-0,093	0,013
-295,949	86,898	0,085	-0,069
-294,935	292,730	0,105	-0,141
-293,920	800,000	-0,026	0,076
-292,905	-86,283	-0,121	-0,027
-291,891	800,000	0,045	0,109
-290,876	216,033	-0,091	0,106
-289,862	-200,000	-0,014	0,111
-288,847	-99,458	0,128	-0,023
-287,832	-37,485	-0,168	-0,065
-286,818	-100,646	0,142	-0,025
-285,803	269,057	0,047	0,061
-284,789	482,577	-0,037	0,061
-283,774	-200,000	-0,022	0,222
-282,759	-131,965	-0,126	-0,012
-281,745	267,976	0,128	-0,165
-280,730	-200,000	0,020	-0,157
-279,716	-126,395	0,058	0,006
-278,701	-200,000	0,011	-0,110
-277,686	453,679	0,037	0,060
-276,672	-200,000	0,003	-0,013
-275,657	-200,000	-0,010	-0,065
-274,643	184,332	-0,018	0,019
-273,628	-200,000	0,030	-0,099
-272,613	550,579	-0,069	0,121
-271,599	-101,530	0,044	0,008
-270,584	-200,000	-0,003	0,091
-269,570	-14,924	0,039	0,018
-268,555	253,172	-0,051	0,064
-267,540	-200,000	0,015	-0,099
-266,526	-200,000	0,001	0,128
-265,511	181,389	0,093	0,100
-264,497	-200,000	-0,000	0,139
-263,482	800,000	0,032	0,077
-262,467	-60,956	0,018	-0,006
-261,453	84,855	-0,033	-0,026
-260,438	15,842	0,066	-0,038
-259,424	800,000	0,027	-0,073
-258,409	-60,092	-0,085	-0,026
-257,395	367,296	-0,041	0,060
-256,380	-102,741	0,176	-0,030
-255,365	170,597	0,100	0,104
-254,351	-123,149	0,197	-0,023
-253,336	-200,000	0,001	-0,077
-252,322	800,000	-0,045	-0,095
-251,307	-200,000	0,023	-0,141
-250,292	-200,000	-0,002	-0,039
-249,278	370,206	0,055	0,082
-248,263	-50,565	-0,082	0,028
-247,249	60,027	-0,049	0,036
-246,234	537,012	-0,006	-0,011
-245,219	16,888	-0,109	-0,063
-244,205	49,433	0,158	0,109
-243,190	-200,000	-0,051	-0,192
-242,176	42,221	0,055	0,036
-241,161	-200,000	0,024	0,141
-240,146	331,162	-0,082	0,116
-239,132	-71,536	0,059	-0,016
-238,117	-185,973	-0,132	-0,001
-237,103	-200,000	0,016	0,085
-236,088	800,000	0,086	-0,211
-235,073	-186,432	0,064	-0,001
-234,059	-107,048	0,088	-0,014
-233,044	800,000	0,051	0,128
-232,030	-107,828	0,070	0,011
-231,015	-14,098	-0,054	0,025
-230,000	86,357	-0,056	0,045
-228,986	-91,653	0,058	0,012
-227,971	-71,224	-0,114	0,031
-226,957	-200,000	-0,016	0,055
-225,942	155,350	0,081	0,082
-224,927	94,823	-0,070	-0,058
-223,913	-200,000	0,004	-0,085
-222,898	-51,375	-0,119	0,040
-221,884	-113,028	0,063	0,009
-220,869	800,000	0,017	-0,054
-219,855	-200,000	0,011	0,070
-218,840	-200,000	-0,014	0,105
-217,825	0,149	-0,072	-0,038
-216,811	78,939	0,031	-0,024
-215,796	-200,000	0,003	-0,018
-214,782	-200,000	-0,004	0,048
-213,767	-138,941	0,071	0,006
-212,752	301,030	0,032	-0,043
-211,738	-96,546	-0,005	-0,001
-210,723	800,000	0,044	0,106
-209,709	226,953	0,052	0,062
-208,694	-72,661	0,164	0,044
-207,679	-37,014	0,072	-0,028
-206,665	800,000	0,035	-0,084
-205,650	-200,000	0,017	-0,072
-204,636	-104,637	-0,084	-0,014
-203,621	-39,569	0,121	-0,046
-202,606	-51,462	0,067	-0,023
-201,592	324,176	0,022	0,031
-200,577	-200,000	0,021	-0,089
-199,563	-105,757	-0,087	-0,014
-198,548	67,278	-0,062	0,046
-197,533	-200,000	0,003	0,041
-196,519	211,704	0,070	0,080
-195,504	-200,000	-0,001	0,039
-194,490	800,000	0,022	-0,066
-193,475	45,067	-0,050	0,034
-192,460	-151,640	-0,102	0,005
-191,446	-129,788	-0,131	-0,013
-190,431	800,000	0,044	0,096
-189,417	75,197	-0,098	-0,075
-188,402	-141,876	0,137	0,010
-187,387	800,000	-0,018	0,054
-186,373	-200,000	-0,016	0,076
-185,358	275,397	0,073	-0,094
-184,344	-200,000	-0,019	0,131
-183,329	-44,030	0,120	-0,044
-182,315	-15,294	-0,074	-0,034
-181,300	-200,000	-0,008	0,087
-180,285	747,430	0,075	0,148
-179,271	-115,129	-0,143	0,020
-178,256	-120,190	-0,025	-0,003
-177,242	800,000	-0,045	0,113
-176,227	-67,549	-0,025	0,007
-175,212	190,246	0,028	0,030
-174,198	-200,000	0,021	-0,109
-173,183	20,058	0,032	-0,019
-172,169	-200,000	0,002	0,017
-171,154	0,496	0,056	-0,029
-170,139	-200,000	-0,043	0,143
-169,125	254,420	0,060	0,075
-168,110	691,605	0,040	-0,076
-167,096	-182,607	-0,160	0,002
-166,081	165,493	-0,068	0,070
-165,066	143,944	-0,016	0,015
-164,052	-129,419	-0,180	-0,018
-163,037	-11,517	-0,021	0,010
-162,023	-200,000	0,039	0,221
-161,008	-200,000	0,008	0,141
-159,993	113,033	-0,055	0,048
-158,979	-113,193	-0,040	-0,006
-157,964	-56,054	0,012	0,004
-156,950	218,861	-0,054	-0,063
-155,935	496,510	-0,046	-0,078
-154,920	58,700	0,087	-0,062
-153,906	64,755	0,064	-0,047
-152,891	800,000	-0,037	-0,104
-151,877	85,300	-0,121	0,097
-150,862	71,298	-0,048	-0,036
-149,847	60,070	-0,078	-0,056
-148,833	-200,000	-0,005	0,019
-147,818	-152,698	-0,080	0,004
-146,804	-200,000	-0,011	-0,088
-145,789	206,366	0,124	0,141
-144,775	509,552	-0,040	-0,069
-143,760	5,440	-0,105	-0,056
-142,745	-79,660	-0,196	0,048
-141,731	-59,170	0,088	-0,027
-140,716	484,568	-0,020	-0,033
-139,702	-200,000	-0,010	0,046
-138,687	-6,142	0,085	-0,042
-137,672	226,618	0,069	-0,082
-136,658	170,218	-0,065	-0,068
-135,643	-72,409	0,066	-0,018
-134,629	125,658	0,015	0,014
-133,614	-31,085	0,097	0,040
-132,599	-31,091	0,080	-0,033
-131,585	102,641	0,021	-0,018
-130,570	-121,656	-0,047	-0,006
-129,556	800,000	-0,020	-0,053
-128,541	252,714	0,094	-0,117
-127,526	-17,680	0,090	0,041
-126,512	338,701	0,018	0,025
-125,497	-200,000	-0,015	0,052
-124,483	-7,298	0,101	0,050
-123,468	21,720	-0,044	0,026
-122,453	52,881	-0,072	0,050
-121,439	-21,306	-0,108	-0,048
-120,424	158,093	-0,057	0,058
-119,410	800,000	-0,071	-0,175
-118,395	800,000	0,052	0,157
-117,380	335,189	-0,024	0,034
-116,366	-34,443	-0,154	0,061
-115,351	800,000	-0,029	0,089
-114,337	730,569	-0,042	0,082
-113,322	162,196	-0,062	0,064
-112,307	-200,000	0,009	0,147
-111,293	-200,000	0,017	0,060
-110,278	-69,216	-0,140	0,039
-109,264	-200,000	0,004	0,069
-108,249	-200,000	-0,007	-0,096
-107,234	306,496	-0,070	-0,095
-106,220	-200,000	-0,007	-0,025
-105,205	148,145	0,027	-0,026
-104,191	-134,159	0,039	0,003
-103,176	-51,609	-0,052	0,018
-102,162	-88,727	0,102	0,022
-101,147	-200,000	0,004	-0,032
-100,132	800,000	-0,028	-0,060
-99,118	776,958	-0,018	-0,036
-98,103	-200,000	0,003	-0,059
-97,089	-77,263	0,069	0,017
-96,074	540,171	0,046	0,079
-95,059	168,416	-0,050	0,052
-94,045	-200,000	-0,014	-0,167
-93,030	-200,000	-0,020	-0,076
-92,016	-93,757	-0,035	0,007
-91,001	-200,000	0,007	-0,113
-89,986	-200,000	0,001	0,002
-88,972	72,202	0,126	0,095
-87,957	0,747	-0,038	0,020
-86,943	33,147	0,077	-0,048
-85,928	-200,000	0,023	-0,166
-84,913	454,928	-0,060	-0,097
-83,899	-130,427	-0,140	-0,014
-82,884	-200,000	0,008	0,117
-81,870	800,000	0,017	-0,035
-80,855	-2,288	0,094	0,048
-79,840	71,261	-0,026	-0,020
-78,826	-200,000	-0,039	0,127
-77,811	-106,504	-0,046	-0,007
-76,797	-99,510	-0,053	0,010
-75,782	-27,867	-0,140	-0,059
-74,767	461,348	0,063	0,103
-73,753	-95,749	-0,132	0,025
-72,738	-200,000	-0,006	-0,058
-71,724	-54,697	0,127	-0,041
-70,709	-68,103	-0,048	-0,013
-69,694	490,300	-0,025	-0,041
-68,680	-91,262	-0,041	0,009
-67,665	335,989	-0,040	0,057
-66,651	72,881	0,167	0,127
-65,636	-87,474	0,082	0,018
-64,622	800,000	-0,034	0,073
-63,607	134,807	-0,087	-0,082
-62,592	108,968	0,046	-0,040
-61,578	-107,201	0,160	-0,025
-60,563	-200,000	0,004	-0,123
-59,549	540,761	-0,055	0,095
-58,534	-129,511	-1,307	-0,130
-57,519	398,171	-0,877	-1,335
-56,505	-200,000	-0,964	-4,543
-55,490	89,574	0,580	-0,469
-54,476	800,000	4,851	11,861
-53,461	-200,000	13,451	253,741
-52,446	-200,000	689,532	2270,019
-51,432	595,847	1623,177	2927,042
-50,417	120,837	1636,241	1476,079
-49,403	73,580	1290,419	979,442
-48,388	38,432	1025,165	661,442
-47,373	24,601	982,661	588,526
-46,359	23,727	972,627	579,623
-45,344	22,838	968,141	574,021
-44,330	22,780	966,792	573,010
-43,315	22,712	965,125	571,777
-42,300	22,610	964,353	570,965
-41,286	22,640	963,407	570,480
-40,271	22,643	962,336	569,832
-39,257	22,621	961,665	569,341
-38,242	22,580	960,535	568,518
-37,227	22,658	959,722	568,265
-36,213	22,554	959,019	567,488
-35,198	22,555	958,011	566,875
-34,184	22,692	957,158	566,790
-33,169	22,568	956,458	565,952
-32,154	22,685	955,471	565,724
-31,140	22,662	954,616	565,120
-30,125	22,601	953,855	564,449
-29,111	22,647	953,022	564,082
-28,096	22,683	952,201	563,691
-27,082	22,642	951,659	563,215
-26,067	22,710	950,827	562,920
-25,052	22,674	950,065	562,330
-24,038	22,665	949,380	561,873
-23,023	22,693	948,837	561,620
-22,009	22,733	948,212	561,357
-20,994	22,691	947,678	560,883
-19,979	22,615	947,137	560,299
-18,965	22,676	946,373	560,017
-17,950	22,684	945,679	559,611
-16,936	22,657	945,069	559,140
-15,921	22,615	944,512	558,655
-14,906	22,533	943,578	557,821
-13,892	22,591	942,942	557,605
-12,877	22,570	942,327	557,153
-11,863	22,493	941,809	556,580
-10,848	22,551	941,262	556,421
-9,833	22,533	940,961	556,163
-8,819	22,648	940,139	556,019
-7,804	22,563	939,633	555,428
-6,790	22,540	938,966	554,941
-5,775	22,624	938,266	554,770
-4,760	22,534	937,749	554,158
-3,746	22,580	937,093	553,892
-2,731	22,432	936,293	552,930
-1,717	22,406	935,634	552,436
-0,702	22,409	935,001	552,051
0,313	22,185	934,256	551,739
1,327	25,199	932,345	560,043
2,342	34,746	796,630	503,956
3,356	32,635	451,621	282,496
4,371	1,876	293,728	153,056
5,386	-2,574	274,416	138,775
6,400	-3,978	268,679	134,561
7,415	-4,790	266,301	132,611
8,429	-4,328	265,028	132,388
9,444	-4,189	264,360	132,170
10,459	-4,465	263,799	131,627
11,473	-4,297	263,101	131,419
12,488	-4,278	262,540	131,144
13,502	-4,439	261,958	130,697
14,517	-4,428	261,726	130,579
15,531	-4,481	261,392	130,353
16,546	-4,256	260,849	130,273
17,561	-4,299	260,491	130,043
18,575	-4,237	260,152	129,919
19,590	-4,518	259,924	129,541
20,604	-4,348	259,683	129,562
21,619	-4,283	259,293	129,414
22,634	-4,170	258,755	129,234
23,648	-4,359	258,636	128,994
24,663	-4,390	258,375	128,826
25,677	-4,392	258,122	128,686
26,692	-4,357	257,853	128,572
27,707	-4,309	257,532	128,443
28,721	-4,288	257,390	128,379
29,736	-4,314	257,173	128,236
30,750	-4,595	256,858	127,820
31,765	-4,463	256,719	127,855
32,780	-4,459	256,404	127,691
33,794	-4,408	256,161	127,603
34,809	-4,405	255,965	127,497
35,823	-4,391	255,551	127,292
36,838	-4,422	255,386	127,171
37,853	-4,444	255,249	127,072
38,867	-4,427	254,927	126,916
39,882	-4,423	254,867	126,877
40,896	-4,524	254,574	126,632
41,911	-4,534	254,398	126,525
42,926	-4,409	254,023	126,436
43,940	-4,501	253,960	126,313
44,955	-4,603	253,645	126,056
45,969	-4,592	253,361	125,913
46,984	-4,898	253,258	125,584
47,999	-4,830	253,013	125,510
49,013	-5,099	252,689	125,105
50,028	-5,075	252,485	125,014
51,042	-5,380	252,212	124,603
52,057	-5,331	252,011	124,535
53,071	-5,200	251,783	124,525
54,086	-5,009	251,534	124,556
55,101	-4,916	251,449	124,583
56,115	-4,793	251,390	124,648
57,130	-4,438	251,274	124,887
58,144	-4,338	251,181	124,916
59,159	-4,253	250,899	124,837
60,174	-4,181	250,628	124,753
61,188	-4,200	250,337	124,581
62,203	-4,331	250,131	124,355
63,217	-4,347	250,054	124,292
64,232	-4,344	249,767	124,140
65,247	-4,336	249,607	124,057
66,261	-4,230	249,378	124,023
67,276	-4,419	249,033	123,679
68,290	-4,846	249,046	123,309
69,305	-4,769	248,674	123,179
70,320	-4,950	248,519	122,937
71,334	-4,592	248,361	123,153
72,349	-4,307	248,237	123,323
73,363	-4,230	248,084	123,302
74,378	-4,336	247,791	123,055
75,393	-4,545	247,550	122,747
76,407	-4,289	247,280	122,819
77,422	-4,390	247,149	122,658
78,436	-4,472	247,091	122,549
79,451	-4,282	246,712	122,510
80,466	-4,237	246,434	122,400
81,480	-4,591	246,274	122,010
82,495	-4,633	246,136	121,896
83,509	-4,565	246,060	121,904
84,524	-4,618	245,795	121,718
85,539	-4,458	245,493	121,692
86,553	-4,781	245,367	121,347
87,568	-4,570	245,135	121,399
88,582	-4,714	245,168	121,283
89,597	-4,835	244,814	120,995
90,611	-4,370	244,759	121,348
91,626	-4,441	244,428	121,114
92,641	-4,235	244,313	121,218
93,655	-4,355	244,142	121,022
94,670	-4,435	243,987	120,867
95,684	-4,571	243,785	120,643
96,699	-4,574	243,546	120,512
97,714	-4,569	243,338	120,402
98,728	-4,679	243,072	120,168
99,743	-5,034	242,979	119,816
100,757	-4,734	242,763	119,948
101,772	-4,818	242,632	119,803
102,787	-4,804	242,397	119,687
103,801	-4,622	242,268	119,765
104,816	-4,579	242,132	119,722
105,830	-4,306	242,002	119,873
106,845	-4,374	241,810	119,711
107,860	-4,641	241,519	119,336
108,874	-4,453	241,405	119,424
109,889	-4,389	240,934	119,233
110,903	-4,561	240,993	119,110
111,918	-4,635	240,915	119,000
112,933	-4,454	240,682	119,023
113,947	-4,426	240,611	119,000
114,962	-4,417	240,144	118,767
115,976	-4,474	240,277	118,775
116,991	-4,501	240,105	118,657
118,006	-4,509	239,780	118,479
119,020	-4,462	239,794	118,514
120,035	-4,451	239,738	118,484
121,049	-4,634	239,425	118,170
122,064	-4,307	239,233	118,332
123,079	-4,439	239,054	118,125
124,093	-4,394	238,681	117,967
125,108	-4,707	238,691	117,706
126,122	-4,971	238,449	117,362
127,137	-4,951	238,230	117,259
128,151	-4,826	238,059	117,266
129,166	-4,719	237,923	117,276
130,181	-4,832	237,686	117,057
131,195	-4,768	237,544	117,028
132,210	-4,595	237,305	117,040
133,224	-4,289	237,181	117,217
134,239	-4,464	237,063	117,006
135,254	-4,510	236,938	116,896
136,268	-4,749	236,759	116,605
137,283	-4,919	236,465	116,312
138,297	-4,927	236,227	116,178
139,312	-5,061	236,177	116,036
140,327	-4,651	235,920	116,229
141,341	-4,169	236,068	116,680
142,356	-4,163	235,799	116,542
143,370	-4,083	235,743	116,567
144,385	-4,308	235,532	116,272
145,400	-4,029	235,213	116,328
146,414	-4,082	235,123	116,230
147,429	-4,141	234,852	116,039
148,443	-4,283	234,775	115,877
149,458	-4,142	234,599	115,892
150,473	-4,030	234,288	115,818
151,487	-4,222	234,110	115,567
152,502	-4,256	234,071	115,510
153,516	-4,102	233,935	115,555
154,531	-4,149	233,726	115,404
155,546	-4,134	233,646	115,366
156,560	-4,157	233,378	115,205
157,575	-4,244	233,257	115,066
158,589	-4,196	233,011	114,973
159,604	-3,997	232,882	115,056
160,619	-3,810	232,613	115,061
161,633	-3,926	232,601	114,954
162,648	-3,977	232,520	114,863
163,662	-4,218	232,328	114,567
164,677	-4,056	232,105	114,575
165,692	-4,131	231,938	114,423
166,706	-4,146	231,887	114,376
167,721	-4,337	231,855	114,199
168,735	-4,167	231,562	114,179
169,750	-3,889	231,326	114,271
170,764	-4,219	231,399	114,037
171,779	-4,029	231,224	114,090
172,794	-3,771	230,956	114,150
173,808	-4,224	230,844	113,729
174,823	-4,650	230,444	113,188
175,837	-4,616	230,188	113,079
176,852	-4,319	230,331	113,371
177,867	-4,152	230,275	113,465
178,881	-4,005	230,044	113,456
179,896	-4,096	230,078	113,392
180,910	-4,098	229,803	113,244
181,925	-3,947	229,660	113,281
182,940	-4,035	229,267	113,009
183,954	-3,962	229,236	113,040
184,969	-3,948	229,158	113,002
185,983	-3,956	228,968	112,892
186,998	-3,871	228,894	112,912
188,013	-3,915	228,722	112,782
189,027	-3,929	228,579	112,691
190,042	-3,871	228,396	112,636
191,056	-4,009	228,337	112,490
192,071	-3,913	228,035	112,406
193,086	-3,920	227,889	112,318
194,100	-3,943	227,732	112,213
195,115	-4,497	227,438	111,630
196,129	-4,348	227,329	111,682
197,144	-1,860	228,081	113,966
198,159	1,752	228,928	117,178
199,173	3,833	229,565	119,108
200,188	4,411	229,540	119,532
201,202	4,340	229,418	119,402
202,217	4,424	229,231	119,359
203,232	4,643	229,313	119,561
204,246	4,552	229,112	119,375
205,261	4,619	228,914	119,313
206,275	4,944	228,781	119,484
207,290	4,760	228,744	119,312
208,304	4,701	228,472	119,114
209,319	4,836	228,326	119,131
210,334	4,686	228,213	118,947
211,348	4,588	227,786	118,638
212,363	4,182	227,716	118,279
213,377	3,834	227,454	117,865
214,392	3,951	227,283	117,856
215,407	3,841	227,155	117,695
216,421	3,920	227,098	117,716
217,436	4,083	226,904	117,729
218,450	3,702	226,609	117,275
219,465	3,755	226,482	117,239
220,480	3,723	226,395	117,159
221,494	3,850	226,121	117,103
222,509	4,064	226,065	117,227
223,523	4,014	226,009	117,150
224,538	3,746	225,852	116,854
225,553	3,981	225,642	116,914
226,567	3,905	225,610	116,828
227,582	4,150	225,516	116,956
228,596	4,378	225,372	117,044
229,611	3,792	225,149	116,473
230,626	3,835	224,871	116,352
231,640	3,568	224,747	116,075
232,655	3,993	224,842	116,435
233,669	4,658	224,664	116,835
234,684	4,537	224,569	116,684
235,699	4,319	224,275	116,356
236,713	4,171	224,054	116,120
237,728	3,994	223,902	115,897
238,742	3,892	223,742	115,728
239,757	4,172	223,542	115,824
240,772	3,785	223,473	115,487
241,786	3,988	223,267	115,523
242,801	4,182	223,176	115,611
243,815	4,420	223,078	115,728
244,830	4,300	223,042	115,609
245,844	4,060	222,724	115,254
246,859	4,190	222,697	115,328
247,874	4,190	222,568	115,251
248,888	4,359	222,333	115,245
249,903	4,157	222,210	115,020
250,917	3,937	222,147	114,813
251,932	3,860	221,916	114,626
252,947	3,964	221,693	114,578
253,961	3,862	221,567	114,427
254,976	3,928	221,393	114,375
255,990	4,065	221,391	114,466
257,005	4,130	221,238	114,425
258,020	4,246	221,195	114,479
259,034	4,442	220,979	114,502
260,049	4,150	220,968	114,270
261,063	4,013	220,620	113,979
262,078	4,522	220,535	114,301
263,093	4,583	220,359	114,245
264,107	4,370	220,296	114,044
265,122	4,330	220,147	113,927
266,136	4,417	219,996	113,904
267,151	4,554	219,903	113,946
268,166	4,038	219,593	113,396
269,180	3,745	219,338	113,038
270,195	3,726	219,361	113,026
271,209	3,914	219,163	113,052
272,224	3,932	219,029	112,986
273,239	4,165	218,940	113,101
274,253	3,908	218,699	112,778
275,268	3,845	218,452	112,594
276,282	3,845	218,322	112,518
277,297	3,834	218,290	112,483
278,312	3,841	218,188	112,426
279,326	3,915	218,030	112,388
280,341	3,973	217,935	112,371
281,355	4,212	217,807	112,470
282,370	3,970	217,582	112,167
283,384	3,744	217,439	111,918
284,399	3,631	217,298	111,753
285,414	3,562	217,194	111,640
286,428	3,732	217,044	111,677
287,443	3,970	217,056	111,846
288,457	4,067	216,796	111,773
289,472	3,907	216,630	111,561
290,487	3,650	216,300	111,195
291,501	3,760	216,174	111,199
292,516	3,590	216,140	111,050
293,530	3,563	216,070	110,983
294,545	3,761	215,840	110,999
295,560	3,725	215,796	110,940
296,574	3,960	215,565	110,981
297,589	3,924	215,530	110,928
298,603	3,984	215,491	110,940
299,618	3,867	215,385	110,792
300,633	3,844	215,184	110,662
301,647	4,171	215,077	110,833
302,662	4,224	214,932	110,786
303,676	4,180	214,811	110,682
304,691	4,065	214,584	110,473
305,706	4,253	214,530	110,570
306,720	4,163	214,368	110,412
307,735	4,122	214,125	110,248
308,749	3,863	214,038	110,008
309,764	4,180	213,856	110,131
310,779	4,131	213,832	110,074
311,793	4,026	213,726	109,934
312,808	4,075	213,471	109,828
313,822	4,193	213,400	109,866
314,837	3,856	213,144	109,484
315,852	3,905	212,949	109,410
316,866	3,855	212,904	109,341
317,881	4,367	212,891	109,689
318,895	4,040	212,759	109,378
319,910	3,823	212,703	109,186
320,925	3,778	212,328	108,951
321,939	3,344	212,125	108,530
322,954	3,740	212,098	108,787
323,968	4,085	212,056	109,000
324,983	4,007	211,865	108,838
325,997	4,310	211,765	108,990
327,012	3,963	211,583	108,642
328,027	4,097	211,375	108,620
329,041	4,314	211,417	108,785
330,056	4,681	211,266	108,957
331,070	3,953	210,953	108,273
332,085	3,551	210,802	107,903
333,100	3,930	210,777	108,147
334,114	4,265	210,587	108,275
335,129	3,903	210,531	107,982
336,143	3,899	210,329	107,866
337,158	3,853	210,148	107,732
338,173	3,532	210,221	107,535
339,187	3,697	209,933	107,493
340,202	3,574	209,831	107,346
341,216	3,549	209,536	107,167
342,231	3,816	209,490	107,321
343,246	3,774	209,271	107,170
344,260	3,820	209,223	107,168
345,275	3,765	209,259	107,138
346,289	3,928	209,153	107,188
347,304	4,076	208,885	107,144
348,319	4,098	208,786	107,099
349,333	3,847	208,649	106,845
350,348	4,052	208,458	106,880
351,362	4,275	208,411	107,001
352,377	4,155	208,229	106,815
353,392	4,181	208,099	106,756
354,406	4,258	207,860	106,678
355,421	194,000	1344,704	1433,227
356,435	154,780	1483,330	1433,354
