DTS Sentinel unit serial number:	SN410029Multiplexer serial number:	ORYXHardware model number:	OX2-SRSoftware version number:	ORYX F/W v4,00 Oryx Data Collector v3.7.2.0data status	okinstallation	B6 Nyhavnadifferential loss correction	single-endedforward channel	channel 2reverse channel	N/Adate	2023/12/07time	11:00:08forward acquisition time	300,00reverse acquisition time	0,00gamma	499,1914k internal	0,3199k external	0,3199temperature offset calibration	1,0000default loss term (dB/km)	0,3820temperature slope calibration	1,0000multiplexer offset coefficient	1,0000multiplexer slope coefficient	1,0000fibre end	0,00T internal ref (°C)	7,67T ext. ref 1 (°C)	-6,43T ext. ref 2 (°C)	-6,46length (m)	temperature (°C)	Stokes	anti-Stokes-744,400	125,152	0,104	0,096
-743,385	-146,554	-0,430	-0,027
-742,371	-152,371	0,182	0,009
-741,356	43,632	-0,170	-0,113
-740,342	163,424	0,124	0,127
-739,327	-23,757	-0,442	-0,192
-738,312	38,649	0,202	0,131
-737,298	-166,076	-0,495	-0,015
-736,283	-23,641	0,252	0,109
-735,269	-31,033	-0,322	-0,132
-734,254	52,299	0,145	0,101
-733,239	70,831	-0,564	-0,424
-732,225	15,496	0,310	0,177
-731,210	117,428	-0,050	0,045
-730,196	-8,940	0,062	-0,030
-729,181	-2,043	0,048	-0,025
-728,167	-200,000	0,003	0,028
-727,152	225,823	-0,012	-0,015
-726,137	30,416	-0,177	-0,110
-725,123	-18,809	0,070	0,032
-724,108	1,837	-0,112	0,058
-723,094	-200,000	0,006	-0,029
-722,079	605,403	-0,120	-0,218
-721,064	135,778	-0,082	-0,078
-720,050	-110,113	-0,030	0,005
-719,035	411,913	-0,034	-0,052
-718,021	30,049	-0,137	-0,085
-717,006	-37,181	-0,086	0,033
-715,991	800,000	0,030	-0,091
-714,977	135,727	-0,059	0,056
-713,962	263,311	0,046	-0,058
-712,948	-73,350	-0,105	0,028
-711,933	75,305	-0,050	-0,038
-710,918	-76,676	-0,072	0,018
-709,904	-84,233	-0,171	-0,039
-708,889	-57,526	-0,165	0,052
-707,875	-73,761	-0,021	-0,005
-706,860	50,523	-0,079	-0,054
-705,845	800,000	0,060	0,143
-704,831	800,000	-0,015	0,043
-703,816	-200,000	0,028	0,093
-702,802	70,570	-0,135	-0,102
-701,787	240,084	0,060	-0,073
-700,772	135,624	-0,046	0,044
-699,758	-61,151	-0,143	-0,044
-698,743	28,816	-0,062	-0,038
-697,729	800,000	0,028	0,062
-696,714	66,026	0,105	0,078
-695,699	285,558	0,004	0,005
-694,685	-200,000	0,008	0,043
-693,670	-112,980	-0,169	-0,024
-692,656	-4,306	0,164	-0,082
-691,641	-57,927	0,131	-0,041
-690,627	167,118	-0,061	-0,063
-689,612	141,388	0,051	-0,049
-688,597	-99,595	0,084	-0,015
-687,583	-200,000	-0,007	-0,097
-686,568	14,315	-0,094	-0,053
-685,554	-55,357	0,067	-0,022
-684,539	-200,000	0,006	-0,029
-683,524	513,841	0,048	0,082
-682,510	27,653	0,133	-0,081
-681,495	139,178	-0,115	0,110
-680,481	-200,000	-0,006	-0,035
-679,466	-100,060	-0,157	-0,028
-678,451	-63,854	-0,115	-0,034
-677,437	78,681	-0,058	0,045
-676,422	-68,225	0,128	0,036
-675,408	8,237	0,055	0,030
-674,393	434,667	-0,030	-0,047
-673,378	-200,000	-0,030	-0,171
-672,364	7,012	-0,143	-0,077
-671,349	800,000	-0,042	-0,091
-670,335	75,457	0,076	-0,058
-669,320	-200,000	-0,020	0,075
-668,305	61,520	-0,113	0,081
-667,291	-46,711	-0,116	-0,041
-666,276	-200,000	0,043	-0,188
-665,262	-75,659	-0,096	-0,025
-664,247	13,498	0,090	-0,051
-663,232	113,092	0,085	0,075
-662,218	-35,952	0,048	-0,019
-661,203	-179,969	-0,045	-0,001
-660,189	-101,533	-0,099	-0,017
-659,174	-159,138	0,022	-0,001
-658,159	720,152	-0,106	-0,205
-657,145	-9,383	-0,093	0,045
-656,130	74,402	0,056	0,042
-655,116	-200,000	0,030	-0,134
-654,101	-200,000	-0,022	-0,135
-653,086	243,150	-0,054	-0,066
-652,072	-200,000	0,016	-0,123
-651,057	-200,000	-0,001	-0,021
-650,043	-39,585	-0,140	-0,053
-649,028	-24,434	-0,030	-0,013
-648,014	295,404	-0,072	0,095
-646,999	-20,308	0,065	0,029
-645,984	-55,524	-0,114	-0,037
-644,970	-200,000	-0,047	0,161
-643,955	95,165	-0,102	-0,084
-642,941	-200,000	0,026	-0,186
-641,926	800,000	0,022	0,056
-640,911	300,058	0,045	0,061
-639,897	148,701	0,139	0,136
-638,882	644,758	-0,026	0,049
-637,868	-35,349	-0,081	0,032
-636,853	800,000	0,036	-0,082
-635,838	-200,000	-0,003	-0,066
-634,824	-200,000	-0,016	-0,055
-633,809	592,165	-0,021	0,038
-632,795	202,106	-0,059	0,066
-631,780	-15,553	-0,074	-0,034
-630,765	649,875	-0,022	-0,041
-629,751	288,401	-0,062	-0,082
-628,736	-106,393	-0,066	0,011
-627,722	-200,000	-0,015	0,065
-626,707	-200,000	-0,017	-0,121
-625,692	-200,000	0,002	-0,067
-624,678	-102,979	0,064	-0,011
-623,663	-200,000	-0,028	0,100
-622,649	-40,521	0,079	-0,030
-621,634	308,848	-0,101	0,137
-620,619	-19,052	-0,065	-0,029
-619,605	-8,686	-0,083	-0,040
-618,590	145,972	0,031	-0,030
-617,576	-200,000	0,005	0,139
-616,561	800,000	-0,050	0,104
-615,546	-94,648	0,035	0,007
-614,532	800,000	0,061	-0,153
-613,517	-200,000	-0,006	-0,079
-612,503	800,000	-0,046	0,095
-611,488	800,000	0,059	0,129
-610,474	-200,000	-0,015	0,114
-609,459	-200,000	0,019	0,097
-608,444	93,788	0,102	-0,084
-607,430	-45,468	-0,156	-0,056
-606,415	422,109	0,030	-0,047
-605,401	800,000	-0,011	0,034
-604,386	-27,948	-0,069	0,029
-603,371	74,872	0,047	0,035
-602,357	341,644	0,030	0,043
-601,342	27,616	-0,054	0,033
-600,328	800,000	0,080	-0,247
-599,313	189,562	-0,077	-0,084
-598,298	-200,000	0,012	-0,050
-597,284	134,804	-0,140	-0,132
-596,269	40,319	0,106	-0,069
-595,255	-200,000	-0,007	0,115
-594,240	-115,882	0,051	0,007
-593,225	96,209	-0,074	-0,061
-592,211	800,000	-0,039	0,097
-591,196	491,453	-0,069	-0,115
-590,182	-200,000	-0,018	-0,057
-589,167	25,306	-0,160	0,096
-588,152	800,000	0,038	0,118
-587,138	82,432	0,041	-0,033
-586,123	-84,615	-0,087	0,020
-585,109	800,000	0,048	-0,122
-584,094	800,000	-0,035	0,088
-583,079	-200,000	-0,015	0,125
-582,065	-105,508	0,068	-0,011
-581,050	203,424	0,087	0,098
-580,036	-200,000	-0,008	-0,041
-579,021	-16,873	-0,074	0,034
-578,006	-96,336	-0,115	-0,022
-576,992	-16,887	0,048	-0,022
-575,977	-200,000	-0,011	0,080
-574,963	-101,726	0,095	0,016
-573,948	106,267	0,145	0,125
-572,934	800,000	-0,038	0,120
-571,919	21,420	-0,029	-0,017
-570,904	-94,458	-0,097	-0,019
-569,890	-200,000	0,026	-0,126
-568,875	-79,830	-0,081	0,020
-567,861	800,000	0,017	-0,035
-566,846	84,728	0,090	-0,071
-565,831	241,877	-0,060	0,072
-564,817	381,103	0,066	-0,099
-563,802	800,000	-0,042	-0,124
-562,788	-200,000	0,015	0,108
-561,773	-200,000	0,036	-0,120
-560,758	8,345	0,141	-0,076
-559,744	-200,000	-0,023	0,154
-558,729	-200,000	-0,020	0,078
-557,715	-200,000	0,000	-0,103
-556,700	392,449	-0,069	-0,104
-555,685	800,000	0,031	-0,065
-554,671	-91,574	0,129	0,026
-553,656	-10,353	0,099	-0,047
-552,642	344,972	0,007	0,010
-551,627	-82,817	0,046	0,011
-550,612	12,455	-0,069	0,038
-549,598	-2,449	-0,012	-0,006
-548,583	-200,000	0,035	-0,000
-547,569	515,986	0,072	-0,122
-546,554	237,855	-0,064	-0,076
-545,539	96,404	0,059	0,048
-544,525	800,000	0,035	0,098
-543,510	-83,897	-0,214	-0,049
-542,496	596,473	-0,025	0,044
-541,481	-200,000	-0,006	-0,033
-540,466	-200,000	-0,028	-0,145
-539,452	-200,000	0,003	-0,047
-538,437	524,725	0,049	-0,084
-537,423	-200,000	0,007	0,025
-536,408	-187,179	0,056	0,001
-535,393	-200,000	-0,001	-0,101
-534,379	217,712	-0,058	-0,067
-533,364	119,820	0,066	0,059
-532,350	800,000	-0,025	-0,062
-531,335	47,901	-0,119	0,080
-530,321	-138,860	0,045	-0,003
-529,306	-86,172	-0,108	0,024
-528,291	109,358	0,139	-0,120
-527,277	-200,000	0,027	-0,103
-526,262	136,775	0,103	-0,097
-525,248	72,863	0,078	0,058
-524,233	-119,732	0,076	0,009
-523,218	-200,000	0,007	0,078
-522,204	128,579	-0,122	0,112
-521,189	-11,122	-0,079	-0,037
-520,175	27,109	-0,140	0,085
-519,160	-200,000	-0,002	-0,034
-518,145	270,249	0,075	0,095
-517,131	137,848	-0,079	0,074
-516,116	235,097	-0,078	-0,094
-515,102	694,923	-0,039	0,074
-514,087	-27,071	-0,023	-0,010
-513,072	-79,394	0,083	-0,020
-512,058	-200,000	0,001	0,044
-511,043	11,088	0,059	-0,032
-510,029	296,000	-0,056	0,074
-509,014	-124,155	-0,106	0,012
-507,999	43,505	0,090	0,059
-506,985	800,000	0,013	0,035
-505,970	-200,000	0,012	-0,072
-504,956	-200,000	-0,020	-0,108
-503,941	140,528	-0,044	0,041
-502,926	254,978	0,053	0,066
-501,912	46,375	0,096	-0,064
-500,897	-200,000	0,002	0,077
-499,883	363,889	-0,068	0,099
-498,868	309,583	0,053	-0,072
-497,853	786,437	0,028	-0,056
-496,839	92,695	0,035	0,028
-495,824	27,784	0,074	0,045
-494,810	-200,000	-0,011	0,119
-493,795	92,765	0,087	0,070
-492,781	-190,178	0,004	0,000
-491,766	-77,289	-0,086	-0,021
-490,751	758,092	-0,045	0,089
-489,737	-200,000	-0,006	-0,027
-488,722	152,850	-0,166	-0,164
-487,708	410,250	0,040	-0,061
-486,693	135,199	-0,082	0,077
-485,678	479,225	0,030	0,050
-484,664	147,499	-0,094	-0,091
-483,649	338,166	-0,005	0,007
-482,635	13,008	0,066	-0,037
-481,620	-13,274	0,083	-0,039
-480,605	-92,126	0,026	-0,005
-479,591	-200,000	0,025	0,153
-478,576	-5,586	0,096	0,047
-477,562	-33,279	0,045	0,018
-476,547	-200,000	-0,039	-0,171
-475,532	154,967	0,032	-0,032
-474,518	-200,000	0,017	0,093
-473,503	142,776	0,027	-0,026
-472,489	-133,260	-0,100	0,009
-471,474	40,632	0,105	-0,068
-470,459	26,479	-0,160	0,096
-469,445	186,416	0,023	-0,024
-468,430	-75,265	-0,109	-0,028
-467,416	466,762	0,068	0,111
-466,401	63,366	0,106	-0,076
-465,386	298,494	-0,080	-0,106
-464,372	276,636	-0,027	0,034
-463,357	-108,469	-0,099	-0,015
-462,343	-200,000	0,002	-0,021
-461,328	126,071	0,051	0,047
-460,313	-200,000	0,013	-0,068
-459,299	84,315	0,081	0,063
-458,284	145,622	0,115	0,111
-457,270	-200,000	-0,005	0,109
-456,255	800,000	0,059	0,155
-455,241	-149,427	-0,169	0,009
-454,226	-86,088	-0,024	0,005
-453,211	-200,000	-0,020	0,075
-452,197	-108,412	0,050	0,008
-451,182	137,873	0,073	0,069
-450,168	-200,000	0,005	0,039
-449,153	501,425	0,063	0,106
-448,138	-200,000	0,004	-0,073
-447,124	469,756	-0,014	0,022
-446,109	-200,000	-0,020	0,080
-445,095	-165,990	0,118	0,004
-444,080	798,756	-0,025	0,050
-443,065	250,727	-0,100	-0,123
-442,051	238,935	-0,105	-0,126
-441,036	-200,000	0,002	-0,016
-440,022	249,839	-0,046	-0,056
-439,007	97,406	0,152	0,125
-437,992	73,446	0,080	0,060
-436,978	-200,000	-0,002	0,109
-435,963	-94,380	-0,087	0,017
-434,949	-200,000	-0,018	0,083
-433,934	710,914	-0,024	0,046
-432,919	-200,000	0,002	-0,063
-431,905	-200,000	-0,002	-0,198
-430,890	28,684	0,095	0,058
-429,876	-74,571	0,064	0,016
-428,861	-200,000	0,012	0,041
-427,846	-200,000	-0,005	0,096
-426,832	110,349	-0,116	-0,100
-425,817	-200,000	-0,023	0,176
-424,803	528,208	0,080	-0,136
-423,788	424,154	-0,064	0,100
-422,773	800,000	0,055	-0,137
-421,759	-49,060	0,069	-0,024
-420,744	69,524	-0,133	-0,099
-419,730	56,961	-0,129	-0,090
-418,715	70,417	-0,033	0,024
-417,701	800,000	-0,051	-0,132
-416,686	108,540	0,150	-0,129
-415,671	104,910	-0,077	-0,065
-414,657	800,000	0,036	0,073
-413,642	800,000	-0,022	0,047
-412,628	-200,000	0,023	0,117
-411,613	-88,122	0,045	0,010
-410,598	-200,000	0,013	-0,095
-409,584	800,000	-0,023	-0,065
-408,569	255,682	0,055	0,068
-407,555	-103,927	0,068	-0,011
-406,540	-200,000	0,042	0,187
-405,525	697,121	-0,052	0,099
-404,511	562,077	0,038	-0,066
-403,496	-7,880	0,100	-0,048
-402,482	-129,068	-0,126	0,013
-401,467	-200,000	0,007	-0,055
-400,452	-172,309	-0,111	-0,002
-399,438	-44,644	0,079	-0,028
-398,423	800,000	-0,060	-0,139
-397,409	-14,613	-0,083	0,038
-396,394	-200,000	0,005	-0,033
-395,379	135,822	0,082	-0,076
-394,365	-128,360	0,033	-0,003
-393,350	487,347	0,030	-0,049
-392,336	800,000	-0,019	-0,053
-391,321	-200,000	-0,007	0,096
-390,306	409,624	-0,075	0,115
-389,292	463,805	0,054	0,087
-388,277	-146,979	0,091	0,006
-387,263	-73,439	-0,036	-0,009
-386,248	800,000	0,062	0,158
-385,233	800,000	-0,036	0,077
-384,219	-8,180	0,265	-0,127
-383,204	49,855	-0,081	0,055
-382,190	-45,527	-0,145	-0,051
-381,175	800,000	0,055	0,109
-380,160	19,132	-0,034	0,020
-379,146	800,000	-0,042	0,093
-378,131	-95,454	-0,042	-0,008
-377,117	-51,106	0,191	0,064
-376,102	65,438	-0,010	-0,007
-375,088	-34,400	0,038	-0,015
-374,073	176,118	-0,078	0,082
-373,058	-32,856	-0,050	-0,020
-372,044	14,956	-0,102	0,057
-371,029	800,000	0,075	0,176
-370,015	14,546	0,114	-0,064
-369,000	-58,739	-0,056	-0,017
-367,985	-200,000	0,007	-0,077
-366,971	278,554	-0,042	0,053
-365,956	106,184	-0,119	-0,101
-364,942	-200,000	0,012	-0,165
-363,927	60,644	0,037	-0,027
-362,912	-21,858	-0,055	-0,024
-361,898	-200,000	0,013	-0,063
-360,883	146,316	-0,075	0,073
-359,869	192,023	0,070	-0,076
-358,854	780,284	-0,017	0,033
-357,839	-86,386	0,075	0,016
-356,825	198,081	0,070	0,077
-355,810	-3,219	-0,085	0,042
-354,796	-121,836	-0,080	-0,009
-353,781	-36,071	-0,076	0,029
-352,766	-200,000	-0,006	-0,023
-351,752	440,027	-0,014	-0,022
-350,737	-13,867	0,053	0,024
-349,723	-76,762	0,111	0,028
-348,708	513,541	0,031	-0,052
-347,693	451,667	0,019	-0,031
-346,679	-26,337	0,117	-0,049
-345,664	800,000	-0,085	-0,216
-344,650	-39,746	0,061	-0,023
-343,635	800,000	-0,022	0,060
-342,620	539,124	0,031	-0,053
-341,606	672,774	-0,022	-0,041
-340,591	800,000	-0,020	0,063
-339,577	-34,947	0,020	-0,008
-338,562	312,942	-0,073	-0,098
-337,548	-86,177	0,196	-0,043
-336,533	175,761	-0,065	0,068
-335,518	-37,075	0,078	0,030
-334,504	800,000	0,025	0,058
-333,489	-17,308	0,083	0,037
-332,475	-51,070	-0,085	0,028
-331,460	484,500	-0,086	-0,141
-330,445	-67,989	-0,077	0,021
-329,431	-200,000	0,019	-0,096
-328,416	685,616	0,072	0,135
-327,402	100,429	-0,045	0,037
-326,387	-200,000	0,005	0,048
-325,372	-200,000	-0,030	0,106
-324,358	70,217	-0,035	-0,026
-323,343	-11,025	0,066	-0,031
-322,329	-69,292	0,120	-0,033
-321,314	296,632	0,042	0,055
-320,299	-16,806	-0,110	-0,049
-319,285	-200,000	-0,002	-0,068
-318,270	-108,186	-0,094	-0,014
-317,256	-109,469	0,084	0,013
-316,241	-11,696	-0,088	-0,041
-315,226	-38,616	0,038	-0,014
-314,212	-40,483	0,087	0,032
-313,197	152,706	0,064	0,063
-312,183	-62,670	0,038	-0,011
-311,168	-77,482	0,049	-0,012
-310,153	-200,000	-0,022	0,072
-309,139	273,970	0,024	-0,030
-308,124	800,000	0,041	0,094
-307,110	-200,000	0,006	-0,054
-306,095	-91,271	0,102	-0,021
-305,080	800,000	-0,038	0,102
-304,066	367,811	-0,022	0,032
-303,051	246,325	-0,100	-0,120
-302,037	-200,000	0,002	0,052
-301,022	250,793	0,087	0,106
-300,008	-66,421	-0,073	0,021
-298,993	217,612	0,057	-0,065
-297,978	-52,689	-0,067	-0,022
-296,964	-200,000	-0,016	-0,086
-295,949	-54,353	-0,097	0,031
-294,935	-90,226	0,060	0,012
-293,920	445,566	0,072	-0,113
-292,905	347,721	0,074	-0,105
-291,891	72,489	-0,123	0,091
-290,876	-97,513	-0,031	-0,006
-289,862	56,567	-0,031	-0,021
-288,847	342,700	-0,111	-0,155
-287,832	20,904	0,058	0,034
-286,818	41,230	-0,042	0,027
-285,803	-200,000	0,013	-0,071
-284,789	183,033	-0,074	0,078
-283,774	-73,525	-0,017	-0,004
-282,759	-152,564	-0,095	-0,005
-281,745	749,305	0,042	0,082
-280,730	189,229	0,063	-0,068
-279,716	513,350	0,044	-0,074
-278,701	23,714	-0,235	-0,138
-277,686	237,562	0,083	0,098
-276,672	75,003	0,138	0,104
-275,657	-200,000	0,012	-0,123
-274,643	7,161	0,066	-0,035
-273,628	800,000	-0,020	-0,051
-272,613	218,617	-0,070	-0,080
-271,599	-200,000	0,010	-0,052
-270,584	252,877	-0,037	0,045
-269,570	35,974	0,086	0,054
-268,555	298,655	-0,008	-0,011
-267,540	-125,274	-0,102	-0,011
-266,526	143,087	0,093	-0,089
-265,511	24,200	-0,059	-0,034
-264,497	800,000	0,055	0,122
-263,482	0,392	0,065	0,033
-262,467	800,000	-0,026	-0,060
-261,453	639,618	0,034	-0,061
-260,438	-79,385	-0,048	-0,011
-259,424	75,527	0,060	-0,045
-258,409	-48,429	-0,062	0,021
-257,395	-47,245	0,028	0,010
-256,380	-200,000	0,021	0,153
-255,365	-29,812	0,028	0,012
-254,351	-127,997	0,043	-0,004
-253,336	1,372	-0,135	0,069
-252,322	-146,723	0,119	0,007
-251,307	-23,589	-0,106	-0,045
-250,292	-72,464	-0,051	0,013
-249,278	261,204	0,068	0,084
-248,263	-73,060	0,046	0,012
-247,249	257,352	0,049	0,060
-246,234	166,429	0,082	-0,083
-245,219	102,213	-0,132	-0,110
-244,205	723,613	0,036	0,070
-243,190	11,729	-0,068	-0,037
-242,176	-65,401	0,196	-0,056
-241,161	237,720	0,036	0,042
-240,146	-29,725	0,096	0,039
-239,132	143,048	-0,020	-0,019
-238,117	-200,000	-0,053	-0,185
-237,103	-200,000	0,002	-0,020
-236,088	-200,000	-0,011	0,126
-235,073	-5,464	0,107	0,052
-234,059	-200,000	-0,018	-0,062
-233,044	-163,875	0,179	-0,006
-232,030	70,580	-0,104	0,076
-231,015	800,000	-0,043	-0,107
-230,000	184,919	-0,020	0,021
-228,986	-121,463	0,194	-0,023
-227,971	-5,063	0,058	-0,029
-226,957	182,090	-0,050	0,053
-225,942	-147,833	-0,028	0,002
-224,927	160,022	0,079	-0,079
-223,913	-200,000	-0,064	-0,249
-222,898	-200,000	0,002	-0,050
-221,884	-6,595	-0,041	0,020
-220,869	558,634	0,038	0,065
-219,855	-200,000	-0,001	0,014
-218,840	100,829	0,085	-0,070
-217,825	258,987	-0,103	0,127
-216,811	36,599	0,104	0,065
-215,796	-137,158	-0,170	0,014
-214,782	-163,479	0,054	0,002
-213,767	-168,048	-0,075	0,002
-212,752	-200,000	0,007	-0,041
-211,738	-200,000	-0,003	0,055
-210,723	195,550	0,048	0,052
-209,709	-200,000	0,011	0,080
-208,694	123,712	-0,119	-0,106
-207,679	-200,000	0,006	-0,078
-206,665	37,812	-0,068	0,043
-205,650	-18,752	0,108	-0,048
-204,636	-200,000	0,003	-0,142
-203,621	-200,000	0,020	-0,118
-202,606	800,000	-0,056	-0,142
-201,592	350,850	-0,058	-0,082
-200,577	-110,541	-0,114	0,017
-199,563	800,000	0,062	0,139
-198,548	356,002	0,092	0,131
-197,533	-200,000	0,004	-0,063
-196,519	-108,169	-0,050	-0,008
-195,504	-200,000	0,003	0,038
-194,490	800,000	-0,024	-0,074
-193,475	42,430	-0,109	-0,071
-192,460	-68,895	0,084	-0,023
-191,446	800,000	0,031	0,083
-190,431	433,362	0,031	0,048
-189,417	-2,267	0,044	-0,022
-188,402	-23,820	-0,057	-0,024
-187,387	256,832	0,037	-0,046
-186,373	10,349	-0,068	0,037
-185,358	-4,644	-0,096	-0,047
-184,344	4,330	0,054	0,028
-183,329	375,680	-0,034	-0,050
-182,315	-200,000	-0,006	-0,044
-181,300	-200,000	0,048	0,161
-180,285	800,000	-0,019	0,051
-179,271	800,000	0,021	0,051
-178,256	305,336	0,032	-0,042
-177,242	-200,000	0,019	0,070
-176,227	-200,000	-0,029	0,173
-175,212	19,766	-0,032	-0,018
-174,198	-189,267	0,036	0,000
-173,183	144,414	0,008	-0,008
-172,169	-46,135	-0,067	-0,023
-171,154	-38,687	-0,035	-0,013
-170,139	-200,000	0,018	0,077
-169,125	-200,000	-0,044	0,196
-168,110	-98,437	-0,079	0,014
-167,096	-53,330	-0,008	-0,003
-166,081	-140,768	0,064	0,005
-165,066	-0,614	-0,087	-0,044
-164,052	8,286	0,136	-0,073
-163,037	217,504	0,072	0,082
-162,023	108,730	-0,062	0,053
-161,008	340,383	-0,029	0,040
-159,993	317,623	-0,043	0,058
-158,979	91,043	-0,133	0,106
-157,964	800,000	-0,074	-0,148
-156,950	-38,398	0,016	0,006
-155,935	-64,428	0,136	-0,039
-154,920	584,478	0,067	-0,118
-153,906	-25,986	0,043	0,018
-152,891	317,903	0,020	-0,028
-151,877	800,000	-0,067	-0,187
-150,862	99,768	-0,116	-0,096
-149,847	-200,000	-0,013	0,079
-148,833	800,000	0,030	0,069
-147,818	-75,018	0,076	0,019
-146,804	169,369	0,022	0,022
-145,789	-200,000	0,011	0,126
-144,775	-39,862	-0,146	-0,054
-143,760	-38,324	0,067	0,025
-142,745	-200,000	0,022	-0,080
-141,731	800,000	0,045	-0,099
-140,716	52,097	0,070	-0,047
-139,702	-200,000	-0,019	0,063
-138,687	-64,989	-0,093	-0,026
-137,672	-200,000	0,005	-0,037
-136,658	-45,223	0,124	0,044
-135,643	-10,341	-0,159	-0,075
-134,629	800,000	-0,023	-0,064
-133,614	-175,300	0,081	-0,002
-132,599	167,333	0,142	0,144
-131,585	176,856	-0,052	-0,054
-130,570	800,000	-0,021	0,043
-129,556	-136,849	0,038	-0,003
-128,541	-200,000	-0,035	-0,124
-127,526	223,506	0,053	-0,060
-126,512	117,992	-0,039	-0,034
-125,497	46,059	0,088	-0,058
-124,483	150,933	-0,033	0,032
-123,468	-68,124	0,159	0,044
-122,453	-94,126	-0,062	0,012
-121,439	800,000	-0,080	0,158
-120,424	-200,000	-0,007	-0,052
-119,410	75,274	0,019	0,014
-118,395	-102,157	0,100	0,017
-117,380	800,000	-0,014	0,039
-116,366	670,792	-0,056	0,103
-115,351	-200,000	-0,013	-0,095
-114,337	-159,515	-0,151	-0,006
-113,322	-182,416	-0,045	-0,001
-112,307	-200,000	-0,015	0,065
-111,293	-200,000	0,049	0,173
-110,278	67,839	-0,131	-0,095
-109,264	-200,000	0,000	-0,149
-108,249	286,514	0,046	-0,060
-107,234	138,888	-0,047	-0,044
-106,220	94,184	0,049	0,040
-105,205	46,510	-0,012	0,008
-104,191	800,000	-0,007	-0,018
-103,176	-41,081	-0,088	-0,032
-102,162	-200,000	0,018	0,158
-101,147	43,326	-0,013	0,008
-100,132	800,000	0,060	-0,160
-99,118	-96,438	-0,154	-0,029
-98,103	-102,741	-0,064	0,011
-97,089	-200,000	-0,024	0,236
-96,074	-189,163	-0,065	0,001
-95,059	123,216	0,054	0,048
-94,045	-131,000	-0,195	-0,018
-93,030	800,000	0,056	0,118
-92,016	-20,063	-0,065	0,028
-91,001	-132,025	0,087	-0,008
-89,986	-200,000	0,009	0,064
-88,972	800,000	0,020	0,060
-87,957	800,000	0,042	-0,120
-86,943	-77,976	-0,084	0,020
-85,928	800,000	-0,118	-0,273
-84,913	175,779	0,041	0,042
-83,899	-53,829	0,051	-0,016
-82,884	119,690	-0,091	0,080
-81,870	236,762	0,045	-0,053
-80,855	800,000	0,025	-0,070
-79,840	357,190	-0,052	-0,074
-78,826	6,695	0,080	-0,042
-77,811	67,322	0,036	-0,026
-76,797	-84,045	-0,053	-0,012
-75,782	132,400	0,059	-0,054
-74,767	104,897	0,140	0,117
-73,753	459,522	0,046	-0,072
-72,738	-66,717	-0,159	-0,044
-71,724	-107,236	-0,028	-0,004
-70,709	359,732	-0,025	0,035
-69,694	-81,482	-0,025	0,006
-68,680	494,618	0,036	0,059
-67,665	-105,538	0,132	-0,021
-66,651	-76,265	0,032	0,008
-65,636	-110,720	0,060	-0,009
-64,622	309,629	-0,003	0,004
-63,607	7,710	-0,152	0,081
-62,592	84,426	-0,040	-0,031
-61,578	800,000	-0,082	-0,168
-60,563	-67,385	-0,021	0,006
-59,549	-200,000	0,044	0,182
-58,534	99,090	-2,786	-2,279
-57,519	-68,123	0,469	-0,128
-56,505	-200,000	-1,661	-5,601
-55,490	408,604	1,110	1,670
-54,476	800,000	5,603	11,874
-53,461	-200,000	22,401	350,466
-52,446	800,000	760,668	2292,708
-51,432	523,071	1645,575	2748,914
-50,417	66,281	1652,881	1187,530
-49,403	14,589	1571,922	867,110
-48,388	9,321	1524,434	814,112
-47,373	18,694	1518,657	858,353
-46,359	12,918	1506,811	822,713
-45,344	7,899	1502,890	795,367
-44,330	7,773	1501,168	793,791
-43,315	7,681	1499,349	792,337
-42,300	7,717	1497,498	791,505
-41,286	7,719	1495,925	790,651
-40,271	7,708	1494,141	789,622
-39,257	7,710	1492,931	788,960
-38,242	7,744	1491,372	788,276
-37,227	7,713	1490,119	787,428
-36,213	7,732	1488,623	786,700
-35,198	7,655	1487,425	785,654
-34,184	7,701	1486,168	785,188
-33,169	7,661	1484,776	784,224
-32,154	7,702	1483,211	783,567
-31,140	7,771	1481,730	783,098
-30,125	7,799	1480,379	782,492
-29,111	7,726	1479,381	781,569
-28,096	7,712	1478,362	780,932
-27,082	7,705	1477,471	780,397
-26,067	7,673	1476,115	779,489
-25,052	7,667	1474,954	778,815
-24,038	7,643	1473,914	778,119
-23,023	7,691	1473,000	777,841
-22,009	7,675	1471,967	777,188
-20,994	7,727	1471,229	777,020
-19,979	7,735	1469,872	776,314
-18,965	7,695	1468,664	775,447
-17,950	7,693	1468,059	775,087
-16,936	7,670	1467,072	774,425
-15,921	7,617	1465,864	773,495
-14,906	7,582	1464,918	772,793
-13,892	7,579	1463,752	772,134
-12,877	7,618	1462,761	771,772
-11,863	7,539	1461,869	770,886
-10,848	7,581	1460,905	770,552
-9,833	7,625	1460,191	770,358
-8,819	7,623	1459,195	769,794
-7,804	7,589	1457,998	768,963
-6,790	7,593	1457,429	768,655
-5,775	7,630	1456,395	768,258
-4,760	7,661	1455,536	767,925
-3,746	7,626	1454,466	767,159
-2,731	7,510	1453,199	765,899
-1,717	7,414	1452,419	764,990
-0,702	7,438	1451,367	764,525
0,313	7,271	1450,288	764,297
1,327	11,077	1447,294	781,053
2,342	20,242	1207,216	688,172
3,356	15,921	676,841	376,109
4,371	-12,052	459,123	212,016
5,386	-15,262	432,091	194,823
6,400	-16,362	423,326	189,278
7,415	-15,821	419,605	188,366
8,429	-17,392	416,864	184,902
9,444	-17,549	415,541	184,077
10,459	-17,640	414,316	183,391
11,473	-17,706	413,337	182,849
12,488	-17,749	412,215	182,276
13,502	-17,839	411,530	181,832
14,517	-17,986	410,894	181,331
15,531	-18,090	410,253	180,887
16,546	-18,128	409,333	180,412
17,561	-18,026	408,954	180,371
18,575	-18,056	408,141	179,954
19,590	-18,130	407,595	179,596
20,604	-18,215	407,272	179,321
21,619	-18,177	406,640	179,079
22,634	-18,131	406,147	178,908
23,648	-18,171	405,715	178,647
24,663	-18,136	405,219	178,462
25,677	-18,189	405,072	178,307
26,692	-18,212	404,570	178,039
27,707	-18,091	404,043	177,957
28,721	-18,246	403,594	177,532
29,736	-18,288	403,331	177,344
30,750	-18,176	402,772	177,233
31,765	-18,221	402,419	177,002
32,780	-18,191	402,070	176,873
33,794	-18,181	401,675	176,697
34,809	-18,138	401,045	176,462
35,823	-18,193	400,730	176,234
36,838	-18,219	400,440	176,056
37,853	-18,049	399,787	175,983
38,867	-18,173	399,557	175,698
39,882	-18,147	399,093	175,513
40,896	-18,118	398,903	175,453
41,911	-18,223	398,522	175,129
42,926	-18,151	398,127	175,037
43,940	-18,152	397,716	174,838
44,955	-18,036	397,319	174,804
45,969	-18,205	396,889	174,372
46,984	-18,090	396,663	174,412
47,999	-18,188	396,488	174,188
49,013	-18,228	396,040	173,923
50,028	-18,387	395,683	173,538
51,042	-18,164	395,344	173,672
52,057	-18,280	394,961	173,333
53,071	-18,255	394,710	173,241
54,086	-18,209	394,211	173,067
55,101	-18,148	394,000	173,040
56,115	-18,040	393,713	173,043
57,130	-18,178	393,354	172,686
58,144	-18,045	393,055	172,715
59,159	-17,883	392,499	172,670
60,174	-18,036	392,485	172,447
61,188	-18,043	391,906	172,168
62,203	-18,039	391,606	172,025
63,217	-17,992	391,167	171,879
64,232	-17,916	390,836	171,819
65,247	-17,900	390,685	171,758
66,261	-17,980	390,101	171,381
67,276	-18,112	389,760	171,043
68,290	-18,088	389,605	170,991
69,305	-17,993	389,108	170,882
70,320	-18,001	388,726	170,688
71,334	-18,051	388,399	170,464
72,349	-18,032	388,131	170,356
73,363	-17,861	387,844	170,438
74,378	-17,883	387,470	170,230
75,393	-18,000	387,198	169,942
76,407	-18,117	386,791	169,596
77,422	-18,097	386,455	169,460
78,436	-18,068	386,094	169,324
79,451	-17,961	385,724	169,286
80,466	-17,986	385,359	169,078
81,480	-18,156	385,105	168,732
82,495	-18,051	384,679	168,665
83,509	-18,018	384,545	168,635
84,524	-18,077	383,989	168,299
85,539	-18,174	383,861	168,103
86,553	-18,116	383,655	168,073
87,568	-18,111	383,269	167,896
88,582	-18,035	382,878	167,807
89,597	-18,141	382,530	167,503
90,611	-18,090	382,459	167,523
91,626	-17,990	382,112	167,484
92,641	-18,110	381,706	167,137
93,655	-17,971	381,367	167,151
94,670	-18,175	381,126	166,770
95,684	-18,110	380,898	166,739
96,699	-18,095	380,546	166,590
97,714	-18,053	380,183	166,469
98,728	-18,116	379,960	166,276
99,743	-18,084	379,506	166,104
100,757	-18,137	379,213	165,893
101,772	-18,059	379,016	165,890
102,787	-17,950	378,546	165,809
103,801	-17,957	378,432	165,735
104,816	-18,129	378,116	165,364
105,830	-17,885	377,901	165,565
106,845	-17,866	377,484	165,390
107,860	-17,940	377,341	165,221
108,874	-17,850	376,772	165,070
109,889	-17,827	376,616	165,016
110,903	-17,793	376,227	164,874
111,918	-17,752	376,006	164,814
112,933	-17,938	375,732	164,445
113,947	-17,837	375,599	164,498
114,962	-17,831	375,313	164,367
115,976	-17,850	374,860	164,130
116,991	-17,922	374,668	163,940
118,006	-17,929	374,297	163,754
119,020	-17,969	374,066	163,589
120,035	-17,855	373,873	163,634
121,049	-17,794	373,576	163,565
122,064	-17,786	373,403	163,485
123,079	-17,883	372,941	163,146
124,093	-17,780	372,657	163,137
125,108	-17,953	372,339	162,767
126,122	-17,923	372,035	162,657
127,137	-18,028	371,675	162,354
128,151	-17,946	371,333	162,292
129,166	-17,975	371,082	162,131
130,181	-17,984	370,805	161,986
131,195	-17,964	370,314	161,781
132,210	-17,741	370,173	161,982
133,224	-17,772	369,951	161,831
134,239	-17,705	369,600	161,746
135,254	-17,725	369,496	161,662
136,268	-17,816	369,101	161,362
137,283	-18,077	368,785	160,887
138,297	-17,905	368,399	160,916
139,312	-18,059	368,117	160,589
140,327	-17,748	367,827	160,832
141,341	-17,725	367,590	160,741
142,356	-17,786	367,385	160,563
143,370	-17,705	367,094	160,521
144,385	-17,740	366,724	160,302
145,400	-17,838	366,507	160,073
146,414	-17,757	366,315	160,074
147,429	-17,758	365,834	159,848
148,443	-17,731	365,656	159,789
149,458	-17,749	365,489	159,680
150,473	-17,727	365,141	159,541
151,487	-17,656	364,847	159,485
152,502	-17,682	364,582	159,323
153,516	-17,802	364,235	159,010
154,531	-17,687	363,852	158,969
155,546	-17,636	363,716	158,957
156,560	-17,744	363,543	158,736
157,575	-17,822	363,227	158,490
158,589	-17,585	362,906	158,623
159,604	-17,638	362,552	158,389
160,619	-17,706	362,254	158,163
161,633	-17,732	362,202	158,094
162,648	-17,863	362,001	157,834
163,662	-17,651	361,561	157,885
164,677	-17,675	361,351	157,750
165,692	-17,735	361,183	157,589
166,706	-17,760	361,051	157,488
167,721	-17,685	360,860	157,481
168,735	-17,689	360,611	157,354
169,750	-17,759	360,297	157,119
170,764	-17,482	360,042	157,326
171,779	-17,631	359,732	156,997
172,794	-17,644	359,553	156,890
173,808	-17,539	359,230	156,861
174,823	-17,761	358,952	156,460
175,837	-17,853	358,630	156,195
176,852	-17,608	358,478	156,408
177,867	-17,683	358,345	156,246
178,881	-17,736	357,935	155,990
179,896	-17,707	357,875	155,985
180,910	-17,620	357,470	155,899
181,925	-17,634	357,280	155,785
182,940	-17,607	356,989	155,677
183,954	-17,543	356,654	155,592
184,969	-17,532	356,568	155,554
185,983	-17,611	356,244	155,305
186,998	-17,653	356,045	155,154
188,013	-17,635	355,869	155,085
189,027	-17,672	355,473	154,855
190,042	-17,665	355,250	154,753
191,056	-17,628	355,110	154,722
192,071	-17,571	354,841	154,658
193,086	-17,388	354,622	154,766
194,100	-16,919	354,580	155,286
195,115	-16,200	354,559	156,112
196,129	-14,719	355,273	158,164
197,144	-10,681	357,217	163,811
198,159	-7,439	358,843	168,405
199,173	-4,668	360,102	172,290
200,188	-3,826	360,186	173,319
201,202	-3,589	359,993	173,493
202,217	-3,321	359,795	173,702
203,232	-3,131	359,608	173,822
204,246	-3,252	359,501	173,611
205,261	-3,041	359,170	173,687
206,275	-2,994	359,016	173,652
207,290	-2,834	358,833	173,738
208,304	-3,074	358,638	173,344
209,319	-2,973	358,362	173,314
210,334	-2,851	357,990	173,264
211,348	-2,790	357,863	173,258
212,363	-2,957	357,752	172,992
213,377	-2,676	357,391	173,134
214,392	-2,739	357,354	173,025
215,407	-2,819	357,049	172,768
216,421	-2,673	356,660	172,737
217,436	-2,572	356,561	172,793
218,450	-2,828	356,412	172,403
219,465	-2,812	356,006	172,211
220,480	-2,757	355,867	172,193
221,494	-2,818	355,757	172,052
222,509	-2,611	355,351	172,083
223,523	-2,787	355,222	171,799
224,538	-2,695	354,862	171,717
225,553	-2,672	354,629	171,616
226,567	-2,682	354,437	171,497
227,582	-2,655	354,162	171,379
228,596	-2,764	354,027	171,171
229,611	-2,579	353,693	171,211
230,626	-2,634	353,460	171,019
231,640	-2,678	353,223	170,838
232,655	-2,555	352,906	170,813
233,669	-2,591	352,824	170,715
234,684	-2,838	352,607	170,308
235,699	-2,636	352,258	170,358
236,713	-2,562	352,152	170,378
237,728	-2,535	351,757	170,204
238,742	-2,489	351,510	170,122
239,757	-2,604	351,426	169,933
240,772	-2,599	351,135	169,783
241,786	-2,617	350,999	169,681
242,801	-2,584	350,568	169,496
243,815	-2,683	350,553	169,359
244,830	-2,707	350,312	169,200
245,844	-2,780	349,991	168,946
246,859	-2,677	349,831	168,971
247,874	-2,568	349,593	168,968
248,888	-2,673	349,264	168,672
249,903	-2,655	349,257	168,675
250,917	-2,764	349,017	168,418
251,932	-2,581	348,764	168,491
252,947	-2,577	348,317	168,265
253,961	-2,573	348,187	168,192
254,976	-2,693	347,976	167,938
255,990	-2,588	347,661	167,891
257,005	-2,594	347,496	167,789
258,020	-2,629	347,375	167,675
259,034	-2,648	347,107	167,510
260,049	-2,539	346,738	167,442
261,063	-2,624	346,616	167,270
262,078	-2,646	346,392	167,122
263,093	-2,468	346,171	167,203
264,107	-2,604	345,925	166,915
265,122	-2,484	345,746	166,950
266,136	-2,587	345,510	166,704
267,151	-2,496	345,159	166,624
268,166	-2,540	345,101	166,531
269,180	-2,511	344,631	166,322
270,195	-2,517	344,617	166,294
271,209	-2,550	344,396	166,134
272,224	-2,634	344,336	165,996
273,239	-2,636	344,038	165,835
274,253	-2,401	343,743	165,944
275,268	-2,446	343,423	165,724
276,282	-2,540	343,250	165,519
277,297	-2,517	342,950	165,386
278,312	-2,360	342,729	165,440
279,326	-2,503	342,578	165,192
280,341	-2,363	342,350	165,225
281,355	-2,401	342,167	165,080
282,370	-2,583	341,990	164,776
283,384	-2,632	341,680	164,555
284,399	-2,450	341,393	164,607
285,414	-2,398	341,316	164,613
286,428	-2,403	341,074	164,477
287,443	-2,274	340,685	164,418
288,457	-2,388	340,544	164,209
289,472	-2,434	340,526	164,133
290,487	-2,350	340,221	164,066
291,501	-2,404	339,971	163,870
292,516	-2,352	339,789	163,826
293,530	-2,302	339,568	163,761
294,545	-2,320	339,381	163,636
295,560	-2,235	339,050	163,556
296,574	-2,385	338,953	163,328
297,589	-2,346	338,722	163,246
298,603	-2,229	338,555	163,281
299,618	-2,350	338,387	163,050
300,633	-2,239	337,941	162,944
301,647	-2,176	337,812	162,937
302,662	-2,101	337,625	162,916
303,676	-2,248	337,423	162,641
304,691	-2,400	337,158	162,331
305,706	-2,366	336,940	162,248
306,720	-2,223	336,613	162,234
307,735	-2,305	336,563	162,106
308,749	-2,218	336,316	162,068
309,764	-2,285	336,121	161,885
310,779	-2,258	335,912	161,801
311,793	-2,285	335,692	161,650
312,808	-2,264	335,453	161,543
313,822	-2,354	335,271	161,342
314,837	-2,196	334,864	161,306
315,852	-2,089	334,764	161,360
316,866	-2,118	334,683	161,275
317,881	-2,139	334,359	161,082
318,895	-1,938	334,023	161,126
319,910	-2,092	333,912	160,890
320,925	-2,188	333,710	160,673
321,939	-2,072	333,510	160,689
322,954	-2,132	333,345	160,530
323,968	-2,076	333,132	160,474
324,983	-1,939	332,899	160,497
325,997	-2,012	332,729	160,321
327,012	-2,179	332,396	159,964
328,027	-2,198	332,240	159,855
329,041	-2,191	331,995	159,730
330,056	-2,059	331,863	159,795
331,070	-2,071	331,572	159,628
332,085	-1,990	331,470	159,652
333,100	-2,130	331,345	159,426
334,114	-1,937	330,872	159,393
335,129	-1,834	330,589	159,354
336,143	-1,900	330,531	159,241
337,158	-2,039	330,380	159,004
338,173	-1,978	330,272	159,003
339,187	-1,988	330,032	158,862
340,202	-2,028	329,780	158,684
341,216	-1,983	329,468	158,568
342,231	-2,002	329,337	158,471
343,246	-2,101	329,220	158,294
344,260	-1,938	328,794	158,250
345,275	-1,927	328,524	158,117
346,289	-2,094	328,315	157,824
347,304	-1,997	328,126	157,823
348,319	-1,924	328,153	157,900
349,333	-1,789	327,849	157,884
350,348	-1,850	327,545	157,658
351,362	-1,911	327,437	157,527
352,377	-1,963	327,253	157,369
353,392	-1,775	326,969	157,419
354,406	-1,905	326,984	157,273
355,421	195,542	1323,560	1382,105
356,435	159,899	1444,775	1381,933
