DTS Sentinel unit serial number:	SN410029Multiplexer serial number:	ORYXHardware model number:	OX2-SRSoftware version number:	ORYX F/W v4,00 Oryx Data Collector v3.7.2.0data status	okinstallation	B6 Nyhavnadifferential loss correction	single-endedforward channel	channel 2reverse channel	N/Adate	2023/12/09time	08:10:08forward acquisition time	300,00reverse acquisition time	0,00gamma	499,1914k internal	0,3139k external	0,3139temperature offset calibration	1,0000default loss term (dB/km)	0,3820temperature slope calibration	1,0000multiplexer offset coefficient	1,0000multiplexer slope coefficient	1,0000fibre end	0,00T internal ref (°C)	18,50T ext. ref 1 (°C)	1,94T ext. ref 2 (°C)	1,92length (m)	temperature (°C)	Stokes	anti-Stokes-744,400	-125,849	0,120	-0,013
-743,385	-162,598	-0,373	-0,013
-742,371	86,818	0,023	0,019
-741,356	261,674	-0,036	-0,047
-740,342	137,155	0,035	-0,034
-739,327	-98,929	-0,306	0,057
-738,312	82,865	-0,064	-0,052
-737,298	-35,274	-0,274	0,110
-736,283	-200,000	-0,005	-0,109
-735,269	-92,502	-0,303	-0,063
-734,254	500,859	0,024	-0,041
-733,239	-116,824	-0,485	-0,065
-732,225	-86,877	0,312	-0,070
-731,210	318,884	-0,055	0,078
-730,196	45,333	-0,092	-0,063
-729,181	453,348	0,038	0,063
-728,167	-1,414	0,097	0,051
-727,152	-65,377	-0,116	-0,034
-726,137	291,846	-0,071	-0,096
-725,123	-200,000	0,014	-0,056
-724,108	13,489	-0,074	0,042
-723,094	8,764	-0,144	0,080
-722,079	-200,000	-0,000	-0,025
-721,064	-144,885	-0,176	-0,012
-720,050	800,000	-0,029	-0,064
-719,035	168,535	-0,025	0,026
-718,021	-87,299	-0,178	-0,040
-717,006	4,620	0,120	-0,065
-715,991	102,728	-0,099	-0,086
-714,977	382,271	-0,101	-0,155
-713,962	-127,031	-0,148	0,016
-712,948	194,710	0,097	-0,109
-711,933	311,546	-0,016	0,023
-710,918	34,745	-0,133	0,086
-709,904	-200,000	-0,009	-0,086
-708,889	-59,209	0,017	0,005
-707,875	-153,458	0,046	0,002
-706,860	279,713	-0,057	-0,075
-705,845	52,182	0,071	-0,050
-704,831	621,210	0,060	0,112
-703,816	-2,861	0,092	-0,047
-702,802	40,818	-0,102	-0,068
-701,787	-99,773	-0,087	0,016
-700,772	-200,000	0,035	-0,182
-699,758	96,510	0,035	-0,030
-698,743	380,832	-0,094	0,144
-697,729	800,000	0,028	0,065
-696,714	-21,944	0,032	0,014
-695,699	800,000	-0,013	-0,040
-694,685	800,000	-0,033	-0,068
-693,670	289,645	-0,020	-0,027
-692,656	317,685	-0,026	0,037
-691,641	-141,554	-0,067	-0,005
-690,627	800,000	-0,040	0,090
-689,612	-57,073	-0,115	-0,037
-688,597	95,451	0,102	-0,086
-687,583	-69,945	-0,064	0,018
-686,568	613,099	-0,051	-0,096
-685,554	-99,385	-0,089	0,016
-684,539	-188,367	-0,082	-0,001
-683,524	-200,000	-0,004	0,111
-682,510	-26,882	0,009	-0,004
-681,495	34,459	-0,088	-0,057
-680,481	577,775	-0,033	-0,059
-679,466	736,370	0,037	-0,074
-678,451	-28,105	-0,088	0,038
-677,437	-147,945	0,109	-0,007
-676,422	-200,000	-0,004	-0,024
-675,408	52,905	-0,119	0,084
-674,393	169,726	-0,102	-0,108
-673,378	52,885	-0,045	0,032
-672,364	62,564	-0,112	-0,083
-671,349	800,000	-0,055	-0,116
-670,335	62,026	0,030	0,022
-669,320	177,581	-0,070	-0,076
-668,305	-97,844	0,152	-0,029
-667,291	-26,416	-0,168	-0,072
-666,276	-81,681	0,174	0,042
-665,262	267,358	-0,049	0,063
-664,247	-193,672	-0,143	0,001
-663,232	-200,000	-0,008	0,138
-662,218	379,125	-0,127	0,193
-661,203	-23,225	0,111	-0,049
-660,189	-88,786	-0,092	0,020
-659,174	349,670	0,073	-0,107
-658,159	-200,000	0,044	-0,145
-657,145	-73,345	-0,065	-0,018
-656,130	800,000	-0,023	0,060
-655,116	-46,599	0,116	0,042
-654,101	-200,000	0,018	0,105
-653,086	-131,533	-0,165	0,016
-652,072	-200,000	0,033	-0,163
-651,057	71,760	-0,072	-0,055
-650,043	21,367	-0,095	-0,057
-649,028	-108,265	-0,029	0,005
-648,014	416,690	0,032	-0,051
-646,999	-94,287	-0,149	0,030
-645,984	-120,477	-0,110	-0,014
-644,970	-47,258	-0,217	0,078
-643,955	368,934	-0,051	-0,077
-642,941	-11,580	-0,048	-0,023
-641,926	800,000	0,045	-0,094
-640,911	-200,000	-0,000	0,126
-639,897	800,000	0,060	0,151
-638,882	37,490	-0,084	0,055
-637,868	19,108	0,059	-0,035
-636,853	101,923	-0,013	0,011
-635,838	355,004	-0,120	-0,176
-634,824	-200,000	0,042	-0,144
-633,809	800,000	0,039	0,090
-632,795	114,465	0,091	0,081
-631,780	-107,371	-0,157	-0,025
-630,765	639,913	0,038	0,071
-629,751	49,766	0,053	0,037
-628,736	-200,000	0,028	0,103
-627,722	-200,000	-0,003	-0,098
-626,707	800,000	0,033	-0,070
-625,692	61,187	-0,051	-0,037
-624,678	800,000	-0,014	-0,031
-623,663	26,148	-0,043	0,027
-622,649	-200,000	-0,024	0,106
-621,634	800,000	0,044	0,091
-620,619	-42,451	0,077	-0,029
-619,605	284,823	-0,061	-0,081
-618,590	170,210	0,100	0,105
-617,576	800,000	-0,038	0,120
-616,561	-84,340	-0,103	0,024
-615,546	-200,000	0,041	-0,153
-614,532	276,852	-0,056	-0,073
-613,517	-200,000	-0,000	0,087
-612,503	327,065	-0,030	0,043
-611,488	-63,153	0,070	0,021
-610,474	-40,414	0,087	0,033
-609,459	-29,110	-0,145	0,061
-608,444	11,470	-0,077	-0,043
-607,430	37,656	-0,076	-0,050
-606,415	-37,265	-0,086	-0,034
-605,401	800,000	-0,048	0,152
-604,386	800,000	-0,002	-0,004
-603,371	-123,962	0,121	-0,014
-602,357	4,716	-0,104	0,056
-601,342	-135,095	-0,057	0,005
-600,328	419,710	-0,068	-0,107
-599,313	800,000	0,021	-0,051
-598,298	44,288	-0,004	0,003
-597,284	168,017	-0,056	0,058
-596,269	79,687	0,042	-0,033
-595,255	-166,301	-0,064	-0,002
-594,240	303,932	-0,048	-0,066
-593,225	-2,138	-0,073	-0,038
-592,211	45,609	-0,117	-0,079
-591,196	800,000	0,019	0,049
-590,182	286,468	-0,106	0,141
-589,167	-27,222	0,076	-0,032
-588,152	-25,537	0,104	-0,045
-587,138	23,784	-0,032	0,019
-586,123	127,655	-0,028	-0,027
-585,109	-200,000	-0,016	-0,068
-584,094	-133,499	-0,152	-0,014
-583,079	-35,733	0,155	0,061
-582,065	1,686	0,052	0,028
-581,050	800,000	0,043	-0,112
-580,036	-103,394	-0,100	0,017
-579,021	279,826	0,090	-0,119
-578,006	-200,000	-0,027	-0,101
-576,992	79,912	-0,033	-0,026
-575,977	56,116	-0,129	-0,092
-574,963	-155,582	0,088	-0,004
-573,948	800,000	-0,056	0,132
-572,934	310,457	-0,053	0,074
-571,919	-90,535	-0,075	-0,016
-570,904	-200,000	-0,002	0,183
-569,890	399,268	0,020	-0,031
-568,875	122,771	-0,087	0,080
-567,861	-200,000	0,002	0,041
-566,846	-15,200	0,055	-0,026
-565,831	-129,104	-0,127	-0,013
-564,817	-120,759	0,016	-0,002
-563,802	660,501	0,021	-0,041
-562,788	498,050	0,034	0,058
-561,773	-200,000	0,002	0,038
-560,758	64,254	-0,035	0,026
-559,744	-5,770	0,068	0,034
-558,729	-46,775	-0,050	0,018
-557,715	302,459	-0,026	0,035
-556,700	90,481	-0,093	0,077
-555,685	-200,000	-0,020	-0,077
-554,671	66,830	0,055	-0,041
-553,656	306,788	0,105	-0,144
-552,642	-105,776	-0,106	0,018
-551,627	-200,000	0,004	-0,024
-550,612	-10,706	-0,044	0,021
-549,598	800,000	-0,066	-0,173
-548,583	-200,000	0,001	-0,049
-547,569	261,168	-0,055	0,071
-546,554	-4,667	-0,026	0,013
-545,539	-21,114	0,089	0,040
-544,525	151,430	0,131	0,132
-543,510	253,440	-0,017	0,021
-542,496	-200,000	0,014	0,070
-541,481	800,000	0,015	-0,046
-540,466	-185,385	0,117	-0,001
-539,452	179,549	0,056	0,060
-538,437	22,624	0,059	0,035
-537,423	-105,800	0,151	0,025
-536,408	-200,000	-0,034	-0,118
-535,393	-200,000	-0,010	0,061
-534,379	2,286	0,111	0,059
-533,364	-89,429	-0,144	0,031
-532,350	207,516	0,037	-0,042
-531,335	469,919	-0,069	0,114
-530,321	202,731	0,066	0,075
-529,306	76,354	0,033	-0,026
-528,291	-85,597	-0,022	0,005
-527,277	-200,000	-0,027	-0,177
-526,262	31,259	-0,114	0,072
-525,248	-200,000	-0,025	0,144
-524,233	33,426	-0,108	-0,069
-523,218	99,817	-0,045	-0,038
-522,204	-200,000	0,049	0,178
-521,189	251,618	-0,079	-0,099
-520,175	800,000	0,071	-0,166
-519,160	260,999	0,009	0,012
-518,145	-46,988	0,075	0,027
-517,131	-75,704	0,068	0,018
-516,116	-200,000	0,026	0,103
-515,102	-83,677	0,129	-0,030
-514,087	12,393	-0,077	0,044
-513,072	800,000	-0,082	-0,208
-512,058	-71,336	-0,040	0,011
-511,043	-34,605	0,090	0,036
-510,029	34,579	0,088	0,056
-509,014	-131,929	0,068	-0,006
-507,999	-200,000	-0,027	0,095
-506,985	243,399	0,035	0,044
-505,970	-103,663	-0,111	-0,019
-504,956	201,812	0,042	0,047
-503,941	9,300	0,045	-0,025
-502,926	-48,725	0,041	0,014
-501,912	800,000	-0,008	0,024
-500,897	-200,000	0,008	-0,050
-499,883	146,011	-0,079	-0,078
-498,868	254,366	0,028	-0,035
-497,853	-200,000	-0,014	-0,097
-496,839	552,304	0,029	-0,052
-495,824	-200,000	-0,004	0,055
-494,810	290,996	-0,062	0,083
-493,795	-63,511	-0,132	0,040
-492,781	122,982	0,039	-0,035
-491,766	37,491	-0,197	-0,128
-490,751	-200,000	0,009	-0,069
-489,737	-200,000	-0,014	-0,047
-488,722	215,237	0,119	0,139
-487,708	51,541	0,086	-0,060
-486,693	10,119	0,112	-0,063
-485,678	-88,526	0,144	-0,031
-484,664	-69,676	-0,135	0,038
-483,649	-200,000	0,022	-0,094
-482,635	800,000	-0,026	-0,054
-481,620	-200,000	-0,003	0,080
-480,605	-200,000	0,016	-0,095
-479,591	-70,308	0,070	0,019
-478,576	169,884	0,022	-0,023
-477,562	668,527	0,030	-0,057
-476,547	255,052	-0,115	-0,145
-475,532	-90,981	-0,231	-0,048
-474,518	398,808	0,088	-0,135
-473,503	-20,832	0,134	0,060
-472,489	12,045	-0,015	0,008
-471,474	800,000	0,058	-0,124
-470,459	-200,000	0,009	0,104
-469,445	263,575	0,083	-0,106
-468,430	0,562	0,042	-0,022
-467,416	501,057	-0,038	0,064
-466,401	800,000	0,040	-0,107
-465,386	-200,000	-0,003	0,064
-464,372	555,837	-0,072	-0,128
-463,357	34,898	-0,049	0,031
-462,343	-72,101	-0,027	-0,007
-461,328	-27,421	0,068	-0,029
-460,313	319,921	-0,027	-0,037
-459,299	-200,000	-0,003	0,100
-458,284	598,678	0,046	0,085
-457,270	-200,000	0,014	-0,105
-456,255	199,016	-0,063	-0,071
-455,241	-200,000	0,003	-0,067
-454,226	167,452	-0,107	-0,111
-453,211	94,388	0,008	0,007
-452,197	-52,378	0,113	-0,038
-451,182	-94,180	-0,079	-0,016
-450,168	-9,986	0,093	0,045
-449,153	-153,951	-0,075	-0,004
-448,138	-105,465	-0,134	0,022
-447,124	202,348	0,052	0,059
-446,109	-28,651	0,044	-0,018
-445,095	21,027	0,097	0,058
-444,080	800,000	0,008	0,020
-443,065	-74,629	-0,097	-0,025
-442,051	-200,000	-0,020	0,112
-441,036	165,657	0,033	0,034
-440,022	-200,000	-0,013	-0,045
-439,007	176,910	-0,080	-0,085
-437,992	-200,000	-0,007	0,065
-436,978	375,920	-0,094	-0,141
-435,963	-200,000	-0,012	-0,042
-434,949	-200,000	0,030	-0,216
-433,934	113,882	0,031	-0,028
-432,919	-91,888	0,046	-0,009
-431,905	-46,862	0,136	0,049
-430,890	316,690	-0,032	-0,044
-429,876	-32,439	0,037	0,015
-428,861	-175,661	-0,028	0,001
-427,846	800,000	0,022	0,056
-426,832	800,000	0,029	-0,086
-425,817	-200,000	-0,007	-0,026
-424,803	-200,000	-0,003	-0,083
-423,788	-200,000	0,001	-0,039
-422,773	800,000	-0,023	-0,054
-421,759	800,000	0,036	-0,110
-420,744	-6,541	0,050	0,025
-419,730	120,626	-0,036	-0,032
-418,715	42,676	-0,040	0,026
-417,701	143,163	-0,125	0,122
-416,686	-40,419	0,170	0,064
-415,671	-200,000	0,014	0,091
-414,657	-200,000	0,029	0,126
-413,642	-62,228	-0,063	0,019
-412,628	-14,266	-0,116	-0,055
-411,613	-200,000	-0,016	0,053
-410,598	-200,000	-0,017	-0,065
-409,584	800,000	0,012	-0,036
-408,569	-200,000	-0,025	0,114
-407,555	800,000	0,045	0,125
-406,540	-200,000	0,021	-0,138
-405,525	-94,162	-0,028	0,005
-404,511	239,066	-0,089	0,109
-403,496	-60,346	0,077	0,024
-402,482	-200,000	0,009	-0,030
-401,467	424,305	-0,063	0,099
-400,452	35,092	-0,094	0,060
-399,438	-200,000	0,002	0,024
-398,423	289,000	0,044	0,059
-397,409	-200,000	-0,004	-0,088
-396,394	-200,000	-0,013	0,053
-395,379	60,079	0,086	-0,062
-394,365	125,969	0,089	-0,082
-393,350	-200,000	-0,018	0,089
-392,336	-97,212	0,123	-0,023
-391,321	231,280	0,043	0,052
-390,306	529,573	-0,077	-0,133
-389,292	53,442	0,070	0,049
-388,277	800,000	0,033	-0,091
-387,263	500,957	0,052	-0,087
-386,248	-81,379	-0,074	0,018
-385,233	800,000	-0,023	0,066
-384,219	-67,636	0,053	0,015
-383,204	800,000	0,027	-0,071
-382,190	101,913	-0,069	-0,059
-381,175	-54,429	0,112	-0,037
-380,160	75,565	-0,071	-0,054
-379,146	51,994	0,048	0,033
-378,131	137,861	0,074	0,071
-377,117	-94,453	-0,033	0,006
-376,102	13,585	-0,064	-0,036
-375,088	-79,360	-0,096	-0,023
-374,073	316,695	-0,023	0,031
-373,058	-36,077	0,061	0,024
-372,044	-82,528	0,114	-0,027
-371,029	-31,558	0,073	-0,030
-370,015	-68,390	-0,075	0,021
-369,000	215,930	0,110	0,128
-367,985	219,222	-0,039	-0,046
-366,971	347,861	0,027	0,039
-365,956	204,152	0,030	0,034
-364,942	-200,000	-0,009	0,076
-363,927	-200,000	-0,008	0,053
-362,912	-200,000	-0,009	-0,047
-361,898	-200,000	-0,004	-0,101
-360,883	102,975	0,105	0,090
-359,869	-138,489	0,095	-0,008
-358,854	7,435	0,054	-0,030
-357,839	-200,000	-0,012	0,042
-356,825	-200,000	-0,002	-0,066
-355,810	309,441	0,085	0,117
-354,796	-200,000	-0,005	-0,089
-353,781	227,925	-0,030	-0,036
-352,766	-200,000	-0,001	0,025
-351,752	-200,000	0,033	0,107
-350,737	201,376	0,035	0,039
-349,723	21,411	-0,020	-0,012
-348,708	-200,000	-0,002	0,125
-347,693	-200,000	-0,001	-0,013
-346,679	238,099	0,002	0,002
-345,664	187,065	-0,031	-0,034
-344,650	800,000	-0,037	-0,091
-343,635	-100,270	-0,038	0,007
-342,620	-200,000	0,021	0,169
-341,606	-200,000	-0,019	-0,156
-340,591	-200,000	-0,022	0,100
-339,577	122,043	0,039	-0,035
-338,562	211,371	-0,056	-0,065
-337,548	-78,283	-0,033	-0,008
-336,533	180,034	0,155	-0,166
-335,518	125,646	-0,072	0,066
-334,504	-200,000	-0,008	0,072
-333,489	-200,000	0,015	-0,075
-332,475	-200,000	0,002	-0,049
-331,460	-200,000	0,021	0,111
-330,445	113,228	0,036	-0,032
-329,431	800,000	0,031	-0,092
-328,416	-50,185	0,129	0,044
-327,402	-171,238	0,194	0,005
-326,387	-9,550	-0,106	0,051
-325,372	-200,000	-0,002	-0,051
-324,358	93,439	-0,061	-0,050
-323,343	-59,656	-0,069	0,021
-322,329	-200,000	-0,021	-0,127
-321,314	-200,000	0,019	-0,091
-320,299	79,474	0,098	0,076
-319,285	130,868	0,104	0,098
-318,270	-200,000	0,025	-0,093
-317,256	418,282	0,034	-0,053
-316,241	-7,137	-0,049	-0,024
-315,226	800,000	0,055	-0,143
-314,212	-48,861	-0,042	0,015
-313,197	490,651	-0,087	0,145
-312,183	-200,000	-0,006	0,072
-311,168	-128,454	0,109	-0,011
-310,153	800,000	-0,059	-0,183
-309,139	591,651	0,078	-0,142
-308,124	-87,627	0,094	-0,020
-307,110	-200,000	0,015	-0,074
-306,095	57,688	-0,094	0,067
-305,080	94,142	-0,044	0,036
-304,066	24,576	0,048	0,029
-303,051	337,704	-0,035	-0,050
-302,037	366,303	-0,022	0,033
-301,022	-141,134	0,044	-0,003
-300,008	-128,637	-0,123	0,012
-298,993	314,495	0,084	-0,116
-297,978	-143,543	0,067	0,005
-296,964	154,548	-0,047	-0,047
-295,949	81,942	-0,055	-0,043
-294,935	800,000	-0,019	-0,042
-293,920	-200,000	-0,002	-0,032
-292,905	-120,638	0,131	0,016
-291,891	-40,877	0,100	-0,038
-290,876	15,967	0,079	0,045
-289,862	386,490	0,059	0,089
-288,847	-200,000	-0,006	0,021
-287,832	-200,000	-0,016	-0,077
-286,818	195,340	-0,060	-0,066
-285,803	-200,000	0,013	-0,106
-284,789	-32,042	0,151	0,061
-283,774	-200,000	0,026	0,156
-282,759	-26,904	-0,056	0,024
-281,745	800,000	0,034	-0,073
-280,730	-51,133	-0,067	-0,023
-279,716	173,446	0,020	0,021
-278,701	-103,095	-0,137	0,023
-277,686	40,317	-0,080	-0,052
-276,672	-199,700	-0,148	-0,001
-275,657	800,000	0,020	-0,056
-274,643	-144,443	-0,105	-0,007
-273,628	-97,962	-0,055	-0,010
-272,613	800,000	0,030	-0,087
-271,599	-35,401	0,102	-0,040
-270,584	142,166	-0,065	0,062
-269,570	800,000	-0,068	0,161
-268,555	-92,238	0,016	0,003
-267,540	-200,000	-0,008	-0,027
-266,526	352,915	0,052	0,075
-265,511	800,000	0,017	0,036
-264,497	635,595	0,026	-0,048
-263,482	4,592	0,086	0,046
-262,467	374,560	0,030	0,044
-261,453	-200,000	-0,042	0,158
-260,438	-84,455	-0,112	0,025
-259,424	800,000	0,036	-0,093
-258,409	-200,000	0,014	-0,132
-257,395	138,035	-0,034	0,032
-256,380	800,000	0,047	0,102
-255,365	-65,471	0,081	0,024
-254,351	-76,990	-0,127	0,032
-253,336	198,586	0,071	-0,079
-252,322	800,000	-0,027	-0,064
-251,307	739,371	-0,021	0,041
-250,292	800,000	0,041	0,116
-249,278	-200,000	0,009	0,075
-248,263	800,000	0,041	0,110
-247,249	98,203	0,101	0,085
-246,234	26,731	-0,027	-0,017
-245,219	-200,000	0,011	0,122
-244,205	-29,561	-0,043	0,018
-243,190	-35,205	-0,064	0,025
-242,176	508,087	0,015	-0,026
-241,161	-200,000	0,138	0,000
-240,146	800,000	-0,012	0,025
-239,132	-10,795	-0,136	-0,065
-238,117	314,293	-0,034	-0,046
-237,103	64,339	-0,018	-0,013
-236,088	226,736	-0,083	0,098
-235,073	-200,000	0,001	0,083
-234,059	-67,559	0,030	0,008
-233,044	739,237	0,016	-0,030
-232,030	67,106	0,040	-0,030
-231,015	27,727	0,066	0,041
-230,000	800,000	-0,039	0,102
-228,986	-200,000	-0,020	-0,191
-227,971	225,537	-0,028	-0,033
-226,957	800,000	0,009	-0,025
-225,942	196,456	-0,043	0,047
-224,927	326,710	-0,037	0,052
-223,913	-37,710	-0,038	0,014
-222,898	-200,000	0,004	-0,066
-221,884	-200,000	0,006	0,049
-220,869	-200,000	-0,011	0,104
-219,855	141,654	-0,070	0,068
-218,840	-4,072	0,108	-0,054
-217,825	154,254	0,079	0,079
-216,811	299,499	-0,018	0,024
-215,796	-200,000	-0,056	-0,208
-214,782	-200,000	0,004	0,018
-213,767	127,969	0,082	-0,076
-212,752	84,402	-0,005	-0,004
-211,738	-109,158	0,083	0,013
-210,723	241,765	0,112	0,136
-209,709	310,250	0,072	0,098
-208,694	-98,432	-0,064	0,012
-207,679	458,616	0,068	-0,110
-206,665	746,601	-0,011	-0,022
-205,650	-110,399	0,074	-0,011
-204,636	296,237	0,071	-0,095
-203,621	-69,925	0,043	0,012
-202,606	-77,527	-0,078	0,019
-201,592	133,181	-0,051	-0,048
-200,577	-200,000	-0,017	-0,147
-199,563	488,598	-0,033	0,055
-198,548	568,672	0,032	0,056
-197,533	800,000	0,043	0,115
-196,519	-200,000	0,010	0,250
-195,504	399,094	-0,034	-0,053
-194,490	167,317	-0,072	-0,075
-193,475	800,000	0,012	0,032
-192,460	800,000	-0,035	-0,110
-191,446	254,559	0,056	0,069
-190,431	-14,230	0,063	0,029
-189,417	46,105	-0,099	0,067
-188,402	603,571	-0,044	-0,079
-187,387	-200,000	-0,001	0,031
-186,373	800,000	0,023	-0,063
-185,358	-147,482	0,032	0,002
-184,344	54,510	0,077	0,054
-183,329	-159,750	0,102	0,004
-182,315	251,428	0,106	0,132
-181,300	-151,216	-0,047	0,002
-180,285	-200,000	-0,023	-0,074
-179,271	-2,042	-0,078	-0,040
-178,256	-78,855	0,021	-0,005
-177,242	-52,179	0,044	0,015
-176,227	800,000	0,019	0,057
-175,212	614,863	0,037	0,067
-174,198	-200,000	0,020	-0,107
-173,183	18,075	-0,096	0,056
-172,169	-155,035	-0,158	-0,007
-171,154	44,202	0,034	0,022
-170,139	-35,963	0,051	0,020
-169,125	-125,443	0,129	0,014
-168,110	115,801	-0,104	0,092
-167,096	-200,000	-0,008	0,053
-166,081	7,604	-0,075	-0,040
-165,066	-77,091	-0,098	-0,025
-164,052	180,096	0,021	-0,022
-163,037	227,559	0,116	0,137
-162,023	-74,173	-0,071	-0,018
-161,008	-200,000	0,030	0,159
-159,993	-200,000	-0,027	0,129
-158,979	278,263	-0,035	0,045
-157,964	-200,000	-0,012	0,051
-156,950	133,052	0,013	-0,013
-155,935	800,000	0,055	-0,118
-154,920	14,972	0,127	-0,072
-153,906	-25,181	-0,116	-0,050
-152,891	-87,123	-0,071	-0,016
-151,877	-200,000	-0,000	-0,059
-150,862	-200,000	0,081	0,000
-149,847	-65,363	-0,034	-0,010
-148,833	-189,511	0,091	-0,001
-147,818	800,000	-0,019	-0,055
-146,804	-120,164	-0,050	0,006
-145,789	800,000	0,021	-0,057
-144,775	800,000	-0,021	-0,057
-143,760	-137,381	-0,075	-0,006
-142,745	388,144	-0,038	0,057
-141,731	-200,000	0,055	0,218
-140,716	188,457	-0,015	-0,016
-139,702	-113,965	-0,057	0,008
-138,687	-200,000	0,016	-0,060
-137,672	-200,000	-0,030	0,130
-136,658	800,000	0,015	-0,046
-135,643	259,216	-0,059	-0,074
-134,629	75,447	0,066	-0,050
-133,614	-200,000	-0,020	-0,079
-132,599	800,000	-0,040	0,101
-131,585	176,431	0,009	-0,009
-130,570	-118,209	-0,173	-0,022
-129,556	50,518	-0,116	-0,079
-128,541	223,243	-0,039	0,045
-127,526	95,301	-0,048	-0,039
-126,512	-13,817	0,152	-0,071
-125,497	56,205	0,042	-0,029
-124,483	64,218	0,082	-0,060
-123,468	11,093	0,154	-0,085
-122,453	67,843	-0,078	-0,058
-121,439	-76,612	0,082	-0,021
-120,424	800,000	-0,039	-0,108
-119,410	507,415	0,058	-0,098
-118,395	-154,607	-0,055	0,003
-117,380	104,672	-0,076	-0,065
-116,366	-22,800	0,074	-0,032
-115,351	135,647	0,055	-0,052
-114,337	109,419	-0,071	-0,061
-113,322	32,598	-0,082	-0,051
-112,307	89,758	0,019	-0,015
-111,293	190,397	-0,020	0,022
-110,278	-130,931	-0,015	-0,001
-109,264	-30,673	0,043	0,018
-108,249	-119,079	-0,063	0,008
-107,234	182,631	-0,084	-0,090
-106,220	800,000	0,052	-0,106
-105,205	73,618	0,085	-0,064
-104,191	-113,480	0,080	0,011
-103,176	-200,000	-0,017	0,136
-102,162	57,908	-0,160	0,113
-101,147	-136,055	0,067	-0,006
-100,132	58,029	-0,039	-0,028
-99,118	8,419	0,074	-0,040
-98,103	800,000	-0,002	-0,005
-97,089	-135,762	0,078	0,007
-96,074	196,533	0,094	0,103
-95,059	-200,000	0,021	0,068
-94,045	14,682	-0,101	-0,057
-93,030	-66,971	0,031	0,009
-92,016	-200,000	0,026	0,107
-91,001	42,237	-0,020	0,013
-89,986	-22,527	-0,048	-0,021
-88,972	215,722	-0,053	-0,061
-87,957	800,000	0,067	0,211
-86,943	103,102	0,037	-0,031
-85,928	211,512	0,120	-0,137
-84,913	9,587	-0,049	-0,027
-83,899	66,433	0,091	-0,067
-82,884	-86,729	0,086	-0,019
-81,870	800,000	-0,044	0,137
-80,855	800,000	-0,032	0,092
-79,840	-200,000	0,044	0,145
-78,826	-122,153	-0,202	-0,024
-77,811	800,000	-0,036	0,112
-76,797	-200,000	0,005	0,036
-75,782	-36,720	-0,107	0,041
-74,767	25,501	-0,037	0,022
-73,753	569,026	0,010	0,017
-72,738	-83,548	0,065	-0,015
-71,724	-135,082	-0,075	-0,006
-70,709	-6,760	0,087	0,043
-69,694	-200,000	0,001	0,035
-68,680	110,426	-0,112	-0,097
-67,665	-200,000	-0,001	0,010
-66,651	-50,537	0,047	-0,016
-65,636	181,778	0,029	0,031
-64,622	419,267	0,129	-0,201
-63,607	433,383	-0,028	0,045
-62,592	586,418	0,027	0,048
-61,578	-158,393	0,024	0,001
-60,563	58,110	0,064	0,045
-59,549	-200,000	-0,009	-0,056
-58,534	-25,062	-1,710	-0,729
-57,519	800,000	-0,542	-1,259
-56,505	-200,000	-1,064	-4,864
-55,490	-114,564	0,630	0,086
-54,476	800,000	5,291	12,143
-53,461	-200,000	15,975	278,826
-52,446	-200,000	702,681	2248,307
-51,432	564,758	1618,882	2843,733
-50,417	121,794	1623,440	1461,837
-49,403	82,372	1284,088	1005,014
-48,388	36,818	1028,435	654,816
-47,373	21,573	990,113	580,003
-46,359	20,464	978,923	569,769
-45,344	18,816	974,789	561,922
-44,330	18,850	973,315	561,162
-43,315	18,615	971,669	559,420
-42,300	18,556	970,810	558,712
-41,286	18,553	969,763	558,077
-40,271	18,582	968,627	557,495
-39,257	18,575	967,919	557,042
-38,242	18,560	967,134	556,519
-37,227	18,561	966,279	556,010
-36,213	18,593	965,536	555,663
-35,198	18,514	964,633	554,864
-34,184	18,517	963,960	554,464
-33,169	18,501	962,959	553,817
-32,154	18,552	962,184	553,513
-31,140	18,538	961,307	552,941
-30,125	18,545	960,525	552,493
-29,111	18,608	959,685	552,192
-28,096	18,584	959,072	551,738
-27,082	18,513	958,428	551,118
-26,067	18,511	957,667	550,652
-25,052	18,504	956,813	550,116
-24,038	18,529	956,117	549,773
-23,023	18,528	955,331	549,299
-22,009	18,590	954,598	549,055
-20,994	18,522	954,145	548,554
-19,979	18,561	953,406	548,233
-18,965	18,547	953,072	547,971
-17,950	18,448	952,322	547,200
-16,936	18,526	951,659	547,050
-15,921	18,466	951,198	546,569
-14,906	18,425	950,365	545,937
-13,892	18,438	949,453	545,436
-12,877	18,356	948,921	544,844
-11,863	18,439	948,213	544,682
-10,848	18,401	947,882	544,348
-9,833	18,484	947,440	544,337
-8,819	18,476	946,757	543,898
-7,804	18,422	945,917	543,221
-6,790	18,381	945,437	542,796
-5,775	18,448	944,781	542,609
-4,760	18,427	944,286	542,238
-3,746	18,413	943,738	541,856
-2,731	18,281	942,756	540,851
-1,717	18,188	942,319	540,283
-0,702	18,283	941,513	540,100
0,313	18,032	940,841	539,735
1,327	21,142	939,145	548,563
2,342	30,226	796,656	489,536
3,356	27,369	449,437	271,862
4,371	-2,665	295,258	148,505
5,386	-6,696	276,571	135,264
6,400	-7,961	270,695	131,201
7,415	-8,269	268,339	129,763
8,429	-8,309	267,141	129,135
9,444	-8,208	266,181	128,752
10,459	-8,081	265,613	128,581
11,473	-8,306	264,917	128,028
12,488	-8,485	264,450	127,628
13,502	-8,689	263,782	127,109
14,517	-8,461	263,455	127,148
15,531	-8,360	263,130	127,071
16,546	-8,354	262,735	126,874
17,561	-8,422	262,381	126,630
18,575	-8,151	262,042	126,699
19,590	-8,566	261,761	126,179
20,604	-8,453	261,540	126,163
21,619	-8,460	261,060	125,913
22,634	-8,288	260,688	125,877
23,648	-8,563	260,520	125,538
24,663	-8,305	260,036	125,524
25,677	-8,318	259,904	125,438
26,692	-8,401	259,703	125,255
27,707	-8,466	259,426	125,053
28,721	-8,411	259,050	124,909
29,736	-8,485	258,905	124,762
30,750	-8,532	258,656	124,590
31,765	-8,583	258,319	124,372
32,780	-8,410	258,115	124,415
33,794	-8,425	257,928	124,301
34,809	-8,546	257,698	124,072
35,823	-8,538	257,360	123,905
36,838	-8,428	257,192	123,910
37,853	-8,584	257,027	123,682
38,867	-8,684	256,720	123,435
39,882	-8,515	256,417	123,427
40,896	-8,453	256,259	123,395
41,911	-8,453	255,961	123,240
42,926	-8,454	255,643	123,075
43,940	-8,574	255,538	122,908
44,955	-8,721	255,293	122,651
45,969	-8,641	255,044	122,591
46,984	-8,818	254,813	122,314
47,999	-8,992	254,454	121,979
49,013	-9,142	254,314	121,770
50,028	-9,293	253,991	121,473
51,042	-9,312	253,803	121,355
52,057	-9,282	253,444	121,199
53,071	-9,367	253,447	121,116
54,086	-9,202	253,242	121,151
55,101	-9,181	253,019	121,051
56,115	-8,988	252,993	121,195
57,130	-8,593	252,880	121,472
58,144	-8,278	252,782	121,687
59,159	-8,193	252,520	121,624
60,174	-8,306	252,241	121,381
61,188	-8,273	252,140	121,351
62,203	-8,379	251,812	121,090
63,217	-8,330	251,559	120,999
64,232	-8,474	251,287	120,734
65,247	-8,417	251,255	120,757
66,261	-8,496	250,869	120,493
67,276	-8,578	250,687	120,325
68,290	-8,983	250,398	119,828
69,305	-8,944	250,230	119,771
70,320	-8,980	249,945	119,593
71,334	-8,810	249,871	119,692
72,349	-8,462	249,738	119,915
73,363	-8,298	249,544	119,951
74,378	-8,305	249,355	119,843
75,393	-8,473	249,105	119,570
76,407	-8,441	248,879	119,478
77,422	-8,367	248,689	119,438
78,436	-8,354	248,558	119,376
79,451	-8,404	248,316	119,206
80,466	-8,574	248,110	118,953
81,480	-8,708	247,766	118,664
82,495	-8,800	247,678	118,534
83,509	-8,886	247,674	118,448
84,524	-8,632	247,210	118,430
85,539	-9,000	246,971	117,994
86,553	-9,072	246,937	117,907
87,568	-8,795	246,627	117,982
88,582	-8,725	246,457	117,949
89,597	-8,677	246,239	117,875
90,611	-8,807	246,249	117,760
91,626	-8,706	246,150	117,787
92,641	-8,538	245,896	117,796
93,655	-8,467	245,568	117,687
94,670	-8,610	245,446	117,499
95,684	-8,652	245,367	117,415
96,699	-8,685	245,179	117,287
97,714	-8,788	244,810	117,014
98,728	-8,960	244,720	116,817
99,743	-8,894	244,373	116,696
100,757	-8,853	244,113	116,596
101,772	-8,950	243,847	116,377
102,787	-8,949	243,875	116,381
103,801	-8,553	243,739	116,635
104,816	-8,782	243,537	116,338
105,830	-8,501	243,331	116,463
106,845	-8,387	243,321	116,541
107,860	-8,585	243,220	116,319
108,874	-8,611	242,761	116,067
109,889	-8,740	242,633	115,889
110,903	-8,786	242,473	115,764
111,918	-8,715	242,173	115,669
112,933	-8,765	242,206	115,633
113,947	-8,774	242,028	115,531
114,962	-8,741	241,875	115,475
115,976	-8,442	241,638	115,597
116,991	-8,643	241,456	115,335
118,006	-8,692	241,296	115,208
119,020	-8,612	241,126	115,182
120,035	-8,673	241,096	115,107
121,049	-8,604	240,951	115,084
122,064	-8,575	240,598	114,929
123,079	-8,362	240,650	115,118
124,093	-8,660	240,282	114,689
125,108	-8,796	239,968	114,417
126,122	-8,997	239,924	114,222
127,137	-8,862	239,547	114,142
128,151	-8,877	239,367	114,034
129,166	-8,818	239,197	113,991
130,181	-9,223	239,022	113,567
131,195	-9,157	238,991	113,596
132,210	-8,940	238,828	113,685
133,224	-8,560	238,517	113,836
134,239	-8,629	238,530	113,776
135,254	-8,291	238,258	113,909
136,268	-8,696	237,966	113,432
137,283	-9,055	237,778	113,042
138,297	-9,084	237,504	112,878
139,312	-9,037	237,508	112,908
140,327	-8,595	237,241	113,128
141,341	-8,287	237,356	113,421
142,356	-8,203	237,072	113,343
143,370	-8,177	237,072	113,354
144,385	-8,313	236,874	113,139
145,400	-8,026	236,694	113,274
146,414	-8,071	236,392	113,084
147,429	-8,159	236,286	112,952
148,443	-8,445	236,038	112,594
149,458	-8,399	235,984	112,595
150,473	-8,335	235,782	112,540
151,487	-8,516	235,607	112,302
152,502	-8,400	235,489	112,328
153,516	-8,417	235,294	112,211
154,531	-8,234	234,970	112,193
155,546	-8,355	234,938	112,071
156,560	-8,393	234,713	111,923
157,575	-8,444	234,508	111,775
158,589	-8,454	234,269	111,644
159,604	-8,098	234,380	111,970
160,619	-8,141	234,265	111,870
161,633	-8,126	234,082	111,786
162,648	-8,122	233,889	111,686
163,662	-8,343	233,669	111,396
164,677	-8,576	233,642	111,188
165,692	-8,280	233,287	111,244
166,706	-8,308	233,299	111,217
167,721	-7,939	233,127	111,417
168,735	-8,235	232,960	111,093
169,750	-8,202	232,846	111,055
170,764	-8,277	232,561	110,850
171,779	-8,231	232,576	110,884
172,794	-8,110	232,338	110,856
173,808	-8,252	232,063	110,603
174,823	-8,902	231,685	109,902
175,837	-9,014	231,550	109,740
176,852	-8,454	231,604	110,197
177,867	-8,167	231,448	110,338
178,881	-8,266	231,383	110,219
179,896	-8,201	231,442	110,288
180,910	-8,440	231,250	109,999
181,925	-8,097	230,967	110,123
182,940	-8,108	230,806	110,028
183,954	-8,174	230,737	109,934
184,969	-8,253	230,476	109,738
185,983	-7,959	230,414	109,929
186,998	-8,063	230,275	109,771
188,013	-7,770	230,005	109,861
189,027	-7,854	229,793	109,684
190,042	-7,876	229,746	109,635
191,056	-7,976	229,668	109,510
192,071	-8,125	229,309	109,214
193,086	-8,118	229,261	109,187
194,100	-8,016	229,158	109,207
195,115	-8,318	228,747	108,768
196,129	-8,600	228,526	108,434
197,144	-3,848	230,099	112,867
198,159	1,286	231,499	117,550
199,173	3,124	232,034	119,246
200,188	3,438	232,030	119,478
201,202	3,671	231,974	119,620
202,217	3,652	231,882	119,547
203,232	4,006	231,825	119,783
204,246	4,068	231,721	119,767
205,261	4,079	231,526	119,664
206,275	4,490	231,324	119,867
207,290	4,343	231,186	119,671
208,304	3,950	231,030	119,276
209,319	4,232	230,904	119,418
210,334	4,063	230,681	119,161
211,348	3,970	230,486	118,978
212,363	3,603	230,291	118,583
213,377	3,291	229,995	118,180
214,392	3,307	229,854	118,109
215,407	3,510	229,796	118,225
216,421	3,371	229,702	118,059
217,436	3,291	229,373	117,818
218,450	3,201	229,238	117,668
219,465	3,324	229,097	117,680
220,480	3,305	228,750	117,477
221,494	3,163	228,726	117,346
222,509	3,299	228,598	117,373
223,523	3,302	228,507	117,318
224,538	3,268	228,393	117,223
225,553	2,991	228,296	116,951
226,567	3,476	228,171	117,248
227,582	3,762	227,904	117,318
228,596	3,780	227,911	117,326
229,611	3,730	227,649	117,142
230,626	3,522	227,333	116,811
231,640	3,240	227,340	116,589
232,655	3,496	227,278	116,742
233,669	3,877	227,273	117,018
234,684	4,113	227,143	117,121
235,699	3,728	226,838	116,660
236,713	3,596	226,593	116,424
237,728	3,606	226,333	116,288
238,742	3,094	226,288	115,866
239,757	3,226	226,170	115,895
240,772	3,186	225,965	115,750
241,786	3,413	225,698	115,774
242,801	3,611	225,749	115,940
243,815	3,788	225,633	116,003
244,830	3,902	225,498	116,010
245,844	3,603	225,248	115,645
246,859	3,518	225,095	115,493
247,874	3,735	224,977	115,585
248,888	3,587	224,857	115,401
249,903	3,489	224,734	115,254
250,917	3,344	224,653	115,094
251,932	3,366	224,485	115,014
252,947	3,328	224,377	114,920
253,961	3,329	224,067	114,752
254,976	3,216	224,012	114,629
255,990	3,524	223,944	114,814
257,005	3,412	223,644	114,566
258,020	3,444	223,566	114,540
259,034	3,991	223,476	114,892
260,049	3,754	223,276	114,603
261,063	3,635	223,092	114,409
262,078	3,500	223,096	114,300
263,093	3,862	222,940	114,480
264,107	3,510	222,798	114,135
265,122	3,956	222,588	114,348
266,136	3,843	222,527	114,223
267,151	3,756	222,342	114,053
268,166	3,321	222,137	113,615
269,180	2,940	221,943	113,223
270,195	3,219	221,889	113,393
271,209	3,425	221,663	113,419
272,224	3,385	221,587	113,341
273,239	3,573	221,376	113,362
274,253	3,215	221,109	112,950
275,268	3,528	220,920	113,075
276,282	3,247	220,898	112,846
277,297	3,083	220,744	112,637
278,312	3,257	220,583	112,673
279,326	3,399	220,582	112,766
280,341	3,421	220,538	112,751
281,355	3,516	220,200	112,637
282,370	3,492	220,102	112,559
283,384	3,416	219,844	112,362
284,399	3,229	219,747	112,165
285,414	3,134	219,584	112,002
286,428	3,411	219,470	112,136
287,443	3,651	219,450	112,292
288,457	3,422	219,331	112,053
289,472	3,370	219,060	111,867
290,487	2,935	218,842	111,429
291,501	3,009	218,659	111,380
292,516	3,230	218,533	111,466
293,530	3,204	218,547	111,445
294,545	3,128	218,422	111,316
295,560	3,458	218,098	111,380
296,574	3,492	218,082	111,387
297,589	3,112	217,994	111,056
298,603	3,449	217,985	111,286
299,618	3,430	217,843	111,190
300,633	3,348	217,753	111,075
301,647	3,520	217,545	111,083
302,662	3,708	217,414	111,143
303,676	3,681	217,188	110,998
304,691	3,574	216,948	110,788
305,706	3,758	216,855	110,863
306,720	3,771	216,693	110,780
307,735	3,322	216,578	110,388
308,749	3,239	216,551	110,304
309,764	3,446	216,453	110,394
310,779	3,522	216,286	110,353
311,793	3,508	215,995	110,185
312,808	3,425	215,931	110,083
313,822	3,063	215,798	109,745
314,837	3,401	215,588	109,871
315,852	3,469	215,511	109,871
316,866	3,543	215,521	109,919
317,881	3,680	215,344	109,917
318,895	3,593	215,092	109,716
319,910	3,585	214,892	109,600
320,925	3,010	214,797	109,130
321,939	3,135	214,683	109,152
322,954	3,191	214,420	109,048
323,968	3,447	214,439	109,231
324,983	3,531	214,331	109,226
325,997	3,717	214,221	109,292
327,012	3,561	214,083	109,101
328,027	3,581	213,786	108,955
329,041	3,775	213,892	109,136
330,056	3,906	213,746	109,145
331,070	3,153	213,683	108,569
332,085	3,004	213,324	108,271
333,100	3,296	213,134	108,372
334,114	3,562	213,044	108,504
335,129	3,433	212,785	108,272
336,143	3,103	212,726	107,999
337,158	3,369	212,645	108,136
338,173	3,376	212,496	108,056
339,187	3,225	212,454	107,918
340,202	3,049	212,096	107,603
341,216	3,024	212,113	107,585
342,231	3,108	211,924	107,538
343,246	3,027	211,760	107,388
344,260	3,476	211,666	107,646
345,275	3,332	211,515	107,459
346,289	3,561	211,325	107,514
347,304	3,474	211,354	107,458
348,319	3,533	211,120	107,370
349,333	3,596	211,069	107,379
350,348	3,339	210,774	107,040
351,362	3,593	210,781	107,211
352,377	3,572	210,618	107,104
353,392	3,587	210,360	106,973
354,406	3,474	210,386	106,899
355,421	195,501	1342,302	1428,536
356,435	156,130	1480,228	1428,582
