DTS Sentinel unit serial number:	SN410029Multiplexer serial number:	ORYXHardware model number:	OX2-SRSoftware version number:	ORYX F/W v4,00 Oryx Data Collector v3.7.2.0data status	okinstallation	B6 Nyhavnadifferential loss correction	single-endedforward channel	channel 2reverse channel	N/Adate	2023/12/10time	22:00:08forward acquisition time	300,00reverse acquisition time	0,00gamma	499,1914k internal	0,3123k external	0,3123temperature offset calibration	1,0000default loss term (dB/km)	0,3820temperature slope calibration	1,0000multiplexer offset coefficient	1,0000multiplexer slope coefficient	1,0000fibre end	0,00T internal ref (°C)	22,31T ext. ref 1 (°C)	6,11T ext. ref 2 (°C)	6,11length (m)	temperature (°C)	Stokes	anti-Stokes-744,400	-200,000	-0,000	-0,124
-743,385	51,528	-0,238	0,169
-742,371	-7,572	-0,112	-0,056
-741,356	-112,956	-0,130	0,019
-740,342	67,584	0,073	0,055
-739,327	-67,852	-0,235	0,068
-738,312	12,828	-0,085	-0,049
-737,298	-17,468	-0,170	-0,079
-736,283	-132,365	0,077	-0,007
-735,269	331,094	-0,141	0,203
-734,254	-200,000	-0,004	-0,052
-733,239	-140,490	-0,490	-0,037
-732,225	114,301	0,121	0,110
-731,210	105,918	-0,113	0,100
-730,196	-200,000	0,021	0,148
-729,181	96,426	-0,079	-0,067
-728,167	-138,345	-0,052	0,004
-727,152	29,668	0,241	0,152
-726,137	-34,174	-0,066	0,027
-725,123	117,445	-0,080	-0,074
-724,108	-200,000	0,015	-0,130
-723,094	-200,000	-0,007	-0,125
-722,079	800,000	-0,037	-0,092
-721,064	331,254	-0,019	-0,027
-720,050	-116,715	-0,068	-0,009
-719,035	71,336	0,043	-0,033
-718,021	21,250	-0,054	-0,033
-717,006	-53,650	-0,096	0,032
-715,991	-200,000	0,018	-0,129
-714,977	98,123	-0,034	-0,029
-713,962	-200,000	0,004	-0,024
-712,948	351,032	-0,035	0,051
-711,933	80,282	-0,082	0,066
-710,918	146,020	-0,047	-0,047
-709,904	125,317	-0,149	-0,139
-708,889	94,062	-0,143	-0,121
-707,875	-32,258	0,043	0,018
-706,860	-200,000	0,008	0,172
-705,845	-83,768	0,157	-0,037
-704,831	-53,161	0,109	0,037
-703,816	-110,168	-0,132	0,020
-702,802	-78,612	-0,078	-0,020
-701,787	-151,989	-0,154	0,008
-700,772	183,649	-0,067	0,074
-699,758	111,950	0,057	-0,051
-698,743	-200,000	-0,004	0,073
-697,729	-50,535	0,097	-0,034
-696,714	74,385	-0,059	-0,046
-695,699	-145,882	0,104	0,007
-694,685	800,000	-0,029	0,074
-693,670	800,000	-0,034	-0,103
-692,656	-200,000	0,001	0,024
-691,641	-50,898	0,114	0,040
-690,627	472,514	0,011	-0,019
-689,612	-82,299	-0,062	-0,015
-688,597	-33,837	-0,024	-0,010
-687,583	-148,264	-0,058	-0,004
-686,568	291,838	0,101	-0,137
-685,554	-200,000	0,028	-0,116
-684,539	-200,000	0,024	0,090
-683,524	15,257	0,028	-0,016
-682,510	800,000	-0,007	0,021
-681,495	-200,000	0,008	0,106
-680,481	209,423	0,044	-0,051
-679,466	47,930	-0,058	0,040
-678,451	-200,000	-0,004	-0,076
-677,437	800,000	-0,036	0,079
-676,422	-2,577	-0,099	-0,051
-675,408	93,197	0,055	0,046
-674,393	335,775	-0,028	-0,040
-673,378	-183,268	0,074	-0,001
-672,364	76,018	-0,028	0,022
-671,349	-109,302	-0,110	0,017
-670,335	-49,819	0,026	0,009
-669,320	800,000	-0,042	0,126
-668,305	92,151	-0,085	0,071
-667,291	-111,522	-0,106	0,016
-666,276	-2,165	0,012	0,006
-665,262	-45,199	-0,077	0,028
-664,247	-200,000	0,022	-0,078
-663,232	355,091	-0,057	-0,084
-662,218	20,748	0,024	0,015
-661,203	-200,000	0,006	-0,026
-660,189	-90,098	-0,122	0,026
-659,174	-200,000	0,004	-0,138
-658,159	192,457	0,050	-0,056
-657,145	523,707	0,045	-0,079
-656,130	88,805	0,089	-0,074
-655,116	260,147	-0,023	-0,030
-654,101	28,792	0,104	-0,065
-653,086	800,000	-0,070	-0,156
-652,072	525,444	-0,074	-0,131
-651,057	-25,646	-0,121	-0,053
-650,043	503,373	-0,037	0,064
-649,028	-29,200	0,057	0,024
-648,014	313,077	0,070	0,098
-646,999	-200,000	-0,057	-0,000
-645,984	12,831	0,080	0,046
-644,970	196,119	0,067	0,076
-643,955	10,287	-0,036	-0,020
-642,941	208,605	-0,037	-0,043
-641,926	631,473	0,077	-0,145
-640,911	-200,000	-0,009	-0,114
-639,897	800,000	0,013	-0,036
-638,882	800,000	-0,058	-0,142
-637,868	383,522	-0,061	-0,094
-636,853	18,832	-0,078	0,046
-635,838	-200,000	0,001	0,050
-634,824	421,202	-0,044	-0,071
-633,809	98,792	-0,085	-0,073
-632,795	-47,267	-0,096	-0,034
-631,780	100,416	-0,020	0,018
-630,765	96,865	0,015	-0,013
-629,751	-160,637	0,020	0,001
-628,736	34,924	-0,075	-0,049
-627,722	-118,668	-0,060	0,008
-626,707	-200,000	0,005	-0,068
-625,692	-49,025	-0,035	0,012
-624,678	-200,000	-0,005	0,083
-623,663	155,449	-0,057	-0,058
-622,649	800,000	-0,036	-0,094
-621,634	241,955	-0,052	-0,065
-620,619	-80,236	-0,029	0,007
-619,605	-40,510	0,061	-0,023
-618,590	800,000	-0,020	0,058
-617,576	128,593	0,045	0,042
-616,561	-131,332	-0,116	0,011
-615,546	476,454	0,035	0,059
-614,532	800,000	-0,040	0,090
-613,517	786,686	-0,042	-0,086
-612,503	-2,685	0,025	0,013
-611,488	62,018	-0,071	0,052
-610,474	387,376	0,041	0,063
-609,459	52,314	-0,076	0,054
-608,444	128,323	-0,150	-0,142
-607,430	580,523	-0,039	-0,071
-606,415	-149,399	-0,061	-0,004
-605,401	-200,000	-0,022	0,125
-604,386	244,010	-0,113	0,141
-603,371	70,703	-0,055	-0,042
-602,357	124,644	0,093	0,087
-601,342	463,975	-0,053	-0,089
-600,328	-57,042	-0,130	-0,042
-599,313	500,164	-0,046	0,079
-598,298	110,467	0,007	-0,006
-597,284	-120,501	0,058	0,007
-596,269	-95,736	-0,085	0,017
-595,255	-61,488	0,015	-0,005
-594,240	23,679	0,110	-0,067
-593,225	210,435	-0,055	-0,064
-592,211	758,436	-0,065	-0,131
-591,196	216,485	0,052	-0,062
-590,182	-186,421	0,090	-0,001
-589,167	-200,000	0,003	-0,026
-588,152	-200,000	0,041	0,219
-587,138	-117,441	-0,153	-0,020
-586,123	93,546	-0,019	-0,016
-585,109	-84,282	0,027	0,006
-584,094	127,740	-0,096	-0,090
-583,079	119,989	0,089	0,081
-582,065	121,585	0,017	0,016
-581,050	290,120	-0,011	-0,015
-580,036	406,603	0,059	-0,092
-579,021	456,913	0,018	-0,030
-578,006	313,130	-0,110	-0,154
-576,992	-200,000	-0,000	0,004
-575,977	-1,142	0,071	-0,037
-574,963	-200,000	0,025	0,125
-573,948	577,055	-0,009	-0,017
-572,934	-126,443	-0,018	-0,002
-571,919	-200,000	-0,018	-0,134
-570,904	-42,981	0,078	0,029
-569,890	599,359	0,052	0,095
-568,875	-166,374	-0,054	0,002
-567,861	-200,000	0,005	-0,170
-566,846	-200,000	-0,017	0,145
-565,831	-53,518	0,067	0,022
-564,817	237,698	-0,035	-0,043
-563,802	156,023	0,040	-0,041
-562,788	180,431	0,021	0,023
-561,773	-200,000	-0,026	-0,104
-560,758	36,650	-0,056	0,036
-559,744	40,246	0,057	0,038
-558,729	-7,241	0,078	-0,039
-557,715	-200,000	-0,009	-0,037
-556,700	-95,000	0,055	-0,011
-555,685	424,561	-0,009	-0,015
-554,671	-18,284	-0,045	0,021
-553,656	284,621	-0,062	0,083
-552,642	-133,171	-0,126	-0,012
-551,627	800,000	0,025	-0,061
-550,612	-94,942	-0,118	0,023
-549,598	-200,000	-0,014	-0,045
-548,583	-89,256	-0,073	-0,016
-547,569	-172,034	-0,075	0,002
-546,554	284,174	0,031	0,041
-545,539	47,006	0,090	0,062
-544,525	800,000	-0,034	-0,076
-543,510	-200,000	0,012	-0,141
-542,496	82,738	-0,057	-0,046
-541,481	219,230	-0,056	0,066
-540,466	-112,966	0,075	0,011
-539,452	200,461	0,049	-0,056
-538,437	-78,153	-0,137	0,035
-537,423	276,075	0,034	0,045
-536,408	98,083	0,043	-0,037
-535,393	54,884	-0,093	0,066
-534,379	-92,318	0,191	-0,039
-533,364	288,859	-0,126	0,170
-532,350	-83,359	0,121	0,029
-531,335	82,810	0,048	0,039
-530,321	93,196	0,083	-0,069
-529,306	800,000	-0,060	-0,136
-528,291	-200,000	0,020	-0,125
-527,277	58,408	0,059	-0,043
-526,262	454,436	0,016	0,027
-525,248	800,000	-0,006	-0,013
-524,233	451,002	0,068	-0,111
-523,218	800,000	0,035	-0,085
-522,204	-200,000	0,010	-0,081
-521,189	-200,000	0,028	-0,139
-520,175	703,505	-0,027	-0,052
-519,160	7,122	0,114	0,063
-518,145	800,000	0,052	0,123
-517,131	-200,000	0,017	0,088
-516,116	10,528	0,139	0,078
-515,102	233,998	0,011	0,013
-514,087	145,075	0,026	0,025
-513,072	185,670	-0,118	-0,130
-512,058	-1,722	-0,131	0,068
-511,043	446,087	-0,050	0,081
-510,029	-200,000	0,003	0,029
-509,014	-200,000	-0,012	-0,130
-507,999	59,583	0,105	-0,077
-506,985	-92,510	-0,235	-0,048
-505,970	-10,138	0,070	0,034
-504,956	-150,359	-0,122	0,007
-503,941	213,977	0,055	-0,064
-502,926	287,445	0,108	0,144
-501,912	-200,000	-0,027	0,097
-500,897	-23,246	-0,034	0,015
-499,883	327,675	0,060	0,086
-498,868	292,826	0,018	0,024
-497,853	-69,497	-0,053	-0,015
-496,839	391,146	-0,011	0,017
-495,824	415,127	0,053	-0,083
-494,810	125,531	-0,113	0,105
-493,795	-133,591	0,026	0,002
-492,781	-155,335	-0,079	0,004
-491,766	800,000	-0,068	-0,140
-490,751	-69,234	-0,051	-0,014
-489,737	-150,976	-0,061	0,003
-488,722	-169,112	0,146	0,004
-487,708	45,560	0,080	0,055
-486,693	33,918	0,074	0,048
-485,678	-48,323	0,012	0,004
-484,664	-200,000	-0,020	0,146
-483,649	110,163	-0,049	-0,043
-482,635	-200,000	-0,014	-0,103
-481,620	800,000	-0,012	-0,028
-480,605	98,409	-0,011	0,010
-479,591	-200,000	0,007	-0,029
-478,576	58,569	-0,070	-0,051
-477,562	102,664	0,098	0,085
-476,547	-162,718	-0,060	-0,002
-475,532	-200,000	-0,003	0,109
-474,518	51,702	0,045	0,032
-473,503	-176,626	0,034	-0,001
-472,489	-83,361	0,115	0,027
-471,474	800,000	-0,061	0,160
-470,459	-52,393	-0,022	-0,007
-469,445	139,879	-0,021	-0,020
-468,430	800,000	0,096	-0,217
-467,416	0,614	-0,123	-0,064
-466,401	-170,674	-0,023	0,001
-465,386	-200,000	0,018	0,072
-464,372	-200,000	-0,003	0,042
-463,357	-82,723	-0,129	0,031
-462,343	261,481	0,072	-0,092
-461,328	-32,733	-0,066	0,027
-460,313	-200,000	0,042	0,213
-459,299	-200,000	-0,004	0,026
-458,284	-80,386	0,148	0,036
-457,270	-143,564	0,156	0,011
-456,255	-25,878	-0,103	-0,044
-455,241	-99,691	-0,139	0,025
-454,226	-152,253	0,125	-0,007
-453,211	102,465	-0,068	0,059
-452,197	66,737	0,060	0,045
-451,182	-11,541	0,105	0,051
-450,168	-84,570	0,149	-0,034
-449,153	37,997	-0,048	-0,032
-448,138	-128,629	-0,140	-0,014
-447,124	-200,000	-0,009	0,072
-446,109	608,883	-0,067	0,123
-445,095	-108,244	-0,051	0,008
-444,080	250,154	0,082	0,103
-443,065	-200,000	-0,022	0,115
-442,051	269,740	0,071	-0,092
-441,036	-23,711	-0,101	-0,044
-440,022	-200,000	0,004	-0,058
-439,007	-138,692	0,046	0,004
-437,992	65,741	-0,064	0,047
-436,978	305,450	0,077	0,105
-435,963	-162,190	0,085	0,003
-434,949	-65,324	0,040	-0,012
-433,934	7,912	-0,058	0,032
-432,919	54,559	0,091	0,065
-431,905	98,949	-0,064	-0,054
-430,890	31,801	0,023	-0,015
-429,876	-200,000	-0,005	0,075
-428,861	-82,878	0,023	0,006
-427,846	330,024	-0,017	0,024
-426,832	-200,000	0,022	0,082
-425,817	-200,000	0,015	0,085
-424,803	74,099	0,066	-0,051
-423,788	-35,544	-0,045	0,018
-422,773	-200,000	0,018	0,124
-421,759	-200,000	-0,015	0,091
-420,744	-120,448	-0,102	-0,013
-419,730	-107,014	-0,097	0,016
-418,715	-200,000	-0,012	-0,060
-417,701	720,011	0,035	0,069
-416,686	-200,000	-0,029	0,118
-415,671	694,264	0,029	0,056
-414,657	-31,203	-0,069	0,029
-413,642	-200,000	-0,003	0,050
-412,628	-181,420	0,091	-0,001
-411,613	800,000	-0,019	-0,049
-410,598	7,563	-0,033	-0,018
-409,584	38,726	0,098	-0,065
-408,569	79,624	-0,069	-0,054
-407,555	-75,521	-0,099	0,026
-406,540	-69,688	0,095	-0,027
-405,525	-200,000	-0,005	0,096
-404,511	800,000	-0,062	-0,132
-403,496	77,980	-0,048	-0,037
-402,482	67,198	0,064	-0,048
-401,467	-200,000	0,007	0,026
-400,452	-150,889	0,055	0,003
-399,438	55,505	-0,028	-0,020
-398,423	-200,000	-0,011	0,064
-397,409	374,097	-0,048	-0,072
-396,394	245,446	0,091	-0,113
-395,379	317,917	0,053	0,074
-394,365	-68,620	0,057	0,016
-393,350	416,002	0,011	0,018
-392,336	137,535	-0,039	-0,037
-391,321	26,653	-0,121	-0,074
-390,306	-63,544	0,022	0,007
-389,292	-200,000	-0,022	-0,092
-388,277	-71,733	0,123	-0,034
-387,263	-92,051	0,079	-0,016
-386,248	-89,090	-0,026	0,006
-385,233	-12,159	0,105	0,050
-384,219	800,000	0,054	0,109
-383,204	66,432	-0,080	-0,060
-382,190	-200,000	-0,009	0,051
-381,175	36,973	0,070	-0,045
-380,160	-74,599	-0,144	-0,038
-379,146	-107,691	-0,035	0,006
-378,131	521,241	0,030	-0,051
-377,117	-123,489	-0,075	-0,009
-376,102	102,086	0,052	0,045
-375,088	-200,000	-0,024	-0,078
-374,073	157,226	0,032	-0,033
-373,058	-200,000	0,047	0,155
-372,044	-200,000	0,030	0,107
-371,029	34,458	-0,050	-0,032
-370,015	-154,060	-0,066	0,003
-369,000	352,324	-0,044	0,064
-367,985	111,219	-0,047	-0,042
-366,971	-17,106	0,120	-0,055
-365,956	-200,000	-0,025	0,107
-364,942	33,897	0,085	-0,054
-363,927	-76,403	-0,076	-0,020
-362,912	800,000	0,059	0,145
-361,898	541,998	0,067	-0,117
-360,883	-200,000	-0,007	-0,081
-359,869	-50,063	-0,049	0,017
-358,854	3,311	0,102	0,054
-357,839	-200,000	0,023	0,187
-356,825	800,000	0,066	0,163
-355,810	155,280	0,089	-0,090
-354,796	628,965	0,022	0,042
-353,781	-14,408	-0,078	0,037
-352,766	-200,000	0,046	-0,177
-351,752	2,715	0,089	0,047
-350,737	-200,000	0,008	-0,085
-349,723	800,000	0,045	0,144
-348,708	40,701	0,074	-0,049
-347,693	-200,000	-0,032	0,106
-346,679	22,902	-0,104	-0,063
-345,664	-56,661	-0,054	-0,018
-344,650	-131,474	0,072	0,007
-343,635	55,367	0,105	-0,075
-342,620	-55,594	0,144	0,047
-341,606	188,223	0,007	0,008
-340,591	800,000	0,057	-0,129
-339,577	189,679	-0,030	-0,033
-338,562	800,000	-0,014	0,028
-337,548	332,178	0,029	0,041
-336,533	96,537	0,111	0,093
-335,518	-200,000	0,015	-0,137
-334,504	-150,049	0,092	-0,005
-333,489	64,514	0,042	0,031
-332,475	800,000	-0,022	0,073
-331,460	-58,146	0,105	0,033
-330,445	256,110	0,022	-0,028
-329,431	800,000	0,015	-0,030
-328,416	-200,000	-0,024	0,093
-327,402	40,575	0,139	0,091
-326,387	-200,000	0,006	-0,115
-325,372	552,239	-0,040	-0,071
-324,358	-72,711	-0,115	-0,031
-323,343	800,000	-0,063	-0,167
-322,329	-200,000	0,005	-0,079
-321,314	800,000	0,021	-0,061
-320,299	-200,000	0,013	-0,045
-319,285	46,217	-0,103	-0,070
-318,270	467,172	0,081	-0,133
-317,256	289,213	-0,022	0,029
-316,241	-200,000	-0,006	0,056
-315,226	-200,000	-0,021	0,082
-314,212	800,000	0,036	0,093
-313,197	142,268	0,032	-0,031
-312,183	800,000	-0,052	0,132
-311,168	-200,000	0,027	-0,111
-310,153	-200,000	0,015	0,097
-309,139	133,663	-0,095	-0,090
-308,124	22,244	-0,114	0,068
-307,110	-16,019	-0,030	0,014
-306,095	453,431	0,037	0,060
-305,080	26,915	-0,063	0,039
-304,066	800,000	-0,028	-0,081
-303,051	25,316	0,156	-0,095
-302,037	-32,179	0,078	0,032
-301,022	-107,628	0,048	-0,008
-300,008	134,291	0,076	-0,072
-298,993	388,323	-0,089	0,136
-297,978	-147,309	-0,021	-0,001
-296,964	370,642	0,070	-0,105
-295,949	222,080	-0,079	-0,093
-294,935	-139,826	-0,117	-0,009
-293,920	164,633	0,031	0,032
-292,905	198,982	0,034	-0,038
-291,891	379,998	-0,022	-0,034
-290,876	-71,682	-0,023	-0,006
-289,862	118,966	0,108	0,097
-288,847	7,158	0,019	0,010
-287,832	-49,621	-0,057	0,020
-286,818	800,000	-0,048	-0,104
-285,803	126,733	0,068	0,063
-284,789	-71,860	-0,081	0,022
-283,774	-200,000	0,005	0,154
-282,759	142,434	0,085	0,083
-281,745	-190,595	-0,080	-0,001
-280,730	-200,000	-0,007	-0,109
-279,716	457,283	0,005	0,008
-278,701	-200,000	0,028	0,136
-277,686	183,071	0,056	-0,061
-276,672	-110,804	0,060	0,009
-275,657	-88,361	0,080	-0,017
-274,643	-200,000	-0,016	-0,108
-273,628	309,233	0,019	0,026
-272,613	-17,556	-0,169	-0,078
-271,599	-39,668	0,106	0,040
-270,584	-75,556	0,025	-0,006
-269,570	-200,000	-0,010	0,033
-268,555	-126,574	0,061	-0,007
-267,540	51,253	0,044	-0,030
-266,526	87,753	-0,088	-0,071
-265,511	-200,000	0,006	-0,089
-264,497	-200,000	0,030	0,110
-263,482	-102,166	-0,023	-0,004
-262,467	680,753	-0,027	0,051
-261,453	-96,895	0,029	0,005
-260,438	-56,582	-0,086	-0,028
-259,424	-103,381	-0,097	-0,017
-258,409	-200,000	-0,009	0,066
-257,395	-200,000	0,024	0,080
-256,380	-200,000	0,006	-0,021
-255,365	-2,997	0,018	0,009
-254,351	-40,988	0,009	0,003
-253,336	658,691	-0,068	-0,128
-252,322	107,801	0,067	-0,058
-251,307	-200,000	0,056	-0,217
-250,292	-11,865	-0,084	-0,040
-249,278	579,758	0,031	0,056
-248,263	-200,000	0,002	0,117
-247,249	-128,204	0,065	0,007
-246,234	-200,000	0,011	0,085
-245,219	-200,000	-0,009	-0,072
-244,205	-183,614	-0,072	0,001
-243,190	17,442	0,031	-0,018
-242,176	800,000	-0,039	0,087
-241,161	255,738	-0,028	-0,036
-240,146	-55,520	-0,037	0,012
-239,132	37,911	-0,013	0,008
-238,117	800,000	-0,032	-0,071
-237,103	54,528	-0,079	-0,055
-236,088	-80,257	0,139	-0,034
-235,073	24,821	0,049	0,030
-234,059	-200,000	0,007	-0,025
-233,044	146,046	0,036	0,035
-232,030	-200,000	-0,008	-0,046
-231,015	265,336	0,029	0,037
-230,000	-85,444	0,045	-0,010
-228,986	288,161	-0,104	-0,137
-227,971	-200,000	0,030	0,133
-226,957	686,482	0,073	0,141
-225,942	42,712	0,129	0,086
-224,927	-77,732	0,108	-0,027
-223,913	-200,000	-0,010	-0,038
-222,898	-7,084	0,063	0,031
-221,884	23,234	0,042	-0,025
-220,869	55,372	-0,045	0,032
-219,855	97,492	0,108	0,091
-218,840	-87,919	-0,018	-0,004
-217,825	-137,787	-0,126	-0,010
-216,811	197,448	-0,051	-0,057
-215,796	-200,000	0,023	-0,219
-214,782	-122,507	-0,098	-0,012
-213,767	-42,402	-0,069	-0,026
-212,752	-200,000	0,016	-0,077
-211,738	-73,205	0,106	-0,028
-210,723	23,056	-0,051	-0,030
-209,709	-200,000	0,002	-0,033
-208,694	-43,665	0,021	-0,008
-207,679	70,987	-0,085	-0,064
-206,665	-200,000	-0,001	-0,016
-205,650	-154,895	0,185	0,009
-204,636	-17,392	-0,176	0,080
-203,621	-200,000	0,012	-0,084
-202,606	800,000	0,012	0,030
-201,592	8,830	-0,157	-0,086
-200,577	79,052	-0,139	-0,109
-199,563	169,602	0,092	-0,096
-198,548	-200,000	-0,032	0,184
-197,533	-200,000	-0,010	-0,046
-196,519	-9,238	0,066	0,032
-195,504	-17,279	-0,141	-0,064
-194,490	-146,746	-0,191	-0,012
-193,475	-67,431	-0,073	-0,021
-192,460	81,993	-0,080	0,063
-191,446	-83,417	-0,134	0,031
-190,431	-200,000	-0,010	0,109
-189,417	-101,158	0,170	0,030
-188,402	212,795	0,023	-0,026
-187,387	204,228	-0,060	0,068
-186,373	-95,259	0,085	0,016
-185,358	-155,864	-0,088	0,004
-184,344	-73,431	0,108	0,028
-183,329	-200,000	0,003	0,072
-182,315	800,000	-0,017	0,040
-181,300	800,000	0,032	0,090
-180,285	-68,785	0,071	-0,020
-179,271	-200,000	-0,002	-0,173
-178,256	-29,964	0,121	-0,050
-177,242	-200,000	0,016	0,115
-176,227	-76,250	-0,064	0,016
-175,212	14,632	0,084	0,048
-174,198	35,546	-0,065	0,042
-173,183	256,949	0,044	-0,056
-172,169	-88,877	0,213	0,046
-171,154	-200,000	0,006	0,098
-170,139	121,741	-0,107	0,097
-169,125	14,088	-0,038	0,021
-168,110	-38,760	-0,036	0,014
-167,096	310,517	-0,085	0,116
-166,081	63,995	-0,124	0,091
-165,066	164,263	-0,064	-0,066
-164,052	262,444	0,035	0,044
-163,037	89,646	0,026	-0,021
-162,023	-117,336	0,122	0,016
-161,008	-200,000	0,000	-0,029
-159,993	34,730	0,056	0,036
-158,979	-200,000	-0,004	-0,028
-157,964	800,000	0,022	-0,049
-156,950	-200,000	0,006	-0,026
-155,935	800,000	0,033	-0,090
-154,920	-181,797	0,049	0,001
-153,906	-200,000	-0,005	-0,046
-152,891	-138,438	-0,048	0,004
-151,877	-200,000	0,018	0,128
-150,862	-70,373	-0,152	-0,042
-149,847	303,148	-0,069	-0,094
-148,833	265,532	0,063	-0,080
-147,818	-146,319	0,152	-0,010
-146,804	87,755	0,103	0,083
-145,789	800,000	0,033	0,094
-144,775	-200,000	0,021	-0,104
-143,760	120,348	0,116	-0,105
-142,745	800,000	0,026	0,070
-141,731	53,365	0,179	0,125
-140,716	-200,000	0,007	-0,047
-139,702	228,842	0,097	0,116
-138,687	-200,000	-0,015	0,055
-137,672	44,242	-0,068	-0,045
-136,658	756,672	-0,040	-0,079
-135,643	-200,000	0,015	-0,082
-134,629	440,646	-0,063	-0,100
-133,614	291,234	-0,053	-0,070
-132,599	55,412	0,142	-0,100
-131,585	-159,851	0,100	0,004
-130,570	800,000	-0,031	0,079
-129,556	111,679	-0,039	-0,034
-128,541	-200,000	-0,008	-0,133
-127,526	-200,000	0,025	-0,128
-126,512	-13,801	-0,038	0,018
-125,497	800,000	-0,007	-0,016
-124,483	48,897	-0,033	0,022
-123,468	-200,000	0,006	0,054
-122,453	800,000	-0,046	-0,121
-121,439	-106,311	0,124	0,020
-120,424	-121,930	-0,124	0,015
-119,410	680,408	0,068	0,129
-118,395	226,973	0,047	-0,056
-117,380	207,341	0,107	-0,121
-116,366	91,117	0,006	0,005
-115,351	-189,588	0,141	-0,001
-114,337	-84,441	-0,057	-0,013
-113,322	-200,000	-0,049	0,225
-112,307	198,383	0,017	-0,019
-111,293	189,369	0,063	0,069
-110,278	269,261	0,086	0,110
-109,264	800,000	0,053	0,140
-108,249	244,134	-0,044	0,054
-107,234	159,405	-0,061	0,062
-106,220	151,556	0,092	0,092
-105,205	697,863	0,090	0,174
-104,191	-20,925	0,099	0,044
-103,176	10,764	0,070	0,039
-102,162	434,118	-0,050	0,079
-101,147	-200,000	-0,030	-0,108
-100,132	-200,000	0,017	0,098
-99,118	203,560	-0,077	-0,087
-98,103	543,418	-0,058	0,101
-97,089	-64,450	0,101	0,030
-96,074	-200,000	0,022	0,140
-95,059	-10,562	0,089	0,043
-94,045	-200,000	-0,007	0,026
-93,030	-117,617	-0,084	0,011
-92,016	571,149	0,022	-0,038
-91,001	800,000	-0,029	-0,075
-89,986	85,584	-0,013	0,011
-88,972	19,711	0,087	0,051
-87,957	137,485	0,068	0,065
-86,943	-200,000	-0,015	-0,161
-85,928	22,644	0,028	0,017
-84,913	41,597	0,104	-0,068
-83,899	800,000	0,019	0,057
-82,884	13,598	0,021	-0,012
-81,870	-200,000	-0,025	0,172
-80,855	116,479	0,076	0,068
-79,840	533,653	-0,050	0,087
-78,826	-31,829	0,116	0,047
-77,811	172,562	-0,097	-0,101
-76,797	-57,474	-0,136	-0,043
-75,782	-156,874	0,116	0,005
-74,767	-106,467	0,109	0,018
-73,753	-65,868	0,113	0,033
-72,738	800,000	0,037	-0,077
-71,724	-200,000	-0,002	-0,028
-70,709	800,000	-0,041	-0,123
-69,694	-200,000	0,033	-0,154
-68,680	64,490	0,059	-0,043
-67,665	74,328	0,101	0,077
-66,651	6,237	0,101	0,054
-65,636	-200,000	0,004	-0,109
-64,622	-200,000	-0,005	-0,081
-63,607	-200,000	-0,008	-0,101
-62,592	100,812	0,004	0,004
-61,578	60,824	0,145	-0,104
-60,563	171,845	-0,021	-0,022
-59,549	127,786	-0,085	0,079
-58,534	-126,307	-1,471	-0,157
-57,519	800,000	-0,744	-1,555
-56,505	-200,000	-0,877	-4,372
-55,490	102,451	0,435	-0,369
-54,476	800,000	5,079	11,825
-53,461	-200,000	13,625	252,553
-52,446	-200,000	689,647	2256,937
-51,432	591,060	1622,190	2916,599
-50,417	119,122	1635,061	1467,184
-49,403	73,135	1289,152	976,884
-48,388	38,004	1024,293	659,569
-47,373	24,224	982,016	587,015
-46,359	23,537	971,588	578,506
-45,344	22,598	967,091	572,738
-44,330	22,492	965,809	571,611
-43,315	22,423	964,374	570,513
-42,300	22,350	963,304	569,621
-41,286	22,347	962,477	569,098
-40,271	22,350	961,228	568,349
-39,257	22,277	960,528	567,673
-38,242	22,279	959,417	567,001
-37,227	22,312	958,621	566,616
-36,213	22,320	957,800	566,135
-35,198	22,267	956,935	565,429
-34,184	22,315	956,377	565,232
-33,169	22,274	955,390	564,493
-32,154	22,345	954,535	564,195
-31,140	22,375	953,559	563,691
-30,125	22,412	952,609	563,229
-29,111	22,351	952,002	562,648
-28,096	22,364	951,328	562,271
-27,082	22,398	950,654	561,959
-26,067	22,417	949,907	561,556
-25,052	22,332	949,359	560,937
-24,038	22,380	948,357	560,477
-23,023	22,337	947,818	559,997
-22,009	22,414	947,205	559,859
-20,994	22,410	946,536	559,429
-19,979	22,431	945,842	559,064
-18,965	22,318	945,425	558,434
-17,950	22,321	944,790	558,048
-16,936	22,298	943,993	557,481
-15,921	22,258	943,465	557,021
-14,906	22,289	942,616	556,594
-13,892	22,237	942,088	556,096
-12,877	22,270	941,290	555,708
-11,863	22,177	940,723	555,055
-10,848	22,249	940,047	554,862
-9,833	22,339	939,718	554,931
-8,819	22,250	939,231	554,340
-7,804	22,218	938,433	553,747
-6,790	22,275	937,850	553,561
-5,775	22,270	937,279	553,186
-4,760	22,237	936,703	552,719
-3,746	22,206	936,080	552,231
-2,731	22,077	935,392	551,397
-1,717	22,032	934,733	550,845
-0,702	22,058	933,966	550,452
0,313	21,928	933,321	550,495
1,327	25,076	931,252	559,122
2,342	34,737	796,188	503,763
3,356	32,964	451,732	283,123
4,371	1,811	294,112	153,224
5,386	-2,585	274,999	139,090
6,400	-4,293	269,152	134,534
7,415	-4,671	266,767	132,982
8,429	-4,297	265,436	132,650
9,444	-4,575	264,664	131,998
10,459	-4,442	263,929	131,740
11,473	-4,453	263,368	131,439
12,488	-4,518	262,805	131,088
13,502	-4,531	262,215	130,770
14,517	-4,730	262,007	130,474
15,531	-4,586	261,507	130,344
16,546	-4,624	261,226	130,157
17,561	-4,590	260,744	129,936
18,575	-4,720	260,532	129,702
19,590	-4,717	260,095	129,477
20,604	-4,510	259,807	129,506
21,619	-4,673	259,512	129,202
22,634	-4,728	259,239	129,005
23,648	-4,766	258,877	128,780
24,663	-4,772	258,628	128,639
25,677	-4,609	258,174	128,547
26,692	-4,742	258,183	128,422
27,707	-4,825	257,827	128,159
28,721	-4,795	257,712	128,117
29,736	-4,710	257,408	128,030
30,750	-4,745	257,044	127,807
31,765	-4,933	256,881	127,548
32,780	-4,720	256,660	127,615
33,794	-4,666	256,419	127,531
34,809	-4,836	256,100	127,212
35,823	-4,803	255,838	127,099
36,838	-4,869	255,618	126,921
37,853	-4,863	255,414	126,814
38,867	-4,821	255,164	126,715
39,882	-4,910	254,947	126,518
40,896	-4,905	254,802	126,439
41,911	-4,916	254,603	126,319
42,926	-4,845	254,293	126,216
43,940	-4,933	254,073	126,018
44,955	-4,881	253,796	125,916
45,969	-5,203	253,770	125,610
46,984	-5,186	253,319	125,390
47,999	-5,398	253,272	125,172
49,013	-5,410	252,794	124,914
50,028	-5,588	252,467	124,586
51,042	-5,593	252,253	124,465
52,057	-5,675	252,171	124,342
53,071	-5,573	251,963	124,317
54,086	-5,437	251,755	124,321
55,101	-5,159	251,549	124,449
56,115	-4,996	251,434	124,522
57,130	-4,784	251,329	124,642
58,144	-4,538	251,114	124,737
59,159	-4,596	251,014	124,626
60,174	-4,698	250,994	124,517
61,188	-4,642	250,597	124,357
62,203	-4,605	250,434	124,297
63,217	-4,734	250,188	124,053
64,232	-4,663	249,939	123,979
65,247	-4,667	249,771	123,881
66,261	-4,632	249,693	123,861
67,276	-5,014	249,318	123,338
68,290	-5,159	249,158	123,123
69,305	-5,272	248,722	122,801
70,320	-5,258	248,736	122,808
71,334	-5,024	248,437	122,849
72,349	-4,505	248,229	123,177
73,363	-4,402	248,053	123,167
74,378	-4,612	247,893	122,898
75,393	-4,669	247,808	122,796
76,407	-4,658	247,533	122,658
77,422	-4,839	247,484	122,469
78,436	-4,727	247,275	122,450
79,451	-4,671	246,978	122,340
80,466	-4,817	246,663	122,049
81,480	-5,023	246,644	121,855
82,495	-4,974	246,242	121,687
83,509	-4,938	246,176	121,674
84,524	-4,981	245,986	121,532
85,539	-5,058	245,732	121,331
86,553	-5,168	245,582	121,154
87,568	-4,948	245,191	121,135
88,582	-5,119	245,353	121,060
89,597	-5,104	245,068	120,921
90,611	-5,063	244,946	120,885
91,626	-4,803	244,795	121,018
92,641	-4,937	244,619	120,807
93,655	-5,021	244,458	120,647
94,670	-4,988	244,197	120,535
95,684	-5,153	244,009	120,293
96,699	-4,759	243,690	120,454
97,714	-5,105	243,594	120,108
98,728	-5,117	243,365	119,974
99,743	-5,176	243,059	119,764
100,757	-5,112	242,771	119,664
101,772	-5,183	242,762	119,589
102,787	-5,190	242,616	119,501
103,801	-4,955	242,408	119,584
104,816	-4,987	242,332	119,508
105,830	-4,895	242,174	119,496
106,845	-4,628	241,860	119,552
107,860	-4,886	241,788	119,292
108,874	-4,970	241,565	119,102
109,889	-5,052	241,417	118,950
110,903	-5,084	240,996	118,706
111,918	-4,924	240,823	118,742
112,933	-4,849	240,800	118,782
113,947	-4,819	240,570	118,682
114,962	-4,924	240,637	118,619
115,976	-4,937	240,233	118,398
116,991	-4,784	240,179	118,487
118,006	-4,830	239,971	118,336
119,020	-4,696	239,802	118,352
120,035	-4,682	239,732	118,319
121,049	-4,717	239,533	118,181
122,064	-4,747	239,481	118,120
123,079	-4,478	239,094	118,139
124,093	-4,953	238,976	117,682
125,108	-5,061	238,817	117,505
126,122	-5,060	238,584	117,381
127,137	-5,302	238,189	116,979
128,151	-5,141	238,271	117,140
129,166	-5,072	238,127	117,115
130,181	-5,072	237,805	116,945
131,195	-5,112	237,597	116,801
132,210	-5,240	237,546	116,662
133,224	-4,750	237,319	116,937
134,239	-4,744	237,198	116,871
135,254	-4,871	237,131	116,725
136,268	-5,006	236,861	116,472
137,283	-5,243	236,589	116,137
138,297	-5,264	236,386	116,010
139,312	-5,174	236,067	115,915
140,327	-5,013	236,096	116,050
141,341	-4,515	236,040	116,413
142,356	-4,394	235,927	116,444
143,370	-4,481	235,856	116,328
144,385	-4,623	235,731	116,142
145,400	-4,375	235,332	116,134
146,414	-4,450	235,266	116,031
147,429	-4,450	235,248	116,012
148,443	-4,567	234,973	115,772
149,458	-4,506	234,812	115,732
150,473	-4,540	234,649	115,614
151,487	-4,585	234,308	115,399
152,502	-4,615	234,211	115,317
153,516	-4,515	234,170	115,367
154,531	-4,445	234,015	115,335
155,546	-4,423	233,676	115,176
156,560	-4,589	233,515	114,954
157,575	-4,626	233,225	114,772
158,589	-4,840	233,334	114,645
159,604	-4,571	233,113	114,740
160,619	-4,335	233,062	114,892
161,633	-4,344	232,902	114,796
162,648	-4,468	232,639	114,558
163,662	-4,413	232,406	114,476
164,677	-4,693	232,427	114,254
165,692	-4,486	232,174	114,284
166,706	-4,356	232,165	114,371
167,721	-4,365	231,985	114,266
168,735	-4,298	231,824	114,229
169,750	-4,299	231,646	114,131
170,764	-4,683	231,631	113,810
171,779	-4,542	231,314	113,755
172,794	-4,416	231,169	113,773
173,808	-4,611	231,084	113,568
174,823	-5,164	230,705	112,937
175,837	-5,114	230,408	112,821
176,852	-4,966	230,559	113,001
177,867	-4,446	230,265	113,254
178,881	-4,362	230,175	113,265
179,896	-4,294	230,012	113,228
180,910	-4,294	229,839	113,133
181,925	-4,249	229,699	113,089
182,940	-4,385	229,659	112,953
183,954	-4,322	229,533	112,930
184,969	-4,131	229,254	112,931
185,983	-4,320	229,230	112,762
186,998	-4,155	228,865	112,701
188,013	-4,291	228,845	112,576
189,027	-4,320	228,726	112,485
190,042	-4,259	228,485	112,403
191,056	-4,199	228,441	112,418
192,071	-4,011	228,223	112,447
193,086	-4,273	228,041	112,144
194,100	-4,261	227,857	112,053
195,115	-4,441	227,596	111,776
196,129	-5,290	227,407	111,016
197,144	-1,874	228,326	114,102
198,159	2,112	229,633	117,844
199,173	4,167	230,056	119,648
200,188	4,451	229,774	119,711
201,202	4,485	229,709	119,692
202,217	4,609	229,704	119,775
203,232	4,668	229,491	119,698
204,246	4,878	229,344	119,774
205,261	5,053	229,216	119,832
206,275	5,023	229,102	119,739
207,290	4,952	229,091	119,667
208,304	5,381	228,707	119,787
209,319	5,225	228,499	119,546
210,334	4,818	228,504	119,225
211,348	4,470	228,348	118,866
212,363	4,145	228,033	118,441
213,377	4,121	227,707	118,243
214,392	4,137	227,637	118,208
215,407	4,174	227,528	118,169
216,421	4,242	227,485	118,188
217,436	4,220	227,165	117,995
218,450	4,017	226,911	117,697
219,465	3,891	226,837	117,552
220,480	3,744	226,705	117,361
221,494	3,856	226,510	117,335
222,509	4,102	226,364	117,437
223,523	4,214	226,245	117,450
224,538	3,980	226,083	117,177
225,553	4,009	226,041	117,167
226,567	4,297	225,794	117,247
227,582	4,434	225,864	117,377
228,596	4,620	225,711	117,429
229,611	4,130	225,479	116,926
230,626	4,141	225,271	116,815
231,640	4,069	225,242	116,735
232,655	4,455	225,054	116,920
233,669	4,559	224,985	116,952
234,684	4,889	224,902	117,148
235,699	4,401	224,644	116,635
236,713	4,301	224,518	116,484
237,728	4,306	224,153	116,288
238,742	3,958	224,139	116,008
239,757	4,106	223,822	115,945
240,772	3,997	223,791	115,836
241,786	4,219	223,572	115,880
242,801	4,296	223,575	115,929
243,815	4,489	223,461	116,004
244,830	4,419	223,359	115,888
245,844	4,196	223,125	115,589
246,859	4,264	222,979	115,554
247,874	4,349	222,848	115,540
248,888	4,587	222,595	115,577
249,903	4,221	222,449	115,217
250,917	4,155	222,385	115,124
251,932	4,053	222,091	114,885
252,947	4,023	222,156	114,886
253,961	4,207	221,873	114,867
254,976	4,172	221,748	114,766
255,990	4,292	221,698	114,819
257,005	4,125	221,552	114,609
258,020	4,235	221,597	114,704
259,034	4,371	221,418	114,702
260,049	4,308	221,194	114,529
261,063	4,095	221,027	114,274
262,078	4,419	220,887	114,432
263,093	4,561	220,743	114,452
264,107	4,489	220,562	114,295
265,122	4,674	220,475	114,377
266,136	4,555	220,414	114,246
267,151	4,574	220,290	114,186
268,166	4,433	220,006	113,924
269,180	4,012	219,777	113,485
270,195	4,109	219,634	113,473
271,209	3,830	219,630	113,255
272,224	4,324	219,271	113,424
273,239	4,249	219,292	113,369
274,253	3,880	219,238	113,060
275,268	4,059	219,018	113,067
276,282	3,711	218,859	112,720
277,297	3,817	218,530	112,619
278,312	3,899	218,484	112,645
279,326	4,079	218,364	112,705
280,341	4,100	218,173	112,611
281,355	4,139	218,053	112,568
282,370	4,136	217,976	112,515
283,384	4,058	217,815	112,366
284,399	4,213	217,552	112,333
285,414	3,802	217,568	112,032
286,428	4,145	217,475	112,224
287,443	4,204	217,460	112,248
288,457	4,234	217,292	112,174
289,472	4,294	217,005	112,060
290,487	3,735	216,813	111,544
291,501	3,686	216,503	111,340
292,516	3,629	216,624	111,350
293,530	3,660	216,462	111,280
294,545	3,620	216,322	111,169
295,560	4,072	215,993	111,317
296,574	4,155	215,965	111,352
297,589	4,203	215,858	111,321
298,603	4,056	215,940	111,248
299,618	4,112	215,708	111,159
300,633	4,081	215,641	111,092
301,647	4,345	215,368	111,132
302,662	4,492	215,264	111,174
303,676	4,279	215,173	110,964
304,691	4,358	214,967	110,905
305,706	4,398	214,912	110,895
306,720	4,498	214,617	110,804
307,735	4,004	214,618	110,441
308,749	3,971	214,341	110,264
309,764	4,155	214,240	110,335
310,779	4,136	214,203	110,293
311,793	4,299	214,094	110,343
312,808	4,136	213,966	110,150
313,822	4,109	213,805	110,038
314,837	3,984	213,438	109,750
315,852	3,961	213,449	109,730
316,866	3,864	213,360	109,605
317,881	4,374	213,228	109,891
318,895	4,220	213,119	109,715
319,910	3,984	212,961	109,457
320,925	3,804	212,682	109,176
321,939	3,540	212,550	108,911
322,954	3,708	212,433	108,960
323,968	4,073	212,343	109,163
324,983	4,296	212,399	109,340
325,997	4,385	212,137	109,258
327,012	4,269	211,967	109,079
328,027	4,103	211,687	108,808
329,041	4,491	211,738	109,099
330,056	4,844	211,691	109,314
331,070	4,208	211,386	108,699
332,085	3,971	211,154	108,402
333,100	4,268	211,058	108,553
334,114	4,305	210,855	108,465
335,129	3,942	210,750	108,146
336,143	3,991	210,523	108,054
337,158	3,899	210,504	107,970
338,173	3,979	210,433	107,980
339,187	3,871	210,264	107,808
340,202	3,975	209,978	107,725
341,216	3,787	209,934	107,561
342,231	4,243	209,711	107,755
343,246	3,689	209,652	107,329
344,260	3,805	209,627	107,387
345,275	3,823	209,651	107,402
346,289	4,058	209,552	107,507
347,304	4,236	209,299	107,491
348,319	4,089	209,051	107,252
349,333	3,990	209,035	107,165
350,348	4,042	208,839	107,092
351,362	4,254	208,748	107,182
352,377	4,266	208,564	107,087
353,392	4,177	208,485	106,975
354,406	4,341	208,349	107,009
355,421	194,225	1347,778	1437,554
356,435	154,971	1486,711	1437,678
