DTS Sentinel unit serial number:	SN410029Multiplexer serial number:	ORYXHardware model number:	OX2-SRSoftware version number:	ORYX F/W v4,00 Oryx Data Collector v3.7.2.0data status	okinstallation	B6 Nyhavnadifferential loss correction	single-endedforward channel	channel 2reverse channel	N/Adate	2023/12/10time	06:00:08forward acquisition time	300,00reverse acquisition time	0,00gamma	499,1914k internal	0,3124k external	0,3124temperature offset calibration	1,0000default loss term (dB/km)	0,3820temperature slope calibration	1,0000multiplexer offset coefficient	1,0000multiplexer slope coefficient	1,0000fibre end	0,00T internal ref (°C)	22,53T ext. ref 1 (°C)	6,47T ext. ref 2 (°C)	6,44length (m)	temperature (°C)	Stokes	anti-Stokes-744,400	800,000	-0,044	-0,101
-743,385	59,458	-0,240	0,176
-742,371	-200,000	-0,001	0,029
-741,356	-156,179	-0,218	0,010
-740,342	308,916	-0,013	-0,018
-739,327	-119,636	-0,229	0,029
-738,312	626,462	-0,085	-0,160
-737,298	-78,346	-0,201	0,051
-736,283	-38,938	0,122	-0,048
-735,269	-44,096	-0,247	0,092
-734,254	-109,001	0,052	-0,008
-733,239	-22,967	-0,473	-0,212
-732,225	-144,294	0,168	-0,011
-731,210	800,000	0,009	-0,029
-730,196	-143,284	-0,096	0,007
-729,181	-114,366	-0,024	-0,003
-728,167	800,000	0,063	-0,150
-727,152	-58,969	0,067	-0,021
-726,137	-78,140	-0,153	0,039
-725,123	-18,398	-0,111	-0,051
-724,108	8,200	-0,077	-0,043
-723,094	179,214	0,023	0,025
-722,079	-200,000	-0,005	-0,169
-721,064	475,904	0,030	0,050
-720,050	-200,000	-0,029	-0,231
-719,035	55,668	0,063	-0,046
-718,021	24,250	-0,019	-0,012
-717,006	74,263	-0,115	-0,089
-715,991	108,871	0,016	-0,014
-714,977	-48,527	-0,168	0,060
-713,962	347,914	-0,039	-0,057
-712,948	-200,000	0,007	-0,190
-711,933	-22,482	0,015	-0,007
-710,918	-200,000	0,000	-0,110
-709,904	474,752	-0,027	-0,045
-708,889	-45,828	-0,055	-0,020
-707,875	145,683	-0,073	-0,072
-706,860	475,767	-0,025	0,043
-705,845	-70,193	-0,103	0,029
-704,831	-200,000	-0,021	-0,148
-703,816	-200,000	-0,003	0,025
-702,802	58,914	-0,067	-0,049
-701,787	800,000	-0,027	-0,087
-700,772	-156,050	-0,124	0,006
-699,758	-89,079	-0,091	-0,020
-698,743	800,000	0,027	-0,074
-697,729	-74,173	-0,051	-0,014
-696,714	306,143	0,033	-0,046
-695,699	19,828	-0,026	-0,016
-694,685	-200,000	-0,001	0,043
-693,670	200,709	-0,020	-0,023
-692,656	516,320	-0,017	-0,029
-691,641	800,000	0,013	-0,037
-690,627	-64,346	0,075	-0,023
-689,612	-200,000	-0,018	0,063
-688,597	-132,883	-0,053	-0,005
-687,583	-173,335	-0,101	0,002
-686,568	800,000	0,034	-0,102
-685,554	516,057	0,014	0,025
-684,539	-200,000	0,019	0,189
-683,524	116,948	0,040	-0,036
-682,510	-200,000	0,036	-0,133
-681,495	-200,000	-0,002	0,031
-680,481	37,609	0,090	-0,060
-679,466	-89,342	-0,151	-0,033
-678,451	-85,199	-0,073	-0,017
-677,437	538,710	0,047	0,083
-676,422	233,556	0,043	-0,052
-675,408	-7,403	-0,166	-0,083
-674,393	-97,119	-0,085	0,016
-673,378	374,352	-0,082	-0,125
-672,364	-11,556	-0,068	0,033
-671,349	421,532	-0,060	-0,096
-670,335	800,000	0,024	-0,072
-669,320	-39,753	0,088	0,034
-668,305	-200,000	0,020	0,103
-667,291	706,678	-0,091	-0,179
-666,276	-200,000	-0,008	-0,064
-665,262	281,479	0,062	-0,083
-664,247	44,824	0,013	-0,009
-663,232	800,000	0,037	0,086
-662,218	-71,826	0,120	-0,033
-661,203	96,691	0,133	0,113
-660,189	433,451	0,026	0,042
-659,174	-31,223	0,010	-0,004
-658,159	608,516	-0,102	-0,189
-657,145	116,180	-0,048	-0,044
-656,130	58,818	0,049	0,035
-655,116	-200,000	0,013	-0,069
-654,101	-200,000	-0,019	-0,116
-653,086	-200,000	-0,014	-0,088
-652,072	210,560	-0,054	-0,063
-651,057	-59,025	-0,024	-0,008
-650,043	-20,243	0,109	-0,050
-649,028	-119,584	-0,083	-0,011
-648,014	-65,306	0,046	-0,014
-646,999	202,983	-0,033	-0,038
-645,984	209,084	-0,068	0,080
-644,970	170,534	-0,097	-0,103
-643,955	-103,467	-0,050	-0,009
-642,941	-148,334	0,071	0,004
-641,926	-161,310	-0,045	-0,002
-640,911	456,005	0,060	0,100
-639,897	-18,673	-0,069	0,032
-638,882	-200,000	-0,013	-0,085
-637,868	-32,390	-0,090	0,037
-636,853	254,075	0,065	0,083
-635,838	-200,000	0,029	-0,113
-634,824	-22,398	0,082	0,037
-633,809	-183,154	0,102	0,001
-632,795	800,000	-0,036	0,101
-631,780	410,493	-0,036	-0,057
-630,765	75,027	-0,120	0,094
-629,751	-200,000	0,030	-0,116
-628,736	-200,000	-0,056	-0,191
-627,722	-200,000	-0,002	-0,049
-626,707	-185,155	0,118	-0,001
-625,692	-42,362	0,055	0,021
-624,678	26,606	0,019	0,012
-623,663	-200,000	0,016	-0,083
-622,649	116,862	-0,129	-0,117
-621,634	-192,232	-0,156	-0,001
-620,619	-200,000	-0,034	-0,119
-619,605	-200,000	0,031	-0,117
-618,590	198,936	0,104	-0,118
-617,576	278,328	-0,119	0,158
-616,561	-145,043	0,019	0,001
-615,546	-56,798	-0,085	0,028
-614,532	-23,402	-0,187	-0,083
-613,517	-200,000	-0,015	-0,088
-612,503	-200,000	-0,011	-0,088
-611,488	-200,000	-0,019	0,113
-610,474	82,741	-0,112	-0,090
-609,459	800,000	0,048	-0,127
-608,444	480,711	-0,051	-0,085
-607,430	22,911	0,103	-0,063
-606,415	-138,946	0,089	0,007
-605,401	-200,000	0,020	0,111
-604,386	-200,000	0,021	-0,093
-603,371	89,654	0,078	0,064
-602,357	286,522	-0,090	-0,121
-601,342	800,000	-0,006	-0,015
-600,328	135,650	-0,083	0,080
-599,313	-200,000	-0,011	-0,119
-598,298	-89,421	0,062	0,013
-597,284	-200,000	-0,010	0,184
-596,269	102,131	0,093	-0,080
-595,255	800,000	-0,032	-0,067
-594,240	-200,000	-0,001	-0,189
-593,225	153,548	-0,064	0,065
-592,211	-139,500	-0,042	-0,003
-591,196	-200,000	-0,017	0,074
-590,182	-200,000	0,018	0,060
-589,167	-200,000	-0,009	-0,078
-588,152	632,525	0,030	-0,057
-587,138	-68,675	-0,085	-0,024
-586,123	-57,959	0,092	-0,030
-585,109	387,406	-0,085	-0,131
-584,094	200,570	0,029	-0,033
-583,079	-133,670	0,052	-0,005
-582,065	800,000	-0,005	-0,010
-581,050	-200,000	0,009	0,135
-580,036	-200,000	0,007	-0,068
-579,021	40,005	-0,058	-0,038
-578,006	-200,000	0,011	-0,066
-576,992	-84,581	0,123	-0,028
-575,977	-141,269	0,076	-0,006
-574,963	-84,251	0,018	0,004
-573,948	444,957	-0,017	-0,028
-572,934	362,747	-0,075	0,112
-571,919	-122,686	-0,198	0,023
-570,904	800,000	-0,017	-0,054
-569,890	17,009	-0,039	-0,023
-568,875	-16,153	-0,023	-0,011
-567,861	35,953	-0,011	0,007
-566,846	228,987	-0,065	0,078
-565,831	-200,000	-0,006	0,027
-564,817	732,903	0,021	0,041
-563,802	-200,000	-0,010	-0,086
-562,788	119,348	-0,064	0,059
-561,773	164,147	0,043	0,045
-560,758	-162,349	0,021	-0,001
-559,744	-200,000	0,017	0,114
-558,729	214,507	0,061	-0,071
-557,715	-200,000	-0,018	-0,103
-556,700	-200,000	-0,003	-0,048
-555,685	420,130	0,025	0,040
-554,671	61,650	0,048	0,035
-553,656	-107,302	0,136	-0,022
-552,642	800,000	0,030	0,095
-551,627	-200,000	-0,013	0,086
-550,612	-81,834	-0,074	-0,018
-549,598	547,781	-0,090	-0,160
-548,583	-42,812	-0,082	-0,031
-547,569	124,269	-0,065	-0,061
-546,554	356,031	0,059	-0,088
-545,539	6,901	-0,079	0,043
-544,525	-200,000	-0,015	0,092
-543,510	-110,935	-0,005	-0,001
-542,496	800,000	0,015	-0,048
-541,481	25,987	-0,079	0,049
-540,466	256,277	-0,029	-0,036
-539,452	-200,000	-0,012	-0,091
-538,437	-66,268	0,128	-0,038
-537,423	-159,001	0,051	-0,002
-536,408	156,657	0,024	-0,024
-535,393	-136,974	-0,031	-0,003
-534,379	-200,000	0,001	-0,055
-533,364	188,207	-0,043	0,047
-532,350	-200,000	0,007	0,148
-531,335	203,630	-0,055	-0,063
-530,321	-117,991	0,007	-0,001
-529,306	-78,782	0,122	-0,031
-528,291	-200,000	0,007	-0,048
-527,277	627,304	-0,034	-0,063
-526,262	236,097	-0,016	-0,019
-525,248	-13,339	0,118	0,056
-524,233	800,000	-0,041	0,130
-523,218	-121,593	0,100	-0,012
-522,204	-200,000	-0,003	-0,028
-521,189	-73,070	-0,134	0,036
-520,175	-129,821	-0,157	0,016
-519,160	63,092	0,128	-0,095
-518,145	92,821	0,114	-0,095
-517,131	282,266	0,060	-0,079
-516,116	-15,989	-0,135	0,063
-515,102	-200,000	-0,017	0,055
-514,087	-127,788	0,004	-0,000
-513,072	-200,000	0,013	-0,100
-512,058	-103,959	-0,098	-0,017
-511,043	92,745	-0,050	-0,042
-510,029	-89,745	0,074	0,016
-509,014	677,256	0,059	0,113
-507,999	-20,680	0,104	0,047
-506,985	23,773	-0,051	0,031
-505,970	294,772	0,017	-0,023
-504,956	244,529	0,043	-0,054
-503,941	89,969	0,103	-0,085
-502,926	-200,000	-0,002	0,016
-501,912	-200,000	0,016	0,084
-500,897	56,134	-0,086	-0,062
-499,883	-92,850	-0,089	-0,018
-498,868	-129,309	-0,126	-0,013
-497,853	-49,392	-0,061	0,021
-496,839	138,681	0,034	0,033
-495,824	800,000	0,038	0,083
-494,810	800,000	-0,025	0,081
-493,795	360,730	0,068	0,101
-492,781	-200,000	-0,007	0,056
-491,766	-200,000	-0,008	0,082
-490,751	800,000	0,068	-0,164
-489,737	425,643	0,072	0,114
-488,722	237,440	-0,041	0,050
-487,708	427,154	0,015	-0,024
-486,693	-11,535	0,106	-0,051
-485,678	164,302	0,032	0,033
-484,664	37,967	-0,073	0,048
-483,649	213,169	-0,039	-0,045
-482,635	113,119	-0,044	0,039
-481,620	82,935	0,131	-0,105
-480,605	617,276	-0,004	-0,007
-479,591	217,551	-0,059	-0,069
-478,576	160,641	-0,089	0,091
-477,562	-200,000	0,007	-0,080
-476,547	128,494	-0,039	0,037
-475,532	342,057	-0,032	0,046
-474,518	-166,733	-0,052	-0,002
-473,503	724,807	-0,025	-0,050
-472,489	-121,586	0,121	-0,015
-471,474	-92,872	-0,121	0,025
-470,459	-7,189	-0,102	-0,051
-469,445	24,142	0,084	-0,051
-468,430	-181,196	0,123	-0,002
-467,416	497,891	-0,065	-0,111
-466,401	36,241	0,117	0,076
-465,386	800,000	0,026	0,073
-464,372	445,147	0,051	0,084
-463,357	413,309	-0,034	0,054
-462,343	45,469	-0,015	-0,010
-461,328	7,752	0,104	0,057
-460,313	338,361	-0,029	-0,041
-459,299	-200,000	-0,035	0,121
-458,284	-162,697	0,148	0,005
-457,270	-200,000	0,018	-0,081
-456,255	-14,605	0,029	0,013
-455,241	-22,018	-0,048	-0,021
-454,226	-30,018	-0,042	0,018
-453,211	332,316	0,079	-0,113
-452,197	-53,474	0,034	0,012
-451,182	528,366	0,061	0,107
-450,168	-200,000	-0,004	0,188
-449,153	-13,186	-0,054	-0,026
-448,138	-200,000	0,002	-0,059
-447,124	-200,000	-0,010	-0,039
-446,109	270,985	-0,086	0,112
-445,095	565,220	0,003	-0,006
-444,080	28,999	-0,050	-0,031
-443,065	143,328	-0,016	0,016
-442,051	-172,647	-0,061	0,001
-441,036	800,000	0,029	-0,067
-440,022	-200,000	-0,013	-0,046
-439,007	800,000	-0,029	0,085
-437,992	750,260	0,008	-0,017
-436,978	800,000	-0,039	0,093
-435,963	800,000	-0,047	0,122
-434,949	-124,799	-0,047	0,005
-433,934	361,364	0,050	-0,074
-432,919	-200,000	0,016	0,116
-431,905	-200,000	0,006	0,019
-430,890	311,795	0,039	0,054
-429,876	154,984	0,121	0,122
-428,861	18,019	0,073	0,043
-427,846	186,419	-0,017	0,018
-426,832	7,094	0,043	-0,024
-425,817	-200,000	-0,033	-0,124
-424,803	710,991	0,083	0,162
-423,788	24,011	0,093	0,056
-422,773	-200,000	0,004	0,053
-421,759	108,686	-0,058	0,051
-420,744	122,538	0,071	-0,065
-419,730	-30,077	-0,101	0,042
-418,715	126,831	0,028	-0,026
-417,701	800,000	-0,027	0,072
-416,686	-73,328	0,061	-0,016
-415,671	-137,675	0,101	-0,008
-414,657	48,419	0,013	-0,009
-413,642	-54,566	0,007	-0,002
-412,628	151,814	0,094	0,094
-411,613	-48,949	-0,114	0,040
-410,598	-200,000	0,008	0,115
-409,584	109,376	0,100	0,088
-408,569	800,000	-0,015	0,038
-407,555	90,259	0,056	-0,046
-406,540	800,000	0,035	-0,081
-405,525	611,801	-0,055	-0,101
-404,511	-119,761	-0,109	0,014
-403,496	-61,253	0,055	0,017
-402,482	55,396	-0,060	-0,043
-401,467	-200,000	-0,003	0,051
-400,452	-200,000	-0,022	0,074
-399,438	-151,965	0,076	-0,004
-398,423	192,366	-0,036	-0,040
-397,409	-108,628	-0,095	0,015
-396,394	800,000	-0,024	-0,077
-395,379	-200,000	-0,003	0,079
-394,365	800,000	-0,044	0,124
-393,350	-200,000	-0,005	0,102
-392,336	592,708	0,121	0,220
-391,321	-200,000	-0,006	-0,019
-390,306	-111,432	0,021	-0,003
-389,292	-200,000	0,015	-0,060
-388,277	77,928	0,140	0,110
-387,263	-200,000	0,012	0,094
-386,248	-66,286	0,123	0,036
-385,233	-200,000	-0,011	0,106
-384,219	37,847	-0,098	0,064
-383,204	400,017	-0,033	0,052
-382,190	-200,000	0,003	-0,037
-381,175	-178,195	0,107	0,002
-380,160	87,068	0,061	-0,049
-379,146	-72,435	0,046	0,012
-378,131	-200,000	-0,017	0,142
-377,117	583,219	-0,097	0,176
-376,102	800,000	0,036	-0,099
-375,088	-200,000	-0,003	-0,038
-374,073	-120,030	0,050	-0,006
-373,058	-160,878	0,099	0,004
-372,044	-26,864	0,077	0,033
-371,029	20,812	-0,066	-0,039
-370,015	-200,000	-0,019	-0,139
-369,000	757,028	-0,050	-0,099
-367,985	-200,000	0,010	-0,088
-366,971	-89,143	-0,071	-0,015
-365,956	686,628	-0,042	-0,080
-364,942	-70,907	0,079	0,022
-363,927	265,017	0,094	0,121
-362,912	75,020	0,095	0,074
-361,898	-44,968	-0,121	0,044
-360,883	168,399	-0,089	-0,093
-359,869	-200,000	0,012	-0,043
-358,854	653,748	-0,039	-0,074
-357,839	-33,763	0,041	-0,017
-356,825	800,000	0,032	0,103
-355,810	-200,000	0,007	0,056
-354,796	800,000	-0,043	0,101
-353,781	-69,453	-0,201	0,056
-352,766	-153,033	-0,142	0,007
-351,752	-79,101	-0,047	0,012
-350,737	-161,954	0,103	0,004
-349,723	-1,009	0,105	0,054
-348,708	220,079	0,037	-0,044
-347,693	-200,000	-0,004	-0,062
-346,679	-99,728	-0,015	0,003
-345,664	37,796	-0,089	0,058
-344,650	339,299	-0,095	0,136
-343,635	131,629	0,061	0,058
-342,620	-3,893	0,060	0,030
-341,606	3,693	0,099	0,053
-340,591	93,529	-0,025	0,021
-339,577	-65,792	0,055	-0,016
-338,562	-200,000	0,012	-0,044
-337,548	262,630	-0,023	0,029
-336,533	165,303	-0,059	-0,062
-335,518	156,880	0,128	0,130
-334,504	-200,000	-0,039	0,209
-333,489	18,489	-0,073	-0,042
-332,475	-12,385	-0,163	-0,078
-331,460	-200,000	-0,008	-0,074
-330,445	-200,000	0,017	-0,134
-329,431	762,911	0,010	0,019
-328,416	-200,000	-0,007	0,230
-327,402	514,720	-0,086	0,149
-326,387	-200,000	-0,023	0,138
-325,372	111,608	0,059	-0,052
-324,358	-200,000	0,020	-0,068
-323,343	141,816	-0,073	0,071
-322,329	353,200	0,045	-0,066
-321,314	255,344	-0,056	-0,070
-320,299	-200,000	0,002	0,064
-319,285	800,000	-0,011	0,032
-318,270	340,000	-0,082	-0,118
-317,256	-99,587	0,121	-0,022
-316,241	800,000	0,030	-0,074
-315,226	544,658	0,032	0,056
-314,212	19,166	-0,035	0,020
-313,197	-200,000	0,032	-0,116
-312,183	482,316	0,048	0,079
-311,168	-116,099	-0,049	-0,007
-310,153	-113,989	0,076	-0,011
-309,139	9,768	0,037	0,021
-308,124	-200,000	0,003	0,013
-307,110	-84,858	0,087	0,020
-306,095	474,352	0,066	0,110
-305,080	800,000	-0,074	0,163
-304,066	366,961	-0,034	-0,050
-303,051	-200,000	0,002	-0,156
-302,037	800,000	-0,022	-0,050
-301,022	-200,000	-0,020	0,071
-300,008	-140,824	0,080	-0,006
-298,993	84,490	-0,121	0,097
-297,978	-119,703	0,081	-0,010
-296,964	388,047	-0,016	-0,025
-295,949	58,928	-0,058	-0,042
-294,935	-88,291	0,072	-0,016
-293,920	800,000	0,061	0,133
-292,905	-16,494	0,064	0,030
-291,891	500,161	0,003	0,006
-290,876	-122,058	0,063	-0,007
-289,862	-172,726	0,049	-0,001
-288,847	-127,595	-0,107	-0,011
-287,832	145,390	-0,081	-0,079
-286,818	-200,000	-0,009	-0,105
-285,803	733,995	-0,044	0,087
-284,789	154,959	0,043	-0,043
-283,774	50,634	0,091	-0,063
-282,759	-91,254	-0,163	0,034
-281,745	800,000	-0,033	-0,088
-280,730	800,000	-0,019	-0,053
-279,716	172,927	0,069	0,073
-278,701	-200,000	0,000	0,013
-277,686	435,658	0,006	0,009
-276,672	12,625	0,025	-0,014
-275,657	-200,000	0,025	-0,134
-274,643	161,016	-0,024	0,025
-273,628	20,082	-0,101	0,060
-272,613	800,000	-0,033	-0,086
-271,599	143,506	-0,064	0,063
-270,584	800,000	-0,009	0,020
-269,570	-200,000	-0,002	0,013
-268,555	240,849	-0,101	-0,124
-267,540	46,750	-0,050	-0,034
-266,526	-13,909	0,159	0,075
-265,511	295,740	0,014	-0,019
-264,497	23,527	-0,043	0,026
-263,482	23,896	0,079	0,048
-262,467	-200,000	0,019	0,095
-261,453	243,229	0,070	-0,085
-260,438	800,000	-0,032	-0,098
-259,424	-91,734	0,058	0,012
-258,409	101,945	-0,057	-0,048
-257,395	-200,000	0,032	-0,129
-256,380	-1,718	0,041	0,021
-255,365	356,804	0,078	0,114
-254,351	-43,750	0,043	0,016
-253,336	-140,140	-0,164	0,012
-252,322	74,597	-0,075	-0,058
-251,307	384,679	-0,058	0,088
-250,292	42,075	-0,061	-0,041
-249,278	-200,000	-0,003	-0,076
-248,263	79,435	-0,073	-0,057
-247,249	185,503	-0,033	-0,036
-246,234	-200,000	-0,009	0,114
-245,219	36,520	-0,087	-0,056
-244,205	-200,000	-0,008	-0,148
-243,190	-91,978	-0,049	-0,010
-242,176	45,347	0,054	-0,036
-241,161	373,978	0,096	0,143
-240,146	-23,329	0,098	0,043
-239,132	294,994	-0,042	-0,057
-238,117	69,777	0,046	0,034
-237,103	-91,948	-0,090	0,019
-236,088	218,192	0,017	0,020
-235,073	-79,820	0,148	-0,036
-234,059	7,244	0,098	-0,053
-233,044	-200,000	0,031	0,213
-232,030	42,909	-0,124	0,082
-231,015	-116,779	-0,078	-0,010
-230,000	173,741	-0,105	-0,111
-228,986	800,000	-0,031	-0,095
-227,971	-200,000	0,001	0,057
-226,957	61,351	0,032	-0,023
-225,942	-134,440	0,113	0,010
-224,927	515,259	0,042	-0,073
-223,913	-200,000	-0,026	-0,106
-222,898	-56,902	0,076	0,024
-221,884	800,000	0,031	0,072
-220,869	42,259	0,031	-0,020
-219,855	-200,000	-0,009	-0,104
-218,840	-200,000	0,009	0,063
-217,825	-113,126	-0,023	-0,003
-216,811	-200,000	0,015	-0,118
-215,796	-200,000	-0,036	-0,143
-214,782	20,215	-0,105	-0,062
-213,767	800,000	0,060	0,125
-212,752	-200,000	-0,009	0,030
-211,738	-42,212	-0,054	-0,020
-210,723	176,636	0,063	0,067
-209,709	-61,358	-0,032	0,010
-208,694	-177,392	-0,057	-0,001
-207,679	173,292	-0,081	-0,085
-206,665	-69,653	0,259	0,072
-205,650	11,488	0,153	-0,085
-204,636	-86,746	-0,013	0,003
-203,621	-62,335	0,094	-0,028
-202,606	8,225	0,131	0,072
-201,592	-200,000	0,032	-0,110
-200,577	800,000	0,038	-0,107
-199,563	-58,958	0,003	0,001
-198,548	-112,573	0,121	0,017
-197,533	103,642	0,057	-0,049
-196,519	800,000	0,050	0,140
-195,504	241,249	-0,036	-0,044
-194,490	-81,787	-0,071	-0,017
-193,475	-200,000	0,036	-0,174
-192,460	101,388	-0,106	-0,090
-191,446	-150,699	0,079	0,004
-190,431	-200,000	-0,011	0,048
-189,417	-97,809	-0,055	-0,010
-188,402	-200,000	-0,013	0,138
-187,387	680,342	-0,049	-0,093
-186,373	-110,944	-0,074	-0,011
-185,358	-200,000	0,013	-0,092
-184,344	-93,478	0,116	0,023
-183,329	351,010	0,085	0,123
-182,315	-200,000	-0,001	-0,019
-181,300	33,403	-0,105	0,066
-180,285	-70,036	0,091	0,025
-179,271	182,081	0,047	-0,051
-178,256	716,349	-0,046	-0,090
-177,242	-200,000	-0,011	-0,046
-176,227	83,360	0,036	-0,028
-175,212	-108,028	-0,054	-0,009
-174,198	-144,416	-0,073	-0,005
-173,183	63,659	-0,061	-0,045
-172,169	-200,000	0,010	-0,036
-171,154	800,000	-0,033	0,093
-170,139	-162,477	0,062	-0,002
-169,125	150,852	-0,010	0,010
-168,110	-4,608	-0,142	0,071
-167,096	-200,000	0,037	-0,167
-166,081	-102,223	0,094	-0,016
-165,066	177,744	-0,073	-0,078
-164,052	-92,863	-0,070	0,014
-163,037	-200,000	-0,013	-0,093
-162,023	307,659	-0,111	0,152
-161,008	-115,011	0,023	-0,003
-159,993	800,000	0,030	-0,083
-158,979	-134,607	-0,042	-0,004
-157,964	800,000	-0,030	-0,061
-156,950	727,782	0,041	0,081
-155,935	-66,027	0,192	0,056
-154,920	-200,000	0,011	0,085
-153,906	336,511	-0,028	-0,040
-152,891	58,413	-0,086	-0,061
-151,877	-23,375	-0,034	-0,015
-150,862	-200,000	0,055	-0,181
-149,847	-200,000	0,028	-0,138
-148,833	77,157	0,022	0,017
-147,818	-14,406	0,070	0,033
-146,804	800,000	-0,042	-0,094
-145,789	384,005	0,036	0,054
-144,775	-200,000	0,018	0,112
-143,760	-144,431	0,063	0,004
-142,745	-27,935	-0,110	0,046
-141,731	-61,526	0,075	0,023
-140,716	105,344	0,084	-0,072
-139,702	-200,000	-0,002	0,029
-138,687	205,108	-0,087	-0,098
-137,672	800,000	-0,052	-0,112
-136,658	-150,894	-0,052	0,003
-135,643	-11,739	-0,032	0,015
-134,629	-9,503	-0,084	-0,040
-133,614	-52,001	0,049	0,016
-132,599	800,000	0,059	0,129
-131,585	800,000	0,044	0,111
-130,570	-23,814	-0,056	-0,024
-129,556	156,625	0,086	0,087
-128,541	-12,606	-0,109	0,052
-127,526	-0,716	-0,053	-0,027
-126,512	-200,000	-0,020	-0,108
-125,497	-39,126	0,042	-0,016
-124,483	-63,356	0,228	-0,068
-123,468	-200,000	-0,016	-0,260
-122,453	800,000	-0,034	-0,088
-121,439	-200,000	0,006	-0,066
-120,424	800,000	0,037	-0,089
-119,410	800,000	-0,018	-0,048
-118,395	-72,051	-0,176	0,047
-117,380	306,749	0,041	0,056
-116,366	800,000	0,021	0,055
-115,351	72,678	0,078	-0,059
-114,337	800,000	-0,022	-0,063
-113,322	25,219	-0,089	0,054
-112,307	68,256	-0,064	0,048
-111,293	800,000	0,050	-0,108
-110,278	800,000	-0,040	-0,100
-109,264	800,000	-0,063	0,148
-108,249	180,258	-0,079	0,084
-107,234	50,799	-0,079	-0,054
-106,220	800,000	-0,020	-0,044
-105,205	-126,593	-0,075	-0,008
-104,191	-200,000	0,004	0,110
-103,176	-93,961	0,059	0,012
-102,162	-64,791	-0,066	-0,019
-101,147	800,000	0,055	-0,122
-100,132	331,442	-0,036	0,051
-99,118	63,586	-0,030	-0,022
-98,103	-5,123	0,151	0,075
-97,089	258,634	0,020	-0,026
-96,074	-200,000	-0,022	0,124
-95,059	-200,000	-0,010	0,047
-94,045	-83,008	-0,132	0,031
-93,030	-150,959	-0,089	-0,005
-92,016	-154,014	-0,049	0,002
-91,001	-3,665	-0,029	0,015
-89,986	-200,000	0,007	0,064
-88,972	40,765	0,061	-0,040
-87,957	-200,000	0,012	-0,157
-86,943	239,402	-0,143	-0,173
-85,928	54,610	-0,149	-0,104
-84,913	51,669	0,047	-0,033
-83,899	-193,851	-0,221	0,001
-82,884	-31,946	0,049	-0,020
-81,870	-20,257	-0,016	-0,007
-80,855	800,000	0,041	-0,091
-79,840	495,085	-0,095	-0,160
-78,826	800,000	-0,041	-0,118
-77,811	127,786	-0,126	-0,117
-76,797	80,232	0,069	0,054
-75,782	244,458	0,043	-0,053
-74,767	-43,816	-0,145	0,053
-73,753	-171,564	-0,183	-0,004
-72,738	266,659	0,079	0,100
-71,724	45,379	-0,101	-0,068
-70,709	222,578	0,048	0,057
-69,694	-28,855	-0,132	0,055
-68,680	-90,477	0,046	-0,010
-67,665	800,000	-0,019	0,053
-66,651	778,731	-0,047	0,094
-65,636	-200,000	0,018	0,090
-64,622	-6,455	0,053	0,026
-63,607	-200,000	0,002	-0,085
-62,592	211,729	-0,117	-0,134
-61,578	-200,000	0,013	-0,060
-60,563	54,232	0,062	-0,044
-59,549	-0,747	-0,082	0,042
-58,534	-169,350	-1,357	-0,035
-57,519	490,147	-0,878	-1,462
-56,505	-200,000	-0,958	-4,373
-55,490	31,972	0,617	-0,385
-54,476	800,000	4,913	11,777
-53,461	-200,000	13,387	253,786
-52,446	-200,000	689,549	2267,867
-51,432	594,550	1623,169	2924,404
-50,417	120,675	1636,077	1475,105
-49,403	73,514	1290,300	979,046
-48,388	38,352	1025,035	661,063
-47,373	24,494	982,387	587,982
-46,359	23,731	972,158	579,336
-45,344	22,797	967,853	573,695
-44,330	22,680	966,603	572,547
-43,315	22,578	964,938	571,208
-42,300	22,551	964,039	570,563
-41,286	22,547	963,172	570,017
-40,271	22,539	962,175	569,377
-39,257	22,556	961,221	568,846
-38,242	22,574	960,126	568,231
-37,227	22,569	959,374	567,748
-36,213	22,532	958,469	567,072
-35,198	22,554	957,582	566,596
-34,184	22,500	957,117	566,123
-33,169	22,497	956,160	565,525
-32,154	22,591	955,120	565,189
-31,140	22,578	954,411	564,705
-30,125	22,594	953,493	564,192
-29,111	22,570	952,936	563,762
-28,096	22,564	952,120	563,240
-27,082	22,584	951,283	562,784
-26,067	22,538	950,591	562,207
-25,052	22,577	949,804	561,844
-24,038	22,522	949,385	561,397
-23,023	22,565	948,713	561,115
-22,009	22,584	947,909	560,679
-20,994	22,626	947,147	560,340
-19,979	22,564	946,725	559,870
-18,965	22,573	945,987	559,439
-17,950	22,635	945,330	559,225
-16,936	22,529	944,846	558,578
-15,921	22,542	944,085	558,148
-14,906	22,475	943,260	557,426
-13,892	22,458	942,612	556,966
-12,877	22,486	942,068	556,713
-11,863	22,378	941,547	556,038
-10,848	22,404	941,002	555,777
-9,833	22,561	940,518	555,969
-8,819	22,578	939,866	555,614
-7,804	22,444	939,223	554,788
-6,790	22,420	938,672	554,363
-5,775	22,502	938,072	554,247
-4,760	22,510	937,230	553,754
-3,746	22,426	936,879	553,259
-2,731	22,348	936,093	552,526
-1,717	22,275	935,332	551,826
-0,702	22,216	934,764	551,282
0,313	22,109	934,162	551,422
1,327	25,145	932,036	559,666
2,342	34,796	796,777	504,162
3,356	32,911	451,897	283,074
4,371	1,816	293,664	152,956
5,386	-2,861	274,482	138,531
6,400	-4,177	268,802	134,432
7,415	-4,587	266,481	132,883
8,429	-4,230	265,189	132,553
9,444	-4,155	264,434	132,232
10,459	-4,241	263,814	131,833
11,473	-4,234	263,117	131,479
12,488	-4,392	262,733	131,132
13,502	-4,536	262,051	130,650
14,517	-4,475	261,539	130,438
15,531	-4,331	261,202	130,388
16,546	-4,402	260,898	130,161
17,561	-4,309	260,485	130,026
18,575	-4,361	260,129	129,790
19,590	-4,345	259,897	129,678
20,604	-4,275	259,567	129,564
21,619	-4,328	259,254	129,349
22,634	-4,459	258,920	129,054
23,648	-4,388	258,491	128,891
24,663	-4,413	258,331	128,778
25,677	-4,480	258,051	128,568
26,692	-4,485	257,762	128,408
27,707	-4,552	257,693	128,302
28,721	-4,491	257,274	128,137
29,736	-4,390	256,980	128,068
30,750	-4,446	256,771	127,903
31,765	-4,490	256,427	127,681
32,780	-4,622	256,315	127,498
33,794	-4,345	256,149	127,648
34,809	-4,543	256,018	127,397
35,823	-4,485	255,553	127,205
36,838	-4,483	255,414	127,127
37,853	-4,483	255,127	126,972
38,867	-4,618	254,880	126,719
39,882	-4,556	254,785	126,715
40,896	-4,443	254,415	126,619
41,911	-4,519	254,240	126,454
42,926	-4,660	254,015	126,208
43,940	-4,580	253,793	126,156
44,955	-4,645	253,720	126,052
45,969	-4,769	253,352	125,750
46,984	-4,863	253,098	125,531
47,999	-5,130	252,854	125,166
49,013	-4,971	252,516	125,126
50,028	-5,149	252,195	124,801
51,042	-5,276	252,068	124,617
52,057	-5,406	251,887	124,403
53,071	-5,219	251,683	124,454
54,086	-5,194	251,432	124,341
55,101	-5,081	251,293	124,358
56,115	-4,861	251,169	124,475
57,130	-4,420	251,002	124,762
58,144	-4,230	250,955	124,891
59,159	-4,332	250,785	124,708
60,174	-4,277	250,430	124,567
61,188	-4,190	250,246	124,539
62,203	-4,157	250,008	124,438
63,217	-4,212	249,802	124,277
64,232	-4,288	249,676	124,138
65,247	-4,451	249,428	123,864
66,261	-4,397	249,093	123,733
67,276	-4,533	248,981	123,551
68,290	-4,737	248,722	123,237
69,305	-4,840	248,514	123,035
70,320	-4,773	248,386	123,018
71,334	-4,512	248,105	123,089
72,349	-4,366	247,954	123,128
73,363	-4,329	247,976	123,159
74,378	-4,262	247,574	123,005
75,393	-4,571	247,461	122,677
76,407	-4,359	247,207	122,719
77,422	-4,378	246,960	122,570
78,436	-4,239	246,886	122,639
79,451	-4,461	246,568	122,283
80,466	-4,358	246,287	122,219
81,480	-4,552	246,148	121,976
82,495	-4,723	245,887	121,691
83,509	-4,703	245,776	121,643
84,524	-4,505	245,730	121,776
85,539	-4,670	245,281	121,404
86,553	-4,732	245,072	121,238
87,568	-4,666	245,008	121,251
88,582	-4,557	244,832	121,244
89,597	-4,686	244,642	121,031
90,611	-4,592	244,526	121,042
91,626	-4,493	244,484	121,093
92,641	-4,540	244,202	120,903
93,655	-4,643	243,991	120,702
94,670	-4,634	243,654	120,532
95,684	-4,414	243,554	120,655
96,699	-4,656	243,381	120,357
97,714	-4,814	243,317	120,183
98,728	-4,662	243,019	120,151
99,743	-4,637	242,738	120,023
100,757	-4,848	242,626	119,781
101,772	-4,642	242,384	119,822
102,787	-4,835	242,121	119,522
103,801	-4,474	242,004	119,751
104,816	-4,721	242,020	119,545
105,830	-4,429	241,703	119,619
106,845	-4,185	241,639	119,778
107,860	-4,460	241,376	119,410
108,874	-4,525	241,155	119,236
109,889	-4,690	240,938	118,983
110,903	-4,748	240,960	118,935
111,918	-4,600	240,599	118,868
112,933	-4,663	240,651	118,832
113,947	-4,480	240,399	118,847
114,962	-4,162	240,145	118,972
115,976	-4,463	240,175	118,729
116,991	-4,442	239,777	118,538
118,006	-4,634	239,637	118,301
119,020	-4,555	239,606	118,340
120,035	-4,363	239,395	118,383
121,049	-4,450	239,256	118,232
122,064	-4,247	239,043	118,282
123,079	-4,508	238,894	117,985
124,093	-4,505	238,497	117,781
125,108	-4,640	238,469	117,647
126,122	-4,888	238,054	117,230
127,137	-4,970	237,888	117,070
128,151	-4,890	237,892	117,127
129,166	-4,753	237,782	117,174
130,181	-4,863	237,415	116,894
131,195	-4,770	237,272	116,888
132,210	-4,779	237,303	116,885
133,224	-4,547	237,188	117,006
134,239	-4,520	236,993	116,921
135,254	-4,379	236,668	116,865
136,268	-4,750	236,496	116,470
137,283	-4,758	236,117	116,267
138,297	-4,835	235,997	116,135
139,312	-4,765	235,841	116,104
140,327	-4,592	235,917	116,270
141,341	-4,240	235,826	116,498
142,356	-4,101	235,633	116,504
143,370	-4,079	235,530	116,461
144,385	-4,138	235,424	116,350
145,400	-4,120	235,094	116,191
146,414	-4,107	234,831	116,061
147,429	-4,173	234,768	115,967
148,443	-4,122	234,712	115,970
149,458	-4,271	234,563	115,767
150,473	-4,212	234,356	115,702
151,487	-4,484	234,123	115,359
152,502	-4,407	234,037	115,368
153,516	-4,138	233,856	115,483
154,531	-4,300	233,696	115,264
155,546	-4,017	233,370	115,319
156,560	-4,163	233,273	115,144
157,575	-4,439	232,972	114,766
158,589	-4,221	232,756	114,823
159,604	-4,015	232,732	114,964
160,619	-4,156	232,600	114,776
161,633	-4,203	232,613	114,736
162,648	-4,239	232,498	114,640
163,662	-4,305	232,253	114,457
164,677	-4,269	231,967	114,334
165,692	-4,311	231,825	114,221
166,706	-4,041	231,725	114,374
167,721	-3,916	231,431	114,317
168,735	-3,947	231,439	114,287
169,750	-3,935	231,207	114,172
170,764	-4,230	231,163	113,908
171,779	-4,165	231,034	113,885
172,794	-3,801	230,798	114,044
173,808	-4,245	230,548	113,563
174,823	-4,407	230,287	113,297
175,837	-4,734	230,178	112,977
176,852	-4,534	230,208	113,138
177,867	-4,280	230,210	113,328
178,881	-4,161	229,963	113,290
179,896	-3,977	229,758	113,322
180,910	-4,106	229,656	113,161
181,925	-4,090	229,416	113,045
182,940	-3,967	229,306	113,076
183,954	-4,102	229,121	112,870
184,969	-4,176	229,186	112,834
185,983	-3,839	228,764	112,879
186,998	-3,958	228,725	112,757
188,013	-3,816	228,548	112,770
189,027	-3,968	228,459	112,598
190,042	-3,827	228,071	112,506
191,056	-3,934	227,970	112,363
192,071	-3,936	227,947	112,340
193,086	-4,021	227,695	112,140
194,100	-4,021	227,609	112,087
195,115	-4,181	227,113	111,710
196,129	-4,860	227,098	111,169
197,144	-2,241	227,769	113,511
198,159	1,261	228,807	116,731
199,173	3,753	229,442	118,977
200,188	4,407	229,421	119,462
201,202	4,266	229,304	119,282
202,217	4,406	229,083	119,264
203,232	4,461	228,993	119,249
204,246	4,645	228,832	119,297
205,261	4,632	228,723	119,219
206,275	4,869	228,552	119,301
207,290	4,918	228,364	119,231
208,304	4,733	228,344	119,068
209,319	4,780	228,051	118,940
210,334	4,692	227,882	118,773
211,348	4,382	227,765	118,464
212,363	4,009	227,531	118,046
213,377	3,843	227,179	117,726
214,392	3,808	227,136	117,666
215,407	3,949	226,943	117,663
216,421	4,081	227,005	117,786
217,436	3,890	226,551	117,394
218,450	3,649	226,402	117,123
219,465	3,598	226,322	117,032
220,480	3,763	226,211	117,090
221,494	3,774	226,030	116,994
222,509	3,966	225,951	117,089
223,523	3,725	225,775	116,804
224,538	3,766	225,545	116,705
225,553	3,913	225,464	116,765
226,567	4,140	225,309	116,846
227,582	4,275	225,212	116,888
228,596	4,395	225,140	116,932
229,611	4,022	224,796	116,460
230,626	3,763	224,633	116,169
231,640	3,770	224,560	116,126
232,655	4,116	224,489	116,340
233,669	4,462	224,490	116,592
234,684	4,389	224,392	116,476
235,699	4,235	224,140	116,219
236,713	4,093	223,924	115,989
237,728	3,781	223,743	115,650
238,742	3,822	223,410	115,498
239,757	3,987	223,169	115,488
240,772	3,950	223,275	115,505
241,786	3,570	223,240	115,190
242,801	4,026	223,062	115,431
243,815	4,223	223,007	115,539
244,830	4,322	222,816	115,505
245,844	3,911	222,578	115,063
246,859	3,951	222,502	115,044
247,874	4,223	222,337	115,151
248,888	4,207	222,205	115,061
249,903	3,923	222,045	114,756
250,917	3,911	221,829	114,625
251,932	3,895	221,649	114,510
252,947	3,861	221,460	114,376
253,961	3,593	221,379	114,125
254,976	3,667	221,293	114,126
255,990	3,881	221,131	114,191
257,005	4,203	220,992	114,348
258,020	4,014	220,980	114,191
259,034	4,221	220,918	114,303
260,049	4,175	220,586	114,087
261,063	4,006	220,541	113,928
262,078	4,057	220,381	113,873
263,093	4,276	220,270	113,968
264,107	3,989	220,173	113,695
265,122	4,338	219,799	113,749
266,136	4,291	219,847	113,729
267,151	4,597	219,619	113,827
268,166	3,860	219,444	113,183
269,180	3,449	219,174	112,731
270,195	3,635	219,014	112,776
271,209	3,920	218,911	112,922
272,224	3,840	218,894	112,844
273,239	4,035	218,731	112,893
274,253	3,812	218,559	112,631
275,268	3,927	218,285	112,564
276,282	3,677	218,159	112,306
277,297	3,957	217,907	112,371
278,312	3,827	217,988	112,308
279,326	3,862	217,839	112,246
280,341	4,092	217,693	112,329
281,355	3,942	217,531	112,126
282,370	3,935	217,375	112,031
283,384	3,851	217,197	111,868
284,399	3,410	217,159	111,517
285,414	3,631	216,972	111,572
286,428	3,838	216,781	111,614
287,443	3,975	216,815	111,721
288,457	4,064	216,701	111,717
289,472	3,835	216,531	111,454
290,487	3,510	216,252	111,065
291,501	3,294	216,110	110,825
292,516	3,583	215,841	110,886
293,530	3,656	215,831	110,924
294,545	3,259	215,698	110,559
295,560	3,796	215,496	110,833
296,574	3,776	215,397	110,758
297,589	3,801	215,343	110,738
298,603	3,999	215,172	110,782
299,618	3,848	215,128	110,642
300,633	3,840	214,908	110,513
301,647	4,155	214,921	110,736
302,662	4,250	214,738	110,700
303,676	4,070	214,556	110,468
304,691	3,926	214,497	110,324
305,706	4,122	214,311	110,359
306,720	4,106	214,228	110,295
307,735	3,824	214,048	109,990
308,749	3,906	213,775	109,899
309,764	3,782	213,796	109,812
310,779	4,479	213,653	110,226
311,793	4,134	213,439	109,860
312,808	3,966	213,268	109,642
313,822	4,265	212,981	109,698
314,837	3,921	212,886	109,394
315,852	3,746	212,886	109,260
316,866	4,104	212,622	109,369
317,881	4,166	212,662	109,424
318,895	4,025	212,574	109,269
319,910	4,057	212,210	109,094
320,925	3,776	212,111	108,835
321,939	3,447	211,945	108,507
322,954	3,716	211,916	108,673
323,968	4,086	211,850	108,891
324,983	3,971	211,751	108,749
325,997	3,965	211,693	108,705
327,012	3,898	211,432	108,515
328,027	3,967	211,346	108,509
329,041	4,293	211,277	108,694
330,056	4,467	211,114	108,723
331,070	3,662	211,078	108,128
332,085	3,662	210,635	107,892
333,100	3,542	210,552	107,754
334,114	4,008	210,480	108,036
335,129	4,122	210,270	107,998
336,143	3,888	210,020	107,697
337,158	3,690	210,013	107,544
338,173	3,612	209,879	107,412
339,187	3,814	209,634	107,418
340,202	3,498	209,580	107,160
341,216	3,538	209,406	107,089
342,231	3,871	209,280	107,247
343,246	3,569	209,308	107,041
344,260	3,480	209,061	106,844
345,275	3,807	208,902	106,980
346,289	4,029	208,843	107,095
347,304	3,962	208,689	106,960
348,319	4,029	208,504	106,902
349,333	3,953	208,454	106,814
350,348	3,845	208,386	106,695
351,362	4,122	208,200	106,782
352,377	4,148	208,105	106,742
353,392	4,027	207,883	106,535
354,406	4,004	207,921	106,529
355,421	195,309	1347,623	1440,576
356,435	155,870	1486,582	1440,706
