DTS Sentinel unit serial number:	SN410029Multiplexer serial number:	ORYXHardware model number:	OX2-SRSoftware version number:	ORYX F/W v4,00 Oryx Data Collector v3.7.2.0data status	okinstallation	B6 Nyhavnadifferential loss correction	single-endedforward channel	channel 2reverse channel	N/Adate	2023/12/10time	06:10:08forward acquisition time	300,00reverse acquisition time	0,00gamma	499,1914k internal	0,3124k external	0,3124temperature offset calibration	1,0000default loss term (dB/km)	0,3820temperature slope calibration	1,0000multiplexer offset coefficient	1,0000multiplexer slope coefficient	1,0000fibre end	0,00T internal ref (°C)	22,56T ext. ref 1 (°C)	6,45T ext. ref 2 (°C)	6,43length (m)	temperature (°C)	Stokes	anti-Stokes-744,400	-200,000	0,006	-0,191
-743,385	180,442	-0,130	0,143
-742,371	210,393	0,099	0,116
-741,356	-11,861	-0,214	0,104
-740,342	247,351	0,075	-0,094
-739,327	-13,463	-0,212	0,102
-738,312	564,746	0,083	-0,150
-737,298	-147,367	-0,271	0,017
-736,283	800,000	0,037	-0,103
-735,269	217,264	-0,104	0,123
-734,254	-32,619	0,117	-0,048
-733,239	-101,405	-0,411	0,074
-732,225	118,024	0,074	0,068
-731,210	270,378	0,019	-0,025
-730,196	151,766	-0,089	-0,090
-729,181	-78,931	-0,094	0,024
-728,167	-28,711	0,066	-0,028
-727,152	-114,666	0,054	0,008
-726,137	14,696	-0,086	0,050
-725,123	-200,000	0,007	-0,048
-724,108	-63,237	-0,040	-0,012
-723,094	800,000	0,040	-0,130
-722,079	-200,000	-0,023	-0,078
-721,064	225,051	0,094	-0,114
-720,050	800,000	-0,030	0,089
-719,035	-158,411	-0,043	-0,002
-718,021	63,570	-0,058	-0,043
-717,006	236,234	-0,029	0,036
-715,991	-67,027	-0,124	-0,036
-714,977	-34,415	-0,166	-0,067
-713,962	254,957	-0,057	0,073
-712,948	-200,000	-0,003	0,018
-711,933	-108,395	-0,163	-0,026
-710,918	46,256	0,018	-0,012
-709,904	-200,000	0,017	-0,102
-708,889	800,000	0,034	-0,105
-707,875	800,000	0,025	-0,065
-706,860	109,365	-0,050	0,045
-705,845	-200,000	0,005	0,041
-704,831	160,313	-0,093	0,097
-703,816	-75,254	-0,066	-0,017
-702,802	75,876	-0,088	-0,069
-701,787	-25,664	0,051	0,022
-700,772	376,390	-0,037	-0,056
-699,758	691,281	0,046	-0,089
-698,743	102,592	0,081	-0,070
-697,729	-27,477	-0,029	-0,013
-696,714	244,107	0,032	-0,041
-695,699	800,000	0,022	-0,051
-694,685	-200,000	0,013	-0,108
-693,670	800,000	-0,053	-0,131
-692,656	-200,000	-0,003	-0,045
-691,641	800,000	0,040	0,108
-690,627	22,125	-0,068	0,041
-689,612	-200,000	-0,009	0,073
-688,597	19,978	-0,105	-0,063
-687,583	-121,593	-0,056	-0,007
-686,568	-200,000	0,045	0,152
-685,554	401,010	0,049	-0,076
-684,539	-108,774	0,134	0,021
-683,524	-106,856	0,027	-0,004
-682,510	463,148	0,093	-0,155
-681,495	-200,000	-0,097	0,000
-680,481	-142,042	-0,073	0,005
-679,466	-79,801	-0,056	0,014
-678,451	-200,000	0,013	-0,047
-677,437	-128,927	-0,065	-0,007
-676,422	280,719	-0,064	0,085
-675,408	301,988	-0,075	-0,104
-674,393	800,000	0,022	-0,052
-673,378	-63,287	-0,092	-0,028
-672,364	800,000	-0,049	-0,120
-671,349	47,415	-0,069	0,048
-670,335	800,000	0,025	0,067
-669,320	466,244	-0,052	0,088
-668,305	-200,000	-0,003	-0,028
-667,291	67,911	-0,139	-0,106
-666,276	-200,000	-0,022	-0,078
-665,262	-176,952	-0,160	-0,003
-664,247	-200,000	0,004	0,062
-663,232	-97,706	-0,049	-0,009
-662,218	-200,000	0,009	0,090
-661,203	-84,797	0,104	0,024
-660,189	156,385	0,052	-0,053
-659,174	-164,283	-0,119	0,004
-658,159	-78,356	0,056	0,014
-657,145	702,120	0,003	-0,005
-656,130	-93,724	0,087	-0,018
-655,116	-9,759	-0,062	0,031
-654,101	-200,000	0,032	0,185
-653,086	213,998	-0,028	-0,032
-652,072	65,840	-0,079	-0,059
-651,057	-130,695	-0,221	-0,022
-650,043	800,000	-0,066	-0,189
-649,028	-200,000	0,000	-0,043
-648,014	-146,764	0,200	-0,013
-646,999	54,205	0,019	-0,013
-645,984	-41,330	-0,176	0,067
-644,970	800,000	-0,081	-0,169
-643,955	186,715	-0,039	0,043
-642,941	58,882	0,121	-0,088
-641,926	203,038	-0,110	-0,127
-640,911	-200,000	0,001	0,011
-639,897	281,257	0,024	-0,031
-638,882	-200,000	-0,005	-0,034
-637,868	800,000	0,028	-0,069
-636,853	-136,710	-0,127	-0,011
-635,838	525,744	-0,123	-0,215
-634,824	24,921	-0,026	-0,016
-633,809	-121,971	0,051	0,006
-632,795	800,000	0,078	0,167
-631,780	-200,000	-0,019	0,096
-630,765	-7,781	-0,110	0,055
-629,751	208,957	0,038	0,044
-628,736	-116,575	0,012	-0,002
-627,722	-200,000	-0,002	-0,106
-626,707	-200,000	-0,023	-0,099
-625,692	-109,927	0,102	-0,016
-624,678	800,000	0,032	0,071
-623,663	-72,388	0,106	-0,029
-622,649	-24,699	-0,112	-0,049
-621,634	-200,000	0,007	-0,031
-620,619	-67,496	0,152	0,044
-619,605	592,368	-0,066	-0,122
-618,590	-117,411	-0,052	0,007
-617,576	450,663	-0,142	0,234
-616,561	-57,193	-0,055	0,018
-615,546	-138,905	0,003	0,000
-614,532	446,098	-0,025	0,041
-613,517	753,870	0,064	-0,129
-612,503	565,278	-0,074	-0,134
-611,488	-67,556	0,191	0,055
-610,474	111,707	-0,123	0,110
-609,459	-200,000	0,038	-0,168
-608,444	-200,000	-0,004	0,067
-607,430	-89,175	0,118	-0,026
-606,415	800,000	-0,056	-0,141
-605,401	51,766	0,082	-0,058
-604,386	43,149	0,053	0,036
-603,371	493,994	-0,009	-0,015
-602,357	97,710	0,043	-0,037
-601,342	-200,000	0,015	0,083
-600,328	249,951	0,092	0,116
-599,313	481,416	-0,038	0,064
-598,298	97,987	-0,044	-0,037
-597,284	267,046	0,025	0,033
-596,269	147,926	0,073	0,073
-595,255	118,921	-0,148	0,136
-594,240	-169,095	0,196	-0,005
-593,225	103,342	-0,043	-0,038
-592,211	-200,000	-0,038	-0,186
-591,196	-200,000	0,001	0,027
-590,182	-47,143	-0,024	-0,009
-589,167	-21,214	0,069	-0,031
-588,152	304,792	-0,030	-0,042
-587,138	160,747	0,064	0,066
-586,123	289,706	-0,056	0,075
-585,109	-68,096	0,058	-0,017
-584,094	413,928	-0,038	0,060
-583,079	800,000	0,028	0,079
-582,065	-83,916	0,074	0,017
-581,050	76,827	-0,028	0,022
-580,036	-59,365	-0,048	0,015
-579,021	2,357	-0,056	-0,030
-578,006	-200,000	0,017	-0,060
-576,992	-96,004	0,031	-0,006
-575,977	-79,847	0,089	-0,022
-574,963	105,519	-0,067	-0,059
-573,948	-57,516	-0,095	-0,031
-572,934	127,113	-0,069	-0,065
-571,919	421,368	-0,067	-0,106
-570,904	-200,000	-0,004	-0,067
-569,890	-120,195	0,061	-0,008
-568,875	-111,523	0,173	0,026
-567,861	-11,284	-0,079	-0,038
-566,846	34,167	0,043	-0,028
-565,831	-37,514	0,052	-0,021
-564,817	-200,000	-0,006	-0,155
-563,802	800,000	-0,039	-0,108
-562,788	-165,914	0,052	-0,002
-561,773	-200,000	-0,011	0,062
-560,758	798,847	-0,048	-0,099
-559,744	196,568	-0,084	0,094
-558,729	-166,877	0,066	0,002
-557,715	800,000	-0,022	-0,048
-556,700	4,974	-0,116	-0,063
-555,685	800,000	0,010	0,023
-554,671	800,000	-0,032	0,087
-553,656	-15,380	0,030	0,014
-552,642	-68,357	0,053	0,015
-551,627	-28,113	0,062	0,026
-550,612	800,000	-0,028	-0,059
-549,598	-99,007	-0,105	0,019
-548,583	410,896	0,078	-0,123
-547,569	106,721	-0,031	0,027
-546,554	261,743	0,113	0,145
-545,539	392,752	0,040	0,062
-544,525	800,000	0,005	0,014
-543,510	357,951	-0,031	0,046
-542,496	-200,000	-0,019	-0,071
-541,481	-200,000	-0,027	-0,094
-540,466	-200,000	0,012	-0,071
-539,452	-200,000	-0,017	0,101
-538,437	-53,203	0,256	0,086
-537,423	-79,598	-0,162	0,040
-536,408	129,713	0,068	-0,065
-535,393	-7,171	0,113	-0,056
-534,379	-143,839	0,060	-0,004
-533,364	240,493	-0,042	-0,052
-532,350	800,000	0,013	-0,033
-531,335	549,009	-0,035	0,062
-530,321	562,736	0,055	0,099
-529,306	-194,003	-0,021	-0,000
-528,291	-200,000	-0,011	0,109
-527,277	-200,000	-0,004	-0,114
-526,262	-200,000	-0,003	0,194
-525,248	-200,000	-0,009	0,036
-524,233	-5,989	0,087	0,044
-523,218	143,053	0,076	-0,075
-522,204	-118,359	-0,039	-0,005
-521,189	-15,469	0,097	-0,046
-520,175	800,000	-0,034	0,070
-519,160	313,439	-0,032	-0,044
-518,145	178,573	0,028	-0,030
-517,131	800,000	-0,009	0,021
-516,116	800,000	0,032	0,093
-515,102	541,861	0,050	0,088
-514,087	109,735	-0,080	-0,071
-513,072	-139,139	-0,166	0,013
-512,058	16,714	-0,075	-0,044
-511,043	-200,000	-0,009	-0,043
-510,029	4,657	0,073	0,039
-509,014	-162,539	0,036	0,001
-507,999	-200,000	-0,038	0,144
-506,985	164,312	-0,109	0,113
-505,970	-200,000	-0,007	-0,125
-504,956	-200,000	-0,002	-0,027
-503,941	-200,000	-0,012	-0,047
-502,926	-200,000	-0,004	0,096
-501,912	-118,956	0,029	0,004
-500,897	241,641	-0,044	0,054
-499,883	179,973	-0,041	0,044
-498,868	-34,414	0,097	0,039
-497,853	-96,021	0,084	0,016
-496,839	-105,706	0,084	-0,014
-495,824	-144,547	0,138	0,009
-494,810	-200,000	0,015	0,155
-493,795	-106,607	0,063	-0,010
-492,781	16,815	0,052	-0,031
-491,766	-200,000	-0,005	-0,051
-490,751	34,293	-0,115	0,074
-489,737	-4,419	0,156	-0,079
-488,722	544,785	0,020	-0,036
-487,708	96,702	0,068	-0,057
-486,693	51,333	0,094	0,066
-485,678	-200,000	-0,003	-0,083
-484,664	22,744	-0,055	0,033
-483,649	-62,977	-0,206	-0,062
-482,635	-45,018	0,022	-0,008
-481,620	197,900	0,065	0,074
-480,605	-80,594	0,110	-0,027
-479,591	15,390	0,069	-0,040
-478,576	-200,000	-0,018	-0,118
-477,562	-200,000	-0,026	0,115
-476,547	26,269	-0,078	0,048
-475,532	-51,012	-0,057	-0,020
-474,518	-200,000	-0,010	-0,056
-473,503	40,033	-0,175	-0,116
-472,489	-200,000	-0,002	0,183
-471,474	-36,930	-0,148	0,058
-470,459	273,494	0,086	-0,112
-469,445	-200,000	-0,027	-0,096
-468,430	457,584	-0,062	-0,102
-467,416	271,541	0,083	0,108
-466,401	-200,000	-0,029	0,124
-465,386	133,731	0,053	0,050
-464,372	-164,665	0,135	0,004
-463,357	-63,495	-0,049	-0,015
-462,343	-139,537	-0,051	0,004
-461,328	-90,996	0,041	-0,009
-460,313	340,133	-0,066	-0,095
-459,299	-152,290	-0,064	-0,003
-458,284	-182,219	0,144	0,002
-457,270	800,000	0,008	-0,019
-456,255	800,000	0,041	-0,084
-455,241	800,000	-0,056	-0,156
-454,226	-40,042	0,037	0,014
-453,211	502,016	0,043	-0,074
-452,197	-103,826	0,125	0,021
-451,182	48,970	0,049	0,034
-450,168	-200,000	-0,026	0,088
-449,153	-127,359	-0,015	-0,002
-448,138	40,850	-0,119	0,079
-447,124	-75,527	-0,069	0,018
-446,109	-200,000	0,005	0,166
-445,095	-117,752	0,131	-0,017
-444,080	-71,448	0,063	0,017
-443,065	1,070	-0,095	-0,050
-442,051	329,471	0,053	-0,075
-441,036	84,250	0,061	-0,049
-440,022	-80,281	0,122	-0,030
-439,007	329,827	-0,056	-0,080
-437,992	-20,107	0,094	0,043
-436,978	127,015	0,188	0,176
-435,963	67,787	0,077	0,058
-434,949	406,411	-0,037	0,057
-433,934	-200,000	0,026	-0,105
-432,919	-200,000	-0,020	0,085
-431,905	-98,799	-0,092	0,017
-430,890	-200,000	-0,012	0,054
-429,876	-88,142	0,136	0,030
-428,861	-200,000	0,008	0,117
-427,846	-200,000	0,013	0,190
-426,832	-43,463	-0,034	0,013
-425,817	-200,000	0,010	-0,078
-424,803	-200,000	0,020	0,149
-423,788	-200,000	0,000	-0,077
-422,773	51,507	-0,034	0,024
-421,759	-85,123	0,095	-0,022
-420,744	800,000	-0,036	-0,079
-419,730	95,667	-0,032	-0,026
-418,715	-156,300	-0,060	0,003
-417,701	-200,000	-0,002	-0,118
-416,686	800,000	0,030	0,066
-415,671	164,564	0,137	0,142
-414,657	-110,078	-0,053	0,008
-413,642	-61,849	-0,115	0,035
-412,628	-48,524	0,060	-0,021
-411,613	800,000	0,012	-0,026
-410,598	99,262	-0,132	0,112
-409,584	-9,477	-0,105	0,052
-408,569	190,757	-0,086	0,095
-407,555	-200,000	-0,020	0,154
-406,540	-48,124	-0,108	0,038
-405,525	-200,000	0,010	-0,097
-404,511	-200,000	0,008	-0,095
-403,496	-73,633	-0,013	-0,003
-402,482	118,996	-0,008	0,007
-401,467	725,961	-0,029	-0,056
-400,452	108,628	-0,141	0,123
-399,438	-22,236	-0,087	-0,038
-398,423	90,479	0,047	-0,038
-397,409	-200,000	-0,010	-0,127
-396,394	-200,000	0,004	-0,016
-395,379	-100,544	0,157	-0,028
-394,365	-9,161	0,173	0,085
-393,350	386,328	-0,016	0,024
-392,336	800,000	0,028	0,070
-391,321	95,390	0,043	0,036
-390,306	67,290	0,070	-0,052
-389,292	800,000	0,060	0,133
-388,277	-200,000	-0,014	-0,120
-387,263	-200,000	-0,016	-0,072
-386,248	-151,835	0,055	0,003
-385,233	-200,000	0,005	0,016
-384,219	723,077	-0,052	-0,102
-383,204	-200,000	0,030	-0,121
-382,190	-200,000	-0,004	-0,110
-381,175	800,000	-0,028	-0,084
-380,160	-60,048	0,153	0,048
-379,146	728,351	-0,038	0,074
-378,131	-200,000	0,009	0,066
-377,117	637,221	-0,014	-0,026
-376,102	-7,936	0,067	-0,033
-375,088	-200,000	-0,026	-0,184
-374,073	579,325	-0,059	-0,106
-373,058	100,883	-0,094	0,080
-372,044	800,000	0,049	0,153
-371,029	462,006	-0,014	-0,023
-370,015	-83,925	0,068	0,016
-369,000	-200,000	0,018	0,081
-367,985	-124,565	-0,155	0,018
-366,971	800,000	-0,032	-0,074
-365,956	-200,000	0,008	0,040
-364,942	-34,103	-0,053	0,021
-363,927	19,350	0,072	0,042
-362,912	324,546	-0,049	-0,069
-361,898	-87,568	-0,170	-0,037
-360,883	800,000	0,053	-0,160
-359,869	800,000	-0,047	-0,099
-358,854	242,931	-0,072	-0,089
-357,839	800,000	-0,089	-0,211
-356,825	-200,000	0,059	-0,195
-355,810	180,315	-0,049	-0,053
-354,796	800,000	-0,043	-0,131
-353,781	-200,000	0,009	0,116
-352,766	78,395	0,110	0,086
-351,752	-33,619	0,078	0,032
-350,737	365,907	0,042	-0,063
-349,723	-14,602	0,101	0,048
-348,708	372,325	0,110	-0,164
-347,693	-2,483	0,063	-0,032
-346,679	-200,000	-0,041	-0,155
-345,664	266,756	-0,036	-0,047
-344,650	800,000	0,034	0,086
-343,635	-22,691	-0,046	0,021
-342,620	132,102	-0,073	-0,069
-341,606	-200,000	-0,006	-0,023
-340,591	158,776	-0,120	-0,123
-339,577	30,839	-0,069	-0,043
-338,562	-200,000	0,010	-0,090
-337,548	-200,000	-0,007	-0,054
-336,533	257,757	0,017	0,022
-335,518	471,676	-0,087	0,144
-334,504	-125,469	0,167	0,018
-333,489	-1,713	0,050	0,026
-332,475	165,504	-0,028	0,029
-331,460	82,541	-0,132	-0,105
-330,445	-2,820	-0,033	0,017
-329,431	-165,324	-0,093	0,003
-328,416	13,740	0,108	-0,061
-327,402	182,722	0,036	0,039
-326,387	-87,735	-0,093	-0,020
-325,372	74,281	-0,115	0,088
-324,358	-200,000	0,004	-0,051
-323,343	-184,711	-0,086	0,001
-322,329	-200,000	-0,006	0,124
-321,314	-200,000	0,021	-0,069
-320,299	376,614	-0,008	-0,012
-319,285	-200,000	0,028	0,105
-318,270	2,003	-0,073	-0,039
-317,256	389,075	-0,041	0,062
-316,241	-200,000	0,008	0,087
-315,226	17,595	0,121	-0,070
-314,212	-200,000	0,021	0,125
-313,197	-2,865	0,025	0,013
-312,183	45,531	0,092	0,062
-311,168	-200,000	-0,002	-0,032
-310,153	-101,564	-0,059	-0,010
-309,139	-200,000	-0,004	-0,113
-308,124	-200,000	-0,049	0,222
-307,110	-200,000	0,006	0,132
-306,095	37,708	-0,132	0,085
-305,080	222,673	0,066	0,078
-304,066	-200,000	0,043	0,142
-303,051	800,000	0,033	-0,080
-302,037	800,000	-0,034	-0,108
-301,022	296,371	-0,121	-0,163
-300,008	202,580	0,085	-0,096
-298,993	800,000	-0,049	0,102
-297,978	200,589	0,073	0,082
-296,964	-147,468	-0,115	0,007
-295,949	-200,000	-0,011	0,112
-294,935	800,000	-0,045	0,126
-293,920	160,216	0,059	0,060
-292,905	-175,869	-0,141	-0,003
-291,891	-200,000	-0,021	0,085
-290,876	-53,257	0,076	-0,025
-289,862	800,000	-0,018	0,041
-288,847	800,000	-0,014	-0,031
-287,832	800,000	0,021	0,047
-286,818	329,451	0,034	0,048
-285,803	-200,000	-0,005	-0,030
-284,789	762,169	0,068	0,136
-283,774	-200,000	-0,018	0,131
-282,759	52,516	-0,096	-0,067
-281,745	-200,000	-0,021	-0,215
-280,730	-96,885	-0,080	-0,015
-279,716	-200,000	-0,019	0,106
-278,701	38,979	-0,138	0,090
-277,686	-123,078	-0,032	-0,004
-276,672	-22,221	-0,118	0,052
-275,657	-95,978	0,092	0,018
-274,643	264,535	-0,074	0,094
-273,628	800,000	-0,031	-0,063
-272,613	800,000	-0,028	-0,077
-271,599	-128,796	-0,089	-0,009
-270,584	409,268	-0,003	-0,005
-269,570	274,521	-0,033	-0,042
-268,555	-129,802	0,021	-0,002
-267,540	224,307	-0,069	-0,081
-266,526	158,992	0,034	-0,035
-265,511	155,058	-0,078	0,079
-264,497	92,387	0,096	0,079
-263,482	-200,000	-0,006	0,170
-262,467	-200,000	-0,038	0,141
-261,453	800,000	-0,069	0,168
-260,438	-65,541	0,020	-0,006
-259,424	578,813	0,081	0,146
-258,409	-200,000	0,002	0,013
-257,395	-200,000	-0,041	-0,223
-256,380	-20,872	-0,073	0,033
-255,365	28,630	0,168	-0,104
-254,351	63,960	0,089	0,065
-253,336	268,675	-0,126	-0,162
-252,322	167,830	-0,062	-0,064
-251,307	-75,731	0,085	-0,022
-250,292	622,404	0,089	0,164
-249,278	473,763	-0,057	0,095
-248,263	76,124	0,152	-0,117
-247,249	800,000	0,018	-0,051
-246,234	64,954	0,029	0,022
-245,219	-145,412	-0,046	0,003
-244,205	-200,000	-0,030	-0,099
-243,190	-49,823	0,081	0,028
-242,176	-122,317	0,095	-0,011
-241,161	800,000	-0,043	0,104
-240,146	191,033	0,051	0,056
-239,132	9,696	-0,098	-0,054
-238,117	137,763	-0,111	-0,106
-237,103	800,000	-0,046	-0,108
-236,088	-76,301	-0,094	-0,024
-235,073	-200,000	-0,006	0,079
-234,059	119,275	-0,122	0,110
-233,044	800,000	0,033	0,068
-232,030	312,655	-0,082	0,113
-231,015	-105,587	-0,086	0,014
-230,000	214,411	-0,006	0,007
-228,986	123,186	0,130	-0,119
-227,971	341,843	-0,032	0,046
-226,957	-200,000	0,008	-0,060
-225,942	800,000	-0,047	-0,102
-224,927	132,103	-0,050	0,047
-223,913	609,389	0,020	-0,036
-222,898	-129,506	-0,099	-0,010
-221,884	-200,000	-0,038	0,134
-220,869	-200,000	-0,018	-0,071
-219,855	-116,882	0,123	0,016
-218,840	394,695	0,032	0,049
-217,825	-37,196	-0,036	0,014
-216,811	-200,000	-0,011	-0,091
-215,796	-39,128	-0,112	0,043
-214,782	101,549	-0,064	0,054
-213,767	800,000	0,051	-0,123
-212,752	181,952	-0,061	0,065
-211,738	-104,149	0,236	0,040
-210,723	-200,000	0,003	0,034
-209,709	-200,000	-0,022	-0,086
-208,694	-147,511	-0,043	-0,003
-207,679	-200,000	0,017	-0,114
-206,665	-124,500	0,108	-0,012
-205,650	-200,000	0,013	-0,095
-204,636	597,711	0,047	0,085
-203,621	128,656	-0,052	-0,048
-202,606	262,743	0,029	-0,037
-201,592	-103,546	-0,063	-0,011
-200,577	-139,894	0,118	-0,009
-199,563	-200,000	0,029	-0,125
-198,548	490,956	-0,017	0,029
-197,533	-200,000	-0,001	-0,046
-196,519	-83,141	0,104	-0,024
-195,504	85,185	-0,088	-0,071
-194,490	800,000	0,017	0,035
-193,475	-200,000	-0,011	-0,111
-192,460	256,086	0,032	-0,040
-191,446	52,495	0,178	-0,124
-190,431	136,015	0,070	-0,066
-189,417	449,290	0,042	0,067
-188,402	363,589	0,028	0,040
-187,387	337,877	0,061	0,087
-186,373	-106,212	-0,059	0,010
-185,358	39,083	0,038	0,024
-184,344	36,216	0,090	-0,058
-183,329	-64,006	0,106	-0,032
-182,315	-200,000	-0,010	-0,039
-181,300	-27,489	-0,080	-0,034
-180,285	-200,000	-0,162	0,001
-179,271	-26,336	0,110	-0,047
-178,256	128,837	0,112	0,104
-177,242	-200,000	0,024	0,152
-176,227	-74,036	-0,032	0,008
-175,212	-111,815	-0,040	-0,006
-174,198	-13,211	-0,040	0,019
-173,183	800,000	-0,044	-0,109
-172,169	-157,266	-0,095	-0,004
-171,154	173,088	-0,038	-0,040
-170,139	-50,814	-0,103	-0,035
-169,125	583,549	-0,038	-0,069
-168,110	43,843	0,103	0,068
-167,096	405,906	-0,078	0,120
-166,081	-200,000	-0,007	-0,074
-165,066	694,848	0,041	0,078
-164,052	291,982	0,037	-0,049
-163,037	-200,000	-0,006	0,044
-162,023	-200,000	-0,003	0,086
-161,008	-136,932	-0,093	-0,008
-159,993	-119,951	0,050	-0,006
-158,979	52,891	0,077	0,054
-157,964	6,718	0,051	-0,028
-156,950	144,048	-0,084	-0,081
-155,935	235,785	-0,077	0,093
-154,920	-200,000	-0,049	0,233
-153,906	800,000	0,053	0,135
-152,891	240,637	0,070	-0,085
-151,877	-92,096	-0,035	-0,007
-150,862	5,668	0,014	-0,007
-149,847	-200,000	0,002	-0,061
-148,833	-200,000	-0,015	-0,056
-147,818	-70,955	0,050	-0,014
-146,804	-200,000	-0,005	-0,061
-145,789	46,360	-0,071	-0,048
-144,775	-200,000	-0,022	-0,151
-143,760	-200,000	0,025	-0,082
-142,745	168,623	0,049	-0,051
-141,731	-126,013	-0,066	-0,007
-140,716	80,069	-0,069	-0,054
-139,702	-200,000	-0,005	0,053
-138,687	-200,000	-0,012	-0,108
-137,672	-200,000	-0,005	0,176
-136,658	-18,510	-0,091	-0,041
-135,643	295,240	0,033	0,044
-134,629	-200,000	0,012	0,076
-133,614	-200,000	0,005	-0,067
-132,599	-200,000	0,015	0,078
-131,585	-138,728	0,154	-0,012
-130,570	130,351	0,068	-0,063
-129,556	243,552	-0,050	0,061
-128,541	800,000	-0,047	0,128
-127,526	524,322	0,040	-0,070
-126,512	361,094	0,064	0,094
-125,497	-200,000	-0,010	0,042
-124,483	155,925	0,115	0,115
-123,468	109,902	0,070	-0,061
-122,453	37,023	-0,224	0,144
-121,439	-73,731	0,050	0,013
-120,424	800,000	-0,042	0,103
-119,410	-200,000	0,004	-0,043
-118,395	403,603	-0,085	0,131
-117,380	800,000	0,068	0,181
-116,366	-200,000	-0,019	0,151
-115,351	38,099	-0,121	0,078
-114,337	-200,000	0,015	-0,131
-113,322	-16,921	-0,021	0,009
-112,307	3,623	0,039	0,021
-111,293	-200,000	-0,005	0,018
-110,278	-200,000	0,019	0,152
-109,264	800,000	0,096	0,250
-108,249	-28,393	0,061	0,025
-107,234	-200,000	-0,007	0,057
-106,220	-200,000	-0,010	-0,137
-105,205	110,469	-0,088	-0,077
-104,191	81,674	0,152	0,119
-103,176	800,000	0,041	0,102
-102,162	800,000	-0,034	-0,088
-101,147	800,000	0,029	-0,085
-100,132	160,884	-0,036	-0,036
-99,118	-46,560	-0,030	-0,010
-98,103	-200,000	0,020	0,121
-97,089	16,032	-0,035	0,020
-96,074	-63,743	0,080	-0,024
-95,059	716,849	0,056	0,108
-94,045	62,865	0,039	-0,028
-93,030	-200,000	0,008	-0,091
-92,016	-200,000	-0,001	-0,021
-91,001	-200,000	0,000	0,035
-89,986	229,933	0,032	0,038
-88,972	-200,000	-0,000	0,077
-87,957	-45,104	-0,101	-0,036
-86,943	722,313	0,038	0,073
-85,928	-60,328	0,085	-0,026
-84,913	245,538	0,097	-0,119
-83,899	288,981	0,042	0,056
-82,884	-7,042	0,132	0,065
-81,870	-200,000	-0,019	0,198
-80,855	800,000	0,061	0,131
-79,840	-31,062	-0,056	0,023
-78,826	631,531	-0,037	0,068
-77,811	-59,919	-0,040	0,012
-76,797	-120,535	-0,153	0,019
-75,782	-200,000	0,007	0,048
-74,767	201,226	0,070	0,078
-73,753	270,832	-0,055	0,071
-72,738	-200,000	-0,010	-0,143
-71,724	-35,406	0,089	-0,035
-70,709	-200,000	-0,016	-0,066
-69,694	151,118	-0,061	-0,061
-68,680	800,000	-0,025	-0,062
-67,665	-131,772	0,190	-0,018
-66,651	-8,172	-0,060	0,029
-65,636	-34,841	-0,140	-0,055
-64,622	-149,492	-0,120	-0,007
-63,607	-80,426	-0,124	0,030
-62,592	185,317	-0,030	0,032
-61,578	-38,501	-0,072	0,027
-60,563	115,667	-0,122	0,108
-59,549	-15,464	0,128	-0,059
-58,534	-131,466	-1,423	-0,135
-57,519	634,415	-0,801	-1,481
-56,505	-200,000	-0,901	-4,402
-55,490	2,471	0,661	-0,346
-54,476	800,000	4,872	11,906
-53,461	-200,000	13,523	253,584
-52,446	-200,000	689,275	2268,382
-51,432	595,156	1623,005	2925,327
-50,417	120,736	1636,294	1475,612
-49,403	73,546	1290,121	979,057
-48,388	38,420	1024,881	661,203
-47,373	24,499	982,471	588,060
-46,359	23,765	972,066	579,400
-45,344	22,734	968,043	573,609
-44,330	22,678	966,638	572,571
-43,315	22,576	965,245	571,390
-42,300	22,617	964,034	570,785
-41,286	22,604	963,148	570,196
-40,271	22,535	962,190	569,381
-39,257	22,509	961,468	568,848
-38,242	22,603	960,114	568,329
-37,227	22,535	959,418	567,674
-36,213	22,558	958,548	567,212
-35,198	22,482	957,823	566,513
-34,184	22,597	956,973	566,360
-33,169	22,567	956,309	565,847
-32,154	22,657	955,279	565,505
-31,140	22,633	954,252	564,798
-30,125	22,655	953,437	564,365
-29,111	22,562	952,770	563,649
-28,096	22,579	952,190	563,337
-27,082	22,563	951,503	562,855
-26,067	22,586	950,659	562,409
-25,052	22,653	949,946	562,180
-24,038	22,609	949,254	561,605
-23,023	22,578	948,589	561,092
-22,009	22,668	947,845	560,918
-20,994	22,606	947,439	560,458
-19,979	22,647	946,659	560,102
-18,965	22,598	946,128	559,611
-17,950	22,662	945,354	559,334
-16,936	22,580	944,832	558,742
-15,921	22,571	944,115	558,269
-14,906	22,523	943,335	557,633
-13,892	22,537	942,700	557,279
-12,877	22,403	942,382	556,642
-11,863	22,499	941,422	556,359
-10,848	22,470	941,102	556,055
-9,833	22,555	940,483	555,937
-8,819	22,542	939,942	555,552
-7,804	22,471	939,332	554,945
-6,790	22,501	938,478	554,514
-5,775	22,518	938,030	554,283
-4,760	22,525	937,379	553,895
-3,746	22,399	936,935	553,214
-2,731	22,341	936,115	552,526
-1,717	22,270	935,458	551,892
-0,702	22,365	934,819	551,793
0,313	22,115	934,028	551,370
1,327	25,152	932,149	559,765
2,342	34,703	796,715	503,885
3,356	32,787	451,884	282,883
4,371	1,824	293,618	152,943
5,386	-2,753	274,382	138,585
6,400	-4,070	268,649	134,457
7,415	-4,225	266,322	133,138
8,429	-4,099	265,027	132,594
9,444	-4,119	264,294	132,197
10,459	-4,222	263,674	131,781
11,473	-4,344	263,101	131,373
12,488	-4,305	262,505	131,099
13,502	-4,388	261,842	130,682
14,517	-4,431	261,558	130,489
15,531	-4,353	261,150	130,345
16,546	-4,199	260,687	130,240
17,561	-4,334	260,350	129,939
18,575	-4,238	260,116	129,896
19,590	-4,362	259,750	129,591
20,604	-4,249	259,553	129,582
21,619	-4,386	259,086	129,216
22,634	-4,348	258,864	129,127
23,648	-4,475	258,527	128,834
24,663	-4,415	258,257	128,742
25,677	-4,532	258,006	128,501
26,692	-4,478	257,797	128,433
27,707	-4,385	257,537	128,375
28,721	-4,595	257,211	128,015
29,736	-4,510	257,119	128,033
30,750	-4,756	256,780	127,636
31,765	-4,382	256,463	127,797
32,780	-4,533	256,263	127,552
33,794	-4,440	256,023	127,503
34,809	-4,525	255,833	127,323
35,823	-4,536	255,500	127,135
36,838	-4,567	255,391	127,043
37,853	-4,569	255,056	126,864
38,867	-4,492	254,763	126,774
39,882	-4,447	254,584	126,713
40,896	-4,586	254,548	126,562
41,911	-4,458	254,112	126,445
42,926	-4,841	253,913	126,001
43,940	-4,731	253,736	125,998
44,955	-4,670	253,555	125,950
45,969	-4,519	253,144	125,866
46,984	-4,965	253,142	125,465
47,999	-4,914	252,694	125,276
49,013	-5,010	252,456	125,064
50,028	-5,145	252,309	124,863
51,042	-5,283	251,890	124,525
52,057	-5,173	251,716	124,523
53,071	-5,190	251,548	124,414
54,086	-5,159	251,428	124,370
55,101	-5,031	251,234	124,374
56,115	-4,682	251,050	124,573
57,130	-4,484	250,886	124,651
58,144	-4,016	250,775	124,988
59,159	-4,368	250,727	124,650
60,174	-4,266	250,393	124,560
61,188	-4,312	250,139	124,383
62,203	-4,399	249,960	124,209
63,217	-4,336	249,721	124,132
64,232	-4,482	249,617	123,945
65,247	-4,057	249,266	124,123
66,261	-4,375	249,199	123,807
67,276	-4,487	248,916	123,560
68,290	-4,654	248,613	123,256
69,305	-4,694	248,364	123,087
70,320	-4,761	248,216	122,946
71,334	-4,536	248,091	123,064
72,349	-4,434	248,004	123,097
73,363	-4,342	247,844	123,085
74,378	-4,283	247,596	123,001
75,393	-4,425	247,337	122,741
76,407	-4,344	247,156	122,708
77,422	-4,385	246,946	122,559
78,436	-4,261	246,786	122,573
79,451	-4,265	246,663	122,498
80,466	-4,462	246,341	122,160
81,480	-4,682	246,207	121,898
82,495	-4,684	245,925	121,745
83,509	-4,346	245,583	121,850
84,524	-4,558	245,378	121,559
85,539	-4,583	245,276	121,476
86,553	-4,619	245,026	121,312
87,568	-4,610	245,034	121,312
88,582	-4,532	244,770	121,237
89,597	-4,668	244,495	120,975
90,611	-4,443	244,447	121,129
91,626	-4,387	244,142	121,014
92,641	-4,614	244,219	120,852
93,655	-4,486	243,907	120,793
94,670	-4,430	243,676	120,715
95,684	-4,434	243,566	120,646
96,699	-4,679	243,414	120,356
97,714	-4,725	243,161	120,181
98,728	-4,600	242,894	120,143
99,743	-4,823	242,678	119,841
100,757	-4,797	242,489	119,757
101,772	-4,741	242,316	119,708
102,787	-4,571	242,064	119,714
103,801	-4,634	241,918	119,579
104,816	-4,695	241,927	119,522
105,830	-4,383	241,743	119,679
106,845	-4,349	241,608	119,629
107,860	-4,372	241,275	119,435
108,874	-4,826	241,382	119,102
109,889	-4,447	240,871	119,151
110,903	-4,667	240,757	118,903
111,918	-4,551	240,627	118,924
112,933	-4,710	240,634	118,786
113,947	-4,302	240,382	118,986
114,962	-4,430	240,214	118,788
115,976	-4,468	239,964	118,622
116,991	-4,521	239,743	118,459
118,006	-4,434	239,715	118,506
119,020	-4,417	239,541	118,423
120,035	-4,228	239,300	118,448
121,049	-4,286	239,189	118,335
122,064	-4,437	239,102	118,158
123,079	-4,604	238,931	117,926
124,093	-4,595	238,621	117,771
125,108	-4,873	238,462	117,455
126,122	-4,836	238,168	117,330
127,137	-4,749	237,975	117,295
128,151	-4,590	237,720	117,288
129,166	-4,684	237,750	117,216
130,181	-4,757	237,460	117,003
131,195	-4,737	237,280	116,921
132,210	-4,583	237,100	116,946
133,224	-4,278	236,958	117,112
134,239	-4,395	236,865	116,962
135,254	-4,361	236,796	116,944
136,268	-4,458	236,416	116,668
137,283	-4,412	235,973	116,475
138,297	-4,983	236,016	116,027
139,312	-4,758	235,850	116,116
140,327	-4,637	235,634	116,097
141,341	-4,077	235,768	116,603
142,356	-3,989	235,517	116,539
143,370	-4,163	235,491	116,375
144,385	-4,095	235,326	116,338
145,400	-4,077	234,994	116,178
146,414	-4,101	234,877	116,091
147,429	-4,308	234,876	115,914
148,443	-4,211	234,664	115,877
149,458	-4,173	234,356	115,745
150,473	-4,191	234,274	115,680
151,487	-4,350	234,113	115,463
152,502	-4,232	233,849	115,417
153,516	-4,207	233,823	115,413
154,531	-4,070	233,479	115,342
155,546	-4,172	233,430	115,227
156,560	-4,204	233,293	115,123
157,575	-4,271	232,959	114,895
158,589	-4,418	232,994	114,785
159,604	-4,137	232,776	114,891
160,619	-3,803	232,386	114,952
161,633	-4,120	232,327	114,662
162,648	-3,999	232,276	114,722
163,662	-4,229	232,112	114,449
164,677	-4,078	231,814	114,411
165,692	-4,155	231,739	114,303
166,706	-4,134	231,528	114,205
167,721	-4,214	231,532	114,135
168,735	-3,935	231,379	114,268
169,750	-4,122	231,211	114,028
170,764	-3,944	230,976	114,042
171,779	-4,122	230,948	113,878
172,794	-3,917	230,841	113,976
173,808	-4,151	230,538	113,633
174,823	-4,845	230,401	113,011
175,837	-4,612	230,019	112,997
176,852	-4,134	229,922	113,312
177,867	-3,994	229,835	113,369
178,881	-4,111	229,812	113,256
179,896	-4,024	229,756	113,286
180,910	-3,981	229,547	113,206
181,925	-4,089	229,291	112,986
182,940	-4,106	229,282	112,958
183,954	-4,064	229,124	112,903
184,969	-4,106	229,013	112,806
185,983	-4,047	228,910	112,790
186,998	-4,103	228,586	112,578
188,013	-3,870	228,522	112,717
189,027	-3,880	228,289	112,584
190,042	-3,790	228,177	112,588
191,056	-3,784	227,920	112,456
192,071	-3,774	227,848	112,418
193,086	-3,736	227,631	112,330
194,100	-3,901	227,438	112,098
195,115	-4,276	227,280	111,721
196,129	-4,580	226,942	111,310
197,144	-2,090	227,775	113,633
198,159	1,255	228,740	116,695
199,173	3,832	229,325	118,979
200,188	4,213	229,318	119,260
201,202	4,244	229,166	119,195
202,217	4,407	229,078	119,264
203,232	4,575	228,943	119,313
204,246	4,404	228,844	119,119
205,261	4,744	228,485	119,183
206,275	4,895	228,442	119,266
207,290	5,020	228,373	119,316
208,304	4,734	228,182	118,986
209,319	4,613	228,091	118,835
210,334	4,868	227,886	118,912
211,348	4,469	227,607	118,451
212,363	4,083	227,255	117,961
213,377	3,942	227,268	117,849
214,392	4,022	226,996	117,759
215,407	3,927	226,856	117,603
216,421	3,838	226,916	117,556
217,436	3,825	226,607	117,375
218,450	3,672	226,222	117,049
219,465	3,798	226,164	117,105
220,480	3,694	225,936	116,896
221,494	3,850	225,853	116,962
222,509	4,125	225,760	117,113
223,523	3,913	225,667	116,893
224,538	3,726	225,637	116,725
225,553	3,884	225,431	116,727
226,567	4,125	225,143	116,751
227,582	4,178	225,320	116,872
228,596	4,306	225,124	116,858
229,611	3,817	224,839	116,329
230,626	3,799	224,597	116,179
231,640	3,713	224,616	116,114
232,655	4,043	224,504	116,295
233,669	4,600	224,378	116,640
234,684	4,758	224,149	116,630
235,699	4,194	224,092	116,165
236,713	4,009	223,864	115,896
237,728	3,992	223,516	115,693
238,742	3,617	223,501	115,394
239,757	3,975	223,247	115,521
240,772	4,120	223,030	115,507
241,786	3,764	223,049	115,239
242,801	3,970	223,054	115,386
243,815	4,171	222,896	115,445
244,830	4,042	222,781	115,278
245,844	4,100	222,404	115,116
246,859	3,954	222,362	114,976
247,874	4,208	222,243	115,093
248,888	4,317	222,115	115,098
249,903	4,099	221,852	114,789
250,917	3,931	221,804	114,629
251,932	3,790	221,699	114,459
252,947	3,805	221,426	114,319
253,961	3,676	221,320	114,159
254,976	3,876	221,071	114,168
255,990	3,952	221,068	114,213
257,005	4,123	220,991	114,289
258,020	4,230	220,745	114,232
259,034	4,410	220,654	114,308
260,049	4,194	220,615	114,118
261,063	4,056	220,415	113,901
262,078	4,366	220,134	113,975
263,093	4,283	220,169	113,922
264,107	4,248	219,973	113,784
265,122	4,200	219,942	113,723
266,136	4,389	219,840	113,799
267,151	4,398	219,636	113,690
268,166	3,978	219,341	113,219
269,180	3,695	219,098	112,874
270,195	4,036	218,845	112,984
271,209	3,965	218,826	112,913
272,224	4,016	218,798	112,925
273,239	4,160	218,573	112,905
274,253	3,874	218,495	112,645
275,268	3,549	218,344	112,319
276,282	3,710	218,134	112,319
277,297	3,729	217,986	112,246
278,312	3,527	217,945	112,068
279,326	3,920	217,823	112,282
280,341	3,743	217,698	112,079
281,355	3,845	217,598	112,091
282,370	3,899	217,453	112,046
283,384	3,885	217,050	111,818
284,399	3,669	216,810	111,528
285,414	3,560	216,890	111,480
286,428	3,965	216,816	111,726
287,443	4,204	216,705	111,832
288,457	4,144	216,628	111,739
289,472	3,822	216,288	111,320
290,487	3,425	216,145	110,950
291,501	3,604	215,986	110,987
292,516	3,585	215,897	110,918
293,530	3,676	215,781	110,914
294,545	3,610	215,602	110,765
295,560	3,902	215,461	110,893
296,574	3,803	215,398	110,779
297,589	3,820	215,387	110,776
298,603	4,075	215,159	110,833
299,618	4,078	214,851	110,666
300,633	4,064	214,836	110,639
301,647	4,268	214,826	110,770
302,662	4,300	214,605	110,669
303,676	3,900	214,519	110,329
304,691	4,172	214,368	110,436
305,706	4,195	214,234	110,374
306,720	4,150	214,112	110,268
307,735	3,843	213,996	109,979
308,749	3,915	213,791	109,915
309,764	4,042	213,585	109,890
310,779	4,171	213,580	109,970
311,793	4,103	213,426	109,833
312,808	4,101	213,284	109,748
313,822	3,982	213,109	109,564
314,837	3,807	212,914	109,329
315,852	3,923	212,800	109,343
316,866	3,910	212,624	109,234
317,881	4,160	212,548	109,363
318,895	4,097	212,415	109,240
319,910	3,990	212,145	109,015
320,925	3,753	212,106	108,818
321,939	3,438	211,812	108,434
322,954	3,471	211,810	108,447
323,968	3,759	211,910	108,692
324,983	4,104	211,649	108,793
325,997	4,051	211,490	108,663
327,012	3,961	211,290	108,488
328,027	3,864	211,265	108,396
329,041	4,423	211,168	108,731
330,056	4,423	210,997	108,634
331,070	3,936	210,978	108,271
332,085	3,491	210,582	107,746
333,100	3,918	210,430	107,958
334,114	3,997	210,317	107,946
335,129	3,872	210,236	107,807
336,143	3,849	210,141	107,733
337,158	3,758	210,029	107,602
338,173	4,012	209,796	107,651
339,187	3,548	209,695	107,265
340,202	3,769	209,458	107,288
341,216	3,525	209,330	107,043
342,231	3,720	209,268	107,138
343,246	3,620	209,199	107,023
344,260	3,551	209,131	106,931
345,275	3,563	209,075	106,901
346,289	4,131	208,866	107,179
347,304	4,137	208,772	107,126
348,319	3,987	208,484	106,864
349,333	3,700	208,486	106,657
350,348	4,004	208,311	106,769
351,362	4,008	208,263	106,737
352,377	4,055	208,096	106,675
353,392	3,864	207,933	106,450
354,406	3,952	207,775	106,420
355,421	194,286	1349,178	1438,902
356,435	154,997	1488,353	1439,024
