DTS Sentinel unit serial number:	SN410029Multiplexer serial number:	ORYXHardware model number:	OX2-SRSoftware version number:	ORYX F/W v4,00 Oryx Data Collector v3.7.2.0data status	okinstallation	B6 Nyhavnadifferential loss correction	single-endedforward channel	channel 2reverse channel	N/Adate	2023/12/09time	03:10:08forward acquisition time	300,00reverse acquisition time	0,00gamma	499,1914k internal	0,3154k external	0,3154temperature offset calibration	1,0000default loss term (dB/km)	0,3820temperature slope calibration	1,0000multiplexer offset coefficient	1,0000multiplexer slope coefficient	1,0000fibre end	0,00T internal ref (°C)	16,21T ext. ref 1 (°C)	0,10T ext. ref 2 (°C)	0,09length (m)	temperature (°C)	Stokes	anti-Stokes-744,400	-166,602	0,129	0,004
-743,385	35,314	-0,198	0,128
-742,371	-40,713	0,156	0,059
-741,356	-84,843	-0,126	-0,029
-740,342	-93,947	0,134	0,027
-739,327	-161,297	-0,239	-0,009
-738,312	-200,000	0,003	-0,084
-737,298	-126,616	-0,440	0,047
-736,283	-133,651	-0,014	-0,001
-735,269	161,022	-0,170	0,175
-734,254	0,023	-0,132	-0,069
-733,239	10,085	-0,414	-0,231
-732,225	159,713	0,115	-0,118
-731,210	18,769	0,087	0,051
-730,196	800,000	0,009	-0,027
-729,181	-139,394	-0,093	-0,007
-728,167	-170,929	0,079	0,002
-727,152	-50,030	-0,064	0,022
-726,137	800,000	-0,015	0,036
-725,123	-200,000	-0,006	0,029
-724,108	-9,904	-0,127	0,062
-723,094	-14,338	0,042	0,020
-722,079	-200,000	-0,062	-0,222
-721,064	-61,031	0,040	0,012
-720,050	-131,190	-0,084	0,008
-719,035	-49,076	0,063	0,022
-718,021	-26,392	-0,150	-0,065
-717,006	-200,000	-0,015	-0,109
-715,991	209,648	-0,037	0,043
-714,977	-138,802	-0,161	-0,013
-713,962	178,140	0,039	-0,042
-712,948	-200,000	-0,022	0,078
-711,933	273,843	-0,030	0,040
-710,918	-200,000	0,006	-0,073
-709,904	227,952	0,067	-0,080
-708,889	11,756	-0,071	-0,040
-707,875	72,141	-0,034	0,026
-706,860	58,554	0,081	0,059
-705,845	-200,000	-0,007	0,035
-704,831	184,000	-0,062	0,068
-703,816	18,548	-0,077	-0,045
-702,802	-108,973	-0,103	0,016
-701,787	-48,002	-0,098	0,035
-700,772	-100,571	-0,151	-0,027
-699,758	-200,000	-0,019	-0,065
-698,743	486,491	-0,058	-0,098
-697,729	227,602	0,105	0,126
-696,714	-200,000	-0,008	0,034
-695,699	93,456	-0,073	-0,061
-694,685	273,171	0,100	-0,130
-693,670	-200,000	-0,053	-0,173
-692,656	-72,436	0,054	-0,015
-691,641	-200,000	-0,038	-0,131
-690,627	-197,169	-0,125	-0,001
-689,612	-200,000	-0,002	-0,035
-688,597	800,000	0,054	-0,127
-687,583	-200,000	-0,012	-0,080
-686,568	-200,000	-0,005	-0,079
-685,554	-86,740	-0,161	-0,036
-684,539	-24,931	0,064	-0,028
-683,524	250,161	-0,049	0,061
-682,510	318,910	0,011	0,015
-681,495	90,441	-0,153	0,126
-680,481	800,000	-0,018	0,054
-679,466	269,398	-0,040	0,052
-678,451	-29,303	-0,146	-0,061
-677,437	-200,000	-0,021	-0,087
-676,422	800,000	0,026	-0,063
-675,408	-200,000	0,009	0,060
-674,393	480,131	-0,045	-0,075
-673,378	-200,000	0,003	-0,115
-672,364	53,668	-0,051	-0,036
-671,349	-24,522	0,039	0,017
-670,335	-46,469	0,145	0,052
-669,320	7,591	-0,080	-0,044
-668,305	150,276	-0,089	-0,089
-667,291	-75,970	-0,023	0,006
-666,276	-200,000	-0,009	0,095
-665,262	-200,000	-0,001	-0,123
-664,247	-200,000	-0,011	-0,116
-663,232	-200,000	-0,030	-0,150
-662,218	18,701	0,160	0,094
-661,203	-77,668	-0,071	0,018
-660,189	338,883	0,069	0,098
-659,174	30,497	0,061	-0,038
-658,159	-98,593	-0,053	0,010
-657,145	396,815	-0,103	0,159
-656,130	24,611	-0,126	-0,076
-655,116	123,364	0,155	0,143
-654,101	-200,000	-0,010	0,050
-653,086	-111,481	-0,048	-0,007
-652,072	8,077	-0,138	-0,076
-651,057	158,901	-0,113	-0,116
-650,043	273,626	-0,031	-0,040
-649,028	-200,000	0,007	-0,054
-648,014	542,019	-0,056	0,098
-646,999	38,294	0,122	-0,080
-645,984	800,000	0,030	-0,082
-644,970	800,000	0,032	0,094
-643,955	-111,882	-0,153	0,023
-642,941	-200,000	0,018	-0,078
-641,926	107,613	-0,069	-0,060
-640,911	71,823	0,077	-0,059
-639,897	-84,812	0,123	0,028
-638,882	38,426	0,082	-0,054
-637,868	409,809	-0,052	-0,082
-636,853	528,020	-0,087	-0,151
-635,838	-102,883	0,025	0,004
-634,824	-200,000	-0,022	0,123
-633,809	-91,316	-0,192	0,040
-632,795	800,000	0,022	0,071
-631,780	-117,011	-0,043	-0,006
-630,765	-200,000	0,014	0,087
-629,751	-28,566	-0,165	0,070
-628,736	246,303	0,016	0,020
-627,722	-59,245	-0,126	-0,040
-626,707	86,535	-0,027	-0,022
-625,692	125,622	0,038	-0,035
-624,678	-200,000	-0,024	-0,123
-623,663	-103,120	-0,032	0,005
-622,649	-50,079	-0,079	0,027
-621,634	3,155	0,108	0,057
-620,619	-200,000	-0,001	0,046
-619,605	16,709	0,101	-0,059
-618,590	355,807	0,072	-0,106
-617,576	33,231	0,082	-0,052
-616,561	-200,000	-0,029	-0,134
-615,546	389,254	0,082	-0,126
-614,532	800,000	0,058	-0,125
-613,517	-200,000	0,011	-0,058
-612,503	-200,000	-0,012	-0,082
-611,488	467,265	0,071	-0,117
-610,474	800,000	0,015	-0,045
-609,459	-3,662	-0,107	-0,054
-608,444	569,011	-0,063	0,113
-607,430	-200,000	-0,021	-0,141
-606,415	73,165	-0,118	-0,091
-605,401	49,364	-0,090	0,062
-604,386	-41,257	-0,026	-0,010
-603,371	82,237	0,070	0,055
-602,357	-73,794	-0,093	-0,025
-601,342	-111,985	0,177	-0,026
-600,328	704,934	0,069	-0,134
-599,313	230,279	-0,063	-0,076
-598,298	-200,000	0,013	0,091
-597,284	-200,000	0,003	0,082
-596,269	348,998	-0,097	0,141
-595,255	-200,000	0,007	0,035
-594,240	-10,362	-0,090	-0,044
-593,225	-200,000	0,031	-0,129
-592,211	-200,000	0,009	-0,225
-591,196	-200,000	0,007	-0,038
-590,182	-23,316	0,116	0,051
-589,167	224,102	-0,047	0,056
-588,152	357,780	0,097	0,142
-587,138	298,641	-0,025	-0,033
-586,123	-105,601	-0,191	-0,031
-585,109	-200,000	-0,014	-0,087
-584,094	800,000	-0,064	-0,159
-583,079	-200,000	-0,019	0,118
-582,065	168,145	0,012	-0,013
-581,050	-22,583	0,106	-0,047
-580,036	59,090	-0,028	-0,020
-579,021	800,000	-0,083	-0,185
-578,006	-200,000	-0,032	-0,119
-576,992	-200,000	-0,014	0,048
-575,977	-123,469	0,105	0,012
-574,963	339,233	0,105	0,150
-573,948	248,076	0,061	-0,075
-572,934	166,800	-0,086	-0,090
-571,919	-200,000	0,008	-0,100
-570,904	332,649	-0,056	-0,080
-569,890	387,822	0,049	-0,074
-568,875	-94,237	0,091	-0,018
-567,861	211,598	0,015	0,017
-566,846	800,000	-0,031	0,080
-565,831	800,000	-0,026	-0,066
-564,817	-170,490	-0,064	0,002
-563,802	800,000	-0,025	-0,064
-562,788	119,064	0,073	-0,066
-561,773	800,000	-0,020	0,043
-560,758	351,584	0,057	0,083
-559,744	-200,000	-0,014	-0,060
-558,729	49,957	0,091	0,062
-557,715	800,000	0,020	-0,056
-556,700	37,900	-0,135	-0,088
-555,685	800,000	0,027	-0,063
-554,671	418,180	0,068	0,107
-553,656	-100,066	0,072	0,013
-552,642	800,000	0,041	0,131
-551,627	-30,494	0,066	-0,027
-550,612	338,384	-0,100	-0,142
-549,598	260,470	0,047	0,060
-548,583	800,000	-0,040	0,089
-547,569	-137,291	0,138	-0,011
-546,554	85,464	0,081	0,065
-545,539	37,133	0,055	0,035
-544,525	75,082	-0,061	0,047
-543,510	-200,000	0,000	-0,083
-542,496	508,241	-0,036	-0,062
-541,481	-200,000	-0,000	-0,033
-540,466	72,295	-0,095	0,073
-539,452	577,814	0,091	0,164
-538,437	187,667	0,126	0,138
-537,423	199,996	0,108	0,122
-536,408	12,032	0,045	0,025
-535,393	1,798	-0,043	-0,023
-534,379	-11,523	-0,135	-0,065
-533,364	324,601	0,040	-0,056
-532,350	-27,058	0,084	-0,036
-531,335	177,212	-0,088	-0,094
-530,321	-200,000	-0,006	-0,077
-529,306	736,698	-0,039	-0,077
-528,291	-43,083	0,019	-0,007
-527,277	-200,000	0,000	-0,002
-526,262	800,000	-0,025	-0,077
-525,248	800,000	0,031	0,092
-524,233	-200,000	-0,009	0,144
-523,218	169,747	-0,085	0,089
-522,204	-114,054	0,020	-0,003
-521,189	-30,073	-0,011	0,004
-520,175	-200,000	-0,035	-0,174
-519,160	-144,542	-0,151	0,010
-518,145	-155,615	0,081	0,004
-517,131	163,773	0,114	0,117
-516,116	46,471	-0,029	-0,019
-515,102	-169,064	0,040	-0,001
-514,087	426,286	0,035	0,055
-513,072	131,917	0,076	-0,072
-512,058	42,059	0,104	-0,069
-511,043	-99,076	0,150	-0,028
-510,029	210,621	0,050	0,057
-509,014	-98,243	0,002	0,000
-507,999	-29,786	0,003	0,001
-506,985	262,171	0,075	0,095
-505,970	-134,767	-0,123	0,011
-504,956	-104,781	-0,064	-0,011
-503,941	57,409	0,101	-0,072
-502,926	-145,606	-0,111	0,007
-501,912	370,676	0,045	0,066
-500,897	540,771	0,016	0,028
-499,883	433,049	-0,011	0,017
-498,868	-2,018	-0,040	0,021
-497,853	-149,322	-0,122	0,007
-496,839	-200,000	0,031	-0,121
-495,824	199,498	0,083	-0,093
-494,810	-75,367	0,057	0,015
-493,795	800,000	-0,050	-0,133
-492,781	-200,000	-0,029	-0,152
-491,766	-200,000	-0,004	0,043
-490,751	478,767	-0,037	0,062
-489,737	4,163	-0,078	-0,041
-488,722	-138,499	-0,044	-0,003
-487,708	272,569	0,069	0,089
-486,693	33,486	0,049	0,031
-485,678	-200,000	0,018	0,092
-484,664	-200,000	0,017	-0,117
-483,649	800,000	0,015	-0,034
-482,635	-48,409	-0,067	0,024
-481,620	407,454	-0,018	-0,029
-480,605	77,965	0,123	0,096
-479,591	11,290	0,100	0,056
-478,576	-75,863	-0,065	-0,017
-477,562	391,157	-0,090	-0,137
-476,547	-49,854	-0,103	0,036
-475,532	413,543	-0,046	0,072
-474,518	-200,000	-0,008	0,067
-473,503	-37,027	0,037	0,014
-472,489	-102,176	0,112	-0,020
-471,474	-37,931	-0,108	-0,042
-470,459	345,627	-0,057	-0,082
-469,445	62,182	-0,032	-0,023
-468,430	-200,000	0,015	0,153
-467,416	800,000	-0,027	0,059
-466,401	201,316	-0,057	0,064
-465,386	351,349	-0,042	-0,061
-464,372	53,529	0,104	0,073
-463,357	-62,218	-0,095	-0,029
-462,343	705,137	-0,045	0,088
-461,328	-18,175	-0,118	0,054
-460,313	-200,000	0,024	-0,098
-459,299	-78,169	-0,082	0,020
-458,284	-37,230	-0,088	0,034
-457,270	432,841	0,065	0,104
-456,255	800,000	-0,063	-0,170
-455,241	114,456	-0,092	-0,082
-454,226	-200,000	-0,006	-0,176
-453,211	113,274	-0,049	0,043
-452,197	171,265	-0,047	0,049
-451,182	-191,524	0,132	0,001
-450,168	-130,216	0,091	-0,009
-449,153	-90,568	-0,112	0,023
-448,138	800,000	0,056	0,151
-447,124	84,724	-0,069	0,055
-446,109	651,604	0,015	-0,028
-445,095	-38,644	0,056	0,021
-444,080	-179,290	-0,048	0,001
-443,065	462,821	0,070	0,114
-442,051	800,000	0,040	-0,085
-441,036	-115,006	-0,079	0,011
-440,022	-200,000	0,026	-0,197
-439,007	-90,430	0,168	-0,035
-437,992	258,575	0,069	-0,086
-436,978	-200,000	-0,010	-0,051
-435,963	-95,326	-0,149	-0,029
-434,949	800,000	-0,032	-0,084
-433,934	-99,178	-0,102	-0,019
-432,919	118,577	-0,049	-0,044
-431,905	63,135	0,097	-0,071
-430,890	-183,899	-0,084	-0,001
-429,876	-120,343	0,038	0,005
-428,861	140,490	-0,102	0,098
-427,846	-200,000	0,005	-0,066
-426,832	-131,522	-0,173	-0,016
-425,817	112,361	0,052	-0,046
-424,803	-200,000	0,004	-0,067
-423,788	-200,000	0,016	0,060
-422,773	20,446	0,125	0,074
-421,759	184,302	-0,047	-0,050
-420,744	444,391	-0,012	-0,019
-419,730	294,118	0,108	0,144
-418,715	-200,000	0,015	-0,072
-417,701	-61,725	0,045	-0,014
-416,686	-41,626	0,066	-0,025
-415,671	-200,000	0,132	-0,000
-414,657	-157,419	-0,022	0,001
-413,642	714,717	-0,046	0,090
-412,628	9,751	0,073	-0,040
-411,613	91,059	0,066	-0,054
-410,598	-35,342	-0,116	0,046
-409,584	800,000	-0,023	-0,063
-408,569	-115,618	-0,143	0,019
-407,555	800,000	-0,012	0,032
-406,540	525,703	0,024	-0,041
-405,525	-200,000	-0,002	0,047
-404,511	-88,347	-0,077	-0,017
-403,496	800,000	-0,023	-0,055
-402,482	61,101	-0,041	0,029
-401,467	-200,000	0,026	0,160
-400,452	-123,019	0,166	0,019
-399,438	110,919	-0,032	0,028
-398,423	-66,283	-0,005	-0,002
-397,409	-139,112	-0,098	0,008
-396,394	-10,795	0,053	0,025
-395,379	253,052	-0,043	-0,054
-394,365	27,070	0,180	0,110
-393,350	-77,296	0,028	0,007
-392,336	-200,000	0,023	0,137
-391,321	-200,000	0,035	-0,169
-390,306	117,142	-0,115	0,103
-389,292	334,097	0,071	0,100
-388,277	-4,788	0,022	-0,011
-387,263	-120,905	-0,050	0,006
-386,248	75,384	0,058	0,045
-385,233	561,517	-0,023	0,040
-384,219	162,639	0,024	-0,024
-383,204	800,000	-0,026	-0,067
-382,190	-173,268	-0,068	0,001
-381,175	-161,638	-0,106	-0,004
-380,160	116,496	0,107	-0,095
-379,146	800,000	-0,066	0,176
-378,131	-100,932	-0,052	0,009
-377,117	-200,000	-0,037	0,150
-376,102	254,971	0,053	-0,066
-375,088	561,889	-0,013	-0,022
-374,073	800,000	-0,043	0,094
-373,058	61,883	-0,108	0,078
-372,044	9,611	0,083	0,045
-371,029	-126,698	-0,047	-0,005
-370,015	268,797	0,093	-0,119
-369,000	112,127	-0,071	-0,062
-367,985	87,636	0,016	-0,013
-366,971	3,600	0,045	0,024
-365,956	800,000	-0,035	0,108
-364,942	-200,000	-0,006	0,129
-363,927	153,775	0,111	0,111
-362,912	668,615	0,039	0,074
-361,898	800,000	0,008	-0,020
-360,883	137,808	0,014	-0,013
-359,869	-157,209	0,052	0,002
-358,854	240,122	-0,114	-0,139
-357,839	615,996	-0,043	0,078
-356,825	24,472	0,026	-0,016
-355,810	385,646	-0,077	0,116
-354,796	17,905	-0,107	0,062
-353,781	204,103	-0,019	-0,022
-352,766	-200,000	0,023	-0,210
-351,752	-200,000	0,035	0,164
-350,737	800,000	-0,015	-0,041
-349,723	800,000	-0,025	-0,063
-348,708	-200,000	0,001	-0,071
-347,693	-8,116	-0,095	0,046
-346,679	585,756	-0,013	-0,024
-345,664	71,732	-0,054	-0,041
-344,650	173,734	0,061	0,064
-343,635	-143,024	0,103	0,007
-342,620	-200,000	-0,007	0,142
-341,606	-200,000	0,014	-0,076
-340,591	-115,667	0,031	0,004
-339,577	800,000	0,044	-0,125
-338,562	-98,699	0,121	0,022
-337,548	547,411	0,006	-0,010
-336,533	468,524	0,014	-0,023
-335,518	-68,480	-0,006	-0,002
-334,504	-113,528	0,180	-0,025
-333,489	10,966	-0,031	-0,017
-332,475	800,000	-0,007	0,017
-331,460	-29,724	0,106	-0,044
-330,445	-200,000	0,033	-0,188
-329,431	800,000	-0,067	-0,153
-328,416	-200,000	0,019	0,116
-327,402	-200,000	0,007	0,104
-326,387	76,553	0,149	0,115
-325,372	148,820	-0,069	-0,068
-324,358	45,190	-0,012	-0,008
-323,343	-114,301	0,095	0,013
-322,329	-65,841	-0,089	0,026
-321,314	-200,000	0,001	-0,077
-320,299	-200,000	0,058	0,187
-319,285	-200,000	-0,021	0,130
-318,270	-200,000	-0,004	0,034
-317,256	-31,526	-0,061	-0,025
-316,241	120,707	0,061	0,055
-315,226	422,196	-0,041	0,064
-314,212	-200,000	-0,005	0,051
-313,197	-193,696	0,085	0,001
-312,183	-7,598	-0,104	0,051
-311,168	156,674	-0,023	-0,024
-310,153	-200,000	-0,027	-0,128
-309,139	-200,000	0,022	0,072
-308,124	34,599	0,106	0,067
-307,110	-46,543	0,149	0,053
-306,095	196,689	0,058	-0,065
-305,080	-200,000	-0,025	0,185
-304,066	-200,000	-0,032	0,192
-303,051	243,306	0,050	0,061
-302,037	330,114	-0,092	0,128
-301,022	129,223	-0,026	0,024
-300,008	206,995	-0,044	0,050
-298,993	123,554	0,048	0,043
-297,978	-200,000	-0,015	0,109
-296,964	-97,129	-0,065	-0,012
-295,949	-200,000	0,016	-0,104
-294,935	-25,990	0,078	0,033
-293,920	-200,000	-0,001	0,092
-292,905	-103,345	0,123	-0,021
-291,891	-101,399	-0,059	0,010
-290,876	414,664	0,056	0,086
-289,862	-200,000	0,015	0,140
-288,847	800,000	0,049	-0,130
-287,832	86,897	0,080	-0,064
-286,818	-0,372	0,068	-0,035
-285,803	800,000	-0,027	0,085
-284,789	-102,957	0,125	0,021
-283,774	-36,936	-0,058	-0,023
-282,759	440,009	-0,050	-0,080
-281,745	84,059	0,162	0,129
-280,730	-200,000	0,013	-0,048
-279,716	76,251	-0,058	-0,044
-278,701	39,248	-0,085	0,055
-277,686	345,319	-0,071	0,102
-276,672	800,000	0,015	-0,040
-275,657	-39,820	-0,072	0,027
-274,643	-17,378	0,032	0,015
-273,628	7,408	-0,071	-0,038
-272,613	-200,000	0,006	-0,022
-271,599	-175,031	-0,076	-0,002
-270,584	-200,000	-0,004	-0,073
-269,570	646,790	0,025	0,047
-268,555	-1,868	0,020	0,010
-267,540	-161,662	0,098	-0,004
-266,526	-200,000	0,008	0,063
-265,511	-200,000	-0,009	0,035
-264,497	95,898	0,079	-0,065
-263,482	-83,690	0,086	0,020
-262,467	-44,977	0,177	0,063
-261,453	-200,000	-0,047	0,163
-260,438	96,984	-0,111	-0,092
-259,424	-200,000	-0,002	-0,070
-258,409	800,000	0,021	-0,054
-257,395	-2,999	0,086	0,043
-256,380	17,112	0,158	-0,090
-255,365	-200,000	-0,035	0,140
-254,351	-87,460	-0,082	-0,018
-253,336	-200,000	0,017	0,060
-252,322	-43,691	-0,104	-0,038
-251,307	49,950	-0,055	-0,038
-250,292	-100,160	-0,038	-0,007
-249,278	800,000	-0,039	0,093
-248,263	19,027	0,076	0,044
-247,249	-200,000	-0,009	0,054
-246,234	95,091	-0,099	-0,082
-245,219	-200,000	0,005	-0,103
-244,205	8,325	-0,069	-0,037
-243,190	-81,149	-0,104	-0,025
-242,176	-14,677	-0,053	-0,025
-241,161	-200,000	0,007	-0,072
-240,146	-200,000	0,048	0,000
-239,132	-60,459	-0,092	0,028
-238,117	193,403	-0,053	0,058
-237,103	-109,853	-0,003	0,000
-236,088	-58,563	0,040	-0,012
-235,073	-89,048	-0,040	-0,008
-234,059	242,792	0,055	0,067
-233,044	-200,000	0,017	-0,070
-232,030	105,172	0,059	-0,051
-231,015	-123,785	0,113	-0,013
-230,000	13,476	-0,078	0,044
-228,986	-153,280	-0,141	-0,007
-227,971	92,721	0,100	0,081
-226,957	-200,000	-0,047	0,165
-225,942	-200,000	0,017	0,060
-224,927	-58,142	0,071	0,022
-223,913	273,939	-0,079	0,102
-222,898	-200,000	-0,006	-0,056
-221,884	800,000	0,035	0,072
-220,869	-200,000	-0,018	-0,087
-219,855	-200,000	0,003	0,070
-218,840	800,000	-0,038	0,091
-217,825	-200,000	0,008	-0,047
-216,811	-66,953	0,054	0,015
-215,796	-200,000	0,002	0,024
-214,782	-84,543	0,010	-0,002
-213,767	536,526	-0,079	0,136
-212,752	75,234	0,060	-0,046
-211,738	262,750	-0,043	-0,055
-210,723	-38,636	-0,128	-0,049
-209,709	290,566	0,118	-0,156
-208,694	516,758	0,038	-0,064
-207,679	800,000	0,017	-0,049
-206,665	-147,439	0,032	-0,002
-205,650	800,000	0,006	-0,013
-204,636	800,000	0,023	0,066
-203,621	-200,000	-0,020	-0,133
-202,606	509,811	0,025	0,042
-201,592	-114,391	-0,082	0,011
-200,577	-40,341	-0,103	-0,038
-199,563	-200,000	-0,011	0,110
-198,548	-200,000	-0,009	0,207
-197,533	-79,938	0,123	0,030
-196,519	-60,825	-0,060	-0,018
-195,504	87,546	0,082	-0,066
-194,490	-76,836	-0,037	0,009
-193,475	544,434	-0,032	-0,055
-192,460	-95,548	-0,138	0,026
-191,446	-200,000	-0,002	0,010
-190,431	94,818	0,065	-0,053
-189,417	-69,005	0,201	0,056
-188,402	-200,000	0,023	0,079
-187,387	-200,000	0,005	0,020
-186,373	59,524	-0,074	0,053
-185,358	-200,000	-0,009	-0,130
-184,344	800,000	-0,014	-0,030
-183,329	-200,000	0,010	0,079
-182,315	-59,110	0,110	0,034
-181,300	800,000	-0,045	0,098
-180,285	-121,227	-0,119	-0,014
-179,271	283,348	0,047	-0,062
-178,256	233,444	0,108	-0,129
-177,242	50,437	0,071	0,048
-176,227	80,734	0,102	-0,079
-175,212	-27,192	-0,144	-0,060
-174,198	471,200	-0,046	-0,075
-173,183	-28,044	-0,122	0,051
-172,169	-200,000	-0,013	-0,045
-171,154	66,629	-0,057	0,042
-170,139	-74,697	-0,132	0,034
-169,125	-53,236	-0,016	-0,005
-168,110	-12,482	0,032	-0,015
-167,096	-200,000	0,002	0,063
-166,081	-200,000	0,003	-0,065
-165,066	-35,502	-0,150	0,058
-164,052	-100,000	0,129	0,023
-163,037	-25,057	0,086	-0,037
-162,023	14,103	-0,007	-0,004
-161,008	395,085	0,036	-0,055
-159,993	354,786	-0,091	-0,131
-158,979	-30,834	-0,084	-0,034
-157,964	-48,951	-0,041	-0,014
-156,950	742,225	-0,079	-0,154
-155,935	12,185	-0,042	-0,023
-154,920	67,061	-0,087	-0,064
-153,906	-3,621	0,159	0,079
-152,891	557,411	0,062	0,109
-151,877	-200,000	-0,007	0,066
-150,862	529,681	0,037	-0,063
-149,847	45,079	0,099	-0,066
-148,833	-200,000	0,002	0,006
-147,818	-23,165	-0,055	0,024
-146,804	288,360	0,089	0,116
-145,789	-200,000	0,034	0,164
-144,775	-160,707	-0,134	0,005
-143,760	460,292	0,033	0,053
-142,745	-89,072	0,114	0,024
-141,731	-32,521	-0,112	-0,045
-140,716	316,415	0,039	-0,053
-139,702	156,667	0,056	0,056
-138,687	-200,000	-0,002	-0,017
-137,672	21,942	-0,063	0,037
-136,658	24,775	-0,157	-0,094
-135,643	-200,000	-0,030	0,117
-134,629	-200,000	0,033	-0,164
-133,614	2,839	0,141	0,074
-132,599	800,000	-0,040	0,093
-131,585	800,000	0,041	0,088
-130,570	-28,112	-0,013	-0,006
-129,556	-200,000	0,012	0,067
-128,541	190,939	0,088	-0,096
-127,526	800,000	-0,055	0,112
-126,512	800,000	0,027	0,061
-125,497	34,957	-0,021	0,013
-124,483	-200,000	-0,007	0,055
-123,468	-200,000	0,019	0,072
-122,453	46,771	-0,086	-0,057
-121,439	-95,172	0,094	0,018
-120,424	420,384	-0,051	0,079
-119,410	34,053	0,162	-0,101
-118,395	339,999	0,011	-0,015
-117,380	800,000	-0,066	0,149
-116,366	719,238	-0,016	0,031
-115,351	502,497	-0,122	-0,204
-114,337	-3,490	0,091	0,045
-113,322	-2,370	0,049	-0,025
-112,307	800,000	-0,017	0,042
-111,293	73,292	0,173	-0,130
-110,278	84,602	0,094	-0,074
-109,264	105,178	-0,055	-0,047
-108,249	743,068	-0,047	-0,092
-107,234	-70,665	-0,121	0,033
-106,220	-200,000	-0,002	0,064
-105,205	-200,000	0,010	0,050
-104,191	-200,000	-0,011	-0,088
-103,176	800,000	-0,025	0,070
-102,162	-25,895	-0,023	0,010
-101,147	-92,818	-0,034	0,007
-100,132	800,000	-0,017	-0,043
-99,118	239,147	0,069	-0,082
-98,103	-52,427	0,068	0,023
-97,089	-33,838	0,022	0,009
-96,074	800,000	0,073	0,147
-95,059	-132,293	0,127	0,012
-94,045	82,599	0,039	0,030
-93,030	140,616	-0,029	0,027
-92,016	-159,519	-0,098	0,004
-91,001	55,541	-0,089	0,062
-89,986	-124,410	0,108	-0,012
-88,972	337,040	0,106	0,149
-87,957	53,046	-0,064	0,044
-86,943	-117,036	-0,027	0,003
-85,928	637,129	-0,034	-0,063
-84,913	119,409	-0,063	0,056
-83,899	303,657	0,043	-0,058
-82,884	-15,510	-0,084	-0,039
-81,870	71,702	-0,032	0,024
-80,855	77,098	-0,074	-0,057
-79,840	-200,000	0,001	0,104
-78,826	181,928	0,084	-0,089
-77,811	80,099	-0,055	0,042
-76,797	-40,824	-0,090	-0,033
-75,782	144,153	0,121	0,116
-74,767	-129,490	0,091	0,009
-73,753	-56,512	0,064	0,020
-72,738	-3,527	-0,045	-0,022
-71,724	-95,941	0,103	0,020
-70,709	-46,124	0,025	0,009
-69,694	182,619	-0,012	-0,012
-68,680	-20,856	-0,036	0,016
-67,665	-200,000	-0,012	0,079
-66,651	-200,000	-0,004	-0,090
-65,636	768,606	0,036	-0,071
-64,622	498,892	-0,085	-0,142
-63,607	-200,000	0,021	-0,106
-62,592	468,215	-0,020	0,033
-61,578	273,055	-0,058	-0,074
-60,563	-188,859	-0,052	0,000
-59,549	800,000	-0,045	0,099
-58,534	2,263	-1,919	-0,994
-57,519	800,000	-0,289	-0,831
-56,505	-200,000	-1,251	-4,994
-55,490	-0,577	0,657	0,334
-54,476	800,000	5,361	12,255
-53,461	-200,000	17,040	276,063
-52,446	800,000	719,318	2190,335
-51,432	529,531	1632,569	2780,610
-50,417	111,998	1626,526	1411,603
-49,403	75,466	1286,575	974,724
-48,388	32,933	1031,618	640,522
-47,373	20,156	993,661	574,622
-46,359	18,768	981,992	563,272
-45,344	16,579	977,784	553,637
-44,330	16,625	976,693	553,150
-43,315	16,269	974,717	550,840
-42,300	16,250	973,736	550,202
-41,286	16,181	972,822	549,436
-40,271	16,255	971,695	549,022
-39,257	16,236	970,935	548,509
-38,242	16,278	969,861	548,016
-37,227	16,269	969,034	547,498
-36,213	16,268	968,146	546,972
-35,198	16,204	967,494	546,374
-34,184	16,287	966,639	546,139
-33,169	16,186	965,773	545,300
-32,154	16,283	964,758	545,018
-31,140	16,253	963,785	544,351
-30,125	16,333	963,110	544,208
-29,111	16,241	962,359	543,464
-28,096	16,239	961,692	543,058
-27,082	16,254	961,006	542,697
-26,067	16,283	960,253	542,345
-25,052	16,261	959,477	541,815
-24,038	16,282	958,676	541,409
-23,023	16,228	958,022	540,843
-22,009	16,232	957,407	540,489
-20,994	16,280	956,791	540,272
-19,979	16,256	956,098	539,782
-18,965	16,198	955,710	539,356
-17,950	16,280	954,965	539,177
-16,936	16,192	954,328	538,515
-15,921	16,191	953,579	538,066
-14,906	16,140	952,812	537,451
-13,892	16,107	952,392	537,085
-12,877	16,135	951,561	536,685
-11,863	16,080	951,196	536,283
-10,848	16,076	950,618	535,922
-9,833	16,183	949,954	535,869
-8,819	16,181	949,346	535,496
-7,804	16,128	948,819	535,009
-6,790	16,092	948,127	534,483
-5,775	16,129	947,493	534,222
-4,760	16,185	946,808	533,993
-3,746	16,168	946,112	533,525
-2,731	16,067	945,550	532,865
-1,717	16,010	944,747	532,213
-0,702	15,963	944,360	531,824
0,313	15,782	943,711	531,687
1,327	19,260	941,587	541,455
2,342	28,550	795,967	482,378
3,356	25,602	448,173	267,184
4,371	-4,123	296,596	146,997
5,386	-8,255	278,047	133,861
6,400	-9,311	272,258	130,077
7,415	-9,682	269,919	128,605
8,429	-9,723	268,582	127,919
9,444	-9,674	267,636	127,502
10,459	-9,891	267,037	127,007
11,473	-9,861	266,523	126,778
12,488	-10,196	266,001	126,214
13,502	-10,330	265,391	125,791
14,517	-10,182	264,971	125,715
15,531	-10,208	264,402	125,410
16,546	-10,201	264,093	125,259
17,561	-10,063	263,561	125,120
18,575	-10,067	263,406	125,032
19,590	-10,300	263,001	124,618
20,604	-10,309	262,699	124,456
21,619	-10,393	262,452	124,253
22,634	-10,408	262,085	124,055
23,648	-10,490	261,795	123,833
24,663	-10,406	261,494	123,754
25,677	-10,310	261,207	123,693
26,692	-10,365	260,920	123,497
27,707	-10,265	260,596	123,422
28,721	-10,390	260,451	123,231
29,736	-10,302	260,215	123,186
30,750	-10,349	259,831	122,952
31,765	-10,331	259,678	122,884
32,780	-10,350	259,370	122,711
33,794	-10,414	259,204	122,565
34,809	-10,633	259,027	122,277
35,823	-10,503	258,797	122,273
36,838	-10,538	258,379	122,033
37,853	-10,436	258,295	122,072
38,867	-10,665	258,061	121,748
39,882	-10,559	257,888	121,750
40,896	-10,529	257,499	121,582
41,911	-10,576	257,143	121,361
42,926	-10,566	257,002	121,293
43,940	-10,546	256,739	121,175
44,955	-10,704	256,491	120,909
45,969	-10,573	256,224	120,887
46,984	-10,978	256,070	120,449
47,999	-11,283	255,944	120,113
49,013	-11,283	255,449	119,870
50,028	-11,473	255,383	119,662
51,042	-11,513	255,121	119,494
52,057	-11,453	254,819	119,394
53,071	-11,422	254,438	119,232
54,086	-11,441	254,468	119,219
55,101	-11,148	254,287	119,378
56,115	-10,923	254,226	119,533
57,130	-10,458	254,140	119,886
58,144	-10,018	253,788	120,090
59,159	-10,240	253,736	119,862
60,174	-10,111	253,422	119,816
61,188	-10,165	253,230	119,667
62,203	-10,295	253,105	119,485
63,217	-10,244	252,790	119,370
64,232	-10,126	252,457	119,304
65,247	-10,281	252,469	119,165
66,261	-10,366	252,078	118,897
67,276	-10,579	251,851	118,596
68,290	-10,835	251,418	118,163
69,305	-11,034	251,423	117,984
70,320	-11,017	251,200	117,883
71,334	-10,593	251,097	118,187
72,349	-10,153	250,980	118,497
73,363	-10,143	250,684	118,356
74,378	-10,146	250,568	118,288
75,393	-10,374	250,286	117,950
76,407	-10,481	250,181	117,799
77,422	-10,401	249,846	117,699
78,436	-10,420	249,647	117,579
79,451	-10,327	249,394	117,528
80,466	-10,444	249,088	117,273
81,480	-10,772	248,860	116,878
82,495	-10,859	248,803	116,768
83,509	-10,822	248,518	116,654
84,524	-10,764	248,359	116,618
85,539	-10,849	248,029	116,381
86,553	-10,898	248,014	116,323
87,568	-10,714	247,717	116,328
88,582	-10,722	247,599	116,255
89,597	-10,875	247,508	116,073
90,611	-10,674	247,386	116,175
91,626	-10,565	247,101	116,122
92,641	-10,657	247,064	116,018
93,655	-10,458	246,729	116,017
94,670	-10,709	246,516	115,696
95,684	-10,706	246,360	115,615
96,699	-10,575	246,037	115,563
97,714	-10,718	245,917	115,376
98,728	-10,844	245,785	115,198
99,743	-10,932	245,390	114,929
100,757	-10,759	245,318	115,031
101,772	-10,748	245,032	114,895
102,787	-10,900	244,956	114,723
103,801	-10,528	244,749	114,925
104,816	-10,756	244,584	114,647
105,830	-10,575	244,559	114,776
106,845	-10,464	244,450	114,807
107,860	-10,436	244,088	114,650
108,874	-10,640	243,944	114,403
109,889	-10,673	243,715	114,258
110,903	-10,735	243,467	114,080
111,918	-10,746	243,540	114,095
112,933	-10,558	243,066	114,018
113,947	-10,465	242,974	114,042
114,962	-10,352	242,761	114,025
115,976	-10,557	242,686	113,811
116,991	-10,599	242,517	113,686
118,006	-10,583	242,287	113,581
119,020	-10,673	242,281	113,495
120,035	-10,365	242,086	113,646
121,049	-10,390	241,905	113,531
122,064	-10,474	241,747	113,377
123,079	-10,487	241,498	113,240
124,093	-10,599	241,216	113,006
125,108	-10,853	241,068	112,718
126,122	-11,028	240,701	112,394
127,137	-11,121	240,467	112,199
128,151	-11,158	240,568	112,206
129,166	-10,918	240,304	112,268
130,181	-10,816	239,942	112,172
131,195	-10,911	239,856	112,045
132,210	-10,821	239,743	112,056
133,224	-10,531	239,568	112,199
134,239	-10,431	239,430	112,205
135,254	-10,369	239,339	112,203
136,268	-10,549	238,946	111,863
137,283	-10,894	238,631	111,426
138,297	-11,111	238,591	111,223
139,312	-10,935	238,421	111,276
140,327	-10,664	238,350	111,452
141,341	-10,220	238,333	111,792
142,356	-10,223	238,165	111,701
143,370	-10,072	238,018	111,744
144,385	-10,098	237,793	111,607
145,400	-9,984	237,711	111,650
146,414	-9,906	237,410	111,561
147,429	-10,099	237,210	111,303
148,443	-10,181	237,048	111,151
149,458	-9,973	236,968	111,271
150,473	-9,864	236,612	111,180
151,487	-10,209	236,492	110,838
152,502	-10,035	236,364	110,907
153,516	-10,006	236,241	110,863
154,531	-10,163	236,058	110,642
155,546	-10,113	235,960	110,625
156,560	-10,551	235,840	110,211
157,575	-10,458	235,489	110,110
158,589	-10,425	235,419	110,095
159,604	-10,069	235,168	110,250
160,619	-9,935	235,071	110,302
161,633	-9,988	234,956	110,195
162,648	-10,090	234,916	110,086
163,662	-10,065	234,647	109,970
164,677	-10,147	234,461	109,808
165,692	-10,158	234,245	109,688
166,706	-9,916	234,155	109,828
167,721	-9,894	234,033	109,778
168,735	-9,654	233,753	109,827
169,750	-9,826	233,747	109,678
170,764	-10,096	233,614	109,393
171,779	-10,141	233,604	109,343
172,794	-9,674	233,235	109,528
173,808	-10,138	233,039	109,062
174,823	-10,601	232,685	108,522
175,837	-10,774	232,433	108,259
176,852	-10,340	232,530	108,635
177,867	-10,093	232,464	108,789
178,881	-9,957	232,350	108,832
179,896	-10,039	232,185	108,681
180,910	-10,103	231,839	108,459
181,925	-9,931	231,853	108,591
182,940	-9,988	231,615	108,425
183,954	-9,913	231,467	108,405
184,969	-9,674	231,398	108,549
185,983	-9,898	231,355	108,344
186,998	-9,847	231,116	108,263
188,013	-9,889	230,907	108,122
189,027	-9,679	230,638	108,150
190,042	-9,748	230,656	108,095
191,056	-9,772	230,490	107,989
192,071	-9,807	230,257	107,843
193,086	-10,132	230,128	107,521
194,100	-9,848	230,207	107,769
195,115	-9,665	229,685	107,657
196,129	-9,953	229,702	107,432
197,144	-5,336	231,227	111,730
198,159	-0,180	232,832	116,526
199,173	3,115	233,789	119,574
200,188	3,741	233,618	119,966
201,202	3,659	233,345	119,751
202,217	3,804	233,247	119,803
203,232	3,829	233,312	119,845
204,246	4,142	232,969	119,902
205,261	3,852	233,062	119,714
206,275	4,099	232,935	119,829
207,290	4,191	232,699	119,769
208,304	4,138	232,498	119,614
209,319	4,145	232,400	119,558
210,334	4,010	232,229	119,355
211,348	3,860	231,929	119,074
212,363	3,758	231,685	118,859
213,377	3,145	231,556	118,308
214,392	3,226	231,324	118,242
215,407	3,466	231,187	118,346
216,421	3,473	230,970	118,230
217,436	3,482	230,921	118,201
218,450	3,232	230,583	117,825
219,465	3,215	230,446	117,732
220,480	3,304	230,291	117,711
221,494	3,044	230,238	117,473
222,509	3,502	229,992	117,689
223,523	3,314	229,885	117,479
224,538	3,038	229,848	117,238
225,553	3,174	229,706	117,260
226,567	3,278	229,457	117,202
227,582	3,555	229,427	117,388
228,596	3,676	229,270	117,389
229,611	3,550	229,124	117,208
230,626	3,163	228,935	116,806
231,640	3,289	228,702	116,772
232,655	3,641	228,660	117,009
233,669	3,815	228,605	117,103
234,684	3,849	228,637	117,134
235,699	3,761	228,288	116,879
236,713	3,600	227,956	116,576
237,728	3,269	227,934	116,303
238,742	3,104	227,621	116,008
239,757	3,268	227,511	116,066
240,772	3,033	227,518	115,881
241,786	3,242	227,172	115,852
242,801	3,433	227,254	116,028
243,815	3,607	227,216	116,130
244,830	3,790	226,933	116,113
245,844	3,438	226,755	115,746
246,859	3,338	226,588	115,575
247,874	3,699	226,411	115,747
248,888	3,651	226,381	115,685
249,903	3,490	226,264	115,493
250,917	3,523	225,921	115,333
251,932	3,403	225,813	115,177
252,947	3,232	225,670	114,966
253,961	3,174	225,381	114,764
254,976	3,332	225,304	114,834
255,990	3,558	225,247	114,964
257,005	3,408	225,193	114,814
258,020	3,797	225,018	115,006
259,034	3,687	224,985	114,896
260,049	3,771	224,753	114,830
261,063	3,655	224,607	114,659
262,078	3,371	224,622	114,444
263,093	3,725	224,414	114,592
264,107	3,616	224,305	114,445
265,122	4,018	223,934	114,544
266,136	3,751	224,021	114,380
267,151	3,767	223,768	114,252
268,166	3,501	223,606	113,962
269,180	2,999	223,429	113,488
270,195	3,159	223,252	113,508
271,209	3,409	222,937	113,522
272,224	3,359	223,079	113,547
273,239	3,429	222,835	113,465
274,253	3,370	222,606	113,294
275,268	3,391	222,425	113,208
276,282	3,173	222,233	112,939
277,297	3,102	222,083	112,800
278,312	3,398	221,993	112,963
279,326	3,347	221,937	112,887
280,341	3,084	221,834	112,630
281,355	3,272	221,579	112,629
282,370	3,280	221,471	112,570
283,384	3,122	221,305	112,359
284,399	2,994	221,103	112,153
285,414	3,104	221,033	112,189
286,428	3,509	220,911	112,414
287,443	3,530	220,845	112,386
288,457	3,439	220,758	112,265
289,472	3,373	220,497	112,074
290,487	2,828	220,164	111,496
291,501	2,693	220,093	111,351
292,516	3,002	220,012	111,526
293,530	2,866	219,971	111,396
294,545	3,098	219,754	111,445
295,560	3,262	219,574	111,463
296,574	3,491	219,532	111,598
297,589	3,318	219,368	111,380
298,603	3,240	219,326	111,292
299,618	3,388	219,032	111,240
300,633	3,353	219,098	111,238
301,647	3,694	218,911	111,380
302,662	3,579	218,757	111,209
303,676	3,625	218,597	111,151
304,691	3,485	218,443	110,961
305,706	3,686	218,305	111,027
306,720	3,514	218,232	110,856
307,735	3,258	218,001	110,544
308,749	3,180	217,782	110,367
309,764	3,345	217,842	110,506
310,779	3,507	217,588	110,484
311,793	3,371	217,420	110,291
312,808	3,566	217,327	110,374
313,822	3,449	217,075	110,152
314,837	3,275	217,018	109,988
315,852	3,212	216,908	109,877
316,866	3,398	216,670	109,881
317,881	3,389	216,658	109,859
318,895	3,271	216,507	109,688
319,910	3,326	216,322	109,623
320,925	2,842	215,937	109,072
321,939	2,993	215,918	109,161
322,954	3,246	215,975	109,361
323,968	3,669	215,915	109,623
324,983	3,626	215,621	109,433
325,997	3,669	215,467	109,376
327,012	3,399	215,349	109,114
328,027	3,299	215,376	109,047
329,041	3,604	215,262	109,197
330,056	3,900	214,947	109,237
331,070	3,296	214,911	108,780
332,085	3,267	214,596	108,591
333,100	3,149	214,334	108,365
334,114	3,222	214,372	108,426
335,129	3,435	214,342	108,552
336,143	3,236	214,177	108,318
337,158	3,360	214,080	108,347
338,173	3,367	213,876	108,239
339,187	3,338	213,690	108,115
340,202	2,891	213,579	107,734
341,216	3,052	213,274	107,683
342,231	3,116	213,299	107,731
343,246	3,160	213,113	107,659
344,260	3,128	213,003	107,571
345,275	3,398	212,851	107,675
346,289	3,318	212,837	107,602
347,304	3,529	212,568	107,604
348,319	3,415	212,602	107,532
349,333	3,297	212,440	107,357
350,348	3,355	212,263	107,299
351,362	3,437	212,183	107,306
352,377	3,557	212,073	107,325
353,392	3,301	211,889	107,044
354,406	3,363	211,946	107,106
355,421	197,188	1339,783	1424,573
356,435	157,600	1477,184	1424,569
