DTS Sentinel unit serial number:	SN410029Multiplexer serial number:	ORYXHardware model number:	OX2-SRSoftware version number:	ORYX F/W v4,00 Oryx Data Collector v3.7.2.0data status	okinstallation	B6 Nyhavnadifferential loss correction	single-endedforward channel	channel 2reverse channel	N/Adate	2023/12/10time	07:30:08forward acquisition time	300,00reverse acquisition time	0,00gamma	499,1914k internal	0,3123k external	0,3123temperature offset calibration	1,0000default loss term (dB/km)	0,3820temperature slope calibration	1,0000multiplexer offset coefficient	1,0000multiplexer slope coefficient	1,0000fibre end	0,00T internal ref (°C)	22,62T ext. ref 1 (°C)	6,33T ext. ref 2 (°C)	6,31length (m)	temperature (°C)	Stokes	anti-Stokes-744,400	800,000	0,024	-0,051
-743,385	195,829	-0,086	0,098
-742,371	800,000	0,057	0,172
-741,356	245,614	-0,171	0,215
-740,342	-135,835	0,097	0,008
-739,327	55,314	-0,148	0,106
-738,312	-130,518	-0,097	-0,010
-737,298	103,746	-0,220	0,193
-736,283	-37,782	0,015	0,006
-735,269	82,459	-0,282	0,228
-734,254	800,000	-0,026	0,060
-733,239	-80,010	-0,364	-0,090
-732,225	-65,486	0,072	0,021
-731,210	800,000	-0,030	0,080
-730,196	74,864	0,014	0,011
-729,181	402,631	0,032	0,051
-728,167	-200,000	-0,001	0,042
-727,152	-200,000	-0,012	-0,049
-726,137	85,514	-0,075	-0,061
-725,123	-200,000	-0,018	-0,159
-724,108	-200,000	0,014	-0,086
-723,094	134,895	-0,048	-0,046
-722,079	-39,172	-0,029	0,011
-721,064	83,535	-0,083	-0,067
-720,050	-200,000	0,003	0,077
-719,035	273,755	-0,048	-0,064
-718,021	783,338	-0,036	0,073
-717,006	-200,000	0,007	0,116
-715,991	-56,360	-0,086	-0,028
-714,977	-200,000	-0,004	0,064
-713,962	24,424	-0,076	0,047
-712,948	599,556	-0,123	-0,229
-711,933	396,281	0,105	0,164
-710,918	800,000	-0,019	-0,042
-709,904	800,000	-0,053	-0,160
-708,889	224,491	0,056	0,068
-707,875	10,585	-0,058	-0,033
-706,860	190,501	0,052	-0,058
-705,845	-200,000	-0,009	0,040
-704,831	-70,152	-0,085	-0,024
-703,816	191,353	-0,036	-0,040
-702,802	-174,997	-0,121	-0,002
-701,787	435,844	-0,055	-0,089
-700,772	-20,472	0,039	0,018
-699,758	-200,000	-0,004	0,113
-698,743	800,000	-0,042	0,136
-697,729	800,000	-0,024	-0,051
-696,714	-25,300	0,046	0,020
-695,699	-200,000	0,013	-0,047
-694,685	222,996	-0,065	-0,078
-693,670	674,041	0,017	-0,033
-692,656	8,262	-0,081	0,045
-691,641	-200,000	0,004	0,055
-690,627	800,000	-0,102	0,222
-689,612	667,500	-0,034	0,066
-688,597	82,824	-0,066	-0,053
-687,583	-196,961	-0,064	0,000
-686,568	-200,000	0,003	-0,057
-685,554	-103,480	0,112	-0,019
-684,539	-44,757	-0,037	0,014
-683,524	-110,148	0,088	-0,014
-682,510	-4,594	0,026	-0,013
-681,495	800,000	0,022	-0,057
-680,481	583,439	0,029	-0,053
-679,466	-112,071	-0,241	-0,036
-678,451	-200,000	-0,023	-0,076
-677,437	-200,000	-0,011	-0,135
-676,422	155,083	-0,057	0,058
-675,408	-46,844	0,141	0,051
-674,393	212,339	-0,057	-0,067
-673,378	340,038	-0,022	0,032
-672,364	63,225	-0,088	-0,066
-671,349	-65,522	-0,058	-0,017
-670,335	1,322	-0,227	-0,121
-669,320	-200,000	-0,006	0,069
-668,305	-200,000	0,001	-0,087
-667,291	-43,117	-0,153	-0,057
-666,276	-128,125	-0,066	-0,007
-665,262	-200,000	0,021	-0,075
-664,247	664,594	0,018	0,036
-663,232	-187,582	-0,081	-0,001
-662,218	94,924	-0,067	0,056
-661,203	-200,000	0,008	-0,100
-660,189	29,146	0,044	0,028
-659,174	-128,536	-0,121	0,013
-658,159	-106,277	-0,189	0,031
-657,145	-200,000	-0,002	0,092
-656,130	-200,000	-0,017	0,059
-655,116	195,032	0,056	0,063
-654,101	-200,000	-0,022	0,161
-653,086	-200,000	0,017	0,113
-652,072	-200,000	-0,011	-0,055
-651,057	-103,035	-0,120	0,021
-650,043	-133,190	0,121	-0,011
-649,028	800,000	-0,020	-0,049
-648,014	638,317	0,007	0,013
-646,999	138,046	-0,109	-0,106
-645,984	800,000	-0,041	0,095
-644,970	268,824	0,077	-0,101
-643,955	-200,000	-0,052	-0,295
-642,941	-26,094	-0,027	-0,012
-641,926	112,332	0,108	0,097
-640,911	-65,379	0,105	0,031
-639,897	-24,239	0,143	0,063
-638,882	23,514	-0,122	0,074
-637,868	-200,000	0,038	-0,158
-636,853	-200,000	-0,021	-0,192
-635,838	476,198	-0,105	-0,176
-634,824	324,196	-0,071	0,100
-633,809	800,000	0,031	0,073
-632,795	-97,709	0,107	-0,020
-631,780	-59,943	0,004	0,001
-630,765	-200,000	-0,006	-0,059
-629,751	34,579	0,046	0,030
-628,736	-171,784	0,031	0,001
-627,722	800,000	-0,030	-0,094
-626,707	-200,000	-0,011	-0,124
-625,692	-22,557	-0,124	-0,055
-624,678	-133,454	0,019	-0,002
-623,663	423,325	0,031	-0,049
-622,649	310,811	-0,073	-0,101
-621,634	200,274	0,009	-0,010
-620,619	-17,281	0,097	-0,045
-619,605	444,567	0,008	0,014
-618,590	544,312	0,013	-0,023
-617,576	800,000	-0,021	-0,068
-616,561	110,233	-0,024	-0,022
-615,546	502,767	0,028	0,048
-614,532	-139,341	-0,099	-0,008
-613,517	-85,664	-0,122	0,028
-612,503	738,674	0,059	-0,118
-611,488	-65,816	0,050	0,015
-610,474	-145,207	-0,125	0,008
-609,459	509,082	0,084	0,146
-608,444	-2,599	-0,084	-0,043
-607,430	225,936	-0,043	-0,052
-606,415	-149,411	-0,015	-0,001
-605,401	-67,203	0,055	0,016
-604,386	135,090	-0,006	0,005
-603,371	800,000	-0,052	0,127
-602,357	-200,000	0,017	0,134
-601,342	171,166	0,077	-0,082
-600,328	800,000	-0,037	0,080
-599,313	78,677	-0,006	0,004
-598,298	82,578	-0,026	0,021
-597,284	15,726	0,118	0,069
-596,269	-51,348	0,032	0,011
-595,255	-51,540	0,064	0,022
-594,240	-200,000	0,032	0,107
-593,225	-200,000	-0,048	-0,291
-592,211	800,000	-0,054	-0,157
-591,196	131,130	0,101	-0,096
-590,182	-200,000	0,017	0,077
-589,167	-200,000	0,010	0,054
-588,152	405,470	-0,060	0,093
-587,138	-126,396	0,098	-0,011
-586,123	0,502	-0,029	0,015
-585,109	-127,860	-0,084	0,009
-584,094	1,149	-0,027	0,014
-583,079	-200,000	-0,001	-0,016
-582,065	398,884	-0,082	0,127
-581,050	133,590	-0,075	0,072
-580,036	-195,180	0,084	-0,000
-579,021	-200,000	0,005	-0,115
-578,006	-88,402	0,135	-0,030
-576,992	-118,363	-0,203	0,026
-575,977	-200,000	-0,001	-0,027
-574,963	-59,991	0,049	-0,015
-573,948	260,366	0,088	-0,113
-572,934	-88,605	-0,052	-0,011
-571,919	-46,715	0,055	-0,020
-570,904	-102,288	-0,081	-0,014
-569,890	247,977	-0,095	0,119
-568,875	16,557	0,045	0,026
-567,861	-200,000	0,002	-0,039
-566,846	800,000	0,027	-0,079
-565,831	-66,240	0,043	-0,013
-564,817	-75,868	0,056	0,014
-563,802	800,000	0,065	0,149
-562,788	51,647	0,041	0,029
-561,773	-140,030	-0,120	-0,009
-560,758	13,538	-0,097	-0,055
-559,744	53,980	0,021	-0,015
-558,729	345,592	-0,028	-0,041
-557,715	-17,535	-0,156	-0,072
-556,700	-145,354	-0,031	-0,002
-555,685	178,737	0,056	-0,061
-554,671	-76,488	-0,067	0,017
-553,656	386,439	-0,074	0,113
-552,642	330,697	0,079	0,113
-551,627	-200,000	-0,022	0,173
-550,612	148,413	0,036	-0,036
-549,598	47,888	-0,075	-0,052
-548,583	30,982	-0,127	-0,080
-547,569	682,001	0,021	-0,041
-546,554	402,624	0,031	-0,049
-545,539	-200,000	0,016	-0,086
-544,525	241,509	-0,008	0,010
-543,510	-13,844	-0,032	-0,015
-542,496	121,501	0,025	-0,023
-541,481	-72,346	-0,040	-0,011
-540,466	395,741	0,030	-0,047
-539,452	33,405	0,083	-0,053
-538,437	800,000	-0,068	0,150
-537,423	-200,000	0,007	-0,144
-536,408	475,837	-0,077	-0,129
-535,393	-200,000	-0,021	-0,084
-534,379	32,123	-0,117	-0,074
-533,364	-200,000	-0,003	0,016
-532,350	-200,000	0,038	-0,126
-531,335	800,000	0,026	0,074
-530,321	256,782	-0,071	0,090
-529,306	-112,923	0,155	-0,022
-528,291	231,066	-0,073	0,089
-527,277	14,100	-0,070	-0,040
-526,262	297,846	-0,087	-0,119
-525,248	-200,000	0,003	-0,038
-524,233	26,563	0,085	0,052
-523,218	800,000	0,018	0,037
-522,204	-200,000	-0,014	-0,165
-521,189	-200,000	0,007	0,054
-520,175	-200,000	-0,007	0,074
-519,160	15,673	-0,074	0,043
-518,145	7,888	-0,054	0,030
-517,131	5,288	0,078	-0,042
-516,116	33,353	-0,018	-0,011
-515,102	-200,000	-0,017	0,148
-514,087	-3,378	-0,074	0,038
-513,072	-114,592	-0,082	0,011
-512,058	-58,497	0,081	-0,026
-511,043	502,878	-0,031	0,053
-510,029	-200,000	0,004	0,107
-509,014	7,509	0,115	-0,063
-507,999	-134,987	0,115	-0,010
-506,985	132,080	0,043	0,041
-505,970	163,462	0,012	0,012
-504,956	72,727	0,059	-0,046
-503,941	-19,086	0,037	0,017
-502,926	175,019	0,049	-0,052
-501,912	-200,000	-0,029	-0,127
-500,897	74,062	-0,125	-0,097
-499,883	-39,076	0,037	0,014
-498,868	-96,207	-0,097	-0,019
-497,853	102,176	-0,057	0,049
-496,839	267,973	-0,059	-0,077
-495,824	66,107	-0,102	0,076
-494,810	323,577	-0,022	-0,032
-493,795	497,931	0,061	-0,105
-492,781	364,035	0,022	-0,033
-491,766	-132,457	-0,031	-0,003
-490,751	-147,958	-0,129	-0,008
-489,737	-140,679	-0,136	-0,010
-488,722	-200,000	-0,033	0,167
-487,708	275,517	0,071	0,094
-486,693	161,965	0,073	0,076
-485,678	277,205	0,093	-0,122
-484,664	139,890	-0,109	-0,106
-483,649	-30,316	-0,114	-0,047
-482,635	26,174	-0,074	-0,045
-481,620	-162,307	0,106	0,004
-480,605	548,618	0,022	0,039
-479,591	-63,085	0,135	0,041
-478,576	3,137	0,011	0,006
-477,562	-119,808	-0,130	-0,016
-476,547	549,433	0,039	-0,069
-475,532	-200,000	-0,035	-0,136
-474,518	-75,106	0,060	-0,016
-473,503	800,000	0,015	-0,050
-472,489	54,661	-0,037	-0,027
-471,474	624,154	0,032	0,060
-470,459	214,389	0,012	-0,014
-469,445	-127,068	-0,139	0,015
-468,430	-174,405	0,155	0,003
-467,416	-0,824	0,038	0,020
-466,401	28,024	0,061	-0,038
-465,386	332,205	0,020	-0,029
-464,372	115,136	0,050	-0,045
-463,357	95,623	0,106	0,089
-462,343	-200,000	0,008	-0,029
-461,328	-9,430	-0,020	-0,010
-460,313	399,339	0,028	0,043
-459,299	800,000	0,003	-0,006
-458,284	-200,000	0,006	0,098
-457,270	102,544	-0,106	0,091
-456,255	15,796	-0,206	0,119
-455,241	-94,107	0,068	-0,014
-454,226	800,000	-0,022	0,065
-453,211	-131,563	0,124	-0,012
-452,197	165,943	0,085	0,089
-451,182	-200,000	0,019	0,196
-450,168	229,170	-0,039	0,047
-449,153	-200,000	0,000	-0,027
-448,138	301,189	-0,068	-0,092
-447,124	-200,000	0,005	-0,047
-446,109	441,054	-0,011	0,018
-445,095	316,929	0,053	0,074
-444,080	-200,000	0,008	0,128
-443,065	-200,000	-0,026	0,110
-442,051	800,000	-0,017	-0,055
-441,036	387,736	0,053	-0,081
-440,022	25,923	-0,051	0,031
-439,007	258,587	0,099	-0,126
-437,992	290,368	0,038	0,051
-436,978	-116,032	-0,079	-0,011
-435,963	170,699	0,066	0,070
-434,949	-25,025	-0,055	0,024
-433,934	290,527	0,043	-0,058
-432,919	800,000	0,006	-0,013
-431,905	-195,882	0,165	0,001
-430,890	150,799	0,098	0,098
-429,876	-83,696	0,198	0,046
-428,861	88,083	-0,093	0,076
-427,846	-26,503	-0,023	-0,010
-426,832	403,134	-0,007	0,011
-425,817	-111,259	-0,177	0,026
-424,803	800,000	-0,045	0,103
-423,788	399,426	-0,039	0,061
-422,773	-200,000	-0,023	0,112
-421,759	800,000	-0,035	0,095
-420,744	250,673	-0,013	-0,016
-419,730	-200,000	0,032	-0,129
-418,715	427,782	0,035	-0,056
-417,701	-200,000	0,023	-0,101
-416,686	-200,000	-0,003	-0,015
-415,671	800,000	-0,017	-0,039
-414,657	-41,905	0,107	0,040
-413,642	-200,000	0,009	0,078
-412,628	800,000	0,002	-0,007
-411,613	243,582	0,027	-0,034
-410,598	-5,997	-0,015	-0,007
-409,584	113,058	0,105	0,094
-408,569	296,182	0,083	0,112
-407,555	-6,847	-0,008	-0,004
-406,540	-200,000	-0,022	-0,106
-405,525	-0,953	-0,076	-0,040
-404,511	800,000	-0,070	-0,145
-403,496	-200,000	0,016	-0,074
-402,482	-15,586	-0,019	-0,009
-401,467	266,558	-0,049	0,063
-400,452	-35,676	0,118	0,047
-399,438	800,000	0,017	0,034
-398,423	-200,000	0,004	-0,015
-397,409	800,000	-0,010	0,023
-396,394	701,883	0,022	-0,043
-395,379	-76,884	-0,071	0,018
-394,365	800,000	-0,037	0,080
-393,350	433,027	-0,079	0,126
-392,336	-200,000	0,012	0,045
-391,321	-200,000	-0,017	0,080
-390,306	92,978	-0,064	-0,054
-389,292	-32,849	0,100	-0,041
-388,277	-146,604	-0,043	0,003
-387,263	259,937	-0,042	0,054
-386,248	0,983	0,040	-0,021
-385,233	-200,000	0,004	0,100
-384,219	-122,983	-0,068	0,008
-383,204	99,505	-0,036	0,031
-382,190	205,885	-0,156	0,179
-381,175	-84,174	-0,133	-0,031
-380,160	390,711	-0,046	0,070
-379,146	458,981	-0,076	0,125
-378,131	-101,510	0,067	-0,012
-377,117	-10,352	0,104	-0,050
-376,102	74,995	-0,044	-0,034
-375,088	-21,104	-0,028	0,013
-374,073	800,000	0,030	-0,063
-373,058	-96,657	0,095	-0,018
-372,044	-61,828	-0,062	-0,019
-371,029	-103,366	0,194	0,033
-370,015	177,890	-0,083	-0,089
-369,000	-2,050	-0,022	0,011
-367,985	368,822	-0,037	0,056
-366,971	83,630	0,094	0,076
-365,956	-107,799	0,134	0,021
-364,942	-138,461	-0,094	-0,007
-363,927	71,193	0,033	0,025
-362,912	-165,898	0,115	0,004
-361,898	-200,000	0,002	0,045
-360,883	-131,486	-0,294	-0,028
-359,869	800,000	-0,047	-0,143
-358,854	-41,336	0,054	0,020
-357,839	-200,000	0,018	0,151
-356,825	346,328	-0,047	0,068
-355,810	800,000	0,042	0,086
-354,796	-100,147	-0,030	0,005
-353,781	-64,948	0,031	-0,009
-352,766	477,071	-0,071	0,119
-351,752	74,583	-0,071	-0,054
-350,737	67,036	-0,110	0,082
-349,723	-144,924	0,023	0,002
-348,708	-160,141	0,059	-0,002
-347,693	552,705	0,006	-0,011
-346,679	-200,000	-0,009	-0,112
-345,664	-200,000	0,013	-0,085
-344,650	199,413	-0,035	0,039
-343,635	-174,599	0,067	-0,001
-342,620	190,426	0,123	-0,135
-341,606	800,000	0,032	-0,065
-340,591	-200,000	0,008	0,033
-339,577	800,000	-0,040	-0,093
-338,562	226,265	0,031	0,036
-337,548	38,445	0,095	0,062
-336,533	-200,000	-0,006	-0,022
-335,518	345,940	-0,042	0,061
-334,504	-89,773	0,115	0,024
-333,489	-200,000	0,031	-0,143
-332,475	-135,900	0,150	-0,013
-331,460	-200,000	0,008	0,071
-330,445	17,509	-0,101	0,059
-329,431	-171,296	0,167	0,004
-328,416	-200,000	-0,019	0,095
-327,402	800,000	-0,054	0,118
-326,387	-200,000	0,008	-0,052
-325,372	-119,373	-0,091	-0,011
-324,358	-94,533	0,044	-0,009
-323,343	-10,338	-0,093	0,045
-322,329	-55,139	-0,060	-0,020
-321,314	-200,000	0,011	0,046
-320,299	800,000	-0,048	0,114
-319,285	-88,594	-0,133	-0,029
-318,270	144,547	-0,077	-0,075
-317,256	195,877	0,150	-0,167
-316,241	-91,579	-0,145	0,030
-315,226	-200,000	-0,022	-0,108
-314,212	91,218	0,113	0,093
-313,197	-200,000	-0,033	0,145
-312,183	800,000	-0,023	0,069
-311,168	636,268	0,044	-0,082
-310,153	-200,000	0,016	-0,055
-309,139	670,703	0,051	0,098
-308,124	-58,698	-0,079	0,025
-307,110	-31,830	0,073	-0,030
-306,095	329,554	0,016	0,022
-305,080	800,000	0,052	-0,166
-304,066	216,787	-0,080	0,093
-303,051	-8,771	-0,024	-0,012
-302,037	-118,261	0,019	-0,002
-301,022	-8,104	0,022	0,011
-300,008	3,251	0,150	-0,079
-298,993	-200,000	0,002	0,089
-297,978	414,944	0,051	-0,080
-296,964	134,550	-0,094	0,089
-295,949	800,000	0,021	-0,058
-294,935	-164,931	0,038	0,001
-293,920	-36,306	0,128	-0,050
-292,905	105,038	0,017	0,015
-291,891	-109,056	-0,056	-0,009
-290,876	800,000	0,042	0,118
-289,862	-53,218	0,106	-0,036
-288,847	149,279	-0,076	0,076
-287,832	138,495	-0,080	-0,077
-286,818	-200,000	0,026	0,134
-285,803	800,000	0,062	-0,195
-284,789	-35,309	0,036	-0,014
-283,774	72,051	0,108	-0,082
-282,759	228,207	0,085	-0,101
-281,745	-142,996	0,101	-0,007
-280,730	171,514	-0,073	0,077
-279,716	-200,000	-0,034	-0,127
-278,701	293,745	0,009	-0,012
-277,686	-200,000	0,012	0,093
-276,672	-27,250	-0,028	0,012
-275,657	-200,000	-0,008	-0,113
-274,643	-200,000	-0,021	-0,106
-273,628	800,000	-0,043	-0,088
-272,613	-200,000	-0,033	0,176
-271,599	-119,731	0,067	0,008
-270,584	-144,181	-0,032	-0,002
-269,570	253,516	0,058	0,072
-268,555	87,475	-0,173	-0,140
-267,540	234,515	-0,059	-0,072
-266,526	10,650	0,143	-0,080
-265,511	103,615	-0,089	0,077
-264,497	800,000	0,015	0,040
-263,482	-118,010	0,079	-0,010
-262,467	18,417	0,112	0,065
-261,453	-103,916	-0,112	0,019
-260,438	800,000	0,027	0,064
-259,424	30,936	-0,141	-0,088
-258,409	800,000	0,062	-0,174
-257,395	687,386	0,032	-0,061
-256,380	-200,000	0,008	0,054
-255,365	-200,000	0,016	0,059
-254,351	-0,981	0,057	-0,029
-253,336	-200,000	-0,009	-0,033
-252,322	81,523	-0,043	-0,034
-251,307	20,190	0,107	-0,063
-250,292	8,562	-0,021	0,012
-249,278	-27,502	0,035	-0,015
-248,263	-35,105	0,104	-0,041
-247,249	47,885	-0,168	0,114
-246,234	-38,133	0,047	0,018
-245,219	-200,000	0,026	-0,159
-244,205	288,705	0,020	-0,027
-243,190	59,987	-0,003	0,002
-242,176	326,122	-0,033	0,047
-241,161	322,823	0,112	0,157
-240,146	-4,988	0,125	0,063
-239,132	-104,962	0,114	-0,019
-238,117	-200,000	-0,002	-0,066
-237,103	280,144	-0,085	-0,112
-236,088	-119,118	-0,043	0,005
-235,073	210,508	-0,088	0,101
-234,059	121,601	-0,038	-0,035
-233,044	708,174	0,037	-0,071
-232,030	-200,000	-0,003	-0,015
-231,015	-62,639	0,160	0,048
-230,000	-56,574	-0,157	0,051
-228,986	-147,388	0,013	-0,001
-227,971	55,979	-0,065	0,046
-226,957	-13,721	0,088	0,042
-225,942	-141,731	0,156	0,011
-224,927	512,124	-0,013	0,022
-223,913	-200,000	0,020	0,093
-222,898	-36,191	-0,082	-0,032
-221,884	-200,000	-0,027	-0,088
-220,869	349,266	0,031	0,045
-219,855	-9,523	0,031	-0,015
-218,840	46,259	-0,098	-0,066
-217,825	-200,000	0,026	0,108
-216,811	50,211	-0,032	-0,022
-215,796	-70,000	-0,159	-0,044
-214,782	800,000	-0,038	-0,106
-213,767	-36,237	-0,114	-0,045
-212,752	-1,256	0,024	0,012
-211,738	-200,000	0,102	-0,000
-210,723	28,375	0,028	0,017
-209,709	21,981	-0,099	0,059
-208,694	286,337	-0,040	-0,052
-207,679	-200,000	-0,022	0,100
-206,665	66,893	0,090	-0,067
-205,650	63,695	0,071	-0,052
-204,636	163,668	-0,059	0,061
-203,621	266,262	-0,056	0,072
-202,606	-88,974	0,040	0,009
-201,592	-172,585	-0,052	-0,001
-200,577	-161,152	0,025	0,001
-199,563	-200,000	0,013	-0,094
-198,548	800,000	-0,048	-0,123
-197,533	67,504	0,082	-0,061
-196,519	800,000	0,033	0,074
-195,504	800,000	-0,056	0,133
-194,490	-15,135	-0,030	-0,014
-193,475	-66,777	-0,045	-0,013
-192,460	-200,000	-0,038	0,142
-191,446	-200,000	0,003	-0,131
-190,431	505,053	0,069	-0,118
-189,417	156,865	-0,033	-0,033
-188,402	800,000	-0,043	0,097
-187,387	-200,000	-0,014	0,072
-186,373	-27,257	-0,112	0,047
-185,358	544,593	0,072	0,126
-184,344	715,378	0,036	0,070
-183,329	-200,000	-0,020	0,207
-182,315	800,000	0,044	0,140
-181,300	3,791	-0,052	0,027
-180,285	-20,334	-0,088	-0,039
-179,271	-104,596	0,050	0,008
-178,256	800,000	-0,033	-0,088
-177,242	411,610	0,036	0,055
-176,227	-200,000	0,003	0,123
-175,212	-14,396	-0,026	0,012
-174,198	-163,776	0,088	-0,003
-173,183	89,470	-0,014	0,011
-172,169	-200,000	0,005	0,057
-171,154	800,000	0,015	0,035
-170,139	61,213	0,043	-0,031
-169,125	800,000	-0,026	-0,068
-168,110	-149,734	0,138	-0,008
-167,096	636,240	-0,083	-0,154
-166,081	42,559	0,109	0,072
-165,066	-113,265	0,086	0,012
-164,052	-200,000	-0,024	-0,212
-163,037	800,000	0,015	0,033
-162,023	205,431	0,090	0,102
-161,008	117,783	0,097	0,087
-159,993	-200,000	-0,014	-0,100
-158,979	-200,000	-0,017	0,085
-157,964	7,391	-0,108	-0,059
-156,950	164,627	0,083	-0,085
-155,935	25,900	0,051	0,031
-154,920	-200,000	-0,008	-0,072
-153,906	800,000	-0,023	0,062
-152,891	400,679	-0,035	-0,053
-151,877	-200,000	0,010	0,057
-150,862	-200,000	0,004	-0,144
-149,847	82,611	0,095	-0,075
-148,833	-117,813	0,110	-0,014
-147,818	372,421	-0,075	0,111
-146,804	-104,199	-0,032	0,005
-145,789	-27,147	0,050	0,021
-144,775	13,206	0,030	-0,017
-143,760	800,000	0,030	0,062
-142,745	668,300	0,049	-0,093
-141,731	-29,611	0,115	0,048
-140,716	-77,476	-0,072	-0,018
-139,702	523,310	0,027	0,047
-138,687	570,784	0,040	0,071
-137,672	116,964	0,077	0,069
-136,658	117,296	-0,048	-0,043
-135,643	79,047	-0,136	-0,106
-134,629	28,980	-0,079	-0,048
-133,614	-200,000	0,017	0,087
-132,599	756,592	-0,018	-0,035
-131,585	-97,982	0,099	0,018
-130,570	142,162	0,125	0,121
-129,556	-200,000	-0,007	-0,034
-128,541	391,953	-0,042	-0,064
-127,526	-200,000	-0,015	-0,069
-126,512	197,289	-0,043	0,047
-125,497	-200,000	-0,003	0,153
-124,483	800,000	-0,060	-0,145
-123,468	191,678	0,085	0,093
-122,453	-200,000	-0,002	-0,128
-121,439	225,563	-0,032	-0,038
-120,424	49,163	-0,177	-0,121
-119,410	29,086	0,056	0,035
-118,395	294,065	-0,112	-0,150
-117,380	691,916	0,071	0,135
-116,366	-71,323	-0,035	-0,009
-115,351	77,598	-0,093	-0,072
-114,337	66,436	-0,049	-0,036
-113,322	-200,000	-0,033	0,181
-112,307	800,000	0,024	0,052
-111,293	800,000	0,057	0,141
-110,278	245,096	0,114	0,140
-109,264	800,000	0,023	0,058
-108,249	322,837	-0,085	0,118
-107,234	-93,339	0,070	-0,014
-106,220	98,842	0,033	0,027
-105,205	194,443	0,068	0,075
-104,191	41,943	-0,036	0,024
-103,176	800,000	0,076	0,160
-102,162	71,916	0,037	0,028
-101,147	244,985	-0,059	0,072
-100,132	-200,000	-0,004	0,123
-99,118	-72,298	0,086	0,023
-98,103	-200,000	-0,001	-0,055
-97,089	800,000	-0,026	-0,075
-96,074	800,000	-0,056	0,159
-95,059	-66,171	0,039	0,011
-94,045	90,079	0,014	0,011
-93,030	-86,036	-0,096	-0,021
-92,016	471,124	-0,036	-0,059
-91,001	201,831	-0,040	-0,045
-89,986	72,275	0,142	0,107
-88,972	573,149	0,050	0,089
-87,957	162,161	0,045	-0,045
-86,943	800,000	-0,039	0,085
-85,928	-64,600	-0,089	-0,026
-84,913	-114,457	-0,046	-0,006
-83,899	249,019	-0,153	-0,188
-82,884	-200,000	0,000	-0,118
-81,870	-29,524	0,099	0,041
-80,855	800,000	0,014	0,038
-79,840	-200,000	0,006	-0,029
-78,826	178,724	0,044	0,047
-77,811	-0,050	-0,050	-0,026
-76,797	-200,000	-0,007	0,045
-75,782	-200,000	-0,015	0,164
-74,767	31,610	0,128	0,080
-73,753	-109,429	-0,020	-0,003
-72,738	-200,000	0,014	-0,153
-71,724	400,178	-0,065	-0,100
-70,709	123,723	-0,080	-0,073
-69,694	800,000	-0,015	-0,042
-68,680	800,000	0,017	0,040
-67,665	585,764	0,018	-0,033
-66,651	107,163	-0,087	-0,075
-65,636	-66,231	0,109	0,031
-64,622	-23,046	0,113	0,049
-63,607	218,857	-0,090	-0,105
-62,592	463,208	0,010	-0,016
-61,578	-200,000	-0,008	-0,091
-60,563	-200,000	-0,043	0,199
-59,549	-200,000	-0,007	0,148
-58,534	-125,788	-1,376	-0,149
-57,519	758,597	-0,734	-1,450
-56,505	-200,000	-0,881	-4,392
-55,490	85,094	0,567	-0,451
-54,476	800,000	4,945	11,785
-53,461	-200,000	13,325	253,667
-52,446	-200,000	689,236	2270,067
-51,432	595,778	1623,124	2927,037
-50,417	120,875	1636,212	1476,344
-49,403	73,578	1290,249	979,378
-48,388	38,464	1025,016	661,505
-47,373	24,537	982,682	588,370
-46,359	23,751	972,314	579,561
-45,344	22,887	968,066	574,180
-44,330	22,762	966,749	572,967
-43,315	22,668	965,327	571,796
-42,300	22,652	964,288	571,107
-41,286	22,665	963,299	570,541
-40,271	22,583	962,408	569,722
-39,257	22,620	961,398	569,222
-38,242	22,595	960,522	568,601
-37,227	22,581	959,621	567,998
-36,213	22,600	958,793	567,547
-35,198	22,584	957,833	566,907
-34,184	22,648	957,159	566,691
-33,169	22,566	956,371	565,938
-32,154	22,703	955,349	565,753
-31,140	22,681	954,478	565,144
-30,125	22,718	953,711	564,787
-29,111	22,678	953,011	564,219
-28,096	22,624	952,354	563,633
-27,082	22,630	951,604	563,187
-26,067	22,705	950,817	562,939
-25,052	22,668	950,097	562,374
-24,038	22,683	949,378	561,973
-23,023	22,636	948,871	561,500
-22,009	22,754	948,051	561,370
-20,994	22,624	947,592	560,659
-19,979	22,702	946,888	560,471
-18,965	22,676	946,269	560,000
-17,950	22,643	945,780	559,583
-16,936	22,618	944,984	559,009
-15,921	22,631	944,321	558,635
-14,906	22,574	943,510	557,953
-13,892	22,543	942,908	557,475
-12,877	22,551	942,268	557,101
-11,863	22,490	941,828	556,623
-10,848	22,488	941,321	556,296
-9,833	22,629	940,637	556,318
-8,819	22,655	940,051	556,032
-7,804	22,584	939,367	555,380
-6,790	22,501	938,917	554,829
-5,775	22,625	938,076	554,702
-4,760	22,568	937,651	554,248
-3,746	22,526	937,119	553,779
-2,731	22,448	936,379	553,076
-1,717	22,403	935,570	552,433
-0,702	22,363	934,919	551,901
0,313	22,203	934,232	551,822
1,327	25,187	932,212	559,968
2,342	34,765	796,556	503,999
3,356	32,700	451,667	282,644
4,371	1,835	293,542	152,930
5,386	-2,613	274,425	138,754
6,400	-4,142	268,751	134,455
7,415	-4,560	266,332	132,849
8,429	-4,328	265,142	132,455
9,444	-4,186	264,224	132,114
10,459	-4,177	263,541	131,769
11,473	-4,252	263,048	131,444
12,488	-4,305	262,631	131,175
13,502	-4,474	262,023	130,707
14,517	-4,316	261,424	130,539
15,531	-4,524	261,240	130,248
16,546	-4,350	260,789	130,168
17,561	-4,405	260,584	130,004
18,575	-4,243	260,082	129,888
19,590	-4,503	259,882	129,544
20,604	-4,325	259,564	129,533
21,619	-4,559	259,330	129,195
22,634	-4,246	258,816	129,207
23,648	-4,271	258,612	129,071
24,663	-4,372	258,310	128,819
25,677	-4,367	258,162	128,738
26,692	-4,304	257,890	128,647
27,707	-4,516	257,609	128,308
28,721	-4,301	257,337	128,351
29,736	-4,495	257,038	128,019
30,750	-4,414	256,813	127,967
31,765	-4,313	256,615	127,946
32,780	-4,578	256,445	127,616
33,794	-4,375	256,229	127,676
34,809	-4,497	255,877	127,382
35,823	-4,381	255,608	127,339
36,838	-4,374	255,256	127,158
37,853	-4,425	255,135	127,042
38,867	-4,471	254,868	126,857
39,882	-4,554	254,841	126,760
40,896	-4,533	254,580	126,637
41,911	-4,462	254,366	126,581
42,926	-4,333	254,067	126,533
43,940	-4,340	253,878	126,422
44,955	-4,705	253,608	125,958
45,969	-4,666	253,374	125,865
46,984	-4,638	253,095	125,739
47,999	-4,771	252,882	125,507
49,013	-5,104	252,618	125,075
50,028	-5,142	252,355	124,900
51,042	-5,240	252,215	124,735
52,057	-5,081	251,826	124,670
53,071	-4,976	251,742	124,707
54,086	-5,079	251,562	124,518
55,101	-5,051	251,504	124,502
56,115	-4,770	251,361	124,663
57,130	-4,492	251,231	124,828
58,144	-4,251	251,129	124,974
59,159	-4,034	250,686	124,929
60,174	-4,252	250,584	124,680
61,188	-4,202	250,331	124,586
62,203	-4,135	250,115	124,525
63,217	-4,283	250,035	124,347
64,232	-4,326	249,701	124,133
65,247	-4,128	249,527	124,204
66,261	-4,320	249,236	123,884
67,276	-4,506	249,159	123,676
68,290	-4,499	248,799	123,492
69,305	-4,813	248,694	123,161
70,320	-4,928	248,457	122,935
71,334	-4,452	248,456	123,329
72,349	-4,286	248,247	123,355
73,363	-4,199	247,964	123,278
74,378	-4,272	247,816	123,132
75,393	-4,428	247,641	122,901
76,407	-4,309	247,404	122,873
77,422	-4,312	247,114	122,716
78,436	-4,170	246,943	122,740
79,451	-4,229	246,702	122,560
80,466	-4,275	246,565	122,442
81,480	-4,442	246,329	122,172
82,495	-4,566	246,153	121,969
83,509	-4,631	245,981	121,819
84,524	-4,613	245,632	121,650
85,539	-4,806	245,504	121,414
86,553	-4,649	245,242	121,405
87,568	-4,570	245,104	121,392
88,582	-4,646	245,045	121,289
89,597	-4,553	244,696	121,183
90,611	-4,469	244,593	121,191
91,626	-4,320	244,564	121,291
92,641	-4,416	244,274	121,056
93,655	-4,520	244,164	120,904
94,670	-4,425	243,981	120,882
95,684	-4,555	243,811	120,679
96,699	-4,451	243,538	120,620
97,714	-4,411	243,266	120,507
98,728	-4,821	243,209	120,127
99,743	-4,638	242,907	120,119
100,757	-4,782	242,830	119,950
101,772	-4,768	242,594	119,835
102,787	-4,536	242,453	119,947
103,801	-4,504	242,184	119,830
104,816	-4,582	242,226	119,775
105,830	-4,371	242,017	119,836
106,845	-4,514	241,853	119,625
107,860	-4,400	241,450	119,510
108,874	-4,339	241,347	119,499
109,889	-4,499	241,178	119,272
110,903	-4,543	240,965	119,121
111,918	-4,453	240,663	119,034
112,933	-4,621	240,725	118,916
113,947	-4,335	240,478	119,018
114,962	-4,482	240,324	118,811
115,976	-4,455	240,174	118,748
116,991	-4,274	239,917	118,759
118,006	-4,593	239,870	118,464
119,020	-4,313	239,765	118,631
120,035	-4,271	239,534	118,541
121,049	-4,298	239,472	118,477
122,064	-4,464	239,221	118,207
123,079	-4,489	239,102	118,116
124,093	-4,582	238,794	117,879
125,108	-4,632	238,645	117,753
126,122	-4,786	238,409	117,501
127,137	-4,873	238,129	117,282
128,151	-4,918	238,046	117,194
129,166	-4,514	237,803	117,391
130,181	-4,708	237,579	117,114
131,195	-4,817	237,552	117,001
132,210	-4,556	237,369	117,113
133,224	-4,365	237,202	117,174
134,239	-4,384	237,068	117,082
135,254	-4,454	237,046	117,004
136,268	-4,523	236,644	116,740
137,283	-4,619	236,244	116,455
138,297	-4,773	236,252	116,324
139,312	-4,877	235,873	116,043
140,327	-4,462	235,964	116,412
141,341	-4,170	235,917	116,613
142,356	-4,164	235,808	116,553
143,370	-4,182	235,660	116,456
144,385	-3,990	235,486	116,513
145,400	-4,050	235,206	116,316
146,414	-4,317	235,124	116,051
147,429	-4,041	234,820	116,112
148,443	-4,293	234,786	115,883
149,458	-4,177	234,643	115,894
150,473	-4,102	234,407	115,828
151,487	-4,299	234,346	115,630
152,502	-4,206	233,955	115,501
153,516	-4,264	234,004	115,469
154,531	-4,106	233,657	115,413
155,546	-4,229	233,520	115,237
156,560	-4,286	233,396	115,120
157,575	-4,312	233,145	114,966
158,589	-4,214	233,012	114,967
159,604	-4,146	232,949	114,980
160,619	-4,136	232,719	114,864
161,633	-4,146	232,658	114,816
162,648	-3,988	232,433	114,820
163,662	-4,212	232,418	114,625
164,677	-4,300	232,293	114,483
165,692	-4,296	232,060	114,361
166,706	-4,178	231,881	114,356
167,721	-3,915	231,603	114,416
168,735	-4,077	231,547	114,250
169,750	-4,039	231,414	114,205
170,764	-4,136	231,210	114,018
171,779	-4,212	231,195	113,940
172,794	-3,994	231,058	114,035
173,808	-4,116	230,633	113,719
174,823	-4,259	230,254	113,409
175,837	-4,700	230,190	113,022
176,852	-4,192	230,308	113,468
177,867	-4,162	230,245	113,450
178,881	-3,965	230,134	113,540
179,896	-4,011	229,922	113,389
180,910	-4,114	229,692	113,186
181,925	-4,121	229,621	113,135
182,940	-4,053	229,429	113,083
183,954	-3,983	229,187	113,009
184,969	-3,988	228,969	112,887
185,983	-3,862	229,015	112,997
186,998	-3,655	228,764	113,025
188,013	-3,579	228,549	112,967
189,027	-3,953	228,462	112,624
190,042	-3,972	228,387	112,562
191,056	-3,943	228,123	112,444
192,071	-4,043	227,949	112,271
193,086	-3,879	227,989	112,407
194,100	-3,875	227,623	112,221
195,115	-4,192	227,421	111,866
196,129	-4,563	227,347	111,533
197,144	-1,934	227,935	113,844
198,159	1,691	229,061	117,208
199,173	4,022	229,599	119,281
200,188	4,422	229,473	119,514
201,202	4,143	229,290	119,193
202,217	4,197	229,395	119,278
203,232	4,683	229,157	119,519
204,246	4,881	228,961	119,560
205,261	4,756	228,855	119,398
206,275	4,681	228,805	119,303
207,290	4,798	228,698	119,326
208,304	4,839	228,505	119,247
209,319	4,912	228,285	119,178
210,334	4,865	227,956	118,959
211,348	4,706	227,759	118,723
212,363	4,306	227,501	118,272
213,377	3,958	227,327	117,904
214,392	3,857	227,138	117,718
215,407	4,066	227,186	117,893
216,421	3,892	226,963	117,633
217,436	3,896	226,780	117,531
218,450	3,877	226,556	117,389
219,465	3,747	226,334	117,165
220,480	3,854	226,291	117,214
221,494	3,846	226,205	117,153
222,509	3,764	226,117	117,034
223,523	4,179	225,854	117,203
224,538	3,915	225,662	116,893
225,553	4,071	225,669	117,004
226,567	4,250	225,498	117,041
227,582	4,267	225,497	117,043
228,596	4,384	225,395	117,068
229,611	4,090	225,045	116,654
230,626	3,790	224,864	116,323
231,640	3,698	224,787	116,202
232,655	4,100	224,669	116,436
233,669	4,605	224,635	116,789
234,684	4,618	224,654	116,798
235,699	4,638	224,361	116,650
236,713	4,111	224,133	116,124
237,728	3,981	223,843	115,866
238,742	3,749	223,668	115,590
239,757	3,907	223,594	115,661
240,772	3,891	223,438	115,558
241,786	3,901	223,287	115,476
242,801	4,167	223,248	115,646
243,815	4,189	223,129	115,591
244,830	4,387	222,911	115,616
245,844	4,090	222,779	115,314
246,859	4,070	222,613	115,203
247,874	4,308	222,499	115,312
248,888	4,143	222,373	115,113
249,903	4,125	222,152	114,975
250,917	4,027	221,901	114,762
251,932	3,888	221,882	114,638
252,947	3,898	221,644	114,513
253,961	3,859	221,579	114,439
254,976	3,833	221,436	114,336
255,990	4,079	221,370	114,475
257,005	4,130	221,153	114,390
258,020	4,071	221,148	114,334
259,034	4,457	221,075	114,572
260,049	4,133	220,902	114,232
261,063	4,020	220,651	114,008
262,078	4,118	220,537	114,012
263,093	4,332	220,466	114,123
264,107	4,148	220,282	113,882
265,122	4,171	220,095	113,792
266,136	4,668	219,948	114,073
267,151	4,609	219,752	113,917
268,166	3,964	219,745	113,428
269,180	3,687	219,422	113,047
270,195	3,843	219,253	113,065
271,209	3,648	219,164	112,865
272,224	3,955	219,091	113,043
273,239	4,094	218,900	113,037
274,253	4,071	218,688	112,900
275,268	3,791	218,568	112,623
276,282	3,784	218,222	112,430
277,297	3,607	218,131	112,243
278,312	3,825	218,068	112,360
279,326	3,862	218,136	112,412
280,341	4,128	217,893	112,472
281,355	3,966	217,756	112,272
282,370	3,918	217,627	112,160
283,384	3,677	217,385	111,850
284,399	3,544	217,235	111,667
285,414	3,609	217,190	111,681
286,428	4,134	217,051	111,981
287,443	4,114	216,913	111,885
288,457	4,158	216,798	111,848
289,472	4,048	216,625	111,669
290,487	3,578	216,324	111,163
291,501	3,697	216,208	111,180
292,516	3,690	216,118	111,119
293,530	3,838	215,963	111,136
294,545	3,537	215,915	110,884
295,560	3,715	215,738	110,912
296,574	3,900	215,624	110,977
297,589	4,070	215,470	111,010
298,603	4,126	215,451	111,031
299,618	4,306	215,066	110,953
300,633	4,053	215,112	110,784
301,647	4,358	214,960	110,915
302,662	4,280	214,914	110,825
303,676	3,947	214,861	110,549
304,691	4,220	214,630	110,616
305,706	4,269	214,470	110,558
306,720	4,231	214,402	110,487
307,735	3,782	214,131	110,015
308,749	3,945	213,974	110,042
309,764	3,989	213,985	110,069
310,779	4,271	213,834	110,183
311,793	4,336	213,606	110,102
312,808	3,968	213,564	109,808
313,822	4,313	213,191	109,853
314,837	4,046	213,103	109,607
315,852	3,762	212,985	109,335
316,866	3,916	212,865	109,373
317,881	4,015	212,906	109,455
318,895	4,338	212,710	109,573
319,910	4,087	212,370	109,211
320,925	3,820	212,251	108,951
321,939	3,528	212,106	108,659
322,954	3,646	212,075	108,717
323,968	4,147	211,924	108,985
324,983	4,091	211,927	108,937
325,997	4,042	211,839	108,847
327,012	3,964	211,618	108,669
328,027	4,080	211,478	108,670
329,041	4,450	211,561	108,964
330,056	4,313	211,406	108,777
331,070	3,990	210,957	108,309
332,085	3,726	210,780	108,023
333,100	3,869	210,691	108,068
334,114	4,273	210,415	108,201
335,129	3,933	210,487	107,989
336,143	3,978	210,259	107,894
337,158	3,831	210,137	107,719
338,173	3,951	210,050	107,749
339,187	3,635	209,905	107,443
340,202	3,705	209,725	107,391
341,216	3,503	209,550	107,150
342,231	3,620	209,590	107,243
343,246	3,742	209,412	107,228
344,260	3,611	209,360	107,101
345,275	3,747	209,170	107,088
346,289	4,321	208,898	107,339
347,304	4,245	208,860	107,257
348,319	4,088	208,719	107,066
349,333	3,971	208,607	106,917
350,348	3,992	208,502	106,869
351,362	4,098	208,505	106,935
352,377	4,071	208,324	106,813
353,392	3,808	208,264	106,591
354,406	4,047	208,005	106,614
355,421	193,592	1345,801	1433,164
356,435	154,434	1484,532	1433,273
