DTS Sentinel unit serial number:	SN410029Multiplexer serial number:	ORYXHardware model number:	OX2-SRSoftware version number:	ORYX F/W v4,00 Oryx Data Collector v3.7.2.0data status	okinstallation	B6 Nyhavnadifferential loss correction	single-endedforward channel	channel 2reverse channel	N/Adate	2023/12/11time	07:50:08forward acquisition time	300,00reverse acquisition time	0,00gamma	499,1914k internal	0,3128k external	0,3128temperature offset calibration	1,0000default loss term (dB/km)	0,3820temperature slope calibration	1,0000multiplexer offset coefficient	1,0000multiplexer slope coefficient	1,0000fibre end	0,00T internal ref (°C)	18,61T ext. ref 1 (°C)	0,94T ext. ref 2 (°C)	0,96length (m)	temperature (°C)	Stokes	anti-Stokes-744,400	27,028	-0,117	0,073
-743,385	-141,985	-0,246	0,018
-742,371	218,033	0,132	0,157
-741,356	-50,921	-0,298	0,104
-740,342	800,000	-0,005	-0,010
-739,327	-133,805	-0,404	-0,037
-738,312	538,470	0,024	0,043
-737,298	-113,248	-0,172	0,025
-736,283	-163,289	0,019	0,001
-735,269	-24,440	-0,183	0,081
-734,254	270,314	-0,038	-0,050
-733,239	-52,529	-0,398	-0,136
-732,225	-197,785	0,195	-0,001
-731,210	-95,408	-0,053	0,010
-730,196	226,011	0,017	-0,020
-729,181	-105,672	0,110	-0,018
-728,167	-104,067	0,092	-0,016
-727,152	800,000	-0,011	0,025
-726,137	-33,878	-0,131	-0,053
-725,123	-200,000	-0,021	-0,148
-724,108	52,992	-0,168	-0,120
-723,094	-73,123	-0,080	-0,022
-722,079	-27,425	-0,032	-0,014
-721,064	1,080	0,074	0,040
-720,050	169,824	0,019	0,021
-719,035	65,662	-0,112	-0,085
-718,021	-200,000	-0,011	-0,037
-717,006	-80,157	-0,076	0,019
-715,991	-50,523	-0,160	-0,056
-714,977	18,935	-0,115	0,068
-713,962	-58,254	-0,015	0,005
-712,948	-136,853	-0,137	-0,012
-711,933	800,000	0,034	-0,083
-710,918	15,334	-0,044	0,026
-709,904	44,180	0,112	0,077
-708,889	574,750	-0,041	-0,075
-707,875	393,132	0,051	-0,079
-706,860	252,560	0,072	-0,092
-705,845	276,919	0,071	-0,094
-704,831	387,681	0,114	0,176
-703,816	-200,000	-0,006	0,081
-702,802	367,038	0,026	-0,039
-701,787	-200,000	-0,018	-0,112
-700,772	372,508	0,016	0,025
-699,758	712,520	0,026	-0,051
-698,743	800,000	0,041	0,105
-697,729	93,660	0,026	0,021
-696,714	9,023	0,085	-0,048
-695,699	-52,807	-0,042	-0,014
-694,685	-4,211	-0,056	-0,029
-693,670	197,774	-0,019	0,021
-692,656	-139,304	-0,072	-0,006
-691,641	-200,000	-0,002	0,019
-690,627	800,000	0,040	-0,088
-689,612	573,391	-0,091	-0,166
-688,597	-66,957	0,076	0,022
-687,583	192,532	-0,012	0,014
-686,568	-200,000	0,010	0,046
-685,554	227,616	-0,046	-0,056
-684,539	134,695	0,082	-0,079
-683,524	767,980	-0,030	-0,060
-682,510	800,000	-0,012	0,033
-681,495	263,585	-0,107	0,138
-680,481	120,706	-0,011	0,010
-679,466	59,457	-0,219	-0,160
-678,451	800,000	-0,034	0,099
-677,437	-27,697	-0,060	-0,026
-676,422	800,000	0,023	0,057
-675,408	-71,864	-0,161	-0,044
-674,393	14,451	-0,119	-0,069
-673,378	-108,279	-0,063	0,010
-672,364	-141,161	-0,048	0,004
-671,349	-200,000	-0,047	-0,170
-670,335	342,895	0,078	-0,114
-669,320	594,824	0,033	-0,060
-668,305	-95,576	0,016	0,003
-667,291	800,000	0,020	0,054
-666,276	800,000	-0,036	0,075
-665,262	171,964	-0,067	-0,071
-664,247	800,000	-0,071	-0,195
-663,232	557,164	-0,054	-0,098
-662,218	212,295	0,135	0,158
-661,203	-48,132	0,087	0,031
-660,189	162,627	-0,060	-0,063
-659,174	-200,000	-0,009	0,140
-658,159	800,000	0,021	-0,064
-657,145	-88,829	-0,097	-0,021
-656,130	-200,000	0,032	-0,176
-655,116	-60,135	-0,164	0,051
-654,101	472,801	-0,060	0,101
-653,086	-200,000	0,001	-0,124
-652,072	391,274	-0,096	-0,148
-651,057	1,215	-0,114	-0,061
-650,043	-200,000	0,001	0,007
-649,028	397,283	0,014	0,022
-648,014	24,754	-0,037	0,022
-646,999	-173,746	0,076	0,002
-645,984	198,068	-0,056	-0,063
-644,970	379,489	-0,070	-0,107
-643,955	140,120	-0,117	-0,115
-642,941	30,050	-0,082	0,052
-641,926	-8,000	-0,055	-0,028
-640,911	800,000	-0,053	-0,152
-639,897	494,458	0,040	0,068
-638,882	-200,000	0,005	0,091
-637,868	362,996	0,061	0,091
-636,853	-25,825	-0,058	0,025
-635,838	-130,293	-0,126	0,013
-634,824	-101,024	-0,119	0,021
-633,809	-3,126	0,148	-0,076
-632,795	115,596	0,136	0,124
-631,780	-76,755	0,103	-0,027
-630,765	-114,071	-0,114	-0,016
-629,751	-173,327	0,170	-0,004
-628,736	30,977	-0,119	-0,076
-627,722	-200,000	0,027	-0,092
-626,707	115,609	0,018	-0,016
-625,692	-18,652	-0,079	0,037
-624,678	-19,778	-0,110	0,050
-623,663	-200,000	0,006	-0,072
-622,649	-33,408	-0,066	-0,027
-621,634	800,000	0,042	-0,091
-620,619	-88,902	-0,050	-0,011
-619,605	800,000	-0,021	0,052
-618,590	-76,293	0,123	-0,032
-617,576	33,305	-0,148	0,095
-616,561	1,965	-0,055	-0,029
-615,546	331,760	-0,057	-0,081
-614,532	34,404	0,025	0,016
-613,517	-200,000	0,010	-0,074
-612,503	628,613	0,033	0,063
-611,488	800,000	-0,037	-0,079
-610,474	-200,000	0,010	0,071
-609,459	-200,000	0,004	-0,156
-608,444	149,877	0,077	-0,078
-607,430	328,878	-0,078	-0,111
-606,415	800,000	-0,042	-0,116
-605,401	-200,000	-0,006	-0,049
-604,386	-103,812	0,108	-0,019
-603,371	280,911	-0,025	-0,033
-602,357	-171,949	-0,128	-0,003
-601,342	629,532	-0,042	0,080
-600,328	1,754	0,053	-0,028
-599,313	-170,774	-0,066	0,002
-598,298	-109,071	0,146	0,023
-597,284	-200,000	0,013	0,113
-596,269	800,000	0,044	0,114
-595,255	515,613	0,016	0,028
-594,240	446,130	0,034	0,055
-593,225	-200,000	-0,059	-0,211
-592,211	126,315	-0,170	-0,160
-591,196	139,650	0,039	-0,038
-590,182	-82,677	-0,043	-0,010
-589,167	-200,000	-0,001	0,140
-588,152	134,592	0,116	0,111
-587,138	-200,000	0,002	-0,032
-586,123	800,000	-0,034	0,080
-585,109	494,943	-0,038	-0,065
-584,094	-90,863	0,127	0,027
-583,079	800,000	-0,020	0,062
-582,065	81,820	0,061	0,049
-581,050	800,000	-0,012	0,034
-580,036	185,193	0,023	0,026
-579,021	-200,000	0,005	-0,087
-578,006	43,066	-0,167	0,113
-576,992	-200,000	0,016	-0,087
-575,977	-34,802	-0,030	-0,012
-574,963	-103,431	0,082	0,014
-573,948	800,000	-0,023	0,052
-572,934	-130,542	-0,023	0,002
-571,919	728,411	0,093	-0,184
-570,904	800,000	-0,013	0,037
-569,890	417,865	-0,039	-0,062
-568,875	-117,863	0,260	0,034
-567,861	-2,261	-0,121	0,062
-566,846	-200,000	0,001	-0,131
-565,831	524,777	0,053	-0,093
-564,817	-131,235	-0,206	0,020
-563,802	-200,000	-0,004	0,033
-562,788	-200,000	0,026	-0,087
-561,773	132,613	0,088	-0,084
-560,758	-116,640	0,086	-0,012
-559,744	800,000	0,025	-0,066
-558,729	800,000	-0,070	0,156
-557,715	61,661	0,062	0,046
-556,700	-108,289	0,062	0,010
-555,685	-13,126	-0,071	-0,034
-554,671	-200,000	0,007	-0,129
-553,656	-200,000	0,027	0,153
-552,642	800,000	-0,027	0,069
-551,627	24,307	0,058	-0,036
-550,612	238,007	0,062	0,076
-549,598	-200,000	-0,016	0,073
-548,583	371,301	-0,061	-0,091
-547,569	-200,000	0,033	-0,138
-546,554	-69,970	0,038	0,011
-545,539	31,142	0,105	-0,067
-544,525	-81,408	0,119	-0,029
-543,510	-125,764	-0,062	0,007
-542,496	40,689	-0,008	-0,005
-541,481	28,280	0,058	-0,036
-540,466	-41,034	-0,091	0,034
-539,452	275,665	0,008	0,010
-538,437	-86,851	0,040	-0,009
-537,423	-200,000	-0,003	-0,015
-536,408	13,733	-0,087	0,050
-535,393	800,000	0,019	-0,057
-534,379	-200,000	0,016	-0,102
-533,364	-187,070	-0,045	0,000
-532,350	370,865	-0,022	-0,034
-531,335	103,467	0,072	-0,063
-530,321	169,150	-0,058	0,061
-529,306	125,618	-0,094	0,088
-528,291	285,477	0,023	-0,030
-527,277	637,268	-0,021	0,039
-526,262	157,120	-0,078	-0,080
-525,248	-97,323	0,078	-0,015
-524,233	-200,000	0,009	0,070
-523,218	-2,229	0,079	0,041
-522,204	-200,000	0,024	0,129
-521,189	-125,969	0,005	-0,001
-520,175	446,618	0,061	-0,099
-519,160	84,597	-0,065	-0,052
-518,145	-101,602	0,032	0,006
-517,131	-200,000	-0,024	-0,079
-516,116	71,904	0,049	0,037
-515,102	-200,000	-0,001	0,093
-514,087	-53,553	-0,081	0,027
-513,072	-64,956	-0,022	0,007
-512,058	-200,000	0,008	0,046
-511,043	800,000	-0,028	0,062
-510,029	-200,000	-0,002	0,111
-509,014	711,284	0,051	-0,101
-507,999	-138,793	-0,115	-0,009
-506,985	58,828	0,033	0,024
-505,970	-164,352	0,084	-0,003
-504,956	-200,000	0,033	-0,131
-503,941	9,866	-0,049	-0,027
-502,926	800,000	0,049	0,102
-501,912	-200,000	0,017	0,097
-500,897	82,573	-0,035	0,028
-499,883	232,880	-0,031	-0,038
-498,868	-200,000	0,020	-0,073
-497,853	53,202	-0,028	-0,020
-496,839	462,913	0,075	-0,124
-495,824	-56,696	0,047	0,015
-494,810	-167,072	0,154	0,005
-493,795	-119,163	-0,044	-0,006
-492,781	-45,388	-0,107	-0,039
-491,766	18,475	0,081	-0,048
-490,751	123,415	-0,089	-0,082
-489,737	-104,112	0,087	0,015
-488,722	-0,244	-0,083	-0,043
-487,708	800,000	-0,007	0,020
-486,693	800,000	-0,027	-0,071
-485,678	800,000	-0,042	0,128
-484,664	-92,738	-0,059	-0,012
-483,649	-200,000	0,004	0,018
-482,635	-200,000	-0,006	-0,025
-481,620	35,320	0,087	0,056
-480,605	40,983	0,061	-0,041
-479,591	-77,235	-0,057	-0,015
-478,576	64,488	-0,024	-0,017
-477,562	-200,000	0,011	-0,055
-476,547	-200,000	-0,017	-0,105
-475,532	7,802	-0,050	-0,027
-474,518	180,000	-0,080	-0,086
-473,503	-6,905	0,101	-0,051
-472,489	669,273	-0,023	0,045
-471,474	-150,182	-0,143	0,008
-470,459	226,507	0,044	-0,053
-469,445	-200,000	-0,034	0,140
-468,430	-154,972	-0,109	-0,005
-467,416	-108,707	-0,157	0,025
-466,401	800,000	0,042	0,124
-465,386	278,099	0,048	0,063
-464,372	158,196	-0,042	-0,043
-463,357	-200,000	0,004	0,062
-462,343	757,330	0,067	-0,134
-461,328	558,152	0,068	-0,120
-460,313	186,451	0,059	0,065
-459,299	127,628	0,044	0,041
-458,284	-200,000	0,022	0,129
-457,270	-200,000	-0,007	0,036
-456,255	-113,349	-0,156	-0,022
-455,241	-82,333	0,064	0,015
-454,226	800,000	-0,032	0,067
-453,211	-200,000	-0,010	0,172
-452,197	748,782	0,089	0,177
-451,182	-200,000	-0,011	0,103
-450,168	800,000	0,045	0,110
-449,153	-200,000	0,005	-0,017
-448,138	393,055	0,077	0,119
-447,124	532,114	-0,060	-0,105
-446,109	238,521	-0,049	-0,060
-445,095	-71,103	0,055	-0,015
-444,080	-97,945	0,103	-0,019
-443,065	117,785	-0,076	-0,069
-442,051	800,000	0,011	-0,034
-441,036	73,016	-0,041	0,032
-440,022	37,035	-0,030	0,020
-439,007	-58,432	-0,115	-0,036
-437,992	-20,034	-0,066	-0,030
-436,978	-62,689	0,122	-0,037
-435,963	413,177	0,026	-0,041
-434,949	556,346	0,061	-0,109
-433,934	-200,000	-0,011	-0,038
-432,919	-200,000	-0,056	-0,189
-431,905	-200,000	0,016	-0,098
-430,890	-200,000	-0,007	0,145
-429,876	-169,267	0,016	-0,000
-428,861	215,021	0,072	0,084
-427,846	-200,000	-0,032	0,110
-426,832	-200,000	-0,041	-0,205
-425,817	-1,871	-0,160	0,083
-424,803	800,000	-0,034	0,092
-423,788	800,000	0,003	0,007
-422,773	484,124	0,099	0,165
-421,759	-50,990	0,165	0,056
-420,744	1,609	0,013	-0,007
-419,730	-59,642	-0,057	0,018
-418,715	800,000	0,034	0,082
-417,701	800,000	-0,071	0,176
-416,686	-57,266	-0,025	0,008
-415,671	-200,000	-0,011	-0,122
-414,657	-200,000	0,029	0,193
-413,642	40,727	0,038	-0,025
-412,628	91,914	0,076	0,063
-411,613	656,524	0,014	0,026
-410,598	-40,206	-0,155	-0,059
-409,584	-200,000	0,021	-0,074
-408,569	108,079	-0,050	0,044
-407,555	800,000	0,053	0,132
-406,540	99,467	-0,049	0,042
-405,525	92,414	-0,092	-0,077
-404,511	-200,000	-0,005	-0,081
-403,496	-89,926	0,051	0,011
-402,482	800,000	-0,028	0,061
-401,467	68,134	-0,090	-0,068
-400,452	33,934	-0,065	-0,041
-399,438	354,159	-0,145	0,212
-398,423	58,586	-0,018	0,013
-397,409	100,079	-0,109	-0,093
-396,394	479,945	-0,014	0,023
-395,379	25,275	-0,061	-0,037
-394,365	277,643	0,066	0,086
-393,350	-200,000	-0,000	0,035
-392,336	-200,000	-0,053	0,175
-391,321	-200,000	-0,001	-0,028
-390,306	-200,000	0,006	0,100
-389,292	763,267	-0,058	-0,116
-388,277	800,000	-0,054	0,122
-387,263	-99,545	0,109	-0,020
-386,248	-200,000	-0,004	-0,036
-385,233	185,499	0,092	0,100
-384,219	99,785	-0,147	0,125
-383,204	-51,525	-0,109	-0,037
-382,190	-200,000	0,004	-0,061
-381,175	-104,289	-0,116	-0,020
-380,160	800,000	-0,044	0,102
-379,146	-200,000	-0,027	0,104
-378,131	-200,000	0,026	0,238
-377,117	-78,883	0,101	0,025
-376,102	-60,550	0,022	0,007
-375,088	-108,005	0,070	-0,011
-374,073	147,457	0,029	-0,029
-373,058	-89,627	0,131	-0,028
-372,044	670,612	-0,037	0,070
-371,029	507,201	-0,006	0,010
-370,015	681,443	0,017	-0,033
-369,000	800,000	-0,041	-0,106
-367,985	-200,000	0,012	-0,154
-366,971	-11,978	0,105	-0,050
-365,956	-67,191	0,111	-0,032
-364,942	-100,292	0,030	-0,005
-363,927	-30,726	0,094	0,039
-362,912	222,601	-0,023	-0,028
-361,898	2,867	-0,036	0,019
-360,883	-200,000	-0,014	-0,072
-359,869	-132,732	0,078	-0,007
-358,854	-200,000	0,022	0,093
-357,839	42,661	0,048	-0,032
-356,825	800,000	0,039	0,120
-355,810	80,194	0,068	0,054
-354,796	800,000	0,016	0,040
-353,781	-200,000	0,016	-0,256
-352,766	440,607	0,013	-0,021
-351,752	364,273	0,056	-0,083
-350,737	-145,772	-0,027	-0,002
-349,723	278,633	0,067	-0,087
-348,708	384,347	-0,064	0,097
-347,693	278,756	0,034	0,044
-346,679	36,405	0,056	-0,036
-345,664	145,279	-0,073	-0,072
-344,650	-30,409	-0,082	-0,034
-343,635	-79,911	0,091	-0,022
-342,620	253,844	0,065	-0,081
-341,606	15,434	-0,122	-0,070
-340,591	-64,407	0,149	0,044
-339,577	800,000	-0,010	-0,022
-338,562	241,933	-0,107	-0,132
-337,548	49,029	0,077	0,053
-336,533	-76,072	-0,083	-0,021
-335,518	-49,982	0,004	0,001
-334,504	-120,404	0,131	0,016
-333,489	800,000	-0,025	0,068
-332,475	-123,539	-0,114	-0,013
-331,460	741,116	-0,013	-0,026
-330,445	-39,282	0,084	-0,032
-329,431	-31,438	0,071	0,029
-328,416	403,852	0,012	0,018
-327,402	385,119	0,030	-0,045
-326,387	574,369	0,061	-0,109
-325,372	519,843	-0,025	-0,043
-324,358	-200,000	0,015	-0,052
-323,343	-200,000	0,010	0,195
-322,329	13,817	0,055	-0,031
-321,314	-25,133	0,045	0,020
-320,299	-38,446	-0,146	0,056
-319,285	441,263	-0,014	0,022
-318,270	-200,000	-0,017	-0,073
-317,256	-3,695	0,070	0,035
-316,241	-22,078	0,017	-0,007
-315,226	66,083	0,055	-0,041
-314,212	-84,823	0,132	-0,030
-313,197	-68,993	0,049	0,014
-312,183	146,650	0,052	-0,051
-311,168	118,344	-0,150	-0,135
-310,153	44,081	-0,076	0,051
-309,139	25,063	-0,069	-0,042
-308,124	-142,479	-0,025	0,002
-307,110	-200,000	0,028	0,104
-306,095	66,945	-0,100	0,075
-305,080	-89,817	-0,094	0,020
-304,066	360,506	0,050	-0,073
-303,051	-200,000	-0,007	-0,078
-302,037	82,290	-0,030	0,024
-301,022	-170,513	0,055	-0,001
-300,008	-55,587	0,065	-0,021
-298,993	800,000	0,004	-0,013
-297,978	-5,269	0,059	-0,030
-296,964	-200,000	-0,004	0,061
-295,949	-200,000	-0,029	0,098
-294,935	-200,000	-0,011	-0,064
-293,920	573,042	-0,016	-0,029
-292,905	800,000	-0,046	-0,146
-291,891	-122,801	0,018	0,002
-290,876	177,619	-0,056	-0,059
-289,862	71,397	0,028	0,021
-288,847	693,247	0,021	0,040
-287,832	-200,000	-0,013	-0,075
-286,818	-115,852	0,040	-0,005
-285,803	376,555	-0,053	0,079
-284,789	4,678	0,082	0,044
-283,774	-115,213	-0,063	0,009
-282,759	800,000	-0,024	-0,059
-281,745	-200,000	0,003	0,018
-280,730	-200,000	0,039	-0,127
-279,716	375,577	0,035	-0,053
-278,701	-200,000	-0,000	0,102
-277,686	-200,000	-0,008	0,090
-276,672	184,739	0,171	0,186
-275,657	287,836	-0,021	-0,028
-274,643	9,847	-0,021	0,011
-273,628	800,000	0,020	-0,049
-272,613	-195,911	-0,092	0,000
-271,599	259,526	-0,083	0,105
-270,584	165,016	-0,048	-0,049
-269,570	660,345	0,041	0,078
-268,555	-27,492	-0,203	0,086
-267,540	119,986	-0,078	-0,070
-266,526	-67,229	0,062	0,018
-265,511	-200,000	-0,006	-0,108
-264,497	0,385	0,112	-0,058
-263,482	-138,652	-0,122	0,010
-262,467	-65,701	0,100	0,029
-261,453	174,467	-0,058	-0,061
-260,438	-151,175	-0,070	-0,004
-259,424	107,739	0,021	-0,019
-258,409	280,692	-0,054	0,071
-257,395	800,000	-0,042	-0,107
-256,380	-200,000	0,006	0,040
-255,365	84,265	0,079	0,063
-254,351	-49,983	-0,137	-0,047
-253,336	272,754	0,071	-0,092
-252,322	800,000	0,043	-0,124
-251,307	57,358	-0,061	-0,043
-250,292	142,042	0,073	-0,070
-249,278	75,149	-0,045	-0,035
-248,263	800,000	-0,047	-0,124
-247,249	800,000	0,063	-0,152
-246,234	287,916	-0,035	0,046
-245,219	-48,226	-0,014	-0,005
-244,205	800,000	0,030	0,072
-243,190	120,247	-0,065	0,059
-242,176	-200,000	0,025	0,140
-241,161	138,534	0,031	-0,029
-240,146	5,289	-0,147	0,079
-239,132	95,142	-0,052	-0,043
-238,117	132,717	0,054	-0,051
-237,103	373,193	-0,047	-0,070
-236,088	800,000	0,061	-0,132
-235,073	-135,375	0,078	-0,007
-234,059	205,450	0,030	0,034
-233,044	-200,000	-0,045	0,172
-232,030	86,681	-0,040	-0,032
-231,015	-21,863	0,082	-0,036
-230,000	101,592	-0,059	-0,050
-228,986	-200,000	0,016	-0,076
-227,971	3,970	0,049	0,026
-226,957	141,707	0,107	-0,103
-225,942	229,638	0,071	-0,085
-224,927	800,000	0,035	0,078
-223,913	525,494	-0,044	-0,076
-222,898	-51,910	-0,040	-0,013
-221,884	-150,618	-0,158	0,009
-220,869	-106,749	0,117	-0,019
-219,855	78,144	0,102	0,079
-218,840	-81,756	-0,122	0,029
-217,825	-200,000	-0,025	-0,101
-216,811	-69,281	-0,086	0,024
-215,796	-200,000	0,038	-0,158
-214,782	-200,000	0,021	-0,148
-213,767	404,731	0,068	0,105
-212,752	61,098	0,125	0,091
-211,738	-145,461	0,117	-0,008
-210,723	-185,806	-0,070	-0,001
-209,709	431,915	0,007	0,010
-208,694	-200,000	-0,005	0,088
-207,679	-18,168	-0,083	-0,038
-206,665	243,733	0,085	-0,105
-205,650	288,834	-0,023	0,030
-204,636	-200,000	0,029	-0,120
-203,621	-9,640	0,105	0,051
-202,606	-31,150	-0,108	0,044
-201,592	408,516	0,005	0,008
-200,577	762,013	-0,012	0,025
-199,563	-114,367	-0,071	0,010
-198,548	-200,000	0,014	0,064
-197,533	-40,860	0,032	0,012
-196,519	34,033	0,112	0,071
-195,504	24,523	-0,076	-0,046
-194,490	-123,175	0,090	-0,010
-193,475	267,228	0,067	-0,086
-192,460	800,000	0,048	0,104
-191,446	234,118	0,039	-0,047
-190,431	-58,547	0,138	0,043
-189,417	-200,000	0,012	-0,057
-188,402	-72,859	-0,097	-0,026
-187,387	141,480	-0,045	-0,043
-186,373	-69,434	-0,085	0,024
-185,358	590,600	-0,022	-0,040
-184,344	-200,000	-0,008	0,098
-183,329	317,119	0,071	0,099
-182,315	-107,358	0,104	0,016
-181,300	-28,247	-0,123	0,052
-180,285	67,987	-0,039	-0,029
-179,271	-26,197	-0,045	-0,019
-178,256	-182,116	-0,090	0,001
-177,242	-200,000	-0,020	0,159
-176,227	-41,339	0,096	0,036
-175,212	-200,000	-0,057	0,000
-174,198	800,000	-0,021	-0,043
-173,183	800,000	0,021	0,053
-172,169	-74,459	0,056	0,014
-171,154	-29,127	0,148	0,061
-170,139	800,000	0,022	0,056
-169,125	45,275	0,099	0,067
-168,110	56,929	0,065	0,046
-167,096	-85,863	0,142	-0,032
-166,081	626,402	-0,097	0,179
-165,066	14,465	-0,065	-0,037
-164,052	303,080	-0,050	-0,067
-163,037	-200,000	0,001	0,025
-162,023	-200,000	0,015	0,122
-161,008	-61,060	-0,105	-0,032
-159,993	596,125	-0,086	0,156
-158,979	84,673	0,084	-0,067
-157,964	-200,000	0,004	0,069
-156,950	800,000	0,047	-0,134
-155,935	73,911	-0,078	0,060
-154,920	321,738	0,061	0,084
-153,906	332,610	0,176	0,247
-152,891	-124,329	-0,133	-0,015
-151,877	85,849	0,085	-0,068
-150,862	691,836	-0,030	0,058
-149,847	-200,000	-0,031	-0,212
-148,833	-116,262	-0,162	-0,022
-147,818	800,000	0,015	-0,047
-146,804	-151,281	0,023	0,001
-145,789	-0,212	-0,072	0,037
-144,775	5,510	-0,072	-0,039
-143,760	800,000	-0,038	-0,102
-142,745	-200,000	0,005	-0,031
-141,731	-106,982	0,140	-0,022
-140,716	19,664	-0,128	-0,075
-139,702	800,000	0,012	0,030
-138,687	800,000	-0,030	-0,062
-137,672	800,000	0,050	-0,155
-136,658	-150,419	-0,156	0,009
-135,643	-200,000	0,000	0,070
-134,629	-188,923	0,042	0,000
-133,614	-107,720	0,164	0,026
-132,599	-133,439	0,063	0,006
-131,585	-40,593	-0,043	-0,016
-130,570	800,000	0,041	0,099
-129,556	5,176	-0,124	-0,066
-128,541	-27,684	-0,038	0,016
-127,526	-200,000	0,033	0,125
-126,512	-44,234	0,130	-0,047
-125,497	58,126	-0,063	0,045
-124,483	55,416	0,098	0,069
-123,468	36,773	-0,078	0,050
-122,453	-200,000	0,015	-0,074
-121,439	-93,680	-0,063	0,013
-120,424	-2,955	0,106	0,053
-119,410	63,831	0,101	0,074
-118,395	144,551	0,138	0,134
-117,380	-85,876	0,121	0,027
-116,366	-200,000	0,001	0,129
-115,351	-200,000	0,013	-0,148
-114,337	-42,885	0,123	-0,045
-113,322	77,764	0,047	-0,037
-112,307	71,032	-0,059	-0,044
-111,293	800,000	0,030	0,065
-110,278	301,692	0,015	0,020
-109,264	-1,649	0,055	-0,028
-108,249	-200,000	-0,028	-0,097
-107,234	-64,597	0,195	-0,057
-106,220	14,573	-0,070	0,039
-105,205	201,057	-0,064	0,072
-104,191	-200,000	0,019	0,124
-103,176	-200,000	0,001	0,047
-102,162	92,551	-0,041	-0,034
-101,147	98,960	-0,059	0,049
-100,132	327,461	-0,116	-0,162
-99,118	-200,000	0,003	-0,061
-98,103	108,415	0,059	-0,051
-97,089	-115,176	0,069	0,009
-96,074	800,000	0,015	-0,043
-95,059	800,000	0,039	-0,098
-94,045	370,700	0,051	-0,075
-93,030	-24,463	0,068	-0,029
-92,016	108,057	-0,144	-0,125
-91,001	384,627	0,094	-0,141
-89,986	-18,496	-0,014	0,006
-88,972	-112,133	-0,113	0,016
-87,957	683,745	0,025	-0,047
-86,943	-168,744	-0,045	0,001
-85,928	194,949	-0,079	-0,088
-84,913	-117,957	-0,114	-0,015
-83,899	-200,000	0,004	0,034
-82,884	-200,000	-0,003	-0,035
-81,870	-28,844	0,030	-0,012
-80,855	-200,000	0,022	-0,100
-79,840	-200,000	0,002	0,031
-78,826	-123,032	-0,100	-0,012
-77,811	371,806	0,027	-0,040
-76,797	-200,000	0,006	0,039
-75,782	-25,664	0,187	-0,080
-74,767	54,791	-0,043	0,030
-73,753	-113,873	-0,174	0,024
-72,738	22,309	0,102	0,060
-71,724	-8,848	-0,074	0,036
-70,709	68,739	-0,071	0,053
-69,694	800,000	0,018	0,045
-68,680	-74,837	0,084	0,022
-67,665	-107,027	-0,094	0,015
-66,651	-200,000	-0,013	0,087
-65,636	0,308	-0,091	0,047
-64,622	-200,000	0,022	-0,100
-63,607	130,019	0,062	0,057
-62,592	-200,000	0,002	0,090
-61,578	178,416	-0,055	0,058
-60,563	800,000	0,036	0,084
-59,549	299,667	0,103	0,138
-58,534	-54,625	-1,679	-0,547
-57,519	656,174	-0,588	-1,099
-56,505	-200,000	-1,167	-4,736
-55,490	-149,719	0,525	0,029
-54,476	800,000	5,160	12,175
-53,461	-200,000	15,812	280,001
-52,446	-200,000	700,512	2274,184
-51,432	591,131	1615,359	2900,011
-50,417	125,663	1620,594	1482,600
-49,403	88,757	1281,624	1031,949
-48,388	38,130	1026,149	660,182
-47,373	21,885	988,108	581,958
-46,359	20,626	976,851	571,146
-45,344	18,899	972,619	562,965
-44,330	18,961	971,420	562,453
-43,315	18,750	969,655	560,715
-42,300	18,696	968,585	559,898
-41,286	18,660	967,693	559,243
-40,271	18,646	966,616	558,551
-39,257	18,728	965,864	558,363
-38,242	18,679	964,981	557,671
-37,227	18,632	964,326	557,117
-36,213	18,620	963,571	556,617
-35,198	18,620	962,403	555,921
-34,184	18,653	961,751	555,630
-33,169	18,679	960,780	555,133
-32,154	18,722	959,897	554,740
-31,140	18,619	959,170	553,963
-30,125	18,696	958,125	553,589
-29,111	18,686	957,671	553,270
-28,096	18,700	957,000	552,907
-27,082	18,683	956,288	552,417
-26,067	18,662	955,553	551,902
-25,052	18,651	954,586	551,289
-24,038	18,679	953,774	550,888
-23,023	18,600	953,210	550,286
-22,009	18,648	952,542	550,031
-20,994	18,660	952,020	549,748
-19,979	18,637	951,268	549,217
-18,965	18,627	950,562	548,757
-17,950	18,627	950,302	548,585
-16,936	18,594	949,464	547,974
-15,921	18,569	948,831	547,504
-14,906	18,566	948,040	547,018
-13,892	18,512	947,275	546,380
-12,877	18,486	946,808	546,007
-11,863	18,445	946,223	545,518
-10,848	18,489	945,690	545,330
-9,833	18,604	945,051	545,305
-8,819	18,531	944,622	544,804
-7,804	18,463	944,166	544,303
-6,790	18,550	943,213	544,007
-5,775	18,554	942,941	543,843
-4,760	18,566	942,064	543,352
-3,746	18,569	941,486	543,007
-2,731	18,457	940,698	542,175
-1,717	18,383	940,033	541,536
-0,702	18,391	939,471	541,216
0,313	18,136	938,769	540,817
1,327	21,372	937,015	550,020
2,342	30,692	794,623	491,285
3,356	27,401	447,879	271,944
4,371	-3,887	294,020	147,176
5,386	-7,945	275,293	133,937
6,400	-9,533	269,392	129,577
7,415	-9,896	267,204	128,177
8,429	-9,374	266,103	128,118
9,444	-9,392	265,307	127,707
10,459	-8,999	264,627	127,727
11,473	-9,048	264,241	127,485
12,488	-8,935	263,659	127,295
13,502	-9,104	263,176	126,897
14,517	-8,941	262,935	126,918
15,531	-8,378	262,596	127,253
16,546	-8,374	262,303	127,103
17,561	-8,342	261,845	126,899
18,575	-8,203	261,674	126,930
19,590	-8,317	261,307	126,638
20,604	-8,309	260,973	126,472
21,619	-8,402	260,567	126,181
22,634	-8,425	260,245	125,993
23,648	-8,318	259,868	125,895
24,663	-8,382	259,860	125,822
25,677	-8,512	259,467	125,504
26,692	-8,483	259,254	125,417
27,707	-8,378	258,950	125,352
28,721	-8,256	258,735	125,345
29,736	-8,242	258,509	125,238
30,750	-8,358	258,126	124,937
31,765	-8,353	257,962	124,851
32,780	-8,427	257,832	124,711
33,794	-8,388	257,650	124,647
34,809	-8,264	257,298	124,575
35,823	-8,474	257,064	124,265
36,838	-8,333	256,798	124,250
37,853	-8,570	256,616	123,942
38,867	-8,523	256,492	123,911
39,882	-8,437	256,150	123,812
40,896	-8,318	255,944	123,806
41,911	-8,472	255,834	123,606
42,926	-8,300	255,466	123,569
43,940	-8,514	255,206	123,244
44,955	-8,507	255,100	123,188
45,969	-8,553	254,755	122,970
46,984	-8,771	254,650	122,717
47,999	-8,706	254,318	122,603
49,013	-8,851	254,114	122,367
50,028	-8,832	253,844	122,242
51,042	-8,934	253,643	122,046
52,057	-8,999	253,342	121,834
53,071	-8,892	253,148	121,822
54,086	-8,772	253,104	121,895
55,101	-8,917	252,841	121,631
56,115	-8,687	252,622	121,715
57,130	-8,391	252,510	121,907
58,144	-8,494	252,352	121,730
59,159	-8,335	252,039	121,706
60,174	-8,522	251,943	121,488
61,188	-8,544	251,653	121,318
62,203	-8,601	251,452	121,160
63,217	-8,392	251,350	121,281
64,232	-8,505	251,047	121,027
65,247	-8,600	250,716	120,775
66,261	-8,624	250,610	120,692
67,276	-8,601	250,338	120,570
68,290	-8,600	250,130	120,461
69,305	-8,827	249,730	120,062
70,320	-8,977	249,690	119,903
71,334	-8,561	249,552	120,183
72,349	-8,607	249,510	120,113
73,363	-8,718	249,239	119,876
74,378	-8,514	248,958	119,905
75,393	-8,557	248,830	119,796
76,407	-8,566	248,609	119,671
77,422	-8,494	248,390	119,616
78,436	-8,588	248,124	119,398
79,451	-8,740	247,957	119,178
80,466	-8,485	247,665	119,243
81,480	-8,544	247,614	119,158
82,495	-8,740	247,395	118,876
83,509	-8,557	247,212	118,932
84,524	-8,479	247,052	118,910
85,539	-8,682	246,788	118,601
86,553	-8,553	246,365	118,496
87,568	-8,733	246,410	118,355
88,582	-8,523	246,127	118,385
89,597	-8,952	246,037	117,970
90,611	-8,682	245,816	118,081
91,626	-8,785	245,758	117,956
92,641	-8,485	245,521	118,084
93,655	-8,695	245,272	117,778
94,670	-8,656	245,113	117,723
95,684	-8,828	244,969	117,499
96,699	-8,542	244,683	117,592
97,714	-8,581	244,419	117,421
98,728	-8,709	244,382	117,286
99,743	-8,664	244,121	117,188
100,757	-8,670	244,013	117,121
101,772	-8,929	243,799	116,791
102,787	-8,525	243,391	116,922
103,801	-8,808	243,491	116,724
104,816	-8,593	243,300	116,801
105,830	-8,568	243,034	116,683
106,845	-8,836	242,874	116,373
107,860	-8,786	242,709	116,326
108,874	-8,508	242,487	116,440
109,889	-8,857	242,208	116,006
110,903	-8,982	242,058	115,820
111,918	-8,912	241,937	115,810
112,933	-8,803	241,832	115,840
113,947	-8,786	241,578	115,721
114,962	-8,832	241,437	115,606
115,976	-8,742	241,306	115,607
116,991	-8,613	241,107	115,608
118,006	-8,445	240,785	115,582
119,020	-8,710	240,748	115,335
120,035	-8,549	240,628	115,400
121,049	-8,719	240,460	115,169
122,064	-8,587	240,240	115,162
123,079	-8,652	239,978	114,973
124,093	-8,799	239,786	114,750
125,108	-8,860	239,658	114,629
126,122	-8,965	239,468	114,442
127,137	-8,804	239,396	114,529
128,151	-8,874	238,981	114,262
129,166	-8,700	238,834	114,324
130,181	-8,854	238,845	114,193
131,195	-8,794	238,452	114,044
132,210	-8,950	238,436	113,899
133,224	-8,924	238,218	113,807
134,239	-9,019	238,034	113,631
135,254	-8,882	237,727	113,585
136,268	-8,976	237,506	113,394
137,283	-8,989	237,504	113,372
138,297	-8,999	237,286	113,250
139,312	-9,071	237,168	113,125
140,327	-8,916	236,931	113,127
141,341	-8,593	236,873	113,351
142,356	-8,566	236,695	113,277
143,370	-8,710	236,655	113,132
144,385	-8,426	236,405	113,231
145,400	-8,278	236,347	113,312
146,414	-8,468	236,118	113,040
147,429	-8,515	235,856	112,866
148,443	-8,574	235,599	112,685
149,458	-8,588	235,555	112,644
150,473	-8,517	235,286	112,562
151,487	-8,778	235,072	112,240
152,502	-8,458	234,913	112,410
153,516	-8,276	234,754	112,470
154,531	-8,548	234,589	112,163
155,546	-8,571	234,560	112,121
156,560	-8,604	234,321	111,970
157,575	-8,840	234,223	111,725
158,589	-8,723	233,804	111,609
159,604	-8,359	233,813	111,893
160,619	-8,379	233,823	111,872
161,633	-8,266	233,467	111,782
162,648	-8,293	233,396	111,716
163,662	-8,258	233,129	111,606
164,677	-8,405	232,900	111,370
165,692	-8,615	232,938	111,212
166,706	-8,312	232,812	111,382
167,721	-8,215	232,692	111,391
168,735	-8,189	232,648	111,381
169,750	-8,533	232,308	110,936
170,764	-8,608	232,246	110,838
171,779	-8,381	231,912	110,847
172,794	-8,356	231,783	110,795
173,808	-8,610	231,592	110,494
174,823	-8,720	231,225	110,222
175,837	-9,056	231,086	109,882
176,852	-8,837	230,936	109,974
177,867	-8,531	230,901	110,187
178,881	-8,524	230,839	110,154
179,896	-8,442	230,642	110,114
180,910	-8,338	230,496	110,115
181,925	-8,282	230,307	110,059
182,940	-8,618	230,229	109,749
183,954	-8,528	230,003	109,702
184,969	-8,505	230,060	109,738
185,983	-8,230	229,878	109,856
186,998	-8,262	229,742	109,756
188,013	-8,266	229,501	109,629
189,027	-8,307	229,426	109,551
190,042	-8,543	229,232	109,264
191,056	-8,288	228,974	109,330
192,071	-8,506	228,746	109,042
193,086	-8,633	228,544	108,837
194,100	-9,275	228,080	108,109
195,115	-10,788	227,359	106,589
196,129	-10,999	227,479	106,472
197,144	-6,446	228,929	110,681
198,159	-0,759	230,331	115,786
199,173	2,386	231,471	118,808
200,188	3,347	231,302	119,461
201,202	3,530	231,417	119,653
202,217	3,765	231,422	119,828
203,232	3,960	231,174	119,841
204,246	3,791	231,123	119,672
205,261	3,885	230,873	119,605
206,275	4,067	230,822	119,710
207,290	3,964	230,601	119,504
208,304	3,957	230,513	119,442
209,319	3,976	230,191	119,280
210,334	3,809	230,093	119,089
211,348	3,659	229,776	118,798
212,363	3,156	229,538	118,275
213,377	2,849	229,360	117,936
214,392	2,839	229,071	117,770
215,407	2,772	228,929	117,634
216,421	2,494	228,751	117,318
217,436	2,547	228,475	117,206
218,450	2,628	228,378	117,209
219,465	2,543	228,112	116,996
220,480	2,612	228,108	117,037
221,494	2,549	227,988	116,917
222,509	2,621	227,987	116,961
223,523	2,825	227,750	116,985
224,538	2,817	227,557	116,870
225,553	2,862	227,329	116,776
226,567	2,629	227,296	116,571
227,582	2,719	227,092	116,524
228,596	2,782	226,999	116,515
229,611	2,658	226,773	116,294
230,626	2,368	226,819	116,085
231,640	2,700	226,491	116,160
232,655	2,531	226,493	116,022
233,669	2,739	226,198	116,019
234,684	2,848	226,103	116,043
235,699	2,385	226,135	115,697
236,713	2,672	225,873	115,771
237,728	2,803	225,769	115,806
238,742	2,658	225,712	115,657
239,757	2,888	225,409	115,665
240,772	2,970	225,123	115,570
241,786	3,087	225,170	115,673
242,801	3,268	225,086	115,756
243,815	3,194	225,014	115,653
244,830	3,052	224,777	115,414
245,844	2,951	224,551	115,211
246,859	3,003	224,401	115,163
247,874	3,195	224,163	115,175
248,888	2,855	224,155	114,905
249,903	2,947	223,884	114,824
250,917	2,882	223,795	114,720
251,932	2,856	223,784	114,685
252,947	2,973	223,519	114,626
253,961	2,960	223,344	114,517
254,976	2,882	223,276	114,414
255,990	2,969	223,113	114,384
257,005	2,927	223,085	114,329
258,020	3,191	222,813	114,377
259,034	3,199	222,784	114,357
260,049	3,345	222,541	114,331
261,063	3,328	222,358	114,215
262,078	2,932	222,415	113,938
263,093	3,053	222,125	113,870
264,107	3,004	222,023	113,771
265,122	2,921	221,903	113,637
266,136	2,897	221,747	113,530
267,151	3,168	221,536	113,612
268,166	3,106	221,270	113,420
269,180	2,856	221,179	113,178
270,195	2,989	221,089	113,220
271,209	2,927	220,856	113,045
272,224	2,835	220,896	112,987
273,239	2,860	220,660	112,875
274,253	2,801	220,443	112,711
275,268	2,998	220,194	112,718
276,282	2,727	220,149	112,485
277,297	2,737	220,046	112,430
278,312	2,700	219,788	112,260
279,326	2,871	219,768	112,366
280,341	3,004	219,603	112,370
281,355	2,979	219,467	112,272
282,370	2,677	219,335	111,973
283,384	2,766	219,270	111,994
284,399	2,815	218,982	111,874
285,414	2,802	218,883	111,803
286,428	2,877	218,734	111,772
287,443	2,983	218,750	111,849
288,457	3,103	218,738	111,920
289,472	2,943	218,343	111,591
290,487	2,729	218,145	111,324
291,501	2,877	217,933	111,313
292,516	2,813	217,819	111,199
293,530	2,817	217,837	111,201
294,545	2,831	217,740	111,152
295,560	3,130	217,607	111,291
296,574	2,941	217,478	111,078
297,589	3,167	217,229	111,105
298,603	3,049	217,173	110,981
299,618	3,256	217,068	111,068
300,633	3,154	217,010	110,954
301,647	3,274	216,737	110,891
302,662	3,295	216,613	110,833
303,676	3,346	216,501	110,803
304,691	3,354	216,229	110,660
305,706	3,192	216,259	110,548
306,720	3,206	216,096	110,465
307,735	3,165	215,846	110,297
308,749	2,935	215,800	110,099
309,764	3,095	215,670	110,138
310,779	3,433	215,365	110,216
311,793	3,126	215,325	109,965
312,808	2,976	215,292	109,830
313,822	3,018	215,094	109,749
314,837	2,997	214,906	109,628
315,852	2,749	214,785	109,379
316,866	2,935	214,690	109,454
317,881	3,187	214,398	109,476
318,895	3,055	214,392	109,368
319,910	3,003	214,129	109,188
320,925	2,823	214,235	109,103
321,939	2,809	213,831	108,878
322,954	2,709	213,851	108,807
323,968	2,774	213,658	108,745
324,983	2,879	213,627	108,794
325,997	3,036	213,558	108,861
327,012	2,951	213,182	108,600
328,027	2,801	213,155	108,470
329,041	2,905	213,040	108,475
330,056	2,897	212,842	108,359
331,070	2,600	212,706	108,070
332,085	2,761	212,566	108,103
333,100	2,887	212,592	108,196
334,114	3,063	212,251	108,138
335,129	3,157	212,020	108,077
336,143	2,748	212,012	107,773
337,158	2,781	212,013	107,788
338,173	3,045	211,798	107,855
339,187	2,618	211,609	107,448
340,202	2,693	211,446	107,409
341,216	2,932	211,174	107,429
342,231	2,846	211,328	107,437
343,246	2,704	211,156	107,240
344,260	2,778	211,069	107,239
345,275	2,884	210,907	107,222
346,289	2,989	210,804	107,233
347,304	3,111	210,560	107,185
348,319	3,374	210,330	107,243
349,333	2,853	210,269	106,837
350,348	2,679	210,215	106,679
351,362	2,921	210,107	106,783
352,377	3,032	210,066	106,830
353,392	2,774	209,832	106,522
354,406	2,923	209,662	106,530
355,421	193,392	1341,247	1425,675
356,435	154,340	1479,157	1425,729
