DTS Sentinel unit serial number:	SN410029Multiplexer serial number:	ORYXHardware model number:	OX2-SRSoftware version number:	ORYX F/W v4,00 Oryx Data Collector v3.7.2.0data status	okinstallation	B6 Nyhavnadifferential loss correction	single-endedforward channel	channel 2reverse channel	N/Adate	2023/12/09time	07:35:08forward acquisition time	300,00reverse acquisition time	0,00gamma	499,1914k internal	0,3139k external	0,3139temperature offset calibration	1,0000default loss term (dB/km)	0,3820temperature slope calibration	1,0000multiplexer offset coefficient	1,0000multiplexer slope coefficient	1,0000fibre end	0,00T internal ref (°C)	18,56T ext. ref 1 (°C)	1,96T ext. ref 2 (°C)	1,95length (m)	temperature (°C)	Stokes	anti-Stokes-744,400	155,247	0,104	0,106
-743,385	134,509	-0,179	0,172
-742,371	37,549	0,118	0,077
-741,356	134,523	-0,213	0,205
-740,342	172,716	-0,027	-0,029
-739,327	-42,033	-0,273	-0,103
-738,312	-55,779	0,008	-0,003
-737,298	-150,980	-0,344	0,019
-736,283	179,671	0,033	0,036
-735,269	28,681	-0,226	0,141
-734,254	800,000	-0,014	-0,030
-733,239	23,535	-0,389	-0,237
-732,225	126,698	0,131	0,123
-731,210	-77,324	-0,145	0,037
-730,196	800,000	0,058	-0,155
-729,181	-200,000	0,032	0,112
-728,167	159,344	-0,097	0,100
-727,152	152,260	0,044	-0,045
-726,137	-200,000	-0,022	-0,110
-725,123	237,827	0,045	0,055
-724,108	-90,240	-0,080	-0,017
-723,094	-171,623	-0,081	-0,002
-722,079	-17,979	-0,006	-0,003
-721,064	-63,686	-0,026	0,008
-720,050	41,666	0,053	-0,035
-719,035	263,881	0,053	0,069
-718,021	-200,000	-0,025	0,155
-717,006	-94,043	-0,048	-0,010
-715,991	329,679	-0,059	-0,085
-714,977	335,131	0,026	-0,037
-713,962	44,761	0,038	0,026
-712,948	-200,000	0,093	0,000
-711,933	42,192	0,015	-0,010
-710,918	104,927	-0,059	-0,052
-709,904	800,000	0,012	0,031
-708,889	800,000	-0,047	-0,096
-707,875	-74,039	-0,158	-0,042
-706,860	48,910	0,060	-0,042
-705,845	-136,789	0,083	-0,007
-704,831	-200,000	-0,028	-0,126
-703,816	-131,966	-0,071	0,007
-702,802	-112,267	-0,146	-0,021
-701,787	709,851	0,019	-0,038
-700,772	-146,593	-0,044	-0,003
-699,758	-200,000	0,003	-0,063
-698,743	19,373	-0,032	0,019
-697,729	800,000	0,049	0,147
-696,714	-22,309	0,110	-0,049
-695,699	125,148	-0,150	-0,140
-694,685	-200,000	-0,007	-0,038
-693,670	114,004	-0,101	-0,091
-692,656	571,029	0,043	-0,079
-691,641	-113,102	0,068	0,010
-690,627	272,032	0,025	-0,033
-689,612	303,658	-0,035	-0,048
-688,597	-63,078	0,077	0,023
-687,583	-200,000	0,017	0,146
-686,568	-200,000	-0,011	-0,058
-685,554	-150,063	-0,106	0,006
-684,539	437,501	0,053	0,086
-683,524	81,827	0,054	0,043
-682,510	198,163	-0,033	0,038
-681,495	-73,811	0,088	0,023
-680,481	71,755	-0,069	0,053
-679,466	800,000	0,037	-0,079
-678,451	-184,228	0,055	0,001
-677,437	122,654	-0,025	-0,023
-676,422	-28,128	-0,033	0,014
-675,408	-128,866	0,040	0,004
-674,393	279,690	0,110	-0,146
-673,378	-114,871	-0,058	-0,008
-672,364	-72,663	-0,181	-0,049
-671,349	-74,802	-0,077	-0,020
-670,335	227,497	-0,056	-0,068
-669,320	800,000	-0,066	0,166
-668,305	800,000	-0,081	0,168
-667,291	-200,000	0,004	-0,076
-666,276	110,238	-0,097	-0,086
-665,262	-200,000	-0,035	-0,150
-664,247	77,691	0,021	-0,017
-663,232	-150,579	-0,083	0,005
-662,218	-50,701	0,028	-0,010
-661,203	-200,000	-0,017	-0,073
-660,189	800,000	-0,027	0,062
-659,174	304,394	-0,049	-0,068
-658,159	14,105	-0,173	-0,099
-657,145	58,407	-0,022	-0,016
-656,130	-23,449	0,077	-0,034
-655,116	-200,000	0,025	0,174
-654,101	-46,732	-0,120	-0,043
-653,086	721,792	0,038	0,076
-652,072	-44,714	-0,069	-0,025
-651,057	544,425	0,098	-0,174
-650,043	664,533	0,086	-0,165
-649,028	-200,000	-0,027	-0,108
-648,014	-92,697	-0,060	0,012
-646,999	294,916	-0,021	-0,028
-645,984	798,104	-0,048	0,097
-644,970	246,372	-0,046	0,057
-643,955	-46,830	0,096	-0,035
-642,941	-51,760	-0,152	-0,052
-641,926	304,559	0,051	-0,070
-640,911	-32,723	0,040	-0,017
-639,897	64,202	0,044	-0,033
-638,882	-4,126	-0,244	0,125
-637,868	7,491	-0,105	-0,058
-636,853	292,571	-0,041	-0,056
-635,838	800,000	-0,032	-0,072
-634,824	91,698	0,117	-0,097
-633,809	133,586	0,124	0,118
-632,795	194,613	-0,071	0,079
-631,780	601,810	-0,035	0,065
-630,765	-200,000	0,009	-0,124
-629,751	334,556	-0,064	0,092
-628,736	-82,208	-0,034	-0,008
-627,722	33,605	0,065	-0,041
-626,707	800,000	0,011	0,030
-625,692	-34,717	-0,040	0,016
-624,678	46,582	0,062	-0,042
-623,663	36,554	0,060	-0,039
-622,649	-58,951	-0,027	0,008
-621,634	-101,947	0,012	0,002
-620,619	301,682	0,036	-0,049
-619,605	-65,053	-0,066	-0,020
-618,590	800,000	-0,009	-0,029
-617,576	244,031	0,077	0,096
-616,561	117,707	-0,078	0,071
-615,546	-160,074	0,003	0,000
-614,532	-200,000	-0,027	-0,127
-613,517	79,300	-0,079	-0,063
-612,503	-200,000	-0,008	0,030
-611,488	405,797	0,040	0,062
-610,474	273,443	0,082	-0,108
-609,459	-200,000	0,027	0,106
-608,444	-7,342	-0,087	-0,043
-607,430	428,921	0,069	-0,110
-606,415	206,990	-0,131	-0,151
-605,401	-200,000	0,007	-0,058
-604,386	24,481	-0,050	0,030
-603,371	-200,000	-0,048	0,158
-602,357	-120,259	-0,150	-0,019
-601,342	-200,000	0,000	-0,093
-600,328	139,415	0,077	-0,075
-599,313	314,381	0,007	-0,010
-598,298	-144,355	-0,074	0,005
-597,284	-200,000	0,012	0,148
-596,269	-200,000	0,015	0,075
-595,255	9,676	-0,121	-0,067
-594,240	4,341	0,053	-0,028
-593,225	62,289	-0,146	-0,108
-592,211	631,893	-0,047	-0,088
-591,196	-51,625	-0,059	0,020
-590,182	637,014	-0,019	-0,035
-589,167	-137,566	-0,190	0,016
-588,152	120,611	0,034	-0,031
-587,138	800,000	0,018	0,044
-586,123	-63,635	0,046	-0,014
-585,109	60,712	-0,080	0,058
-584,094	-105,875	-0,013	-0,002
-583,079	223,049	-0,068	0,081
-582,065	103,542	-0,051	-0,044
-581,050	-200,000	-0,005	0,061
-580,036	197,252	0,061	-0,069
-579,021	-200,000	0,008	-0,052
-578,006	-121,669	-0,153	0,018
-576,992	348,436	-0,019	-0,027
-575,977	-200,000	-0,035	0,117
-574,963	-109,156	0,143	-0,022
-573,948	103,658	-0,120	0,104
-572,934	-138,200	-0,182	-0,015
-571,919	-9,959	0,033	-0,016
-570,904	-71,390	0,074	0,020
-569,890	-172,734	-0,083	-0,002
-568,875	7,741	0,127	-0,070
-567,861	-2,452	-0,089	-0,046
-566,846	800,000	-0,033	0,086
-565,831	127,423	0,101	-0,095
-564,817	226,717	0,050	-0,059
-563,802	232,313	-0,041	-0,050
-562,788	179,472	-0,068	-0,073
-561,773	426,117	-0,041	-0,066
-560,758	128,036	0,051	-0,048
-559,744	25,663	-0,013	0,008
-558,729	-159,913	0,139	0,006
-557,715	800,000	-0,034	0,100
-556,700	176,748	-0,102	0,109
-555,685	174,207	-0,059	-0,063
-554,671	800,000	0,051	-0,115
-553,656	768,202	0,053	-0,107
-552,642	-59,992	0,068	0,021
-551,627	-200,000	-0,047	0,180
-550,612	730,508	-0,029	0,057
-549,598	126,097	-0,029	-0,027
-548,583	-50,369	-0,160	0,055
-547,569	521,229	0,100	-0,174
-546,554	-25,804	0,080	0,034
-545,539	-200,000	-0,030	0,110
-544,525	-200,000	-0,029	-0,109
-543,510	56,136	-0,074	0,053
-542,496	119,689	0,016	-0,014
-541,481	626,666	-0,024	0,044
-540,466	42,558	0,123	-0,082
-539,452	800,000	-0,060	0,148
-538,437	-90,377	0,090	0,019
-537,423	800,000	-0,046	0,110
-536,408	58,613	0,030	-0,022
-535,393	103,858	-0,104	0,090
-534,379	51,622	-0,055	-0,038
-533,364	-104,820	-0,114	-0,019
-532,350	-62,529	-0,068	0,021
-531,335	-90,180	-0,043	0,009
-530,321	-200,000	0,013	0,060
-529,306	93,695	0,033	0,028
-528,291	-170,922	0,118	-0,003
-527,277	-75,313	-0,023	-0,006
-526,262	35,579	-0,019	-0,012
-525,248	31,515	-0,055	-0,035
-524,233	-62,071	0,139	0,043
-523,218	-200,000	-0,014	0,070
-522,204	800,000	-0,045	0,111
-521,189	-200,000	-0,002	-0,015
-520,175	-190,789	-0,013	0,000
-519,160	-41,663	-0,093	0,035
-518,145	37,132	-0,115	-0,075
-517,131	50,815	-0,056	-0,039
-516,116	43,687	0,037	-0,025
-515,102	377,537	-0,076	-0,115
-514,087	312,702	0,034	0,047
-513,072	563,256	-0,027	0,048
-512,058	559,389	0,073	-0,129
-511,043	-22,099	0,098	0,043
-510,029	-134,028	0,132	-0,012
-509,014	120,586	0,060	0,055
-507,999	-200,000	0,020	0,081
-506,985	223,531	0,093	-0,111
-505,970	-155,250	-0,080	-0,004
-504,956	-200,000	0,013	-0,158
-503,941	-200,000	0,031	-0,128
-502,926	-81,777	0,148	0,035
-501,912	-63,887	-0,073	-0,022
-500,897	-20,934	0,101	0,045
-499,883	19,641	-0,100	-0,059
-498,868	-28,184	-0,163	-0,069
-497,853	-200,000	0,017	0,092
-496,839	327,098	0,037	-0,052
-495,824	-106,159	0,023	-0,004
-494,810	800,000	-0,024	0,051
-493,795	309,382	-0,039	-0,054
-492,781	800,000	-0,048	0,105
-491,766	477,979	-0,082	-0,138
-490,751	-23,088	-0,088	-0,039
-489,737	-200,000	-0,012	0,157
-488,722	-132,519	0,058	-0,005
-487,708	800,000	0,049	-0,152
-486,693	-78,200	-0,040	-0,010
-485,678	-73,419	0,079	0,021
-484,664	-200,000	0,027	-0,124
-483,649	-141,389	0,050	0,004
-482,635	232,735	-0,052	0,063
-481,620	81,958	0,062	-0,049
-480,605	-62,569	0,091	-0,027
-479,591	-154,342	0,069	-0,003
-478,576	-66,559	0,048	0,014
-477,562	568,750	-0,025	-0,044
-476,547	272,659	-0,045	-0,058
-475,532	152,155	-0,049	0,049
-474,518	800,000	0,057	0,121
-473,503	514,126	-0,027	0,046
-472,489	-159,957	0,061	-0,002
-471,474	172,441	0,040	-0,042
-470,459	800,000	-0,043	-0,126
-469,445	-200,000	-0,006	-0,054
-468,430	-158,667	0,142	0,006
-467,416	261,861	-0,126	0,160
-466,401	-200,000	0,028	0,107
-465,386	-200,000	0,014	0,173
-464,372	-200,000	-0,025	0,086
-463,357	-34,795	-0,076	-0,030
-462,343	90,588	-0,108	-0,088
-461,328	-200,000	0,019	0,073
-460,313	95,439	-0,073	-0,061
-459,299	304,431	0,071	0,097
-458,284	-142,124	0,103	0,007
-457,270	-44,013	0,082	0,030
-456,255	414,608	0,050	-0,078
-455,241	7,684	0,074	0,041
-454,226	-18,961	0,142	-0,065
-453,211	-14,244	0,040	0,019
-452,197	395,190	0,088	0,136
-451,182	204,344	0,092	0,105
-450,168	84,391	0,161	0,129
-449,153	121,862	0,028	-0,025
-448,138	186,555	-0,090	-0,098
-447,124	-24,031	-0,029	-0,013
-446,109	-173,662	0,038	0,001
-445,095	318,056	0,016	0,022
-444,080	800,000	0,045	0,123
-443,065	-145,990	0,083	-0,005
-442,051	196,791	0,059	0,066
-441,036	-34,155	0,074	0,030
-440,022	-200,000	-0,004	-0,174
-439,007	800,000	0,028	-0,060
-437,992	286,540	0,067	-0,089
-436,978	-200,000	-0,004	0,035
-435,963	127,995	0,058	-0,054
-434,949	141,578	0,044	-0,043
-433,934	349,518	0,017	-0,025
-432,919	642,533	-0,048	0,090
-431,905	-31,558	-0,069	0,028
-430,890	-29,296	0,088	0,037
-429,876	117,617	-0,072	0,065
-428,861	-35,517	0,053	0,021
-427,846	2,864	0,188	0,100
-426,832	233,287	-0,093	-0,112
-425,817	-200,000	-0,016	-0,145
-424,803	-136,394	-0,013	0,001
-423,788	-150,924	0,150	0,008
-422,773	-200,000	0,002	-0,014
-421,759	277,271	0,085	-0,111
-420,744	-200,000	0,013	0,120
-419,730	-48,095	-0,039	-0,014
-418,715	147,033	0,073	0,072
-417,701	131,996	-0,086	0,081
-416,686	-200,000	0,001	0,101
-415,671	162,792	0,129	0,133
-414,657	-200,000	-0,024	0,100
-413,642	464,537	-0,034	0,055
-412,628	96,948	0,058	0,048
-411,613	-200,000	0,031	0,124
-410,598	-200,000	-0,003	-0,132
-409,584	800,000	0,070	-0,156
-408,569	129,629	0,089	-0,084
-407,555	16,103	0,158	0,091
-406,540	113,013	0,102	-0,091
-405,525	-200,000	-0,011	-0,088
-404,511	109,193	-0,035	-0,031
-403,496	-161,176	-0,102	-0,004
-402,482	234,327	-0,128	-0,154
-401,467	-200,000	0,000	0,101
-400,452	800,000	-0,020	0,053
-399,438	-157,902	-0,016	-0,001
-398,423	-200,000	-0,055	-0,187
-397,409	-161,568	0,025	0,001
-396,394	800,000	0,051	-0,103
-395,379	118,172	0,078	-0,070
-394,365	800,000	0,031	0,075
-393,350	202,988	0,039	-0,044
-392,336	-181,912	-0,144	0,002
-391,321	-200,000	-0,051	-0,167
-390,306	-73,493	-0,099	-0,026
-389,292	752,214	-0,031	0,061
-388,277	213,726	0,034	-0,040
-387,263	-84,079	-0,144	0,033
-386,248	-200,000	-0,017	0,096
-385,233	203,759	0,049	-0,055
-384,219	800,000	0,005	-0,013
-383,204	-28,382	-0,038	0,016
-382,190	38,075	0,147	-0,096
-381,175	-17,732	-0,080	-0,037
-380,160	-60,204	0,253	-0,078
-379,146	56,247	-0,068	-0,048
-378,131	-200,000	-0,030	0,097
-377,117	800,000	0,034	-0,110
-376,102	-200,000	0,019	-0,125
-375,088	-171,711	0,185	-0,004
-374,073	130,408	-0,057	0,053
-373,058	-125,239	0,025	-0,003
-372,044	-200,000	-0,001	-0,015
-371,029	0,289	0,078	-0,040
-370,015	785,221	0,081	0,164
-369,000	-113,188	-0,063	0,009
-367,985	-200,000	0,016	-0,126
-366,971	55,952	-0,073	-0,052
-365,956	17,857	0,053	0,031
-364,942	-200,000	0,030	0,116
-363,927	-200,000	0,022	-0,183
-362,912	-200,000	0,009	0,118
-361,898	-115,700	0,040	0,005
-360,883	-200,000	-0,035	-0,118
-359,869	46,267	-0,127	0,086
-358,854	-77,636	0,057	0,014
-357,839	800,000	-0,019	-0,042
-356,825	603,192	-0,046	0,085
-355,810	244,560	-0,065	0,080
-354,796	-30,986	0,049	-0,020
-353,781	-200,000	-0,052	-0,207
-352,766	-105,661	0,071	-0,012
-351,752	205,432	0,058	0,066
-350,737	504,266	-0,042	0,071
-349,723	18,274	-0,032	-0,018
-348,708	-200,000	0,010	0,052
-347,693	-200,000	0,004	0,014
-346,679	55,510	-0,037	-0,026
-345,664	179,105	-0,034	-0,036
-344,650	800,000	-0,033	0,092
-343,635	-200,000	0,030	-0,101
-342,620	-72,780	-0,012	-0,003
-341,606	-200,000	0,004	-0,065
-340,591	-177,929	-0,123	-0,002
-339,577	27,153	-0,045	0,028
-338,562	365,343	-0,021	-0,032
-337,548	-81,284	-0,146	-0,035
-336,533	-124,008	-0,075	0,008
-335,518	800,000	0,052	0,113
-334,504	606,873	0,055	-0,100
-333,489	-112,618	0,047	0,007
-332,475	-77,120	-0,040	-0,010
-331,460	615,427	-0,013	0,023
-330,445	-200,000	0,014	0,092
-329,431	800,000	0,009	-0,025
-328,416	206,312	-0,039	0,044
-327,402	691,229	-0,046	0,089
-326,387	-200,000	-0,018	0,087
-325,372	-102,869	-0,089	-0,015
-324,358	-200,000	-0,011	-0,067
-323,343	-200,000	-0,026	-0,130
-322,329	-200,000	-0,007	0,110
-321,314	115,319	-0,025	0,022
-320,299	127,610	-0,098	0,091
-319,285	-158,513	-0,045	0,002
-318,270	-6,049	0,022	-0,011
-317,256	-200,000	0,009	0,029
-316,241	123,298	-0,089	0,081
-315,226	102,077	-0,039	-0,034
-314,212	495,191	0,061	0,102
-313,197	-200,000	0,008	0,133
-312,183	-111,589	-0,079	-0,012
-311,168	-46,687	-0,104	0,037
-310,153	8,988	-0,087	-0,048
-309,139	-154,951	-0,128	-0,006
-308,124	199,975	0,050	0,056
-307,110	800,000	0,039	0,088
-306,095	-200,000	0,003	0,019
-305,080	-200,000	-0,006	0,053
-304,066	186,459	-0,062	-0,067
-303,051	337,569	0,028	0,039
-302,037	779,781	-0,017	-0,034
-301,022	8,642	0,108	-0,059
-300,008	162,429	0,133	0,136
-298,993	800,000	-0,044	-0,121
-297,978	296,558	-0,049	0,066
-296,964	116,396	0,092	0,082
-295,949	800,000	-0,007	-0,014
-294,935	66,138	-0,007	0,006
-293,920	-200,000	-0,005	0,209
-292,905	78,686	-0,027	-0,021
-291,891	34,727	-0,116	-0,074
-290,876	-124,712	-0,075	-0,008
-289,862	46,859	0,033	0,022
-288,847	-200,000	0,004	-0,037
-287,832	0,126	0,042	-0,022
-286,818	378,067	-0,127	-0,190
-285,803	-64,480	0,077	-0,023
-284,789	800,000	-0,032	0,087
-283,774	-112,475	-0,105	0,015
-282,759	800,000	0,008	-0,018
-281,745	-200,000	-0,041	-0,211
-280,730	-21,337	-0,171	0,076
-279,716	-35,096	0,057	-0,022
-278,701	247,670	-0,052	-0,064
-277,686	800,000	0,022	0,058
-276,672	12,751	0,156	-0,087
-275,657	-200,000	0,032	-0,125
-274,643	46,696	-0,090	-0,061
-273,628	-194,489	-0,104	-0,001
-272,613	481,646	-0,010	-0,017
-271,599	5,282	-0,044	-0,024
-270,584	-200,000	0,001	0,033
-269,570	-200,000	-0,006	0,070
-268,555	-4,567	0,094	-0,047
-267,540	198,422	0,086	-0,096
-266,526	152,915	0,080	-0,079
-265,511	-54,534	-0,045	0,015
-264,497	176,312	0,063	0,067
-263,482	40,927	0,074	0,049
-262,467	26,221	-0,043	0,026
-261,453	-76,159	0,041	-0,011
-260,438	201,803	-0,064	0,072
-259,424	-93,182	0,067	0,013
-258,409	800,000	-0,025	0,071
-257,395	727,767	0,022	-0,042
-256,380	-45,741	0,139	0,050
-255,365	161,013	-0,040	-0,041
-254,351	-13,429	0,075	0,035
-253,336	800,000	0,021	0,045
-252,322	-47,177	0,047	0,017
-251,307	-42,039	0,081	-0,030
-250,292	-200,000	-0,005	-0,069
-249,278	-138,339	0,061	0,005
-248,263	-176,045	-0,029	0,001
-247,249	144,205	-0,032	-0,031
-246,234	577,941	-0,050	0,089
-245,219	109,834	0,059	0,051
-244,205	688,220	0,089	0,170
-243,190	-96,428	0,046	-0,009
-242,176	-38,040	0,125	0,048
-241,161	-84,379	-0,092	0,021
-240,146	-24,244	-0,052	0,023
-239,132	15,110	0,114	-0,065
-238,117	144,879	-0,111	0,108
-237,103	-29,037	0,068	-0,028
-236,088	800,000	0,027	0,073
-235,073	-200,000	-0,003	0,058
-234,059	243,499	-0,034	0,041
-233,044	-96,855	-0,113	0,021
-232,030	-61,341	0,102	-0,031
-231,015	-200,000	-0,010	0,041
-230,000	37,860	-0,054	-0,035
-228,986	153,416	0,145	0,144
-227,971	-90,688	-0,060	-0,012
-226,957	158,828	-0,109	0,110
-225,942	23,639	0,057	-0,034
-224,927	-118,362	0,082	0,010
-223,913	800,000	0,070	-0,146
-222,898	-66,978	-0,143	0,041
-221,884	570,810	-0,011	0,019
-220,869	800,000	0,015	0,036
-219,855	204,021	0,048	-0,055
-218,840	-200,000	-0,000	-0,025
-217,825	171,735	-0,126	0,131
-216,811	-140,419	0,114	0,008
-215,796	-200,000	-0,025	-0,104
-214,782	101,165	-0,109	0,092
-213,767	-141,306	0,086	-0,006
-212,752	-200,000	0,003	-0,103
-211,738	4,653	-0,056	0,030
-210,723	585,183	0,088	0,158
-209,709	-50,184	-0,057	-0,020
-208,694	800,000	-0,032	-0,072
-207,679	-76,479	-0,060	-0,015
-206,665	800,000	0,026	-0,062
-205,650	-200,000	0,031	0,111
-204,636	-81,257	0,072	-0,017
-203,621	-200,000	0,016	0,053
-202,606	-200,000	0,005	-0,033
-201,592	157,198	-0,079	-0,079
-200,577	544,270	-0,006	0,011
-199,563	257,681	-0,042	-0,052
-198,548	-93,872	0,097	-0,019
-197,533	111,273	0,028	0,025
-196,519	524,830	-0,026	0,045
-195,504	397,786	-0,051	0,077
-194,490	159,084	0,071	0,071
-193,475	-107,688	0,082	-0,013
-192,460	-21,945	0,110	-0,048
-191,446	37,343	0,089	-0,057
-190,431	15,633	0,038	0,022
-189,417	75,809	-0,083	0,064
-188,402	-140,945	0,145	-0,011
-187,387	-160,245	-0,025	-0,001
-186,373	74,309	-0,083	-0,063
-185,358	-200,000	0,012	-0,078
-184,344	-63,760	0,128	-0,038
-183,329	800,000	0,028	-0,058
-182,315	21,535	-0,096	-0,057
-181,300	601,081	-0,055	0,099
-180,285	214,070	-0,010	-0,011
-179,271	-200,000	-0,064	-0,274
-178,256	100,496	0,017	0,014
-177,242	11,225	-0,099	0,055
-176,227	-200,000	-0,026	0,142
-175,212	-104,783	-0,043	0,007
-174,198	-185,260	0,035	0,000
-173,183	-200,000	0,013	-0,131
-172,169	-200,000	-0,006	0,073
-171,154	88,171	0,065	-0,052
-170,139	-200,000	0,010	-0,057
-169,125	64,909	-0,052	0,038
-168,110	-12,683	-0,034	-0,016
-167,096	488,766	-0,048	-0,080
-166,081	146,936	0,109	0,106
-165,066	-196,148	-0,223	0,001
-164,052	800,000	-0,037	-0,089
-163,037	473,406	0,078	0,128
-162,023	27,339	0,027	-0,016
-161,008	92,922	0,033	0,027
-159,993	126,794	0,073	-0,067
-158,979	745,320	0,085	-0,166
-157,964	195,062	-0,060	0,066
-156,950	-191,272	-0,046	0,000
-155,935	-37,005	0,141	-0,054
-154,920	84,841	0,142	0,112
-153,906	800,000	0,050	0,101
-152,891	-200,000	0,015	0,106
-151,877	19,091	0,058	-0,034
-150,862	-100,270	-0,179	-0,032
-149,847	31,506	0,111	-0,069
-148,833	14,723	-0,078	0,044
-147,818	211,131	0,035	0,040
-146,804	-35,226	0,041	0,016
-145,789	-23,033	0,121	-0,053
-144,775	98,409	-0,034	-0,028
-143,760	-191,145	0,110	-0,001
-142,745	800,000	0,070	-0,150
-141,731	800,000	-0,049	-0,100
-140,716	15,714	-0,090	-0,051
-139,702	64,714	0,029	0,021
-138,687	95,178	0,169	0,140
-137,672	-22,238	-0,058	-0,025
-136,658	150,114	-0,047	-0,046
-135,643	-29,404	-0,140	0,058
-134,629	86,778	0,060	0,048
-133,614	-59,423	0,036	0,011
-132,599	70,032	-0,126	-0,094
-131,585	-200,000	-0,002	0,030
-130,570	42,052	0,051	-0,034
-129,556	619,442	0,045	-0,082
-128,541	167,794	-0,035	0,036
-127,526	-163,267	0,097	0,003
-126,512	-27,051	0,042	0,018
-125,497	-3,048	-0,104	-0,053
-124,483	800,000	0,035	-0,075
-123,468	800,000	-0,026	-0,067
-122,453	800,000	-0,025	0,076
-121,439	129,425	0,038	-0,035
-120,424	-138,747	-0,128	0,010
-119,410	442,511	0,037	0,059
-118,395	-129,435	0,082	-0,008
-117,380	129,056	0,062	0,057
-116,366	800,000	-0,037	0,110
-115,351	-99,541	-0,063	0,011
-114,337	-111,473	-0,118	-0,017
-113,322	-45,720	-0,185	0,066
-112,307	800,000	0,011	0,031
-111,293	-200,000	0,027	0,093
-110,278	800,000	0,003	0,010
-109,264	-113,855	0,030	-0,004
-108,249	-60,613	0,052	-0,016
-107,234	-200,000	-0,040	0,136
-106,220	389,273	0,035	-0,053
-105,205	375,315	-0,034	-0,050
-104,191	-200,000	0,025	-0,110
-103,176	108,240	0,056	-0,049
-102,162	290,684	0,144	-0,189
-101,147	209,626	-0,071	-0,081
-100,132	-59,991	-0,050	-0,015
-99,118	518,208	0,055	-0,093
-98,103	-112,043	0,125	0,018
-97,089	-200,000	0,024	-0,087
-96,074	124,083	0,069	-0,062
-95,059	101,174	0,083	0,070
-94,045	800,000	-0,046	0,102
-93,030	126,904	0,069	0,064
-92,016	379,308	-0,058	-0,086
-91,001	-13,466	-0,147	-0,069
-89,986	13,992	0,111	0,062
-88,972	2,060	0,119	0,062
-87,957	60,913	-0,050	-0,036
-86,943	592,096	-0,025	0,044
-85,928	-47,859	0,063	-0,022
-84,913	800,000	-0,009	0,028
-83,899	190,029	0,036	-0,040
-82,884	-20,456	0,059	0,026
-81,870	439,110	0,017	0,027
-80,855	-85,683	0,086	-0,019
-79,840	800,000	-0,040	-0,097
-78,826	-114,844	0,066	-0,009
-77,811	-200,000	0,002	-0,070
-76,797	462,072	-0,021	-0,034
-75,782	9,420	0,068	-0,037
-74,767	-45,305	0,083	-0,030
-73,753	104,964	0,113	0,096
-72,738	-163,926	-0,087	0,003
-71,724	-200,000	0,000	-0,195
-70,709	800,000	0,017	-0,039
-69,694	266,789	-0,076	0,097
-68,680	190,604	-0,058	-0,063
-67,665	800,000	0,059	0,135
-66,651	-200,000	-0,002	0,049
-65,636	467,772	0,083	-0,135
-64,622	-74,273	-0,093	-0,024
-63,607	18,942	-0,083	-0,048
-62,592	-29,390	0,025	-0,010
-61,578	-200,000	0,033	-0,131
-60,563	-76,539	0,083	0,021
-59,549	413,488	-0,078	0,121
-58,534	-35,417	-1,715	-0,670
-57,519	800,000	-0,416	-1,179
-56,505	-200,000	-1,117	-4,748
-55,490	-170,743	0,656	-0,016
-54,476	800,000	5,236	12,299
-53,461	-200,000	15,808	278,044
-52,446	-200,000	702,751	2245,569
-51,432	562,510	1619,325	2840,154
-50,417	121,214	1623,644	1459,407
-49,403	81,421	1284,120	1001,330
-48,388	36,757	1027,985	654,368
-47,373	21,568	989,862	579,883
-46,359	20,483	978,550	569,654
-45,344	18,835	974,396	561,798
-44,330	18,868	973,225	561,209
-43,315	18,658	971,427	559,461
-42,300	18,581	970,500	558,653
-41,286	18,626	969,303	558,090
-40,271	18,620	968,559	557,620
-39,257	18,692	967,490	557,216
-38,242	18,608	966,767	556,506
-37,227	18,586	966,211	556,089
-36,213	18,557	965,405	555,511
-35,198	18,559	964,434	554,935
-34,184	18,628	963,528	554,617
-33,169	18,553	962,760	553,908
-32,154	18,568	961,846	553,411
-31,140	18,639	961,028	553,147
-30,125	18,683	960,160	552,770
-29,111	18,608	959,318	552,017
-28,096	18,591	958,766	551,623
-27,082	18,571	958,232	551,232
-26,067	18,597	957,427	550,831
-25,052	18,583	956,586	550,278
-24,038	18,593	955,758	549,813
-23,023	18,593	955,016	549,366
-22,009	18,643	954,429	549,166
-20,994	18,653	953,964	548,907
-19,979	18,608	953,382	548,406
-18,965	18,566	952,629	547,818
-17,950	18,568	952,071	547,481
-16,936	18,514	951,559	546,992
-15,921	18,570	950,776	546,701
-14,906	18,490	950,029	545,993
-13,892	18,477	949,454	545,597
-12,877	18,454	948,653	545,043
-11,863	18,438	948,119	544,664
-10,848	18,539	947,601	544,666
-9,833	18,554	947,055	544,379
-8,819	18,529	946,251	543,814
-7,804	18,466	945,838	543,355
-6,790	18,462	945,322	543,025
-5,775	18,529	944,620	542,813
-4,760	18,434	944,176	542,235
-3,746	18,481	943,354	541,891
-2,731	18,327	942,689	540,996
-1,717	18,382	941,525	540,483
-0,702	18,388	941,035	540,199
0,313	18,069	940,778	539,853
1,327	21,186	938,757	548,513
2,342	30,079	796,113	488,845
3,356	26,981	449,036	271,056
4,371	-2,633	294,946	148,391
5,386	-6,861	276,215	134,942
6,400	-8,039	270,303	130,947
7,415	-8,327	268,040	129,573
8,429	-8,174	266,755	129,081
9,444	-8,145	265,944	128,704
10,459	-8,205	265,335	128,343
11,473	-8,260	264,595	127,923
12,488	-8,413	264,201	127,582
13,502	-8,473	263,709	127,279
14,517	-8,368	263,146	127,091
15,531	-8,311	262,781	126,955
16,546	-8,100	262,470	126,984
17,561	-8,377	262,138	126,562
18,575	-8,247	261,842	126,525
19,590	-8,229	261,394	126,314
20,604	-8,220	261,209	126,221
21,619	-8,281	260,938	126,023
22,634	-8,068	260,438	125,962
23,648	-8,256	260,205	125,670
24,663	-8,375	259,981	125,444
25,677	-8,368	259,772	125,338
26,692	-8,257	259,396	125,245
27,707	-8,545	259,257	124,910
28,721	-8,446	258,880	124,805
29,736	-8,447	258,574	124,646
30,750	-8,426	258,548	124,641
31,765	-8,355	258,186	124,518
32,780	-8,345	257,941	124,397
33,794	-8,193	257,641	124,377
34,809	-8,481	257,484	124,035
35,823	-8,506	257,220	123,874
36,838	-8,408	256,899	123,795
37,853	-8,470	256,767	123,666
38,867	-8,576	256,577	123,470
39,882	-8,441	256,283	123,436
40,896	-8,377	256,071	123,379
41,911	-8,473	255,855	123,180
42,926	-8,558	255,611	122,977
43,940	-8,589	255,387	122,832
44,955	-8,570	255,232	122,763
45,969	-8,655	254,920	122,527
46,984	-8,727	254,702	122,349
47,999	-9,046	254,459	121,942
49,013	-9,071	254,107	121,741
50,028	-9,052	253,795	121,597
51,042	-9,408	253,653	121,209
52,057	-9,357	253,396	121,120
53,071	-9,476	253,155	120,891
54,086	-9,129	252,951	121,083
55,101	-8,965	252,802	121,143
56,115	-8,763	252,660	121,239
57,130	-8,393	252,594	121,517
58,144	-8,070	252,354	121,670
59,159	-8,323	252,343	121,435
60,174	-8,381	252,062	121,239
61,188	-8,343	251,743	121,107
62,203	-8,285	251,654	121,103
63,217	-8,509	251,443	120,799
64,232	-8,355	251,209	120,807
65,247	-8,319	251,036	120,744
66,261	-8,580	250,815	120,403
67,276	-8,606	250,477	120,208
68,290	-8,899	250,240	119,832
69,305	-8,979	250,010	119,643
70,320	-8,890	249,862	119,638
71,334	-8,574	249,634	119,789
72,349	-8,188	249,470	120,028
73,363	-8,267	249,447	119,939
74,378	-8,215	249,146	119,828
75,393	-8,231	248,859	119,666
76,407	-8,300	248,862	119,597
77,422	-8,306	248,565	119,439
78,436	-8,231	248,378	119,402
79,451	-8,340	248,115	119,173
80,466	-8,454	247,874	118,950
81,480	-8,701	247,573	118,586
82,495	-8,860	247,383	118,349
83,509	-8,657	247,438	118,537
84,524	-8,638	247,111	118,386
85,539	-8,761	246,752	118,100
86,553	-8,893	246,655	117,932
87,568	-8,631	246,368	118,004
88,582	-8,663	246,338	117,952
89,597	-8,749	246,032	117,723
90,611	-8,561	245,943	117,828
91,626	-8,434	245,776	117,844
92,641	-8,509	245,668	117,719
93,655	-8,417	245,405	117,660
94,670	-8,408	245,071	117,496
95,684	-8,753	245,073	117,198
96,699	-8,717	244,962	117,165
97,714	-8,623	244,599	117,059
98,728	-8,690	244,393	116,894
99,743	-8,857	244,248	116,675
100,757	-8,789	243,867	116,540
101,772	-8,880	243,904	116,471
102,787	-8,730	243,640	116,459
103,801	-8,611	243,659	116,557
104,816	-8,541	243,367	116,465
105,830	-8,598	243,199	116,327
106,845	-8,348	243,092	116,473
107,860	-8,516	242,857	116,210
108,874	-8,618	242,604	115,995
109,889	-8,889	242,424	115,674
110,903	-8,541	242,165	115,828
111,918	-8,571	241,979	115,704
112,933	-8,552	241,786	115,617
113,947	-8,401	241,633	115,657
114,962	-8,548	241,548	115,486
115,976	-8,572	241,347	115,360
116,991	-8,376	241,147	115,415
118,006	-8,530	240,875	115,147
119,020	-8,401	240,850	115,231
120,035	-8,376	240,736	115,187
121,049	-8,229	240,660	115,261
122,064	-8,425	240,426	114,978
123,079	-8,481	240,080	114,756
124,093	-8,836	240,077	114,454
125,108	-8,849	239,760	114,282
126,122	-9,039	239,580	114,031
127,137	-8,988	239,393	113,974
128,151	-8,962	239,304	113,943
129,166	-8,872	239,089	113,903
130,181	-8,933	238,884	113,746
131,195	-8,867	238,558	113,634
132,210	-8,784	238,506	113,666
133,224	-8,500	238,314	113,795
134,239	-8,505	238,218	113,736
135,254	-8,578	238,097	113,608
136,268	-8,657	237,725	113,357
137,283	-8,911	237,500	113,034
138,297	-9,139	237,393	112,789
139,312	-8,914	237,134	112,837
140,327	-8,710	236,987	112,922
141,341	-8,155	237,087	113,407
142,356	-8,235	236,884	113,235
143,370	-8,391	236,822	113,070
144,385	-8,087	236,711	113,251
145,400	-8,040	236,367	113,114
146,414	-8,086	236,282	113,027
147,429	-8,236	236,029	112,775
148,443	-8,217	235,851	112,696
149,458	-8,278	235,784	112,604
150,473	-8,338	235,639	112,478
151,487	-8,121	235,285	112,472
152,502	-8,402	235,232	112,211
153,516	-8,346	235,201	112,232
154,531	-8,107	234,911	112,274
155,546	-8,279	234,688	112,021
156,560	-8,387	234,493	111,831
157,575	-8,460	234,289	111,666
158,589	-8,542	234,214	111,555
159,604	-8,051	234,079	111,871
160,619	-8,008	233,956	111,836
161,633	-7,997	233,829	111,774
162,648	-7,897	233,673	111,769
163,662	-8,182	233,415	111,410
164,677	-8,287	233,365	111,293
165,692	-8,095	233,187	111,350
166,706	-8,018	233,039	111,330
167,721	-7,992	232,943	111,296
168,735	-7,893	232,744	111,268
169,750	-8,135	232,551	110,976
170,764	-8,322	232,370	110,732
171,779	-8,061	232,181	110,837
172,794	-8,210	232,116	110,679
173,808	-8,313	231,699	110,390
174,823	-8,876	231,506	109,845
175,837	-8,955	231,223	109,639
176,852	-8,522	231,356	110,033
177,867	-8,223	231,248	110,206
178,881	-8,209	231,160	110,165
179,896	-8,185	231,077	110,135
180,910	-8,180	230,984	110,084
181,925	-8,106	230,709	110,001
182,940	-8,045	230,396	109,890
183,954	-8,129	230,420	109,825
184,969	-8,154	230,276	109,728
185,983	-7,919	229,948	109,745
186,998	-7,857	230,045	109,830
188,013	-7,812	229,800	109,738
189,027	-8,049	229,701	109,496
190,042	-7,920	229,479	109,481
191,056	-8,051	229,431	109,347
192,071	-8,007	229,193	109,258
193,086	-8,257	229,093	109,006
194,100	-7,941	228,791	109,098
195,115	-8,664	228,376	108,331
196,129	-9,282	228,172	107,748
197,144	-4,477	229,727	112,205
198,159	0,864	231,398	117,179
199,173	3,243	231,837	119,246
200,188	3,553	231,890	119,504
201,202	3,556	231,646	119,370
202,217	3,827	231,510	119,500
203,232	3,964	231,530	119,606
204,246	4,138	231,287	119,605
205,261	4,193	231,138	119,560
206,275	4,548	230,828	119,664
207,290	4,221	230,878	119,425
208,304	4,239	230,817	119,397
209,319	4,399	230,514	119,354
210,334	4,266	230,414	119,189
211,348	3,964	230,174	118,821
212,363	3,510	229,967	118,352
213,377	3,230	229,652	117,964
214,392	3,202	229,635	117,923
215,407	3,529	229,443	118,066
216,421	3,574	229,292	118,013
217,436	3,538	229,087	117,869
218,450	3,265	228,938	117,572
219,465	3,139	228,828	117,408
220,480	3,061	228,661	117,253
221,494	3,218	228,524	117,292
222,509	3,335	228,401	117,308
223,523	3,303	228,194	117,167
224,538	3,332	228,098	117,129
225,553	3,496	227,798	117,090
226,567	3,651	227,901	117,251
227,582	3,729	227,686	117,190
228,596	3,943	227,666	117,332
229,611	3,512	227,393	116,852
230,626	3,155	227,266	116,505
231,640	3,179	227,109	116,432
232,655	3,589	226,982	116,669
233,669	4,105	226,994	117,056
234,684	4,103	226,780	116,934
235,699	3,726	226,619	116,554
236,713	3,414	226,319	116,153
237,728	3,336	226,201	116,024
238,742	3,172	225,861	115,714
239,757	3,429	225,878	115,907
240,772	3,272	225,736	115,706
241,786	3,244	225,587	115,598
242,801	3,631	225,448	115,808
243,815	3,839	225,446	115,954
244,830	4,008	225,200	115,945
245,844	3,419	225,109	115,444
246,859	3,387	224,844	115,273
247,874	3,566	224,842	115,396
248,888	3,674	224,675	115,382
249,903	3,671	224,429	115,243
250,917	3,298	224,335	114,905
251,932	3,400	223,976	114,787
252,947	3,255	224,041	114,701
253,961	3,294	223,766	114,579
254,976	3,343	223,737	114,591
255,990	3,598	223,660	114,732
257,005	3,421	223,551	114,534
258,020	3,671	223,301	114,582
259,034	3,787	223,141	114,576
260,049	3,586	223,151	114,421
261,063	3,820	222,706	114,357
262,078	3,663	222,753	114,254
263,093	3,873	222,485	114,262
264,107	3,614	222,557	114,097
265,122	3,754	222,397	114,109
266,136	3,788	222,292	114,070
267,151	3,840	222,014	113,955
268,166	3,571	221,793	113,633
269,180	3,242	221,519	113,238
270,195	3,238	221,510	113,220
271,209	3,278	221,346	113,156
272,224	3,204	221,459	113,149
273,239	3,602	221,145	113,273
274,253	3,529	220,875	113,071
275,268	3,178	220,917	112,823
276,282	2,878	220,540	112,400
277,297	2,979	220,436	112,411
278,312	3,255	220,338	112,554
279,326	3,509	220,266	112,694
280,341	3,351	220,248	112,558
281,355	3,259	220,001	112,355
282,370	3,458	219,803	112,389
283,384	2,985	219,694	111,977
284,399	3,080	219,495	111,935
285,414	3,060	219,370	111,847
286,428	3,436	219,395	112,125
287,443	3,397	219,249	112,011
288,457	3,623	219,053	112,066
289,472	3,523	218,854	111,882
290,487	2,778	218,498	111,147
291,501	2,947	218,437	111,229
292,516	3,134	218,419	111,347
293,530	3,082	218,316	111,246
294,545	2,832	218,225	111,008
295,560	3,479	218,057	111,383
296,574	3,361	217,890	111,202
297,589	3,406	217,776	111,166
298,603	3,656	217,691	111,294
299,618	3,358	217,523	110,983
300,633	3,352	217,364	110,887
301,647	3,528	217,276	110,960
302,662	3,517	217,202	110,904
303,676	3,578	216,898	110,783
304,691	3,522	216,995	110,782
305,706	3,808	216,716	110,836
306,720	3,709	216,534	110,662
307,735	3,430	216,438	110,402
308,749	3,542	216,203	110,353
309,764	3,362	216,110	110,166
310,779	3,656	216,143	110,384
311,793	3,633	215,934	110,251
312,808	3,467	215,591	109,947
313,822	3,350	215,512	109,813
314,837	3,351	215,324	109,708
315,852	3,421	215,287	109,730
316,866	3,672	215,171	109,841
317,881	3,603	215,086	109,738
318,895	3,810	214,787	109,723
319,910	3,306	214,731	109,325
320,925	3,265	214,407	109,121
321,939	3,048	214,197	108,850
322,954	2,877	214,294	108,768
323,968	3,397	214,189	109,075
324,983	3,642	214,090	109,190
325,997	3,718	214,045	109,211
327,012	3,677	213,701	108,996
328,027	3,470	213,655	108,816
329,041	3,557	213,717	108,900
330,056	3,805	213,497	108,954
331,070	3,211	213,361	108,454
332,085	3,187	213,039	108,264
333,100	3,289	213,043	108,329
334,114	3,489	212,935	108,405
335,129	3,587	212,724	108,358
336,143	3,249	212,576	108,033
337,158	3,455	212,473	108,117
338,173	3,367	212,302	107,958
339,187	3,193	212,142	107,745
340,202	3,375	211,915	107,748
341,216	3,025	211,738	107,402
342,231	3,277	211,636	107,518
343,246	3,192	211,440	107,349
344,260	3,229	211,488	107,390
345,275	3,328	211,259	107,334
346,289	3,449	211,225	107,391
347,304	3,675	211,141	107,497
348,319	3,487	210,978	107,273
349,333	3,330	210,785	107,056
350,348	3,414	210,664	107,044
351,362	3,473	210,649	107,068
352,377	3,514	210,545	107,034
353,392	3,283	210,352	106,765
354,406	3,418	210,286	106,816
355,421	194,810	1342,841	1426,962
356,435	155,542	1480,856	1427,006
