DTS Sentinel unit serial number:	SN410029Multiplexer serial number:	ORYXHardware model number:	OX2-SRSoftware version number:	ORYX F/W v4,00 Oryx Data Collector v3.7.2.0data status	okinstallation	B6 Nyhavnadifferential loss correction	single-endedforward channel	channel 2reverse channel	N/Adate	2023/12/09time	12:15:08forward acquisition time	300,00reverse acquisition time	0,00gamma	499,1914k internal	0,3139k external	0,3139temperature offset calibration	1,0000default loss term (dB/km)	0,3820temperature slope calibration	1,0000multiplexer offset coefficient	1,0000multiplexer slope coefficient	1,0000fibre end	0,00T internal ref (°C)	19,22T ext. ref 1 (°C)	3,71T ext. ref 2 (°C)	3,71length (m)	temperature (°C)	Stokes	anti-Stokes-744,400	252,963	0,018	0,023
-743,385	-101,906	-0,378	0,067
-742,371	-176,011	0,225	0,004
-741,356	-137,810	-0,289	-0,024
-740,342	-125,818	0,095	-0,010
-739,327	-134,492	-0,204	-0,018
-738,312	771,655	0,043	0,087
-737,298	-61,593	-0,368	0,114
-736,283	-200,000	0,001	-0,032
-735,269	-62,617	-0,250	0,076
-734,254	-200,000	-0,004	-0,032
-733,239	-143,496	-0,370	-0,026
-732,225	-91,503	0,183	0,038
-731,210	332,656	-0,116	0,166
-730,196	-45,599	-0,074	-0,027
-729,181	-200,000	-0,001	-0,071
-728,167	800,000	-0,039	0,091
-727,152	800,000	0,027	-0,081
-726,137	-51,799	-0,104	-0,036
-725,123	-200,000	-0,028	-0,187
-724,108	-200,000	0,028	-0,108
-723,094	372,813	-0,073	0,110
-722,079	209,054	0,038	-0,044
-721,064	152,960	-0,096	-0,097
-720,050	-200,000	-0,019	-0,099
-719,035	337,255	-0,067	-0,096
-718,021	-129,987	-0,036	0,004
-717,006	367,012	-0,067	-0,101
-715,991	131,566	-0,123	-0,117
-714,977	265,298	-0,144	-0,186
-713,962	62,027	-0,066	-0,048
-712,948	288,079	0,063	-0,084
-711,933	555,116	-0,019	0,033
-710,918	-134,590	0,103	0,009
-709,904	-112,015	0,020	0,003
-708,889	46,102	-0,176	-0,120
-707,875	-26,785	0,086	0,037
-706,860	800,000	0,013	-0,028
-705,845	-32,614	-0,140	-0,057
-704,831	800,000	0,025	-0,068
-703,816	9,768	-0,108	-0,061
-702,802	-2,745	-0,150	-0,077
-701,787	800,000	0,026	0,085
-700,772	-134,836	-0,059	-0,005
-699,758	-6,278	0,041	0,020
-698,743	-200,000	-0,005	0,088
-697,729	-99,577	-0,166	-0,031
-696,714	2,967	-0,058	0,031
-695,699	30,114	-0,101	0,063
-694,685	800,000	0,045	-0,098
-693,670	800,000	-0,075	-0,161
-692,656	800,000	-0,017	-0,035
-691,641	-93,188	-0,032	0,006
-690,627	-200,000	-0,018	-0,082
-689,612	667,826	-0,024	-0,046
-688,597	113,478	0,049	-0,044
-687,583	107,210	0,062	-0,055
-686,568	800,000	-0,046	-0,113
-685,554	322,330	0,007	-0,010
-684,539	289,152	0,033	-0,045
-683,524	23,736	0,127	-0,077
-682,510	-37,090	-0,087	-0,034
-681,495	-200,000	-0,011	-0,117
-680,481	55,748	-0,058	-0,042
-679,466	-115,592	-0,089	-0,012
-678,451	800,000	0,040	0,120
-677,437	-200,000	0,018	0,069
-676,422	-200,000	0,021	-0,084
-675,408	-200,000	-0,031	-0,125
-674,393	-200,000	0,007	0,087
-673,378	-97,038	-0,032	0,006
-672,364	282,124	-0,055	0,074
-671,349	163,362	-0,091	-0,095
-670,335	-24,026	0,061	0,027
-669,320	-136,424	0,084	0,007
-668,305	186,016	-0,034	0,037
-667,291	-33,011	-0,101	0,041
-666,276	43,821	0,088	0,060
-665,262	30,083	-0,165	-0,104
-664,247	-200,000	0,027	-0,111
-663,232	-200,000	-0,016	0,064
-662,218	631,996	-0,008	-0,014
-661,203	745,956	-0,012	0,025
-660,189	181,446	0,033	-0,036
-659,174	209,113	-0,072	-0,084
-658,159	18,339	0,069	0,041
-657,145	-200,000	-0,023	-0,130
-656,130	10,125	0,078	-0,043
-655,116	800,000	0,079	-0,180
-654,101	-74,722	0,123	-0,032
-653,086	50,325	-0,040	0,028
-652,072	-200,000	0,012	-0,055
-651,057	-21,562	-0,114	-0,051
-650,043	-200,000	-0,029	-0,142
-649,028	133,080	0,022	0,021
-648,014	-119,869	0,112	-0,014
-646,999	170,593	0,049	0,051
-645,984	-63,728	-0,085	-0,026
-644,970	-138,949	-0,122	0,010
-643,955	-200,000	-0,012	-0,125
-642,941	-31,135	-0,057	-0,024
-641,926	577,096	-0,033	-0,060
-640,911	63,939	0,045	-0,034
-639,897	-200,000	0,017	0,077
-638,882	38,954	0,109	0,072
-637,868	-200,000	-0,006	-0,022
-636,853	-3,559	-0,128	-0,066
-635,838	-200,000	0,012	-0,124
-634,824	-200,000	0,053	-0,192
-633,809	-118,235	-0,104	0,014
-632,795	-91,256	-0,067	-0,014
-631,780	-28,107	-0,045	0,019
-630,765	-200,000	-0,047	-0,171
-629,751	-119,893	-0,098	-0,012
-628,736	323,844	0,002	-0,003
-627,722	-163,995	0,040	-0,001
-626,707	-9,445	0,062	0,030
-625,692	234,405	0,093	0,114
-624,678	800,000	0,071	0,149
-623,663	-12,053	-0,030	-0,015
-622,649	164,147	-0,107	0,112
-621,634	-200,000	0,026	-0,162
-620,619	-123,223	0,171	-0,020
-619,605	-94,018	0,143	-0,029
-618,590	800,000	-0,048	-0,123
-617,576	-200,000	-0,025	-0,157
-616,561	-24,435	0,053	0,023
-615,546	-63,005	-0,090	-0,027
-614,532	197,921	-0,085	-0,096
-613,517	92,674	-0,072	-0,060
-612,503	120,643	-0,118	-0,108
-611,488	189,148	0,075	0,082
-610,474	-113,358	-0,141	-0,020
-609,459	800,000	-0,020	0,063
-608,444	76,536	0,052	-0,040
-607,430	-200,000	-0,000	-0,021
-606,415	-200,000	-0,013	-0,058
-605,401	-200,000	0,010	-0,102
-604,386	456,969	-0,034	0,056
-603,371	-200,000	-0,002	0,062
-602,357	129,191	0,134	0,126
-601,342	-94,072	-0,146	0,029
-600,328	393,930	0,030	-0,046
-599,313	-45,106	0,051	-0,019
-598,298	-153,309	-0,101	0,005
-597,284	143,732	-0,111	0,109
-596,269	-200,000	0,011	0,054
-595,255	-15,774	0,083	0,039
-594,240	-46,888	-0,077	0,028
-593,225	800,000	0,021	-0,049
-592,211	-200,000	-0,015	-0,098
-591,196	-82,659	0,028	-0,007
-590,182	-200,000	-0,022	0,077
-589,167	-200,000	-0,018	0,130
-588,152	302,133	0,015	0,021
-587,138	-107,902	0,025	0,004
-586,123	-48,488	-0,074	-0,026
-585,109	56,114	-0,059	0,043
-584,094	143,938	-0,068	0,067
-583,079	183,318	-0,092	0,100
-582,065	-167,343	0,108	0,003
-581,050	-167,034	-0,107	-0,003
-580,036	-127,224	-0,128	0,014
-579,021	-200,000	0,026	-0,127
-578,006	-53,670	0,116	-0,039
-576,992	89,265	0,077	0,063
-575,977	-130,434	0,096	0,009
-574,963	-111,368	-0,075	-0,011
-573,948	-200,000	0,020	0,087
-572,934	-106,921	0,028	-0,005
-571,919	16,167	0,007	0,004
-570,904	800,000	-0,090	-0,221
-569,890	396,365	-0,009	0,015
-568,875	-200,000	-0,022	0,111
-567,861	35,385	0,093	-0,060
-566,846	33,900	0,096	0,061
-565,831	29,259	-0,098	-0,061
-564,817	-200,000	0,012	-0,092
-563,802	800,000	-0,042	0,122
-562,788	251,715	-0,096	0,121
-561,773	-200,000	0,006	0,042
-560,758	139,422	0,058	0,057
-559,744	-132,219	0,038	0,004
-558,729	728,869	0,079	-0,156
-557,715	-63,899	-0,047	-0,014
-556,700	13,062	-0,165	0,094
-555,685	-86,092	-0,079	-0,018
-554,671	39,872	0,126	0,083
-553,656	800,000	-0,029	0,059
-552,642	487,240	-0,055	-0,093
-551,627	-59,673	0,118	-0,037
-550,612	173,452	-0,111	-0,118
-549,598	-18,618	0,104	-0,048
-548,583	-135,526	-0,082	-0,007
-547,569	-200,000	0,005	0,040
-546,554	-200,000	-0,041	0,175
-545,539	-81,383	0,143	-0,034
-544,525	497,479	0,074	0,125
-543,510	-200,000	-0,011	-0,097
-542,496	121,657	-0,125	-0,115
-541,481	319,674	-0,016	-0,022
-540,466	-36,037	0,070	0,028
-539,452	692,246	-0,052	-0,100
-538,437	205,387	0,091	-0,104
-537,423	-126,806	-0,050	-0,005
-536,408	-98,777	-0,095	0,018
-535,393	169,123	-0,097	-0,102
-534,379	117,837	0,131	-0,119
-533,364	-200,000	-0,001	-0,056
-532,350	74,066	-0,032	0,024
-531,335	-200,000	0,012	0,046
-530,321	-16,097	0,064	-0,030
-529,306	-64,789	0,092	0,027
-528,291	-53,678	0,051	0,017
-527,277	130,220	-0,107	-0,101
-526,262	800,000	-0,038	0,081
-525,248	-200,000	-0,028	-0,106
-524,233	494,273	0,050	0,085
-523,218	11,542	-0,124	0,070
-522,204	265,112	-0,057	0,073
-521,189	95,248	-0,088	0,074
-520,175	-200,000	0,018	-0,243
-519,160	19,522	0,082	0,048
-518,145	190,793	-0,053	-0,059
-517,131	40,891	-0,067	-0,045
-516,116	719,207	0,057	0,111
-515,102	-200,000	0,006	0,154
-514,087	228,024	-0,050	0,060
-513,072	-23,720	-0,118	-0,052
-512,058	163,866	-0,048	0,050
-511,043	188,582	0,050	0,055
-510,029	-200,000	0,006	-0,056
-509,014	684,281	0,010	-0,020
-507,999	373,248	0,051	0,077
-506,985	-25,958	-0,102	-0,044
-505,970	48,538	0,109	0,075
-504,956	656,096	-0,051	-0,097
-503,941	800,000	0,050	0,152
-502,926	800,000	-0,024	0,065
-501,912	-89,204	-0,143	-0,031
-500,897	-167,826	-0,080	0,002
-499,883	204,938	0,074	0,084
-498,868	800,000	0,026	-0,066
-497,853	311,214	-0,012	-0,016
-496,839	-80,838	-0,154	0,037
-495,824	-200,000	0,006	0,135
-494,810	55,406	0,126	0,089
-493,795	800,000	0,031	-0,071
-492,781	-29,089	0,035	0,015
-491,766	530,024	-0,044	0,077
-490,751	417,984	-0,036	0,056
-489,737	800,000	-0,025	-0,075
-488,722	81,284	0,092	0,073
-487,708	-200,000	0,000	0,024
-486,693	-159,170	0,058	-0,002
-485,678	-69,693	-0,099	-0,028
-484,664	-200,000	0,051	-0,177
-483,649	-155,366	-0,085	0,004
-482,635	-84,196	0,048	0,011
-481,620	-200,000	-0,027	-0,195
-480,605	-122,276	0,048	-0,006
-479,591	642,267	-0,093	0,174
-478,576	-43,583	-0,093	-0,034
-477,562	-200,000	0,011	0,075
-476,547	625,124	0,018	-0,034
-475,532	-3,821	0,108	-0,055
-474,518	355,572	-0,044	-0,065
-473,503	116,311	-0,057	0,051
-472,489	-19,844	0,061	0,027
-471,474	179,502	-0,044	-0,047
-470,459	-84,500	-0,047	0,011
-469,445	-5,344	-0,109	-0,055
-468,430	-200,000	0,004	-0,024
-467,416	258,160	0,038	-0,048
-466,401	13,693	0,064	-0,036
-465,386	800,000	-0,016	-0,038
-464,372	348,424	0,045	0,066
-463,357	124,691	-0,031	0,029
-462,343	-200,000	0,029	-0,131
-461,328	-141,289	0,177	-0,013
-460,313	-200,000	-0,027	0,211
-459,299	-12,908	-0,129	-0,061
-458,284	-94,764	-0,056	0,011
-457,270	28,545	0,202	-0,125
-456,255	539,196	-0,067	-0,117
-455,241	-112,012	-0,067	-0,010
-454,226	230,741	0,007	-0,009
-453,211	137,015	0,043	0,041
-452,197	800,000	0,043	-0,097
-451,182	58,483	0,097	0,070
-450,168	25,261	-0,055	0,034
-449,153	-15,281	0,045	-0,021
-448,138	15,618	-0,117	0,067
-447,124	-21,382	0,061	-0,027
-446,109	686,178	-0,034	0,065
-445,095	-80,000	-0,047	0,012
-444,080	30,339	-0,027	-0,017
-443,065	392,062	-0,025	-0,038
-442,051	-48,912	0,091	-0,032
-441,036	103,088	-0,135	0,116
-440,022	-59,115	0,091	-0,029
-439,007	0,054	0,141	-0,073
-437,992	129,281	0,065	-0,061
-436,978	40,580	0,139	0,092
-435,963	736,613	0,028	0,055
-434,949	-22,965	0,009	-0,004
-433,934	-200,000	-0,010	-0,043
-432,919	800,000	-0,037	-0,088
-431,905	47,566	-0,061	0,041
-430,890	-102,899	-0,013	-0,002
-429,876	124,061	0,082	-0,076
-428,861	-200,000	0,030	-0,124
-427,846	-83,885	-0,125	0,029
-426,832	-92,438	0,054	-0,011
-425,817	50,215	0,118	-0,081
-424,803	800,000	0,032	-0,097
-423,788	800,000	0,040	0,119
-422,773	-200,000	0,009	0,135
-421,759	128,715	-0,045	0,042
-420,744	137,282	0,014	0,013
-419,730	-53,722	-0,050	0,017
-418,715	40,362	0,029	0,019
-417,701	-200,000	-0,001	-0,021
-416,686	443,389	0,041	-0,066
-415,671	-200,000	0,012	-0,048
-414,657	-200,000	-0,011	0,082
-413,642	43,827	-0,077	-0,052
-412,628	286,983	0,041	-0,055
-411,613	-148,502	-0,064	-0,004
-410,598	175,976	-0,011	-0,012
-409,584	259,966	0,037	-0,046
-408,569	800,000	-0,020	-0,050
-407,555	74,610	0,068	-0,052
-406,540	475,297	-0,126	0,209
-405,525	-200,000	0,000	-0,073
-404,511	-39,822	0,160	-0,061
-403,496	4,807	-0,081	0,044
-402,482	647,201	-0,037	0,070
-401,467	800,000	0,032	0,070
-400,452	249,965	0,042	0,052
-399,438	-200,000	0,003	0,064
-398,423	800,000	-0,004	-0,012
-397,409	-200,000	-0,001	-0,013
-396,394	-200,000	0,013	-0,057
-395,379	217,519	0,031	-0,036
-394,365	-200,000	-0,006	-0,032
-393,350	-200,000	0,021	0,150
-392,336	-140,126	-0,051	0,004
-391,321	48,546	0,021	0,014
-390,306	102,154	0,095	-0,081
-389,292	800,000	-0,024	0,064
-388,277	-200,000	0,007	-0,060
-387,263	-26,005	0,140	0,060
-386,248	275,693	0,061	-0,079
-385,233	-200,000	-0,010	0,035
-384,219	-200,000	-0,014	-0,068
-383,204	-119,850	-0,051	-0,006
-382,190	338,227	-0,059	-0,084
-381,175	-200,000	0,024	-0,136
-380,160	115,225	-0,065	-0,058
-379,146	-35,807	0,107	-0,042
-378,131	-23,621	0,070	-0,031
-377,117	800,000	0,012	0,026
-376,102	800,000	-0,011	-0,026
-375,088	-90,242	-0,075	-0,016
-374,073	-64,913	0,119	-0,035
-373,058	174,961	0,050	-0,053
-372,044	-200,000	-0,008	0,078
-371,029	418,830	0,073	0,114
-370,015	-200,000	-0,009	0,044
-369,000	-108,239	0,072	-0,011
-367,985	6,671	-0,083	-0,045
-366,971	-200,000	-0,002	0,088
-365,956	800,000	-0,032	0,078
-364,942	174,218	0,054	-0,057
-363,927	-153,197	0,124	0,006
-362,912	800,000	0,022	-0,059
-361,898	37,584	0,082	0,053
-360,883	800,000	0,019	0,041
-359,869	42,488	0,048	-0,032
-358,854	18,569	0,081	0,047
-357,839	145,064	0,095	0,092
-356,825	86,003	0,059	0,047
-355,810	98,821	-0,127	0,107
-354,796	75,664	-0,055	0,042
-353,781	800,000	-0,049	-0,142
-352,766	173,444	0,108	-0,113
-351,752	-200,000	0,001	0,046
-350,737	26,631	0,073	0,045
-349,723	800,000	0,024	-0,070
-348,708	-36,553	0,183	-0,072
-347,693	-142,855	-0,058	0,004
-346,679	-113,702	-0,092	0,013
-345,664	190,771	-0,102	-0,112
-344,650	-200,000	0,031	-0,127
-343,635	-40,132	0,063	0,024
-342,620	-200,000	-0,004	0,152
-341,606	-200,000	0,011	0,116
-340,591	-47,525	-0,025	0,009
-339,577	8,574	-0,039	-0,021
-338,562	-200,000	-0,022	-0,129
-337,548	136,346	-0,076	-0,073
-336,533	738,872	0,030	0,059
-335,518	305,420	0,068	0,093
-334,504	-145,725	0,089	-0,006
-333,489	800,000	-0,034	-0,091
-332,475	-200,000	0,031	0,109
-331,460	4,374	-0,009	0,005
-330,445	-106,132	-0,114	-0,018
-329,431	140,529	0,140	-0,135
-328,416	522,226	0,086	-0,149
-327,402	-200,000	-0,018	-0,072
-326,387	800,000	-0,019	-0,052
-325,372	21,198	0,060	0,035
-324,358	-78,899	-0,081	0,020
-323,343	84,459	-0,055	-0,044
-322,329	-40,617	-0,112	0,042
-321,314	88,314	0,102	0,082
-320,299	-200,000	-0,007	0,157
-319,285	20,057	0,056	0,033
-318,270	154,459	-0,115	-0,116
-317,256	153,412	-0,034	0,034
-316,241	800,000	-0,073	-0,160
-315,226	166,267	0,109	-0,112
-314,212	-79,008	-0,036	0,009
-313,197	-61,384	0,079	0,024
-312,183	31,163	0,079	0,049
-311,168	-75,333	-0,099	0,025
-310,153	-66,070	-0,101	0,029
-309,139	-47,117	0,152	-0,054
-308,124	-76,130	0,182	-0,047
-307,110	-136,402	-0,059	-0,005
-306,095	-11,679	-0,109	0,052
-305,080	800,000	-0,040	0,114
-304,066	308,032	-0,068	0,093
-303,051	284,563	0,034	0,045
-302,037	-200,000	-0,014	-0,066
-301,022	-23,483	0,069	0,030
-300,008	257,684	-0,035	0,044
-298,993	-200,000	0,018	0,081
-297,978	-46,168	0,095	-0,034
-296,964	415,001	0,088	0,136
-295,949	76,801	-0,054	-0,042
-294,935	800,000	0,031	0,085
-293,920	52,960	-0,085	-0,059
-292,905	-29,982	-0,026	-0,011
-291,891	-52,552	0,057	-0,019
-290,876	-47,821	0,081	-0,028
-289,862	-200,000	-0,010	0,071
-288,847	389,578	-0,117	-0,177
-287,832	217,121	0,070	-0,082
-286,818	-122,083	-0,116	-0,014
-285,803	107,048	0,086	0,075
-284,789	395,061	0,061	0,093
-283,774	-200,000	0,004	0,072
-282,759	12,730	-0,067	0,037
-281,745	78,711	-0,068	-0,053
-280,730	498,928	0,075	-0,126
-279,716	-19,075	-0,063	0,028
-278,701	-45,215	0,146	0,053
-277,686	-200,000	0,015	-0,058
-276,672	-200,000	0,041	-0,181
-275,657	-200,000	-0,033	0,133
-274,643	-200,000	0,035	-0,187
-273,628	-32,614	-0,027	0,011
-272,613	-70,103	-0,033	-0,009
-271,599	-93,476	-0,111	0,022
-270,584	-200,000	0,009	0,056
-269,570	-97,615	0,136	0,025
-268,555	-71,408	-0,074	-0,020
-267,540	174,873	-0,042	-0,044
-266,526	-200,000	-0,002	-0,111
-265,511	-200,000	-0,018	-0,215
-264,497	53,152	0,068	0,048
-263,482	-137,177	0,061	-0,005
-262,467	55,259	0,021	-0,015
-261,453	-200,000	-0,007	0,225
-260,438	121,460	-0,112	-0,102
-259,424	-81,885	0,130	-0,031
-258,409	-200,000	0,004	-0,138
-257,395	-200,000	-0,033	0,105
-256,380	120,645	-0,060	0,054
-255,365	-200,000	-0,007	-0,092
-254,351	14,234	-0,048	-0,027
-253,336	144,065	-0,032	-0,031
-252,322	33,081	0,016	-0,010
-251,307	398,248	0,023	-0,035
-250,292	29,124	0,092	0,057
-249,278	-76,910	-0,021	0,005
-248,263	-200,000	0,039	0,139
-247,249	-200,000	-0,007	0,169
-246,234	-106,024	-0,027	-0,004
-245,219	800,000	0,009	0,025
-244,205	-15,892	0,134	0,062
-243,190	29,025	0,078	-0,048
-242,176	468,801	-0,085	0,140
-241,161	-75,720	0,088	-0,023
-240,146	213,529	-0,073	0,084
-239,132	-200,000	-0,008	-0,037
-238,117	800,000	-0,049	-0,100
-237,103	398,866	-0,044	0,068
-236,088	56,367	0,079	0,056
-235,073	-40,080	0,079	-0,030
-234,059	-23,733	0,067	-0,029
-233,044	76,494	0,083	-0,064
-232,030	-96,258	-0,128	0,024
-231,015	-134,433	0,135	0,012
-230,000	-200,000	-0,005	0,020
-228,986	-64,147	0,120	0,035
-227,971	91,051	-0,095	0,077
-226,957	-200,000	-0,024	0,126
-225,942	205,537	-0,096	0,109
-224,927	6,824	-0,047	-0,025
-223,913	212,801	0,052	0,060
-222,898	57,965	-0,034	-0,024
-221,884	-9,702	-0,074	-0,036
-220,869	36,519	0,114	-0,073
-219,855	800,000	-0,060	0,135
-218,840	30,021	-0,071	-0,044
-217,825	-35,929	-0,120	-0,047
-216,811	-200,000	0,030	0,154
-215,796	-119,489	-0,105	0,013
-214,782	-65,590	-0,038	-0,011
-213,767	800,000	-0,037	-0,090
-212,752	502,042	-0,021	0,036
-211,738	44,130	-0,108	-0,072
-210,723	-67,862	0,098	0,028
-209,709	-175,935	0,145	-0,003
-208,694	179,746	-0,075	-0,080
-207,679	159,955	-0,071	-0,072
-206,665	288,814	0,056	-0,074
-205,650	6,380	-0,113	0,061
-204,636	-200,000	0,024	0,115
-203,621	-200,000	-0,010	0,070
-202,606	202,564	0,094	-0,105
-201,592	800,000	-0,026	0,081
-200,577	28,235	-0,031	0,019
-199,563	800,000	-0,011	0,033
-198,548	-200,000	0,001	0,043
-197,533	133,863	0,030	0,028
-196,519	-200,000	0,016	0,084
-195,504	-123,182	-0,042	0,005
-194,490	612,910	-0,005	0,009
-193,475	-200,000	-0,017	-0,093
-192,460	800,000	0,021	-0,043
-191,446	-200,000	0,007	0,089
-190,431	-60,885	0,061	-0,019
-189,417	-38,976	-0,088	-0,034
-188,402	124,902	-0,093	0,085
-187,387	441,760	0,099	0,158
-186,373	800,000	-0,031	-0,098
-185,358	-27,194	0,134	-0,057
-184,344	756,892	-0,085	0,168
-183,329	1,655	0,180	-0,094
-182,315	212,035	0,047	-0,054
-181,300	-140,220	-0,122	0,009
-180,285	800,000	-0,029	-0,070
-179,271	-200,000	-0,007	0,024
-178,256	16,347	-0,072	0,041
-177,242	259,886	0,083	0,104
-176,227	221,549	0,115	-0,134
-175,212	-200,000	0,005	-0,019
-174,198	-46,911	0,196	0,069
-173,183	233,250	0,014	0,017
-172,169	160,578	-0,112	0,114
-171,154	124,334	-0,070	0,064
-170,139	230,185	-0,060	0,071
-169,125	-57,149	0,064	0,020
-168,110	-29,895	0,083	0,034
-167,096	-97,261	0,041	0,008
-166,081	-32,984	-0,094	-0,038
-165,066	-77,826	-0,067	-0,017
-164,052	-100,386	-0,065	0,012
-163,037	66,218	-0,033	0,024
-162,023	-27,381	-0,199	0,083
-161,008	-120,139	0,087	-0,011
-159,993	60,645	-0,068	0,049
-158,979	179,021	-0,073	-0,078
-157,964	-97,509	-0,068	-0,013
-156,950	146,578	-0,047	0,046
-155,935	-114,480	0,006	0,001
-154,920	-80,776	0,118	0,028
-153,906	-31,539	-0,038	-0,015
-152,891	25,336	-0,044	-0,027
-151,877	175,360	-0,070	-0,074
-150,862	145,783	-0,055	0,053
-149,847	800,000	0,005	-0,015
-148,833	-3,775	0,081	0,041
-147,818	800,000	0,015	0,033
-146,804	-200,000	0,046	-0,202
-145,789	800,000	0,064	0,141
-144,775	506,835	0,045	-0,077
-143,760	-56,862	-0,139	-0,044
-142,745	797,270	0,018	-0,037
-141,731	596,004	0,028	-0,051
-140,716	206,932	-0,095	-0,108
-139,702	-200,000	-0,013	0,107
-138,687	800,000	-0,015	0,042
-137,672	800,000	0,083	-0,185
-136,658	-200,000	0,001	-0,041
-135,643	660,664	-0,014	0,026
-134,629	-106,687	0,052	-0,008
-133,614	-200,000	0,011	-0,039
-132,599	-124,338	0,123	-0,014
-131,585	-45,836	-0,103	0,037
-130,570	256,988	0,037	-0,046
-129,556	-132,905	-0,063	0,006
-128,541	281,081	-0,066	0,086
-127,526	-11,441	-0,059	-0,028
-126,512	103,009	0,110	0,094
-125,497	800,000	0,030	-0,094
-124,483	235,012	-0,082	0,098
-123,468	-200,000	-0,011	0,052
-122,453	614,355	-0,077	-0,140
-121,439	-200,000	0,014	0,122
-120,424	574,288	-0,057	-0,101
-119,410	-104,796	0,056	-0,009
-118,395	-157,335	0,081	-0,003
-117,380	-200,000	-0,001	-0,007
-116,366	705,393	-0,012	0,023
-115,351	-6,833	-0,063	0,031
-114,337	-41,719	-0,110	-0,041
-113,322	-200,000	-0,019	0,073
-112,307	-200,000	0,011	0,041
-111,293	-200,000	0,008	0,107
-110,278	-57,203	0,101	0,032
-109,264	30,456	-0,063	0,039
-108,249	-93,321	-0,113	-0,022
-107,234	66,273	0,104	-0,076
-106,220	-3,402	-0,076	-0,038
-105,205	-50,737	0,127	-0,043
-104,191	297,897	-0,024	0,032
-103,176	-200,000	-0,002	0,064
-102,162	-162,473	-0,044	-0,002
-101,147	-71,101	-0,130	0,035
-100,132	109,351	0,109	-0,094
-99,118	256,005	-0,036	-0,044
-98,103	-200,000	-0,006	-0,079
-97,089	-200,000	0,002	0,039
-96,074	-16,696	0,067	0,031
-95,059	800,000	-0,054	-0,111
-94,045	-200,000	0,016	0,057
-93,030	691,396	-0,060	-0,114
-92,016	800,000	-0,044	-0,101
-91,001	40,710	0,062	0,041
-89,986	800,000	-0,026	0,063
-88,972	-61,612	0,101	0,030
-87,957	-200,000	0,009	-0,137
-86,943	227,448	-0,043	-0,050
-85,928	238,603	0,059	-0,070
-84,913	70,235	0,083	-0,062
-83,899	-200,000	-0,011	-0,093
-82,884	251,115	0,053	0,065
-81,870	-99,429	0,088	-0,016
-80,855	409,547	0,011	-0,017
-79,840	-36,999	-0,104	0,040
-78,826	-168,353	-0,175	0,005
-77,811	-200,000	0,020	-0,096
-76,797	10,711	-0,132	-0,072
-75,782	96,190	0,065	0,054
-74,767	170,801	-0,007	-0,007
-73,753	800,000	0,018	0,042
-72,738	188,112	-0,173	0,187
-71,724	-161,352	-0,154	-0,006
-70,709	-178,211	-0,221	-0,004
-69,694	-100,313	0,041	0,007
-68,680	-11,938	-0,064	0,030
-67,665	-200,000	0,005	-0,049
-66,651	-30,731	0,071	0,029
-65,636	242,133	-0,075	-0,091
-64,622	67,363	-0,068	-0,050
-63,607	606,238	-0,018	0,033
-62,592	131,734	-0,013	0,012
-61,578	-83,200	0,043	0,010
-60,563	-160,440	-0,093	-0,004
-59,549	-200,000	-0,013	0,117
-58,534	-76,780	-1,714	-0,430
-57,519	800,000	-0,487	-1,049
-56,505	-200,000	-1,018	-4,528
-55,490	-40,382	0,595	-0,222
-54,476	800,000	5,079	12,121
-53,461	-200,000	15,287	266,343
-52,446	800,000	697,968	2204,841
-51,432	550,689	1617,519	2812,691
-50,417	119,085	1625,847	1451,341
-49,403	78,872	1284,577	991,500
-48,388	36,826	1026,011	653,326
-47,373	21,921	987,381	579,584
-46,359	20,989	976,245	569,961
-45,344	19,486	971,961	562,513
-44,330	19,550	970,609	561,917
-43,315	19,310	968,989	560,175
-42,300	19,289	967,929	559,471
-41,286	19,225	967,263	558,853
-40,271	19,268	966,058	558,277
-39,257	19,335	965,052	557,889
-38,242	19,264	964,400	557,262
-37,227	19,257	963,744	556,837
-36,213	19,233	962,850	556,220
-35,198	19,260	961,935	555,756
-34,184	19,236	961,249	555,260
-33,169	19,198	960,305	554,568
-32,154	19,290	959,307	554,268
-31,140	19,276	958,430	553,694
-30,125	19,250	957,712	553,175
-29,111	19,267	956,904	552,739
-28,096	19,300	956,322	552,489
-27,082	19,214	955,570	551,755
-26,067	19,224	954,819	551,333
-25,052	19,315	953,881	551,061
-24,038	19,292	953,372	550,671
-23,023	19,212	952,626	549,963
-22,009	19,286	951,986	549,809
-20,994	19,294	951,277	549,403
-19,979	19,244	950,953	549,032
-18,965	19,252	950,108	548,550
-17,950	19,249	949,614	548,234
-16,936	19,217	948,814	547,647
-15,921	19,168	948,382	547,218
-14,906	19,107	947,413	546,445
-13,892	19,130	946,835	546,161
-12,877	19,120	946,276	545,784
-11,863	19,140	945,550	545,410
-10,848	19,088	945,110	544,968
-9,833	19,202	944,733	545,092
-8,819	19,165	944,110	544,593
-7,804	19,186	943,403	544,230
-6,790	19,042	942,936	543,482
-5,775	19,172	942,148	543,420
-4,760	19,181	941,442	543,019
-3,746	19,091	940,995	542,454
-2,731	19,012	940,193	541,721
-1,717	18,998	939,402	541,197
-0,702	18,930	938,863	540,650
0,313	18,805	938,188	540,685
1,327	21,840	936,572	549,283
2,342	31,094	795,723	491,283
3,356	28,432	450,596	274,175
4,371	-0,877	296,200	150,801
5,386	-4,950	277,260	137,270
6,400	-6,208	271,944	133,451
7,415	-6,619	269,664	131,938
8,429	-6,473	268,251	131,370
9,444	-6,604	267,323	130,784
10,459	-6,691	266,680	130,378
11,473	-6,670	265,945	130,026
12,488	-6,861	265,416	129,582
13,502	-7,152	265,026	129,115
14,517	-7,064	264,452	128,904
15,531	-7,207	264,179	128,629
16,546	-7,246	263,734	128,366
17,561	-7,261	263,303	128,131
18,575	-7,052	262,991	128,156
19,590	-7,301	262,596	127,728
20,604	-7,378	262,442	127,573
21,619	-7,388	262,100	127,386
22,634	-7,341	261,679	127,212
23,648	-7,365	261,348	127,018
24,663	-7,221	261,054	126,993
25,677	-7,488	260,890	126,662
26,692	-7,356	260,540	126,599
27,707	-7,391	260,359	126,469
28,721	-7,526	260,184	126,252
29,736	-7,628	259,838	125,982
30,750	-7,417	259,574	126,031
31,765	-7,531	259,276	125,774
32,780	-7,458	259,108	125,746
33,794	-7,406	258,949	125,703
34,809	-7,272	258,441	125,565
35,823	-7,512	258,355	125,299
36,838	-7,671	258,274	125,108
37,853	-7,689	257,877	124,888
38,867	-7,475	257,643	124,953
39,882	-7,699	257,392	124,622
40,896	-7,717	257,344	124,572
41,911	-7,326	256,842	124,662
42,926	-7,576	256,620	124,323
43,940	-7,701	256,481	124,135
44,955	-7,731	256,254	123,987
45,969	-7,879	255,987	123,718
46,984	-7,986	255,840	123,541
47,999	-7,947	255,383	123,344
49,013	-8,209	255,133	122,983
50,028	-8,387	254,954	122,730
51,042	-8,522	254,706	122,482
52,057	-8,404	254,458	122,455
53,071	-8,419	254,260	122,336
54,086	-8,250	254,145	122,417
55,101	-8,105	253,911	122,419
56,115	-7,803	253,826	122,630
57,130	-7,365	253,834	123,003
58,144	-7,209	253,667	123,047
59,159	-7,304	253,477	122,861
60,174	-7,042	253,261	122,973
61,188	-7,261	253,049	122,670
62,203	-7,304	252,732	122,467
63,217	-7,504	252,580	122,210
64,232	-7,368	252,356	122,208
65,247	-7,120	252,151	122,312
66,261	-7,201	251,804	122,063
67,276	-7,494	251,667	121,734
68,290	-7,916	251,427	121,244
69,305	-7,947	251,300	121,145
70,320	-7,822	250,902	121,050
71,334	-7,570	250,796	121,204
72,349	-7,237	250,648	121,407
73,363	-7,017	250,600	121,561
74,378	-7,275	250,452	121,258
75,393	-7,312	250,191	121,089
76,407	-7,419	249,952	120,870
77,422	-7,396	249,698	120,757
78,436	-7,627	249,518	120,462
79,451	-7,348	249,309	120,588
80,466	-7,299	248,960	120,450
81,480	-7,711	248,827	120,025
82,495	-7,623	248,452	119,908
83,509	-7,598	248,450	119,917
84,524	-7,611	248,116	119,735
85,539	-7,825	247,967	119,471
86,553	-7,874	247,775	119,326
87,568	-7,661	247,553	119,389
88,582	-7,554	247,323	119,358
89,597	-7,891	247,251	119,027
90,611	-7,570	247,210	119,268
91,626	-7,366	246,998	119,327
92,641	-7,456	246,730	119,111
93,655	-7,463	246,630	119,047
94,670	-7,631	246,372	118,771
95,684	-7,673	246,279	118,680
96,699	-7,822	246,035	118,427
97,714	-7,737	245,758	118,353
98,728	-7,761	245,486	118,192
99,743	-7,709	245,301	118,136
100,757	-8,068	245,170	117,761
101,772	-7,676	244,953	117,975
102,787	-7,774	244,824	117,821
103,801	-7,518	244,640	117,934
104,816	-7,515	244,487	117,853
105,830	-7,498	244,386	117,809
106,845	-7,337	244,164	117,825
107,860	-7,257	244,072	117,836
108,874	-7,500	243,779	117,482
109,889	-7,569	243,609	117,332
110,903	-7,427	243,455	117,366
111,918	-7,578	243,260	117,136
112,933	-7,492	243,143	117,141
113,947	-7,427	242,929	117,081
114,962	-7,363	242,691	117,009
115,976	-7,298	242,406	116,915
116,991	-7,549	242,399	116,694
118,006	-7,619	242,246	116,551
119,020	-7,354	242,103	116,691
120,035	-7,410	242,055	116,611
121,049	-7,203	241,814	116,656
122,064	-7,390	241,646	116,410
123,079	-7,529	241,490	116,210
124,093	-7,693	241,190	115,921
125,108	-7,674	240,967	115,819
126,122	-7,781	240,708	115,596
127,137	-7,964	240,514	115,343
128,151	-8,043	240,379	115,203
129,166	-7,682	240,229	115,417
130,181	-7,752	240,023	115,250
131,195	-7,840	239,899	115,108
132,210	-7,558	239,805	115,283
133,224	-7,496	239,481	115,168
134,239	-7,451	239,410	115,159
135,254	-7,300	239,186	115,164
136,268	-7,526	239,024	114,892
137,283	-7,849	238,794	114,510
138,297	-7,979	238,610	114,305
139,312	-7,930	238,291	114,182
140,327	-7,602	238,351	114,467
141,341	-7,086	238,448	114,921
142,356	-7,258	238,312	114,706
143,370	-7,089	238,106	114,733
144,385	-6,961	237,909	114,732
145,400	-6,984	237,644	114,575
146,414	-6,899	237,411	114,521
147,429	-7,132	237,212	114,228
148,443	-7,246	237,141	114,091
149,458	-7,206	237,008	114,049
150,473	-6,987	236,767	114,099
151,487	-6,955	236,458	113,966
152,502	-6,991	236,262	113,832
153,516	-6,853	236,283	113,942
154,531	-7,025	235,988	113,652
155,546	-7,142	236,014	113,561
156,560	-7,143	235,707	113,402
157,575	-7,227	235,632	113,289
158,589	-7,348	235,366	113,055
159,604	-7,127	235,249	113,165
160,619	-6,983	235,074	113,185
161,633	-6,905	235,041	113,221
162,648	-6,969	234,905	113,095
163,662	-7,278	234,724	112,751
164,677	-7,154	234,457	112,711
165,692	-7,178	234,459	112,684
166,706	-7,013	234,114	112,639
167,721	-6,909	234,044	112,678
168,735	-6,932	233,922	112,591
169,750	-7,071	233,855	112,438
170,764	-6,920	233,535	112,393
171,779	-7,036	233,534	112,291
172,794	-6,910	233,313	112,275
173,808	-7,001	232,997	112,041
174,823	-7,622	232,786	111,440
175,837	-7,657	232,535	111,282
176,852	-6,979	232,451	111,766
177,867	-7,014	232,363	111,686
178,881	-6,942	232,340	111,721
179,896	-6,846	232,132	111,687
180,910	-6,767	231,892	111,623
181,925	-6,803	231,861	111,571
182,940	-6,921	231,664	111,373
183,954	-6,745	231,547	111,445
184,969	-7,017	231,496	111,197
185,983	-6,902	231,212	111,141
186,998	-6,849	231,114	111,126
188,013	-6,697	230,898	111,130
189,027	-6,858	230,867	110,980
190,042	-6,860	230,723	110,899
191,056	-6,755	230,579	110,901
192,071	-6,841	230,507	110,790
193,086	-6,634	230,263	110,824
194,100	-6,454	230,080	110,866
195,115	-6,403	230,035	110,874
196,129	-6,163	230,004	111,036
197,144	-2,157	231,300	114,781
198,159	1,949	232,428	118,545
199,173	3,649	232,720	120,014
200,188	3,557	232,649	119,895
201,202	3,477	232,477	119,733
202,217	3,835	232,391	119,958
203,232	4,167	232,426	120,224
204,246	4,253	232,149	120,137
205,261	4,437	231,947	120,165
206,275	4,309	231,964	120,064
207,290	4,317	231,751	119,948
208,304	4,359	231,630	119,908
209,319	4,415	231,338	119,789
210,334	4,274	231,275	119,637
211,348	4,051	230,919	119,269
212,363	3,905	230,622	118,992
213,377	3,502	230,565	118,640
214,392	3,467	230,431	118,534
215,407	3,648	230,251	118,571
216,421	3,512	230,314	118,487
217,436	3,714	229,898	118,418
218,450	3,404	229,782	118,109
219,465	3,253	229,548	117,862
220,480	3,369	229,573	117,954
221,494	3,234	229,405	117,753
222,509	3,450	229,292	117,850
223,523	3,573	229,049	117,809
224,538	3,678	228,803	117,753
225,553	3,462	228,771	117,560
226,567	3,542	228,574	117,511
227,582	3,836	228,453	117,663
228,596	4,143	228,421	117,871
229,611	3,646	228,271	117,403
230,626	3,360	227,943	117,005
231,640	3,540	227,770	117,043
232,655	3,798	227,793	117,241
233,669	4,263	227,675	117,525
234,684	4,347	227,548	117,512
235,699	3,914	227,516	117,155
236,713	3,789	227,244	116,911
237,728	3,692	226,948	116,674
238,742	3,463	226,815	116,421
239,757	3,529	226,705	116,404
240,772	3,463	226,556	116,267
241,786	3,400	226,426	116,143
242,801	3,556	226,233	116,151
243,815	3,939	226,356	116,494
244,830	3,965	225,976	116,308
245,844	3,672	225,786	115,978
246,859	3,791	225,757	116,043
247,874	3,883	225,465	115,952
248,888	3,923	225,387	115,932
249,903	3,718	225,211	115,676
250,917	3,467	225,194	115,468
251,932	3,503	225,052	115,413
252,947	3,637	224,752	115,349
253,961	3,512	224,543	115,138
254,976	3,416	224,612	115,091
255,990	3,724	224,483	115,246
257,005	3,633	224,322	115,084
258,020	3,747	224,137	115,064
259,034	3,956	224,028	115,155
260,049	4,003	223,881	115,104
261,063	3,739	223,804	114,856
262,078	3,883	223,614	114,856
263,093	4,099	223,372	114,883
264,107	3,957	223,314	114,737
265,122	4,063	223,200	114,747
266,136	3,979	223,188	114,669
267,151	4,098	222,866	114,582
268,166	3,815	222,508	114,176
269,180	3,332	222,438	113,772
270,195	3,397	222,368	113,774
271,209	3,257	222,138	113,542
272,224	3,584	222,149	113,780
273,239	3,771	221,986	113,826
274,253	3,436	221,793	113,468
275,268	3,465	221,602	113,382
276,282	3,185	221,384	113,053
277,297	3,221	221,259	113,006
278,312	3,480	221,192	113,153
279,326	3,523	221,014	113,083
280,341	3,601	220,843	113,043
281,355	3,659	220,776	113,041
282,370	3,479	220,675	112,847
283,384	3,293	220,431	112,576
284,399	3,239	220,284	112,451
285,414	3,281	220,158	112,407
286,428	3,783	220,072	112,722
287,443	3,771	219,971	112,651
288,457	3,598	219,795	112,424
289,472	3,430	219,705	112,245
290,487	3,153	219,274	111,812
291,501	3,239	219,142	111,798
292,516	3,434	219,010	111,863
293,530	3,421	218,933	111,804
294,545	3,198	218,941	111,635
295,560	3,389	218,768	111,677
296,574	3,477	218,621	111,656
297,589	3,707	218,449	111,726
298,603	3,491	218,403	111,535
299,618	3,615	218,219	111,521
300,633	3,479	218,244	111,425
301,647	3,904	218,110	111,655
302,662	3,859	217,975	111,544
303,676	3,744	217,768	111,344
304,691	3,903	217,603	111,365
305,706	3,995	217,552	111,396
306,720	3,929	217,319	111,219
307,735	3,385	217,194	110,752
308,749	3,195	217,020	110,516
309,764	3,539	216,887	110,687
310,779	4,060	216,740	110,978
311,793	4,041	216,516	110,839
312,808	3,709	216,501	110,582
313,822	3,729	216,326	110,498
314,837	3,603	216,043	110,253
315,852	3,506	215,958	110,130
316,866	3,839	215,812	110,284
317,881	4,021	215,765	110,381
318,895	3,792	215,781	110,216
319,910	3,745	215,395	109,975
320,925	3,285	215,334	109,604
321,939	3,224	215,035	109,399
322,954	3,369	214,970	109,460
323,968	3,347	215,063	109,481
324,983	3,476	215,072	109,569
325,997	3,905	214,770	109,711
327,012	3,883	214,638	109,618
328,027	3,904	214,346	109,474
329,041	4,197	214,321	109,660
330,056	4,044	214,324	109,544
331,070	3,701	213,975	109,111
332,085	3,185	213,884	108,688
333,100	3,574	213,682	108,852
334,114	3,630	213,551	108,816
335,129	3,661	213,417	108,760
336,143	3,219	213,321	108,388
337,158	3,385	213,198	108,434
338,173	3,516	213,113	108,472
339,187	3,469	212,858	108,300
340,202	3,463	212,655	108,183
341,216	3,272	212,597	108,009
342,231	3,315	212,514	107,987
343,246	3,247	212,419	107,882
344,260	3,470	212,174	107,905
345,275	3,455	212,027	107,810
346,289	3,706	211,964	107,945
347,304	3,830	211,785	107,931
348,319	3,646	211,639	107,718
349,333	3,614	211,617	107,675
350,348	3,404	211,448	107,431
351,362	3,795	211,423	107,683
352,377	3,863	211,200	107,608
353,392	3,659	211,039	107,374
354,406	3,808	210,911	107,403
355,421	195,821	1342,301	1429,632
356,435	156,407	1480,194	1429,676
