DTS Sentinel unit serial number:	SN410029Multiplexer serial number:	ORYXHardware model number:	OX2-SRSoftware version number:	ORYX F/W v4,00 Oryx Data Collector v3.7.2.0data status	okinstallation	B6 Nyhavnadifferential loss correction	single-endedforward channel	channel 2reverse channel	N/Adate	2023/12/09time	17:40:09forward acquisition time	300,00reverse acquisition time	0,00gamma	499,1914k internal	0,3130k external	0,3130temperature offset calibration	1,0000default loss term (dB/km)	0,3820temperature slope calibration	1,0000multiplexer offset coefficient	1,0000multiplexer slope coefficient	1,0000fibre end	0,00T internal ref (°C)	21,01T ext. ref 1 (°C)	4,72T ext. ref 2 (°C)	4,73length (m)	temperature (°C)	Stokes	anti-Stokes-744,400	-158,829	0,126	0,005
-743,385	-57,585	-0,262	0,085
-742,371	-17,439	-0,047	0,022
-741,356	154,166	-0,209	0,214
-740,342	-132,533	0,050	-0,005
-739,327	9,039	-0,209	0,117
-738,312	-19,324	0,094	-0,043
-737,298	-148,233	-0,319	0,019
-736,283	-156,727	0,160	0,007
-735,269	34,008	-0,208	0,134
-734,254	-187,658	0,087	0,001
-733,239	-181,534	-0,352	0,005
-732,225	-200,000	0,044	0,193
-731,210	-134,308	-0,041	0,004
-730,196	52,015	0,139	0,098
-729,181	-200,000	0,003	-0,051
-728,167	108,080	-0,045	0,040
-727,152	16,408	-0,160	-0,094
-726,137	-200,000	0,003	-0,036
-725,123	143,124	-0,105	-0,104
-724,108	800,000	-0,021	-0,064
-723,094	-200,000	0,036	-0,168
-722,079	80,664	-0,130	-0,104
-721,064	-200,000	-0,009	-0,060
-720,050	-1,114	-0,059	-0,031
-719,035	347,887	0,062	-0,090
-718,021	94,774	-0,084	-0,071
-717,006	800,000	0,020	-0,061
-715,991	-28,008	-0,071	0,030
-714,977	-31,146	-0,096	0,040
-713,962	-117,241	-0,153	-0,020
-712,948	734,528	0,017	-0,033
-711,933	187,309	0,092	-0,102
-710,918	127,470	-0,056	0,053
-709,904	98,779	-0,015	-0,013
-708,889	-200,000	-0,046	-0,152
-707,875	-200,000	0,040	-0,141
-706,860	177,645	0,061	-0,066
-705,845	656,379	0,043	-0,083
-704,831	135,151	-0,111	-0,108
-703,816	800,000	0,026	-0,072
-702,802	-81,566	0,128	0,031
-701,787	297,707	-0,120	-0,164
-700,772	491,143	-0,034	-0,058
-699,758	218,565	-0,041	-0,048
-698,743	-200,000	0,007	0,035
-697,729	800,000	0,034	0,075
-696,714	-200,000	-0,009	0,204
-695,699	171,961	-0,045	0,048
-694,685	-200,000	-0,018	0,071
-693,670	-200,000	-0,001	0,086
-692,656	38,964	-0,057	-0,038
-691,641	327,066	-0,026	0,037
-690,627	31,944	-0,122	0,078
-689,612	800,000	0,030	-0,088
-688,597	-200,000	-0,010	0,057
-687,583	38,933	0,104	-0,069
-686,568	53,114	0,024	-0,017
-685,554	-200,000	0,009	0,055
-684,539	-200,000	-0,006	0,131
-683,524	-132,743	-0,105	0,010
-682,510	80,784	0,123	0,098
-681,495	-80,439	-0,180	0,044
-680,481	33,290	-0,034	0,022
-679,466	205,316	0,065	-0,075
-678,451	69,042	-0,112	0,085
-677,437	287,734	-0,094	-0,126
-676,422	800,000	0,062	0,133
-675,408	-8,704	-0,043	0,021
-674,393	686,236	-0,073	-0,141
-673,378	-200,000	0,027	-0,145
-672,364	73,092	-0,023	0,018
-671,349	-70,159	-0,124	-0,035
-670,335	45,276	-0,132	0,090
-669,320	99,083	0,065	0,055
-668,305	660,683	0,041	0,079
-667,291	716,850	-0,031	0,062
-666,276	-200,000	0,047	-0,198
-665,262	-200,000	-0,005	-0,064
-664,247	274,875	0,023	-0,030
-663,232	800,000	-0,053	-0,132
-662,218	-143,574	0,191	0,013
-661,203	164,593	0,056	-0,058
-660,189	113,292	-0,059	0,053
-659,174	800,000	0,038	-0,089
-658,159	800,000	0,032	-0,104
-657,145	-76,629	-0,099	-0,026
-656,130	259,404	0,090	-0,115
-655,116	117,185	-0,100	-0,091
-654,101	302,292	0,083	0,114
-653,086	-121,878	-0,117	0,014
-652,072	205,145	-0,120	-0,138
-651,057	-115,566	-0,099	0,014
-650,043	-50,307	-0,032	-0,011
-649,028	800,000	-0,028	-0,091
-648,014	-20,680	0,111	0,050
-646,999	-2,121	-0,063	0,033
-645,984	29,612	0,048	-0,030
-644,970	111,444	-0,089	-0,080
-643,955	584,027	-0,034	-0,062
-642,941	-41,160	-0,143	-0,055
-641,926	-20,671	-0,102	0,046
-640,911	45,981	0,065	0,045
-639,897	-117,568	0,073	-0,010
-638,882	-12,368	-0,098	0,047
-637,868	37,159	0,114	-0,075
-636,853	646,542	-0,025	-0,047
-635,838	-124,197	-0,102	0,012
-634,824	150,857	-0,025	-0,025
-633,809	176,620	-0,145	-0,156
-632,795	194,785	0,059	0,066
-631,780	21,118	0,089	0,054
-630,765	22,841	-0,148	-0,089
-629,751	115,825	-0,109	-0,098
-628,736	474,618	0,080	0,135
-627,722	411,703	0,087	-0,137
-626,707	-117,543	0,068	0,009
-625,692	-71,413	0,091	0,025
-624,678	-200,000	-0,007	0,084
-623,663	800,000	-0,038	-0,114
-622,649	800,000	0,014	-0,029
-621,634	-59,986	0,076	0,024
-620,619	52,185	-0,149	-0,105
-619,605	-50,882	-0,080	0,028
-618,590	27,991	-0,035	0,022
-617,576	-40,619	-0,097	0,037
-616,561	-107,479	-0,152	-0,024
-615,546	-200,000	-0,021	-0,128
-614,532	-200,000	-0,039	-0,135
-613,517	-200,000	-0,035	-0,177
-612,503	204,854	-0,117	-0,134
-611,488	-25,307	0,054	-0,023
-610,474	800,000	-0,048	0,118
-609,459	-68,348	0,089	0,025
-608,444	800,000	0,043	0,108
-607,430	-51,754	-0,043	-0,015
-606,415	46,737	-0,033	-0,023
-605,401	-200,000	-0,019	-0,112
-604,386	800,000	0,045	-0,099
-603,371	-200,000	0,014	0,080
-602,357	-15,465	0,019	0,009
-601,342	43,352	-0,123	-0,083
-600,328	470,486	-0,081	-0,135
-599,313	-116,581	-0,138	-0,019
-598,298	-39,025	-0,190	-0,074
-597,284	-200,000	0,025	0,137
-596,269	-25,612	-0,083	-0,036
-595,255	800,000	-0,035	0,085
-594,240	-17,486	0,131	0,061
-593,225	297,806	0,091	-0,124
-592,211	-119,533	-0,130	0,016
-591,196	-46,563	0,155	0,056
-590,182	-200,000	0,024	0,102
-589,167	-76,414	0,037	-0,009
-588,152	-165,672	0,026	0,001
-587,138	-70,831	-0,115	0,032
-586,123	70,490	-0,052	0,039
-585,109	158,982	-0,086	-0,089
-584,094	227,483	-0,054	-0,065
-583,079	-171,191	0,142	0,003
-582,065	378,931	-0,035	0,054
-581,050	499,295	-0,064	-0,109
-580,036	-200,000	0,011	0,041
-579,021	800,000	0,059	-0,168
-578,006	72,040	-0,060	-0,046
-576,992	-26,255	-0,123	0,053
-575,977	87,372	0,092	0,076
-574,963	-200,000	0,000	0,060
-573,948	38,553	0,079	0,052
-572,934	149,785	-0,076	-0,076
-571,919	54,136	0,109	0,077
-570,904	383,727	0,066	-0,100
-569,890	17,676	-0,141	0,083
-568,875	800,000	0,055	-0,113
-567,861	-200,000	0,023	0,163
-566,846	800,000	0,057	0,136
-565,831	249,211	0,073	-0,092
-564,817	-200,000	0,000	-0,032
-563,802	-78,417	-0,150	-0,038
-562,788	-200,000	0,049	-0,165
-561,773	456,818	-0,048	0,078
-560,758	800,000	0,029	0,094
-559,744	186,785	0,010	0,011
-558,729	206,114	0,042	-0,048
-557,715	434,073	-0,038	-0,062
-556,700	-36,775	-0,049	0,019
-555,685	-104,668	-0,055	-0,009
-554,671	-19,950	0,072	0,033
-553,656	-200,000	0,017	-0,090
-552,642	-200,000	0,024	0,146
-551,627	-65,590	-0,053	-0,016
-550,612	628,529	-0,073	-0,138
-549,598	46,506	0,213	-0,146
-548,583	99,200	-0,118	-0,101
-547,569	-58,188	0,100	0,032
-546,554	-200,000	0,013	0,121
-545,539	85,116	-0,078	-0,063
-544,525	-12,778	0,046	-0,022
-543,510	-200,000	-0,002	0,044
-542,496	143,555	-0,127	-0,125
-541,481	-114,543	0,054	-0,008
-540,466	270,375	-0,032	0,042
-539,452	800,000	-0,042	-0,131
-538,437	-200,000	0,003	-0,083
-537,423	166,780	0,019	0,020
-536,408	247,183	0,044	-0,055
-535,393	-115,341	-0,039	0,005
-534,379	-116,911	-0,044	0,006
-533,364	-95,384	0,067	0,013
-532,350	-12,330	-0,079	-0,038
-531,335	-88,193	-0,051	0,011
-530,321	184,852	0,044	-0,048
-529,306	800,000	0,031	0,088
-528,291	-200,000	-0,007	0,050
-527,277	445,369	-0,049	-0,080
-526,262	-200,000	-0,039	-0,134
-525,248	65,252	-0,127	-0,095
-524,233	-200,000	-0,005	0,049
-523,218	-200,000	-0,007	-0,103
-522,204	-200,000	-0,011	-0,047
-521,189	626,266	-0,073	-0,137
-520,175	-200,000	0,024	-0,093
-519,160	-52,593	-0,058	-0,020
-518,145	-200,000	0,002	0,068
-517,131	32,827	-0,070	0,045
-516,116	-200,000	0,041	-0,184
-515,102	800,000	-0,011	-0,033
-514,087	-200,000	-0,012	0,058
-513,072	-200,000	-0,002	-0,024
-512,058	-94,749	0,038	0,008
-511,043	209,274	0,093	-0,108
-510,029	800,000	-0,032	0,087
-509,014	94,566	0,032	0,027
-507,999	-76,061	0,134	-0,035
-506,985	-112,692	0,082	0,012
-505,970	-98,665	-0,204	0,038
-504,956	-49,122	-0,018	-0,006
-503,941	-45,800	0,069	-0,025
-502,926	-200,000	0,002	-0,051
-501,912	-200,000	0,005	0,055
-500,897	31,214	0,028	0,018
-499,883	324,244	0,080	0,113
-498,868	-0,665	-0,124	0,065
-497,853	-19,019	0,104	0,047
-496,839	152,532	-0,076	-0,076
-495,824	75,354	0,018	0,014
-494,810	183,322	0,081	0,088
-493,795	-113,297	-0,148	0,021
-492,781	188,548	0,055	0,060
-491,766	-54,526	-0,081	0,027
-490,751	135,799	-0,104	-0,100
-489,737	-153,439	-0,079	-0,004
-488,722	206,447	0,109	-0,125
-487,708	112,507	0,030	0,027
-486,693	-200,000	0,041	0,176
-485,678	-200,000	-0,006	-0,148
-484,664	69,606	-0,090	-0,068
-483,649	-156,864	-0,068	0,003
-482,635	-200,000	0,007	0,035
-481,620	10,192	0,073	-0,041
-480,605	800,000	0,053	0,132
-479,591	-49,196	0,102	0,036
-478,576	-14,142	0,045	-0,022
-477,562	-200,000	-0,023	-0,079
-476,547	-200,000	0,027	-0,137
-475,532	-56,765	-0,059	0,019
-474,518	-101,406	0,085	-0,015
-473,503	197,879	-0,037	0,041
-472,489	-180,887	0,042	0,001
-471,474	-200,000	-0,009	0,060
-470,459	378,097	-0,061	-0,092
-469,445	-44,464	-0,054	-0,020
-468,430	29,994	0,059	0,037
-467,416	800,000	0,008	0,026
-466,401	-64,689	0,084	-0,025
-465,386	113,489	0,043	0,038
-464,372	156,146	-0,092	0,093
-463,357	800,000	0,028	-0,084
-462,343	-67,933	-0,092	-0,026
-461,328	52,158	-0,087	-0,061
-460,313	-75,924	0,106	0,027
-459,299	-200,000	0,016	0,117
-458,284	485,359	-0,031	0,053
-457,270	117,329	0,090	0,081
-456,255	-163,469	-0,140	-0,005
-455,241	-200,000	0,013	-0,066
-454,226	369,182	0,071	-0,105
-453,211	-200,000	-0,005	0,023
-452,197	-115,593	-0,019	0,003
-451,182	148,377	0,105	0,105
-450,168	-200,000	-0,004	-0,066
-449,153	263,044	-0,061	0,078
-448,138	800,000	0,014	-0,037
-447,124	164,244	-0,098	-0,102
-446,109	17,692	0,044	-0,025
-445,095	234,697	0,005	-0,006
-444,080	650,292	-0,016	0,031
-443,065	110,959	-0,038	0,033
-442,051	-54,686	-0,114	-0,038
-441,036	-200,000	0,013	0,140
-440,022	30,456	0,068	0,042
-439,007	222,531	0,013	-0,015
-437,992	-200,000	0,002	0,027
-436,978	-70,309	0,054	-0,015
-435,963	527,953	-0,026	0,044
-434,949	-109,848	-0,105	0,016
-433,934	-168,971	0,061	-0,002
-432,919	-200,000	-0,023	-0,095
-431,905	101,705	0,135	-0,115
-430,890	-200,000	0,009	-0,052
-429,876	200,679	0,146	0,165
-428,861	-200,000	0,019	-0,085
-427,846	-200,000	-0,000	-0,004
-426,832	119,018	0,042	-0,038
-425,817	-200,000	0,023	-0,094
-424,803	-72,005	0,034	0,009
-423,788	800,000	-0,025	0,077
-422,773	675,067	-0,061	0,117
-421,759	224,323	0,103	0,123
-420,744	74,578	0,039	0,030
-419,730	-171,375	-0,073	-0,002
-418,715	88,648	-0,084	-0,068
-417,701	-200,000	0,019	0,147
-416,686	164,408	0,127	0,132
-415,671	800,000	0,043	0,130
-414,657	-118,029	0,032	0,004
-413,642	-73,297	0,090	-0,024
-412,628	-200,000	-0,019	0,083
-411,613	-198,361	-0,141	-0,001
-410,598	-200,000	0,032	0,123
-409,584	26,597	0,056	-0,034
-408,569	-75,875	0,150	0,039
-407,555	800,000	0,038	0,124
-406,540	-122,909	-0,034	0,004
-405,525	545,655	-0,011	0,019
-404,511	183,022	0,073	-0,079
-403,496	626,421	-0,040	-0,075
-402,482	-200,000	-0,015	-0,055
-401,467	145,447	0,123	-0,121
-400,452	-67,064	-0,100	-0,029
-399,438	421,387	-0,022	-0,034
-398,423	-117,488	-0,071	0,009
-397,409	-156,135	-0,143	-0,007
-396,394	-33,956	0,094	0,038
-395,379	800,000	0,049	0,156
-394,365	92,018	-0,086	-0,071
-393,350	-100,525	0,165	0,030
-392,336	-115,120	-0,064	0,009
-391,321	149,556	0,090	0,090
-390,306	467,747	-0,030	0,049
-389,292	800,000	-0,028	-0,084
-388,277	122,829	-0,106	0,097
-387,263	146,627	0,083	0,082
-386,248	58,813	0,083	0,060
-385,233	-200,000	0,031	-0,109
-384,219	165,838	0,054	-0,056
-383,204	-200,000	-0,003	-0,119
-382,190	-200,000	-0,009	-0,101
-381,175	-50,092	-0,064	-0,022
-380,160	-119,358	0,144	0,018
-379,146	120,533	0,126	-0,115
-378,131	800,000	0,024	0,048
-377,117	61,962	0,115	0,084
-376,102	-34,711	-0,070	-0,028
-375,088	-59,359	0,058	0,018
-374,073	26,929	-0,070	-0,043
-373,058	-0,546	0,020	0,010
-372,044	269,955	0,135	0,174
-371,029	-56,471	0,069	-0,022
-370,015	800,000	-0,034	0,084
-369,000	683,556	-0,050	0,095
-367,985	-96,996	0,157	-0,030
-366,971	241,795	-0,027	0,033
-365,956	106,367	-0,007	0,006
-364,942	-111,945	0,217	-0,032
-363,927	-200,000	0,013	0,082
-362,912	104,605	0,208	0,179
-361,898	93,626	0,054	-0,044
-360,883	199,330	-0,183	-0,206
-359,869	-200,000	0,007	-0,100
-358,854	-200,000	-0,021	0,203
-357,839	-132,068	0,068	-0,006
-356,825	-68,292	0,019	-0,005
-355,810	569,997	-0,102	0,182
-354,796	-200,000	0,009	0,042
-353,781	800,000	-0,035	-0,103
-352,766	-200,000	-0,001	0,043
-351,752	-110,462	0,211	-0,032
-350,737	-83,418	-0,106	-0,025
-349,723	35,018	0,065	0,041
-348,708	165,127	-0,085	-0,088
-347,693	-200,000	0,015	0,086
-346,679	-200,000	0,002	-0,115
-345,664	-110,236	-0,226	-0,034
-344,650	15,161	-0,016	-0,009
-343,635	-48,174	0,106	0,037
-342,620	593,130	-0,039	-0,071
-341,606	150,858	0,072	-0,072
-340,591	-200,000	-0,004	0,026
-339,577	-200,000	0,011	0,076
-338,562	525,339	-0,073	0,126
-337,548	133,604	0,028	0,026
-336,533	-200,000	-0,017	0,097
-335,518	-101,412	0,074	0,013
-334,504	84,812	0,082	-0,066
-333,489	800,000	0,040	0,086
-332,475	-110,607	-0,074	-0,011
-331,460	128,141	-0,075	0,069
-330,445	-102,796	0,172	0,030
-329,431	-200,000	0,018	0,146
-328,416	94,151	0,219	0,182
-327,402	494,289	0,044	0,074
-326,387	-160,058	-0,063	0,002
-325,372	-83,044	-0,123	-0,029
-324,358	470,346	0,014	0,023
-323,343	-151,285	-0,048	0,003
-322,329	14,198	-0,086	-0,049
-321,314	-83,963	0,155	-0,036
-320,299	800,000	-0,076	0,183
-319,285	-200,000	-0,050	0,174
-318,270	144,699	-0,080	-0,078
-317,256	800,000	-0,017	-0,044
-316,241	-44,554	-0,036	-0,013
-315,226	28,024	-0,118	0,073
-314,212	20,026	0,081	0,048
-313,197	-200,000	0,005	0,076
-312,183	800,000	-0,008	-0,016
-311,168	203,652	0,073	-0,083
-310,153	174,636	-0,043	-0,046
-309,139	-67,430	0,106	0,030
-308,124	-144,440	-0,095	0,006
-307,110	-23,950	-0,084	-0,037
-306,095	284,472	0,063	0,084
-305,080	99,201	-0,122	-0,103
-304,066	43,528	-0,045	-0,030
-303,051	-200,000	-0,008	0,075
-302,037	-130,407	-0,059	-0,006
-301,022	140,758	0,056	0,054
-300,008	-200,000	-0,012	0,129
-298,993	-200,000	-0,029	-0,116
-297,978	17,109	-0,088	0,051
-296,964	-9,796	0,035	-0,017
-295,949	-108,570	-0,055	0,009
-294,935	327,060	-0,057	0,080
-293,920	-70,332	-0,078	0,021
-292,905	134,127	0,026	-0,024
-291,891	800,000	0,047	0,118
-290,876	-200,000	0,013	0,108
-289,862	160,796	0,061	-0,062
-288,847	-200,000	0,023	-0,184
-287,832	339,466	-0,056	-0,080
-286,818	800,000	0,041	-0,108
-285,803	137,480	-0,037	0,035
-284,789	-200,000	0,019	-0,071
-283,774	-9,886	-0,042	0,020
-282,759	800,000	-0,040	0,096
-281,745	-114,987	-0,037	-0,005
-280,730	800,000	-0,023	-0,062
-279,716	221,960	-0,021	0,025
-278,701	-200,000	-0,000	0,056
-277,686	-14,473	0,161	0,075
-276,672	800,000	-0,030	0,065
-275,657	800,000	-0,014	-0,037
-274,643	-103,094	0,043	-0,007
-273,628	322,582	-0,051	-0,072
-272,613	86,985	0,064	0,052
-271,599	800,000	0,021	0,052
-270,584	3,663	0,029	0,015
-269,570	-200,000	-0,010	-0,044
-268,555	800,000	-0,050	-0,108
-267,540	-58,487	-0,139	-0,044
-266,526	-200,000	-0,008	-0,058
-265,511	561,963	-0,025	0,045
-264,497	-147,575	0,098	0,006
-263,482	-185,513	-0,027	0,000
-262,467	-200,000	-0,009	0,079
-261,453	313,100	0,079	0,109
-260,438	492,088	-0,097	-0,163
-259,424	623,660	0,035	0,065
-258,409	-200,000	0,052	-0,171
-257,395	-200,000	0,003	0,021
-256,380	-44,325	-0,087	-0,032
-255,365	53,104	-0,029	0,020
-254,351	800,000	-0,020	-0,053
-253,336	321,203	0,123	0,171
-252,322	219,027	-0,057	-0,067
-251,307	-82,614	-0,042	0,010
-250,292	28,226	-0,100	0,062
-249,278	-34,535	0,157	0,062
-248,263	251,305	0,104	0,129
-247,249	-30,673	0,013	0,005
-246,234	-200,000	0,018	-0,099
-245,219	-96,948	-0,094	-0,018
-244,205	-200,000	-0,004	-0,017
-243,190	522,028	-0,041	-0,070
-242,176	-49,782	0,144	-0,050
-241,161	217,273	0,139	0,162
-240,146	800,000	0,037	0,114
-239,132	136,692	0,105	-0,100
-238,117	257,882	-0,075	0,094
-237,103	629,024	0,049	0,092
-236,088	47,757	0,152	0,103
-235,073	-71,079	0,141	-0,038
-234,059	-200,000	0,019	0,165
-233,044	548,224	-0,056	-0,098
-232,030	-200,000	-0,010	-0,126
-231,015	-200,000	-0,015	-0,101
-230,000	-92,445	-0,168	0,034
-228,986	800,000	-0,034	-0,096
-227,971	-200,000	0,006	0,087
-226,957	800,000	0,034	0,096
-225,942	-136,122	0,046	0,004
-224,927	256,383	-0,010	-0,013
-223,913	64,986	-0,140	-0,103
-222,898	-114,648	0,111	-0,015
-221,884	109,561	-0,084	-0,073
-220,869	800,000	-0,023	0,067
-219,855	417,930	0,084	0,132
-218,840	261,964	0,013	0,017
-217,825	-83,107	0,067	-0,016
-216,811	470,733	0,121	-0,199
-215,796	800,000	-0,042	0,093
-214,782	187,732	0,082	-0,090
-213,767	629,871	-0,031	0,057
-212,752	315,096	0,039	0,054
-211,738	-200,000	0,002	0,199
-210,723	29,120	0,133	-0,082
-209,709	-200,000	0,014	-0,063
-208,694	800,000	0,039	-0,100
-207,679	-200,000	0,011	-0,037
-206,665	-200,000	-0,013	0,107
-205,650	-200,000	0,014	0,106
-204,636	800,000	0,025	0,065
-203,621	462,339	0,061	-0,099
-202,606	722,386	-0,063	-0,123
-201,592	-73,706	-0,107	0,028
-200,577	800,000	-0,049	-0,138
-199,563	707,524	0,026	-0,050
-198,548	-50,632	0,110	0,037
-197,533	88,513	0,197	-0,159
-196,519	668,112	0,049	0,092
-195,504	-200,000	-0,028	-0,138
-194,490	-58,006	-0,208	-0,066
-193,475	-30,169	0,059	-0,024
-192,460	689,773	-0,030	-0,057
-191,446	310,302	-0,073	-0,099
-190,431	-200,000	-0,018	0,076
-189,417	-17,396	-0,113	0,052
-188,402	80,268	-0,079	0,062
-187,387	800,000	0,010	0,022
-186,373	520,632	-0,083	-0,142
-185,358	-200,000	-0,010	0,115
-184,344	-83,274	0,044	0,010
-183,329	-153,627	0,180	0,009
-182,315	-200,000	0,004	-0,109
-181,300	39,585	0,040	-0,026
-180,285	195,929	-0,042	0,046
-179,271	331,424	-0,033	-0,047
-178,256	470,320	-0,050	-0,081
-177,242	-200,000	-0,013	0,103
-176,227	34,457	0,175	-0,111
-175,212	38,244	0,049	-0,032
-174,198	629,191	0,015	-0,028
-173,183	-200,000	-0,004	0,043
-172,169	-116,140	0,052	-0,007
-171,154	-85,657	-0,066	-0,015
-170,139	20,205	0,133	-0,078
-169,125	361,334	-0,051	0,075
-168,110	-164,223	-0,061	0,002
-167,096	112,602	-0,033	0,029
-166,081	-79,429	-0,176	0,043
-165,066	317,745	-0,045	-0,061
-164,052	-55,036	-0,146	-0,047
-163,037	-128,388	-0,060	-0,006
-162,023	176,263	0,118	0,124
-161,008	-200,000	-0,002	0,006
-159,993	195,515	-0,033	0,036
-158,979	179,368	-0,137	0,146
-157,964	-51,861	0,031	0,011
-156,950	-46,038	-0,129	-0,046
-155,935	-200,000	-0,004	-0,014
-154,920	-200,000	-0,039	0,181
-153,906	-200,000	0,008	0,121
-152,891	-19,805	0,115	0,052
-151,877	554,555	-0,030	-0,053
-150,862	548,186	-0,075	-0,131
-149,847	-115,349	-0,049	0,007
-148,833	800,000	-0,020	-0,042
-147,818	186,886	0,025	0,027
-146,804	8,707	0,162	0,088
-145,789	800,000	0,027	-0,057
-144,775	350,961	-0,084	-0,121
-143,760	142,414	-0,081	-0,078
-142,745	65,609	0,058	0,042
-141,731	-30,054	0,097	-0,040
-140,716	28,617	0,127	-0,078
-139,702	-70,729	0,150	0,041
-138,687	800,000	0,040	0,117
-137,672	284,172	-0,061	-0,080
-136,658	779,121	-0,024	-0,047
-135,643	-122,405	-0,040	-0,005
-134,629	-61,166	0,041	-0,012
-133,614	241,979	0,018	-0,022
-132,599	-200,000	0,023	0,114
-131,585	155,795	0,075	-0,075
-130,570	-142,324	0,067	0,005
-129,556	16,767	0,058	0,033
-128,541	161,354	0,016	-0,016
-127,526	778,957	-0,098	-0,196
-126,512	154,704	0,086	0,086
-125,497	800,000	-0,038	0,116
-124,483	323,066	0,067	-0,093
-123,468	-33,817	0,094	-0,038
-122,453	109,664	0,050	-0,044
-121,439	293,958	0,056	-0,074
-120,424	800,000	0,050	-0,140
-119,410	99,628	0,126	-0,106
-118,395	-101,897	0,046	0,008
-117,380	-200,000	0,035	0,114
-116,366	-200,000	-0,018	0,135
-115,351	559,748	-0,029	0,052
-114,337	-74,045	-0,065	0,017
-113,322	-168,907	-0,063	0,002
-112,307	-119,015	0,110	0,014
-111,293	-62,016	-0,096	-0,029
-110,278	-200,000	-0,036	0,000
-109,264	-92,851	0,049	-0,010
-108,249	324,856	-0,085	-0,118
-107,234	-197,943	-0,120	0,001
-106,220	-200,000	-0,003	-0,011
-105,205	-200,000	-0,003	-0,112
-104,191	-200,000	0,136	0,000
-103,176	-200,000	0,008	0,108
-102,162	471,853	-0,026	0,042
-101,147	213,300	-0,122	0,140
-100,132	93,725	-0,120	-0,099
-99,118	-200,000	-0,004	-0,143
-98,103	34,567	-0,082	-0,052
-97,089	229,793	0,098	0,116
-96,074	45,075	0,064	-0,043
-95,059	-85,826	0,078	0,017
-94,045	-200,000	0,005	-0,019
-93,030	-29,947	-0,143	-0,059
-92,016	800,000	-0,048	0,110
-91,001	280,961	-0,032	0,042
-89,986	-107,802	0,070	0,011
-88,972	-164,748	0,124	0,004
-87,957	800,000	-0,071	0,193
-86,943	-46,007	0,035	0,012
-85,928	-200,000	-0,001	-0,119
-84,913	-200,000	-0,000	-0,171
-83,899	88,675	-0,047	-0,038
-82,884	-5,242	0,105	-0,052
-81,870	88,024	0,054	0,043
-80,855	-200,000	0,009	-0,105
-79,840	128,695	-0,061	0,057
-78,826	-21,331	-0,095	0,042
-77,811	-18,323	0,089	-0,040
-76,797	123,869	-0,067	-0,061
-75,782	-200,000	0,015	-0,062
-74,767	82,108	-0,098	0,077
-73,753	-181,658	-0,023	-0,000
-72,738	278,715	0,076	0,098
-71,724	368,369	-0,078	-0,114
-70,709	29,095	0,092	-0,056
-69,694	-200,000	-0,033	-0,107
-68,680	-159,668	0,045	-0,002
-67,665	-104,229	0,127	0,021
-66,651	-68,276	-0,196	0,055
-65,636	119,556	0,077	0,069
-64,622	8,821	-0,081	-0,044
-63,607	591,719	0,035	-0,064
-62,592	-89,448	-0,008	-0,002
-61,578	-200,000	-0,006	-0,024
-60,563	95,365	0,048	0,040
-59,549	-145,116	0,012	0,001
-58,534	-58,492	-1,512	-0,472
-57,519	800,000	-0,667	-1,414
-56,505	-200,000	-0,943	-4,601
-55,490	-66,602	0,551	-0,157
-54,476	800,000	4,886	11,805
-53,461	-200,000	14,571	259,480
-52,446	-200,000	696,270	2235,164
-51,432	565,268	1622,378	2858,962
-50,417	117,676	1630,194	1452,591
-49,403	74,715	1284,186	977,257
-48,388	37,418	1022,336	654,806
-47,373	23,241	981,655	582,198
-46,359	22,444	970,908	573,193
-45,344	21,294	966,641	566,899
-44,330	21,219	965,436	565,925
-43,315	21,055	963,854	564,443
-42,300	21,031	962,879	563,771
-41,286	21,085	961,819	563,304
-40,271	20,998	960,732	562,362
-39,257	21,033	959,840	561,931
-38,242	21,003	958,979	561,307
-37,227	21,036	958,031	560,838
-36,213	21,009	957,110	560,187
-35,198	20,968	956,241	559,524
-34,184	21,009	955,614	559,267
-33,169	21,033	954,747	558,816
-32,154	21,028	953,827	558,240
-31,140	21,062	952,930	557,800
-30,125	21,077	952,195	557,398
-29,111	21,026	951,501	556,805
-28,096	21,025	950,628	556,268
-27,082	21,082	949,967	556,043
-26,067	21,029	949,342	555,485
-25,052	21,038	948,508	555,004
-24,038	21,064	947,622	554,546
-23,023	21,084	947,397	554,456
-22,009	21,081	946,574	553,943
-20,994	21,086	945,777	553,470
-19,979	21,040	945,450	553,112
-18,965	21,074	944,870	552,858
-17,950	21,035	944,182	552,311
-16,936	20,992	943,532	551,769
-15,921	20,994	942,660	551,245
-14,906	20,986	942,047	550,838
-13,892	20,921	941,408	550,238
-12,877	20,963	940,872	550,036
-11,863	20,859	940,438	549,430
-10,848	20,872	939,793	549,071
-9,833	21,024	939,283	549,233
-8,819	21,037	938,488	548,789
-7,804	20,936	938,211	548,284
-6,790	20,921	937,438	547,766
-5,775	20,954	936,801	547,474
-4,760	21,001	936,069	547,173
-3,746	20,980	935,583	546,803
-2,731	20,764	934,786	545,633
-1,717	20,700	934,150	545,037
-0,702	20,813	933,240	544,841
0,313	20,575	932,884	544,706
1,327	23,597	930,840	552,955
2,342	32,819	794,267	496,320
3,356	30,285	450,528	277,690
4,371	0,060	294,132	151,112
5,386	-4,336	275,101	137,162
6,400	-5,406	269,429	133,329
7,415	-5,946	267,169	131,702
8,429	-5,588	265,868	131,377
9,444	-5,657	265,054	130,900
10,459	-5,688	264,471	130,572
11,473	-5,741	263,912	130,236
12,488	-5,907	263,410	129,826
13,502	-5,828	262,807	129,589
14,517	-5,855	262,462	129,383
15,531	-5,791	261,993	129,198
16,546	-5,752	261,627	129,041
17,561	-5,781	261,376	128,880
18,575	-5,684	260,916	128,729
19,590	-5,911	260,729	128,421
20,604	-5,769	260,342	128,346
21,619	-5,687	259,902	128,191
22,634	-5,802	259,566	127,911
23,648	-5,881	259,406	127,750
24,663	-5,972	259,170	127,542
25,677	-5,984	258,910	127,392
26,692	-5,920	258,732	127,350
27,707	-5,733	258,282	127,283
28,721	-5,951	258,097	126,987
29,736	-5,846	257,739	126,893
30,750	-5,792	257,467	126,796
31,765	-5,962	257,468	126,634
32,780	-6,065	257,140	126,371
33,794	-5,893	256,771	126,330
34,809	-5,845	256,651	126,302
35,823	-5,811	256,438	126,216
36,838	-5,867	255,997	125,938
37,853	-5,925	255,885	125,821
38,867	-5,990	255,695	125,659
39,882	-5,776	255,382	125,682
40,896	-5,851	255,089	125,461
41,911	-5,868	254,947	125,365
42,926	-5,949	254,740	125,181
43,940	-6,067	254,450	124,924
44,955	-5,969	254,346	124,947
45,969	-6,173	254,258	124,715
46,984	-6,312	253,825	124,370
47,999	-6,428	253,598	124,147
49,013	-6,515	253,308	123,918
50,028	-6,574	253,062	123,735
51,042	-6,585	252,746	123,560
52,057	-6,775	252,666	123,346
53,071	-6,721	252,462	123,281
54,086	-6,509	252,349	123,399
55,101	-6,478	252,021	123,255
56,115	-6,319	251,988	123,365
57,130	-5,948	251,865	123,614
58,144	-5,575	251,663	123,826
59,159	-5,576	251,406	123,688
60,174	-5,595	251,256	123,586
61,188	-5,817	251,140	123,328
62,203	-5,659	250,775	123,273
63,217	-5,817	250,555	123,018
64,232	-5,831	250,512	122,974
65,247	-5,971	250,165	122,673
66,261	-5,615	249,969	122,870
67,276	-5,922	249,655	122,442
68,290	-6,296	249,517	122,044
69,305	-6,156	249,256	122,025
70,320	-6,351	249,218	121,829
71,334	-6,031	248,927	121,949
72,349	-5,478	248,714	122,305
73,363	-5,643	248,451	122,025
74,378	-5,622	248,250	121,933
75,393	-5,881	248,176	121,665
76,407	-5,901	247,846	121,476
77,422	-5,892	247,872	121,485
78,436	-5,778	247,620	121,448
79,451	-5,763	247,224	121,255
80,466	-6,071	247,043	120,895
81,480	-6,158	246,804	120,693
82,495	-6,137	246,647	120,624
83,509	-6,224	246,466	120,451
84,524	-6,172	246,297	120,401
85,539	-6,360	246,020	120,097
86,553	-6,111	245,869	120,223
87,568	-6,211	245,830	120,108
88,582	-5,977	245,455	120,111
89,597	-5,902	245,375	120,124
90,611	-6,105	245,208	119,862
91,626	-6,048	245,182	119,886
92,641	-5,899	244,822	119,824
93,655	-5,910	244,623	119,707
94,670	-6,007	244,326	119,470
95,684	-5,775	244,177	119,579
96,699	-5,925	244,123	119,417
97,714	-6,208	243,817	119,022
98,728	-6,055	243,653	119,058
99,743	-6,138	243,401	118,855
100,757	-6,344	243,240	118,594
101,772	-6,187	243,060	118,626
102,787	-6,084	242,904	118,626
103,801	-6,156	242,860	118,533
104,816	-6,112	242,603	118,434
105,830	-5,889	242,348	118,484
106,845	-5,848	242,326	118,496
107,860	-5,797	242,096	118,415
108,874	-6,031	241,944	118,137
109,889	-6,089	241,559	117,891
110,903	-6,079	241,519	117,869
111,918	-6,119	241,296	117,717
112,933	-6,093	241,265	117,712
113,947	-5,741	240,880	117,803
114,962	-5,948	240,941	117,653
115,976	-5,957	240,804	117,568
116,991	-5,897	240,388	117,403
118,006	-5,916	240,183	117,277
119,020	-5,922	240,267	117,303
120,035	-5,876	240,142	117,269
121,049	-5,985	239,988	117,094
122,064	-5,888	239,639	116,993
123,079	-5,855	239,618	116,999
124,093	-6,086	239,216	116,604
125,108	-6,097	239,042	116,500
126,122	-6,392	238,802	116,132
127,137	-6,380	238,711	116,087
128,151	-6,387	238,648	116,041
129,166	-6,108	238,323	116,099
130,181	-6,212	238,192	115,940
131,195	-6,444	238,033	115,665
132,210	-6,046	238,002	115,962
133,224	-5,911	237,564	115,847
134,239	-6,105	237,535	115,665
135,254	-5,970	237,480	115,738
136,268	-5,857	237,095	115,632
137,283	-6,317	236,828	115,120
138,297	-6,359	236,726	115,026
139,312	-6,340	236,487	114,915
140,327	-5,922	236,339	115,169
141,341	-5,659	236,459	115,429
142,356	-5,726	236,306	115,291
143,370	-5,727	236,137	115,197
144,385	-5,643	235,950	115,163
145,400	-5,403	235,682	115,214
146,414	-5,606	235,539	114,971
147,429	-5,423	235,415	115,047
148,443	-5,830	235,168	114,590
149,458	-5,541	234,934	114,697
150,473	-5,561	234,856	114,633
151,487	-5,704	234,659	114,412
152,502	-5,615	234,429	114,361
153,516	-5,523	234,470	114,445
154,531	-5,859	234,306	114,087
155,546	-5,819	234,043	113,980
156,560	-5,599	233,827	114,039
157,575	-5,774	233,707	113,832
158,589	-5,781	233,420	113,676
159,604	-5,555	233,292	113,783
160,619	-5,533	233,232	113,761
161,633	-5,565	233,115	113,669
162,648	-5,447	233,001	113,696
163,662	-5,628	232,805	113,447
164,677	-6,011	232,710	113,088
165,692	-5,651	232,431	113,227
166,706	-5,719	232,423	113,159
167,721	-5,504	232,219	113,219
168,735	-5,434	231,955	113,135
169,750	-5,316	231,773	113,130
170,764	-5,775	231,743	112,744
171,779	-5,400	231,620	112,969
172,794	-5,479	231,511	112,843
173,808	-5,501	231,238	112,683
174,823	-6,159	230,758	111,924
175,837	-6,280	230,633	111,758
176,852	-6,211	230,776	111,871
177,867	-5,546	230,669	112,330
178,881	-5,606	230,439	112,162
179,896	-5,622	230,346	112,094
180,910	-5,659	230,257	112,011
181,925	-5,413	230,055	112,095
182,940	-5,586	229,800	111,826
183,954	-5,517	229,661	111,802
184,969	-5,390	229,583	111,853
185,983	-5,155	229,359	111,917
186,998	-5,339	229,298	111,734
188,013	-5,335	228,964	111,564
189,027	-5,379	228,891	111,485
190,042	-5,418	228,813	111,406
191,056	-5,511	228,677	111,258
192,071	-5,414	228,522	111,248
193,086	-5,473	228,281	111,075
194,100	-5,477	228,062	110,956
195,115	-5,468	227,840	110,845
196,129	-6,569	227,497	109,819
197,144	-3,800	228,298	112,338
198,159	0,998	229,757	116,772
199,173	3,481	230,425	119,031
200,188	3,999	230,393	119,406
201,202	3,983	230,024	119,192
202,217	4,195	229,960	119,312
203,232	4,233	229,887	119,293
204,246	4,098	229,839	119,153
205,261	4,308	229,669	119,216
206,275	4,517	229,481	119,270
207,290	4,415	229,454	119,166
208,304	4,456	229,457	119,188
209,319	4,390	229,236	119,012
210,334	4,183	228,980	118,709
211,348	4,229	228,680	118,578
212,363	3,747	228,438	118,072
213,377	3,658	228,113	117,825
214,392	3,428	228,099	117,631
215,407	3,542	227,984	117,648
216,421	3,785	227,776	117,717
217,436	3,749	227,614	117,595
218,450	3,430	227,481	117,272
219,465	3,375	227,284	117,118
220,480	3,581	227,104	117,172
221,494	3,496	226,987	117,036
222,509	3,656	226,901	117,103
223,523	3,650	226,851	117,063
224,538	3,550	226,548	116,820
225,553	3,680	226,325	116,793
226,567	3,814	226,339	116,892
227,582	3,919	226,261	116,921
228,596	3,939	226,172	116,879
229,611	3,861	225,879	116,658
230,626	3,403	225,728	116,223
231,640	3,551	225,516	116,215
232,655	3,890	225,445	116,426
233,669	4,280	225,543	116,761
234,684	4,086	225,385	116,522
235,699	3,949	225,203	116,314
236,713	3,701	224,945	115,983
237,728	3,517	224,779	115,748
238,742	3,507	224,486	115,579
239,757	3,533	224,392	115,541
240,772	3,494	224,300	115,454
241,786	3,471	224,150	115,348
242,801	3,664	224,035	115,424
243,815	4,039	223,875	115,613
244,830	3,935	223,843	115,509
245,844	3,549	223,568	115,067
246,859	3,639	223,531	115,105
247,874	4,099	223,263	115,301
248,888	3,832	223,175	115,045
249,903	3,749	223,106	114,937
250,917	3,738	222,898	114,812
251,932	3,844	222,574	114,714
252,947	3,747	222,491	114,588
253,961	3,585	222,272	114,345
254,976	3,452	222,281	114,240
255,990	3,889	222,135	114,480
257,005	3,790	222,044	114,350
258,020	3,585	221,913	114,119
259,034	4,135	221,751	114,435
260,049	3,772	221,630	114,092
261,063	3,725	221,362	113,910
262,078	4,064	221,359	114,149
263,093	3,949	221,245	113,995
264,107	4,093	220,987	113,958
265,122	4,001	220,889	113,830
266,136	4,064	220,775	113,807
267,151	4,267	220,637	113,876
268,166	3,640	220,417	113,290
269,180	3,465	220,077	112,975
270,195	3,679	219,950	113,058
271,209	3,586	219,908	112,958
272,224	3,370	219,878	112,773
273,239	3,849	219,782	113,067
274,253	3,700	219,439	112,771
275,268	3,398	219,344	112,490
276,282	3,339	219,022	112,271
277,297	3,295	218,946	112,191
278,312	3,563	218,957	112,382
279,326	3,647	218,797	112,352
280,341	3,584	218,807	112,301
281,355	3,510	218,628	112,145
282,370	3,783	218,321	112,176
283,384	3,343	218,281	111,825
284,399	3,279	218,013	111,631
285,414	3,382	217,902	111,639
286,428	3,493	217,759	111,637
287,443	3,499	217,748	111,625
288,457	3,654	217,556	111,630
289,472	3,758	217,392	111,611
290,487	3,131	217,102	110,997
291,501	3,192	216,976	110,967
292,516	3,087	217,001	110,894
293,530	3,300	216,820	110,946
294,545	3,521	216,601	110,984
295,560	3,512	216,538	110,935
296,574	3,523	216,449	110,888
297,589	3,639	216,139	110,803
298,603	3,663	216,189	110,836
299,618	3,883	215,951	110,863
300,633	3,683	215,975	110,721
301,647	3,785	215,788	110,688
302,662	3,758	215,593	110,559
303,676	3,635	215,501	110,414
304,691	3,984	215,296	110,550
305,706	3,992	215,310	110,552
306,720	3,846	215,273	110,419
307,735	3,536	215,048	110,071
308,749	3,528	214,750	109,904
309,764	3,686	214,709	109,985
310,779	3,862	214,582	110,037
311,793	3,797	214,563	109,970
312,808	3,820	214,207	109,795
313,822	3,877	214,105	109,774
314,837	3,678	213,859	109,495
315,852	3,564	213,697	109,321
316,866	3,702	213,673	109,398
317,881	3,632	213,685	109,345
318,895	3,665	213,453	109,240
319,910	3,575	213,329	109,103
320,925	3,252	213,107	108,750
321,939	3,018	212,883	108,460
322,954	3,412	212,761	108,668
323,968	3,462	212,731	108,677
324,983	3,535	212,716	108,712
325,997	3,918	212,490	108,858
327,012	3,748	212,272	108,616
328,027	3,932	212,156	108,678
329,041	4,073	212,199	108,789
330,056	4,122	211,998	108,711
331,070	3,784	211,777	108,350
332,085	3,785	211,541	108,220
333,100	3,664	211,504	108,106
334,114	3,627	211,465	108,050
335,129	3,685	211,289	107,992
336,143	3,757	211,025	107,898
337,158	3,685	210,984	107,817
338,173	3,842	210,669	107,756
339,187	3,516	210,648	107,507
340,202	3,243	210,410	107,185
341,216	3,379	210,328	107,229
342,231	3,407	210,211	107,179
343,246	3,322	210,163	107,086
344,260	3,690	210,082	107,293
345,275	3,512	209,870	107,050
346,289	3,797	209,803	107,205
347,304	3,747	209,622	107,068
348,319	3,682	209,345	106,872
349,333	3,791	209,275	106,902
350,348	3,754	209,210	106,834
351,362	3,769	209,170	106,815
352,377	3,964	209,014	106,861
353,392	3,701	208,880	106,600
354,406	3,750	208,783	106,575
355,421	194,536	1344,949	1432,246
356,435	155,256	1483,458	1432,339
