DTS Sentinel unit serial number:	SN410029Multiplexer serial number:	ORYXHardware model number:	OX2-SRSoftware version number:	ORYX F/W v4,00 Oryx Data Collector v3.7.2.0data status	okinstallation	B6 Nyhavnadifferential loss correction	single-endedforward channel	channel 2reverse channel	N/Adate	2023/12/09time	09:55:08forward acquisition time	300,00reverse acquisition time	0,00gamma	499,1914k internal	0,3139k external	0,3139temperature offset calibration	1,0000default loss term (dB/km)	0,3820temperature slope calibration	1,0000multiplexer offset coefficient	1,0000multiplexer slope coefficient	1,0000fibre end	0,00T internal ref (°C)	18,50T ext. ref 1 (°C)	2,13T ext. ref 2 (°C)	2,13length (m)	temperature (°C)	Stokes	anti-Stokes-744,400	-111,117	0,038	-0,006
-743,385	-115,824	-0,255	0,035
-742,371	800,000	0,050	-0,123
-741,356	-116,075	-0,207	-0,028
-740,342	10,369	0,132	0,075
-739,327	-80,750	-0,280	0,068
-738,312	-156,667	0,116	0,005
-737,298	0,175	-0,327	0,172
-736,283	45,098	0,096	-0,066
-735,269	-146,562	-0,207	0,013
-734,254	-182,957	0,046	-0,001
-733,239	-148,396	-0,318	0,019
-732,225	-103,476	0,168	-0,029
-731,210	-63,435	-0,088	0,027
-730,196	-200,000	0,027	-0,092
-729,181	800,000	0,049	-0,135
-728,167	-55,369	0,085	-0,028
-727,152	-200,000	0,011	-0,062
-726,137	-200,000	-0,104	0,000
-725,123	506,128	0,008	0,013
-724,108	61,652	-0,064	-0,047
-723,094	102,440	0,008	0,007
-722,079	-200,000	-0,053	-0,194
-721,064	102,654	0,152	-0,132
-720,050	515,303	0,050	0,087
-719,035	-111,188	-0,064	-0,010
-718,021	-200,000	0,013	0,071
-717,006	23,313	0,085	0,051
-715,991	-189,305	-0,070	-0,001
-714,977	-200,000	-0,063	-0,000
-713,962	113,718	-0,070	0,063
-712,948	558,097	-0,051	-0,091
-711,933	187,956	-0,056	0,062
-710,918	266,232	0,101	0,130
-709,904	121,262	-0,050	-0,046
-708,889	-117,922	-0,200	0,026
-707,875	248,095	0,050	0,062
-706,860	387,881	-0,064	-0,098
-705,845	-106,852	0,067	0,011
-704,831	7,498	-0,100	-0,055
-703,816	429,027	-0,028	0,045
-702,802	-200,000	-0,019	-0,072
-701,787	-37,281	-0,140	-0,055
-700,772	66,882	0,099	-0,074
-699,758	800,000	0,021	-0,047
-698,743	-67,566	0,145	-0,042
-697,729	204,140	0,067	0,077
-696,714	-200,000	0,002	-0,026
-695,699	-200,000	-0,009	-0,049
-694,685	-105,028	0,010	-0,002
-693,670	800,000	-0,026	-0,078
-692,656	800,000	-0,081	0,175
-691,641	513,217	-0,059	-0,102
-690,627	-77,625	-0,113	0,029
-689,612	222,161	-0,050	-0,059
-688,597	294,353	-0,037	-0,050
-687,583	-68,367	-0,043	-0,012
-686,568	24,232	0,027	-0,016
-685,554	-51,373	-0,020	-0,007
-684,539	-78,445	0,125	0,031
-683,524	-126,520	-0,088	0,010
-682,510	305,589	-0,059	0,082
-681,495	800,000	0,036	0,083
-680,481	-117,175	-0,090	0,012
-679,466	203,348	-0,061	0,070
-678,451	-80,326	-0,073	0,018
-677,437	-137,547	0,079	0,007
-676,422	-200,000	0,033	0,119
-675,408	36,707	-0,128	0,083
-674,393	-200,000	0,006	-0,068
-673,378	79,236	-0,111	-0,088
-672,364	64,471	0,060	-0,045
-671,349	142,258	-0,114	-0,112
-670,335	-147,380	-0,123	0,008
-669,320	-200,000	0,016	-0,055
-668,305	-85,401	-0,044	-0,010
-667,291	793,665	-0,016	-0,032
-666,276	-200,000	0,009	-0,123
-665,262	37,799	0,058	-0,038
-664,247	571,619	-0,046	-0,084
-663,232	249,436	-0,065	-0,082
-662,218	-48,101	-0,153	0,054
-661,203	404,815	-0,050	0,078
-660,189	-41,690	-0,012	-0,005
-659,174	413,957	-0,042	-0,066
-658,159	582,062	-0,050	-0,092
-657,145	-153,147	0,113	0,006
-656,130	588,716	0,027	-0,050
-655,116	-149,668	-0,056	0,003
-654,101	599,020	0,093	0,171
-653,086	168,320	0,016	0,017
-652,072	-200,000	-0,001	-0,047
-651,057	82,254	-0,117	-0,093
-650,043	256,094	0,097	-0,123
-649,028	88,380	-0,107	0,088
-648,014	-98,009	0,059	0,011
-646,999	-81,305	0,081	-0,020
-645,984	462,746	-0,011	0,018
-644,970	-58,489	-0,052	-0,017
-643,955	-200,000	0,009	0,049
-642,941	-200,000	-0,013	0,055
-641,926	62,565	-0,079	-0,058
-640,911	800,000	0,104	-0,244
-639,897	-66,467	0,174	0,051
-638,882	-200,000	-0,024	0,183
-637,868	111,961	-0,040	-0,036
-636,853	93,468	-0,147	-0,123
-635,838	-200,000	0,005	-0,087
-634,824	-200,000	0,000	0,083
-633,809	406,518	0,112	-0,175
-632,795	499,665	0,067	0,114
-631,780	138,060	-0,052	0,050
-630,765	-200,000	0,016	0,068
-629,751	138,082	0,027	0,026
-628,736	-200,000	0,001	-0,032
-627,722	173,431	-0,113	-0,120
-626,707	36,275	0,039	-0,025
-625,692	78,634	0,112	0,088
-624,678	68,240	0,058	0,044
-623,663	51,953	-0,127	-0,089
-622,649	-99,486	-0,081	0,015
-621,634	-200,000	-0,005	-0,081
-620,619	93,341	0,051	-0,043
-619,605	-200,000	-0,026	0,130
-618,590	89,758	0,053	0,043
-617,576	-200,000	-0,018	0,119
-616,561	-200,000	-0,022	0,223
-615,546	-200,000	0,004	-0,115
-614,532	800,000	0,044	-0,120
-613,517	168,387	-0,098	-0,103
-612,503	-200,000	-0,004	-0,091
-611,488	-200,000	-0,029	0,166
-610,474	687,085	-0,069	0,135
-609,459	690,909	0,054	0,105
-608,444	141,800	-0,089	-0,087
-607,430	180,699	0,059	-0,064
-606,415	14,693	-0,072	0,041
-605,401	-128,876	0,158	-0,016
-604,386	26,797	-0,039	0,024
-603,371	-200,000	-0,006	0,154
-602,357	-200,000	0,010	-0,074
-601,342	-150,555	-0,120	0,007
-600,328	-66,361	0,113	-0,033
-599,313	-200,000	-0,014	-0,054
-598,298	101,191	-0,084	0,072
-597,284	87,717	-0,075	0,061
-596,269	40,984	0,099	-0,066
-595,255	-200,000	0,025	-0,085
-594,240	-58,942	-0,099	-0,031
-593,225	800,000	0,052	-0,143
-592,211	-200,000	-0,007	-0,221
-591,196	800,000	0,075	-0,228
-590,182	53,060	0,118	0,083
-589,167	-0,372	-0,108	-0,057
-588,152	-86,931	0,106	-0,024
-587,138	47,930	0,022	-0,015
-586,123	-105,866	-0,122	-0,020
-585,109	184,372	-0,148	0,162
-584,094	47,967	-0,058	0,040
-583,079	-7,681	0,052	0,026
-582,065	91,466	-0,046	-0,038
-581,050	-13,827	-0,080	-0,038
-580,036	-169,923	-0,127	-0,003
-579,021	35,545	-0,062	0,040
-578,006	308,682	-0,048	-0,066
-576,992	66,840	-0,029	-0,022
-575,977	73,329	0,092	-0,071
-574,963	-87,051	0,144	-0,032
-573,948	800,000	0,059	0,181
-572,934	19,023	-0,038	-0,023
-571,919	-200,000	0,013	-0,159
-570,904	-200,000	-0,089	0,000
-569,890	143,527	0,041	0,041
-568,875	-86,090	0,031	-0,007
-567,861	510,670	-0,030	-0,051
-566,846	-200,000	0,027	0,109
-565,831	80,703	-0,054	-0,043
-564,817	44,002	-0,012	0,008
-563,802	-200,000	-0,020	-0,110
-562,788	657,700	0,054	-0,104
-561,773	448,306	0,020	0,032
-560,758	10,552	0,112	-0,063
-559,744	551,563	-0,012	0,021
-558,729	-200,000	0,016	-0,069
-557,715	800,000	-0,016	0,037
-556,700	258,724	0,075	0,095
-555,685	255,429	0,047	-0,060
-554,671	149,239	0,035	-0,034
-553,656	-181,185	0,064	-0,001
-552,642	-66,900	-0,131	-0,038
-551,627	-200,000	-0,005	-0,136
-550,612	-99,749	-0,064	-0,012
-549,598	-200,000	0,015	-0,088
-548,583	36,614	-0,069	-0,045
-547,569	-140,760	-0,092	0,007
-546,554	-200,000	0,015	0,099
-545,539	502,005	0,010	0,017
-544,525	507,471	0,046	-0,079
-543,510	-27,700	-0,053	0,023
-542,496	535,462	0,072	-0,126
-541,481	118,377	-0,033	0,030
-540,466	31,273	-0,045	0,029
-539,452	800,000	0,027	0,085
-538,437	404,465	0,062	0,097
-537,423	-200,000	0,033	0,220
-536,408	477,649	-0,023	0,038
-535,393	800,000	-0,031	0,066
-534,379	651,676	0,066	0,125
-533,364	371,282	0,010	0,015
-532,350	371,071	-0,027	0,040
-531,335	-58,582	-0,091	0,029
-530,321	3,112	-0,082	0,044
-529,306	575,826	-0,047	0,085
-528,291	236,419	0,071	0,087
-527,277	800,000	0,063	-0,147
-526,262	385,335	0,032	0,048
-525,248	-200,000	-0,004	0,015
-524,233	-98,551	-0,145	-0,027
-523,218	156,206	-0,043	-0,043
-522,204	226,590	-0,055	-0,065
-521,189	332,917	0,016	-0,023
-520,175	461,289	-0,056	-0,092
-519,160	365,014	-0,091	-0,135
-518,145	-105,148	-0,077	-0,013
-517,131	-45,875	-0,105	-0,038
-516,116	-112,061	-0,035	-0,005
-515,102	252,603	-0,094	0,118
-514,087	579,395	-0,067	-0,121
-513,072	39,238	0,034	0,022
-512,058	-200,000	0,009	-0,157
-511,043	20,468	0,124	-0,073
-510,029	800,000	-0,050	-0,126
-509,014	259,199	0,093	0,118
-507,999	-103,327	0,049	-0,008
-506,985	385,665	0,029	0,045
-505,970	-85,045	0,072	-0,016
-504,956	-200,000	0,016	0,077
-503,941	117,327	-0,016	-0,014
-502,926	800,000	0,010	-0,025
-501,912	-200,000	0,019	0,082
-500,897	151,160	-0,020	0,020
-499,883	36,428	-0,023	0,015
-498,868	800,000	0,027	-0,076
-497,853	-200,000	-0,007	-0,057
-496,839	-200,000	-0,014	0,068
-495,824	800,000	0,029	-0,094
-494,810	289,571	-0,053	-0,071
-493,795	-51,961	0,042	-0,014
-492,781	-200,000	-0,026	0,107
-491,766	48,547	-0,168	-0,115
-490,751	-200,000	0,006	0,055
-489,737	-78,800	0,065	0,016
-488,722	-8,467	-0,029	0,014
-487,708	-102,882	0,116	-0,020
-486,693	-104,467	0,131	0,022
-485,678	800,000	-0,014	-0,028
-484,664	10,344	-0,062	-0,034
-483,649	23,868	0,069	0,042
-482,635	25,162	-0,114	0,069
-481,620	-200,000	0,029	0,163
-480,605	472,237	-0,004	-0,007
-479,591	-150,858	-0,117	0,006
-478,576	800,000	0,043	0,119
-477,562	-200,000	-0,014	-0,093
-476,547	43,357	0,030	-0,020
-475,532	800,000	0,079	-0,211
-474,518	-200,000	-0,010	-0,077
-473,503	377,314	0,047	-0,070
-472,489	800,000	-0,025	0,053
-471,474	393,377	-0,027	-0,042
-470,459	32,651	0,021	-0,013
-469,445	616,487	-0,076	-0,141
-468,430	800,000	-0,015	-0,038
-467,416	61,448	0,058	0,042
-466,401	220,392	-0,060	-0,071
-465,386	584,622	-0,013	0,024
-464,372	36,921	0,050	0,032
-463,357	0,866	-0,028	-0,015
-462,343	-200,000	-0,022	-0,121
-461,328	-74,610	-0,086	-0,023
-460,313	-200,000	0,001	-0,114
-459,299	800,000	0,023	0,065
-458,284	-8,464	0,115	-0,056
-457,270	-200,000	-0,008	-0,062
-456,255	-110,467	0,086	-0,013
-455,241	194,432	0,069	-0,076
-454,226	156,074	0,036	0,036
-453,211	137,921	0,103	0,099
-452,197	544,366	0,007	-0,012
-451,182	138,630	0,041	-0,039
-450,168	-200,000	-0,017	0,105
-449,153	160,856	-0,047	0,049
-448,138	-10,141	-0,111	-0,054
-447,124	-200,000	0,040	0,129
-446,109	-200,000	0,007	0,122
-445,095	-200,000	0,003	0,049
-444,080	308,093	0,063	-0,086
-443,065	166,049	-0,022	-0,023
-442,051	-200,000	-0,012	0,110
-441,036	-77,199	0,045	0,011
-440,022	-200,000	0,008	-0,030
-439,007	-39,299	-0,066	0,025
-437,992	-72,831	0,083	0,022
-436,978	-37,228	0,044	-0,017
-435,963	-200,000	-0,011	0,099
-434,949	45,703	0,116	0,078
-433,934	800,000	0,015	0,046
-432,919	-125,464	0,048	-0,005
-431,905	105,057	-0,025	-0,021
-430,890	-115,524	-0,085	0,012
-429,876	29,846	0,056	-0,035
-428,861	-200,000	-0,009	0,158
-427,846	800,000	-0,020	0,060
-426,832	-200,000	-0,001	0,055
-425,817	166,973	-0,035	-0,036
-424,803	-200,000	-0,015	0,063
-423,788	397,441	-0,049	0,075
-422,773	800,000	0,061	-0,141
-421,759	-180,513	-0,150	0,002
-420,744	233,744	0,117	0,141
-419,730	-98,956	0,030	-0,006
-418,715	69,577	-0,063	-0,048
-417,701	800,000	-0,022	0,050
-416,686	742,122	0,050	-0,099
-415,671	-2,926	0,113	-0,058
-414,657	35,327	-0,082	0,053
-413,642	150,397	0,105	0,104
-412,628	349,405	-0,057	0,082
-411,613	-157,008	-0,095	-0,004
-410,598	-200,000	0,000	0,058
-409,584	386,034	0,059	0,090
-408,569	-200,000	0,035	0,199
-407,555	18,170	-0,100	0,058
-406,540	800,000	-0,017	-0,042
-405,525	581,245	0,032	0,057
-404,511	-10,388	-0,149	-0,072
-403,496	800,000	-0,029	-0,070
-402,482	-59,341	0,047	-0,015
-401,467	800,000	-0,023	-0,057
-400,452	185,499	-0,062	0,068
-399,438	-200,000	0,047	-0,170
-398,423	-200,000	-0,023	-0,094
-397,409	33,018	-0,118	0,075
-396,394	-75,811	-0,125	-0,032
-395,379	-148,007	0,142	0,008
-394,365	-200,000	0,023	0,080
-393,350	-72,253	0,098	0,026
-392,336	231,523	0,125	0,150
-391,321	130,130	-0,128	-0,120
-390,306	125,754	-0,029	0,026
-389,292	42,810	0,045	-0,030
-388,277	-19,133	0,088	-0,040
-387,263	137,036	0,087	0,083
-386,248	43,151	0,056	0,037
-385,233	255,533	0,088	-0,111
-384,219	132,872	0,031	-0,029
-383,204	381,325	-0,068	0,103
-382,190	132,048	-0,071	-0,067
-381,175	-125,371	0,099	0,011
-380,160	85,288	-0,025	-0,020
-379,146	-63,009	-0,061	0,018
-378,131	-200,000	-0,010	0,155
-377,117	-35,494	0,082	0,032
-376,102	-200,000	-0,030	-0,156
-375,088	-200,000	0,001	-0,087
-374,073	355,939	0,015	0,022
-373,058	800,000	-0,034	-0,107
-372,044	-52,517	-0,027	-0,009
-371,029	102,350	-0,057	0,049
-370,015	6,016	0,033	-0,018
-369,000	36,189	-0,089	0,057
-367,985	-126,426	-0,060	0,006
-366,971	800,000	-0,050	-0,152
-365,956	-87,677	-0,098	-0,021
-364,942	-200,000	0,008	0,093
-363,927	800,000	0,026	0,081
-362,912	678,753	0,033	0,063
-361,898	-200,000	-0,023	0,076
-360,883	800,000	-0,063	-0,148
-359,869	-7,859	-0,016	0,008
-358,854	-144,603	-0,090	-0,006
-357,839	800,000	0,075	0,184
-356,825	-97,923	-0,078	0,015
-355,810	-200,000	0,001	-0,066
-354,796	516,198	-0,087	0,148
-353,781	-25,396	0,136	-0,059
-352,766	240,235	0,016	0,019
-351,752	296,197	0,077	0,103
-350,737	800,000	0,033	0,090
-349,723	-108,365	-0,153	0,024
-348,708	205,927	-0,070	0,080
-347,693	800,000	0,009	-0,027
-346,679	59,918	0,024	-0,018
-345,664	-200,000	-0,016	-0,058
-344,650	250,789	-0,013	0,017
-343,635	-200,000	0,017	0,099
-342,620	-47,494	0,035	-0,012
-341,606	-200,000	-0,005	-0,031
-340,591	284,085	0,039	0,051
-339,577	-150,991	-0,111	0,006
-338,562	-200,000	0,002	-0,145
-337,548	-81,011	0,052	0,012
-336,533	32,505	0,112	0,070
-335,518	-200,000	0,006	0,019
-334,504	91,141	-0,136	0,111
-333,489	229,658	-0,078	0,093
-332,475	45,380	-0,079	-0,053
-331,460	648,924	-0,052	0,097
-330,445	-200,000	-0,035	-0,134
-329,431	4,129	-0,066	-0,035
-328,416	-13,578	0,033	-0,015
-327,402	-34,114	0,039	0,015
-326,387	-200,000	0,005	0,078
-325,372	27,870	-0,089	-0,054
-324,358	62,462	-0,133	-0,097
-323,343	-200,000	-0,021	-0,170
-322,329	88,058	0,038	0,031
-321,314	800,000	-0,036	0,093
-320,299	-200,000	0,012	-0,151
-319,285	52,983	-0,105	-0,073
-318,270	142,163	0,082	-0,079
-317,256	-181,723	0,091	-0,001
-316,241	-105,027	0,079	-0,013
-315,226	-200,000	0,036	-0,139
-314,212	-22,656	0,062	0,027
-313,197	450,868	0,052	-0,085
-312,183	-200,000	-0,042	0,171
-311,168	-200,000	0,007	-0,055
-310,153	-56,545	0,048	0,015
-309,139	540,099	-0,007	0,013
-308,124	158,727	0,103	-0,105
-307,110	43,445	0,035	-0,024
-306,095	800,000	0,045	0,096
-305,080	363,179	0,058	-0,086
-304,066	374,845	0,078	0,117
-303,051	-37,353	0,061	-0,024
-302,037	412,670	0,056	0,087
-301,022	-69,537	-0,019	-0,005
-300,008	604,799	-0,012	0,022
-298,993	-157,016	0,061	-0,003
-297,978	5,979	0,020	-0,011
-296,964	224,546	0,057	0,068
-295,949	31,271	-0,120	-0,075
-294,935	-96,741	-0,050	0,009
-293,920	195,092	0,064	-0,071
-292,905	-25,450	0,163	0,070
-291,891	800,000	-0,025	-0,053
-290,876	186,515	0,084	0,091
-289,862	-22,581	-0,088	0,038
-288,847	-123,613	-0,050	0,006
-287,832	287,536	0,110	-0,146
-286,818	-63,166	-0,093	-0,028
-285,803	-200,000	-0,003	0,113
-284,789	-90,323	0,073	0,015
-283,774	39,420	0,022	0,015
-282,759	-70,666	0,166	-0,045
-281,745	133,831	0,042	0,040
-280,730	86,813	0,092	0,074
-279,716	-200,000	0,052	-0,178
-278,701	-200,000	-0,022	0,258
-277,686	-200,000	0,023	0,091
-276,672	579,944	0,033	0,060
-275,657	800,000	-0,041	0,105
-274,643	227,653	0,096	-0,114
-273,628	800,000	0,070	0,150
-272,613	-77,913	-0,066	0,016
-271,599	-91,253	0,110	0,023
-270,584	485,985	-0,009	-0,015
-269,570	74,516	0,039	0,030
-268,555	800,000	-0,016	0,049
-267,540	166,064	-0,089	-0,092
-266,526	287,493	-0,083	0,109
-265,511	800,000	-0,037	0,078
-264,497	133,038	0,038	-0,036
-263,482	-200,000	0,027	0,088
-262,467	121,423	0,111	0,101
-261,453	-200,000	0,017	0,056
-260,438	3,413	-0,086	-0,045
-259,424	-78,340	-0,093	-0,023
-258,409	-200,000	-0,022	0,165
-257,395	83,513	0,019	0,015
-256,380	539,217	0,038	-0,067
-255,365	255,417	-0,087	-0,109
-254,351	-200,000	-0,016	0,123
-253,336	230,499	-0,049	0,058
-252,322	800,000	0,023	-0,055
-251,307	526,903	-0,019	-0,033
-250,292	-126,769	0,055	0,006
-249,278	-110,907	0,129	-0,019
-248,263	-200,000	-0,031	0,103
-247,249	-55,329	-0,109	-0,035
-246,234	-200,000	-0,020	0,075
-245,219	-14,797	-0,139	-0,065
-244,205	371,645	0,035	-0,051
-243,190	-24,441	0,099	0,043
-242,176	-74,053	-0,031	-0,008
-241,161	-200,000	-0,011	0,061
-240,146	-1,113	-0,088	-0,045
-239,132	-127,580	0,048	-0,005
-238,117	-200,000	-0,002	-0,148
-237,103	-61,302	0,037	0,011
-236,088	800,000	0,022	-0,053
-235,073	19,918	0,102	-0,060
-234,059	800,000	-0,026	0,067
-233,044	-131,053	0,125	-0,012
-232,030	221,347	0,058	-0,068
-231,015	-200,000	-0,013	-0,063
-230,000	-200,000	-0,004	-0,044
-228,986	-200,000	0,040	-0,129
-227,971	-45,517	-0,046	0,017
-226,957	579,002	0,064	-0,114
-225,942	117,157	0,118	0,106
-224,927	-84,902	0,089	0,020
-223,913	-10,937	-0,053	0,026
-222,898	118,362	-0,101	-0,091
-221,884	772,280	0,073	0,145
-220,869	194,847	-0,081	0,089
-219,855	-76,305	0,123	0,031
-218,840	776,994	0,051	0,101
-217,825	-200,000	0,017	-0,092
-216,811	256,812	-0,020	-0,025
-215,796	-52,695	-0,127	0,042
-214,782	92,756	0,049	-0,040
-213,767	800,000	-0,036	-0,076
-212,752	338,549	-0,097	-0,137
-211,738	27,514	-0,093	-0,057
-210,723	-196,719	0,105	0,000
-209,709	-116,054	-0,151	-0,020
-208,694	800,000	-0,019	0,056
-207,679	76,909	0,065	-0,050
-206,665	55,649	-0,111	0,078
-205,650	-108,624	0,044	0,007
-204,636	136,322	0,041	-0,039
-203,621	153,410	0,062	-0,062
-202,606	-83,569	-0,071	-0,016
-201,592	412,546	-0,040	-0,061
-200,577	198,205	0,064	-0,071
-199,563	-88,896	-0,085	0,018
-198,548	-103,161	-0,066	-0,011
-197,533	71,070	-0,050	-0,038
-196,519	-200,000	0,018	0,086
-195,504	-93,336	0,051	-0,010
-194,490	-200,000	0,017	-0,087
-193,475	112,665	0,107	-0,094
-192,460	800,000	-0,046	-0,106
-191,446	63,151	-0,081	0,059
-190,431	292,704	0,077	-0,102
-189,417	223,765	-0,055	0,064
-188,402	91,086	0,055	0,045
-187,387	-200,000	-0,007	-0,052
-186,373	-117,136	-0,134	-0,018
-185,358	-200,000	-0,002	0,128
-184,344	-200,000	0,011	0,083
-183,329	485,232	0,068	0,114
-182,315	41,435	0,088	0,058
-181,300	800,000	0,014	-0,032
-180,285	-4,237	-0,058	0,029
-179,271	-84,742	-0,132	-0,030
-178,256	-126,220	0,133	0,014
-177,242	-200,000	0,032	-0,125
-176,227	145,229	0,057	0,055
-175,212	152,409	-0,013	0,013
-174,198	54,257	-0,076	-0,053
-173,183	138,080	0,066	0,063
-172,169	-200,000	0,043	-0,148
-171,154	-62,875	-0,023	0,007
-170,139	220,060	0,004	0,005
-169,125	149,319	0,104	-0,102
-168,110	147,473	0,010	0,009
-167,096	213,141	-0,138	0,158
-166,081	142,988	-0,061	-0,059
-165,066	-47,837	-0,088	-0,031
-164,052	-200,000	0,018	0,151
-163,037	-200,000	-0,022	0,070
-162,023	-200,000	-0,008	-0,105
-161,008	5,838	0,077	-0,041
-159,993	81,489	-0,051	-0,040
-158,979	236,804	-0,042	-0,051
-157,964	162,921	-0,103	-0,105
-156,950	800,000	-0,014	-0,029
-155,935	800,000	0,041	0,093
-154,920	-200,000	-0,008	-0,058
-153,906	800,000	-0,009	0,020
-152,891	-78,027	0,129	0,032
-151,877	116,604	0,079	-0,070
-150,862	-80,998	0,042	-0,010
-149,847	800,000	-0,061	0,172
-148,833	-59,941	-0,032	-0,010
-147,818	-108,984	0,118	-0,018
-146,804	-110,212	0,086	0,013
-145,789	-200,000	0,034	0,115
-144,775	-200,000	-0,037	0,160
-143,760	12,360	-0,053	0,029
-142,745	285,792	-0,080	-0,105
-141,731	11,631	0,143	-0,079
-140,716	800,000	-0,050	0,143
-139,702	800,000	-0,050	0,147
-138,687	56,024	-0,099	-0,070
-137,672	286,679	0,055	-0,072
-136,658	-72,950	-0,099	-0,026
-135,643	118,198	-0,129	-0,115
-134,629	800,000	-0,026	0,061
-133,614	690,094	0,065	0,124
-132,599	175,861	0,089	0,094
-131,585	800,000	0,019	-0,042
-130,570	54,317	-0,115	0,080
-129,556	-200,000	0,035	-0,124
-128,541	132,117	0,037	-0,034
-127,526	800,000	-0,048	0,113
-126,512	-72,362	0,073	-0,019
-125,497	-200,000	0,002	-0,051
-124,483	289,212	-0,077	-0,102
-123,468	109,026	0,122	0,106
-122,453	-42,558	-0,166	-0,061
-121,439	-86,368	-0,088	-0,019
-120,424	256,053	0,083	0,103
-119,410	129,108	0,081	-0,075
-118,395	298,962	-0,037	0,049
-117,380	800,000	-0,039	-0,080
-116,366	-38,254	-0,058	-0,022
-115,351	-200,000	-0,006	-0,055
-114,337	133,403	-0,041	-0,038
-113,322	60,222	0,048	-0,034
-112,307	-200,000	0,001	0,043
-111,293	-200,000	0,015	0,059
-110,278	800,000	0,039	0,085
-109,264	-200,000	-0,003	0,171
-108,249	-91,345	-0,106	-0,022
-107,234	-58,460	0,111	-0,035
-106,220	-200,000	-0,020	-0,162
-105,205	82,656	-0,055	0,043
-104,191	-151,290	-0,019	0,001
-103,176	-200,000	0,006	-0,028
-102,162	-126,728	-0,061	-0,006
-101,147	-35,509	0,051	-0,020
-100,132	29,975	-0,063	-0,039
-99,118	-38,362	-0,101	0,039
-98,103	-64,445	-0,062	-0,018
-97,089	184,823	0,054	0,058
-96,074	-122,820	-0,062	-0,007
-95,059	725,396	0,020	-0,038
-94,045	51,071	-0,097	-0,066
-93,030	-200,000	-0,003	0,024
-92,016	-67,260	-0,146	-0,041
-91,001	-120,864	0,077	0,009
-89,986	283,290	0,014	0,018
-88,972	53,825	-0,062	-0,043
-87,957	86,697	0,050	0,040
-86,943	192,296	0,022	-0,024
-85,928	-200,000	0,015	0,068
-84,913	-51,006	-0,108	0,037
-83,899	-200,000	-0,015	-0,073
-82,884	-116,311	-0,051	0,007
-81,870	-168,981	-0,035	0,001
-80,855	105,397	0,076	0,065
-79,840	225,663	0,048	-0,056
-78,826	792,130	-0,015	0,030
-77,811	-47,900	-0,116	-0,040
-76,797	309,577	-0,052	0,070
-75,782	532,994	0,088	0,151
-74,767	90,072	-0,074	0,060
-73,753	-45,470	0,093	-0,033
-72,738	-27,218	-0,056	0,024
-71,724	80,506	0,064	0,050
-70,709	442,751	0,022	0,034
-69,694	-29,336	0,121	-0,050
-68,680	289,634	-0,010	-0,013
-67,665	-121,340	0,107	0,013
-66,651	-165,050	-0,122	-0,004
-65,636	-200,000	-0,021	0,118
-64,622	-200,000	-0,001	-0,070
-63,607	62,250	-0,043	0,031
-62,592	677,443	-0,072	-0,137
-61,578	-11,170	-0,071	0,034
-60,563	-200,000	0,004	0,061
-59,549	800,000	0,007	-0,023
-58,534	-36,577	-1,799	-0,695
-57,519	800,000	-0,457	-1,222
-56,505	-200,000	-1,073	-4,942
-55,490	-84,407	0,649	0,147
-54,476	800,000	5,220	12,361
-53,461	-200,000	15,814	278,320
-52,446	-200,000	702,467	2249,261
-51,432	565,773	1618,671	2845,681
-50,417	121,984	1622,817	1462,302
-49,403	82,632	1283,948	1006,033
-48,388	36,938	1028,136	655,094
-47,373	21,563	989,992	579,954
-46,359	20,472	978,805	569,780
-45,344	18,785	974,647	561,792
-44,330	18,862	973,316	561,254
-43,315	18,575	971,591	559,297
-42,300	18,568	970,420	558,579
-41,286	18,523	969,537	557,900
-40,271	18,535	968,411	557,268
-39,257	18,556	967,689	556,901
-38,242	18,547	966,953	556,426
-37,227	18,513	966,345	555,943
-36,213	18,545	965,209	555,372
-35,198	18,509	964,509	554,828
-34,184	18,565	963,643	554,490
-33,169	18,497	962,729	553,722
-32,154	18,573	962,057	553,559
-31,140	18,560	961,084	552,936
-30,125	18,631	960,154	552,608
-29,111	18,627	959,493	552,193
-28,096	18,532	958,899	551,524
-27,082	18,554	958,071	551,094
-26,067	18,521	957,589	550,691
-25,052	18,530	956,665	550,167
-24,038	18,547	955,816	549,709
-23,023	18,530	955,204	549,283
-22,009	18,566	954,506	548,974
-20,994	18,558	954,080	548,681
-19,979	18,550	953,360	548,219
-18,965	18,492	952,829	547,707
-17,950	18,556	952,049	547,444
-16,936	18,532	951,305	546,916
-15,921	18,473	950,700	546,358
-14,906	18,401	950,195	545,816
-13,892	18,401	949,373	545,322
-12,877	18,373	948,742	544,848
-11,863	18,322	948,292	544,405
-10,848	18,406	947,497	544,195
-9,833	18,495	947,120	544,242
-8,819	18,428	946,586	543,698
-7,804	18,417	946,010	543,312
-6,790	18,424	945,224	542,859
-5,775	18,432	944,681	542,552
-4,760	18,423	944,196	542,223
-3,746	18,416	943,319	541,676
-2,731	18,295	942,759	540,948
-1,717	18,209	941,921	540,174
-0,702	18,266	941,327	539,993
0,313	18,063	940,636	539,767
1,327	21,210	939,005	548,748
2,342	30,376	796,419	489,834
3,356	27,484	449,669	272,201
4,371	-2,366	295,325	148,856
5,386	-6,648	276,880	135,473
6,400	-7,915	271,022	131,414
7,415	-8,005	268,610	130,149
8,429	-7,923	267,395	129,625
9,444	-8,126	266,561	129,023
10,459	-8,087	266,108	128,828
11,473	-8,201	265,287	128,314
12,488	-8,112	264,749	128,124
13,502	-8,470	264,112	127,479
14,517	-8,430	263,803	127,356
15,531	-8,272	263,402	127,293
16,546	-8,284	262,903	127,030
17,561	-8,212	262,605	126,940
18,575	-8,136	262,246	126,823
19,590	-8,296	261,956	126,528
20,604	-8,199	261,652	126,457
21,619	-8,355	261,334	126,152
22,634	-8,434	261,150	125,980
23,648	-8,258	260,686	125,904
24,663	-8,284	260,469	125,764
25,677	-8,202	260,176	125,685
26,692	-8,317	259,918	125,446
27,707	-8,326	259,661	125,303
28,721	-8,410	259,289	125,038
29,736	-8,629	259,264	124,819
30,750	-8,326	258,716	124,814
31,765	-8,515	258,789	124,669
32,780	-8,447	258,357	124,510
33,794	-8,338	258,134	124,489
34,809	-8,495	257,947	124,249
35,823	-8,492	257,703	124,123
36,838	-8,498	257,419	123,969
37,853	-8,559	257,230	123,813
38,867	-8,434	256,957	123,782
39,882	-8,452	256,819	123,688
40,896	-8,497	256,520	123,493
41,911	-8,525	256,353	123,377
42,926	-8,548	256,127	123,237
43,940	-8,448	255,904	123,207
44,955	-8,560	255,480	122,894
45,969	-8,697	255,461	122,753
46,984	-8,794	255,030	122,451
47,999	-9,091	254,690	122,017
49,013	-9,158	254,614	121,911
50,028	-9,207	254,231	121,674
51,042	-9,428	254,093	121,405
52,057	-9,507	253,775	121,173
53,071	-9,284	253,577	121,262
54,086	-9,224	253,418	121,227
55,101	-9,298	253,451	121,167
56,115	-9,015	253,275	121,318
57,130	-8,484	253,128	121,697
58,144	-8,272	252,865	121,743
59,159	-8,195	252,700	121,720
60,174	-8,276	252,489	121,538
61,188	-8,299	252,373	121,451
62,203	-8,313	252,054	121,275
63,217	-8,418	251,943	121,120
64,232	-8,352	251,690	121,044
65,247	-8,273	251,509	121,015
66,261	-8,417	251,244	120,753
67,276	-8,549	250,995	120,508
68,290	-8,865	250,691	120,081
69,305	-8,870	250,358	119,906
70,320	-8,849	250,267	119,870
71,334	-8,504	250,037	120,044
72,349	-8,357	249,988	120,136
73,363	-8,107	249,781	120,239
74,378	-8,171	249,733	120,151
75,393	-8,251	249,348	119,887
76,407	-8,531	249,179	119,556
77,422	-8,450	248,972	119,514
78,436	-8,271	248,734	119,543
79,451	-8,388	248,569	119,353
80,466	-8,324	248,245	119,241
81,480	-8,585	247,917	118,851
82,495	-8,697	247,994	118,783
83,509	-8,762	247,831	118,639
84,524	-8,871	247,612	118,432
85,539	-8,917	247,353	118,258
86,553	-8,792	247,121	118,242
87,568	-8,730	247,026	118,239
88,582	-8,959	246,949	117,998
89,597	-8,618	246,609	118,112
90,611	-8,564	246,457	118,075
91,626	-8,466	246,344	118,092
92,641	-8,614	246,197	117,887
93,655	-8,492	245,873	117,824
94,670	-8,487	245,543	117,659
95,684	-8,814	245,645	117,424
96,699	-8,526	245,167	117,425
97,714	-8,690	244,971	117,184
98,728	-8,706	245,026	117,187
99,743	-8,845	244,851	116,976
100,757	-8,801	244,425	116,799
101,772	-8,895	244,455	116,725
102,787	-8,728	244,109	116,688
103,801	-8,539	243,950	116,759
104,816	-8,493	243,824	116,726
105,830	-8,259	243,650	116,827
106,845	-8,330	243,540	116,705
107,860	-8,591	243,420	116,420
108,874	-8,516	243,224	116,379
109,889	-8,370	242,868	116,319
110,903	-8,651	242,778	116,033
111,918	-8,601	242,433	115,899
112,933	-8,651	242,517	115,887
113,947	-8,590	242,320	115,834
114,962	-8,476	242,042	115,784
115,976	-8,586	241,996	115,661
116,991	-8,654	241,711	115,458
118,006	-8,675	241,571	115,364
119,020	-8,534	241,541	115,455
120,035	-8,416	241,359	115,455
121,049	-8,502	241,189	115,293
122,064	-8,476	240,994	115,211
123,079	-8,446	240,718	115,093
124,093	-8,639	240,518	114,829
125,108	-8,891	240,365	114,540
126,122	-8,857	239,936	114,352
127,137	-9,090	239,883	114,126
128,151	-8,824	239,653	114,224
129,166	-8,943	239,607	114,095
130,181	-8,690	239,301	114,146
131,195	-8,901	239,268	113,948
132,210	-8,828	239,093	113,913
133,224	-8,600	238,781	113,940
134,239	-8,314	238,618	114,084
135,254	-8,414	238,598	113,983
136,268	-8,575	238,226	113,665
137,283	-8,966	238,089	113,272
138,297	-9,387	238,166	112,958
139,312	-9,105	237,747	112,977
140,327	-8,804	237,739	113,207
141,341	-8,306	237,658	113,560
142,356	-8,221	237,438	113,514
143,370	-8,189	237,333	113,480
144,385	-7,992	236,991	113,465
145,400	-8,181	237,128	113,368
146,414	-8,007	236,816	113,349
147,429	-8,269	236,607	113,028
148,443	-8,176	236,399	112,993
149,458	-8,174	236,175	112,878
150,473	-8,092	236,093	112,893
151,487	-8,390	235,905	112,555
152,502	-8,349	235,733	112,496
153,516	-8,126	235,665	112,632
154,531	-8,117	235,320	112,464
155,546	-8,352	235,322	112,267
156,560	-8,110	234,975	112,285
157,575	-8,527	234,790	111,854
158,589	-8,377	234,685	111,914
159,604	-8,097	234,579	112,076
160,619	-8,077	234,538	112,062
161,633	-8,041	234,342	111,987
162,648	-7,986	234,204	111,955
163,662	-8,085	234,070	111,802
164,677	-8,327	233,811	111,477
165,692	-8,099	233,602	111,548
166,706	-8,120	233,605	111,523
167,721	-8,108	233,497	111,471
168,735	-7,933	233,291	111,501
169,750	-7,848	232,904	111,373
170,764	-8,134	232,892	111,132
171,779	-8,215	232,742	110,987
172,794	-8,142	232,676	111,003
173,808	-8,152	232,298	110,804
174,823	-8,663	232,132	110,313
175,837	-8,831	231,886	110,054
176,852	-8,317	231,702	110,361
177,867	-8,386	231,958	110,418
178,881	-8,093	231,654	110,494
179,896	-8,024	231,588	110,507
180,910	-8,142	231,436	110,332
181,925	-7,903	231,042	110,322
182,940	-8,064	230,985	110,158
183,954	-8,068	230,884	110,097
184,969	-7,911	230,649	110,098
185,983	-7,916	230,585	110,053
186,998	-7,840	230,407	110,018
188,013	-7,785	230,343	110,021
189,027	-7,935	230,295	109,871
190,042	-7,835	229,936	109,768
191,056	-7,914	229,816	109,639
192,071	-7,926	229,556	109,496
193,086	-8,013	229,507	109,395
194,100	-7,882	229,302	109,390
195,115	-8,278	229,045	108,951
196,129	-9,013	228,715	108,215
197,144	-4,504	230,330	112,481
198,159	1,525	231,856	117,929
199,173	3,340	232,348	119,587
200,188	3,428	232,231	119,585
201,202	3,612	232,153	119,678
202,217	3,682	232,074	119,681
203,232	3,761	231,919	119,652
204,246	4,061	231,826	119,826
205,261	4,053	231,719	119,754
206,275	4,129	231,611	119,747
207,290	4,113	231,446	119,639
208,304	4,365	231,193	119,693
209,319	4,252	231,075	119,533
210,334	4,230	230,978	119,455
211,348	3,774	230,752	118,975
212,363	3,655	230,416	118,699
213,377	3,299	230,201	118,302
214,392	3,319	230,100	118,255
215,407	3,664	229,963	118,441
216,421	3,711	229,877	118,422
217,436	3,519	229,669	118,156
218,450	3,341	229,433	117,887
219,465	3,128	229,234	117,611
220,480	3,307	229,103	117,671
221,494	3,236	229,053	117,580
222,509	3,338	228,849	117,543
223,523	3,202	228,881	117,445
224,538	3,331	228,627	117,403
225,553	3,478	228,377	117,376
226,567	3,495	228,178	117,277
227,582	3,823	228,177	117,517
228,596	3,822	228,198	117,516
229,611	3,589	227,892	117,170
230,626	3,088	227,667	116,661
231,640	3,158	227,611	116,676
232,655	3,558	227,546	116,937
233,669	3,796	227,600	117,136
234,684	4,083	227,447	117,265
235,699	3,821	227,168	116,912
236,713	3,843	226,921	116,791
237,728	3,400	226,602	116,281
238,742	3,288	226,482	116,124
239,757	3,419	226,341	116,140
240,772	3,286	226,077	115,893
241,786	3,536	226,019	116,043
242,801	3,436	226,083	115,990
243,815	3,845	225,960	116,225
244,830	3,839	225,790	116,123
245,844	3,234	225,661	115,590
246,859	3,326	225,414	115,522
247,874	3,649	225,314	115,704
248,888	3,911	225,021	115,740
249,903	3,626	224,941	115,475
250,917	3,322	224,922	115,226
251,932	3,395	224,624	115,118
252,947	3,310	224,531	114,996
253,961	3,053	224,374	114,713
254,976	3,203	224,241	114,747
255,990	3,589	223,998	114,901
257,005	3,468	224,064	114,834
258,020	3,670	223,777	114,828
259,034	3,762	223,791	114,894
260,049	3,807	223,671	114,856
261,063	3,565	223,498	114,576
262,078	3,724	223,283	114,574
263,093	3,858	223,020	114,529
264,107	3,875	222,887	114,463
265,122	3,597	222,812	114,207
266,136	3,876	222,740	114,368
267,151	3,709	222,606	114,164
268,166	3,598	222,160	113,844
269,180	3,161	222,166	113,512
270,195	3,139	222,042	113,422
271,209	3,330	221,959	113,511
272,224	3,357	221,890	113,486
273,239	3,680	221,673	113,603
274,253	3,409	221,433	113,270
275,268	3,224	221,261	113,035
276,282	3,259	221,082	112,959
277,297	3,143	221,002	112,823
278,312	3,327	220,909	112,902
279,326	3,380	220,813	112,881
280,341	3,333	220,721	112,790
281,355	3,499	220,513	112,795
282,370	3,373	220,349	112,608
283,384	3,141	220,122	112,312
284,399	3,075	219,989	112,185
285,414	3,071	220,007	112,182
286,428	3,663	219,688	112,443
287,443	3,419	219,757	112,290
288,457	3,623	219,577	112,337
289,472	3,491	219,322	112,100
290,487	2,815	219,230	111,549
291,501	3,087	218,918	111,579
292,516	3,176	218,832	111,590
293,530	3,034	218,697	111,408
294,545	3,050	218,599	111,359
295,560	3,195	218,617	111,464
296,574	3,368	218,434	111,487
297,589	3,352	218,308	111,401
298,603	3,521	218,175	111,446
299,618	3,374	218,069	111,275
300,633	3,448	218,056	111,312
301,647	3,736	217,816	111,389
302,662	3,717	217,678	111,295
303,676	3,767	217,485	111,222
304,691	3,512	217,407	110,988
305,706	3,660	217,354	111,058
306,720	3,661	217,113	110,926
307,735	3,602	216,796	110,711
308,749	3,140	216,820	110,381
309,764	3,409	216,637	110,472
310,779	3,719	216,374	110,550
311,793	3,448	216,214	110,264
312,808	3,846	216,218	110,542
313,822	3,590	216,214	110,347
314,837	3,615	215,852	110,170
315,852	3,254	215,693	109,820
316,866	3,467	215,571	109,901
317,881	3,592	215,601	109,996
318,895	3,552	215,373	109,841
319,910	3,265	215,192	109,534
320,925	3,278	215,032	109,452
321,939	3,043	214,752	109,132
322,954	2,872	214,805	109,026
323,968	3,404	214,818	109,403
324,983	3,570	214,587	109,395
325,997	3,812	214,495	109,510
327,012	3,313	214,440	109,117
328,027	3,674	214,043	109,162
329,041	3,727	214,088	109,213
330,056	3,754	213,933	109,143
331,070	3,415	213,677	108,762
332,085	3,155	213,438	108,446
333,100	3,418	213,467	108,637
334,114	3,527	213,403	108,673
335,129	3,481	213,057	108,454
336,143	3,464	212,942	108,375
337,158	3,169	212,929	108,149
338,173	3,533	212,705	108,283
339,187	3,294	212,540	108,021
340,202	3,200	212,449	107,899
341,216	2,988	212,224	107,625
342,231	3,113	212,176	107,679
343,246	3,125	212,031	107,605
344,260	3,259	211,863	107,604
345,275	3,267	211,871	107,605
346,289	3,428	211,756	107,649
347,304	3,522	211,634	107,644
348,319	3,303	211,331	107,327
349,333	3,227	211,296	107,246
350,348	3,492	211,079	107,311
351,362	3,529	211,065	107,321
352,377	3,810	210,847	107,397
353,392	3,453	210,691	107,058
354,406	3,324	210,697	106,962
355,421	194,847	1341,645	1425,849
356,435	155,591	1479,461	1425,887
