DTS Sentinel unit serial number:	SN410029Multiplexer serial number:	ORYXHardware model number:	OX2-SRSoftware version number:	ORYX F/W v4,00 Oryx Data Collector v3.7.2.0data status	okinstallation	B6 Nyhavnadifferential loss correction	single-endedforward channel	channel 2reverse channel	N/Adate	2023/12/10time	17:15:08forward acquisition time	300,00reverse acquisition time	0,00gamma	499,1914k internal	0,3123k external	0,3123temperature offset calibration	1,0000default loss term (dB/km)	0,3820temperature slope calibration	1,0000multiplexer offset coefficient	1,0000multiplexer slope coefficient	1,0000fibre end	0,00T internal ref (°C)	22,41T ext. ref 1 (°C)	6,12T ext. ref 2 (°C)	6,14length (m)	temperature (°C)	Stokes	anti-Stokes-744,400	-147,663	-0,143	-0,009
-743,385	42,577	-0,261	0,177
-742,371	800,000	0,035	0,092
-741,356	29,164	-0,218	0,138
-740,342	-200,000	0,005	0,033
-739,327	343,687	-0,095	0,139
-738,312	800,000	0,037	0,088
-737,298	197,894	-0,100	0,114
-736,283	-155,502	0,097	-0,005
-735,269	185,137	-0,086	0,096
-734,254	130,232	0,072	0,069
-733,239	-153,365	-0,315	0,016
-732,225	712,081	0,018	0,035
-731,210	312,384	0,022	0,031
-730,196	-30,057	-0,156	0,066
-729,181	64,938	-0,127	-0,095
-728,167	-200,000	0,000	0,096
-727,152	-54,405	-0,050	-0,017
-726,137	-200,000	-0,010	0,042
-725,123	800,000	-0,028	0,072
-724,108	-200,000	0,005	-0,047
-723,094	800,000	-0,024	0,054
-722,079	-49,015	0,030	0,011
-721,064	-29,126	0,020	0,009
-720,050	-40,878	-0,101	-0,039
-719,035	531,076	-0,053	-0,093
-718,021	109,585	-0,044	-0,039
-717,006	363,279	0,044	0,067
-715,991	440,255	-0,135	-0,220
-714,977	-200,000	0,011	-0,153
-713,962	75,163	0,023	-0,018
-712,948	-116,271	-0,031	-0,004
-711,933	16,473	-0,114	-0,067
-710,918	-200,000	0,003	-0,056
-709,904	89,249	-0,175	-0,145
-708,889	-62,898	0,089	-0,027
-707,875	-200,000	0,003	-0,066
-706,860	-51,205	-0,023	-0,008
-705,845	-144,495	-0,061	-0,004
-704,831	-199,212	-0,129	0,000
-703,816	169,498	-0,033	0,035
-702,802	-18,074	0,070	-0,033
-701,787	107,910	-0,095	-0,084
-700,772	319,949	-0,036	-0,051
-699,758	-200,000	0,001	0,066
-698,743	105,984	0,088	0,078
-697,729	135,712	0,061	-0,059
-696,714	800,000	0,028	-0,091
-695,699	-200,000	0,017	-0,136
-694,685	103,660	-0,063	0,055
-693,670	109,502	-0,060	0,054
-692,656	800,000	0,045	-0,127
-691,641	30,486	-0,084	0,053
-690,627	39,643	0,028	0,018
-689,612	113,582	-0,093	-0,084
-688,597	-16,478	0,032	0,015
-687,583	800,000	-0,040	-0,118
-686,568	173,880	0,033	-0,036
-685,554	800,000	0,039	-0,128
-684,539	-200,000	0,004	0,019
-683,524	603,322	-0,045	0,083
-682,510	-200,000	0,011	0,087
-681,495	-109,611	0,096	0,015
-680,481	-50,537	-0,087	-0,030
-679,466	800,000	0,038	-0,111
-678,451	29,484	0,067	-0,043
-677,437	335,858	0,071	-0,103
-676,422	-80,497	0,175	0,043
-675,408	-8,083	-0,168	0,084
-674,393	80,873	0,081	-0,065
-673,378	168,773	-0,072	0,076
-672,364	-200,000	-0,011	-0,114
-671,349	96,142	-0,027	-0,023
-670,335	-119,922	0,139	-0,018
-669,320	-200,000	-0,001	0,078
-668,305	39,063	-0,087	0,058
-667,291	-200,000	-0,014	-0,111
-666,276	-118,088	-0,192	-0,025
-665,262	42,547	0,039	0,027
-664,247	-97,337	0,051	0,010
-663,232	-200,000	-0,033	0,141
-662,218	-200,000	0,010	0,145
-661,203	111,193	-0,130	0,116
-660,189	-8,148	-0,074	0,037
-659,174	393,044	-0,017	-0,026
-658,159	102,529	-0,060	-0,052
-657,145	162,788	0,014	0,015
-656,130	18,676	-0,076	0,045
-655,116	-200,000	0,024	0,165
-654,101	257,981	0,049	0,063
-653,086	169,139	-0,038	0,040
-652,072	95,177	0,109	-0,092
-651,057	59,783	-0,092	0,068
-650,043	124,945	-0,026	-0,024
-649,028	44,429	-0,077	-0,053
-648,014	800,000	-0,033	0,095
-646,999	-200,000	-0,003	0,109
-645,984	-200,000	0,003	-0,043
-644,970	146,596	-0,052	-0,052
-643,955	272,997	-0,079	-0,104
-642,941	188,465	0,022	-0,024
-641,926	256,472	0,025	0,032
-640,911	-57,658	-0,212	-0,068
-639,897	-25,703	-0,034	-0,015
-638,882	-173,561	0,131	-0,003
-637,868	-192,280	-0,038	-0,000
-636,853	-200,000	-0,034	-0,121
-635,838	81,812	0,063	-0,051
-634,824	-49,924	-0,033	0,012
-633,809	800,000	0,052	-0,118
-632,795	-8,451	0,074	-0,037
-631,780	142,307	0,072	0,071
-630,765	-2,266	-0,121	-0,063
-629,751	-37,027	-0,118	-0,047
-628,736	108,943	-0,124	-0,110
-627,722	144,401	-0,106	-0,105
-626,707	-131,958	0,189	0,018
-625,692	649,473	0,064	-0,122
-624,678	-200,000	0,007	-0,161
-623,663	490,132	0,018	0,031
-622,649	-200,000	-0,011	-0,046
-621,634	-200,000	-0,032	-0,127
-620,619	150,236	-0,033	0,033
-619,605	69,473	0,152	0,116
-618,590	-200,000	0,001	0,086
-617,576	-200,000	-0,011	0,109
-616,561	-200,000	-0,032	0,187
-615,546	-200,000	-0,014	0,133
-614,532	-85,049	-0,012	0,003
-613,517	-200,000	-0,019	-0,080
-612,503	-56,555	-0,141	0,046
-611,488	-200,000	0,001	0,107
-610,474	800,000	0,031	0,076
-609,459	47,545	-0,049	0,034
-608,444	-98,859	-0,141	0,026
-607,430	87,752	-0,047	-0,038
-606,415	-24,053	0,131	-0,058
-605,401	-64,131	-0,117	-0,035
-604,386	228,832	-0,023	-0,027
-603,371	51,232	0,087	-0,061
-602,357	-33,286	-0,049	0,020
-601,342	-200,000	0,010	0,139
-600,328	276,532	0,026	-0,035
-599,313	240,281	-0,071	-0,088
-598,298	-120,824	0,102	0,013
-597,284	-132,926	-0,039	0,004
-596,269	-200,000	-0,034	-0,138
-595,255	-200,000	-0,017	-0,139
-594,240	-57,248	0,049	-0,016
-593,225	47,312	-0,076	-0,052
-592,211	-200,000	-0,018	-0,068
-591,196	278,200	0,073	-0,096
-590,182	-171,937	-0,090	0,002
-589,167	159,368	0,042	-0,043
-588,152	-57,507	-0,059	0,019
-587,138	-161,818	0,092	0,003
-586,123	219,750	-0,011	0,012
-585,109	251,064	-0,027	0,034
-584,094	-105,546	0,025	0,004
-583,079	-200,000	-0,015	0,114
-582,065	-140,952	0,097	-0,007
-581,050	-102,914	0,110	-0,019
-580,036	714,623	0,024	0,047
-579,021	222,633	0,064	-0,076
-578,006	-200,000	0,013	0,051
-576,992	568,877	0,016	-0,028
-575,977	-161,620	0,065	-0,002
-574,963	345,337	-0,050	-0,072
-573,948	238,021	-0,038	0,047
-572,934	269,344	-0,090	0,118
-571,919	5,199	-0,051	0,028
-570,904	-200,000	-0,004	-0,037
-569,890	800,000	0,035	-0,072
-568,875	128,263	-0,086	-0,081
-567,861	-163,198	0,181	-0,006
-566,846	31,414	0,064	-0,041
-565,831	-200,000	0,009	-0,081
-564,817	-77,478	0,116	0,030
-563,802	-1,461	0,185	-0,096
-562,788	800,000	-0,033	0,086
-561,773	164,681	-0,103	-0,108
-560,758	-200,000	-0,023	-0,129
-559,744	66,338	0,109	-0,082
-558,729	28,745	-0,036	-0,023
-557,715	800,000	-0,039	-0,100
-556,700	800,000	0,034	0,085
-555,685	374,354	0,017	-0,026
-554,671	-0,974	0,159	0,083
-553,656	-79,659	-0,017	-0,004
-552,642	-200,000	0,042	0,218
-551,627	407,092	-0,076	0,119
-550,612	430,449	-0,072	-0,115
-549,598	65,640	0,065	-0,049
-548,583	-200,000	-0,008	0,065
-547,569	-33,503	0,058	0,023
-546,554	121,752	0,062	0,058
-545,539	-200,000	0,014	0,069
-544,525	129,967	-0,037	0,035
-543,510	483,291	-0,039	0,066
-542,496	-165,398	0,050	0,002
-541,481	66,281	-0,103	0,077
-540,466	-21,248	-0,070	-0,032
-539,452	63,500	0,066	-0,049
-538,437	-103,901	-0,077	-0,013
-537,423	95,674	-0,039	-0,033
-536,408	177,957	-0,132	0,143
-535,393	1,341	-0,092	-0,049
-534,379	-81,152	-0,113	0,027
-533,364	738,905	0,069	-0,137
-532,350	-19,151	0,115	0,053
-531,335	207,176	0,034	-0,039
-530,321	-30,112	0,067	0,028
-529,306	-31,066	-0,009	0,004
-528,291	142,513	-0,033	-0,032
-527,277	-18,945	-0,150	-0,069
-526,262	-35,834	-0,046	-0,018
-525,248	-163,746	-0,084	0,003
-524,233	800,000	0,020	-0,047
-523,218	236,987	0,071	0,087
-522,204	-73,200	-0,162	-0,044
-521,189	21,603	0,049	-0,029
-520,175	760,568	-0,047	-0,094
-519,160	-200,000	0,001	-0,013
-518,145	-31,504	0,044	-0,018
-517,131	800,000	-0,029	0,067
-516,116	-74,227	0,135	0,036
-515,102	-200,000	0,009	0,086
-514,087	-29,505	-0,085	-0,036
-513,072	4,577	0,100	0,054
-512,058	-177,371	-0,045	-0,001
-511,043	52,781	0,033	-0,024
-510,029	-49,391	0,048	0,017
-509,014	-103,805	0,040	-0,007
-507,999	562,653	0,087	0,156
-506,985	49,791	-0,116	0,081
-505,970	-200,000	-0,005	-0,085
-504,956	-71,814	-0,091	-0,025
-503,941	-200,000	0,013	0,071
-502,926	-200,000	-0,026	-0,106
-501,912	-105,409	0,033	-0,006
-500,897	-56,303	0,076	0,025
-499,883	212,360	-0,046	0,054
-498,868	5,194	-0,100	0,054
-497,853	37,540	-0,111	-0,072
-496,839	800,000	-0,046	0,140
-495,824	113,032	0,101	-0,090
-494,810	662,682	0,010	-0,019
-493,795	-200,000	0,004	0,034
-492,781	-200,000	-0,004	0,054
-491,766	-1,518	-0,093	0,048
-490,751	178,989	-0,034	0,037
-489,737	800,000	-0,035	0,095
-488,722	-11,797	0,133	-0,064
-487,708	-200,000	0,015	-0,195
-486,693	206,483	-0,049	-0,057
-485,678	-200,000	0,001	-0,021
-484,664	296,642	-0,086	-0,117
-483,649	506,694	-0,058	-0,100
-482,635	216,252	-0,014	0,017
-481,620	114,792	0,030	0,027
-480,605	210,854	-0,057	-0,066
-479,591	-200,000	-0,036	-0,132
-478,576	43,464	-0,143	0,096
-477,562	-200,000	0,000	0,017
-476,547	-200,000	0,002	-0,059
-475,532	73,421	-0,056	0,043
-474,518	64,558	-0,075	-0,056
-473,503	95,577	0,137	-0,115
-472,489	800,000	0,045	-0,112
-471,474	-56,385	0,039	0,013
-470,459	-34,329	-0,129	0,052
-469,445	372,073	0,039	0,059
-468,430	-200,000	-0,020	0,102
-467,416	406,621	-0,054	-0,084
-466,401	71,820	0,139	-0,106
-465,386	-155,788	-0,071	0,003
-464,372	-9,282	0,065	-0,032
-463,357	296,926	-0,098	-0,133
-462,343	174,982	0,040	-0,043
-461,328	-34,822	0,195	0,078
-460,313	-200,000	0,010	0,060
-459,299	647,718	0,082	0,154
-458,284	-200,000	0,011	0,062
-457,270	17,120	0,060	0,035
-456,255	312,806	-0,055	0,076
-455,241	110,358	0,038	-0,034
-454,226	29,288	-0,082	0,051
-453,211	-200,000	0,043	0,141
-452,197	-200,000	0,033	0,112
-451,182	280,353	-0,126	0,167
-450,168	526,254	-0,023	-0,040
-449,153	-182,270	-0,077	0,001
-448,138	-186,651	-0,081	0,001
-447,124	252,033	-0,124	-0,156
-446,109	68,690	0,010	0,008
-445,095	172,604	0,078	0,083
-444,080	44,577	-0,047	0,031
-443,065	-120,765	-0,140	-0,017
-442,051	800,000	-0,011	0,033
-441,036	-200,000	-0,004	-0,087
-440,022	800,000	-0,050	-0,130
-439,007	-200,000	0,009	0,107
-437,992	737,586	-0,021	0,042
-436,978	144,428	-0,063	0,062
-435,963	800,000	0,050	-0,123
-434,949	-169,139	-0,131	0,004
-433,934	66,284	0,083	-0,062
-432,919	800,000	-0,009	0,020
-431,905	-200,000	-0,008	-0,087
-430,890	580,788	-0,032	0,058
-429,876	-32,527	0,172	0,070
-428,861	-95,846	-0,101	0,020
-427,846	-21,326	0,067	0,030
-426,832	-200,000	-0,020	-0,079
-425,817	15,515	0,075	-0,043
-424,803	326,729	0,032	0,046
-423,788	246,347	0,094	0,117
-422,773	561,141	0,080	0,144
-421,759	800,000	-0,016	-0,050
-420,744	275,487	-0,014	0,018
-419,730	54,767	-0,056	0,040
-418,715	-200,000	0,026	-0,149
-417,701	-106,728	0,046	0,008
-416,686	-200,000	-0,003	0,035
-415,671	-6,184	0,065	-0,033
-414,657	-200,000	0,001	-0,032
-413,642	-6,194	-0,038	-0,019
-412,628	-13,068	-0,062	0,029
-411,613	-200,000	0,001	-0,032
-410,598	184,364	0,114	-0,124
-409,584	274,840	0,088	-0,115
-408,569	-1,874	0,012	-0,006
-407,555	-82,800	0,104	-0,024
-406,540	-200,000	-0,014	0,069
-405,525	-141,047	0,031	-0,002
-404,511	-82,390	-0,107	0,025
-403,496	-32,647	-0,078	0,032
-402,482	36,424	0,069	0,045
-401,467	250,994	0,117	0,147
-400,452	323,592	0,033	0,047
-399,438	-200,000	-0,050	0,170
-398,423	800,000	0,027	0,075
-397,409	-175,631	-0,108	-0,002
-396,394	-21,618	-0,086	-0,039
-395,379	800,000	0,058	-0,150
-394,365	175,343	0,125	0,133
-393,350	-13,907	0,065	-0,031
-392,336	-93,590	-0,047	0,010
-391,321	-60,439	-0,015	0,005
-390,306	98,426	-0,042	-0,036
-389,292	-146,808	0,074	0,005
-388,277	800,000	0,034	-0,076
-387,263	347,956	0,015	-0,022
-386,248	155,117	0,057	-0,057
-385,233	-200,000	0,011	-0,066
-384,219	19,697	-0,063	-0,037
-383,204	-200,000	0,012	-0,080
-382,190	154,208	-0,100	-0,101
-381,175	-113,050	0,088	0,013
-380,160	-3,867	0,123	0,062
-379,146	800,000	0,057	0,135
-378,131	52,944	-0,052	0,036
-377,117	800,000	-0,048	0,155
-376,102	-200,000	-0,008	0,059
-375,088	800,000	-0,051	-0,123
-374,073	-150,209	0,053	0,003
-373,058	525,846	0,095	0,165
-372,044	8,849	-0,047	0,026
-371,029	-107,576	0,143	-0,023
-370,015	-8,389	-0,110	0,054
-369,000	318,214	-0,052	0,073
-367,985	59,989	0,032	-0,023
-366,971	-200,000	0,008	-0,043
-365,956	0,902	0,039	-0,020
-364,942	-24,013	0,158	0,069
-363,927	-200,000	-0,019	-0,103
-362,912	800,000	0,076	0,159
-361,898	-200,000	-0,021	-0,107
-360,883	800,000	-0,008	0,024
-359,869	206,791	-0,075	0,086
-358,854	-40,298	-0,109	0,041
-357,839	-104,209	-0,078	0,013
-356,825	-33,162	0,087	0,035
-355,810	65,728	0,052	0,039
-354,796	-200,000	0,011	0,083
-353,781	-200,000	0,045	-0,181
-352,766	-108,614	-0,135	-0,021
-351,752	37,468	-0,061	-0,040
-350,737	-195,610	-0,030	-0,000
-349,723	-200,000	0,002	0,017
-348,708	800,000	0,050	-0,150
-347,693	-31,582	0,082	0,034
-346,679	-200,000	0,028	0,111
-345,664	305,974	0,089	-0,122
-344,650	-108,584	0,060	0,009
-343,635	-1,969	0,133	0,068
-342,620	-200,000	-0,012	0,076
-341,606	227,582	0,081	-0,096
-340,591	98,206	-0,086	0,073
-339,577	-93,448	-0,078	-0,016
-338,562	800,000	0,027	0,069
-337,548	-44,783	0,109	-0,040
-336,533	-200,000	0,005	0,029
-335,518	-42,358	-0,044	-0,017
-334,504	146,383	-0,043	0,042
-333,489	-0,290	-0,191	0,099
-332,475	92,098	-0,100	0,083
-331,460	301,222	0,054	-0,074
-330,445	-200,000	0,055	-0,229
-329,431	164,552	0,074	-0,077
-328,416	800,000	0,023	-0,065
-327,402	800,000	0,013	-0,042
-326,387	-83,929	0,078	0,018
-325,372	-84,395	-0,057	-0,013
-324,358	92,933	-0,113	-0,094
-323,343	739,244	0,061	0,122
-322,329	275,698	0,027	0,036
-321,314	-200,000	0,002	0,070
-320,299	171,156	-0,109	0,115
-319,285	134,755	0,141	0,135
-318,270	172,531	-0,096	-0,102
-317,256	-200,000	0,016	-0,102
-316,241	-80,390	-0,067	-0,016
-315,226	-141,992	-0,041	-0,003
-314,212	-29,570	0,077	-0,032
-313,197	800,000	0,058	-0,123
-312,183	331,463	0,038	-0,054
-311,168	800,000	0,028	-0,091
-310,153	147,653	-0,026	-0,026
-309,139	270,011	-0,061	0,078
-308,124	-33,281	0,120	0,048
-307,110	275,274	0,019	-0,025
-306,095	-62,841	0,003	0,001
-305,080	174,835	0,079	0,084
-304,066	-200,000	-0,025	0,099
-303,051	394,408	0,049	0,075
-302,037	-200,000	-0,000	0,045
-301,022	-47,790	-0,076	0,027
-300,008	-200,000	0,021	-0,086
-298,993	-102,754	-0,046	0,008
-297,978	267,005	0,078	0,100
-296,964	-121,147	-0,022	0,003
-295,949	166,430	0,074	-0,077
-294,935	-200,000	-0,029	-0,152
-293,920	117,596	-0,075	0,068
-292,905	-30,253	0,062	-0,026
-291,891	-17,136	0,037	0,017
-290,876	-82,787	0,026	0,006
-289,862	49,006	-0,041	-0,028
-288,847	-27,326	-0,053	0,023
-287,832	800,000	-0,031	-0,067
-286,818	-35,971	-0,119	-0,047
-285,803	-51,434	0,067	0,023
-284,789	-200,000	0,057	0,237
-283,774	43,100	0,156	0,104
-282,759	81,015	0,069	0,054
-281,745	655,462	-0,075	-0,141
-280,730	139,704	0,029	0,028
-279,716	-200,000	0,010	0,079
-278,701	-200,000	-0,020	0,093
-277,686	800,000	0,020	0,047
-276,672	-200,000	0,026	-0,093
-275,657	-127,912	-0,074	-0,008
-274,643	-69,761	0,083	-0,023
-273,628	-43,068	-0,155	-0,057
-272,613	-200,000	-0,046	-0,155
-271,599	800,000	0,035	-0,107
-270,584	800,000	0,050	0,129
-269,570	-200,000	0,007	0,076
-268,555	-94,006	-0,121	-0,024
-267,540	800,000	-0,037	-0,113
-266,526	329,810	0,053	-0,075
-265,511	32,335	0,044	0,028
-264,497	94,589	-0,067	-0,056
-263,482	647,503	-0,030	-0,057
-262,467	107,334	0,049	0,042
-261,453	207,863	0,055	0,063
-260,438	369,330	-0,075	-0,112
-259,424	426,112	-0,040	-0,064
-258,409	-102,644	0,068	-0,012
-257,395	-110,028	0,139	0,021
-256,380	20,484	-0,046	0,027
-255,365	259,579	-0,027	-0,035
-254,351	800,000	0,050	-0,123
-253,336	-62,252	-0,134	-0,041
-252,322	-163,236	0,111	-0,004
-251,307	-200,000	-0,049	0,168
-250,292	-200,000	0,010	0,040
-249,278	-111,744	0,149	-0,022
-248,263	92,157	0,108	0,089
-247,249	-200,000	0,003	0,015
-246,234	553,419	-0,081	0,143
-245,219	579,720	-0,032	-0,058
-244,205	-115,116	-0,029	-0,004
-243,190	-115,686	-0,081	0,011
-242,176	800,000	0,018	0,042
-241,161	349,262	-0,065	0,094
-240,146	800,000	0,043	0,090
-239,132	-200,000	0,008	-0,035
-238,117	199,068	-0,045	-0,050
-237,103	96,278	-0,051	-0,043
-236,088	115,207	-0,081	0,072
-235,073	-200,000	-0,015	0,140
-234,059	93,158	0,064	0,053
-233,044	-200,000	-0,002	-0,032
-232,030	38,519	-0,112	0,073
-231,015	-200,000	-0,014	0,053
-230,000	221,872	0,067	0,079
-228,986	425,448	-0,044	-0,069
-227,971	-18,573	0,172	-0,078
-226,957	-102,179	-0,083	0,015
-225,942	800,000	0,023	0,059
-224,927	-200,000	0,016	-0,078
-223,913	-200,000	-0,025	0,102
-222,898	360,773	0,060	0,088
-221,884	433,209	-0,049	-0,078
-220,869	175,881	0,054	-0,058
-219,855	800,000	0,013	0,033
-218,840	257,091	0,091	0,114
-217,825	800,000	0,058	0,124
-216,811	-117,316	-0,093	-0,012
-215,796	136,242	0,063	-0,060
-214,782	283,381	-0,061	0,080
-213,767	342,724	-0,012	0,017
-212,752	121,160	0,061	0,055
-211,738	-200,000	-0,000	-0,106
-210,723	-200,000	0,008	0,039
-209,709	195,571	-0,063	0,070
-208,694	-200,000	0,008	-0,042
-207,679	523,337	-0,097	-0,167
-206,665	53,849	-0,058	0,041
-205,650	-200,000	-0,013	-0,092
-204,636	-10,429	-0,061	-0,030
-203,621	-200,000	0,037	-0,158
-202,606	-164,482	0,121	0,004
-201,592	-200,000	0,019	-0,075
-200,577	222,210	-0,050	-0,058
-199,563	800,000	0,043	-0,088
-198,548	-200,000	-0,009	-0,048
-197,533	69,802	0,048	0,036
-196,519	-200,000	-0,017	-0,154
-195,504	-38,179	0,018	0,007
-194,490	800,000	-0,019	-0,050
-193,475	-200,000	-0,008	-0,068
-192,460	377,176	0,001	0,002
-191,446	113,002	0,066	0,058
-190,431	-32,393	0,084	-0,034
-189,417	244,723	-0,128	0,157
-188,402	150,484	-0,121	0,120
-187,387	513,270	-0,063	0,108
-186,373	800,000	0,010	-0,033
-185,358	-200,000	0,009	-0,088
-184,344	-200,000	0,007	-0,057
-183,329	90,291	-0,079	0,065
-182,315	125,536	0,057	0,053
-181,300	86,831	0,048	-0,039
-180,285	-200,000	-0,003	0,061
-179,271	800,000	-0,034	-0,077
-178,256	244,741	0,049	-0,060
-177,242	51,052	0,060	0,041
-176,227	-138,572	0,054	0,004
-175,212	-45,914	-0,125	-0,045
-174,198	353,468	0,063	0,092
-173,183	134,726	0,032	0,030
-172,169	800,000	0,058	-0,120
-171,154	-155,889	0,105	-0,005
-170,139	-99,593	-0,145	-0,026
-169,125	-200,000	-0,004	-0,038
-168,110	-200,000	0,030	0,110
-167,096	800,000	0,052	0,106
-166,081	-200,000	0,001	-0,172
-165,066	441,388	0,056	0,089
-164,052	643,881	0,046	-0,085
-163,037	-200,000	0,009	-0,063
-162,023	800,000	0,025	-0,056
-161,008	-200,000	0,018	0,061
-159,993	52,937	-0,127	0,089
-158,979	23,956	0,024	0,015
-157,964	-70,646	-0,060	0,016
-156,950	-114,275	-0,071	-0,010
-155,935	274,273	-0,057	0,073
-154,920	-200,000	-0,018	-0,071
-153,906	-200,000	-0,006	0,207
-152,891	37,665	0,055	0,036
-151,877	241,651	-0,055	0,067
-150,862	800,000	-0,019	-0,052
-149,847	800,000	-0,050	-0,135
-148,833	4,589	0,048	-0,026
-147,818	232,673	0,021	-0,025
-146,804	-74,889	0,079	0,020
-145,789	-86,321	-0,113	-0,025
-144,775	-200,000	-0,014	0,066
-143,760	-200,000	0,017	0,070
-142,745	-105,574	-0,093	-0,015
-141,731	77,006	0,082	0,063
-140,716	-200,000	-0,002	0,171
-139,702	-171,156	0,101	-0,002
-138,687	-46,492	-0,069	0,024
-137,672	-200,000	0,024	-0,095
-136,658	457,035	-0,057	0,092
-135,643	-121,793	-0,078	-0,009
-134,629	7,966	0,156	0,085
-133,614	175,999	-0,017	0,018
-132,599	644,506	-0,026	-0,048
-131,585	18,182	-0,081	-0,047
-130,570	800,000	-0,018	-0,043
-129,556	800,000	-0,055	-0,113
-128,541	-200,000	-0,032	-0,133
-127,526	111,549	-0,070	0,062
-126,512	-110,665	0,201	0,030
-125,497	-49,750	0,088	0,030
-124,483	18,072	0,049	-0,028
-123,468	-146,344	-0,134	0,008
-122,453	-38,189	-0,139	0,053
-121,439	800,000	-0,020	-0,041
-120,424	-103,936	-0,094	-0,016
-119,410	-200,000	0,004	0,088
-118,395	117,599	-0,045	-0,040
-117,380	-89,362	-0,028	-0,006
-116,366	274,406	-0,090	-0,117
-115,351	135,056	0,145	-0,137
-114,337	28,378	-0,038	0,023
-113,322	-44,946	-0,123	-0,044
-112,307	105,956	0,040	0,034
-111,293	-200,000	0,011	-0,044
-110,278	-200,000	0,000	0,065
-109,264	800,000	0,024	0,061
-108,249	-200,000	-0,031	-0,178
-107,234	107,400	-0,112	-0,097
-106,220	225,990	0,008	0,009
-105,205	370,168	-0,014	0,020
-104,191	189,210	-0,084	0,092
-103,176	-200,000	0,029	0,240
-102,162	748,239	-0,043	-0,084
-101,147	-52,053	-0,061	-0,021
-100,132	-25,366	-0,046	0,020
-99,118	-200,000	0,009	-0,126
-98,103	-31,679	-0,026	0,010
-97,089	800,000	-0,017	0,041
-96,074	243,401	0,035	0,043
-95,059	267,699	0,052	0,066
-94,045	-200,000	-0,010	-0,080
-93,030	53,487	-0,067	-0,047
-92,016	-91,625	-0,068	0,014
-91,001	395,282	0,031	0,048
-89,986	-200,000	0,028	0,124
-88,972	800,000	-0,013	0,028
-87,957	-5,641	-0,055	0,027
-86,943	77,190	-0,104	-0,081
-85,928	30,420	-0,043	0,027
-84,913	30,648	-0,100	-0,062
-83,899	-98,500	-0,194	-0,036
-82,884	94,683	0,092	0,076
-81,870	-101,097	0,014	-0,002
-80,855	254,406	0,044	-0,055
-79,840	107,329	-0,026	-0,022
-78,826	800,000	0,030	0,076
-77,811	-169,045	-0,148	-0,004
-76,797	42,771	-0,063	0,042
-75,782	-200,000	0,038	0,186
-74,767	-79,883	0,105	-0,025
-73,753	-47,825	0,111	-0,039
-72,738	154,201	0,006	0,006
-71,724	-53,721	0,052	0,017
-70,709	-200,000	-0,020	-0,173
-69,694	-200,000	-0,029	-0,128
-68,680	535,901	-0,029	0,050
-67,665	254,239	0,080	0,100
-66,651	800,000	-0,047	-0,122
-65,636	139,242	0,030	0,029
-64,622	-32,469	-0,063	0,026
-63,607	312,909	-0,052	-0,072
-62,592	-92,219	0,036	0,007
-61,578	500,780	-0,038	0,063
-60,563	104,990	-0,050	0,043
-59,549	-200,000	0,025	0,152
-58,534	-130,955	-1,288	-0,123
-57,519	444,836	-0,839	-1,342
-56,505	-200,000	-0,812	-4,472
-55,490	115,885	0,577	-0,512
-54,476	800,000	5,063	11,941
-53,461	-200,000	13,506	252,774
-52,446	-200,000	689,093	2261,019
-51,432	592,649	1622,401	2920,251
-50,417	119,682	1635,455	1470,290
-49,403	73,402	1289,390	978,211
-48,388	38,106	1024,380	660,010
-47,373	24,406	981,991	587,641
-46,359	23,622	971,627	578,842
-45,344	22,633	967,375	573,056
-44,330	22,554	965,968	571,943
-43,315	22,421	964,543	570,643
-42,300	22,407	963,529	569,972
-41,286	22,433	962,561	569,462
-40,271	22,375	961,630	568,700
-39,257	22,444	960,633	568,312
-38,242	22,406	959,661	567,592
-37,227	22,426	958,716	567,075
-36,213	22,320	958,118	566,357
-35,198	22,398	956,987	565,916
-34,184	22,412	956,359	565,567
-33,169	22,426	955,652	565,175
-32,154	22,484	954,679	564,764
-31,140	22,442	953,599	563,966
-30,125	22,521	952,780	563,712
-29,111	22,450	952,296	563,176
-28,096	22,455	951,505	562,704
-27,082	22,430	950,779	562,171
-26,067	22,469	950,026	561,829
-25,052	22,404	949,307	561,171
-24,038	22,453	948,738	560,969
-23,023	22,385	948,262	560,448
-22,009	22,519	947,313	560,294
-20,994	22,494	946,729	559,848
-19,979	22,540	946,135	559,620
-18,965	22,425	945,666	558,954
-17,950	22,455	944,946	558,600
-16,936	22,417	944,375	558,122
-15,921	22,411	943,383	557,493
-14,906	22,320	942,875	556,881
-13,892	22,378	942,175	556,629
-12,877	22,255	941,674	555,920
-11,863	22,271	940,976	555,537
-10,848	22,323	940,309	555,286
-9,833	22,477	939,749	555,424
-8,819	22,453	939,218	555,010
-7,804	22,358	938,588	554,314
-6,790	22,341	938,125	553,965
-5,775	22,423	937,344	553,744
-4,760	22,350	936,874	553,213
-3,746	22,338	936,273	552,799
-2,731	22,262	935,454	552,052
-1,717	22,187	934,822	551,420
-0,702	22,128	934,334	550,924
0,313	21,965	933,429	550,708
1,327	24,917	931,599	558,863
2,342	34,463	796,186	503,064
3,356	32,379	451,440	282,074
4,371	1,697	293,179	152,633
5,386	-2,719	274,109	138,522
6,400	-4,159	268,112	134,146
7,415	-4,613	265,797	132,560
8,429	-4,408	264,677	132,176
9,444	-4,476	263,862	131,696
10,459	-4,402	263,014	131,328
11,473	-4,557	262,642	130,990
12,488	-4,647	262,193	130,673
13,502	-4,644	261,381	130,260
14,517	-4,694	261,196	130,111
15,531	-4,630	260,795	129,957
16,546	-4,553	260,364	129,800
17,561	-4,520	259,979	129,626
18,575	-4,593	259,566	129,343
19,590	-4,850	259,400	129,019
20,604	-4,553	259,011	129,079
21,619	-4,542	258,611	128,878
22,634	-4,511	258,338	128,758
23,648	-4,573	257,909	128,478
24,663	-4,664	257,866	128,364
25,677	-4,579	257,582	128,287
26,692	-4,712	257,400	128,067
27,707	-4,727	257,078	127,881
28,721	-4,829	256,725	127,605
29,736	-4,745	256,683	127,647
30,750	-4,700	256,309	127,489
31,765	-4,663	256,023	127,368
32,780	-4,770	255,748	127,125
33,794	-4,673	255,469	127,061
34,809	-4,588	255,302	127,041
35,823	-4,727	255,068	126,792
36,838	-4,829	254,814	126,564
37,853	-4,755	254,724	126,573
38,867	-4,703	254,365	126,429
39,882	-4,798	254,332	126,318
40,896	-4,801	254,011	126,145
41,911	-4,881	253,812	125,965
42,926	-4,714	253,515	125,952
43,940	-4,789	253,320	125,778
44,955	-4,778	252,996	125,616
45,969	-5,115	252,909	125,268
46,984	-5,266	252,525	124,936
47,999	-5,405	252,344	124,714
49,013	-5,439	252,073	124,540
50,028	-5,540	251,890	124,351
51,042	-5,685	251,485	124,014
52,057	-5,543	251,369	124,068
53,071	-5,626	250,983	123,795
54,086	-5,576	251,159	123,915
55,101	-5,246	250,743	123,983
56,115	-5,074	250,659	124,078
57,130	-4,762	250,638	124,325
58,144	-4,381	250,354	124,502
59,159	-4,549	250,217	124,278
60,174	-4,348	250,006	124,335
61,188	-4,632	249,769	123,963
62,203	-4,589	249,606	123,907
63,217	-4,588	249,436	123,812
64,232	-4,701	249,154	123,564
65,247	-4,562	248,964	123,578
66,261	-4,699	248,771	123,355
67,276	-4,889	248,522	123,058
68,290	-5,142	248,353	122,747
69,305	-4,981	248,043	122,720
70,320	-5,066	247,850	122,541
71,334	-5,000	247,865	122,594
72,349	-4,558	247,646	122,851
73,363	-4,596	247,393	122,682
74,378	-4,494	247,105	122,614
75,393	-4,629	246,972	122,423
76,407	-4,541	246,635	122,320
77,422	-4,735	246,652	122,153
78,436	-4,554	246,380	122,160
79,451	-4,696	246,079	121,881
80,466	-4,828	245,929	121,684
81,480	-4,860	245,603	121,485
82,495	-4,722	245,438	121,509
83,509	-4,815	245,374	121,387
84,524	-4,959	245,125	121,133
85,539	-5,085	244,929	120,919
86,553	-5,048	244,629	120,791
87,568	-4,999	244,618	120,816
88,582	-5,031	244,377	120,660
89,597	-4,937	244,170	120,626
90,611	-4,944	244,170	120,609
91,626	-4,532	243,865	120,792
92,641	-4,581	243,634	120,626
93,655	-4,702	243,576	120,485
94,670	-5,004	243,344	120,107
95,684	-4,841	243,129	120,127
96,699	-4,828	242,958	120,043
97,714	-5,070	242,812	119,759
98,728	-4,946	242,432	119,663
99,743	-5,189	242,327	119,399
100,757	-5,350	242,195	119,190
101,772	-5,065	241,923	119,281
102,787	-4,984	241,808	119,281
103,801	-4,968	241,604	119,183
104,816	-4,932	241,530	119,166
105,830	-4,655	241,516	119,377
106,845	-4,673	241,263	119,227
107,860	-4,835	241,140	119,022
108,874	-4,722	240,729	118,901
109,889	-4,928	240,571	118,643
110,903	-4,776	240,320	118,634
111,918	-4,932	240,239	118,455
112,933	-4,763	240,066	118,497
113,947	-4,837	240,017	118,403
114,962	-4,648	239,742	118,411
115,976	-4,643	239,611	118,340
116,991	-4,689	239,433	118,203
118,006	-4,788	239,104	117,950
119,020	-4,728	239,072	117,973
120,035	-4,668	238,965	117,959
121,049	-4,665	239,018	117,977
122,064	-4,784	238,717	117,720
123,079	-5,027	238,574	117,441
124,093	-4,918	238,226	117,348
125,108	-4,833	237,909	117,250
126,122	-5,192	237,766	116,878
127,137	-5,263	237,606	116,731
128,151	-5,156	237,535	116,773
129,166	-5,231	237,368	116,619
130,181	-5,175	237,095	116,520
131,195	-5,124	237,057	116,532
132,210	-4,927	236,887	116,597
133,224	-4,784	236,554	116,539
134,239	-4,771	236,478	116,502
135,254	-4,619	236,336	116,544
136,268	-4,969	236,140	116,155
137,283	-5,139	235,866	115,873
138,297	-5,203	235,585	115,673
139,312	-5,383	235,524	115,487
140,327	-4,948	235,499	115,815
141,341	-4,454	235,276	116,092
142,356	-4,237	235,263	116,249
143,370	-4,460	235,280	116,068
144,385	-4,161	234,797	116,059
145,400	-4,459	234,806	115,814
146,414	-4,341	234,618	115,806
147,429	-4,436	234,329	115,577
148,443	-4,606	234,173	115,353
149,458	-4,416	233,984	115,402
150,473	-4,542	233,898	115,249
151,487	-4,494	233,701	115,180
152,502	-4,323	233,376	115,145
153,516	-4,326	233,279	115,085
154,531	-4,333	233,333	115,096
155,546	-4,455	232,983	114,816
156,560	-4,475	232,767	114,683
157,575	-4,722	232,692	114,440
158,589	-4,641	232,538	114,418
159,604	-4,338	232,368	114,565
160,619	-4,372	232,175	114,433
161,633	-4,389	232,157	114,400
162,648	-4,427	232,017	114,290
163,662	-4,451	231,846	114,177
164,677	-4,598	231,701	113,980
165,692	-4,380	231,476	114,030
166,706	-4,286	231,323	114,019
167,721	-4,112	231,223	114,096
168,735	-4,098	231,033	114,003
169,750	-4,135	230,784	113,842
170,764	-4,441	230,791	113,595
171,779	-4,271	230,653	113,650
172,794	-4,242	230,471	113,572
173,808	-4,442	230,206	113,276
174,823	-4,797	229,769	112,773
175,837	-5,188	229,646	112,396
176,852	-4,776	229,696	112,733
177,867	-4,260	229,697	113,126
178,881	-4,475	229,393	112,800
179,896	-4,126	229,372	113,051
180,910	-4,417	229,266	112,762
181,925	-4,310	229,122	112,764
182,940	-4,266	228,809	112,634
183,954	-4,267	228,782	112,610
184,969	-4,265	228,626	112,525
185,983	-4,125	228,492	112,558
186,998	-4,266	228,444	112,415
188,013	-3,912	228,090	112,505
189,027	-4,223	228,046	112,232
190,042	-4,051	227,783	112,226
191,056	-4,169	227,628	112,048
192,071	-4,325	227,526	111,868
193,086	-4,162	227,285	111,865
194,100	-4,334	227,301	111,730
195,115	-4,797	226,965	111,198
196,129	-5,362	226,718	110,632
197,144	-2,705	227,373	112,992
198,159	1,226	228,507	116,588
199,173	3,825	229,230	118,961
200,188	4,497	228,989	119,344
201,202	4,360	228,969	119,217
202,217	4,348	228,987	119,207
203,232	4,546	228,874	119,290
204,246	4,724	228,726	119,340
205,261	4,923	228,456	119,341
206,275	4,909	228,438	119,310
207,290	4,962	228,315	119,277
208,304	5,132	228,112	119,291
209,319	5,110	227,988	119,199
210,334	4,805	227,817	118,864
211,348	4,633	227,508	118,560
212,363	4,280	227,223	118,131
213,377	4,020	227,000	117,806
214,392	3,873	226,816	117,587
215,407	4,051	226,788	117,698
216,421	4,025	226,701	117,623
217,436	4,076	226,535	117,565
218,450	3,664	226,309	117,123
219,465	3,905	225,980	117,125
220,480	3,721	225,904	116,936
221,494	3,802	225,809	116,938
222,509	4,094	225,715	117,101
223,523	4,006	225,599	116,964
224,538	4,100	225,373	116,907
225,553	3,884	225,297	116,694
226,567	4,180	225,135	116,823
227,582	4,128	225,136	116,774
228,596	4,476	224,920	116,915
229,611	4,149	224,633	116,508
230,626	3,932	224,494	116,261
231,640	3,981	224,414	116,247
232,655	4,037	224,408	116,276
233,669	4,449	224,298	116,519
234,684	4,685	224,172	116,622
235,699	4,593	223,957	116,430
236,713	4,225	223,795	116,058
237,728	4,024	223,638	115,816
238,742	3,949	223,307	115,577
239,757	4,009	223,202	115,558
240,772	3,883	223,123	115,412
241,786	3,866	222,812	115,228
242,801	4,238	222,844	115,513
243,815	4,201	222,838	115,472
244,830	4,525	222,610	115,586
245,844	4,012	222,482	115,126
246,859	4,242	222,302	115,194
247,874	4,410	222,089	115,198
248,888	4,255	222,094	115,075
249,903	4,261	221,796	114,915
250,917	3,931	221,656	114,586
251,932	3,841	221,614	114,487
252,947	4,119	221,336	114,540
253,961	4,147	221,201	114,481
254,976	4,016	221,027	114,284
255,990	4,144	220,822	114,263
257,005	4,445	220,870	114,500
258,020	4,390	220,753	114,388
259,034	4,570	220,720	114,495
260,049	4,630	220,461	114,395
261,063	4,201	220,350	114,009
262,078	4,438	220,163	114,078
263,093	4,263	220,169	113,941
264,107	4,365	219,952	113,894
265,122	4,078	219,877	113,633
266,136	4,595	219,826	113,978
267,151	4,616	219,422	113,774
268,166	4,234	219,198	113,367
269,180	4,015	219,024	113,106
270,195	3,995	218,871	113,002
271,209	3,892	218,746	112,852
272,224	3,967	218,683	112,864
273,239	4,072	218,665	112,922
274,253	4,171	218,426	112,862
275,268	3,898	218,203	112,536
276,282	3,671	218,017	112,264
277,297	3,875	217,851	112,318
278,312	3,786	217,771	112,201
279,326	3,962	217,710	112,288
280,341	3,883	217,609	112,169
281,355	4,046	217,452	112,197
282,370	3,901	217,265	111,985
283,384	3,688	217,147	111,758
284,399	3,666	216,831	111,570
285,414	3,697	216,891	111,613
286,428	3,942	216,851	111,761
287,443	4,049	216,741	111,772
288,457	3,897	216,601	111,579
289,472	3,812	216,449	111,430
290,487	3,591	216,102	111,081
291,501	3,694	215,993	111,089
292,516	3,930	215,829	111,166
293,530	3,902	215,734	111,087
294,545	3,723	215,590	110,873
295,560	3,944	215,478	110,965
296,574	3,990	215,410	110,954
297,589	3,950	215,276	110,846
298,603	4,091	215,116	110,856
299,618	3,978	215,117	110,764
300,633	4,035	214,767	110,616
301,647	4,064	214,821	110,655
302,662	4,311	214,627	110,721
303,676	4,116	214,479	110,496
304,691	4,261	214,242	110,468
305,706	4,192	214,194	110,384
306,720	4,369	214,095	110,449
307,735	4,380	213,798	110,294
308,749	3,920	213,668	109,888
309,764	4,176	213,621	110,037
310,779	4,255	213,554	110,049
311,793	4,172	213,372	109,887
312,808	4,126	213,245	109,779
313,822	4,172	213,019	109,686
314,837	3,931	212,949	109,468
315,852	3,998	212,733	109,395
316,866	4,054	212,515	109,313
317,881	4,130	212,571	109,386
318,895	4,115	212,527	109,342
319,910	4,148	212,155	109,165
320,925	3,822	211,989	108,839
321,939	3,517	211,660	108,445
322,954	3,727	211,716	108,613
323,968	4,039	211,675	108,803
324,983	4,157	211,576	108,825
325,997	4,248	211,444	108,811
327,012	4,067	211,217	108,558
328,027	4,034	211,132	108,481
329,041	4,454	211,186	108,795
330,056	4,490	210,998	108,714
331,070	4,269	210,741	108,417
332,085	3,780	210,518	107,948
333,100	3,793	210,421	107,898
334,114	4,037	210,372	108,034
335,129	4,108	210,148	107,959
336,143	3,970	209,954	107,754
337,158	3,790	209,883	107,582
338,173	3,904	209,697	107,556
339,187	3,831	209,649	107,471
340,202	3,828	209,523	107,395
341,216	3,749	209,301	107,217
342,231	3,987	209,124	107,282
343,246	3,630	209,118	107,021
344,260	3,846	208,944	107,072
345,275	4,074	208,803	107,150
346,289	4,298	208,796	107,292
347,304	4,218	208,641	107,148
348,319	3,965	208,532	106,906
349,333	4,059	208,348	106,867
350,348	4,134	208,234	106,851
351,362	4,288	208,150	106,906
352,377	4,323	207,978	106,832
353,392	4,091	207,828	106,585
354,406	4,173	207,823	106,630
355,421	193,929	1342,518	1431,061
356,435	154,728	1480,877	1431,179
