DTS Sentinel unit serial number:	SN410029Multiplexer serial number:	ORYXHardware model number:	OX2-SRSoftware version number:	ORYX F/W v4,00 Oryx Data Collector v3.7.2.0data status	okinstallation	B6 Nyhavnadifferential loss correction	single-endedforward channel	channel 2reverse channel	N/Adate	2023/12/09time	05:30:08forward acquisition time	300,00reverse acquisition time	0,00gamma	499,1914k internal	0,3143k external	0,3143temperature offset calibration	1,0000default loss term (dB/km)	0,3820temperature slope calibration	1,0000multiplexer offset coefficient	1,0000multiplexer slope coefficient	1,0000fibre end	0,00T internal ref (°C)	17,93T ext. ref 1 (°C)	2,26T ext. ref 2 (°C)	2,28length (m)	temperature (°C)	Stokes	anti-Stokes-744,400	-200,000	0,030	-0,243
-743,385	-115,982	-0,239	-0,033
-742,371	-82,700	0,196	0,047
-741,356	-82,514	-0,178	0,042
-740,342	-20,177	0,144	0,065
-739,327	-93,657	-0,269	0,055
-738,312	-200,000	0,008	0,041
-737,298	-71,397	-0,314	0,087
-736,283	109,473	0,089	0,079
-735,269	-140,292	-0,213	-0,016
-734,254	154,730	0,035	0,036
-733,239	-49,211	-0,580	-0,204
-732,225	-153,402	0,111	0,006
-731,210	-200,000	0,024	0,112
-730,196	-200,000	0,076	0,000
-729,181	-73,147	0,049	0,013
-728,167	629,783	-0,002	-0,005
-727,152	800,000	0,042	-0,087
-726,137	144,898	-0,021	0,020
-725,123	-200,000	0,007	-0,076
-724,108	-61,361	-0,186	0,057
-723,094	34,511	0,013	-0,008
-722,079	241,004	0,054	-0,067
-721,064	-200,000	-0,001	0,018
-720,050	-200,000	-0,002	-0,036
-719,035	80,527	-0,040	-0,032
-718,021	143,856	-0,090	-0,089
-717,006	47,466	0,014	0,009
-715,991	206,732	0,163	-0,189
-714,977	37,665	-0,141	-0,093
-713,962	-21,316	-0,033	0,015
-712,948	-200,000	0,014	0,112
-711,933	239,988	-0,018	-0,023
-710,918	-191,283	-0,093	0,001
-709,904	184,172	-0,052	-0,057
-708,889	-20,454	0,069	-0,031
-707,875	6,099	-0,099	-0,054
-706,860	25,685	-0,113	-0,070
-705,845	30,960	0,031	0,020
-704,831	800,000	0,045	0,117
-703,816	-40,052	0,148	0,057
-702,802	800,000	0,031	-0,082
-701,787	-124,427	-0,124	-0,014
-700,772	-200,000	-0,004	-0,063
-699,758	44,250	0,076	0,052
-698,743	800,000	-0,033	0,070
-697,729	-25,019	-0,222	-0,097
-696,714	17,686	0,049	-0,028
-695,699	60,003	-0,201	-0,147
-694,685	697,033	0,031	-0,061
-693,670	95,342	-0,059	-0,050
-692,656	148,027	0,035	-0,035
-691,641	625,972	0,027	0,050
-690,627	-8,672	0,045	0,022
-689,612	562,260	-0,063	0,114
-688,597	-49,434	0,083	0,029
-687,583	-87,345	-0,069	0,015
-686,568	539,821	-0,039	-0,069
-685,554	-200,000	0,029	-0,114
-684,539	800,000	0,020	-0,059
-683,524	65,936	0,029	-0,022
-682,510	-178,636	-0,167	-0,003
-681,495	-200,000	0,005	-0,026
-680,481	800,000	-0,041	-0,130
-679,466	555,924	-0,083	-0,148
-678,451	-200,000	-0,013	0,097
-677,437	156,255	-0,049	-0,050
-676,422	-16,005	-0,092	-0,043
-675,408	113,789	-0,054	0,048
-674,393	323,078	-0,076	0,107
-673,378	-94,000	-0,063	-0,013
-672,364	-103,138	-0,049	0,008
-671,349	67,137	-0,042	-0,031
-670,335	220,201	0,066	0,078
-669,320	-200,000	0,015	0,138
-668,305	73,347	0,056	0,044
-667,291	127,153	-0,032	-0,030
-666,276	-200,000	0,028	-0,139
-665,262	122,987	-0,033	0,030
-664,247	-200,000	-0,012	-0,137
-663,232	726,773	0,074	-0,146
-662,218	800,000	-0,047	0,142
-661,203	800,000	-0,014	-0,028
-660,189	160,280	0,078	0,080
-659,174	800,000	0,060	-0,151
-658,159	-61,017	-0,188	0,058
-657,145	-8,651	-0,060	-0,029
-656,130	-44,345	0,088	-0,032
-655,116	478,336	0,091	-0,152
-654,101	-43,986	-0,037	0,014
-653,086	6,725	0,019	0,010
-652,072	-47,042	-0,111	-0,040
-651,057	8,359	0,062	0,034
-650,043	137,055	-0,029	0,028
-649,028	130,441	-0,084	-0,079
-648,014	63,303	0,130	0,096
-646,999	-200,000	-0,034	0,151
-645,984	73,202	-0,049	-0,037
-644,970	74,797	-0,042	0,033
-643,955	-200,000	0,051	-0,172
-642,941	-132,751	-0,068	-0,006
-641,926	-53,508	0,119	0,040
-640,911	63,511	0,091	-0,067
-639,897	-49,099	-0,064	0,022
-638,882	-200,000	0,007	0,090
-637,868	611,662	-0,045	0,084
-636,853	-68,323	-0,181	-0,051
-635,838	631,810	-0,011	-0,021
-634,824	-200,000	0,012	0,138
-633,809	-200,000	-0,006	-0,042
-632,795	-200,000	0,003	-0,060
-631,780	-166,825	0,074	0,002
-630,765	-39,348	-0,161	-0,062
-629,751	646,328	-0,047	-0,088
-628,736	-100,491	-0,209	-0,038
-627,722	-200,000	0,010	-0,092
-626,707	97,280	0,044	0,037
-625,692	-52,682	0,171	-0,058
-624,678	71,749	-0,090	0,069
-623,663	118,278	-0,129	-0,117
-622,649	83,083	-0,058	0,047
-621,634	800,000	0,043	-0,101
-620,619	800,000	-0,041	0,114
-619,605	-200,000	-0,012	0,084
-618,590	480,888	0,093	0,155
-617,576	800,000	-0,037	0,087
-616,561	85,949	0,030	0,024
-615,546	184,223	-0,039	-0,042
-614,532	142,014	-0,082	-0,080
-613,517	419,462	-0,047	0,074
-612,503	-162,042	0,050	0,002
-611,488	-61,960	0,172	0,053
-610,474	-25,914	-0,086	-0,037
-609,459	-75,572	-0,029	0,007
-608,444	373,793	-0,074	0,111
-607,430	749,986	-0,064	-0,127
-606,415	-200,000	-0,011	0,140
-605,401	218,943	-0,055	0,065
-604,386	41,845	-0,048	-0,032
-603,371	-4,099	0,058	0,029
-602,357	23,128	-0,180	-0,109
-601,342	-46,387	0,036	0,013
-600,328	204,384	-0,077	-0,088
-599,313	-200,000	-0,001	-0,163
-598,298	800,000	0,018	-0,054
-597,284	184,541	-0,065	-0,071
-596,269	260,494	-0,064	0,081
-595,255	-200,000	0,006	0,078
-594,240	172,295	-0,072	-0,076
-593,225	-73,622	-0,121	0,032
-592,211	-200,000	-0,044	-0,176
-591,196	200,295	0,112	-0,127
-590,182	-200,000	-0,016	-0,095
-589,167	114,879	0,049	-0,044
-588,152	129,161	-0,032	-0,030
-587,138	151,517	-0,054	0,054
-586,123	800,000	-0,035	-0,097
-585,109	178,152	-0,029	-0,031
-584,094	43,735	-0,038	0,025
-583,079	-29,143	0,134	0,056
-582,065	8,577	0,063	0,035
-581,050	82,975	-0,076	0,061
-580,036	-115,203	-0,052	-0,007
-579,021	-200,000	-0,021	0,072
-578,006	-200,000	-0,017	0,092
-576,992	-27,375	-0,058	0,025
-575,977	-200,000	-0,005	-0,026
-574,963	800,000	-0,027	0,078
-573,948	-200,000	0,010	0,123
-572,934	-200,000	-0,031	0,184
-571,919	-10,092	-0,054	0,026
-570,904	-200,000	0,015	0,076
-569,890	-12,583	-0,084	-0,040
-568,875	232,019	-0,067	0,082
-567,861	57,044	-0,129	0,092
-566,846	800,000	-0,025	0,062
-565,831	146,678	0,041	-0,041
-564,817	142,757	-0,059	-0,058
-563,802	80,235	0,068	-0,054
-562,788	-200,000	-0,005	0,065
-561,773	193,870	0,090	-0,100
-560,758	525,105	0,015	-0,027
-559,744	451,630	0,026	-0,042
-558,729	-106,087	-0,039	-0,006
-557,715	264,118	0,050	-0,065
-556,700	256,504	-0,127	-0,161
-555,685	190,843	0,056	-0,062
-554,671	-27,602	0,026	0,011
-553,656	800,000	-0,024	0,057
-552,642	-82,722	-0,050	-0,012
-551,627	800,000	0,043	-0,137
-550,612	-8,956	0,079	0,039
-549,598	-144,676	0,024	0,002
-548,583	-100,335	-0,051	-0,009
-547,569	-200,000	0,000	0,102
-546,554	137,446	-0,075	0,072
-545,539	-169,971	0,101	-0,003
-544,525	224,259	-0,134	-0,160
-543,510	517,429	-0,031	0,054
-542,496	-95,061	0,073	-0,014
-541,481	-200,000	-0,036	-0,273
-540,466	72,626	0,052	-0,039
-539,452	800,000	-0,046	-0,098
-538,437	236,259	0,049	0,060
-537,423	-40,827	-0,041	-0,015
-536,408	-200,000	-0,025	0,092
-535,393	-51,574	0,018	0,006
-534,379	319,702	-0,053	0,074
-533,364	39,713	0,067	-0,044
-532,350	1,982	0,071	0,037
-531,335	-200,000	0,036	0,126
-530,321	-200,000	-0,030	0,166
-529,306	27,956	0,015	-0,009
-528,291	308,356	-0,069	0,095
-527,277	-200,000	0,024	-0,145
-526,262	-19,391	0,065	-0,030
-525,248	257,887	0,023	-0,029
-524,233	-51,641	-0,032	-0,011
-523,218	437,771	0,108	-0,174
-522,204	580,546	-0,050	0,091
-521,189	-171,762	-0,142	0,003
-520,175	617,237	-0,084	-0,156
-519,160	-200,000	0,005	-0,103
-518,145	146,008	-0,059	-0,058
-517,131	142,201	0,064	-0,063
-516,116	101,050	-0,030	-0,025
-515,102	-200,000	-0,017	0,090
-514,087	-28,780	0,020	-0,008
-513,072	-200,000	-0,002	0,057
-512,058	-52,957	-0,062	-0,021
-511,043	59,331	-0,042	-0,031
-510,029	144,464	0,073	0,072
-509,014	-200,000	0,016	-0,068
-507,999	324,302	-0,030	0,042
-506,985	96,641	-0,073	-0,061
-505,970	-200,000	-0,025	-0,088
-504,956	800,000	0,027	0,055
-503,941	-200,000	0,004	0,073
-502,926	-155,857	0,047	-0,002
-501,912	-22,530	0,063	0,028
-500,897	51,285	-0,125	-0,087
-499,883	-13,925	0,020	-0,009
-498,868	-200,000	-0,003	-0,075
-497,853	119,557	0,112	-0,102
-496,839	176,143	0,032	0,034
-495,824	28,847	0,090	-0,056
-494,810	800,000	-0,048	-0,116
-493,795	40,823	-0,160	0,106
-492,781	48,489	-0,071	0,049
-491,766	85,007	-0,112	-0,090
-490,751	-138,984	-0,023	0,002
-489,737	-72,981	0,096	0,026
-488,722	-200,000	0,002	0,012
-487,708	324,245	-0,076	0,106
-486,693	300,324	-0,060	0,081
-485,678	54,660	0,014	-0,010
-484,664	53,675	0,074	0,052
-483,649	41,729	0,191	0,127
-482,635	-200,000	0,007	-0,089
-481,620	432,484	0,090	-0,143
-480,605	-173,589	-0,115	-0,002
-479,591	685,430	0,058	0,112
-478,576	55,196	0,063	0,044
-477,562	30,883	-0,080	-0,050
-476,547	254,641	0,086	0,108
-475,532	800,000	-0,041	0,100
-474,518	380,175	-0,039	0,059
-473,503	424,321	-0,027	0,042
-472,489	-200,000	-0,010	0,042
-471,474	-120,830	-0,048	-0,006
-470,459	-110,677	-0,051	0,008
-469,445	126,166	0,081	-0,075
-468,430	-40,767	0,029	0,011
-467,416	-54,724	0,055	-0,018
-466,401	-200,000	-0,011	0,072
-465,386	92,184	0,067	0,056
-464,372	498,566	-0,013	-0,021
-463,357	115,245	0,039	-0,035
-462,343	-78,884	0,071	0,018
-461,328	-200,000	0,007	-0,134
-460,313	-200,000	-0,006	-0,042
-459,299	-200,000	0,009	0,074
-458,284	182,449	0,034	0,037
-457,270	800,000	-0,005	0,011
-456,255	571,240	0,040	0,071
-455,241	247,425	-0,057	0,070
-454,226	45,537	0,058	-0,039
-453,211	-150,564	0,074	-0,004
-452,197	175,049	0,084	0,089
-451,182	163,874	-0,043	0,045
-450,168	242,684	-0,039	0,048
-449,153	26,249	0,105	-0,064
-448,138	91,727	-0,066	-0,054
-447,124	-200,000	-0,021	-0,073
-446,109	800,000	-0,040	-0,083
-445,095	140,615	0,075	-0,073
-444,080	800,000	0,037	0,104
-443,065	-98,639	-0,086	-0,016
-442,051	247,162	0,055	-0,068
-441,036	-101,415	-0,138	0,024
-440,022	-75,400	0,057	0,015
-439,007	742,103	0,039	0,077
-437,992	-119,913	0,023	0,003
-436,978	-200,000	-0,020	0,064
-435,963	254,555	0,063	0,079
-434,949	-118,537	-0,048	-0,006
-433,934	37,426	0,090	-0,058
-432,919	-200,000	0,011	0,040
-431,905	-81,695	0,019	0,004
-430,890	-200,000	0,045	0,165
-429,876	199,536	-0,137	0,154
-428,861	31,903	-0,002	0,001
-427,846	-133,127	0,152	-0,014
-426,832	800,000	0,034	0,089
-425,817	800,000	-0,020	0,046
-424,803	-200,000	-0,012	-0,052
-423,788	-200,000	-0,030	0,099
-422,773	-27,203	-0,111	0,047
-421,759	-200,000	-0,021	-0,142
-420,744	-106,911	-0,025	-0,004
-419,730	-200,000	-0,006	-0,213
-418,715	-200,000	-0,023	-0,134
-417,701	-200,000	0,035	0,121
-416,686	800,000	0,046	-0,112
-415,671	-98,284	0,062	-0,011
-414,657	800,000	0,028	0,072
-413,642	20,784	-0,079	0,047
-412,628	-200,000	-0,006	0,074
-411,613	-125,717	-0,149	0,016
-410,598	666,574	-0,060	-0,114
-409,584	37,020	-0,058	-0,037
-408,569	-200,000	0,132	0,000
-407,555	-107,412	0,179	0,028
-406,540	160,128	0,072	-0,074
-405,525	800,000	-0,055	0,152
-404,511	-54,745	-0,040	0,013
-403,496	-200,000	-0,008	-0,030
-402,482	18,719	0,112	0,065
-401,467	515,551	0,050	0,086
-400,452	-30,010	0,035	0,015
-399,438	-110,490	-0,104	-0,016
-398,423	800,000	0,036	-0,076
-397,409	-62,866	0,061	0,018
-396,394	94,696	-0,144	0,120
-395,379	-71,314	0,077	-0,021
-394,365	-200,000	-0,001	0,022
-393,350	-31,468	0,069	0,028
-392,336	63,621	0,118	-0,086
-391,321	-200,000	0,037	-0,123
-390,306	325,447	-0,096	-0,134
-389,292	186,385	-0,056	-0,061
-388,277	-200,000	0,009	0,136
-387,263	393,882	0,101	-0,153
-386,248	-131,450	0,065	0,006
-385,233	146,966	-0,050	0,049
-384,219	-53,579	-0,127	0,042
-383,204	711,196	0,055	-0,106
-382,190	26,527	-0,061	-0,037
-381,175	-200,000	-0,024	-0,105
-380,160	-109,088	0,124	-0,019
-379,146	800,000	-0,041	0,108
-378,131	-16,090	-0,016	-0,008
-377,117	105,490	0,098	-0,084
-376,102	428,841	-0,058	-0,092
-375,088	800,000	0,031	-0,079
-374,073	-49,773	-0,035	0,012
-373,058	800,000	0,049	0,121
-372,044	-184,156	0,021	0,000
-371,029	81,443	-0,074	0,058
-370,015	753,949	-0,059	-0,118
-369,000	-200,000	-0,004	-0,016
-367,985	-200,000	0,012	-0,042
-366,971	32,190	-0,110	-0,069
-365,956	180,426	-0,072	-0,077
-364,942	-67,682	0,036	-0,010
-363,927	-130,892	-0,067	-0,006
-362,912	32,919	0,095	-0,060
-361,898	111,727	-0,058	-0,051
-360,883	-88,729	0,073	-0,016
-359,869	-200,000	-0,031	-0,101
-358,854	-11,020	0,072	0,035
-357,839	-79,565	0,117	0,029
-356,825	42,870	-0,072	0,048
-355,810	206,533	0,045	0,052
-354,796	-127,079	0,156	-0,017
-353,781	-3,916	0,089	0,045
-352,766	-32,317	-0,131	-0,053
-351,752	-200,000	-0,026	0,109
-350,737	-96,994	0,104	-0,020
-349,723	133,716	-0,076	-0,071
-348,708	245,300	0,015	0,019
-347,693	-125,603	0,074	0,008
-346,679	-161,204	-0,087	-0,003
-345,664	800,000	0,009	0,018
-344,650	167,813	-0,068	-0,071
-343,635	800,000	0,015	-0,047
-342,620	455,096	0,035	-0,056
-341,606	800,000	0,027	0,083
-340,591	273,266	-0,089	0,114
-339,577	-36,644	-0,095	-0,037
-338,562	-37,282	-0,118	-0,046
-337,548	800,000	0,042	-0,092
-336,533	-21,415	0,106	-0,047
-335,518	-22,695	-0,090	-0,039
-334,504	-200,000	-0,004	-0,108
-333,489	-200,000	0,002	-0,060
-332,475	175,149	0,026	-0,028
-331,460	-200,000	-0,027	-0,098
-330,445	127,888	-0,080	0,074
-329,431	800,000	-0,023	0,058
-328,416	-90,241	0,148	0,031
-327,402	-200,000	0,004	0,018
-326,387	-41,044	-0,138	0,052
-325,372	206,467	0,032	-0,036
-324,358	140,711	0,062	0,060
-323,343	800,000	0,039	0,101
-322,329	245,289	0,076	0,093
-321,314	182,821	0,093	0,100
-320,299	-200,000	0,005	0,168
-319,285	16,794	-0,131	0,075
-318,270	-63,403	0,149	0,044
-317,256	7,998	-0,177	-0,096
-316,241	-16,375	0,097	-0,045
-315,226	-29,683	0,133	0,055
-314,212	-200,000	-0,006	0,021
-313,197	-125,395	-0,097	-0,011
-312,183	-100,377	0,193	0,035
-311,168	800,000	0,049	0,156
-310,153	-4,115	-0,153	-0,077
-309,139	800,000	0,051	-0,131
-308,124	800,000	0,035	0,092
-307,110	101,058	-0,046	-0,039
-306,095	108,463	0,060	-0,052
-305,080	-106,527	-0,035	-0,006
-304,066	325,901	0,055	-0,077
-303,051	-79,528	-0,015	0,004
-302,037	438,207	-0,050	-0,080
-301,022	104,285	0,040	-0,035
-300,008	23,093	0,194	-0,116
-298,993	429,775	-0,096	-0,152
-297,978	-92,815	-0,037	-0,008
-296,964	30,442	0,039	0,024
-295,949	-111,677	0,112	0,016
-294,935	-105,114	-0,101	-0,017
-293,920	-200,000	-0,012	0,107
-292,905	-121,504	0,084	-0,010
-291,891	718,307	0,027	0,052
-290,876	-200,000	-0,003	0,075
-289,862	66,121	0,089	-0,066
-288,847	-112,565	-0,184	0,026
-287,832	243,977	-0,094	-0,115
-286,818	72,535	-0,065	0,049
-285,803	-1,078	0,154	0,079
-284,789	11,540	0,047	-0,026
-283,774	9,082	-0,064	0,035
-282,759	-40,144	0,110	0,042
-281,745	800,000	0,036	0,076
-280,730	-200,000	0,016	-0,120
-279,716	-200,000	0,019	-0,110
-278,701	97,303	-0,039	0,032
-277,686	-200,000	0,001	-0,098
-276,672	-45,118	0,132	-0,047
-275,657	-121,541	0,052	0,006
-274,643	-0,639	-0,042	0,022
-273,628	217,455	0,043	0,050
-272,613	-79,769	0,087	-0,021
-271,599	-166,061	-0,096	0,003
-270,584	224,207	0,130	0,153
-269,570	800,000	-0,045	0,104
-268,555	800,000	0,033	-0,074
-267,540	-200,000	0,010	-0,158
-266,526	-200,000	-0,014	0,071
-265,511	-85,557	-0,036	-0,008
-264,497	-54,992	-0,111	0,036
-263,482	326,664	-0,019	-0,027
-262,467	45,292	-0,169	-0,113
-261,453	-28,549	-0,077	0,032
-260,438	1,854	-0,027	0,014
-259,424	-22,942	-0,032	0,014
-258,409	-41,730	0,076	0,028
-257,395	0,729	0,064	-0,033
-256,380	-44,854	-0,023	0,008
-255,365	800,000	-0,045	-0,113
-254,351	-200,000	0,006	0,037
-253,336	329,384	0,123	-0,172
-252,322	-88,597	0,133	-0,029
-251,307	143,635	-0,065	-0,063
-250,292	-166,836	0,161	-0,005
-249,278	800,000	-0,060	0,143
-248,263	800,000	-0,036	0,078
-247,249	-200,000	0,002	0,109
-246,234	87,727	-0,034	-0,027
-245,219	144,411	0,103	-0,100
-244,205	-200,000	0,030	0,118
-243,190	174,875	-0,035	-0,037
-242,176	493,894	0,075	0,126
-241,161	377,566	0,052	0,077
-240,146	-200,000	0,004	0,061
-239,132	-106,962	-0,120	0,019
-238,117	-200,000	-0,024	-0,137
-237,103	-200,000	-0,004	-0,018
-236,088	38,858	-0,053	0,034
-235,073	-103,807	0,094	0,016
-234,059	79,661	0,107	0,084
-233,044	-200,000	-0,019	0,075
-232,030	142,572	-0,025	0,025
-231,015	-200,000	-0,007	-0,098
-230,000	106,770	-0,069	-0,060
-228,986	-200,000	-0,006	0,088
-227,971	82,743	0,052	0,041
-226,957	98,788	0,040	-0,033
-225,942	800,000	-0,021	-0,059
-224,927	-83,508	-0,102	0,024
-223,913	-31,857	-0,015	0,006
-222,898	16,498	0,083	0,047
-221,884	-84,812	-0,129	0,029
-220,869	-200,000	-0,006	-0,022
-219,855	-99,991	0,052	0,009
-218,840	212,952	0,030	0,034
-217,825	-124,391	-0,026	0,003
-216,811	349,298	-0,046	0,066
-215,796	800,000	0,024	-0,065
-214,782	-200,000	-0,016	-0,100
-213,767	-165,105	0,095	-0,003
-212,752	652,895	0,045	-0,083
-211,738	-200,000	0,017	0,055
-210,723	-2,361	0,092	0,047
-209,709	71,615	0,097	-0,073
-208,694	-200,000	0,029	0,108
-207,679	252,288	-0,025	-0,031
-206,665	448,921	-0,021	0,034
-205,650	-27,851	0,104	0,043
-204,636	424,159	-0,024	0,037
-203,621	-200,000	-0,002	-0,103
-202,606	399,897	-0,065	-0,099
-201,592	-200,000	0,027	-0,175
-200,577	-133,380	0,034	0,003
-199,563	-12,576	-0,108	-0,051
-198,548	800,000	-0,023	-0,064
-197,533	-200,000	-0,008	0,093
-196,519	-85,367	-0,111	0,025
-195,504	-17,859	0,082	-0,037
-194,490	-106,599	-0,089	-0,014
-193,475	800,000	-0,061	-0,139
-192,460	185,189	0,078	0,084
-191,446	2,065	-0,020	0,010
-190,431	-29,448	0,086	-0,036
-189,417	78,031	-0,087	-0,067
-188,402	800,000	-0,043	0,107
-187,387	122,904	0,032	-0,029
-186,373	-200,000	0,023	-0,118
-185,358	272,104	-0,024	0,030
-184,344	396,292	0,088	0,134
-183,329	216,606	-0,041	-0,048
-182,315	456,002	-0,023	0,036
-181,300	8,073	0,090	0,049
-180,285	-88,481	0,098	0,021
-179,271	413,608	0,038	0,058
-178,256	50,289	-0,075	0,052
-177,242	-200,000	-0,007	0,084
-176,227	24,622	0,005	0,003
-175,212	-88,393	0,136	-0,029
-174,198	396,040	-0,055	0,084
-173,183	603,209	-0,013	-0,023
-172,169	512,767	-0,042	-0,071
-171,154	261,405	-0,054	0,069
-170,139	614,425	0,052	0,094
-169,125	288,033	0,108	0,142
-168,110	-101,562	-0,026	-0,005
-167,096	0,036	-0,033	-0,017
-166,081	-9,867	0,063	0,030
-165,066	238,359	0,024	0,029
-164,052	29,776	0,061	-0,038
-163,037	172,559	-0,088	-0,091
-162,023	434,769	0,072	0,113
-161,008	800,000	0,020	0,056
-159,993	-200,000	0,000	-0,005
-158,979	250,684	0,072	-0,089
-157,964	-21,428	-0,103	0,045
-156,950	28,405	-0,127	-0,078
-155,935	800,000	-0,066	0,206
-154,920	-77,969	0,067	-0,017
-153,906	336,395	0,073	0,103
-152,891	4,437	0,043	0,023
-151,877	82,656	-0,101	-0,079
-150,862	274,340	-0,095	-0,122
-149,847	37,142	-0,209	-0,134
-148,833	258,805	-0,057	-0,071
-147,818	146,769	0,049	0,048
-146,804	-200,000	-0,000	0,048
-145,789	-169,927	0,068	0,002
-144,775	-200,000	0,015	-0,124
-143,760	-139,082	-0,183	0,014
-142,745	800,000	-0,045	-0,121
-141,731	306,514	-0,054	-0,073
-140,716	289,098	0,146	0,191
-139,702	-29,793	0,108	-0,044
-138,687	800,000	0,014	-0,044
-137,672	-13,413	0,052	0,024
-136,658	175,104	-0,072	0,076
-135,643	-200,000	0,025	0,104
-134,629	-200,000	-0,015	-0,089
-133,614	-200,000	-0,008	0,071
-132,599	334,915	-0,035	0,049
-131,585	-200,000	-0,017	0,099
-130,570	100,013	-0,111	0,093
-129,556	-89,399	0,105	0,022
-128,541	-120,687	-0,079	-0,010
-127,526	353,147	-0,054	-0,078
-126,512	86,641	0,030	0,024
-125,497	58,796	0,072	0,051
-124,483	-75,598	-0,036	0,009
-123,468	-200,000	-0,012	0,168
-122,453	-200,000	-0,053	-0,179
-121,439	-200,000	0,014	0,088
-120,424	800,000	0,010	0,032
-119,410	-200,000	-0,038	-0,196
-118,395	-117,718	0,041	-0,005
-117,380	-58,802	0,056	0,017
-116,366	800,000	-0,018	0,047
-115,351	-200,000	0,000	-0,106
-114,337	253,902	-0,032	-0,039
-113,322	-124,465	-0,035	-0,004
-112,307	-200,000	0,016	-0,088
-111,293	-200,000	0,018	-0,061
-110,278	-200,000	0,006	0,134
-109,264	-111,381	0,062	-0,009
-108,249	23,728	0,041	-0,024
-107,234	21,425	-0,075	-0,044
-106,220	20,769	-0,080	-0,047
-105,205	-8,344	0,052	0,025
-104,191	14,468	0,092	-0,052
-103,176	-200,000	-0,037	0,183
-102,162	172,848	0,130	0,135
-101,147	134,493	0,086	0,081
-100,132	-27,498	-0,202	0,084
-99,118	516,221	0,074	-0,125
-98,103	486,057	0,068	0,112
-97,089	-200,000	0,003	0,081
-96,074	-140,798	0,073	0,005
-95,059	633,313	-0,058	0,107
-94,045	-200,000	0,044	0,164
-93,030	-200,000	-0,020	-0,141
-92,016	-119,287	0,042	-0,005
-91,001	-200,000	-0,006	-0,085
-89,986	-200,000	0,016	0,107
-88,972	131,621	0,114	0,106
-87,957	-93,076	-0,076	-0,015
-86,943	800,000	-0,058	0,162
-85,928	-200,000	0,018	-0,104
-84,913	800,000	0,044	0,116
-83,899	800,000	-0,027	-0,060
-82,884	-200,000	0,033	-0,126
-81,870	-162,569	0,086	-0,003
-80,855	200,683	0,036	0,040
-79,840	-200,000	0,021	-0,077
-78,826	206,311	-0,031	-0,035
-77,811	-155,386	-0,027	-0,001
-76,797	117,851	-0,066	-0,059
-75,782	800,000	0,026	0,056
-74,767	171,464	0,044	-0,045
-73,753	-51,705	-0,080	-0,027
-72,738	38,178	0,031	-0,020
-71,724	791,804	0,036	-0,071
-70,709	35,820	-0,016	-0,010
-69,694	-200,000	-0,007	-0,062
-68,680	631,400	-0,024	-0,044
-67,665	-46,951	-0,066	0,023
-66,651	800,000	0,025	-0,053
-65,636	-132,931	0,063	-0,006
-64,622	46,474	-0,085	0,056
-63,607	154,054	-0,035	0,035
-62,592	54,391	0,016	-0,011
-61,578	-200,000	-0,002	0,030
-60,563	433,171	-0,012	-0,018
-59,549	-200,000	0,011	0,102
-58,534	-1,267	-1,730	-0,878
-57,519	800,000	-0,416	-1,164
-56,505	-200,000	-1,125	-4,932
-55,490	-144,249	0,651	0,043
-54,476	800,000	5,309	12,250
-53,461	-200,000	16,283	279,180
-52,446	800,000	707,154	2239,468
-51,432	558,711	1621,781	2833,091
-50,417	122,740	1621,847	1463,051
-49,403	84,147	1283,187	1010,119
-48,388	36,863	1029,022	654,551
-47,373	21,281	991,651	579,232
-46,359	20,026	980,148	568,348
-45,344	18,213	976,036	559,977
-44,330	18,312	974,735	559,533
-43,315	18,055	973,045	557,698
-42,300	17,984	971,977	556,833
-41,286	17,996	970,990	556,285
-40,271	17,973	970,003	555,621
-39,257	17,989	969,325	555,263
-38,242	17,982	968,655	554,836
-37,227	17,980	967,833	554,333
-36,213	17,954	966,822	553,649
-35,198	17,909	965,925	552,965
-34,184	17,972	965,223	552,747
-33,169	17,894	964,265	551,924
-32,154	17,992	963,278	551,656
-31,140	17,992	962,395	551,127
-30,125	17,909	961,890	550,547
-29,111	18,060	960,878	550,434
-28,096	17,978	960,395	549,872
-27,082	17,977	959,576	549,379
-26,067	18,038	958,755	549,082
-25,052	17,938	958,010	548,310
-24,038	17,984	957,236	547,994
-23,023	17,927	956,552	547,397
-22,009	18,008	955,906	547,268
-20,994	18,015	955,217	546,873
-19,979	17,969	954,769	546,447
-18,965	17,979	954,073	546,061
-17,950	17,919	953,592	545,571
-16,936	17,925	952,798	545,114
-15,921	17,849	952,226	544,519
-14,906	17,879	951,474	544,164
-13,892	17,778	950,767	543,416
-12,877	17,865	949,899	543,176
-11,863	17,785	949,482	542,659
-10,848	17,851	948,929	542,533
-9,833	17,954	948,479	542,585
-8,819	17,885	947,931	542,030
-7,804	17,900	947,177	541,623
-6,790	17,827	946,748	541,123
-5,775	17,845	946,183	540,839
-4,760	17,879	945,484	540,523
-3,746	17,893	944,775	540,141
-2,731	17,699	944,210	539,181
-1,717	17,744	943,269	538,765
-0,702	17,609	942,735	538,008
0,313	17,464	942,270	538,096
1,327	20,625	940,524	547,070
2,342	29,756	796,908	487,852
3,356	26,971	449,618	271,046
4,371	-2,603	296,229	148,876
5,386	-6,474	277,708	135,867
6,400	-7,766	271,770	131,744
7,415	-8,183	269,507	130,249
8,429	-8,100	268,226	129,695
9,444	-8,036	267,286	129,289
10,459	-7,968	266,530	128,974
11,473	-8,409	266,062	128,332
12,488	-8,390	265,338	127,989
13,502	-8,472	265,045	127,762
14,517	-8,413	264,372	127,480
15,531	-8,787	264,072	126,984
16,546	-8,524	263,692	127,028
17,561	-8,563	263,254	126,771
18,575	-8,301	262,949	126,848
19,590	-8,663	262,615	126,351
20,604	-8,585	262,292	126,254
21,619	-8,697	261,982	125,993
22,634	-8,724	261,649	125,797
23,648	-8,781	261,368	125,600
24,663	-8,653	260,994	125,523
25,677	-8,709	260,872	125,403
26,692	-8,816	260,676	125,202
27,707	-8,701	260,320	125,122
28,721	-8,896	260,011	124,789
29,736	-8,685	259,596	124,767
30,750	-8,967	259,529	124,473
31,765	-8,835	259,321	124,479
32,780	-8,839	259,017	124,318
33,794	-8,973	258,915	124,139
34,809	-8,867	258,565	124,054
35,823	-8,997	258,300	123,801
36,838	-8,949	258,097	123,735
37,853	-8,831	257,794	123,683
38,867	-9,007	257,589	123,418
39,882	-9,044	257,335	123,253
40,896	-8,785	257,022	123,320
41,911	-9,002	256,798	123,010
42,926	-9,033	256,659	122,906
43,940	-9,188	256,481	122,673
44,955	-9,012	256,140	122,654
45,969	-9,256	256,068	122,395
46,984	-9,285	255,718	122,191
47,999	-9,441	255,449	121,915
49,013	-9,546	255,125	121,658
50,028	-9,670	254,886	121,425
51,042	-9,698	254,485	121,199
52,057	-9,773	254,359	121,062
53,071	-9,897	254,303	120,917
54,086	-9,708	254,118	120,983
55,101	-9,586	253,949	120,997
56,115	-9,211	253,833	121,257
57,130	-8,956	253,902	121,500
58,144	-8,536	253,770	121,791
59,159	-8,387	253,387	121,726
60,174	-8,556	253,167	121,464
61,188	-8,740	253,068	121,246
62,203	-8,661	252,790	121,170
63,217	-8,670	252,479	121,002
64,232	-8,628	252,274	120,929
65,247	-8,415	252,202	121,067
66,261	-8,554	251,799	120,744
67,276	-9,228	251,594	120,055
68,290	-9,246	251,293	119,885
69,305	-9,435	250,931	119,540
70,320	-9,341	250,809	119,552
71,334	-9,042	250,906	119,843
72,349	-8,626	250,777	120,128
73,363	-8,496	250,458	120,076
74,378	-8,644	250,408	119,914
75,393	-8,838	250,158	119,618
76,407	-8,787	249,856	119,507
77,422	-8,807	249,696	119,402
78,436	-8,719	249,504	119,374
79,451	-8,682	249,282	119,289
80,466	-8,788	248,902	119,007
81,480	-9,083	248,621	118,611
82,495	-9,122	248,480	118,501
83,509	-9,047	248,362	118,497
84,524	-9,089	248,148	118,349
85,539	-9,353	247,817	117,957
86,553	-9,300	247,537	117,858
87,568	-9,256	247,635	117,931
88,582	-9,195	247,433	117,876
89,597	-9,196	247,041	117,678
90,611	-8,856	247,066	117,966
91,626	-8,934	247,020	117,868
92,641	-8,993	246,745	117,677
93,655	-8,920	246,583	117,650
94,670	-9,067	246,374	117,417
95,684	-9,083	246,232	117,325
96,699	-8,992	245,880	117,223
97,714	-9,260	245,725	116,914
98,728	-9,238	245,564	116,845
99,743	-9,156	245,214	116,737
100,757	-9,176	245,040	116,627
101,772	-9,139	244,884	116,574
102,787	-9,037	244,876	116,644
103,801	-9,132	244,700	116,470
104,816	-8,919	244,516	116,550
105,830	-8,806	244,478	116,616
106,845	-8,797	244,206	116,484
107,860	-8,795	244,017	116,385
108,874	-8,904	243,606	116,088
109,889	-9,075	243,635	115,949
110,903	-8,715	243,325	116,089
111,918	-8,970	242,992	115,709
112,933	-9,070	243,068	115,653
113,947	-8,886	242,930	115,729
114,962	-8,821	242,764	115,693
115,976	-8,894	242,620	115,554
116,991	-9,008	242,484	115,384
118,006	-8,967	242,183	115,265
119,020	-8,730	241,992	115,359
120,035	-8,933	241,972	115,171
121,049	-8,646	241,542	115,193
122,064	-8,838	241,571	115,039
123,079	-8,879	241,336	114,883
124,093	-8,790	241,114	114,840
125,108	-9,205	240,834	114,357
126,122	-9,396	240,647	114,101
127,137	-9,416	240,518	114,013
128,151	-9,298	240,320	114,006
129,166	-9,220	240,151	113,979
130,181	-9,087	239,866	113,942
131,195	-9,143	239,658	113,787
132,210	-8,936	239,524	113,882
133,224	-8,990	239,479	113,807
134,239	-9,030	239,387	113,720
135,254	-8,748	239,220	113,861
136,268	-8,911	239,012	113,618
137,283	-9,278	238,742	113,182
138,297	-9,346	238,562	113,031
139,312	-9,234	238,335	113,005
140,327	-9,050	238,289	113,121
141,341	-8,479	238,268	113,564
142,356	-8,493	238,144	113,483
143,370	-8,421	237,972	113,450
144,385	-8,310	237,748	113,422
145,400	-8,491	237,659	113,223
146,414	-8,437	237,540	113,201
147,429	-8,592	237,212	112,909
148,443	-8,690	237,247	112,837
149,458	-8,633	236,944	112,729
150,473	-8,502	236,763	112,737
151,487	-8,519	236,465	112,573
152,502	-8,560	236,395	112,496
153,516	-8,238	236,056	112,582
154,531	-8,462	236,025	112,378
155,546	-8,553	235,995	112,281
156,560	-8,780	235,666	111,933
157,575	-8,858	235,449	111,757
158,589	-8,588	235,273	111,879
159,604	-8,471	235,295	111,973
160,619	-8,369	235,134	111,968
161,633	-8,253	234,855	111,918
162,648	-8,301	234,735	111,812
163,662	-8,474	234,536	111,570
164,677	-8,355	234,504	111,639
165,692	-8,340	234,166	111,480
166,706	-8,175	234,124	111,581
167,721	-8,160	233,946	111,499
168,735	-8,301	233,918	111,363
169,750	-8,351	233,822	111,268
170,764	-8,432	233,645	111,110
171,779	-8,401	233,490	111,051
172,794	-8,265	233,240	111,029
173,808	-8,547	233,009	110,686
174,823	-9,197	232,742	110,038
175,837	-9,113	232,469	109,965
176,852	-8,842	232,504	110,186
177,867	-8,420	232,630	110,568
178,881	-8,452	232,340	110,395
179,896	-8,359	232,122	110,354
180,910	-8,070	231,970	110,499
181,925	-8,447	231,892	110,156
182,940	-8,212	231,595	110,190
183,954	-8,098	231,414	110,183
184,969	-8,186	231,425	110,109
185,983	-8,094	231,318	110,121
186,998	-8,177	231,210	109,995
188,013	-8,241	231,030	109,849
189,027	-7,995	230,629	109,841
190,042	-8,227	230,680	109,674
191,056	-8,179	230,543	109,637
192,071	-8,116	230,237	109,530
193,086	-8,036	230,081	109,509
194,100	-7,838	230,065	109,645
195,115	-7,925	229,806	109,444
196,129	-7,839	229,766	109,482
197,144	-4,133	230,964	112,933
198,159	0,388	232,247	117,087
199,173	3,304	233,001	119,739
200,188	3,739	232,968	120,051
201,202	3,803	232,706	119,956
202,217	3,666	232,855	119,915
203,232	3,830	232,670	119,937
204,246	3,992	232,469	119,949
205,261	4,238	232,320	120,052
206,275	4,453	232,199	120,147
207,290	4,080	232,226	119,860
208,304	4,033	232,086	119,741
209,319	4,016	231,906	119,624
210,334	4,086	231,609	119,514
211,348	3,924	231,393	119,267
212,363	3,439	231,106	118,733
213,377	3,293	230,990	118,549
214,392	3,292	230,766	118,423
215,407	3,290	230,674	118,363
216,421	3,471	230,509	118,408
217,436	3,237	230,341	118,131
218,450	2,987	230,044	117,775
219,465	3,084	229,831	117,730
220,480	3,071	229,823	117,706
221,494	3,213	229,753	117,769
222,509	3,306	229,617	117,760
223,523	3,263	229,516	117,664
224,538	3,152	229,241	117,428
225,553	3,218	229,165	117,429
226,567	3,399	229,093	117,520
227,582	3,643	228,907	117,602
228,596	3,560	228,818	117,482
229,611	3,257	228,641	117,148
230,626	3,119	228,305	116,860
231,640	3,056	228,327	116,813
232,655	3,343	228,251	116,983
233,669	3,815	228,122	117,267
234,684	4,198	228,036	117,504
235,699	3,546	227,886	116,920
236,713	3,480	227,651	116,738
237,728	3,372	227,422	116,528
238,742	3,064	227,186	116,163
239,757	3,125	227,144	116,177
240,772	3,285	226,798	116,111
241,786	3,220	226,687	115,995
242,801	3,552	226,740	116,263
243,815	3,735	226,419	116,226
244,830	3,590	226,490	116,144
245,844	3,416	226,151	115,828
246,859	3,332	226,056	115,705
247,874	3,634	225,922	115,854
248,888	3,734	225,879	115,897
249,903	3,522	225,579	115,573
250,917	3,367	225,540	115,426
251,932	3,413	225,193	115,273
252,947	3,126	225,102	115,000
253,961	3,225	224,955	114,989
254,976	3,554	224,839	115,166
255,990	3,594	224,793	115,163
257,005	3,513	224,619	115,003
258,020	3,448	224,668	114,969
259,034	3,866	224,365	115,116
260,049	3,739	224,399	115,028
261,063	3,610	224,080	114,758
262,078	3,603	223,876	114,639
263,093	3,720	223,868	114,712
264,107	3,567	223,719	114,511
265,122	3,579	223,559	114,427
266,136	3,754	223,522	114,529
267,151	3,913	223,202	114,473
268,166	3,569	222,943	114,074
269,180	3,200	222,742	113,687
270,195	3,228	222,598	113,624
271,209	3,050	222,695	113,531
272,224	3,424	222,529	113,714
273,239	3,384	222,242	113,527
274,253	3,182	222,336	113,416
275,268	3,169	221,961	113,205
276,282	2,924	221,826	112,945
277,297	3,214	221,566	113,017
278,312	3,180	221,518	112,957
279,326	3,354	221,455	113,043
280,341	3,146	221,337	112,819
281,355	3,278	221,239	112,856
282,370	3,209	220,947	112,646
283,384	2,872	220,755	112,290
284,399	2,824	220,595	112,164
285,414	2,984	220,501	112,224
286,428	3,318	220,334	112,374
287,443	3,561	220,344	112,547
288,457	3,337	220,165	112,282
289,472	3,415	219,913	112,200
290,487	3,009	219,765	111,818
291,501	2,848	219,576	111,594
292,516	2,970	219,536	111,653
293,530	3,018	219,401	111,609
294,545	2,914	219,385	111,515
295,560	3,199	219,126	111,582
296,574	3,144	219,013	111,474
297,589	3,259	218,863	111,472
298,603	3,456	218,829	111,588
299,618	3,335	218,646	111,397
300,633	3,355	218,564	111,359
301,647	3,483	218,542	111,431
302,662	3,408	218,304	111,245
303,676	3,486	218,056	111,166
304,691	3,540	218,116	111,226
305,706	3,527	217,811	111,051
306,720	3,491	217,711	110,964
307,735	3,216	217,445	110,619
308,749	3,077	217,291	110,431
309,764	3,447	217,285	110,685
310,779	3,571	217,307	110,775
311,793	3,531	217,065	110,614
312,808	3,447	216,763	110,390
313,822	3,443	216,689	110,339
314,837	3,591	216,509	110,344
315,852	2,990	216,436	109,865
316,866	3,331	216,124	109,942
317,881	3,109	216,036	109,727
318,895	3,109	215,943	109,671
319,910	3,667	215,790	109,983
320,925	3,243	215,677	109,612
321,939	2,971	215,543	109,339
322,954	3,214	215,417	109,439
323,968	3,397	215,450	109,577
324,983	3,358	215,216	109,421
325,997	3,386	215,143	109,394
327,012	3,310	214,995	109,254
328,027	3,311	214,793	109,143
329,041	3,699	214,820	109,424
330,056	3,840	214,628	109,417
331,070	3,200	214,331	108,801
332,085	3,093	214,074	108,584
333,100	3,216	214,029	108,639
334,114	3,571	213,945	108,838
335,129	3,547	213,767	108,721
336,143	3,302	213,618	108,462
337,158	3,223	213,578	108,376
338,173	3,425	213,238	108,337
339,187	3,193	213,088	108,087
340,202	3,195	212,983	108,026
341,216	2,942	212,808	107,749
342,231	3,250	212,697	107,900
343,246	3,092	212,734	107,798
344,260	3,047	212,672	107,725
345,275	3,440	212,406	107,857
346,289	3,281	212,453	107,760
347,304	3,473	212,163	107,738
348,319	3,390	212,044	107,610
349,333	3,329	211,942	107,506
350,348	3,540	211,771	107,557
351,362	3,629	211,651	107,549
352,377	3,330	211,682	107,346
353,392	3,457	211,308	107,235
354,406	3,219	211,405	107,108
355,421	195,730	1340,549	1425,691
356,435	156,359	1478,142	1425,730
