DTS Sentinel unit serial number:	SN410029Multiplexer serial number:	ORYXHardware model number:	OX2-SRSoftware version number:	ORYX F/W v4,00 Oryx Data Collector v3.7.2.0data status	okinstallation	B6 Nyhavnadifferential loss correction	single-endedforward channel	channel 2reverse channel	N/Adate	2023/12/11time	00:40:08forward acquisition time	300,00reverse acquisition time	0,00gamma	499,1914k internal	0,3122k external	0,3122temperature offset calibration	1,0000default loss term (dB/km)	0,3820temperature slope calibration	1,0000multiplexer offset coefficient	1,0000multiplexer slope coefficient	1,0000fibre end	0,00T internal ref (°C)	22,31T ext. ref 1 (°C)	5,71T ext. ref 2 (°C)	5,74length (m)	temperature (°C)	Stokes	anti-Stokes-744,400	55,429	-0,064	0,046
-743,385	6,789	-0,104	-0,058
-742,371	-71,269	0,110	0,030
-741,356	221,093	-0,164	0,196
-740,342	-27,303	0,154	0,067
-739,327	65,863	-0,286	0,216
-738,312	410,804	0,039	-0,062
-737,298	155,082	-0,166	0,170
-736,283	49,013	0,072	0,050
-735,269	178,759	-0,127	0,139
-734,254	800,000	-0,027	-0,080
-733,239	-34,533	-0,469	-0,191
-732,225	-59,400	0,169	-0,054
-731,210	-61,573	0,046	0,014
-730,196	380,671	0,080	-0,123
-729,181	307,922	0,070	-0,098
-728,167	-200,000	0,001	-0,037
-727,152	164,294	-0,069	-0,073
-726,137	-200,000	0,001	-0,027
-725,123	800,000	-0,036	-0,109
-724,108	-92,203	-0,125	0,026
-723,094	-81,578	-0,065	-0,016
-722,079	22,095	-0,098	-0,059
-721,064	275,466	0,020	-0,027
-720,050	16,335	0,060	0,035
-719,035	-27,923	0,015	-0,006
-718,021	192,123	0,055	-0,062
-717,006	425,286	-0,124	-0,199
-715,991	-200,000	0,028	-0,092
-714,977	800,000	-0,025	0,074
-713,962	500,479	0,022	-0,038
-712,948	-36,530	-0,027	0,011
-711,933	800,000	-0,036	-0,103
-710,918	800,000	0,042	-0,098
-709,904	800,000	0,014	-0,030
-708,889	500,449	0,044	-0,077
-707,875	80,355	-0,088	-0,070
-706,860	227,013	-0,101	-0,122
-705,845	800,000	-0,060	-0,148
-704,831	142,877	0,042	0,042
-703,816	-154,917	-0,044	0,002
-702,802	102,253	0,065	0,057
-701,787	800,000	-0,079	-0,235
-700,772	-74,856	-0,024	0,006
-699,758	104,937	0,087	-0,076
-698,743	-24,423	0,086	-0,038
-697,729	-84,900	-0,111	-0,026
-696,714	-200,000	-0,012	-0,053
-695,699	-78,507	0,108	0,027
-694,685	-200,000	-0,004	-0,095
-693,670	568,528	0,029	-0,052
-692,656	162,663	-0,045	-0,047
-691,641	322,739	-0,039	0,055
-690,627	-157,921	-0,071	0,003
-689,612	318,091	0,037	-0,052
-688,597	-200,000	-0,007	0,048
-687,583	500,919	-0,018	-0,032
-686,568	-180,791	-0,215	-0,003
-685,554	132,020	0,030	0,029
-684,539	-200,000	0,001	0,061
-683,524	-200,000	0,032	0,107
-682,510	-95,730	0,106	0,021
-681,495	296,521	0,030	-0,042
-680,481	-200,000	-0,011	0,079
-679,466	-200,000	-0,012	-0,214
-678,451	-200,000	0,005	-0,107
-677,437	-104,594	-0,061	0,010
-676,422	800,000	0,017	0,039
-675,408	114,759	0,045	-0,041
-674,393	308,051	-0,058	-0,081
-673,378	-200,000	-0,008	-0,066
-672,364	800,000	-0,011	-0,034
-671,349	-32,693	-0,135	0,055
-670,335	36,770	0,011	-0,007
-669,320	46,668	0,133	0,091
-668,305	-102,573	0,098	-0,017
-667,291	-157,798	-0,118	-0,005
-666,276	24,707	0,083	-0,051
-665,262	239,641	-0,104	-0,129
-664,247	-82,590	-0,127	0,030
-663,232	239,583	-0,004	-0,005
-662,218	63,659	-0,119	0,089
-661,203	-4,613	-0,066	0,034
-660,189	-53,422	-0,104	-0,035
-659,174	-87,208	-0,088	0,020
-658,159	800,000	-0,041	-0,088
-657,145	-112,500	-0,112	-0,016
-656,130	290,379	-0,029	-0,039
-655,116	81,487	-0,033	0,027
-654,101	198,442	-0,097	0,111
-653,086	-34,850	0,086	-0,035
-652,072	-200,000	0,008	0,076
-651,057	-200,000	0,027	-0,089
-650,043	216,571	-0,096	-0,114
-649,028	-200,000	0,022	-0,097
-648,014	-26,372	0,052	0,022
-646,999	-27,196	-0,040	-0,017
-645,984	-5,970	-0,098	0,050
-644,970	800,000	0,023	0,054
-643,955	140,618	0,075	-0,074
-642,941	279,931	0,049	0,065
-641,926	800,000	-0,061	-0,173
-640,911	67,031	-0,015	0,012
-639,897	-87,340	0,088	0,020
-638,882	222,312	-0,066	0,079
-637,868	142,008	0,080	-0,079
-636,853	119,322	-0,150	-0,138
-635,838	-200,000	-0,006	-0,036
-634,824	344,703	0,017	0,024
-633,809	-200,000	-0,008	0,030
-632,795	-58,909	-0,069	-0,022
-631,780	800,000	-0,012	-0,035
-630,765	20,468	-0,092	-0,055
-629,751	800,000	-0,043	-0,109
-628,736	150,296	-0,048	-0,049
-627,722	-200,000	-0,027	-0,131
-626,707	366,082	-0,047	0,070
-625,692	-133,673	-0,010	0,001
-624,678	-200,000	-0,009	0,082
-623,663	217,420	-0,060	0,071
-622,649	158,391	-0,045	-0,046
-621,634	672,203	0,096	-0,186
-620,619	-200,000	-0,026	0,174
-619,605	436,194	0,031	-0,050
-618,590	-200,000	0,056	-0,222
-617,576	-22,594	-0,033	0,015
-616,561	75,279	-0,023	0,018
-615,546	604,979	-0,042	0,077
-614,532	167,141	-0,103	-0,109
-613,517	276,769	0,064	-0,085
-612,503	-134,497	-0,176	-0,016
-611,488	-152,485	0,065	0,003
-610,474	188,014	0,132	0,147
-609,459	-200,000	-0,020	0,087
-608,444	663,909	-0,046	-0,088
-607,430	-42,346	-0,096	0,036
-606,415	424,707	-0,099	-0,158
-605,401	84,455	0,124	0,101
-604,386	-49,466	0,027	0,010
-603,371	-120,181	-0,041	-0,005
-602,357	-200,000	-0,001	0,058
-601,342	-6,324	-0,093	-0,047
-600,328	-71,243	-0,081	-0,022
-599,313	515,029	0,038	0,067
-598,298	-200,000	0,004	0,041
-597,284	800,000	0,052	0,119
-596,269	125,202	0,061	0,057
-595,255	-54,338	-0,164	-0,055
-594,240	-69,599	-0,052	-0,015
-593,225	-200,000	-0,008	-0,166
-592,211	-105,573	0,076	0,013
-591,196	423,972	-0,066	-0,106
-590,182	149,979	-0,059	0,059
-589,167	110,568	-0,115	0,103
-588,152	-200,000	-0,005	-0,042
-587,138	132,457	-0,027	0,026
-586,123	247,680	-0,068	0,086
-585,109	235,186	0,053	-0,065
-584,094	-138,001	-0,077	-0,006
-583,079	315,766	-0,066	0,092
-582,065	-113,908	0,159	0,023
-581,050	800,000	0,026	0,076
-580,036	-118,124	-0,079	0,010
-579,021	170,458	0,072	-0,076
-578,006	216,918	-0,085	-0,100
-576,992	-200,000	-0,003	-0,025
-575,977	214,719	0,042	-0,050
-574,963	15,188	0,103	-0,060
-573,948	228,986	-0,053	0,065
-572,934	-200,000	0,007	-0,076
-571,919	800,000	-0,023	-0,051
-570,904	-29,411	-0,071	0,030
-569,890	-200,000	0,013	-0,163
-568,875	264,752	-0,073	-0,094
-567,861	85,359	0,104	-0,085
-566,846	-91,291	-0,103	0,022
-565,831	800,000	-0,068	0,155
-564,817	-25,562	0,115	0,050
-563,802	-49,162	0,066	-0,023
-562,788	800,000	-0,033	0,083
-561,773	-200,000	0,000	-0,062
-560,758	-200,000	-0,008	0,154
-559,744	-44,732	0,170	0,063
-558,729	-143,605	-0,032	0,002
-557,715	-22,655	-0,099	-0,044
-556,700	-78,487	-0,019	-0,005
-555,685	212,696	0,042	-0,049
-554,671	-200,000	0,029	0,135
-553,656	800,000	-0,022	0,059
-552,642	-200,000	-0,028	0,099
-551,627	-200,000	0,013	0,105
-550,612	173,733	-0,054	0,058
-549,598	800,000	0,045	-0,138
-548,583	-200,000	-0,159	0,000
-547,569	297,818	-0,019	-0,026
-546,554	36,569	0,045	-0,029
-545,539	-20,393	-0,069	0,031
-544,525	189,279	0,083	-0,092
-543,510	-113,440	-0,071	0,010
-542,496	800,000	0,049	-0,123
-541,481	-200,000	-0,008	-0,107
-540,466	-200,000	-0,003	-0,116
-539,452	209,848	0,072	0,084
-538,437	800,000	0,030	-0,094
-537,423	90,664	0,052	-0,043
-536,408	-107,170	-0,133	-0,021
-535,393	-200,000	-0,003	-0,058
-534,379	-118,384	-0,042	0,005
-533,364	-44,818	-0,057	-0,021
-532,350	800,000	-0,058	0,164
-531,335	800,000	0,042	0,092
-530,321	-200,000	-0,004	0,046
-529,306	-200,000	0,032	-0,210
-528,291	46,810	0,022	-0,015
-527,277	-200,000	-0,020	-0,080
-526,262	800,000	-0,018	-0,042
-525,248	148,613	-0,063	-0,063
-524,233	800,000	0,013	0,043
-523,218	375,655	0,053	0,080
-522,204	800,000	0,015	-0,047
-521,189	606,908	-0,046	-0,084
-520,175	-200,000	0,011	-0,079
-519,160	298,576	0,054	-0,074
-518,145	-200,000	-0,007	-0,079
-517,131	800,000	-0,043	-0,094
-516,116	-133,186	0,072	-0,007
-515,102	152,789	-0,087	-0,088
-514,087	-140,285	0,069	0,005
-513,072	-129,711	-0,107	-0,011
-512,058	-200,000	-0,008	0,033
-511,043	800,000	-0,082	0,181
-510,029	189,077	0,063	0,070
-509,014	-200,000	-0,020	0,089
-507,999	30,634	0,053	0,034
-506,985	-113,373	-0,046	0,007
-505,970	-200,000	-0,006	-0,025
-504,956	-200,000	0,006	-0,035
-503,941	-200,000	0,006	-0,095
-502,926	38,630	0,060	0,039
-501,912	90,968	0,045	0,037
-500,897	657,219	0,030	-0,057
-499,883	346,725	0,013	-0,019
-498,868	253,792	-0,032	-0,041
-497,853	-200,000	-0,009	-0,122
-496,839	-47,048	0,143	-0,051
-495,824	-74,154	-0,034	-0,009
-494,810	800,000	0,048	0,144
-493,795	800,000	0,096	0,199
-492,781	-52,381	-0,170	0,058
-491,766	-99,236	-0,074	-0,014
-490,751	-99,134	-0,254	-0,047
-489,737	43,272	-0,070	0,047
-488,722	800,000	0,018	0,042
-487,708	-200,000	0,030	-0,120
-486,693	239,695	0,050	0,062
-485,678	-138,891	-0,126	0,010
-484,664	-112,598	-0,119	-0,017
-483,649	-156,564	-0,085	0,004
-482,635	-76,755	0,076	0,020
-481,620	30,385	-0,096	0,060
-480,605	69,614	0,208	0,158
-479,591	800,000	0,026	0,062
-478,576	-87,157	-0,046	-0,010
-477,562	800,000	0,018	-0,059
-476,547	-63,205	-0,207	-0,063
-475,532	-83,680	-0,012	0,003
-474,518	68,894	0,075	0,057
-473,503	223,278	0,059	0,071
-472,489	-59,345	-0,040	-0,013
-471,474	-200,000	0,003	-0,099
-470,459	-200,000	-0,025	-0,089
-469,445	21,166	-0,072	-0,043
-468,430	69,775	0,068	-0,052
-467,416	352,097	0,022	0,032
-466,401	-101,858	0,061	-0,011
-465,386	112,736	0,077	-0,069
-464,372	134,958	0,019	-0,018
-463,357	800,000	-0,040	-0,103
-462,343	-200,000	-0,018	-0,065
-461,328	-200,000	0,016	0,165
-460,313	-200,000	-0,007	0,130
-459,299	-76,332	0,069	0,018
-458,284	-113,353	-0,074	0,011
-457,270	10,826	0,106	0,060
-456,255	-139,330	0,006	-0,000
-455,241	-200,000	-0,029	-0,139
-454,226	-200,000	0,182	-0,000
-453,211	121,408	0,090	-0,083
-452,197	431,532	-0,062	0,099
-451,182	800,000	0,083	0,174
-450,168	-200,000	-0,035	0,149
-449,153	-26,999	-0,125	0,053
-448,138	45,777	-0,116	0,079
-447,124	20,544	-0,069	-0,041
-446,109	-127,215	-0,116	0,012
-445,095	800,000	0,016	0,035
-444,080	47,804	0,098	0,067
-443,065	-200,000	-0,004	0,096
-442,051	-200,000	-0,013	-0,087
-441,036	68,020	-0,099	-0,074
-440,022	-32,270	-0,056	0,023
-439,007	800,000	-0,055	0,148
-437,992	-148,985	0,112	0,007
-436,978	-200,000	-0,024	0,140
-435,963	-200,000	-0,042	0,152
-434,949	-150,828	-0,035	0,002
-433,934	215,277	-0,100	-0,118
-432,919	-200,000	0,034	-0,160
-431,905	-200,000	0,001	0,108
-430,890	-200,000	0,025	-0,106
-429,876	-102,100	0,022	0,004
-428,861	-64,437	0,015	0,004
-427,846	-34,614	0,139	-0,056
-426,832	705,172	-0,054	-0,105
-425,817	131,269	-0,117	-0,111
-424,803	800,000	-0,025	-0,063
-423,788	-200,000	0,005	0,026
-422,773	88,842	0,048	0,039
-421,759	800,000	0,040	0,082
-420,744	152,506	0,072	0,073
-419,730	575,466	-0,067	-0,121
-418,715	324,854	-0,073	-0,103
-417,701	-192,399	-0,133	-0,001
-416,686	-152,357	0,194	0,010
-415,671	-200,000	-0,002	-0,084
-414,657	467,026	-0,059	0,097
-413,642	113,685	0,087	0,077
-412,628	573,879	-0,016	0,028
-411,613	800,000	-0,019	0,045
-410,598	800,000	-0,012	-0,037
-409,584	-112,630	0,075	-0,011
-408,569	223,183	0,069	0,082
-407,555	800,000	0,009	0,028
-406,540	-200,000	0,018	0,096
-405,525	67,387	-0,073	-0,055
-404,511	393,123	0,039	0,060
-403,496	-200,000	0,007	-0,042
-402,482	601,483	0,060	-0,110
-401,467	-200,000	-0,034	0,117
-400,452	-200,000	0,040	0,137
-399,438	514,037	0,042	0,073
-398,423	800,000	0,021	0,048
-397,409	6,395	-0,053	-0,029
-396,394	235,066	-0,034	0,042
-395,379	-19,958	0,036	-0,016
-394,365	337,472	0,035	0,050
-393,350	-200,000	0,004	-0,100
-392,336	800,000	-0,043	-0,095
-391,321	734,181	0,033	-0,066
-390,306	-164,177	-0,161	0,005
-389,292	-200,000	0,011	-0,049
-388,277	204,503	-0,077	-0,088
-387,263	-9,426	0,173	0,085
-386,248	-132,181	-0,099	-0,009
-385,233	-200,000	0,004	0,076
-384,219	800,000	-0,051	0,104
-383,204	300,862	-0,048	-0,066
-382,190	-200,000	0,025	-0,110
-381,175	593,514	0,041	0,076
-380,160	-200,000	-0,026	-0,149
-379,146	-150,053	0,070	-0,004
-378,131	-178,294	0,100	0,002
-377,117	-200,000	0,022	0,110
-376,102	81,318	-0,082	0,065
-375,088	-139,724	-0,097	-0,007
-374,073	-58,336	0,103	0,033
-373,058	-86,525	0,096	-0,021
-372,044	93,270	0,112	-0,093
-371,029	800,000	0,031	-0,097
-370,015	800,000	0,034	0,076
-369,000	345,962	0,048	-0,070
-367,985	800,000	-0,041	-0,109
-366,971	-200,000	-0,010	0,120
-365,956	800,000	0,016	0,036
-364,942	-200,000	-0,002	-0,074
-363,927	-200,000	-0,015	0,053
-362,912	800,000	0,025	-0,066
-361,898	-25,144	-0,160	0,069
-360,883	-174,396	-0,087	0,002
-359,869	-200,000	0,002	0,035
-358,854	93,821	-0,034	0,028
-357,839	-200,000	-0,041	0,178
-356,825	-200,000	-0,003	0,071
-355,810	-200,000	0,001	-0,064
-354,796	312,165	-0,029	0,040
-353,781	-118,176	-0,045	-0,006
-352,766	-16,841	-0,029	-0,013
-351,752	-200,000	0,003	0,084
-350,737	162,340	0,019	0,019
-349,723	-200,000	0,000	-0,053
-348,708	46,088	0,177	0,120
-347,693	27,759	-0,056	0,034
-346,679	152,501	0,058	-0,058
-345,664	242,121	-0,029	-0,036
-344,650	-106,173	0,050	-0,008
-343,635	50,518	0,051	0,036
-342,620	133,150	0,098	0,093
-341,606	408,384	-0,057	-0,088
-340,591	-200,000	0,020	-0,073
-339,577	-139,930	0,018	0,001
-338,562	-200,000	0,001	-0,024
-337,548	-200,000	0,031	-0,152
-336,533	16,137	0,106	0,061
-335,518	-107,737	0,081	-0,013
-334,504	371,661	0,044	-0,066
-333,489	416,848	0,007	-0,012
-332,475	-38,645	-0,179	-0,069
-331,460	-200,000	-0,011	-0,035
-330,445	-153,538	-0,077	0,004
-329,431	104,387	-0,076	-0,066
-328,416	416,461	0,050	-0,078
-327,402	155,943	0,081	-0,082
-326,387	273,959	-0,056	-0,072
-325,372	12,586	0,046	0,026
-324,358	9,645	0,139	-0,077
-323,343	800,000	-0,010	-0,025
-322,329	-145,711	-0,061	-0,004
-321,314	-20,450	0,037	-0,016
-320,299	-200,000	-0,016	0,184
-319,285	488,631	-0,024	-0,041
-318,270	-126,017	-0,092	-0,010
-317,256	-200,000	0,006	-0,039
-316,241	800,000	0,012	-0,026
-315,226	-200,000	0,013	-0,099
-314,212	-200,000	0,037	0,130
-313,197	51,723	0,067	-0,047
-312,183	-200,000	-0,037	0,168
-311,168	-65,536	-0,057	0,017
-310,153	568,999	-0,047	0,085
-309,139	268,847	0,025	-0,032
-308,124	310,899	-0,035	0,048
-307,110	-200,000	-0,000	0,028
-306,095	-200,000	-0,001	0,043
-305,080	162,377	0,076	-0,078
-304,066	32,174	0,013	0,008
-303,051	126,811	0,009	-0,008
-302,037	100,976	-0,144	0,123
-301,022	32,001	0,096	0,061
-300,008	800,000	0,021	0,064
-298,993	-200,000	-0,008	0,062
-297,978	36,554	-0,090	0,058
-296,964	713,554	0,031	-0,061
-295,949	515,706	0,076	0,130
-294,935	709,383	0,016	0,032
-293,920	26,602	0,044	0,027
-292,905	800,000	0,033	0,102
-291,891	-153,331	-0,105	0,005
-290,876	-200,000	-0,051	0,181
-289,862	800,000	0,023	0,062
-288,847	531,443	-0,032	-0,055
-287,832	242,707	-0,088	0,108
-286,818	-163,273	0,086	-0,003
-285,803	335,131	0,087	-0,123
-284,789	112,664	-0,091	0,080
-283,774	5,250	-0,058	-0,031
-282,759	-40,419	0,054	0,021
-281,745	-200,000	0,008	-0,054
-280,730	-200,000	-0,016	0,068
-279,716	800,000	0,019	-0,046
-278,701	800,000	0,008	0,022
-277,686	-146,456	0,066	-0,004
-276,672	592,527	-0,034	-0,062
-275,657	433,576	-0,020	0,032
-274,643	188,486	-0,097	0,107
-273,628	344,368	0,034	-0,049
-272,613	-85,654	0,124	0,028
-271,599	268,825	0,091	0,117
-270,584	800,000	-0,027	0,063
-269,570	-200,000	-0,002	0,115
-268,555	240,943	0,030	0,036
-267,540	484,438	-0,014	-0,023
-266,526	-21,265	-0,123	0,055
-265,511	227,967	0,083	-0,099
-264,497	381,330	0,039	0,058
-263,482	81,422	0,085	0,067
-262,467	-60,914	-0,103	0,032
-261,453	800,000	0,046	-0,096
-260,438	-200,000	-0,030	0,122
-259,424	346,722	-0,041	-0,059
-258,409	800,000	-0,035	0,111
-257,395	-200,000	-0,010	0,055
-256,380	-79,785	-0,091	-0,022
-255,365	800,000	-0,011	-0,031
-254,351	-18,214	-0,088	-0,040
-253,336	-74,809	-0,029	0,008
-252,322	-90,691	-0,111	0,023
-251,307	800,000	0,088	-0,217
-250,292	-200,000	-0,007	0,028
-249,278	800,000	-0,012	0,036
-248,263	87,662	0,100	0,081
-247,249	-200,000	-0,029	-0,130
-246,234	335,867	-0,095	0,135
-245,219	-200,000	0,000	0,031
-244,205	5,325	0,087	0,047
-243,190	-97,448	0,048	0,009
-242,176	458,903	0,019	-0,032
-241,161	201,545	0,101	0,114
-240,146	800,000	0,038	0,100
-239,132	293,307	0,063	-0,084
-238,117	-200,000	-0,019	-0,122
-237,103	8,802	0,121	0,066
-236,088	800,000	0,029	-0,075
-235,073	-47,863	0,045	-0,016
-234,059	-200,000	0,051	0,172
-233,044	-54,518	0,140	-0,046
-232,030	-53,746	-0,072	-0,024
-231,015	32,868	-0,015	0,010
-230,000	236,230	0,019	-0,024
-228,986	-83,827	0,042	0,010
-227,971	-200,000	0,004	0,040
-226,957	30,544	0,115	-0,072
-225,942	-200,000	0,004	-0,117
-224,927	111,197	-0,051	0,045
-223,913	74,772	0,019	-0,014
-222,898	393,295	-0,034	-0,052
-221,884	596,279	0,143	-0,259
-220,869	9,240	0,098	0,054
-219,855	77,949	-0,010	-0,008
-218,840	800,000	-0,023	0,053
-217,825	-125,984	0,158	0,017
-216,811	514,338	0,016	0,028
-215,796	-200,000	-0,013	-0,122
-214,782	-200,000	-0,009	-0,046
-213,767	401,010	-0,034	-0,052
-212,752	159,918	-0,060	0,061
-211,738	-50,591	0,064	-0,022
-210,723	184,191	0,087	-0,095
-209,709	135,400	0,091	-0,086
-208,694	-200,000	-0,007	0,065
-207,679	150,105	-0,038	0,038
-206,665	-200,000	-0,001	0,041
-205,650	-200,000	-0,003	-0,064
-204,636	51,130	-0,034	0,023
-203,621	-66,663	-0,091	0,026
-202,606	-169,452	0,071	-0,002
-201,592	-200,000	0,005	-0,021
-200,577	-200,000	0,001	-0,105
-199,563	-134,223	-0,090	0,008
-198,548	-144,943	0,102	0,007
-197,533	-27,818	0,154	0,065
-196,519	-200,000	0,018	-0,061
-195,504	164,838	0,071	0,073
-194,490	37,320	-0,060	-0,039
-193,475	800,000	0,024	0,052
-192,460	-112,686	-0,048	-0,007
-191,446	-75,462	-0,014	-0,004
-190,431	-200,000	0,003	0,036
-189,417	372,091	0,087	0,129
-188,402	319,278	0,086	-0,119
-187,387	416,197	-0,077	-0,120
-186,373	800,000	-0,058	-0,154
-185,358	800,000	-0,002	0,005
-184,344	-139,538	0,133	0,010
-183,329	-45,849	-0,107	0,038
-182,315	38,796	-0,078	0,051
-181,300	-47,583	0,033	0,012
-180,285	800,000	0,010	0,028
-179,271	89,708	-0,066	-0,053
-178,256	-97,682	-0,017	0,003
-177,242	282,971	0,033	-0,043
-176,227	218,825	0,030	0,036
-175,212	-200,000	-0,003	0,031
-174,198	-99,977	-0,085	-0,015
-173,183	-61,707	-0,137	-0,042
-172,169	140,540	0,021	-0,020
-171,154	227,967	0,052	0,061
-170,139	800,000	0,052	0,152
-169,125	-53,191	0,130	-0,043
-168,110	94,653	-0,046	-0,038
-167,096	-22,307	-0,053	0,023
-166,081	135,158	-0,071	-0,067
-165,066	800,000	-0,041	-0,127
-164,052	-200,000	0,032	-0,113
-163,037	297,526	0,076	0,101
-162,023	-118,461	-0,078	0,010
-161,008	29,202	0,040	-0,025
-159,993	-200,000	0,003	-0,038
-158,979	84,527	0,081	-0,065
-157,964	-58,310	0,059	-0,018
-156,950	257,037	-0,033	0,041
-155,935	-69,843	0,142	0,039
-154,920	-122,112	0,148	0,017
-153,906	413,270	0,019	-0,029
-152,891	514,296	0,023	0,040
-151,877	-3,786	0,039	0,020
-150,862	97,399	0,041	-0,034
-149,847	564,911	-0,055	-0,098
-148,833	-0,619	-0,073	0,038
-147,818	171,463	0,091	0,095
-146,804	544,939	-0,079	-0,137
-145,789	361,841	-0,014	0,021
-144,775	597,344	-0,035	-0,064
-143,760	-87,556	-0,015	-0,003
-142,745	-200,000	0,001	-0,053
-141,731	104,381	0,029	-0,025
-140,716	-13,376	0,041	-0,019
-139,702	800,000	-0,036	0,077
-138,687	167,634	0,114	0,118
-137,672	-200,000	-0,007	0,142
-136,658	-200,000	-0,033	-0,132
-135,643	-103,301	0,104	0,018
-134,629	141,956	0,076	-0,073
-133,614	-88,754	0,106	0,023
-132,599	270,184	0,063	0,081
-131,585	114,999	0,010	-0,009
-130,570	106,121	-0,013	-0,012
-129,556	800,000	-0,028	-0,083
-128,541	175,885	-0,150	-0,159
-127,526	800,000	-0,031	0,078
-126,512	-183,921	0,141	0,002
-125,497	-200,000	0,014	0,105
-124,483	-200,000	-0,055	0,259
-123,468	800,000	0,055	0,164
-122,453	464,781	0,031	0,050
-121,439	-200,000	-0,021	-0,156
-120,424	-97,084	0,053	-0,010
-119,410	-189,476	-0,108	-0,001
-118,395	-38,706	0,031	0,012
-117,380	-199,330	-0,167	0,001
-116,366	-200,000	-0,002	-0,036
-115,351	102,591	0,032	-0,027
-114,337	-99,930	0,046	0,008
-113,322	-35,320	-0,093	-0,037
-112,307	-96,428	0,086	0,016
-111,293	-200,000	-0,009	0,098
-110,278	-200,000	0,000	-0,005
-109,264	182,593	-0,111	0,119
-108,249	-105,957	-0,082	0,013
-107,234	45,424	-0,043	0,029
-106,220	88,362	0,074	-0,060
-105,205	168,224	0,056	-0,058
-104,191	204,403	-0,057	0,064
-103,176	261,149	-0,041	-0,051
-102,162	-56,240	0,082	-0,026
-101,147	-190,232	0,176	0,001
-100,132	-38,557	0,133	0,051
-99,118	727,212	-0,098	0,192
-98,103	-180,751	0,063	-0,001
-97,089	76,918	0,113	-0,087
-96,074	-145,513	0,213	0,014
-95,059	-17,656	0,022	0,010
-94,045	-93,083	-0,164	0,033
-93,030	800,000	0,047	-0,124
-92,016	-121,965	-0,103	0,012
-91,001	800,000	-0,066	-0,147
-89,986	479,550	0,060	0,099
-88,972	-97,757	0,085	0,016
-87,957	-192,969	-0,092	-0,001
-86,943	800,000	-0,050	0,111
-85,928	800,000	-0,025	-0,071
-84,913	-49,232	0,076	-0,026
-83,899	299,012	0,091	0,122
-82,884	-16,859	0,142	0,065
-81,870	-134,191	0,130	0,012
-80,855	-200,000	0,009	0,112
-79,840	348,573	-0,053	-0,076
-78,826	81,570	-0,145	-0,114
-77,811	-187,031	-0,038	-0,000
-76,797	800,000	-0,022	-0,055
-75,782	-200,000	0,001	-0,016
-74,767	-200,000	0,007	0,086
-73,753	-56,648	0,139	0,045
-72,738	-46,154	-0,001	0,000
-71,724	-200,000	-0,001	-0,126
-70,709	41,649	0,055	-0,036
-69,694	27,568	-0,014	-0,008
-68,680	250,322	0,050	0,061
-67,665	800,000	0,022	-0,066
-66,651	72,364	0,061	0,046
-65,636	-200,000	0,000	-0,024
-64,622	245,020	-0,027	0,033
-63,607	800,000	0,040	-0,103
-62,592	605,478	0,046	-0,084
-61,578	14,437	0,076	0,043
-60,563	371,432	-0,027	-0,040
-59,549	83,256	-0,103	0,081
-58,534	-124,640	-1,314	-0,146
-57,519	393,817	-0,918	-1,392
-56,505	-200,000	-0,926	-4,459
-55,490	-36,041	0,545	-0,213
-54,476	800,000	5,242	11,861
-53,461	-200,000	13,655	253,387
-52,446	-200,000	690,029	2257,294
-51,432	589,881	1622,141	2915,042
-50,417	118,929	1634,642	1466,306
-49,403	73,117	1288,428	976,538
-48,388	37,903	1023,986	659,215
-47,373	24,312	981,686	587,278
-46,359	23,519	971,298	578,439
-45,344	22,506	967,139	572,630
-44,330	22,456	965,530	571,492
-43,315	22,378	964,122	570,381
-42,300	22,317	963,155	569,587
-41,286	22,350	962,206	569,110
-40,271	22,376	960,976	568,443
-39,257	22,312	960,283	567,804
-38,242	22,291	959,263	567,112
-37,227	22,258	958,601	566,589
-36,213	22,237	957,572	565,890
-35,198	22,288	956,615	565,468
-34,184	22,290	956,180	565,196
-33,169	22,255	955,304	564,541
-32,154	22,296	954,382	564,106
-31,140	22,390	953,329	563,765
-30,125	22,396	952,653	563,361
-29,111	22,373	951,821	562,775
-28,096	22,423	951,038	562,449
-27,082	22,351	950,396	561,814
-26,067	22,358	949,471	561,270
-25,052	22,308	949,020	560,820
-24,038	22,369	948,130	560,468
-23,023	22,297	947,831	560,037
-22,009	22,392	947,053	559,859
-20,994	22,400	946,338	559,439
-19,979	22,390	945,743	559,036
-18,965	22,382	945,077	558,592
-17,950	22,382	944,576	558,276
-16,936	22,267	943,700	557,369
-15,921	22,301	943,157	557,133
-14,906	22,315	942,269	556,633
-13,892	22,263	941,683	556,098
-12,877	22,199	941,203	555,590
-11,863	22,182	940,541	555,123
-10,848	22,224	940,003	554,915
-9,833	22,291	939,593	554,864
-8,819	22,304	938,905	554,479
-7,804	22,324	938,166	554,083
-6,790	22,250	937,694	553,548
-5,775	22,210	937,100	553,046
-4,760	22,243	936,533	552,795
-3,746	22,193	935,791	552,177
-2,731	22,066	935,121	551,358
-1,717	22,030	934,594	550,913
-0,702	22,056	933,837	550,528
0,313	21,840	933,171	550,285
1,327	25,026	930,994	558,969
2,342	34,722	795,578	503,480
3,356	32,634	451,492	282,555
4,371	1,626	293,971	153,006
5,386	-2,898	274,955	138,811
6,400	-4,564	268,862	134,176
7,415	-5,044	266,614	132,600
8,429	-4,684	265,553	132,391
9,444	-4,596	264,510	131,939
10,459	-4,836	263,982	131,445
11,473	-4,834	263,351	131,121
12,488	-4,861	262,841	130,831
13,502	-5,071	262,397	130,408
14,517	-5,026	262,081	130,281
15,531	-4,778	261,545	130,226
16,546	-4,640	261,252	130,193
17,561	-4,845	260,926	129,835
18,575	-4,730	260,553	129,741
19,590	-4,893	260,232	129,423
20,604	-4,592	259,868	129,500
21,619	-4,865	259,578	129,100
22,634	-4,832	259,142	128,901
23,648	-4,891	258,852	128,693
24,663	-4,644	258,682	128,817
25,677	-4,671	258,396	128,639
26,692	-4,920	258,170	128,293
27,707	-5,084	258,088	128,095
28,721	-4,877	257,672	128,061
29,736	-4,881	257,437	127,929
30,750	-4,945	257,180	127,734
31,765	-5,041	256,956	127,526
32,780	-4,894	256,743	127,539
33,794	-4,893	256,498	127,407
34,809	-4,860	256,212	127,282
35,823	-4,734	255,922	127,238
36,838	-4,896	255,795	127,021
37,853	-4,864	255,569	126,925
38,867	-5,036	255,327	126,643
39,882	-4,951	255,128	126,607
40,896	-4,988	254,839	126,420
41,911	-4,896	254,568	126,355
42,926	-5,139	254,479	126,087
43,940	-4,940	254,196	126,109
44,955	-4,953	253,929	125,954
45,969	-5,062	253,794	125,781
46,984	-5,310	253,533	125,424
47,999	-5,324	253,286	125,278
49,013	-5,606	252,962	124,861
50,028	-5,794	252,687	124,551
51,042	-5,832	252,586	124,457
52,057	-5,569	252,265	124,516
53,071	-5,647	251,852	124,233
54,086	-5,856	251,924	124,077
55,101	-5,579	251,690	124,191
56,115	-5,165	251,576	124,481
57,130	-4,811	251,347	124,663
58,144	-4,623	251,281	124,782
59,159	-4,672	251,111	124,644
60,174	-4,566	250,808	124,574
61,188	-4,885	250,758	124,262
62,203	-4,865	250,454	124,118
63,217	-4,668	250,184	124,143
64,232	-4,483	249,928	124,163
65,247	-4,890	249,918	123,798
66,261	-4,973	249,611	123,564
67,276	-5,105	249,503	123,386
68,290	-5,102	249,151	123,203
69,305	-5,395	248,924	122,830
70,320	-5,167	248,796	122,951
71,334	-5,046	248,610	122,951
72,349	-4,810	248,494	123,084
73,363	-4,675	248,368	123,126
74,378	-4,675	248,052	122,957
75,393	-4,671	247,773	122,812
76,407	-4,833	247,676	122,616
77,422	-4,810	247,499	122,536
78,436	-4,755	247,341	122,494
79,451	-4,646	246,905	122,360
80,466	-4,857	246,726	122,081
81,480	-4,889	246,578	121,970
82,495	-5,153	246,387	121,641
83,509	-5,039	246,253	121,661
84,524	-4,914	245,995	121,628
85,539	-5,113	245,667	121,287
86,553	-5,075	245,612	121,282
87,568	-5,162	245,520	121,152
88,582	-5,132	245,332	121,074
89,597	-5,179	245,109	120,913
90,611	-5,015	244,936	120,955
91,626	-4,957	244,713	120,883
92,641	-4,758	244,616	120,990
93,655	-5,119	244,587	120,662
94,670	-5,050	244,232	120,535
95,684	-5,031	243,870	120,361
96,699	-4,979	243,871	120,395
97,714	-4,916	243,631	120,318
98,728	-5,293	243,423	119,890
99,743	-5,248	243,249	119,831
100,757	-5,468	243,057	119,542
101,772	-5,209	242,825	119,633
102,787	-4,926	242,653	119,773
103,801	-5,036	242,519	119,605
104,816	-4,895	242,416	119,661
105,830	-5,029	242,366	119,514
106,845	-4,900	242,011	119,435
107,860	-5,046	241,855	119,226
108,874	-5,121	241,577	119,017
109,889	-4,996	241,246	118,946
110,903	-5,042	241,343	118,946
111,918	-5,269	240,964	118,561
112,933	-5,129	241,068	118,717
113,947	-4,946	240,670	118,661
114,962	-4,884	240,543	118,639
115,976	-4,933	240,384	118,510
116,991	-5,003	240,347	118,424
118,006	-5,098	240,050	118,188
119,020	-4,868	239,991	118,338
120,035	-4,715	239,738	118,327
121,049	-4,953	239,707	118,107
122,064	-4,918	239,496	118,021
123,079	-4,967	239,250	117,849
124,093	-5,101	239,096	117,653
125,108	-5,271	238,794	117,355
126,122	-5,258	238,561	117,241
127,137	-5,484	238,344	116,940
128,151	-5,519	238,274	116,866
129,166	-5,381	238,158	116,912
130,181	-5,161	237,786	116,898
131,195	-5,319	237,767	116,749
132,210	-5,118	237,556	116,798
133,224	-5,017	237,371	116,778
134,239	-4,973	237,363	116,800
135,254	-4,900	237,229	116,782
136,268	-5,129	236,927	116,439
137,283	-5,244	236,635	116,192
138,297	-5,400	236,435	115,958
139,312	-5,524	236,238	115,750
140,327	-5,042	236,184	116,102
141,341	-4,781	236,198	116,309
142,356	-4,632	235,976	116,309
143,370	-4,638	236,007	116,309
144,385	-4,734	235,760	116,100
145,400	-4,632	235,621	116,104
146,414	-4,624	235,287	115,935
147,429	-4,511	235,125	115,935
148,443	-4,736	234,995	115,681
149,458	-4,683	234,927	115,679
150,473	-4,639	234,587	115,537
151,487	-4,721	234,509	115,423
152,502	-4,660	234,323	115,369
153,516	-4,765	234,299	115,264
154,531	-4,613	233,972	115,214
155,546	-4,734	233,919	115,080
156,560	-4,804	233,657	114,886
157,575	-4,846	233,565	114,796
158,589	-4,956	233,363	114,600
159,604	-4,698	233,229	114,728
160,619	-4,145	232,963	115,026
161,633	-4,363	232,814	114,770
162,648	-4,654	232,864	114,554
163,662	-4,463	232,471	114,501
164,677	-4,766	232,462	114,246
165,692	-4,635	232,168	114,195
166,706	-4,280	232,028	114,397
167,721	-4,356	232,034	114,330
168,735	-4,472	231,780	114,102
169,750	-4,563	231,760	114,011
170,764	-4,642	231,599	113,859
171,779	-4,558	231,366	113,800
172,794	-4,612	231,276	113,704
173,808	-4,639	231,069	113,570
174,823	-5,080	230,600	112,984
175,837	-5,176	230,510	112,855
176,852	-4,763	230,411	113,120
177,867	-4,514	230,279	113,240
178,881	-4,614	230,281	113,152
179,896	-4,357	230,034	113,222
180,910	-4,657	230,067	112,993
181,925	-4,617	229,894	112,930
182,940	-4,564	229,669	112,851
183,954	-4,288	229,503	112,974
184,969	-4,378	229,292	112,790
185,983	-4,357	229,229	112,765
186,998	-4,260	229,010	112,723
188,013	-4,458	229,015	112,561
189,027	-4,302	228,742	112,538
190,042	-4,471	228,656	112,355
191,056	-4,268	228,359	112,356
192,071	-4,208	228,063	112,247
193,086	-4,428	228,068	112,069
194,100	-4,638	227,867	111,798
195,115	-5,028	227,526	111,319
196,129	-5,502	227,323	110,843
197,144	-2,000	228,615	114,182
198,159	2,317	229,723	118,083
199,173	4,251	230,034	119,735
200,188	4,369	229,991	119,793
201,202	4,481	229,838	119,790
202,217	4,672	229,690	119,851
203,232	4,740	229,635	119,864
204,246	4,677	229,437	119,701
205,261	4,988	229,290	119,854
206,275	4,904	229,414	119,843
207,290	4,989	229,225	119,800
208,304	5,209	229,001	119,842
209,319	5,004	228,868	119,604
210,334	4,982	228,547	119,408
211,348	4,585	228,390	119,010
212,363	4,348	228,050	118,639
213,377	3,960	227,964	118,286
214,392	4,241	227,678	118,343
215,407	4,426	227,528	118,396
216,421	4,309	227,487	118,274
217,436	4,185	227,275	118,059
218,450	3,863	227,086	117,704
219,465	3,750	226,979	117,551
220,480	3,875	226,801	117,544
221,494	3,862	226,783	117,514
222,509	4,243	226,577	117,688
223,523	4,044	226,321	117,392
224,538	4,237	226,086	117,407
225,553	4,041	226,168	117,291
226,567	4,188	226,076	117,344
227,582	4,474	225,932	117,477
228,596	4,506	225,769	117,405
229,611	4,180	225,618	117,069
230,626	4,097	225,328	116,846
231,640	3,983	225,353	116,761
232,655	4,299	225,170	116,896
233,669	4,768	225,183	117,247
234,684	4,768	224,966	117,124
235,699	4,633	224,769	116,908
236,713	4,360	224,556	116,581
237,728	4,077	224,367	116,259
238,742	4,033	224,160	116,108
239,757	4,155	224,011	116,112
240,772	4,137	223,875	116,018
241,786	4,080	223,725	115,887
242,801	4,398	223,578	116,040
243,815	4,674	223,452	116,172
244,830	4,673	223,316	116,090
245,844	4,415	223,163	115,807
246,859	4,305	223,062	115,661
247,874	4,466	222,979	115,728
248,888	4,568	222,809	115,706
249,903	4,317	222,594	115,396
250,917	4,224	222,455	115,245
251,932	4,298	222,279	115,198
252,947	4,142	222,170	115,015
253,961	3,876	221,949	114,692
254,976	4,185	221,864	114,869
255,990	4,266	221,860	114,916
257,005	4,202	221,614	114,731
258,020	4,284	221,555	114,751
259,034	4,656	221,452	114,964
260,049	4,531	221,229	114,746
261,063	4,508	221,241	114,724
262,078	4,094	221,058	114,312
263,093	4,780	220,853	114,704
264,107	4,519	220,654	114,397
265,122	4,555	220,500	114,334
266,136	4,742	220,473	114,448
267,151	4,840	220,202	114,369
268,166	4,197	219,916	113,737
269,180	3,770	219,873	113,389
270,195	4,009	219,699	113,466
271,209	4,021	219,553	113,389
272,224	4,013	219,414	113,301
273,239	4,202	219,350	113,397
274,253	4,027	219,092	113,125
275,268	4,128	218,946	113,113
276,282	3,864	218,747	112,807
277,297	3,717	218,769	112,701
278,312	4,015	218,509	112,775
279,326	4,097	218,557	112,849
280,341	4,018	218,379	112,689
281,355	4,208	218,138	112,694
282,370	4,209	218,022	112,625
283,384	3,986	217,916	112,397
284,399	3,623	217,727	112,025
285,414	3,859	217,529	112,085
286,428	4,079	217,488	112,214
287,443	4,285	217,317	112,266
288,457	4,479	217,251	112,363
289,472	4,198	217,035	112,037
290,487	3,838	216,718	111,602
291,501	3,863	216,630	111,565
292,516	3,855	216,633	111,551
293,530	3,953	216,343	111,463
294,545	3,574	216,363	111,188
295,560	4,161	216,261	111,551
296,574	4,028	216,130	111,377
297,589	4,145	215,958	111,364
298,603	4,223	215,801	111,328
299,618	4,315	215,577	111,269
300,633	4,072	215,456	111,022
301,647	4,533	215,456	111,345
302,662	4,195	215,462	111,094
303,676	4,526	215,135	111,154
304,691	4,240	215,110	110,925
305,706	4,584	214,892	111,050
306,720	4,266	214,831	110,780
307,735	4,325	214,657	110,722
308,749	4,098	214,403	110,419
309,764	4,240	214,428	110,524
310,779	4,474	214,272	110,601
311,793	4,308	213,935	110,299
312,808	4,284	213,796	110,201
313,822	4,318	213,767	110,200
314,837	4,050	213,635	109,930
315,852	3,842	213,515	109,711
316,866	4,000	213,382	109,745
317,881	4,291	213,313	109,907
318,895	4,162	213,192	109,743
319,910	4,122	212,958	109,585
320,925	3,962	212,734	109,345
321,939	3,760	212,744	109,197
322,954	3,750	212,545	109,078
323,968	4,012	212,383	109,172
324,983	4,390	212,289	109,382
325,997	4,297	212,356	109,340
327,012	4,279	212,064	109,167
328,027	4,187	211,984	109,051
329,041	4,727	211,762	109,309
330,056	4,571	211,744	109,180
331,070	4,097	211,509	108,715
332,085	4,018	211,224	108,502
333,100	4,083	211,059	108,454
334,114	4,342	211,055	108,625
335,129	3,937	210,944	108,272
336,143	3,729	210,732	108,008
337,158	3,750	210,679	107,986
338,173	3,961	210,469	108,016
339,187	3,748	210,357	107,800
340,202	3,808	210,221	107,763
341,216	3,821	210,005	107,652
342,231	4,035	209,868	107,722
343,246	4,060	209,827	107,708
344,260	3,969	209,696	107,568
345,275	4,146	209,553	107,609
346,289	4,139	209,547	107,591
347,304	4,216	209,380	107,549
348,319	4,251	209,121	107,431
349,333	4,366	208,952	107,415
350,348	4,347	208,795	107,312
351,362	4,146	208,952	107,243
352,377	4,156	208,846	107,186
353,392	4,273	208,613	107,138
354,406	4,158	208,461	106,971
355,421	194,539	1344,343	1435,327
356,435	155,253	1482,837	1435,442
