DTS Sentinel unit serial number:	SN410029Multiplexer serial number:	ORYXHardware model number:	OX2-SRSoftware version number:	ORYX F/W v4,00 Oryx Data Collector v3.7.2.0data status	okinstallation	B6 Nyhavnadifferential loss correction	single-endedforward channel	channel 2reverse channel	N/Adate	2023/12/10time	18:20:08forward acquisition time	300,00reverse acquisition time	0,00gamma	499,1914k internal	0,3123k external	0,3123temperature offset calibration	1,0000default loss term (dB/km)	0,3820temperature slope calibration	1,0000multiplexer offset coefficient	1,0000multiplexer slope coefficient	1,0000fibre end	0,00T internal ref (°C)	22,37T ext. ref 1 (°C)	5,98T ext. ref 2 (°C)	6,01length (m)	temperature (°C)	Stokes	anti-Stokes-744,400	-61,082	0,110	-0,034
-743,385	68,939	-0,306	0,234
-742,371	649,623	0,085	0,164
-741,356	265,223	-0,112	0,146
-740,342	-56,077	0,088	-0,029
-739,327	77,594	-0,162	-0,128
-738,312	-200,000	0,021	-0,104
-737,298	-150,401	-0,266	-0,015
-736,283	-76,976	0,035	0,009
-735,269	31,941	-0,243	0,156
-734,254	800,000	-0,035	-0,101
-733,239	-93,058	-0,473	-0,097
-732,225	-139,058	0,133	-0,011
-731,210	118,704	-0,088	0,081
-730,196	172,290	0,101	0,108
-729,181	762,122	0,015	-0,031
-728,167	-140,167	-0,156	-0,012
-727,152	-200,000	0,007	0,031
-726,137	800,000	-0,063	-0,182
-725,123	334,324	-0,067	-0,097
-724,108	71,371	-0,138	-0,107
-723,094	-95,596	0,091	-0,018
-722,079	-136,597	-0,090	-0,008
-721,064	-29,558	0,006	0,003
-720,050	-148,304	0,054	-0,003
-719,035	515,246	-0,061	0,106
-718,021	-111,309	0,186	0,028
-717,006	1,276	-0,140	-0,075
-715,991	181,719	-0,109	-0,120
-714,977	800,000	-0,071	-0,176
-713,962	686,064	-0,055	-0,108
-712,948	800,000	0,008	-0,021
-711,933	160,581	-0,084	0,087
-710,918	158,803	0,048	0,049
-709,904	116,107	-0,120	-0,109
-708,889	-134,666	-0,170	-0,015
-707,875	800,000	0,034	-0,111
-706,860	800,000	-0,026	0,070
-705,845	-200,000	0,004	0,031
-704,831	800,000	-0,056	0,148
-703,816	-60,964	0,099	0,031
-702,802	768,964	-0,061	-0,125
-701,787	33,248	-0,075	-0,048
-700,772	-200,000	-0,014	-0,084
-699,758	-61,146	-0,055	-0,017
-698,743	-28,788	0,215	-0,092
-697,729	-55,103	-0,094	0,031
-696,714	62,337	0,089	0,066
-695,699	-200,000	0,003	-0,108
-694,685	-4,839	-0,111	0,057
-693,670	332,734	-0,053	-0,076
-692,656	112,721	0,073	0,065
-691,641	-41,428	-0,078	0,030
-690,627	-200,000	0,023	0,109
-689,612	-200,000	0,010	0,125
-688,597	-48,986	-0,115	-0,041
-687,583	800,000	-0,050	-0,109
-686,568	19,513	-0,131	-0,078
-685,554	39,516	-0,025	0,017
-684,539	-200,000	0,052	-0,194
-683,524	-169,036	0,096	-0,003
-682,510	44,437	-0,115	0,079
-681,495	-117,107	-0,118	0,016
-680,481	160,186	-0,047	-0,049
-679,466	72,412	-0,129	-0,100
-678,451	-200,000	0,017	0,114
-677,437	800,000	0,011	0,028
-676,422	683,649	0,040	0,078
-675,408	-12,926	0,057	-0,028
-674,393	173,338	-0,040	0,043
-673,378	-95,017	-0,092	-0,018
-672,364	-58,976	-0,131	-0,042
-671,349	149,932	-0,051	0,051
-670,335	122,754	0,026	-0,024
-669,320	-200,000	0,025	0,121
-668,305	705,405	-0,039	-0,078
-667,291	242,599	-0,038	0,047
-666,276	-74,965	0,039	-0,010
-665,262	-200,000	-0,036	-0,209
-664,247	200,941	-0,123	-0,141
-663,232	-200,000	-0,030	-0,109
-662,218	800,000	0,006	-0,016
-661,203	701,820	-0,044	-0,086
-660,189	-200,000	-0,028	-0,093
-659,174	110,789	-0,094	-0,084
-658,159	15,449	-0,093	-0,054
-657,145	405,547	0,062	-0,097
-656,130	-77,560	-0,058	-0,015
-655,116	-200,000	-0,004	0,064
-654,101	-200,000	0,032	0,133
-653,086	-200,000	-0,022	0,106
-652,072	179,583	-0,076	-0,083
-651,057	255,538	0,097	0,123
-650,043	-200,000	-0,003	0,114
-649,028	-200,000	0,027	0,101
-648,014	515,122	-0,061	-0,106
-646,999	332,134	-0,074	-0,106
-645,984	466,201	-0,042	0,071
-644,970	188,320	-0,042	-0,046
-643,955	-200,000	0,001	-0,048
-642,941	800,000	-0,024	-0,059
-641,926	800,000	-0,010	0,026
-640,911	33,602	0,030	-0,020
-639,897	707,218	0,055	0,109
-638,882	-200,000	-0,028	0,213
-637,868	132,283	0,017	-0,017
-636,853	-200,000	-0,019	-0,108
-635,838	25,244	-0,057	0,035
-634,824	-69,059	0,044	-0,012
-633,809	125,334	-0,021	-0,020
-632,795	-200,000	-0,003	0,051
-631,780	-200,000	0,001	0,026
-630,765	-200,000	-0,009	-0,041
-629,751	135,340	-0,052	-0,050
-628,736	-126,413	-0,210	0,023
-627,722	-200,000	-0,002	0,083
-626,707	355,230	-0,029	-0,043
-625,692	99,872	-0,050	0,043
-624,678	-200,000	0,024	-0,097
-623,663	557,845	0,049	0,088
-622,649	149,986	-0,079	0,080
-621,634	-39,625	0,064	-0,025
-620,619	188,061	-0,145	-0,161
-619,605	-18,206	-0,140	-0,065
-618,590	800,000	0,030	-0,069
-617,576	-200,000	0,015	-0,058
-616,561	-8,983	-0,148	-0,073
-615,546	521,007	0,061	0,106
-614,532	14,082	-0,158	0,091
-613,517	146,443	0,111	0,111
-612,503	-58,103	0,055	0,018
-611,488	-200,000	0,028	-0,157
-610,474	800,000	-0,036	0,081
-609,459	185,516	-0,098	0,108
-608,444	113,779	0,032	-0,029
-607,430	3,896	0,146	-0,079
-606,415	161,361	-0,092	-0,095
-605,401	-200,000	0,009	0,042
-604,386	800,000	-0,063	0,147
-603,371	408,892	0,007	0,012
-602,357	119,646	-0,013	0,012
-601,342	-200,000	-0,020	0,171
-600,328	234,980	0,045	-0,055
-599,313	34,594	0,016	-0,010
-598,298	800,000	0,011	0,025
-597,284	50,388	0,056	0,039
-596,269	-67,527	-0,166	0,048
-595,255	-200,000	0,007	0,032
-594,240	800,000	0,023	-0,049
-593,225	-200,000	-0,047	-0,161
-592,211	9,878	0,034	-0,019
-591,196	130,968	-0,039	-0,037
-590,182	-200,000	-0,024	0,114
-589,167	-200,000	0,035	0,119
-588,152	28,575	-0,082	0,051
-587,138	800,000	0,024	-0,054
-586,123	-26,610	0,135	-0,058
-585,109	-69,344	-0,135	0,038
-584,094	-200,000	0,015	0,095
-583,079	211,725	0,078	0,091
-582,065	-117,328	0,044	0,006
-581,050	-200,000	0,001	0,032
-580,036	12,945	0,082	0,047
-579,021	779,338	-0,044	-0,089
-578,006	-200,000	0,017	-0,064
-576,992	12,175	-0,034	-0,019
-575,977	169,170	-0,051	0,053
-574,963	-10,578	0,155	-0,076
-573,948	50,222	0,083	-0,058
-572,934	43,322	-0,075	0,051
-571,919	-200,000	-0,011	-0,060
-570,904	143,739	0,092	-0,091
-569,890	800,000	0,028	-0,081
-568,875	-55,744	0,110	0,036
-567,861	185,202	0,030	0,033
-566,846	92,633	-0,057	-0,048
-565,831	-51,618	0,068	-0,023
-564,817	496,676	-0,045	0,077
-563,802	253,703	-0,087	-0,111
-562,788	470,968	0,082	0,138
-561,773	88,348	0,052	-0,043
-560,758	732,185	0,032	0,064
-559,744	227,315	-0,059	0,071
-558,729	-61,917	-0,029	-0,009
-557,715	93,791	-0,112	0,094
-556,700	-15,941	-0,152	-0,071
-555,685	-76,036	-0,059	0,015
-554,671	125,179	0,038	0,035
-553,656	-200,000	0,026	-0,109
-552,642	146,544	0,069	0,069
-551,627	-200,000	-0,013	0,000
-550,612	-200,000	0,017	-0,076
-549,598	683,937	-0,040	-0,078
-548,583	800,000	0,045	0,095
-547,569	-52,269	0,110	-0,038
-546,554	-200,000	-0,014	-0,134
-545,539	69,434	-0,052	-0,039
-544,525	56,853	0,080	-0,057
-543,510	-200,000	0,004	0,104
-542,496	-51,387	-0,154	-0,053
-541,481	18,034	-0,126	-0,074
-540,466	-200,000	-0,018	-0,197
-539,452	-77,069	-0,189	-0,048
-538,437	-7,222	0,056	0,028
-537,423	-154,024	0,096	0,005
-536,408	42,230	-0,054	-0,036
-535,393	-200,000	-0,001	0,019
-534,379	-200,000	-0,033	-0,114
-533,364	307,717	-0,020	0,028
-532,350	-200,000	0,025	0,137
-531,335	420,285	-0,030	0,048
-530,321	-184,568	0,076	0,001
-529,306	174,404	0,080	0,086
-528,291	268,237	-0,147	0,190
-527,277	56,141	0,032	0,023
-526,262	-24,237	-0,029	0,013
-525,248	800,000	0,037	0,103
-524,233	15,276	0,100	0,058
-523,218	24,693	-0,170	-0,104
-522,204	-162,972	0,047	0,002
-521,189	-34,718	-0,061	0,024
-520,175	412,566	-0,059	0,093
-519,160	63,888	0,164	-0,122
-518,145	230,013	0,037	0,045
-517,131	320,507	0,089	0,126
-516,116	800,000	-0,021	-0,048
-515,102	-124,866	0,093	0,010
-514,087	131,465	0,074	0,071
-513,072	299,517	0,026	-0,036
-512,058	282,884	-0,066	0,088
-511,043	-200,000	0,010	-0,133
-510,029	-35,794	-0,099	-0,040
-509,014	-200,000	0,052	0,171
-507,999	-10,480	0,026	-0,013
-506,985	245,733	0,052	-0,064
-505,970	-83,828	0,045	-0,010
-504,956	-91,642	-0,074	0,015
-503,941	52,967	0,095	-0,067
-502,926	-67,571	0,136	0,039
-501,912	-133,024	-0,110	-0,010
-500,897	800,000	-0,035	0,077
-499,883	-33,730	0,097	-0,039
-498,868	-158,555	-0,085	0,004
-497,853	-44,275	-0,028	-0,010
-496,839	76,021	-0,047	-0,036
-495,824	-41,493	0,175	0,066
-494,810	543,945	0,053	0,093
-493,795	800,000	-0,034	0,071
-492,781	-200,000	-0,001	-0,036
-491,766	464,602	-0,029	-0,048
-490,751	-116,464	-0,128	-0,017
-489,737	159,612	0,069	-0,071
-488,722	-124,703	-0,139	-0,016
-487,708	350,999	0,045	-0,066
-486,693	-51,747	-0,097	0,033
-485,678	143,312	0,016	0,016
-484,664	-200,000	0,033	-0,179
-483,649	65,151	-0,062	-0,047
-482,635	-77,811	-0,080	0,020
-481,620	-200,000	0,053	0,215
-480,605	-200,000	-0,013	0,125
-479,591	800,000	-0,034	-0,081
-478,576	321,941	0,038	0,053
-477,562	-138,750	-0,080	0,006
-476,547	-40,350	0,111	0,042
-475,532	800,000	-0,029	-0,075
-474,518	363,340	0,071	0,105
-473,503	-200,000	0,000	0,008
-472,489	-144,798	-0,037	-0,002
-471,474	24,482	0,114	0,069
-470,459	176,090	0,072	-0,077
-469,445	-200,000	-0,007	-0,052
-468,430	-200,000	-0,002	0,041
-467,416	-52,883	0,090	0,030
-466,401	629,406	0,093	0,174
-465,386	-157,263	-0,034	-0,001
-464,372	176,252	0,043	-0,046
-463,357	-8,991	0,088	-0,043
-462,343	24,831	-0,073	-0,044
-461,328	-200,000	0,003	0,015
-460,313	-102,483	-0,057	-0,010
-459,299	-200,000	-0,023	0,076
-458,284	-142,596	0,184	-0,013
-457,270	67,872	-0,110	-0,083
-456,255	448,403	-0,071	-0,116
-455,241	-14,580	-0,077	-0,036
-454,226	-200,000	0,015	-0,055
-453,211	-82,683	-0,093	0,022
-452,197	-15,087	0,037	0,017
-451,182	-40,041	-0,064	-0,024
-450,168	627,137	-0,058	-0,109
-449,153	112,592	-0,080	-0,072
-448,138	-49,519	0,118	0,041
-447,124	142,964	-0,129	-0,126
-446,109	-200,000	0,024	-0,119
-445,095	34,018	-0,037	0,024
-444,080	-200,000	-0,013	0,125
-443,065	533,567	-0,016	-0,027
-442,051	-200,000	0,018	-0,063
-441,036	-200,000	0,027	-0,169
-440,022	309,398	-0,127	-0,176
-439,007	-0,027	0,056	-0,029
-437,992	132,341	-0,058	0,055
-436,978	164,107	-0,143	0,148
-435,963	-200,000	0,017	0,091
-434,949	-46,026	-0,078	-0,028
-433,934	-200,000	-0,001	0,020
-432,919	61,813	-0,145	0,106
-431,905	-95,929	-0,043	0,008
-430,890	-147,615	-0,020	0,001
-429,876	-20,270	0,141	0,064
-428,861	133,913	0,102	0,097
-427,846	800,000	0,035	0,079
-426,832	-200,000	0,001	-0,037
-425,817	-140,458	-0,092	-0,007
-424,803	-200,000	0,008	0,078
-423,788	180,905	0,040	-0,044
-422,773	-74,907	-0,065	-0,017
-421,759	-134,982	-0,107	-0,009
-420,744	-200,000	0,005	0,085
-419,730	-123,783	-0,065	0,007
-418,715	-89,904	-0,096	0,020
-417,701	-200,000	-0,010	-0,032
-416,686	338,567	-0,050	0,072
-415,671	13,183	0,135	-0,077
-414,657	4,352	0,100	0,054
-413,642	124,523	0,015	-0,014
-412,628	-35,508	-0,078	-0,031
-411,613	47,784	-0,104	-0,071
-410,598	-98,050	0,028	-0,005
-409,584	-150,316	0,132	-0,007
-408,569	113,418	0,062	-0,056
-407,555	-0,270	0,038	-0,020
-406,540	-129,578	0,128	-0,013
-405,525	44,299	-0,108	-0,073
-404,511	-200,000	0,001	-0,209
-403,496	800,000	-0,084	-0,197
-402,482	-46,993	-0,057	0,021
-401,467	-200,000	0,005	0,092
-400,452	17,265	0,157	0,091
-399,438	-17,082	0,161	0,074
-398,423	-116,633	0,020	0,003
-397,409	-96,978	-0,091	0,017
-396,394	43,417	0,161	-0,108
-395,379	15,024	0,107	0,061
-394,365	-200,000	-0,003	0,067
-393,350	-82,145	0,103	-0,024
-392,336	537,884	-0,059	0,104
-391,321	79,451	0,076	-0,060
-390,306	483,337	0,016	-0,026
-389,292	-106,307	-0,017	-0,003
-388,277	800,000	0,041	-0,113
-387,263	129,840	0,111	-0,104
-386,248	-17,114	-0,051	0,024
-385,233	800,000	0,064	0,150
-384,219	-26,580	0,075	0,032
-383,204	110,194	0,067	-0,059
-382,190	-39,750	-0,103	-0,039
-381,175	-27,767	0,077	-0,033
-380,160	268,905	-0,060	0,077
-379,146	-20,867	0,144	0,065
-378,131	-21,047	0,084	0,038
-377,117	419,680	0,052	-0,082
-376,102	396,074	0,063	0,097
-375,088	-159,135	-0,024	0,001
-374,073	-200,000	-0,007	0,162
-373,058	-12,202	-0,102	-0,049
-372,044	-36,373	0,127	0,050
-371,029	222,133	0,108	0,128
-370,015	39,391	0,120	-0,078
-369,000	108,001	-0,119	-0,104
-367,985	-72,573	0,110	-0,030
-366,971	800,000	-0,033	0,069
-365,956	423,542	-0,086	-0,137
-364,942	-59,856	0,056	-0,018
-363,927	243,461	0,070	0,087
-362,912	-36,201	0,045	0,018
-361,898	800,000	0,018	0,045
-360,883	-110,329	-0,063	0,009
-359,869	-124,531	-0,132	-0,015
-358,854	-59,591	0,057	-0,018
-357,839	26,193	0,126	0,077
-356,825	20,260	-0,215	0,127
-355,810	-33,000	0,017	0,007
-354,796	-157,895	0,096	0,004
-353,781	-154,233	-0,117	-0,006
-352,766	263,406	0,090	-0,114
-351,752	155,699	0,067	0,068
-350,737	800,000	0,047	-0,108
-349,723	246,407	0,054	0,067
-348,708	-121,569	-0,080	-0,010
-347,693	378,925	0,019	-0,028
-346,679	800,000	0,020	-0,064
-345,664	217,360	-0,070	-0,082
-344,650	-200,000	0,010	-0,034
-343,635	-17,229	0,081	-0,037
-342,620	-200,000	-0,014	0,067
-341,606	-51,718	-0,066	0,022
-340,591	-146,464	0,056	0,004
-339,577	4,121	0,081	-0,043
-338,562	239,714	-0,070	0,086
-337,548	-48,075	-0,034	0,012
-336,533	-200,000	0,014	-0,112
-335,518	800,000	-0,040	-0,113
-334,504	177,774	-0,017	-0,018
-333,489	-126,203	0,139	0,015
-332,475	-48,254	0,048	-0,017
-331,460	-200,000	0,009	0,100
-330,445	-200,000	0,001	0,213
-329,431	-200,000	-0,004	0,039
-328,416	-200,000	-0,019	0,066
-327,402	-171,808	0,059	-0,001
-326,387	100,878	-0,121	0,104
-325,372	-113,090	-0,097	0,014
-324,358	800,000	-0,005	0,016
-323,343	-38,180	-0,039	0,015
-322,329	320,389	0,065	0,090
-321,314	-166,553	0,108	-0,003
-320,299	316,809	-0,084	0,117
-319,285	-200,000	-0,015	-0,082
-318,270	800,000	0,044	0,119
-317,256	800,000	-0,067	0,143
-316,241	507,708	0,014	0,024
-315,226	609,390	-0,030	-0,055
-314,212	-200,000	0,020	0,080
-313,197	-90,407	0,023	-0,005
-312,183	404,021	0,069	-0,106
-311,168	155,224	0,072	-0,073
-310,153	800,000	-0,055	-0,128
-309,139	-200,000	0,004	-0,133
-308,124	223,688	0,098	0,116
-307,110	800,000	-0,007	-0,022
-306,095	-200,000	-0,006	-0,064
-305,080	-146,598	-0,043	-0,003
-304,066	800,000	-0,009	0,020
-303,051	-7,990	0,100	-0,049
-302,037	-112,915	-0,057	-0,008
-301,022	-200,000	0,003	-0,053
-300,008	-200,000	0,003	0,157
-298,993	-187,333	-0,110	-0,001
-297,978	-47,748	-0,098	0,035
-296,964	48,356	0,084	0,058
-295,949	25,253	0,056	0,034
-294,935	-31,765	-0,076	-0,031
-293,920	104,802	-0,080	-0,069
-292,905	1,793	0,115	-0,060
-291,891	-52,628	-0,049	0,017
-290,876	-200,000	0,028	0,121
-289,862	93,932	-0,061	-0,051
-288,847	-123,753	0,050	0,006
-287,832	-200,000	-0,002	-0,066
-286,818	49,245	0,026	-0,018
-285,803	48,159	0,105	-0,072
-284,789	257,651	0,114	0,144
-283,774	-200,000	-0,026	0,096
-282,759	-5,731	0,170	0,085
-281,745	96,741	-0,083	0,069
-280,730	11,880	-0,096	0,054
-279,716	-200,000	-0,029	-0,097
-278,701	65,006	-0,017	0,013
-277,686	-65,024	0,105	-0,031
-276,672	467,256	-0,013	0,021
-275,657	156,802	0,080	-0,081
-274,643	286,903	-0,076	-0,100
-273,628	800,000	-0,021	0,046
-272,613	-30,311	0,094	0,039
-271,599	29,641	0,042	-0,026
-270,584	-87,891	0,086	-0,019
-269,570	-200,000	0,002	0,032
-268,555	800,000	-0,034	0,093
-267,540	-42,090	-0,059	-0,022
-266,526	54,027	0,031	-0,022
-265,511	753,504	-0,030	-0,060
-264,497	294,986	-0,023	-0,030
-263,482	-134,994	-0,076	-0,007
-262,467	-11,416	-0,097	-0,047
-261,453	-139,880	0,177	-0,014
-260,438	30,876	-0,045	-0,028
-259,424	169,338	-0,117	0,122
-258,409	800,000	-0,026	-0,066
-257,395	98,740	-0,028	0,024
-256,380	445,163	-0,039	0,063
-255,365	-182,929	-0,136	-0,002
-254,351	-33,879	0,115	-0,046
-253,336	-106,759	-0,108	-0,017
-252,322	-15,882	-0,050	-0,023
-251,307	565,090	-0,085	-0,151
-250,292	513,146	-0,004	-0,007
-249,278	-200,000	-0,006	0,106
-248,263	159,486	0,050	0,051
-247,249	67,143	0,111	0,083
-246,234	800,000	-0,037	-0,076
-245,219	800,000	0,002	-0,005
-244,205	800,000	-0,053	-0,154
-243,190	4,340	-0,072	-0,038
-242,176	70,988	0,006	0,005
-241,161	-51,366	0,121	-0,041
-240,146	-63,133	-0,047	-0,014
-239,132	800,000	0,071	-0,228
-238,117	-200,000	0,009	0,041
-237,103	-200,000	-0,004	-0,038
-236,088	-127,026	-0,205	-0,022
-235,073	212,820	-0,070	-0,081
-234,059	-200,000	0,001	-0,026
-233,044	43,446	-0,041	0,027
-232,030	-156,283	-0,089	0,004
-231,015	-13,442	-0,054	-0,025
-230,000	486,036	-0,074	0,124
-228,986	-148,941	0,067	0,004
-227,971	-200,000	0,012	-0,054
-226,957	-159,490	0,019	0,001
-225,942	-130,581	0,024	0,002
-224,927	-200,000	-0,011	0,151
-223,913	6,038	-0,200	-0,108
-222,898	800,000	0,077	-0,172
-221,884	-88,631	0,134	-0,029
-220,869	-200,000	0,009	0,063
-219,855	-170,172	0,038	-0,001
-218,840	-200,000	-0,018	0,081
-217,825	-166,478	-0,053	-0,002
-216,811	257,673	0,098	-0,123
-215,796	643,831	-0,025	-0,047
-214,782	157,407	0,066	-0,067
-213,767	288,091	0,131	-0,173
-212,752	141,338	0,059	-0,057
-211,738	335,926	0,024	0,034
-210,723	-200,000	-0,007	0,163
-209,709	-7,491	-0,049	0,024
-208,694	49,262	-0,023	0,016
-207,679	-29,598	-0,038	-0,016
-206,665	-161,659	0,124	-0,005
-205,650	-33,854	-0,133	0,053
-204,636	65,014	-0,020	0,014
-203,621	34,608	-0,067	0,043
-202,606	-200,000	-0,015	-0,052
-201,592	-90,171	-0,075	-0,016
-200,577	800,000	-0,047	-0,140
-199,563	-24,458	-0,111	0,048
-198,548	800,000	-0,008	0,018
-197,533	-200,000	-0,004	0,042
-196,519	-127,076	0,067	0,007
-195,504	404,663	-0,041	0,064
-194,490	-200,000	-0,006	0,076
-193,475	58,440	0,081	-0,058
-192,460	-200,000	-0,004	0,051
-191,446	114,134	0,021	-0,019
-190,431	129,478	0,106	0,098
-189,417	-200,000	0,022	0,114
-188,402	528,670	-0,061	0,106
-187,387	800,000	-0,024	-0,056
-186,373	25,934	-0,079	0,048
-185,358	87,795	-0,011	-0,009
-184,344	-168,976	0,154	-0,004
-183,329	258,169	0,042	0,053
-182,315	176,178	0,018	-0,019
-181,300	287,556	-0,049	-0,065
-180,285	-200,000	-0,011	0,110
-179,271	154,925	0,038	-0,039
-178,256	-200,000	0,002	0,123
-177,242	-138,604	-0,100	-0,008
-176,227	-93,319	0,085	-0,017
-175,212	-199,441	0,024	0,000
-174,198	197,598	0,070	-0,078
-173,183	250,953	-0,045	0,056
-172,169	-200,000	-0,016	-0,117
-171,154	42,133	-0,074	-0,049
-170,139	16,654	0,037	0,021
-169,125	-98,690	0,160	0,029
-168,110	19,852	-0,157	0,092
-167,096	42,394	-0,141	0,093
-166,081	49,857	0,158	0,109
-165,066	-200,000	0,018	-0,233
-164,052	-84,808	0,089	0,020
-163,037	4,344	0,121	0,064
-162,023	-91,410	0,063	0,013
-161,008	65,829	-0,097	-0,071
-159,993	-66,539	-0,092	0,026
-158,979	421,898	0,032	0,050
-157,964	3,285	-0,123	-0,065
-156,950	591,520	0,068	-0,123
-155,935	311,726	-0,048	-0,065
-154,920	560,404	0,093	-0,164
-153,906	436,464	0,072	-0,115
-152,891	-79,900	-0,042	-0,010
-151,877	175,168	0,040	-0,042
-150,862	-4,712	0,105	0,052
-149,847	586,684	0,015	0,026
-148,833	382,761	0,029	0,043
-147,818	-196,194	0,023	-0,000
-146,804	-200,000	0,028	0,100
-145,789	-200,000	-0,019	0,097
-144,775	-106,629	-0,168	0,027
-143,760	-68,904	-0,120	-0,033
-142,745	88,357	-0,111	-0,090
-141,731	-200,000	-0,001	-0,009
-140,716	632,605	0,131	0,243
-139,702	30,647	-0,051	0,032
-138,687	-77,823	-0,038	0,010
-137,672	-200,000	0,029	0,274
-136,658	800,000	-0,044	-0,119
-135,643	63,503	0,078	0,057
-134,629	57,823	-0,088	0,063
-133,614	273,648	0,098	0,127
-132,599	-200,000	-0,013	-0,084
-131,585	-156,533	-0,068	-0,003
-130,570	575,457	-0,037	-0,066
-129,556	580,924	-0,016	-0,029
-128,541	766,389	-0,031	0,061
-127,526	-28,896	-0,039	-0,016
-126,512	800,000	-0,055	0,125
-125,497	-51,376	0,178	0,060
-124,483	-200,000	0,022	0,093
-123,468	-200,000	-0,006	0,081
-122,453	-200,000	0,015	0,108
-121,439	-200,000	-0,028	0,100
-120,424	602,273	-0,039	-0,071
-119,410	117,032	0,037	-0,033
-118,395	646,087	0,102	0,190
-117,380	-46,782	0,073	0,026
-116,366	90,847	0,105	0,086
-115,351	286,308	0,014	0,018
-114,337	-200,000	0,015	-0,086
-113,322	-200,000	0,005	-0,047
-112,307	-200,000	0,011	-0,071
-111,293	15,041	0,059	0,033
-110,278	-152,383	-0,019	0,001
-109,264	65,984	0,118	0,087
-108,249	-200,000	-0,045	-0,179
-107,234	16,828	-0,018	0,010
-106,220	-47,319	-0,201	-0,071
-105,205	-182,800	-0,092	0,001
-104,191	214,036	-0,045	-0,052
-103,176	147,227	-0,072	0,070
-102,162	-134,886	-0,106	0,009
-101,147	61,831	0,106	-0,077
-100,132	155,776	-0,040	0,040
-99,118	-19,150	0,055	-0,025
-98,103	157,300	0,042	0,042
-97,089	217,774	0,016	0,019
-96,074	-18,283	-0,054	-0,025
-95,059	84,152	-0,028	-0,022
-94,045	-200,000	-0,004	-0,060
-93,030	-10,801	-0,073	-0,035
-92,016	210,381	-0,040	0,046
-91,001	-200,000	-0,035	0,206
-89,986	306,280	0,035	0,048
-88,972	109,940	-0,060	-0,053
-87,957	36,662	-0,062	0,040
-86,943	-200,000	-0,001	-0,007
-85,928	549,144	-0,026	-0,046
-84,913	396,165	0,109	0,166
-83,899	-200,000	0,015	-0,059
-82,884	800,000	-0,041	-0,102
-81,870	656,154	0,022	-0,041
-80,855	-93,857	0,016	0,003
-79,840	123,196	-0,106	0,096
-78,826	-200,000	0,021	-0,071
-77,811	96,225	-0,162	-0,134
-76,797	-26,778	0,092	0,039
-75,782	-200,000	0,050	0,165
-74,767	-14,439	0,123	0,057
-73,753	-200,000	-0,013	0,069
-72,738	800,000	0,072	-0,161
-71,724	20,557	0,028	-0,016
-70,709	67,408	-0,076	-0,056
-69,694	433,336	0,058	-0,092
-68,680	64,239	0,044	0,032
-67,665	-25,657	0,097	0,041
-66,651	241,928	0,083	0,101
-65,636	357,307	0,046	-0,066
-64,622	-52,215	-0,089	-0,030
-63,607	800,000	0,074	-0,230
-62,592	178,505	-0,111	-0,118
-61,578	-18,654	0,079	0,036
-60,563	800,000	-0,030	-0,084
-59,549	800,000	-0,045	-0,103
-58,534	-164,848	-1,310	-0,042
-57,519	671,058	-0,780	-1,473
-56,505	-200,000	-0,839	-4,400
-55,490	143,007	0,444	-0,429
-54,476	800,000	4,812	11,983
-53,461	-200,000	13,684	253,195
-52,446	-200,000	689,673	2259,515
-51,432	591,399	1622,250	2917,396
-50,417	119,328	1635,218	1468,317
-49,403	73,262	1288,870	977,196
-48,388	38,113	1024,332	659,969
-47,373	24,379	981,905	587,470
-46,359	23,583	971,511	578,619
-45,344	22,621	967,297	572,941
-44,330	22,573	965,627	571,772
-43,315	22,415	964,532	570,586
-42,300	22,453	963,302	569,958
-41,286	22,425	962,480	569,359
-40,271	22,424	961,527	568,771
-39,257	22,397	960,457	568,026
-38,242	22,373	959,640	567,442
-37,227	22,441	958,583	567,017
-36,213	22,403	957,868	566,448
-35,198	22,343	957,092	565,772
-34,184	22,392	956,602	565,620
-33,169	22,347	955,550	564,829
-32,154	22,418	954,528	564,430
-31,140	22,390	953,611	563,777
-30,125	22,421	953,010	563,499
-29,111	22,375	952,126	562,805
-28,096	22,384	951,319	562,334
-27,082	22,411	950,696	562,032
-26,067	22,434	949,968	561,651
-25,052	22,438	949,163	561,167
-24,038	22,398	948,431	560,582
-23,023	22,425	947,943	560,361
-22,009	22,431	947,309	559,981
-20,994	22,435	946,843	559,697
-19,979	22,385	946,182	559,125
-18,965	22,478	945,395	558,933
-17,950	22,425	944,706	558,336
-16,936	22,331	944,239	557,736
-15,921	22,343	943,529	557,334
-14,906	22,314	942,672	556,715
-13,892	22,285	942,065	556,239
-12,877	22,340	941,473	556,043
-11,863	22,261	940,851	555,404
-10,848	22,294	940,311	555,166
-9,833	22,358	940,023	555,179
-8,819	22,373	939,264	554,756
-7,804	22,296	938,475	554,023
-6,790	22,297	938,007	553,727
-5,775	22,376	937,410	553,604
-4,760	22,350	936,681	553,069
-3,746	22,339	936,233	552,748
-2,731	22,172	935,573	551,810
-1,717	22,096	934,827	551,108
-0,702	22,140	933,909	550,683
0,313	21,924	933,368	550,515
1,327	25,152	931,330	559,412
2,342	34,823	795,988	503,870
3,356	32,762	451,659	282,774
4,371	1,719	293,954	153,050
5,386	-2,881	274,781	138,700
6,400	-4,245	268,855	134,431
7,415	-5,123	266,414	132,392
8,429	-4,637	265,180	132,212
9,444	-4,628	264,351	131,794
10,459	-4,410	263,717	131,666
11,473	-4,577	263,062	131,174
12,488	-4,778	262,715	130,808
13,502	-4,784	262,053	130,461
14,517	-4,843	261,764	130,253
15,531	-4,849	261,374	130,041
16,546	-4,557	260,836	130,024
17,561	-4,662	260,435	129,719
18,575	-4,606	260,209	129,646
19,590	-4,474	259,832	129,564
20,604	-4,609	259,778	129,405
21,619	-4,660	259,313	129,116
22,634	-4,771	259,027	128,863
23,648	-4,802	258,700	128,661
24,663	-4,549	258,359	128,706
25,677	-4,681	258,146	128,470
26,692	-4,756	257,965	128,302
27,707	-4,814	257,644	128,079
28,721	-4,730	257,528	128,085
29,736	-4,689	257,063	127,878
30,750	-4,703	256,814	127,730
31,765	-4,750	256,695	127,619
32,780	-4,698	256,383	127,498
33,794	-4,700	256,251	127,420
34,809	-4,748	255,940	127,211
35,823	-4,803	255,858	127,110
36,838	-4,870	255,471	126,848
37,853	-4,961	255,235	126,639
38,867	-4,729	255,068	126,749
39,882	-4,922	254,916	126,493
40,896	-5,117	254,541	126,124
41,911	-4,962	254,417	126,188
42,926	-5,118	254,193	125,929
43,940	-4,960	253,875	125,899
44,955	-4,983	253,657	125,759
45,969	-4,927	253,388	125,663
46,984	-5,141	253,181	125,363
47,999	-5,335	252,810	125,000
49,013	-5,662	252,678	124,638
50,028	-5,407	252,279	124,652
51,042	-5,557	252,200	124,471
52,057	-5,601	251,968	124,308
53,071	-5,602	251,696	124,162
54,086	-5,546	251,640	124,171
55,101	-5,468	251,556	124,186
56,115	-5,064	251,257	124,377
57,130	-4,697	251,086	124,597
58,144	-4,530	251,005	124,690
59,159	-4,734	250,822	124,412
60,174	-4,628	250,642	124,404
61,188	-4,646	250,336	124,225
62,203	-4,746	250,290	124,105
63,217	-4,675	249,988	124,005
64,232	-4,800	249,911	123,849
65,247	-4,509	249,545	123,905
66,261	-4,585	249,289	123,703
67,276	-4,911	249,119	123,328
68,290	-5,020	248,859	123,096
69,305	-5,107	248,607	122,885
70,320	-5,008	248,359	122,837
71,334	-4,983	248,391	122,863
72,349	-4,740	248,314	123,021
73,363	-4,610	247,984	122,957
74,378	-4,489	247,805	122,960
75,393	-4,519	247,633	122,838
76,407	-4,772	247,430	122,512
77,422	-4,715	247,135	122,403
78,436	-4,598	247,043	122,446
79,451	-4,563	246,846	122,367
80,466	-4,845	246,690	122,040
81,480	-4,967	246,322	121,743
82,495	-4,935	246,143	121,672
83,509	-4,823	245,967	121,669
84,524	-5,086	245,848	121,377
85,539	-5,128	245,565	121,191
86,553	-5,192	245,340	121,015
87,568	-5,154	245,163	120,949
88,582	-5,053	245,049	120,967
89,597	-5,102	244,874	120,828
90,611	-4,931	244,748	120,899
91,626	-4,800	244,599	120,924
92,641	-4,651	244,408	120,944
93,655	-4,733	244,169	120,746
94,670	-4,934	243,931	120,450
95,684	-4,951	243,679	120,301
96,699	-4,939	243,710	120,315
97,714	-5,099	243,392	120,014
98,728	-4,906	243,238	120,088
99,743	-5,208	243,098	119,757
100,757	-5,079	242,747	119,681
101,772	-5,127	242,599	119,557
102,787	-5,272	242,685	119,468
103,801	-5,116	242,336	119,415
104,816	-4,873	242,119	119,499
105,830	-4,948	242,101	119,417
106,845	-4,599	241,833	119,563
107,860	-4,811	241,602	119,263
108,874	-4,874	241,440	119,120
109,889	-5,002	241,259	118,915
110,903	-5,051	241,028	118,750
111,918	-4,984	240,878	118,721
112,933	-5,021	240,791	118,637
113,947	-4,786	240,620	118,735
114,962	-4,819	240,431	118,604
115,976	-4,658	240,154	118,589
116,991	-4,778	240,060	118,434
118,006	-5,002	239,945	118,183
119,020	-4,869	239,649	118,135
120,035	-4,715	239,637	118,245
121,049	-4,762	239,585	118,170
122,064	-4,723	239,201	118,003
123,079	-4,839	238,939	117,768
124,093	-4,844	238,868	117,718
125,108	-5,071	238,597	117,389
126,122	-5,242	238,314	117,101
127,137	-5,492	238,377	116,917
128,151	-5,143	238,145	117,077
129,166	-5,085	237,959	117,023
130,181	-5,120	237,711	116,862
131,195	-5,173	237,441	116,675
132,210	-4,929	237,399	116,842
133,224	-4,967	237,267	116,736
134,239	-4,791	237,001	116,737
135,254	-4,782	236,969	116,718
136,268	-5,024	236,871	116,464
137,283	-5,114	236,394	116,147
138,297	-5,342	236,294	115,903
139,312	-5,195	235,989	115,861
140,327	-5,116	236,032	115,936
141,341	-4,404	236,068	116,516
142,356	-4,548	235,998	116,356
143,370	-4,676	235,752	116,121
144,385	-4,491	235,613	116,191
145,400	-4,396	235,273	116,089
146,414	-4,524	235,285	115,982
147,429	-4,550	234,902	115,762
148,443	-4,340	234,810	115,875
149,458	-4,488	234,523	115,604
150,473	-4,546	234,410	115,492
151,487	-4,827	234,325	115,216
152,502	-4,540	234,176	115,361
153,516	-4,549	234,121	115,316
154,531	-4,528	233,789	115,159
155,546	-4,599	233,521	114,960
156,560	-4,700	233,409	114,814
157,575	-4,828	233,345	114,671
158,589	-4,668	233,088	114,662
159,604	-4,408	233,022	114,825
160,619	-4,220	232,878	114,894
161,633	-4,431	232,685	114,621
162,648	-4,463	232,626	114,557
163,662	-4,438	232,381	114,445
164,677	-4,622	232,203	114,201
165,692	-4,505	232,173	114,269
166,706	-4,312	231,936	114,294
167,721	-4,407	231,805	114,145
168,735	-4,213	231,548	114,161
169,750	-4,266	231,556	114,113
170,764	-4,348	231,416	113,970
171,779	-4,454	231,229	113,784
172,794	-4,318	231,085	113,810
173,808	-4,426	230,715	113,532
174,823	-4,973	230,549	113,012
175,837	-5,181	230,372	112,752
176,852	-4,935	230,334	112,916
177,867	-4,609	230,215	113,103
178,881	-4,446	230,097	113,162
179,896	-4,217	229,970	113,269
180,910	-4,405	229,699	112,979
181,925	-4,230	229,585	113,049
182,940	-4,340	229,466	112,894
183,954	-4,244	229,301	112,878
184,969	-4,297	229,246	112,800
185,983	-4,319	229,195	112,747
186,998	-4,169	228,959	112,738
188,013	-4,372	228,804	112,494
189,027	-4,219	228,604	112,504
190,042	-4,247	228,442	112,393
191,056	-4,279	228,203	112,240
192,071	-4,319	228,143	112,169
193,086	-4,482	228,001	111,963
194,100	-4,210	227,861	112,095
195,115	-4,512	227,448	111,649
196,129	-4,816	227,146	111,257
197,144	-1,948	228,328	114,047
198,159	1,680	229,281	117,329
199,173	4,003	229,914	119,448
200,188	4,515	229,735	119,741
201,202	4,538	229,627	119,692
202,217	4,465	229,570	119,594
203,232	4,745	229,422	119,724
204,246	4,776	229,244	119,644
205,261	4,891	229,140	119,668
206,275	5,002	229,044	119,693
207,290	4,978	228,882	119,579
208,304	4,897	228,655	119,388
209,319	4,875	228,629	119,346
210,334	4,750	228,463	119,152
211,348	4,710	227,989	118,864
212,363	4,382	227,815	118,511
213,377	3,809	227,771	118,038
214,392	3,995	227,598	118,080
215,407	4,127	227,350	118,042
216,421	4,488	227,121	118,189
217,436	4,230	226,993	117,914
218,450	3,795	226,852	117,498
219,465	3,629	226,775	117,321
220,480	3,808	226,688	117,402
221,494	3,986	226,302	117,328
222,509	3,887	226,396	117,290
223,523	4,118	226,233	117,371
224,538	3,980	226,149	117,212
225,553	3,838	226,017	117,025
226,567	4,256	225,820	117,231
227,582	4,420	225,631	117,247
228,596	4,209	225,644	117,083
229,611	3,931	225,488	116,780
230,626	3,942	225,168	116,612
231,640	4,053	225,023	116,611
232,655	4,201	224,923	116,661
233,669	4,606	224,830	116,909
234,684	4,735	224,770	116,964
235,699	4,504	224,563	116,672
236,713	4,144	224,400	116,305
237,728	4,042	224,153	116,090
238,742	3,978	223,963	115,933
239,757	3,965	223,764	115,810
240,772	3,918	223,652	115,706
241,786	3,897	223,585	115,645
242,801	4,307	223,580	115,941
243,815	4,436	223,433	115,951
244,830	4,635	223,119	115,926
245,844	4,234	222,909	115,507
246,859	4,294	222,862	115,517
247,874	4,405	222,663	115,487
248,888	4,330	222,712	115,445
249,903	4,179	222,516	115,221
250,917	4,215	222,263	115,106
251,932	4,400	222,032	115,115
252,947	4,220	221,988	114,948
253,961	4,020	221,870	114,727
254,976	4,146	221,607	114,674
255,990	4,338	221,559	114,782
257,005	4,428	221,369	114,740
258,020	4,287	221,334	114,607
259,034	4,523	221,206	114,706
260,049	4,357	221,077	114,506
261,063	4,362	220,893	114,404
262,078	4,494	220,650	114,366
263,093	4,501	220,683	114,378
264,107	4,591	220,447	114,312
265,122	4,467	220,278	114,123
266,136	4,599	220,203	114,171
267,151	4,574	220,136	114,108
268,166	4,234	219,857	113,702
269,180	3,866	219,699	113,339
270,195	4,056	219,522	113,377
271,209	3,810	219,314	113,079
272,224	4,309	219,296	113,426
273,239	4,243	219,126	113,280
274,253	4,136	218,993	113,123
275,268	3,865	218,716	112,771
276,282	3,659	218,719	112,611
277,297	3,722	218,500	112,534
278,312	4,101	218,262	112,679
279,326	4,175	218,210	112,696
280,341	4,053	218,220	112,602
281,355	4,065	218,030	112,503
282,370	4,205	217,848	112,501
283,384	3,967	217,717	112,249
284,399	3,736	217,490	111,955
285,414	3,931	217,412	112,046
286,428	4,008	217,480	112,127
287,443	4,357	217,187	112,220
288,457	4,359	216,976	112,102
289,472	4,041	216,935	111,840
290,487	3,549	216,627	111,315
291,501	3,796	216,441	111,388
292,516	3,724	216,287	111,247
293,530	3,902	216,198	111,320
294,545	3,761	216,213	111,216
295,560	3,984	216,035	111,276
296,574	4,015	215,846	111,191
297,589	4,010	215,835	111,171
298,603	4,014	215,681	111,085
299,618	4,260	215,407	111,112
300,633	4,134	215,405	111,010
301,647	4,256	215,338	111,053
302,662	4,375	215,200	111,058
303,676	4,407	214,938	110,936
304,691	4,392	214,926	110,909
305,706	4,394	214,814	110,842
306,720	4,450	214,707	110,818
307,735	4,110	214,446	110,429
308,749	4,013	214,340	110,296
309,764	4,151	214,277	110,352
310,779	4,146	214,166	110,281
311,793	4,298	213,841	110,213
312,808	4,165	213,664	110,017
313,822	4,267	213,526	110,009
314,837	4,071	213,449	109,820
315,852	3,882	213,215	109,555
316,866	4,048	213,053	109,580
317,881	4,465	212,968	109,822
318,895	4,520	212,909	109,822
319,910	3,965	212,766	109,344
320,925	3,837	212,508	109,111
321,939	3,533	212,388	108,824
322,954	3,665	212,260	108,842
323,968	4,237	212,302	109,259
324,983	4,229	212,233	109,208
325,997	4,243	212,081	109,131
327,012	4,160	211,845	108,940
328,027	4,217	211,743	108,919
329,041	4,627	211,674	109,163
330,056	4,652	211,555	109,110
331,070	4,065	211,344	108,577
332,085	3,985	211,096	108,384
333,100	4,116	210,922	108,377
334,114	4,192	210,906	108,412
335,129	4,338	210,548	108,321
336,143	4,193	210,585	108,229
337,158	3,967	210,450	107,991
338,173	4,128	210,313	108,024
339,187	4,005	210,150	107,845
340,202	3,871	210,131	107,731
341,216	3,602	210,084	107,509
342,231	3,987	209,857	107,653
343,246	3,784	209,609	107,374
344,260	3,912	209,386	107,340
345,275	4,006	209,462	107,435
346,289	4,180	209,345	107,486
347,304	4,406	209,152	107,535
348,319	4,020	209,052	107,205
349,333	4,085	208,886	107,156
350,348	4,243	208,727	107,175
351,362	4,146	208,771	107,120
352,377	4,154	208,568	107,012
353,392	4,089	208,410	106,876
354,406	4,047	208,479	106,873
355,421	193,622	1346,015	1433,707
356,435	154,475	1484,716	1433,822
