DTS Sentinel unit serial number:	SN410029Multiplexer serial number:	ORYXHardware model number:	OX2-SRSoftware version number:	ORYX F/W v4,00 Oryx Data Collector v3.7.2.0data status	okinstallation	B6 Nyhavnadifferential loss correction	single-endedforward channel	channel 2reverse channel	N/Adate	2023/12/07time	14:35:09forward acquisition time	300,00reverse acquisition time	0,00gamma	499,1914k internal	0,3196k external	0,3196temperature offset calibration	1,0000default loss term (dB/km)	0,3820temperature slope calibration	1,0000multiplexer offset coefficient	1,0000multiplexer slope coefficient	1,0000fibre end	0,00T internal ref (°C)	13,82T ext. ref 1 (°C)	-1,77T ext. ref 2 (°C)	-1,76length (m)	temperature (°C)	Stokes	anti-Stokes-744,400	-200,000	-0,023	0,117
-743,385	-110,458	-0,283	-0,042
-742,371	75,378	0,189	0,145
-741,356	-49,101	-0,240	-0,083
-740,342	519,815	0,100	0,171
-739,327	-86,984	-0,386	-0,085
-738,312	-145,769	0,097	0,006
-737,298	-92,090	-0,237	-0,048
-736,283	800,000	-0,047	-0,144
-735,269	-32,418	-0,141	0,057
-734,254	59,064	-0,022	-0,016
-733,239	-36,505	-0,453	-0,177
-732,225	-98,189	0,257	0,048
-731,210	-200,000	0,012	0,113
-730,196	-200,000	0,031	-0,181
-729,181	800,000	0,039	-0,082
-728,167	-55,131	-0,114	-0,037
-727,152	800,000	0,037	0,110
-726,137	800,000	-0,031	-0,079
-725,123	-60,171	-0,107	-0,033
-724,108	15,359	-0,070	-0,040
-723,094	-71,726	-0,120	-0,032
-722,079	33,103	-0,145	-0,091
-721,064	-123,162	0,172	0,020
-720,050	-86,326	0,028	-0,006
-719,035	-200,000	-0,001	-0,032
-718,021	615,591	-0,023	0,042
-717,006	800,000	0,014	-0,037
-715,991	-200,000	-0,022	-0,160
-714,977	800,000	-0,090	-0,246
-713,962	588,800	0,031	0,055
-712,948	-200,000	-0,013	0,080
-711,933	161,952	-0,113	-0,116
-710,918	55,836	0,060	-0,042
-709,904	-128,477	-0,104	-0,011
-708,889	73,659	-0,118	-0,090
-707,875	38,023	-0,116	-0,075
-706,860	-200,000	0,015	-0,060
-705,845	-45,952	0,076	-0,027
-704,831	-200,000	0,017	-0,071
-703,816	-19,778	-0,163	-0,073
-702,802	600,266	0,081	-0,146
-701,787	304,198	-0,084	-0,113
-700,772	366,770	-0,091	-0,134
-699,758	202,849	0,069	0,078
-698,743	71,979	0,053	-0,040
-697,729	94,546	0,053	-0,044
-696,714	-154,399	-0,014	0,001
-695,699	-68,027	-0,158	-0,044
-694,685	163,937	-0,040	-0,041
-693,670	369,316	-0,039	-0,058
-692,656	105,574	0,074	0,064
-691,641	57,506	0,088	0,062
-690,627	-66,747	-0,169	0,048
-689,612	-171,988	0,076	0,002
-688,597	84,791	-0,059	0,047
-687,583	172,880	-0,160	-0,167
-686,568	-168,890	0,126	0,003
-685,554	-69,924	0,075	-0,020
-684,539	-19,221	-0,044	-0,020
-683,524	-12,522	-0,049	0,023
-682,510	220,965	0,078	0,091
-681,495	140,639	-0,078	0,075
-680,481	-200,000	0,002	-0,082
-679,466	-127,231	0,039	-0,004
-678,451	-85,634	0,089	-0,020
-677,437	800,000	0,037	0,082
-676,422	50,360	0,171	-0,117
-675,408	-52,291	-0,067	0,023
-674,393	-99,944	-0,138	0,025
-673,378	-45,138	-0,173	0,062
-672,364	570,233	-0,016	-0,029
-671,349	765,977	-0,094	-0,187
-670,335	-119,588	-0,108	0,013
-669,320	146,386	0,072	-0,070
-668,305	800,000	0,029	0,084
-667,291	181,396	-0,078	-0,083
-666,276	48,644	-0,009	0,006
-665,262	-97,977	-0,006	-0,001
-664,247	-158,222	-0,109	0,005
-663,232	-111,561	0,083	-0,012
-662,218	-200,000	0,021	-0,076
-661,203	-200,000	-0,005	-0,028
-660,189	651,473	0,041	0,077
-659,174	255,519	-0,093	-0,116
-658,159	-200,000	-0,006	-0,152
-657,145	800,000	0,009	-0,024
-656,130	-200,000	0,028	-0,109
-655,116	-162,506	0,077	0,003
-654,101	-0,155	-0,130	-0,067
-653,086	362,711	-0,006	-0,009
-652,072	-108,784	0,029	-0,004
-651,057	-29,173	-0,122	-0,051
-650,043	-200,000	0,006	-0,069
-649,028	-51,439	0,052	-0,017
-648,014	440,995	0,020	-0,032
-646,999	430,180	0,028	0,044
-645,984	-156,814	-0,101	0,004
-644,970	800,000	-0,012	-0,028
-643,955	260,062	-0,058	-0,073
-642,941	513,091	-0,040	0,067
-641,926	147,477	0,017	-0,016
-640,911	800,000	0,046	0,128
-639,897	-200,000	-0,008	-0,031
-638,882	-200,000	-0,048	0,168
-637,868	146,189	-0,050	-0,048
-636,853	-161,686	-0,148	-0,005
-635,838	-200,000	0,006	0,041
-634,824	800,000	0,026	0,056
-633,809	683,354	-0,020	0,038
-632,795	14,668	0,025	-0,014
-631,780	486,594	0,050	0,083
-630,765	30,750	-0,048	-0,030
-629,751	183,179	-0,001	-0,002
-628,736	-200,000	0,029	-0,102
-627,722	154,245	-0,039	0,038
-626,707	800,000	-0,039	-0,082
-625,692	136,846	-0,064	-0,060
-624,678	-16,740	0,008	0,004
-623,663	800,000	-0,041	-0,107
-622,649	62,423	0,035	0,026
-621,634	-10,937	-0,048	0,023
-620,619	119,508	0,029	-0,026
-619,605	-133,448	0,124	0,011
-618,590	-69,275	-0,017	0,005
-617,576	-200,000	0,007	0,049
-616,561	784,999	-0,029	0,059
-615,546	19,177	-0,034	-0,020
-614,532	54,464	0,009	-0,006
-613,517	800,000	-0,011	0,029
-612,503	80,053	-0,122	0,095
-611,488	201,027	0,141	0,157
-610,474	139,546	-0,114	-0,109
-609,459	-200,000	-0,006	0,029
-608,444	-50,309	-0,017	-0,006
-607,430	111,982	0,048	-0,042
-606,415	-154,535	-0,064	0,003
-605,401	-93,768	0,123	0,024
-604,386	126,337	0,093	0,085
-603,371	15,331	-0,026	-0,015
-602,357	113,128	-0,077	-0,068
-601,342	307,847	-0,043	-0,058
-600,328	196,414	-0,016	-0,018
-599,313	416,669	-0,036	0,056
-598,298	-200,000	0,002	-0,074
-597,284	86,293	-0,059	0,047
-596,269	-18,194	0,090	-0,041
-595,255	-200,000	-0,001	-0,052
-594,240	-200,000	-0,023	-0,077
-593,225	-200,000	-0,001	-0,092
-592,211	-111,260	0,027	0,004
-591,196	800,000	0,033	-0,097
-590,182	-51,008	-0,051	-0,017
-589,167	-200,000	-0,028	0,138
-588,152	-200,000	0,022	-0,119
-587,138	382,237	-0,069	-0,103
-586,123	452,640	0,043	-0,070
-585,109	149,821	-0,102	-0,100
-584,094	-200,000	0,025	-0,123
-583,079	-17,699	-0,076	-0,034
-582,065	126,842	0,064	-0,059
-581,050	518,118	0,053	0,090
-580,036	-200,000	-0,000	-0,116
-579,021	800,000	-0,045	-0,126
-578,006	18,067	-0,079	0,045
-576,992	40,146	-0,140	-0,091
-575,977	-95,582	0,165	0,032
-574,963	113,673	0,146	-0,128
-573,948	800,000	0,032	0,076
-572,934	23,627	0,061	0,037
-571,919	-46,985	-0,096	-0,034
-570,904	-200,000	-0,036	-0,141
-569,890	-22,988	0,038	-0,017
-568,875	-200,000	0,015	0,092
-567,861	-200,000	0,017	-0,123
-566,846	56,212	-0,146	0,103
-565,831	102,607	0,066	-0,056
-564,817	-91,112	0,221	0,045
-563,802	398,787	-0,021	-0,032
-562,788	-102,515	-0,107	0,018
-561,773	800,000	0,025	-0,070
-560,758	-200,000	-0,018	0,117
-559,744	94,931	-0,074	-0,061
-558,729	-5,073	0,144	-0,071
-557,715	644,020	-0,057	-0,106
-556,700	256,162	0,040	-0,050
-555,685	800,000	0,019	0,040
-554,671	800,000	0,010	-0,029
-553,656	90,455	0,059	0,047
-552,642	-200,000	0,005	-0,054
-551,627	-110,606	-0,114	0,017
-550,612	-25,222	-0,130	-0,055
-549,598	41,679	-0,041	-0,027
-548,583	-23,342	0,033	0,014
-547,569	604,388	-0,074	-0,134
-546,554	373,560	0,056	-0,083
-545,539	-200,000	0,001	0,047
-544,525	-36,321	-0,075	-0,029
-543,510	-78,047	0,094	0,023
-542,496	-200,000	0,024	0,099
-541,481	32,577	-0,098	-0,061
-540,466	-200,000	-0,019	-0,083
-539,452	-35,466	0,067	0,026
-538,437	-200,000	-0,004	0,041
-537,423	-200,000	-0,004	-0,051
-536,408	649,161	0,048	0,090
-535,393	-129,738	-0,080	0,008
-534,379	53,845	-0,141	0,097
-533,364	-3,446	-0,111	0,056
-532,350	269,611	0,083	0,105
-531,335	-200,000	0,011	0,060
-530,321	74,310	-0,085	-0,065
-529,306	57,774	0,040	0,028
-528,291	78,656	0,050	0,039
-527,277	233,545	0,050	-0,059
-526,262	-141,314	-0,126	0,009
-525,248	800,000	0,015	-0,043
-524,233	-72,427	-0,210	0,056
-523,218	800,000	0,025	0,069
-522,204	800,000	-0,027	0,074
-521,189	800,000	0,047	0,128
-520,175	-33,109	0,105	-0,042
-519,160	-112,111	0,003	0,000
-518,145	-71,709	-0,020	0,005
-517,131	172,252	-0,080	0,083
-516,116	81,715	-0,054	0,042
-515,102	483,747	-0,068	0,112
-514,087	800,000	-0,022	-0,052
-513,072	778,624	0,051	-0,101
-512,058	-93,605	-0,128	-0,025
-511,043	87,695	-0,054	0,043
-510,029	259,923	0,046	0,058
-509,014	551,674	0,024	0,042
-507,999	-200,000	0,006	0,095
-506,985	3,326	-0,071	0,037
-505,970	-111,176	-0,129	-0,019
-504,956	306,957	0,037	0,050
-503,941	-71,757	0,168	0,045
-502,926	-121,707	-0,150	-0,018
-501,912	-171,079	-0,069	0,002
-500,897	-200,000	0,002	0,068
-499,883	377,932	0,064	-0,095
-498,868	-200,000	-0,058	-0,205
-497,853	-200,000	-0,013	-0,122
-496,839	230,432	0,040	-0,048
-495,824	56,836	-0,021	-0,015
-494,810	800,000	-0,032	0,086
-493,795	745,823	0,020	0,040
-492,781	800,000	0,032	-0,081
-491,766	-149,815	-0,102	-0,006
-490,751	800,000	-0,058	-0,146
-489,737	-93,795	0,121	-0,024
-488,722	700,384	-0,027	0,051
-487,708	-200,000	0,011	0,135
-486,693	-96,972	-0,068	0,013
-485,678	800,000	-0,028	0,085
-484,664	210,855	-0,021	-0,023
-483,649	315,558	-0,015	0,020
-482,635	-196,056	-0,048	0,000
-481,620	-53,936	0,079	-0,026
-480,605	94,828	0,083	-0,068
-479,591	-200,000	0,013	0,064
-478,576	-7,383	-0,015	0,007
-477,562	146,875	-0,109	0,106
-476,547	800,000	-0,017	0,047
-475,532	690,428	0,007	0,014
-474,518	-200,000	-0,016	0,118
-473,503	303,149	0,035	0,047
-472,489	97,332	-0,018	0,015
-471,474	191,293	0,030	-0,032
-470,459	-86,908	-0,098	0,021
-469,445	-89,879	0,129	-0,027
-468,430	129,623	0,057	0,053
-467,416	331,145	0,109	-0,152
-466,401	800,000	0,070	0,164
-465,386	403,983	0,095	0,145
-464,372	800,000	-0,032	0,084
-463,357	800,000	-0,051	0,109
-462,343	296,811	0,023	-0,030
-461,328	-122,333	-0,067	0,008
-460,313	-132,540	-0,049	-0,005
-459,299	-200,000	-0,007	-0,067
-458,284	-200,000	-0,025	-0,104
-457,270	-55,390	0,086	-0,028
-456,255	-200,000	-0,003	-0,039
-455,241	-200,000	0,017	-0,113
-454,226	-87,987	-0,084	0,018
-453,211	-118,103	0,113	0,014
-452,197	-200,000	-0,007	0,132
-451,182	428,233	-0,073	0,114
-450,168	800,000	0,068	0,147
-449,153	-119,399	0,055	0,007
-448,138	-117,706	-0,046	-0,006
-447,124	170,456	-0,054	-0,056
-446,109	562,295	0,027	0,046
-445,095	-123,176	0,181	0,021
-444,080	-85,175	-0,125	0,028
-443,065	-153,302	0,073	0,004
-442,051	800,000	0,036	-0,085
-441,036	-125,696	-0,199	0,021
-440,022	-16,386	0,055	-0,025
-439,007	346,889	-0,093	0,131
-437,992	-25,012	0,123	-0,052
-436,978	800,000	-0,023	0,053
-435,963	-200,000	-0,002	0,083
-434,949	793,524	0,034	0,069
-433,934	-200,000	-0,013	-0,047
-432,919	76,994	-0,047	-0,036
-431,905	-200,000	-0,020	-0,096
-430,890	716,924	0,046	-0,089
-429,876	97,420	0,107	-0,088
-428,861	-56,816	-0,089	-0,028
-427,846	-116,934	-0,070	0,009
-426,832	156,944	0,010	-0,010
-425,817	126,408	-0,044	-0,040
-424,803	800,000	-0,026	-0,065
-423,788	-200,000	-0,009	-0,038
-422,773	140,001	-0,111	0,105
-421,759	-200,000	-0,006	0,038
-420,744	800,000	-0,059	0,166
-419,730	139,576	0,082	-0,078
-418,715	-64,044	-0,196	-0,057
-417,701	-98,607	-0,050	-0,009
-416,686	-200,000	0,003	-0,011
-415,671	118,760	0,091	0,081
-414,657	234,244	0,052	0,062
-413,642	17,847	0,043	-0,025
-412,628	220,679	0,096	-0,111
-411,613	294,378	-0,060	0,079
-410,598	203,437	-0,028	-0,032
-409,584	285,651	0,053	0,069
-408,569	-82,780	0,076	0,017
-407,555	-42,922	-0,073	0,027
-406,540	368,331	0,068	-0,099
-405,525	-102,716	-0,036	-0,006
-404,511	57,991	-0,056	0,039
-403,496	-113,298	0,055	-0,008
-402,482	366,950	0,026	-0,039
-401,467	561,762	0,057	0,099
-400,452	-200,000	0,014	0,054
-399,438	800,000	-0,014	0,030
-398,423	-200,000	0,011	-0,059
-397,409	36,535	0,136	0,086
-396,394	-101,497	0,062	-0,011
-395,379	800,000	0,037	0,094
-394,365	124,029	0,029	0,026
-393,350	-200,000	0,022	0,136
-392,336	800,000	0,052	0,129
-391,321	381,582	0,038	-0,056
-390,306	800,000	-0,024	-0,066
-389,292	56,971	-0,157	-0,109
-388,277	22,164	0,041	-0,024
-387,263	174,961	0,100	-0,104
-386,248	-96,335	0,138	0,026
-385,233	310,175	-0,021	0,028
-384,219	180,074	0,062	0,065
-383,204	90,417	-0,033	-0,026
-382,190	-61,113	0,049	-0,015
-381,175	3,330	-0,096	-0,050
-380,160	682,543	-0,041	0,077
-379,146	-195,232	0,127	0,001
-378,131	42,143	0,046	-0,030
-377,117	-200,000	-0,012	-0,166
-376,102	209,750	-0,059	-0,067
-375,088	-200,000	-0,007	-0,035
-374,073	-30,002	-0,089	-0,036
-373,058	-89,026	0,007	-0,001
-372,044	-1,641	-0,076	-0,038
-371,029	174,175	-0,079	0,082
-370,015	-200,000	0,000	0,077
-369,000	-97,843	0,109	0,020
-367,985	105,791	-0,032	0,027
-366,971	154,674	-0,034	-0,034
-365,956	-200,000	0,006	0,104
-364,942	-80,591	0,106	0,025
-363,927	-116,179	0,173	0,023
-362,912	800,000	-0,007	0,016
-361,898	-70,161	-0,112	0,030
-360,883	153,795	0,014	-0,014
-359,869	800,000	-0,057	-0,163
-358,854	-200,000	-0,024	0,095
-357,839	-43,103	0,115	0,041
-356,825	-50,792	0,057	0,019
-355,810	-67,132	-0,022	0,006
-354,796	-114,862	0,119	0,016
-353,781	237,064	0,103	-0,122
-352,766	92,282	0,051	0,041
-351,752	600,686	-0,029	0,052
-350,737	122,984	0,054	0,048
-349,723	-200,000	-0,014	0,151
-348,708	-200,000	-0,009	0,049
-347,693	-200,000	0,034	0,000
-346,679	142,310	-0,070	0,067
-345,664	107,358	-0,078	-0,066
-344,650	72,520	-0,053	-0,040
-343,635	-200,000	0,014	-0,137
-342,620	-28,261	0,116	0,048
-341,606	-200,000	0,008	-0,099
-340,591	-200,000	-0,081	0,000
-339,577	47,210	-0,119	0,079
-338,562	-134,924	-0,087	-0,007
-337,548	-200,000	0,005	-0,039
-336,533	800,000	0,045	0,097
-335,518	800,000	-0,022	-0,057
-334,504	148,081	-0,034	-0,033
-333,489	-67,661	0,034	-0,009
-332,475	63,811	-0,081	-0,058
-331,460	-31,905	0,093	-0,037
-330,445	-26,263	0,095	-0,040
-329,431	-41,711	0,019	-0,007
-328,416	-15,841	0,131	0,059
-327,402	71,523	-0,134	0,100
-326,387	-114,893	0,084	0,011
-325,372	-129,229	-0,185	-0,018
-324,358	-69,471	0,083	-0,023
-323,343	14,018	-0,038	-0,021
-322,329	-29,450	0,025	-0,010
-321,314	225,382	0,065	0,076
-320,299	-3,772	-0,100	0,050
-319,285	-200,000	-0,002	-0,026
-318,270	-118,632	0,105	0,013
-317,256	484,814	-0,066	-0,108
-316,241	-200,000	0,000	0,083
-315,226	36,476	0,140	0,088
-314,212	-200,000	-0,011	-0,074
-313,197	-7,445	-0,090	-0,044
-312,183	748,285	0,041	-0,080
-311,168	-64,165	0,150	0,044
-310,153	-14,309	-0,040	0,018
-309,139	-2,935	0,027	0,014
-308,124	-117,668	0,120	0,015
-307,110	800,000	0,049	0,113
-306,095	40,863	0,067	0,043
-305,080	-200,000	0,000	-0,075
-304,066	548,203	-0,044	-0,075
-303,051	349,937	-0,074	-0,105
-302,037	-200,000	0,023	-0,091
-301,022	64,432	0,151	0,109
-300,008	-179,139	-0,109	-0,002
-298,993	706,608	0,047	0,090
-297,978	-200,000	-0,009	-0,158
-296,964	-200,000	-0,041	-0,187
-295,949	800,000	-0,034	-0,100
-294,935	800,000	0,037	-0,105
-293,920	-18,960	0,072	-0,032
-292,905	-200,000	0,026	-0,087
-291,891	-51,146	0,115	-0,038
-290,876	705,693	-0,035	0,067
-289,862	-200,000	0,002	-0,101
-288,847	5,609	-0,103	-0,054
-287,832	800,000	0,030	-0,088
-286,818	188,964	-0,028	-0,030
-285,803	571,946	0,012	0,022
-284,789	-200,000	0,026	0,142
-283,774	-148,612	-0,139	-0,008
-282,759	-4,686	0,133	-0,065
-281,745	448,688	-0,078	-0,124
-280,730	172,030	0,059	0,061
-279,716	187,948	-0,011	0,012
-278,701	800,000	-0,023	-0,064
-277,686	-175,427	0,103	0,002
-276,672	730,862	-0,036	-0,070
-275,657	495,187	-0,003	-0,006
-274,643	-200,000	0,030	-0,124
-273,628	-82,079	-0,112	0,026
-272,613	800,000	0,026	-0,067
-271,599	-178,213	-0,073	0,001
-270,584	5,641	0,069	0,036
-269,570	-200,000	-0,012	0,055
-268,555	-200,000	-0,008	0,205
-267,540	-32,974	-0,130	0,052
-266,526	-34,767	0,077	-0,030
-265,511	-200,000	-0,001	0,105
-264,497	-200,000	-0,010	-0,071
-263,482	133,396	0,021	0,020
-262,467	509,719	-0,044	0,074
-261,453	184,686	-0,066	0,070
-260,438	-169,479	0,068	0,002
-259,424	285,561	-0,029	0,037
-258,409	-83,498	-0,047	0,011
-257,395	402,973	0,032	-0,049
-256,380	800,000	-0,053	0,147
-255,365	-159,822	0,101	0,004
-254,351	-160,654	-0,031	-0,001
-253,336	800,000	0,019	0,053
-252,322	72,558	-0,037	0,027
-251,307	263,697	0,007	-0,009
-250,292	89,054	0,114	-0,090
-249,278	-200,000	0,060	-0,000
-248,263	-37,111	0,122	0,046
-247,249	150,073	-0,101	-0,097
-246,234	-200,000	-0,013	0,065
-245,219	-200,000	0,008	-0,126
-244,205	-200,000	-0,015	-0,049
-243,190	184,224	-0,077	0,082
-242,176	309,417	-0,099	0,132
-241,161	-200,000	0,004	0,089
-240,146	179,815	-0,062	0,065
-239,132	-3,497	-0,120	0,060
-238,117	-200,000	-0,008	-0,060
-237,103	-119,732	-0,111	-0,013
-236,088	800,000	-0,047	0,111
-235,073	-95,287	0,116	0,022
-234,059	-200,000	0,010	-0,048
-233,044	263,043	0,012	-0,015
-232,030	195,972	0,022	-0,024
-231,015	87,393	-0,080	-0,063
-230,000	721,727	0,017	-0,033
-228,986	-128,704	-0,050	0,005
-227,971	361,676	0,020	0,029
-226,957	-200,000	0,003	-0,040
-225,942	495,045	0,051	-0,084
-224,927	-13,502	-0,062	0,028
-223,913	178,565	-0,114	-0,119
-222,898	235,210	-0,056	-0,066
-221,884	-19,746	0,168	0,074
-220,869	-200,000	-0,014	-0,049
-219,855	-98,208	0,101	0,018
-218,840	-84,711	0,052	0,012
-217,825	612,241	0,048	-0,087
-216,811	291,435	-0,066	0,086
-215,796	90,294	-0,050	-0,040
-214,782	800,000	0,064	0,145
-213,767	488,862	-0,021	-0,034
-212,752	50,515	0,064	-0,043
-211,738	451,924	-0,057	-0,089
-210,723	-112,007	0,067	0,010
-209,709	-47,899	-0,078	0,027
-208,694	591,042	0,040	-0,070
-207,679	-200,000	-0,001	0,112
-206,665	-58,768	0,128	-0,039
-205,650	-200,000	0,012	-0,130
-204,636	216,491	0,022	-0,025
-203,621	800,000	-0,021	0,049
-202,606	-200,000	-0,033	-0,121
-201,592	24,725	-0,089	-0,053
-200,577	-200,000	0,006	-0,080
-199,563	-131,908	0,075	-0,007
-198,548	179,018	-0,118	-0,123
-197,533	-81,985	0,088	-0,020
-196,519	-77,510	0,051	-0,012
-195,504	241,376	-0,111	-0,133
-194,490	351,653	0,130	-0,185
-193,475	800,000	0,059	0,145
-192,460	-102,711	-0,157	0,026
-191,446	32,276	0,080	0,049
-190,431	-200,000	0,028	0,188
-189,417	120,766	-0,046	0,041
-188,402	168,414	-0,039	-0,040
-187,387	149,440	0,041	0,040
-186,373	166,049	-0,031	-0,031
-185,358	239,993	0,070	0,083
-184,344	-200,000	-0,002	0,048
-183,329	379,135	0,054	0,079
-182,315	-9,197	0,117	0,055
-181,300	-36,474	-0,147	0,056
-180,285	517,685	0,052	-0,086
-179,271	147,073	-0,116	-0,111
-178,256	-29,140	0,124	-0,050
-177,242	-161,971	0,125	-0,004
-176,227	800,000	0,024	-0,059
-175,212	800,000	0,010	-0,026
-174,198	800,000	0,036	0,097
-173,183	448,257	0,026	-0,041
-172,169	-78,602	0,008	-0,002
-171,154	37,242	0,063	-0,040
-170,139	-12,355	-0,059	0,027
-169,125	-6,976	0,023	0,011
-168,110	-200,000	-0,042	0,221
-167,096	800,000	-0,028	-0,060
-166,081	182,194	0,120	0,126
-165,066	214,252	-0,028	-0,031
-164,052	-136,902	-0,043	0,003
-163,037	-65,298	-0,078	0,022
-162,023	800,000	0,049	0,122
-161,008	-24,275	-0,118	0,050
-159,993	800,000	-0,010	0,026
-158,979	259,274	0,062	-0,076
-157,964	30,346	-0,059	0,036
-156,950	301,343	-0,069	-0,090
-155,935	-200,000	0,034	0,112
-154,920	-1,282	0,114	0,057
-153,906	-1,680	0,112	0,056
-152,891	-200,000	-0,002	0,012
-151,877	-12,311	-0,076	-0,035
-150,862	-200,000	0,018	-0,102
-149,847	-200,000	-0,006	0,032
-148,833	-22,794	0,191	-0,082
-147,818	6,432	-0,059	0,031
-146,804	-200,000	-0,044	0,144
-145,789	-200,000	0,013	0,054
-144,775	-132,890	-0,048	-0,004
-143,760	800,000	0,021	-0,061
-142,745	88,700	-0,042	0,033
-141,731	-127,009	-0,096	-0,010
-140,716	-128,455	0,153	0,015
-139,702	-200,000	0,014	0,051
-138,687	-119,683	0,148	-0,018
-137,672	129,183	-0,013	-0,012
-136,658	800,000	0,029	0,067
-135,643	189,493	0,074	0,079
-134,629	200,374	0,049	-0,053
-133,614	15,251	-0,079	-0,044
-132,599	339,350	0,079	-0,109
-131,585	-200,000	-0,009	0,065
-130,570	310,736	-0,039	-0,052
-129,556	-113,871	-0,063	-0,009
-128,541	-51,221	0,107	0,035
-127,526	800,000	-0,018	-0,037
-126,512	794,517	0,027	0,053
-125,497	-114,884	-0,106	0,014
-124,483	-52,337	0,083	-0,027
-123,468	107,581	-0,079	-0,067
-122,453	-109,847	0,133	-0,020
-121,439	220,769	-0,008	0,010
-120,424	-133,615	0,042	0,004
-119,410	261,338	0,082	0,101
-118,395	-200,000	-0,027	0,095
-117,380	146,366	-0,032	-0,030
-116,366	-200,000	0,004	0,044
-115,351	-200,000	0,005	0,018
-114,337	222,828	-0,039	-0,045
-113,322	-58,556	0,065	0,020
-112,307	-200,000	0,039	0,124
-111,293	-31,056	-0,079	0,031
-110,278	137,781	-0,033	-0,031
-109,264	-139,866	0,029	0,002
-108,249	-8,183	0,018	-0,009
-107,234	-200,000	0,023	0,142
-106,220	145,010	0,049	-0,047
-105,205	409,181	0,026	0,039
-104,191	-133,125	0,053	-0,005
-103,176	800,000	-0,020	0,052
-102,162	20,567	0,118	-0,067
-101,147	22,565	-0,103	-0,059
-100,132	44,242	-0,012	-0,008
-99,118	-200,000	-0,027	-0,089
-98,103	-44,129	-0,036	-0,013
-97,089	534,286	0,043	0,073
-96,074	588,757	-0,070	0,124
-95,059	242,539	-0,054	0,064
-94,045	-103,243	0,057	0,010
-93,030	-4,814	-0,115	0,056
-92,016	-160,457	-0,184	-0,007
-91,001	10,203	-0,088	-0,047
-89,986	216,360	0,043	-0,049
-88,972	492,111	-0,014	0,022
-87,957	211,629	-0,092	0,103
-86,943	-200,000	-0,005	0,027
-85,928	516,451	-0,043	0,072
-84,913	428,759	0,066	0,101
-83,899	-200,000	0,012	-0,052
-82,884	134,323	0,008	-0,008
-81,870	800,000	0,053	0,111
-80,855	-200,000	-0,020	-0,112
-79,840	-200,000	-0,016	0,082
-78,826	15,672	0,177	-0,098
-77,811	800,000	-0,038	-0,097
-76,797	-200,000	0,017	-0,133
-75,782	393,111	0,040	-0,060
-74,767	43,632	0,032	-0,020
-73,753	-200,000	-0,006	0,122
-72,738	-200,000	-0,027	-0,121
-71,724	778,091	-0,043	-0,085
-70,709	216,477	-0,038	-0,043
-69,694	66,606	0,166	-0,119
-68,680	710,145	0,046	0,087
-67,665	-61,543	0,153	0,045
-66,651	232,683	-0,041	-0,048
-65,636	-200,000	0,012	-0,190
-64,622	-90,555	-0,048	0,010
-63,607	110,117	0,050	-0,043
-62,592	-200,000	0,003	-0,149
-61,578	-138,249	-0,023	-0,002
-60,563	800,000	-0,049	0,109
-59,549	61,021	0,177	0,124
-58,534	29,987	-2,105	-1,270
-57,519	-200,000	-0,193	-0,691
-56,505	-200,000	-1,373	-5,226
-55,490	175,660	0,878	0,904
-54,476	800,000	5,404	12,001
-53,461	-200,000	18,499	302,209
-52,446	800,000	733,625	2243,215
-51,432	534,521	1645,584	2776,263
-50,417	76,181	1674,502	1255,529
-49,403	20,842	1595,399	914,062
-48,388	15,500	1549,458	860,240
-47,373	17,566	1540,791	865,973
-46,359	16,677	1530,269	855,508
-45,344	14,000	1525,588	839,271
-44,330	13,874	1523,638	837,527
-43,315	13,799	1522,222	836,336
-42,300	13,763	1520,705	835,289
-41,286	13,756	1519,202	834,394
-40,271	13,831	1517,549	833,830
-39,257	13,838	1515,986	832,973
-38,242	13,855	1514,508	832,213
-37,227	13,832	1513,112	831,299
-36,213	13,819	1511,646	830,397
-35,198	13,768	1510,425	829,436
-34,184	13,868	1509,163	829,212
-33,169	13,832	1507,794	828,243
-32,154	13,877	1506,198	827,563
-31,140	13,885	1504,759	826,777
-30,125	13,904	1503,542	826,172
-29,111	13,903	1502,165	825,378
-28,096	13,874	1501,169	824,650
-27,082	13,867	1500,284	824,096
-26,067	13,847	1498,889	823,200
-25,052	13,885	1497,700	822,705
-24,038	13,843	1496,528	821,818
-23,023	13,887	1495,385	821,377
-22,009	13,896	1494,177	820,725
-20,994	13,902	1493,401	820,296
-19,979	13,860	1492,547	819,587
-18,965	13,864	1491,463	818,979
-17,950	13,841	1490,394	818,245
-16,936	13,753	1489,640	817,362
-15,921	13,757	1488,445	816,691
-14,906	13,738	1487,130	815,844
-13,892	13,751	1486,127	815,324
-12,877	13,755	1485,193	814,801
-11,863	13,670	1484,293	813,855
-10,848	13,711	1483,376	813,521
-9,833	13,846	1482,436	813,643
-8,819	13,791	1481,573	812,866
-7,804	13,724	1480,389	811,850
-6,790	13,747	1479,556	811,478
-5,775	13,791	1478,775	811,232
-4,760	13,795	1477,896	810,737
-3,746	13,777	1476,683	809,950
-2,731	13,601	1475,743	808,540
-1,717	13,558	1474,469	807,601
-0,702	13,585	1473,588	807,217
0,313	13,391	1472,581	806,933
1,327	17,146	1469,560	823,554
2,342	26,441	1238,710	732,163
3,356	22,665	698,833	404,330
4,371	-7,157	467,740	223,955
5,386	-10,903	439,442	204,822
6,400	-12,225	430,494	198,707
7,415	-12,287	427,009	196,992
8,429	-12,508	424,726	195,604
9,444	-12,481	423,364	194,998
10,459	-12,758	422,145	194,023
11,473	-12,985	421,462	193,368
12,488	-13,103	420,316	192,657
13,502	-13,266	419,444	192,009
14,517	-13,274	418,568	191,580
15,531	-13,361	418,006	191,183
16,546	-13,422	417,324	190,767
17,561	-13,391	416,761	190,537
18,575	-13,483	416,110	190,092
19,590	-13,445	415,624	189,907
20,604	-13,407	415,134	189,720
21,619	-13,450	414,477	189,342
22,634	-13,431	413,872	189,076
23,648	-13,470	413,397	188,788
24,663	-13,600	413,009	188,412
25,677	-13,620	412,724	188,237
26,692	-13,609	412,225	188,008
27,707	-13,637	411,804	187,760
28,721	-13,542	411,257	187,626
29,736	-13,690	410,825	187,207
30,750	-13,531	410,374	187,205
31,765	-13,603	409,968	186,904
32,780	-13,743	409,660	186,553
33,794	-13,550	409,105	186,550
34,809	-13,525	408,623	186,348
35,823	-13,722	408,489	185,999
36,838	-13,691	408,034	185,818
37,853	-13,691	407,626	185,615
38,867	-13,767	407,234	185,316
39,882	-13,734	406,900	185,192
40,896	-13,749	406,404	184,929
41,911	-13,670	406,026	184,849
42,926	-13,720	405,738	184,634
43,940	-13,717	405,134	184,346
44,955	-13,752	404,932	184,190
45,969	-13,890	404,579	183,825
46,984	-14,016	404,174	183,453
47,999	-14,130	403,654	183,044
49,013	-14,255	403,164	182,636
50,028	-14,329	402,916	182,407
51,042	-14,460	402,372	181,967
52,057	-14,429	402,043	181,844
53,071	-14,396	401,776	181,752
54,086	-14,340	401,526	181,698
55,101	-14,179	401,305	181,800
56,115	-14,066	400,956	181,778
57,130	-13,600	400,877	182,356
58,144	-13,290	400,737	182,694
59,159	-13,295	400,217	182,435
60,174	-13,378	399,967	182,192
61,188	-13,269	399,422	182,075
62,203	-13,406	399,012	181,686
63,217	-13,543	398,872	181,423
64,232	-13,506	398,522	181,297
65,247	-13,414	398,289	181,299
66,261	-13,520	397,666	180,857
67,276	-13,744	397,331	180,389
68,290	-13,927	396,879	179,923
69,305	-14,029	396,544	179,619
70,320	-13,934	396,137	179,546
71,334	-13,679	396,165	179,882
72,349	-13,486	395,769	179,943
73,363	-13,270	395,349	180,023
74,378	-13,277	394,945	179,815
75,393	-13,462	394,762	179,469
76,407	-13,657	394,455	179,054
77,422	-13,480	393,906	179,025
78,436	-13,560	393,730	178,822
79,451	-13,384	393,381	178,880
80,466	-13,542	392,850	178,414
81,480	-13,777	392,524	177,941
82,495	-13,848	392,293	177,726
83,509	-13,809	391,993	177,626
84,524	-13,739	391,568	177,509
85,539	-14,001	391,313	177,033
86,553	-14,102	391,073	176,776
87,568	-13,928	390,717	176,828
88,582	-13,979	390,639	176,709
89,597	-13,854	390,093	176,611
90,611	-13,743	389,878	176,644
91,626	-13,544	389,597	176,762
92,641	-13,645	389,276	176,468
93,655	-13,571	389,058	176,449
94,670	-13,710	388,626	176,056
95,684	-13,569	388,234	176,047
96,699	-13,707	388,124	175,801
97,714	-13,705	387,746	175,617
98,728	-13,997	387,412	175,070
99,743	-13,858	386,934	175,019
100,757	-13,929	386,634	174,776
101,772	-13,879	386,345	174,694
102,787	-13,879	386,230	174,627
103,801	-13,620	385,781	174,743
104,816	-13,674	385,740	174,640
105,830	-13,503	385,287	174,640
106,845	-13,470	385,122	174,592
107,860	-13,481	384,817	174,424
108,874	-13,494	384,343	174,178
109,889	-13,588	384,064	173,914
110,903	-13,595	383,768	173,756
111,918	-13,757	383,611	173,460
112,933	-13,615	383,369	173,518
113,947	-13,559	383,030	173,421
114,962	-13,509	382,658	173,301
115,976	-13,453	382,409	173,245
116,991	-13,665	382,228	172,876
118,006	-13,521	381,714	172,813
119,020	-13,616	381,596	172,622
120,035	-13,479	381,397	172,692
121,049	-13,443	381,024	172,553
122,064	-13,383	380,747	172,490
123,079	-13,645	380,511	172,033
124,093	-13,701	380,158	171,787
125,108	-13,812	379,750	171,446
126,122	-14,007	379,358	171,006
127,137	-14,233	379,041	170,560
128,151	-14,061	378,810	170,660
129,166	-13,956	378,461	170,621
130,181	-14,005	378,219	170,434
131,195	-14,056	377,913	170,217
132,210	-13,711	377,802	170,588
133,224	-13,612	377,494	170,558
134,239	-13,527	377,389	170,603
135,254	-13,512	377,087	170,470
136,268	-13,582	376,528	170,114
137,283	-14,089	376,092	169,264
138,297	-14,131	375,758	169,045
139,312	-14,098	375,466	168,940
140,327	-13,547	375,406	169,591
141,341	-13,278	375,494	169,953
142,356	-13,132	374,950	169,875
143,370	-13,325	374,863	169,578
144,385	-13,041	374,594	169,798
145,400	-13,177	374,402	169,525
146,414	-13,175	374,013	169,336
147,429	-13,356	373,564	168,892
148,443	-13,223	373,418	168,977
149,458	-13,280	373,096	168,744
150,473	-13,210	372,946	168,749
151,487	-13,393	372,477	168,294
152,502	-13,267	372,351	168,378
153,516	-13,166	372,110	168,380
154,531	-13,161	371,786	168,225
155,546	-13,377	371,549	167,835
156,560	-13,337	371,196	167,711
157,575	-13,527	370,743	167,255
158,589	-13,329	370,604	167,423
159,604	-13,105	370,436	167,609
160,619	-13,049	370,249	167,579
161,633	-13,089	370,029	167,415
162,648	-12,945	369,780	167,465
163,662	-13,303	369,547	166,903
164,677	-13,345	369,244	166,699
165,692	-13,334	368,968	166,573
166,706	-13,067	368,795	166,809
167,721	-13,035	368,751	166,813
168,735	-13,008	368,524	166,729
169,750	-13,110	368,062	166,380
170,764	-13,177	367,739	166,137
171,779	-13,145	367,571	166,086
172,794	-13,149	367,252	165,922
173,808	-13,359	366,939	165,508
174,823	-13,742	366,417	164,789
175,837	-13,909	366,229	164,487
176,852	-13,410	366,254	165,093
177,867	-13,310	366,004	165,088
178,881	-13,172	365,706	165,107
179,896	-13,282	365,508	164,868
180,910	-13,080	365,230	164,975
181,925	-13,216	365,163	164,763
182,940	-13,206	364,826	164,609
183,954	-13,146	364,605	164,567
184,969	-12,976	364,294	164,620
185,983	-12,920	364,125	164,596
186,998	-12,903	363,879	164,491
188,013	-12,948	363,622	164,305
189,027	-12,867	363,297	164,242
190,042	-13,096	363,077	163,850
191,056	-12,966	362,777	163,859
192,071	-12,863	362,614	163,894
193,086	-12,908	362,411	163,734
194,100	-12,681	362,311	163,948
195,115	-12,575	362,054	163,944
196,129	-12,226	362,122	164,381
197,144	-8,069	364,074	170,285
198,159	-4,255	366,096	175,850
199,173	-0,519	367,563	181,088
200,188	0,032	367,497	181,709
201,202	-0,063	367,289	181,475
202,217	-0,186	366,961	181,147
203,232	-0,017	366,942	181,327
204,246	0,232	366,575	181,432
205,261	0,357	366,400	181,480
206,275	0,535	366,321	181,640
207,290	0,552	366,085	181,528
208,304	0,617	365,814	181,456
209,319	0,459	365,423	181,054
210,334	0,549	365,232	181,052
211,348	0,276	364,916	180,550
212,363	0,076	364,528	180,102
213,377	0,023	364,287	179,902
214,392	0,181	364,109	179,989
215,407	0,226	363,918	179,932
216,421	0,194	363,771	179,805
217,436	0,168	363,446	179,598
218,450	-0,078	362,974	179,053
219,465	-0,100	362,795	178,922
220,480	-0,086	362,596	178,826
221,494	-0,046	362,402	178,762
222,509	0,294	362,180	179,042
223,523	0,392	361,979	179,044
224,538	0,039	361,733	178,485
225,553	0,109	361,426	178,401
226,567	-0,040	361,195	178,093
227,582	0,351	361,219	178,556
228,596	0,414	361,096	178,554
229,611	0,380	360,618	178,262
230,626	-0,027	360,087	177,499
231,640	0,097	360,090	177,633
232,655	0,311	360,130	177,891
233,669	0,369	359,942	177,850
234,684	0,755	359,454	178,052
235,699	0,459	359,388	177,652
236,713	0,183	358,961	177,098
237,728	0,147	358,686	176,905
238,742	0,053	358,230	176,552
239,757	-0,047	358,259	176,433
240,772	-0,013	358,011	176,335
241,786	0,046	357,725	176,248
242,801	0,376	357,643	176,581
243,815	0,756	357,515	176,950
244,830	0,614	357,191	176,606
245,844	0,208	356,754	175,898
246,859	0,141	356,483	175,669
247,874	0,407	356,426	175,938
248,888	0,398	356,197	175,799
249,903	0,488	355,905	175,744
250,917	0,257	355,700	175,358
251,932	0,149	355,437	175,086
252,947	-0,053	355,003	174,620
253,961	-0,030	354,719	174,491
254,976	-0,113	354,667	174,353
255,990	0,347	354,635	174,859
257,005	0,473	354,424	174,887
258,020	0,185	354,273	174,461
259,034	0,444	353,927	174,576
260,049	0,438	353,700	174,442
261,063	0,401	353,391	174,231
262,078	0,609	353,275	174,400
263,093	0,834	353,095	174,557
264,107	0,551	352,751	174,043
265,122	0,463	352,598	173,850
266,136	0,629	352,416	173,937
267,151	0,562	352,188	173,731
268,166	0,292	351,678	173,152
269,180	-0,039	351,413	172,623
270,195	0,044	351,161	172,581
271,209	0,128	350,948	172,557
272,224	0,265	350,849	172,651
273,239	0,319	350,636	172,593
274,253	0,369	350,479	172,558
275,268	-0,091	350,015	171,785
276,282	-0,059	349,760	171,681
277,297	0,067	349,355	171,612
278,312	0,102	349,386	171,652
279,326	0,193	349,272	171,686
280,341	0,247	349,084	171,639
281,355	0,264	348,874	171,540
282,370	0,442	348,742	171,663
283,384	0,071	348,348	171,030
284,399	-0,070	347,968	170,668
285,414	-0,033	347,872	170,647
286,428	0,218	347,615	170,793
287,443	0,184	347,649	170,755
288,457	0,337	347,281	170,734
289,472	0,225	346,869	170,388
290,487	-0,160	346,540	169,774
291,501	-0,344	346,479	169,519
292,516	-0,234	346,177	169,482
293,530	-0,107	345,971	169,510
294,545	0,018	345,824	169,565
295,560	0,255	345,493	169,656
296,574	0,278	345,401	169,621
297,589	0,037	345,248	169,258
298,603	0,183	345,029	169,300
299,618	0,285	344,789	169,283
300,633	0,300	344,652	169,217
301,647	0,626	344,486	169,489
302,662	0,491	344,332	169,246
303,676	0,348	344,176	168,993
304,691	0,655	343,846	169,162
305,706	0,518	343,519	168,832
306,720	0,480	343,334	168,682
307,735	0,171	342,992	168,153
308,749	0,170	342,775	168,030
309,764	0,439	342,709	168,284
310,779	0,393	342,361	168,048
311,793	0,259	342,055	167,731
312,808	0,240	341,987	167,662
313,822	0,385	341,745	167,691
314,837	0,415	341,501	167,590
315,852	0,236	341,080	167,168
316,866	0,442	341,093	167,390
317,881	0,468	340,855	167,287
318,895	0,565	340,601	167,256
319,910	0,157	340,294	166,636
320,925	-0,130	339,907	166,113
321,939	-0,353	339,664	165,731
322,954	-0,130	339,697	165,980
323,968	0,259	339,684	166,391
324,983	0,508	339,571	166,597
325,997	0,588	339,256	166,517
327,012	0,671	339,097	166,516
328,027	0,564	338,725	166,200
329,041	0,557	338,692	166,161
330,056	0,621	338,358	166,053
331,070	0,154	337,829	165,263
332,085	-0,219	337,614	164,732
333,100	0,197	337,469	165,105
334,114	0,493	337,464	165,414
335,129	0,516	337,233	165,311
336,143	0,329	336,959	164,956
337,158	0,450	336,699	164,948
338,173	0,209	336,502	164,571
339,187	0,195	336,185	164,387
340,202	0,249	335,889	164,287
341,216	0,044	335,742	163,975
342,231	0,270	335,603	164,141
343,246	0,146	335,240	163,812
344,260	0,222	335,152	163,838
345,275	0,305	335,024	163,852
346,289	0,281	334,917	163,758
347,304	0,322	334,584	163,626
348,319	0,424	334,541	163,701
349,333	0,616	334,248	163,752
350,348	0,517	334,038	163,528
351,362	0,836	333,929	163,807
352,377	0,565	333,797	163,433
353,392	0,573	333,460	163,261
354,406	0,406	333,268	162,972
355,421	197,474	1327,819	1394,032
356,435	161,709	1448,932	1393,978
