DTS Sentinel unit serial number:	SN410029Multiplexer serial number:	ORYXHardware model number:	OX2-SRSoftware version number:	ORYX F/W v4,00 Oryx Data Collector v3.7.2.0data status	okinstallation	B6 Nyhavnadifferential loss correction	single-endedforward channel	channel 2reverse channel	N/Adate	2023/12/09time	20:10:08forward acquisition time	300,00reverse acquisition time	0,00gamma	499,1914k internal	0,3130k external	0,3130temperature offset calibration	1,0000default loss term (dB/km)	0,3820temperature slope calibration	1,0000multiplexer offset coefficient	1,0000multiplexer slope coefficient	1,0000fibre end	0,00T internal ref (°C)	21,25T ext. ref 1 (°C)	5,28T ext. ref 2 (°C)	5,25length (m)	temperature (°C)	Stokes	anti-Stokes-744,400	304,535	0,084	-0,116
-743,385	41,159	-0,254	0,170
-742,371	269,598	0,075	0,099
-741,356	54,255	-0,175	0,125
-740,342	-194,367	0,079	0,000
-739,327	-175,041	-0,269	0,005
-738,312	776,649	-0,008	0,016
-737,298	54,290	-0,244	0,175
-736,283	-8,567	0,136	0,068
-735,269	-32,391	-0,178	0,073
-734,254	-131,660	0,038	0,004
-733,239	-80,459	-0,427	-0,105
-732,225	12,629	0,233	-0,133
-731,210	3,267	-0,078	0,042
-730,196	800,000	-0,053	-0,168
-729,181	-17,244	-0,037	0,017
-728,167	305,526	-0,057	0,079
-727,152	526,883	-0,095	0,167
-726,137	-200,000	0,006	-0,134
-725,123	-200,000	-0,004	-0,031
-724,108	258,161	-0,104	-0,133
-723,094	365,337	0,066	-0,100
-722,079	-200,000	0,001	-0,020
-721,064	-79,267	-0,083	0,021
-720,050	175,037	0,054	0,059
-719,035	-127,856	-0,103	0,011
-718,021	654,625	-0,060	0,116
-717,006	3,661	-0,117	0,063
-715,991	-59,889	-0,044	-0,014
-714,977	-155,277	-0,078	0,004
-713,962	-47,761	-0,009	0,003
-712,948	-179,804	-0,086	0,001
-711,933	65,619	0,086	0,064
-710,918	-64,742	0,076	0,023
-709,904	211,885	-0,077	0,090
-708,889	-78,929	-0,056	-0,014
-707,875	-47,973	-0,121	-0,043
-706,860	-153,248	-0,062	0,003
-705,845	-28,746	0,072	-0,030
-704,831	220,683	0,084	0,100
-703,816	-97,152	0,051	0,010
-702,802	-51,889	-0,161	-0,055
-701,787	-116,236	-0,152	0,021
-700,772	800,000	0,030	0,063
-699,758	283,348	0,033	0,045
-698,743	214,144	-0,097	-0,114
-697,729	-73,785	0,135	0,036
-696,714	-200,000	-0,008	-0,088
-695,699	15,195	-0,021	-0,012
-694,685	-133,800	0,023	-0,002
-693,670	-47,922	-0,047	-0,017
-692,656	800,000	-0,026	0,067
-691,641	-103,389	0,023	0,004
-690,627	177,421	0,092	0,100
-689,612	-73,580	-0,054	0,014
-688,597	67,571	-0,111	-0,084
-687,583	-200,000	0,004	-0,043
-686,568	-153,058	-0,167	0,009
-685,554	59,320	-0,107	0,078
-684,539	-48,699	0,066	-0,023
-683,524	-200,000	0,014	0,150
-682,510	457,187	0,085	0,141
-681,495	-44,837	-0,054	0,020
-680,481	-72,278	-0,102	-0,028
-679,466	-200,000	-0,032	-0,221
-678,451	146,313	-0,079	-0,079
-677,437	68,625	-0,018	0,014
-676,422	275,336	-0,115	0,152
-675,408	-200,000	0,011	-0,147
-674,393	337,325	0,060	-0,087
-673,378	41,706	-0,091	-0,061
-672,364	-200,000	0,003	-0,062
-671,349	-32,765	0,008	-0,003
-670,335	-35,780	-0,084	0,033
-669,320	800,000	0,030	0,074
-668,305	-94,371	0,079	-0,016
-667,291	800,000	-0,064	-0,166
-666,276	72,106	-0,114	-0,088
-665,262	32,137	0,046	-0,029
-664,247	61,561	-0,107	0,079
-663,232	-157,897	-0,140	-0,006
-662,218	110,000	0,078	0,069
-661,203	800,000	-0,016	0,051
-660,189	19,500	-0,123	-0,073
-659,174	162,353	-0,094	-0,097
-658,159	-34,072	-0,047	0,019
-657,145	11,782	-0,083	0,047
-656,130	800,000	0,044	-0,121
-655,116	234,166	0,019	-0,023
-654,101	188,500	-0,075	0,083
-653,086	54,446	-0,106	-0,076
-652,072	-200,000	-0,024	-0,129
-651,057	248,772	-0,020	-0,025
-650,043	-194,463	0,141	-0,001
-649,028	311,263	-0,028	0,040
-648,014	-3,538	0,082	0,042
-646,999	614,072	0,032	0,060
-645,984	-200,000	0,001	-0,052
-644,970	-200,000	-0,005	-0,035
-643,955	13,469	-0,161	-0,092
-642,941	-18,658	0,069	0,032
-641,926	800,000	0,018	0,050
-640,911	-91,938	-0,007	0,001
-639,897	-155,989	0,036	-0,002
-638,882	618,674	0,098	-0,183
-637,868	-45,707	-0,062	0,023
-636,853	190,880	-0,108	-0,120
-635,838	-200,000	-0,025	-0,183
-634,824	49,751	-0,054	-0,038
-633,809	-63,602	0,124	0,037
-632,795	132,502	-0,117	0,112
-631,780	-37,982	0,070	0,027
-630,765	-12,737	0,048	-0,023
-629,751	-200,000	-0,024	-0,099
-628,736	318,879	0,135	-0,190
-627,722	6,811	-0,122	-0,067
-626,707	105,061	0,066	-0,058
-625,692	800,000	-0,022	0,064
-624,678	800,000	-0,022	-0,056
-623,663	-55,346	-0,105	0,035
-622,649	-200,000	-0,025	-0,092
-621,634	-200,000	-0,014	0,049
-620,619	-12,211	-0,124	-0,060
-619,605	34,977	0,086	0,056
-618,590	26,612	-0,032	0,020
-617,576	82,218	-0,064	0,051
-616,561	659,565	0,062	-0,120
-615,546	-78,018	-0,158	-0,040
-614,532	800,000	-0,047	-0,153
-613,517	312,462	-0,047	-0,066
-612,503	11,629	0,077	-0,043
-611,488	129,100	0,073	-0,069
-610,474	-200,000	0,021	0,159
-609,459	-86,106	-0,068	0,015
-608,444	99,218	0,056	-0,047
-607,430	31,597	-0,040	0,026
-606,415	800,000	-0,045	-0,146
-605,401	-200,000	-0,006	-0,068
-604,386	800,000	0,074	0,177
-603,371	234,237	0,055	0,068
-602,357	131,146	0,083	0,079
-601,342	-200,000	0,010	-0,050
-600,328	-56,907	-0,229	0,074
-599,313	279,758	0,052	0,069
-598,298	12,913	-0,035	-0,020
-597,284	800,000	0,006	-0,015
-596,269	800,000	0,022	-0,050
-595,255	-60,554	0,087	0,027
-594,240	-85,862	-0,155	0,035
-593,225	55,443	-0,121	-0,086
-592,211	-73,472	0,116	-0,031
-591,196	105,557	0,032	-0,028
-590,182	-95,594	0,018	0,003
-589,167	-109,952	-0,094	0,014
-588,152	-143,840	0,040	0,003
-587,138	30,231	-0,044	0,028
-586,123	-200,000	-0,023	-0,074
-585,109	355,916	0,072	-0,107
-584,094	82,129	-0,104	-0,083
-583,079	60,806	0,078	0,057
-582,065	92,999	-0,013	0,011
-581,050	117,076	0,116	0,105
-580,036	-78,507	-0,032	0,008
-579,021	800,000	-0,045	-0,107
-578,006	-50,854	-0,106	-0,036
-576,992	-87,151	-0,066	-0,015
-575,977	504,380	0,049	0,083
-574,963	-132,899	0,138	0,013
-573,948	-200,000	0,006	0,035
-572,934	800,000	-0,010	-0,022
-571,919	-125,139	-0,116	0,013
-570,904	-24,657	-0,124	-0,054
-569,890	-200,000	-0,002	-0,075
-568,875	-200,000	-0,000	-0,006
-567,861	-1,398	-0,104	0,054
-566,846	-200,000	-0,030	0,217
-565,831	-200,000	-0,006	0,037
-564,817	176,377	-0,038	0,041
-563,802	-168,310	-0,164	0,005
-562,788	-200,000	0,020	0,102
-561,773	-200,000	-0,003	0,043
-560,758	-200,000	0,004	-0,044
-559,744	-200,000	0,019	0,147
-558,729	749,862	-0,029	0,058
-557,715	-6,295	0,004	0,002
-556,700	-79,092	-0,053	0,013
-555,685	62,592	-0,101	0,074
-554,671	-104,605	0,054	0,009
-553,656	-200,000	0,007	0,103
-552,642	800,000	-0,014	0,044
-551,627	21,856	-0,023	0,014
-550,612	800,000	0,026	0,061
-549,598	-52,048	-0,010	0,003
-548,583	-200,000	0,008	-0,030
-547,569	-200,000	0,014	-0,138
-546,554	-9,800	0,078	0,038
-545,539	-78,641	-0,106	-0,026
-544,525	800,000	0,028	-0,059
-543,510	-133,452	-0,075	0,007
-542,496	-200,000	-0,010	-0,139
-541,481	800,000	-0,045	-0,103
-540,466	-177,509	0,046	-0,001
-539,452	-1,317	-0,097	0,050
-538,437	-200,000	0,018	0,127
-537,423	-59,508	-0,080	0,025
-536,408	272,787	-0,085	-0,111
-535,393	-200,000	0,011	-0,078
-534,379	63,908	-0,100	0,074
-533,364	-189,651	-0,069	0,001
-532,350	-142,363	0,073	-0,005
-531,335	-200,000	0,007	-0,040
-530,321	-137,698	-0,079	0,006
-529,306	-200,000	-0,008	0,073
-528,291	22,652	-0,085	-0,051
-527,277	205,329	0,052	0,060
-526,262	-103,241	-0,065	-0,011
-525,248	-78,775	-0,061	-0,015
-524,233	-200,000	-0,030	0,102
-523,218	-16,935	-0,202	0,094
-522,204	-200,000	-0,006	-0,152
-521,189	-200,000	0,001	-0,059
-520,175	332,900	-0,042	-0,060
-519,160	800,000	0,060	0,150
-518,145	128,503	0,076	0,071
-517,131	17,072	-0,060	0,035
-516,116	800,000	0,047	0,121
-515,102	4,356	0,014	-0,008
-514,087	484,928	0,054	-0,092
-513,072	-200,000	-0,016	-0,114
-512,058	-200,000	-0,002	0,025
-511,043	800,000	0,010	0,025
-510,029	800,000	0,021	0,067
-509,014	-200,000	0,030	0,105
-507,999	800,000	-0,041	0,095
-506,985	120,802	-0,021	0,019
-505,970	800,000	-0,064	-0,174
-504,956	293,655	-0,022	-0,030
-503,941	-200,000	0,019	0,078
-502,926	-200,000	0,001	-0,119
-501,912	800,000	-0,050	0,136
-500,897	-200,000	0,004	0,206
-499,883	-200,000	-0,002	-0,074
-498,868	-159,972	-0,125	-0,005
-497,853	-80,327	-0,024	-0,006
-496,839	347,929	0,030	-0,044
-495,824	-11,830	0,085	0,041
-494,810	141,002	-0,078	0,076
-493,795	349,680	0,060	-0,087
-492,781	29,950	0,153	0,096
-491,766	-200,000	-0,028	0,111
-490,751	82,158	0,120	0,096
-489,737	17,609	0,054	0,031
-488,722	242,639	-0,054	0,067
-487,708	250,634	-0,035	0,044
-486,693	314,024	0,020	-0,028
-485,678	67,711	0,062	0,047
-484,664	-27,533	-0,031	0,013
-483,649	94,763	-0,047	-0,040
-482,635	-200,000	0,001	0,027
-481,620	-200,000	-0,002	0,010
-480,605	495,300	0,136	0,230
-479,591	39,727	-0,027	-0,018
-478,576	-200,000	0,007	0,097
-477,562	61,553	-0,073	-0,053
-476,547	-200,000	0,001	-0,029
-475,532	163,070	0,082	0,085
-474,518	-200,000	-0,008	0,054
-473,503	344,733	0,090	0,130
-472,489	125,609	-0,095	0,089
-471,474	-200,000	0,026	-0,124
-470,459	-200,000	0,003	0,129
-469,445	468,532	-0,047	0,077
-468,430	-21,363	-0,062	0,028
-467,416	421,090	0,054	-0,085
-466,401	800,000	0,071	0,155
-465,386	-68,162	0,215	-0,061
-464,372	367,332	-0,019	0,029
-463,357	-107,523	-0,146	0,023
-462,343	800,000	0,034	-0,105
-461,328	-200,000	0,002	0,013
-460,313	279,126	0,113	-0,149
-459,299	-107,080	-0,012	0,002
-458,284	-200,000	0,007	0,025
-457,270	-48,580	-0,120	0,042
-456,255	123,540	-0,019	0,017
-455,241	-200,000	0,015	-0,119
-454,226	800,000	0,024	-0,066
-453,211	10,308	-0,125	0,069
-452,197	800,000	-0,028	-0,059
-451,182	-61,565	0,109	0,034
-450,168	-200,000	0,012	0,044
-449,153	200,283	0,092	-0,104
-448,138	260,228	0,056	0,071
-447,124	-200,000	-0,007	0,071
-446,109	-80,625	-0,108	-0,026
-445,095	-131,377	0,142	-0,014
-444,080	-200,000	-0,002	-0,049
-443,065	-73,605	-0,108	0,029
-442,051	478,386	-0,072	-0,120
-441,036	-182,921	-0,122	-0,002
-440,022	-127,930	0,070	-0,007
-439,007	-133,925	-0,099	-0,009
-437,992	-200,000	-0,045	0,203
-436,978	430,612	0,054	0,087
-435,963	27,430	0,078	-0,048
-434,949	344,901	0,033	-0,047
-433,934	-200,000	-0,047	-0,155
-432,919	-200,000	0,002	-0,009
-431,905	327,002	0,061	0,087
-430,890	-200,000	0,017	0,060
-429,876	-200,000	-0,001	0,015
-428,861	-200,000	-0,010	0,066
-427,846	47,256	0,038	0,026
-426,832	-89,215	-0,056	-0,012
-425,817	-71,675	-0,094	0,026
-424,803	673,483	0,018	-0,035
-423,788	116,123	0,094	0,084
-422,773	-200,000	0,022	0,108
-421,759	5,307	-0,019	0,010
-420,744	330,555	-0,090	0,127
-419,730	-19,734	-0,012	0,005
-418,715	800,000	-0,066	0,167
-417,701	642,477	0,019	0,036
-416,686	237,044	0,090	0,109
-415,671	-14,762	0,105	-0,049
-414,657	473,763	0,095	-0,158
-413,642	-82,692	-0,032	0,007
-412,628	260,282	-0,049	-0,063
-411,613	259,458	-0,078	-0,099
-410,598	81,625	0,026	-0,021
-409,584	-101,186	0,079	0,014
-408,569	800,000	-0,018	0,049
-407,555	-153,938	0,058	0,003
-406,540	430,806	0,049	-0,079
-405,525	-200,000	-0,024	0,081
-404,511	800,000	-0,026	-0,055
-403,496	-200,000	-0,001	-0,011
-402,482	-3,765	-0,027	0,014
-401,467	800,000	0,029	0,092
-400,452	-200,000	-0,002	0,071
-399,438	-200,000	0,016	-0,058
-398,423	64,192	0,082	-0,060
-397,409	117,103	0,054	-0,049
-396,394	-200,000	0,041	-0,146
-395,379	-142,998	0,225	-0,016
-394,365	800,000	-0,008	0,024
-393,350	192,684	-0,059	-0,066
-392,336	-99,690	0,128	-0,023
-391,321	-37,684	-0,147	0,057
-390,306	-200,000	-0,010	0,061
-389,292	254,387	-0,064	0,080
-388,277	-79,246	-0,034	0,008
-387,263	-77,761	0,011	-0,003
-386,248	800,000	0,020	0,048
-385,233	-55,338	0,103	-0,034
-384,219	428,971	-0,062	0,098
-383,204	416,902	0,047	-0,074
-382,190	800,000	-0,039	-0,087
-381,175	-2,458	0,050	0,025
-380,160	-200,000	-0,004	-0,020
-379,146	-200,000	0,001	0,022
-378,131	-113,565	0,081	-0,012
-377,117	-6,697	0,036	-0,018
-376,102	800,000	0,010	-0,023
-375,088	688,865	-0,016	0,032
-374,073	-37,701	0,148	0,057
-373,058	614,978	-0,018	0,034
-372,044	98,183	0,097	0,081
-371,029	107,713	0,063	0,055
-370,015	49,067	0,065	-0,045
-369,000	-65,801	0,007	-0,002
-367,985	800,000	0,010	0,032
-366,971	-200,000	0,013	-0,071
-365,956	567,888	0,046	-0,082
-364,942	15,710	0,135	0,078
-363,927	-119,976	-0,103	-0,013
-362,912	70,301	0,130	-0,098
-361,898	-200,000	0,031	0,114
-360,883	-200,000	-0,002	-0,039
-359,869	-200,000	-0,025	-0,177
-358,854	800,000	0,038	-0,085
-357,839	9,882	0,063	-0,035
-356,825	-200,000	0,014	0,055
-355,810	-56,079	-0,047	0,015
-354,796	-200,000	0,025	-0,128
-353,781	-47,000	0,091	-0,032
-352,766	-200,000	0,000	0,087
-351,752	-58,717	0,085	0,027
-350,737	73,117	-0,106	-0,081
-349,723	331,535	-0,045	0,063
-348,708	800,000	0,011	0,030
-347,693	-138,979	-0,021	-0,002
-346,679	-27,087	-0,064	-0,027
-345,664	800,000	-0,065	-0,194
-344,650	-74,223	0,206	0,054
-343,635	88,821	-0,074	0,060
-342,620	89,283	0,008	0,007
-341,606	-200,000	-0,011	0,142
-340,591	606,045	-0,040	-0,073
-339,577	133,321	-0,052	-0,049
-338,562	70,176	-0,163	0,123
-337,548	-73,923	-0,158	-0,042
-336,533	-71,978	0,073	-0,020
-335,518	545,094	0,061	0,107
-334,504	623,068	-0,054	-0,101
-333,489	800,000	-0,042	-0,119
-332,475	205,239	-0,011	-0,012
-331,460	-200,000	-0,003	-0,044
-330,445	800,000	-0,094	-0,231
-329,431	188,020	-0,075	-0,082
-328,416	-84,339	0,176	-0,040
-327,402	607,411	-0,017	0,031
-326,387	-200,000	-0,006	-0,035
-325,372	-45,844	0,164	-0,059
-324,358	800,000	-0,050	-0,110
-323,343	205,266	0,030	-0,034
-322,329	-111,900	-0,010	0,001
-321,314	393,813	0,105	0,160
-320,299	-163,285	-0,087	-0,003
-319,285	800,000	0,046	0,095
-318,270	-175,370	-0,095	0,002
-317,256	14,920	-0,127	-0,073
-316,241	-74,887	-0,047	0,012
-315,226	-123,474	0,149	0,017
-314,212	-200,000	0,004	0,063
-313,197	-138,822	0,049	-0,004
-312,183	-160,741	-0,169	-0,006
-311,168	-88,953	-0,056	-0,012
-310,153	800,000	0,012	0,033
-309,139	-200,000	0,006	-0,117
-308,124	37,662	0,155	-0,100
-307,110	-133,371	-0,053	0,005
-306,095	-22,423	0,131	-0,058
-305,080	-139,190	0,098	-0,008
-304,066	-200,000	0,025	-0,117
-303,051	416,984	0,066	0,103
-302,037	-200,000	0,002	0,064
-301,022	800,000	-0,053	-0,126
-300,008	-41,501	0,063	0,024
-298,993	-40,073	-0,128	0,048
-297,978	482,669	0,095	0,158
-296,964	-53,993	-0,051	-0,017
-295,949	106,204	-0,080	-0,069
-294,935	93,988	-0,118	0,098
-293,920	-150,742	0,080	0,004
-292,905	800,000	-0,049	-0,153
-291,891	800,000	-0,034	0,088
-290,876	-200,000	0,006	0,073
-289,862	-73,506	-0,101	0,027
-288,847	-58,312	-0,043	0,013
-287,832	-125,335	-0,164	-0,018
-286,818	-200,000	0,014	0,069
-285,803	-89,153	-0,096	0,021
-284,789	-190,607	0,106	-0,001
-283,774	249,778	-0,117	0,146
-282,759	-75,574	0,097	-0,025
-281,745	-131,932	0,053	-0,005
-280,730	-186,265	-0,141	-0,001
-279,716	-200,000	0,003	0,015
-278,701	800,000	0,025	0,074
-277,686	-63,404	-0,068	0,020
-276,672	-3,553	0,078	-0,039
-275,657	800,000	-0,036	-0,101
-274,643	333,738	0,049	0,069
-273,628	668,922	0,023	0,043
-272,613	65,577	-0,100	-0,074
-271,599	-8,205	0,118	-0,058
-270,584	360,437	0,059	-0,087
-269,570	306,977	-0,040	-0,054
-268,555	-2,422	-0,113	-0,058
-267,540	142,530	0,029	0,028
-266,526	-200,000	0,037	0,125
-265,511	800,000	-0,086	-0,202
-264,497	-200,000	0,010	0,087
-263,482	800,000	0,053	-0,129
-262,467	800,000	0,041	0,104
-261,453	-115,603	0,103	0,014
-260,438	204,537	-0,075	-0,085
-259,424	-91,185	0,046	0,010
-258,409	800,000	0,044	-0,110
-257,395	-200,000	-0,001	-0,031
-256,380	-139,710	0,118	-0,009
-255,365	402,367	-0,028	0,044
-254,351	167,211	0,042	-0,044
-253,336	-200,000	-0,008	0,075
-252,322	-200,000	-0,017	-0,085
-251,307	800,000	0,033	-0,080
-250,292	-200,000	0,005	0,057
-249,278	-200,000	-0,008	-0,080
-248,263	-9,430	0,055	-0,027
-247,249	-64,969	0,120	-0,035
-246,234	800,000	-0,053	-0,136
-245,219	428,116	-0,057	0,090
-244,205	-59,130	-0,065	-0,020
-243,190	228,961	-0,034	0,040
-242,176	442,814	0,026	0,042
-241,161	-79,019	0,072	0,018
-240,146	-200,000	0,009	0,040
-239,132	-200,000	0,012	0,064
-238,117	112,074	-0,043	-0,038
-237,103	9,506	-0,073	0,040
-236,088	324,568	-0,113	0,157
-235,073	-49,591	0,089	0,031
-234,059	69,299	-0,095	-0,071
-233,044	-96,354	-0,069	-0,013
-232,030	310,602	0,049	0,067
-231,015	67,682	0,130	-0,097
-230,000	633,634	-0,052	0,097
-228,986	175,854	0,018	0,019
-227,971	-6,717	0,114	0,056
-226,957	281,189	0,052	0,068
-225,942	-63,228	0,128	-0,038
-224,927	-129,435	-0,117	0,012
-223,913	-22,438	0,080	-0,035
-222,898	-200,000	0,016	-0,154
-221,884	43,199	0,036	0,024
-220,869	-107,243	-0,149	0,024
-219,855	182,711	0,060	0,065
-218,840	800,000	-0,043	0,107
-217,825	-137,106	-0,084	0,007
-216,811	-200,000	-0,017	0,099
-215,796	-68,857	-0,072	-0,020
-214,782	723,094	0,026	0,051
-213,767	800,000	-0,034	-0,090
-212,752	-200,000	0,004	0,137
-211,738	-134,449	0,045	-0,004
-210,723	62,252	0,034	0,025
-209,709	58,908	-0,096	-0,069
-208,694	219,467	-0,035	-0,041
-207,679	34,335	0,021	-0,013
-206,665	-200,000	0,063	0,254
-205,650	111,023	0,154	0,135
-204,636	-200,000	0,019	0,068
-203,621	-66,880	-0,039	-0,011
-202,606	-200,000	0,003	-0,157
-201,592	180,014	-0,101	-0,108
-200,577	-93,791	-0,148	-0,029
-199,563	-200,000	0,014	-0,144
-198,548	22,524	0,136	-0,081
-197,533	574,656	0,036	-0,065
-196,519	-89,342	0,074	-0,016
-195,504	800,000	0,035	0,111
-194,490	63,857	-0,071	-0,052
-193,475	-200,000	-0,043	-0,191
-192,460	109,497	-0,035	0,030
-191,446	110,500	-0,089	0,077
-190,431	800,000	-0,047	0,106
-189,417	-57,087	0,063	-0,020
-188,402	95,541	0,105	-0,087
-187,387	143,055	-0,091	-0,088
-186,373	674,215	0,061	-0,116
-185,358	800,000	-0,055	-0,149
-184,344	-30,689	0,086	-0,035
-183,329	-200,000	0,007	0,084
-182,315	-200,000	-0,025	0,200
-181,300	561,395	-0,015	-0,026
-180,285	800,000	-0,005	-0,013
-179,271	800,000	-0,048	-0,113
-178,256	-200,000	-0,004	-0,100
-177,242	-84,387	-0,051	0,012
-176,227	82,587	0,100	0,079
-175,212	-200,000	0,004	-0,049
-174,198	-58,541	-0,078	-0,024
-173,183	74,547	0,023	0,017
-172,169	-82,340	0,085	-0,020
-171,154	26,228	-0,100	0,060
-170,139	800,000	-0,009	-0,021
-169,125	-81,140	0,149	-0,035
-168,110	-20,718	0,127	-0,057
-167,096	384,768	-0,029	0,043
-166,081	-200,000	0,009	-0,092
-165,066	-17,141	0,011	-0,005
-164,052	-64,105	0,093	-0,027
-163,037	-168,923	0,107	0,003
-162,023	-134,974	0,103	-0,009
-161,008	-199,429	-0,161	0,001
-159,993	-200,000	0,021	-0,090
-158,979	146,906	0,027	0,027
-157,964	58,495	0,084	-0,060
-156,950	-99,216	0,076	0,014
-155,935	-77,655	0,035	0,009
-154,920	386,638	0,018	0,027
-153,906	-31,938	-0,025	0,010
-152,891	164,306	0,105	0,107
-151,877	-74,581	0,029	-0,008
-150,862	-37,007	0,093	-0,036
-149,847	458,903	0,030	0,049
-148,833	170,133	0,169	-0,176
-147,818	405,546	0,038	-0,058
-146,804	60,894	-0,099	-0,071
-145,789	-111,830	0,108	0,016
-144,775	-200,000	-0,009	0,118
-143,760	239,855	0,052	-0,062
-142,745	-110,343	-0,024	0,004
-141,731	160,282	-0,081	0,083
-140,716	154,691	-0,049	0,049
-139,702	-23,412	-0,084	0,036
-138,687	-200,000	-0,006	0,137
-137,672	-200,000	0,010	0,088
-136,658	-5,072	-0,061	-0,031
-135,643	118,461	-0,124	-0,111
-134,629	800,000	-0,017	0,042
-133,614	94,786	-0,050	0,041
-132,599	-40,823	-0,028	-0,010
-131,585	-200,000	-0,008	0,078
-130,570	253,950	-0,013	0,017
-129,556	-200,000	-0,011	-0,086
-128,541	796,028	-0,026	0,052
-127,526	308,387	0,032	0,043
-126,512	-200,000	-0,020	0,118
-125,497	800,000	-0,035	-0,071
-124,483	-118,516	-0,052	0,007
-123,468	261,735	0,008	-0,011
-122,453	46,087	-0,012	0,008
-121,439	119,534	0,030	-0,027
-120,424	-45,231	0,078	-0,028
-119,410	-200,000	0,094	0,000
-118,395	244,591	0,144	0,176
-117,380	-200,000	0,006	-0,052
-116,366	-52,480	-0,044	0,015
-115,351	-133,544	-0,164	0,015
-114,337	36,530	-0,152	-0,097
-113,322	-200,000	-0,034	0,113
-112,307	-39,005	0,086	-0,033
-111,293	-200,000	0,002	0,063
-110,278	67,606	0,071	0,052
-109,264	480,462	-0,021	0,035
-108,249	406,357	-0,048	-0,074
-107,234	-146,568	0,117	0,007
-106,220	-12,488	0,039	0,018
-105,205	-200,000	-0,014	-0,083
-104,191	-6,056	0,028	0,014
-103,176	671,450	0,038	-0,071
-102,162	-34,610	-0,108	-0,043
-101,147	198,032	-0,124	0,138
-100,132	-24,523	-0,066	-0,029
-99,118	53,148	-0,056	-0,039
-98,103	-48,528	-0,059	-0,021
-97,089	-200,000	-0,006	0,054
-96,074	106,826	0,111	0,096
-95,059	-200,000	-0,001	0,023
-94,045	-15,564	0,047	0,022
-93,030	-200,000	0,002	0,173
-92,016	310,893	0,090	0,122
-91,001	-200,000	0,010	0,056
-89,986	64,584	-0,151	0,111
-88,972	800,000	-0,059	0,122
-87,957	-140,983	-0,024	0,002
-86,943	199,314	0,064	-0,072
-85,928	800,000	-0,032	0,066
-84,913	-87,858	-0,119	-0,026
-83,899	50,508	0,152	-0,104
-82,884	323,246	0,009	0,013
-81,870	-98,250	0,086	0,016
-80,855	213,965	0,049	0,057
-79,840	-200,000	-0,004	-0,095
-78,826	-66,425	-0,109	0,031
-77,811	-54,734	-0,228	0,074
-76,797	-200,000	-0,001	-0,009
-75,782	-200,000	0,012	0,123
-74,767	230,313	-0,049	-0,058
-73,753	-38,845	-0,126	0,048
-72,738	-168,224	-0,142	0,004
-71,724	216,730	-0,048	-0,056
-70,709	472,700	0,040	-0,065
-69,694	-200,000	-0,017	-0,073
-68,680	90,402	0,038	-0,031
-67,665	-109,607	0,118	0,018
-66,651	-62,871	0,037	0,011
-65,636	-87,194	0,044	-0,010
-64,622	501,532	0,048	-0,081
-63,607	-181,293	-0,050	0,001
-62,592	-140,800	-0,021	0,002
-61,578	-26,398	0,064	0,027
-60,563	700,211	0,051	0,098
-59,549	800,000	0,010	0,027
-58,534	-137,153	-1,419	-0,116
-57,519	800,000	-0,653	-1,405
-56,505	-200,000	-0,963	-4,451
-55,490	-47,922	0,689	-0,240
-54,476	800,000	5,022	11,764
-53,461	-200,000	14,481	257,588
-52,446	-200,000	697,304	2233,030
-51,432	564,759	1624,098	2861,418
-50,417	117,139	1631,175	1451,144
-49,403	73,913	1284,884	974,707
-48,388	37,381	1023,049	655,241
-47,373	23,384	981,862	582,887
-46,359	22,601	971,113	573,920
-45,344	21,479	966,862	567,725
-44,330	21,457	965,320	566,723
-43,315	21,329	963,861	565,429
-42,300	21,332	962,786	564,784
-41,286	21,287	961,887	564,091
-40,271	21,310	960,867	563,545
-39,257	21,234	959,951	562,738
-38,242	21,251	958,984	562,205
-37,227	21,260	958,148	561,721
-36,213	21,294	957,134	561,213
-35,198	21,213	956,265	560,420
-34,184	21,238	955,783	560,197
-33,169	21,271	954,938	559,784
-32,154	21,239	954,039	559,133
-31,140	21,343	952,949	558,807
-30,125	21,336	952,307	558,384
-29,111	21,260	951,530	557,663
-28,096	21,274	950,767	557,237
-27,082	21,310	950,062	556,918
-26,067	21,298	949,317	556,421
-25,052	21,283	948,697	555,987
-24,038	21,288	948,020	555,586
-23,023	21,261	947,344	555,079
-22,009	21,343	946,720	554,954
-20,994	21,326	946,025	554,470
-19,979	21,331	945,518	554,166
-18,965	21,301	944,906	553,693
-17,950	21,306	944,086	553,204
-16,936	21,253	943,291	552,550
-15,921	21,247	942,692	552,155
-14,906	21,142	942,156	551,489
-13,892	21,128	941,563	551,073
-12,877	21,167	940,958	550,821
-11,863	21,106	940,457	550,312
-10,848	21,181	939,839	550,167
-9,833	21,287	939,291	550,162
-8,819	21,225	938,684	549,588
-7,804	21,152	938,162	549,029
-6,790	21,165	937,520	548,672
-5,775	21,250	936,842	548,522
-4,760	21,145	936,320	547,862
-3,746	21,160	935,691	547,521
-2,731	21,005	934,874	546,534
-1,717	20,951	934,140	545,913
-0,702	20,990	933,365	545,558
0,313	20,808	932,838	545,502
1,327	23,829	930,848	553,774
2,342	33,124	794,076	497,087
3,356	30,662	451,219	278,729
4,371	0,497	295,216	152,138
5,386	-3,983	276,251	138,094
6,400	-5,071	270,636	134,261
7,415	-5,364	268,178	132,758
8,429	-5,103	266,971	132,389
9,444	-5,322	266,231	131,809
10,459	-5,242	265,490	131,504
11,473	-5,433	264,879	131,016
12,488	-5,424	264,337	130,744
13,502	-5,443	263,892	130,494
14,517	-5,674	263,558	130,108
15,531	-5,528	263,122	130,014
16,546	-5,305	262,582	129,937
17,561	-5,542	262,320	129,582
18,575	-5,345	262,064	129,622
19,590	-5,755	261,724	129,072
20,604	-5,169	261,184	129,321
21,619	-5,405	260,981	128,997
22,634	-5,609	260,780	128,704
23,648	-5,514	260,225	128,503
24,663	-5,615	260,049	128,314
25,677	-5,612	259,886	128,225
26,692	-5,592	259,730	128,155
27,707	-5,391	259,292	128,106
28,721	-5,530	258,975	127,815
29,736	-5,623	258,783	127,625
30,750	-5,643	258,479	127,447
31,765	-5,529	258,293	127,445
32,780	-5,555	258,106	127,318
33,794	-5,749	257,813	126,990
34,809	-5,693	257,664	126,955
35,823	-5,597	257,266	126,833
36,838	-5,714	257,039	126,606
37,853	-5,956	257,037	126,380
38,867	-5,741	256,756	126,420
39,882	-5,751	256,508	126,278
40,896	-5,747	256,088	126,064
41,911	-5,717	255,991	126,031
42,926	-5,720	255,778	125,912
43,940	-5,715	255,492	125,764
44,955	-5,821	255,246	125,539
45,969	-5,969	255,035	125,295
46,984	-5,894	254,818	125,243
47,999	-6,036	254,615	125,007
49,013	-6,225	254,364	124,708
50,028	-6,328	254,158	124,506
51,042	-6,397	253,774	124,246
52,057	-6,562	253,684	124,048
53,071	-6,292	253,438	124,151
54,086	-6,231	253,353	124,151
55,101	-6,268	253,158	124,013
56,115	-5,838	252,951	124,273
57,130	-5,684	252,798	124,321
58,144	-5,436	252,640	124,447
59,159	-5,439	252,532	124,381
60,174	-5,397	252,232	124,258
61,188	-5,540	252,075	124,046
62,203	-5,485	251,862	123,978
63,217	-5,475	251,629	123,861
64,232	-5,482	251,474	123,767
65,247	-5,435	251,237	123,680
66,261	-5,540	250,937	123,431
67,276	-5,605	250,623	123,209
68,290	-5,921	250,458	122,847
69,305	-6,003	250,286	122,680
70,320	-5,914	250,184	122,696
71,334	-5,689	250,019	122,797
72,349	-5,439	249,856	122,920
73,363	-5,267	249,559	122,909
74,378	-5,514	249,328	122,574
75,393	-5,462	249,142	122,515
76,407	-5,452	248,941	122,415
77,422	-5,549	248,792	122,247
78,436	-5,357	248,447	122,231
79,451	-5,410	248,306	122,105
80,466	-5,683	248,277	121,848
81,480	-5,647	247,773	121,620
82,495	-5,803	247,747	121,464
83,509	-5,739	247,413	121,344
84,524	-5,765	247,303	121,257
85,539	-6,003	247,020	120,906
86,553	-6,078	246,866	120,758
87,568	-5,884	246,714	120,836
88,582	-5,853	246,552	120,772
89,597	-5,790	246,380	120,730
90,611	-5,645	246,183	120,745
91,626	-5,551	246,010	120,728
92,641	-5,609	245,886	120,608
93,655	-5,687	245,602	120,392
94,670	-5,860	245,529	120,200
95,684	-5,730	245,273	120,174
96,699	-5,683	245,064	120,100
97,714	-5,889	244,916	119,844
98,728	-5,781	244,650	119,794
99,743	-5,810	244,520	119,695
100,757	-5,855	244,129	119,456
101,772	-5,764	244,090	119,502
102,787	-5,844	243,960	119,360
103,801	-5,790	243,786	119,310
104,816	-5,741	243,579	119,239
105,830	-5,537	243,573	119,395
106,845	-5,543	243,351	119,271
107,860	-5,566	242,991	119,064
108,874	-5,561	242,970	119,047
109,889	-5,761	242,740	118,758
110,903	-5,667	242,400	118,659
111,918	-5,764	242,234	118,487
112,933	-5,589	242,195	118,602
113,947	-5,587	242,024	118,509
114,962	-5,618	241,937	118,431
115,976	-5,511	241,816	118,450
116,991	-5,632	241,490	118,180
118,006	-5,741	241,445	118,057
119,020	-5,436	241,155	118,155
120,035	-5,639	241,131	117,966
121,049	-5,405	240,927	118,049
122,064	-5,462	240,743	117,901
123,079	-5,640	240,463	117,607
124,093	-5,748	240,308	117,432
125,108	-5,765	240,024	117,269
126,122	-5,951	239,776	116,986
127,137	-6,022	239,605	116,833
128,151	-5,933	239,507	116,848
129,166	-5,864	239,369	116,827
130,181	-5,982	239,240	116,656
131,195	-5,940	239,017	116,572
132,210	-5,584	238,778	116,735
133,224	-5,696	238,661	116,576
134,239	-5,644	238,656	116,606
135,254	-5,534	238,325	116,523
136,268	-5,695	238,052	116,248
137,283	-5,829	237,920	116,065
138,297	-6,126	237,657	115,685
139,312	-5,833	237,401	115,788
140,327	-5,610	237,400	115,957
141,341	-5,286	237,354	116,186
142,356	-4,996	237,186	116,328
143,370	-5,178	237,092	116,124
144,385	-5,147	236,927	116,058
145,400	-5,269	236,635	115,807
146,414	-5,253	236,609	115,797
147,429	-5,306	236,362	115,623
148,443	-5,252	236,107	115,531
149,458	-5,454	236,146	115,377
150,473	-5,265	235,923	115,410
151,487	-5,379	235,699	115,199
152,502	-5,413	235,502	115,065
153,516	-5,190	235,330	115,149
154,531	-5,250	235,044	114,951
155,546	-5,377	234,958	114,798
156,560	-5,282	234,771	114,771
157,575	-5,507	234,644	114,519
158,589	-5,412	234,381	114,457
159,604	-5,207	234,173	114,508
160,619	-5,231	234,085	114,436
161,633	-5,365	234,035	114,294
162,648	-5,170	233,882	114,364
163,662	-5,424	233,814	114,119
164,677	-5,309	233,570	114,082
165,692	-5,494	233,548	113,914
166,706	-5,084	233,211	114,064
167,721	-5,163	233,082	113,928
168,735	-5,072	232,993	113,947
169,750	-5,175	232,821	113,771
170,764	-5,089	232,550	113,696
171,779	-5,218	232,587	113,602
172,794	-5,143	232,269	113,496
173,808	-5,335	232,100	113,252
174,823	-5,679	231,763	112,807
175,837	-5,889	231,625	112,564
176,852	-5,573	231,669	112,825
177,867	-5,310	231,558	112,966
178,881	-5,295	231,484	112,933
179,896	-5,191	231,263	112,896
180,910	-5,265	231,066	112,732
181,925	-5,066	231,022	112,856
182,940	-5,154	230,813	112,675
183,954	-5,102	230,702	112,652
184,969	-5,159	230,616	112,555
185,983	-4,962	230,288	112,539
186,998	-4,958	230,108	112,444
188,013	-5,119	230,104	112,306
189,027	-5,025	229,915	112,277
190,042	-5,202	229,816	112,081
191,056	-4,893	229,546	112,180
192,071	-5,003	229,521	112,072
193,086	-5,134	229,365	111,884
194,100	-5,125	229,110	111,756
195,115	-5,187	228,863	111,578
196,129	-5,564	228,596	111,146
197,144	-3,107	229,365	113,419
198,159	1,251	230,765	117,500
199,173	3,567	231,192	119,514
200,188	3,879	231,149	119,724
201,202	3,872	231,071	119,667
202,217	4,037	230,913	119,703
203,232	4,210	230,810	119,773
204,246	4,483	230,725	119,930
205,261	4,362	230,694	119,810
206,275	4,512	230,473	119,800
207,290	4,410	230,347	119,645
208,304	4,451	230,185	119,583
209,319	4,569	229,990	119,561
210,334	4,393	229,732	119,281
211,348	4,390	229,528	119,162
212,363	3,786	229,312	118,573
213,377	3,611	229,255	118,398
214,392	3,437	228,942	118,092
215,407	3,548	228,827	118,107
216,421	3,824	228,706	118,246
217,436	3,602	228,604	118,012
218,450	3,569	228,309	117,824
219,465	3,413	228,120	117,596
220,480	3,521	227,936	117,575
221,494	3,606	227,851	117,585
222,509	3,676	227,675	117,537
223,523	3,666	227,683	117,523
224,538	3,513	227,400	117,250
225,553	3,424	227,288	117,114
226,567	3,741	227,245	117,323
227,582	4,109	226,991	117,462
228,596	4,168	226,811	117,403
229,611	3,790	226,710	117,053
230,626	3,679	226,435	116,816
231,640	3,650	226,379	116,754
232,655	3,725	226,362	116,792
233,669	4,220	226,242	117,096
234,684	4,332	226,219	117,159
235,699	3,994	225,887	116,720
236,713	3,660	225,769	116,396
237,728	3,656	225,465	116,226
238,742	3,634	225,389	116,159
239,757	3,590	225,119	115,977
240,772	3,719	225,068	116,038
241,786	3,542	224,840	115,776
242,801	3,915	224,886	116,070
243,815	4,046	224,737	116,082
244,830	4,027	224,621	115,998
245,844	3,940	224,296	115,754
246,859	3,945	224,202	115,699
247,874	4,127	224,110	115,778
248,888	3,993	224,104	115,665
249,903	3,824	223,921	115,432
250,917	3,676	223,763	115,229
251,932	3,581	223,576	115,052
252,947	3,747	223,304	115,026
253,961	3,532	223,232	114,817
254,976	3,661	223,068	114,819
255,990	3,804	222,980	114,871
257,005	3,992	222,867	114,942
258,020	3,742	222,799	114,711
259,034	4,242	222,548	114,944
260,049	4,117	222,470	114,800
261,063	3,902	222,263	114,523
262,078	4,051	222,151	114,566
263,093	4,121	222,010	114,535
264,107	3,873	221,767	114,215
265,122	4,046	221,638	114,267
266,136	3,933	221,750	114,231
267,151	4,269	221,445	114,313
268,166	3,790	221,212	113,827
269,180	3,754	220,918	113,639
270,195	3,532	220,829	113,419
271,209	3,580	220,718	113,388
272,224	3,500	220,669	113,293
273,239	3,900	220,481	113,482
274,253	3,657	220,252	113,175
275,268	3,542	220,090	112,996
276,282	3,391	219,902	112,779
277,297	3,457	219,796	112,764
278,312	3,583	219,653	112,772
279,326	3,561	219,622	112,730
280,341	3,551	219,364	112,581
281,355	3,974	219,190	112,791
282,370	3,426	219,244	112,407
283,384	3,353	218,938	112,187
284,399	3,178	218,874	112,016
285,414	3,215	218,763	111,976
286,428	3,802	218,719	112,373
287,443	3,787	218,691	112,338
288,457	3,682	218,518	112,162
289,472	3,612	218,239	111,957
290,487	3,321	218,039	111,633
291,501	3,242	217,751	111,418
292,516	3,280	217,771	111,446
293,530	3,317	217,632	111,392
294,545	3,263	217,413	111,231
295,560	3,657	217,219	111,408
296,574	3,690	217,296	111,461
297,589	3,788	217,056	111,399
298,603	3,813	216,993	111,374
299,618	3,455	216,910	111,062
300,633	3,642	216,721	111,091
301,647	4,065	216,663	111,358
302,662	4,119	216,581	111,344
303,676	3,959	216,271	111,060
304,691	4,160	216,097	111,106
305,706	3,634	216,109	110,723
306,720	3,919	216,009	110,867
307,735	3,812	215,751	110,648
308,749	3,452	215,427	110,212
309,764	3,844	215,599	110,573
310,779	3,962	215,448	110,571
311,793	3,733	215,076	110,206
312,808	3,679	215,120	110,179
313,822	3,680	214,978	110,098
314,837	3,644	214,742	109,941
315,852	3,708	214,497	109,851
316,866	3,900	214,518	109,990
317,881	3,789	214,374	109,826
318,895	3,944	214,204	109,841
319,910	3,814	214,078	109,674
320,925	3,507	213,812	109,309
321,939	3,112	213,680	108,950
322,954	3,202	213,719	109,024
323,968	3,813	213,489	109,332
324,983	4,000	213,224	109,320
325,997	3,918	213,324	109,303
327,012	3,832	213,118	109,126
328,027	3,896	212,951	109,077
329,041	3,928	212,909	109,068
330,056	4,185	212,837	109,203
331,070	3,814	212,538	108,778
332,085	3,494	212,405	108,473
333,100	3,580	212,297	108,469
334,114	3,889	212,111	108,583
335,129	3,766	212,058	108,459
336,143	3,651	211,780	108,226
337,158	3,639	211,660	108,147
338,173	3,461	211,448	107,904
339,187	3,622	211,352	107,958
340,202	3,459	211,160	107,736
341,216	3,428	211,067	107,657
342,231	3,756	210,964	107,826
343,246	3,568	210,844	107,623
344,260	3,626	210,672	107,566
345,275	3,561	210,762	107,557
346,289	3,893	210,601	107,698
347,304	3,697	210,505	107,502
348,319	3,475	210,198	107,180
349,333	3,649	210,123	107,254
350,348	3,768	210,058	107,294
351,362	4,034	210,029	107,455
352,377	3,926	209,758	107,232
353,392	3,657	209,581	106,945
354,406	3,608	209,444	106,831
355,421	194,114	1344,017	1430,104
356,435	154,925	1482,330	1430,190
