DTS Sentinel unit serial number:	SN410029Multiplexer serial number:	ORYXHardware model number:	OX2-SRSoftware version number:	ORYX F/W v4,00 Oryx Data Collector v3.7.2.0data status	okinstallation	B6 Nyhavnadifferential loss correction	single-endedforward channel	channel 2reverse channel	N/Adate	2023/12/10time	18:05:08forward acquisition time	300,00reverse acquisition time	0,00gamma	499,1914k internal	0,3122k external	0,3122temperature offset calibration	1,0000default loss term (dB/km)	0,3820temperature slope calibration	1,0000multiplexer offset coefficient	1,0000multiplexer slope coefficient	1,0000fibre end	0,00T internal ref (°C)	22,38T ext. ref 1 (°C)	5,98T ext. ref 2 (°C)	6,00length (m)	temperature (°C)	Stokes	anti-Stokes-744,400	13,690	-0,012	-0,007
-743,385	82,354	-0,192	0,155
-742,371	124,517	-0,038	-0,036
-741,356	58,550	-0,154	0,113
-740,342	392,992	0,037	0,058
-739,327	1,319	-0,255	0,136
-738,312	-200,000	0,005	-0,032
-737,298	-111,651	-0,210	0,031
-736,283	-200,000	0,018	-0,101
-735,269	-22,825	-0,229	0,103
-734,254	-200,000	-0,003	-0,129
-733,239	-20,226	-0,308	-0,141
-732,225	-200,000	-0,030	-0,156
-731,210	-157,797	-0,011	0,000
-730,196	-49,955	-0,021	0,007
-729,181	-200,000	0,014	-0,093
-728,167	-200,000	0,005	-0,024
-727,152	-200,000	-0,020	-0,082
-726,137	800,000	-0,032	-0,083
-725,123	33,358	-0,020	-0,013
-724,108	126,775	-0,036	-0,034
-723,094	112,357	-0,132	-0,119
-722,079	-192,336	-0,069	0,000
-721,064	435,906	-0,032	0,053
-720,050	800,000	-0,005	-0,014
-719,035	-156,560	-0,182	-0,008
-718,021	-70,821	0,041	-0,011
-717,006	800,000	0,044	-0,109
-715,991	130,845	-0,063	-0,060
-714,977	-50,683	0,061	-0,021
-713,962	800,000	-0,042	-0,134
-712,948	-200,000	0,010	-0,134
-711,933	-200,000	0,003	-0,059
-710,918	-23,397	-0,067	-0,030
-709,904	-200,000	0,029	-0,125
-708,889	800,000	-0,050	-0,106
-707,875	-40,815	-0,111	0,043
-706,860	800,000	0,011	0,037
-705,845	97,328	0,076	-0,065
-704,831	-200,000	-0,016	0,178
-703,816	366,569	-0,066	0,099
-702,802	176,333	-0,079	-0,085
-701,787	-54,702	-0,114	-0,038
-700,772	-200,000	-0,016	-0,111
-699,758	337,389	0,037	-0,054
-698,743	157,474	0,111	-0,114
-697,729	-47,818	0,149	0,053
-696,714	-113,501	0,065	0,009
-695,699	139,229	-0,103	-0,101
-694,685	-14,908	0,096	-0,046
-693,670	-65,927	0,138	-0,041
-692,656	36,465	-0,034	-0,022
-691,641	685,846	0,011	0,022
-690,627	-173,796	-0,113	-0,002
-689,612	-126,951	0,139	0,015
-688,597	203,701	0,077	0,089
-687,583	91,338	-0,072	-0,060
-686,568	99,518	-0,038	-0,033
-685,554	-166,223	-0,085	0,003
-684,539	-12,307	-0,036	0,018
-683,524	169,626	-0,054	0,058
-682,510	-200,000	0,002	-0,057
-681,495	-107,716	-0,161	-0,026
-680,481	-121,130	-0,063	-0,008
-679,466	-155,624	0,070	0,003
-678,451	-200,000	-0,004	-0,036
-677,437	224,933	0,025	-0,030
-676,422	-148,030	-0,021	-0,001
-675,408	-106,628	0,060	0,010
-674,393	442,808	-0,133	-0,218
-673,378	800,000	-0,014	-0,039
-672,364	73,085	-0,079	-0,061
-671,349	160,349	-0,072	-0,075
-670,335	674,706	0,044	-0,085
-669,320	230,017	0,047	-0,057
-668,305	125,655	-0,058	0,054
-667,291	800,000	-0,037	-0,096
-666,276	695,999	0,036	0,071
-665,262	800,000	-0,080	-0,222
-664,247	-99,344	-0,148	0,027
-663,232	137,187	0,075	0,073
-662,218	-150,755	0,149	-0,008
-661,203	-62,493	0,069	0,021
-660,189	-200,000	-0,027	-0,132
-659,174	-200,000	-0,031	-0,124
-658,159	-16,389	-0,169	-0,079
-657,145	35,453	-0,098	-0,064
-656,130	-120,472	-0,149	-0,019
-655,116	181,674	0,099	-0,108
-654,101	343,689	0,080	0,117
-653,086	283,174	-0,113	0,151
-652,072	54,181	0,034	-0,025
-651,057	-167,348	-0,108	0,003
-650,043	-37,884	-0,044	0,017
-649,028	349,708	-0,042	-0,061
-648,014	-116,449	0,085	0,011
-646,999	800,000	-0,019	0,058
-645,984	-9,373	-0,039	-0,019
-644,970	-200,000	0,015	-0,077
-643,955	26,610	-0,042	-0,026
-642,941	-120,777	-0,111	-0,014
-641,926	-35,430	-0,064	0,026
-640,911	464,087	0,077	-0,128
-639,897	-90,148	0,124	-0,027
-638,882	219,928	-0,098	0,116
-637,868	-200,000	-0,020	-0,069
-636,853	39,996	-0,025	0,017
-635,838	11,473	-0,023	0,013
-634,824	253,078	-0,049	-0,063
-633,809	558,707	-0,045	-0,081
-632,795	-138,448	-0,077	-0,006
-631,780	-78,816	0,023	0,006
-630,765	800,000	0,075	0,156
-629,751	-200,000	0,001	0,020
-628,736	19,898	0,038	-0,023
-627,722	-168,767	0,061	-0,002
-626,707	-200,000	0,011	-0,060
-625,692	800,000	0,025	-0,063
-624,678	-200,000	0,004	0,075
-623,663	28,314	-0,029	-0,018
-622,649	-200,000	-0,022	-0,245
-621,634	9,068	-0,078	0,043
-620,619	-87,045	-0,095	-0,021
-619,605	-92,703	0,116	0,024
-618,590	-148,316	-0,096	0,006
-617,576	-200,000	-0,023	0,147
-616,561	-18,951	0,102	-0,047
-615,546	-88,323	-0,140	-0,031
-614,532	13,374	-0,118	-0,068
-613,517	478,786	0,041	0,069
-612,503	-75,394	0,139	-0,036
-611,488	117,483	-0,019	-0,018
-610,474	-200,000	0,005	0,163
-609,459	-200,000	-0,021	0,112
-608,444	-177,216	-0,094	-0,002
-607,430	67,452	-0,082	0,062
-606,415	-200,000	-0,010	-0,088
-605,401	-107,082	0,138	-0,022
-604,386	-200,000	-0,020	0,127
-603,371	660,524	-0,073	0,139
-602,357	-53,711	0,025	-0,008
-601,342	-200,000	0,037	-0,141
-600,328	284,695	-0,006	0,008
-599,313	800,000	-0,054	-0,143
-598,298	688,058	-0,062	0,121
-597,284	514,431	0,052	0,091
-596,269	133,330	0,063	0,061
-595,255	-105,920	-0,142	-0,023
-594,240	800,000	-0,052	-0,116
-593,225	-155,789	-0,099	0,005
-592,211	-200,000	-0,022	-0,108
-591,196	764,210	0,038	0,076
-590,182	257,709	-0,090	0,115
-589,167	327,509	-0,021	-0,031
-588,152	252,111	0,067	0,084
-587,138	185,539	-0,080	0,088
-586,123	-81,585	-0,131	-0,032
-585,109	230,556	-0,071	-0,086
-584,094	-33,234	0,006	0,003
-583,079	5,685	0,067	0,037
-582,065	-146,390	0,089	-0,006
-581,050	-200,000	-0,006	0,065
-580,036	537,830	0,078	0,138
-579,021	54,532	0,045	0,032
-578,006	258,242	-0,055	-0,070
-576,992	-0,753	-0,078	0,041
-575,977	325,605	0,063	-0,089
-574,963	32,458	0,050	0,032
-573,948	-114,729	-0,155	0,022
-572,934	-49,059	0,057	0,020
-571,919	703,512	0,030	-0,059
-570,904	800,000	0,034	0,093
-569,890	800,000	-0,016	-0,045
-568,875	-79,130	0,174	0,043
-567,861	59,631	0,165	0,121
-566,846	-200,000	-0,014	0,048
-565,831	214,764	-0,098	0,115
-564,817	-80,835	-0,165	0,040
-563,802	-32,831	-0,051	-0,021
-562,788	-200,000	0,010	0,095
-561,773	99,604	0,071	0,061
-560,758	-59,198	0,045	0,014
-559,744	800,000	-0,058	-0,181
-558,729	326,676	0,032	0,046
-557,715	287,053	-0,066	-0,089
-556,700	-200,000	-0,028	-0,123
-555,685	-200,000	-0,004	-0,026
-554,671	189,657	0,076	-0,085
-553,656	-115,113	-0,022	0,003
-552,642	51,234	0,140	0,098
-551,627	28,132	-0,059	0,037
-550,612	-110,424	0,068	0,010
-549,598	229,325	-0,033	-0,040
-548,583	-63,607	0,071	0,021
-547,569	-200,000	-0,029	0,094
-546,554	91,981	-0,077	0,064
-545,539	-66,050	0,070	0,020
-544,525	-28,002	-0,108	0,046
-543,510	-200,000	0,008	-0,069
-542,496	5,813	-0,037	-0,020
-541,481	-171,075	-0,059	0,001
-540,466	295,640	0,108	-0,146
-539,452	11,359	0,038	0,022
-538,437	-200,000	0,004	0,132
-537,423	-186,753	0,146	-0,001
-536,408	39,435	0,147	-0,097
-535,393	-125,798	-0,077	0,008
-534,379	-58,220	-0,007	-0,002
-533,364	-200,000	-0,023	-0,102
-532,350	68,185	-0,074	-0,056
-531,335	3,010	-0,085	-0,045
-530,321	735,062	-0,064	0,128
-529,306	104,296	-0,078	0,068
-528,291	18,166	0,047	0,027
-527,277	-200,000	-0,023	-0,119
-526,262	-200,000	0,000	0,007
-525,248	61,767	0,038	-0,028
-524,233	-145,636	-0,049	0,003
-523,218	-127,052	0,082	0,009
-522,204	-200,000	-0,004	-0,094
-521,189	-200,000	-0,008	-0,110
-520,175	-200,000	-0,006	-0,175
-519,160	-200,000	-0,016	-0,084
-518,145	83,307	-0,088	-0,071
-517,131	-200,000	-0,018	-0,078
-516,116	-200,000	0,034	0,147
-515,102	50,249	-0,080	-0,056
-514,087	-200,000	-0,000	0,016
-513,072	435,584	-0,086	-0,139
-512,058	17,535	0,128	0,075
-511,043	800,000	0,073	0,192
-510,029	-62,269	0,097	-0,030
-509,014	78,099	0,065	-0,051
-507,999	-200,000	-0,003	0,068
-506,985	-44,313	0,016	0,006
-505,970	-119,800	-0,121	-0,015
-504,956	286,984	0,043	-0,057
-503,941	2,094	-0,125	0,066
-502,926	-135,315	-0,035	-0,003
-501,912	-106,456	-0,115	-0,019
-500,897	69,647	0,057	0,043
-499,883	-34,992	-0,032	-0,013
-498,868	-143,750	0,032	-0,002
-497,853	800,000	-0,020	-0,058
-496,839	627,924	0,029	-0,054
-495,824	-200,000	0,010	0,111
-494,810	-200,000	0,008	0,160
-493,795	-48,734	-0,076	-0,027
-492,781	251,347	-0,021	-0,027
-491,766	-72,081	-0,033	-0,009
-490,751	-200,000	0,006	-0,121
-489,737	-200,000	-0,003	-0,101
-488,722	-200,000	0,003	0,028
-487,708	-200,000	0,033	0,137
-486,693	-200,000	0,003	-0,152
-485,678	-121,842	0,052	0,006
-484,664	-98,109	-0,151	0,028
-483,649	-24,259	-0,073	0,032
-482,635	445,111	-0,036	-0,058
-481,620	-89,195	0,013	0,003
-480,605	-200,000	-0,008	0,031
-479,591	-200,000	0,015	0,128
-478,576	399,675	0,070	-0,109
-477,562	65,462	-0,097	-0,072
-476,547	-200,000	0,010	0,040
-475,532	-10,169	0,012	-0,006
-474,518	255,074	-0,086	0,109
-473,503	164,240	0,087	-0,091
-472,489	-200,000	0,024	0,174
-471,474	-74,874	-0,094	-0,025
-470,459	800,000	0,037	-0,097
-469,445	-117,676	-0,090	0,012
-468,430	89,245	0,033	0,027
-467,416	-29,652	0,037	0,015
-466,401	800,000	-0,059	-0,122
-465,386	-200,000	0,003	0,033
-464,372	313,796	0,090	0,125
-463,357	226,014	-0,087	-0,104
-462,343	18,439	-0,085	0,050
-461,328	-78,377	0,069	-0,017
-460,313	800,000	-0,043	-0,123
-459,299	209,234	-0,066	-0,076
-458,284	-16,259	-0,021	-0,010
-457,270	309,647	-0,007	-0,010
-456,255	-171,726	-0,162	-0,004
-455,241	-44,316	-0,077	0,028
-454,226	-200,000	-0,001	-0,085
-453,211	452,018	0,027	0,044
-452,197	-200,000	-0,006	0,145
-451,182	-200,000	-0,022	0,170
-450,168	494,998	0,054	0,092
-449,153	90,919	-0,031	0,026
-448,138	-200,000	0,004	-0,080
-447,124	800,000	0,054	-0,133
-446,109	-68,725	-0,071	0,020
-445,095	201,015	0,070	-0,079
-444,080	-56,055	-0,049	-0,016
-443,065	-160,992	-0,115	-0,004
-442,051	-14,833	-0,070	0,033
-441,036	-146,691	-0,085	0,005
-440,022	373,372	-0,073	-0,109
-439,007	-36,691	-0,051	0,020
-437,992	-35,377	0,038	0,015
-436,978	-115,465	0,106	0,015
-435,963	-200,000	0,017	0,061
-434,949	698,287	0,040	-0,077
-433,934	790,185	-0,035	-0,071
-432,919	-200,000	-0,008	0,188
-431,905	-200,000	-0,005	0,037
-430,890	107,953	0,078	0,068
-429,876	-114,924	0,070	0,010
-428,861	401,365	0,046	0,071
-427,846	48,258	0,177	0,122
-426,832	467,880	0,066	-0,109
-425,817	-123,106	-0,094	0,011
-424,803	-33,505	-0,045	-0,018
-423,788	-103,984	0,035	0,006
-422,773	136,692	0,105	0,101
-421,759	529,776	0,046	-0,081
-420,744	-138,236	-0,053	-0,004
-419,730	800,000	0,010	0,023
-418,715	-74,468	0,175	-0,046
-417,701	56,536	-0,035	0,025
-416,686	-20,553	-0,128	-0,058
-415,671	-200,000	0,022	0,102
-414,657	-200,000	0,014	0,083
-413,642	-200,000	-0,008	0,031
-412,628	-137,816	-0,118	0,010
-411,613	-191,701	-0,010	0,000
-410,598	527,629	-0,041	0,072
-409,584	800,000	-0,014	0,031
-408,569	57,235	0,228	-0,163
-407,555	-200,000	0,049	-0,168
-406,540	800,000	-0,040	-0,128
-405,525	226,510	-0,035	-0,042
-404,511	-200,000	0,028	-0,095
-403,496	-200,000	0,002	-0,006
-402,482	800,000	0,010	-0,029
-401,467	800,000	-0,030	-0,087
-400,452	-200,000	0,004	0,055
-399,438	-69,008	0,124	-0,035
-398,423	-200,000	-0,010	0,083
-397,409	224,316	0,051	0,061
-396,394	-157,038	0,138	0,006
-395,379	-200,000	0,009	-0,030
-394,365	304,472	0,090	0,124
-393,350	800,000	0,045	-0,099
-392,336	-180,133	-0,089	-0,001
-391,321	712,487	-0,068	0,134
-390,306	-148,102	0,140	0,008
-389,292	-188,102	-0,063	0,001
-388,277	67,357	0,109	-0,081
-387,263	213,202	0,060	0,070
-386,248	216,617	-0,025	-0,029
-385,233	210,847	-0,102	-0,118
-384,219	-112,490	-0,098	0,014
-383,204	73,168	0,070	-0,054
-382,190	-200,000	0,030	-0,124
-381,175	800,000	0,005	0,013
-380,160	800,000	0,026	0,069
-379,146	639,926	0,026	0,048
-378,131	85,084	-0,087	0,070
-377,117	800,000	-0,045	-0,134
-376,102	357,792	-0,087	-0,128
-375,088	210,162	-0,080	-0,092
-374,073	126,775	-0,080	-0,074
-373,058	-178,956	0,131	-0,002
-372,044	-40,168	0,090	-0,034
-371,029	289,716	0,094	0,126
-370,015	82,400	0,082	0,065
-369,000	-114,421	-0,079	-0,011
-367,985	-163,747	-0,049	0,002
-366,971	-139,829	-0,005	-0,000
-365,956	-10,298	0,105	0,051
-364,942	222,520	0,027	0,032
-363,927	128,438	-0,042	0,039
-362,912	-45,218	0,084	-0,031
-361,898	-163,621	0,040	0,001
-360,883	45,264	-0,102	-0,069
-359,869	-200,000	-0,012	-0,112
-358,854	177,059	-0,089	0,096
-357,839	-112,388	0,151	0,022
-356,825	-47,648	0,083	0,029
-355,810	-200,000	0,019	0,066
-354,796	-70,304	0,010	0,003
-353,781	800,000	-0,055	0,167
-352,766	-12,726	-0,113	0,054
-351,752	800,000	-0,020	0,053
-350,737	172,195	0,174	0,184
-349,723	-62,132	0,082	-0,025
-348,708	-200,000	0,000	0,150
-347,693	166,856	0,025	-0,026
-346,679	-111,534	-0,148	0,022
-345,664	249,357	0,039	-0,049
-344,650	1,213	0,082	-0,043
-343,635	494,125	0,041	-0,070
-342,620	-200,000	-0,011	0,148
-341,606	241,791	-0,105	0,129
-340,591	113,088	0,108	0,096
-339,577	18,968	0,031	0,018
-338,562	-138,989	-0,024	0,002
-337,548	-200,000	0,013	-0,065
-336,533	-200,000	-0,003	-0,087
-335,518	41,919	0,046	-0,031
-334,504	-200,000	-0,033	0,143
-333,489	36,530	0,086	-0,056
-332,475	-145,593	-0,032	0,002
-331,460	794,279	0,059	-0,119
-330,445	-184,826	0,079	0,001
-329,431	577,105	0,023	-0,042
-328,416	-2,524	0,041	0,021
-327,402	399,495	-0,021	0,032
-326,387	-200,000	0,003	0,043
-325,372	-58,389	-0,098	0,031
-324,358	213,259	-0,040	-0,046
-323,343	507,961	0,025	-0,043
-322,329	161,510	0,028	-0,029
-321,314	138,458	0,027	0,026
-320,299	188,775	0,108	-0,119
-319,285	800,000	-0,075	-0,162
-318,270	76,280	-0,086	0,067
-317,256	-200,000	0,013	-0,065
-316,241	-82,090	-0,034	-0,008
-315,226	-2,672	0,069	-0,035
-314,212	277,315	0,042	0,055
-313,197	800,000	-0,008	0,019
-312,183	-123,757	0,086	0,010
-311,168	-200,000	0,001	0,085
-310,153	228,384	-0,035	-0,042
-309,139	19,762	-0,047	0,028
-308,124	-0,307	0,198	0,103
-307,110	673,252	0,010	0,019
-306,095	26,442	0,122	0,074
-305,080	13,730	0,058	0,033
-304,066	-103,885	-0,155	-0,026
-303,051	-119,635	-0,069	0,009
-302,037	95,303	0,055	-0,046
-301,022	800,000	0,033	-0,081
-300,008	64,972	-0,089	0,066
-298,993	167,462	0,038	0,039
-297,978	44,120	0,049	-0,033
-296,964	381,504	-0,067	-0,102
-295,949	533,671	-0,043	-0,075
-294,935	109,917	-0,038	-0,033
-293,920	-200,000	0,011	0,044
-292,905	168,417	0,045	0,047
-291,891	-68,498	0,073	-0,021
-290,876	94,774	0,077	0,064
-289,862	-200,000	0,014	0,053
-288,847	-53,102	-0,069	-0,023
-287,832	800,000	0,024	0,056
-286,818	656,203	-0,091	0,173
-285,803	-113,205	-0,141	-0,020
-284,789	-60,012	0,048	-0,015
-283,774	-135,999	0,034	-0,003
-282,759	-156,839	-0,243	0,011
-281,745	116,755	0,163	-0,147
-280,730	-48,964	-0,124	-0,043
-279,716	800,000	0,074	0,179
-278,701	-200,000	0,009	-0,117
-277,686	101,186	0,106	-0,090
-276,672	199,932	0,062	0,069
-275,657	-95,098	0,103	0,020
-274,643	249,410	0,046	0,057
-273,628	-138,014	-0,100	-0,008
-272,613	277,405	0,081	0,105
-271,599	-148,318	0,132	-0,008
-270,584	-200,000	-0,024	0,118
-269,570	-94,209	0,072	0,014
-268,555	-170,308	-0,084	-0,002
-267,540	800,000	-0,029	-0,086
-266,526	701,668	-0,066	-0,128
-265,511	-61,627	-0,107	0,033
-264,497	576,937	-0,051	-0,091
-263,482	-86,033	0,180	-0,040
-262,467	-111,654	-0,049	-0,007
-261,453	-200,000	0,010	-0,113
-260,438	277,739	0,055	0,072
-259,424	218,197	-0,033	-0,039
-258,409	3,427	0,002	0,001
-257,395	121,949	0,085	-0,077
-256,380	-200,000	-0,004	0,051
-255,365	93,206	0,068	-0,056
-254,351	-200,000	-0,060	-0,243
-253,336	-200,000	-0,011	-0,095
-252,322	61,198	0,056	0,041
-251,307	-200,000	-0,002	0,041
-250,292	-72,057	-0,126	0,034
-249,278	142,847	0,033	0,032
-248,263	303,622	0,064	0,087
-247,249	517,761	-0,079	0,136
-246,234	-200,000	-0,022	0,100
-245,219	-22,767	0,035	-0,016
-244,205	800,000	0,026	0,082
-243,190	-200,000	0,008	-0,131
-242,176	126,036	-0,034	-0,031
-241,161	172,209	0,082	-0,087
-240,146	134,303	0,082	0,078
-239,132	-200,000	-0,012	-0,101
-238,117	749,833	-0,040	-0,079
-237,103	578,585	-0,090	-0,161
-236,088	-200,000	0,011	-0,119
-235,073	-200,000	-0,007	0,082
-234,059	800,000	-0,022	0,052
-233,044	112,483	0,090	0,080
-232,030	9,988	-0,041	-0,023
-231,015	35,027	-0,065	-0,042
-230,000	-42,384	-0,134	-0,050
-228,986	40,851	0,044	-0,029
-227,971	146,450	0,121	0,119
-226,957	95,509	0,026	-0,022
-225,942	-10,590	-0,061	0,029
-224,927	-200,000	0,004	0,044
-223,913	146,104	-0,065	-0,064
-222,898	-200,000	-0,006	-0,045
-221,884	333,949	-0,037	0,052
-220,869	-11,982	0,131	0,063
-219,855	-106,283	-0,118	-0,019
-218,840	419,528	-0,055	0,087
-217,825	313,160	-0,061	0,084
-216,811	-177,949	0,080	-0,001
-215,796	-158,523	-0,066	0,003
-214,782	767,080	0,024	0,047
-213,767	38,617	0,099	-0,064
-212,752	-200,000	-0,001	0,045
-211,738	398,349	0,013	-0,019
-210,723	796,498	0,015	0,030
-209,709	40,276	0,046	-0,030
-208,694	145,724	-0,061	-0,059
-207,679	409,923	-0,027	-0,042
-206,665	710,237	-0,062	0,121
-205,650	-104,984	0,077	-0,013
-204,636	40,643	-0,109	-0,071
-203,621	105,657	0,044	0,038
-202,606	-49,226	-0,039	0,014
-201,592	-175,866	0,133	0,003
-200,577	-200,000	-0,014	0,071
-199,563	77,369	0,074	-0,058
-198,548	85,956	0,051	0,041
-197,533	142,661	0,022	-0,022
-196,519	-200,000	0,026	0,089
-195,504	-200,000	-0,036	-0,124
-194,490	-94,846	-0,125	-0,025
-193,475	-89,591	-0,054	0,011
-192,460	10,645	-0,054	-0,030
-191,446	431,852	0,077	0,122
-190,431	800,000	-0,026	0,068
-189,417	66,501	0,161	-0,119
-188,402	-83,274	-0,084	0,020
-187,387	-178,760	-0,182	0,003
-186,373	-32,914	-0,076	-0,031
-185,358	-162,771	-0,067	-0,002
-184,344	-64,481	0,118	-0,035
-183,329	-16,500	0,142	-0,065
-182,315	549,125	-0,033	-0,057
-181,300	-200,000	-0,019	-0,130
-180,285	361,422	0,035	-0,051
-179,271	-40,887	-0,095	-0,035
-178,256	8,734	0,123	-0,068
-177,242	586,155	0,033	-0,060
-176,227	-200,000	0,052	0,211
-175,212	-200,000	-0,011	-0,086
-174,198	-28,250	0,037	0,016
-173,183	-32,227	0,080	-0,033
-172,169	-52,058	-0,146	-0,049
-171,154	-200,000	-0,008	-0,122
-170,139	-69,688	-0,038	0,011
-169,125	-75,418	0,095	-0,024
-168,110	-200,000	0,020	0,106
-167,096	-71,777	0,076	0,021
-166,081	800,000	-0,009	-0,026
-165,066	705,527	-0,022	-0,043
-164,052	-200,000	0,000	0,133
-163,037	319,830	0,032	-0,044
-162,023	129,235	0,138	0,128
-161,008	-200,000	-0,028	0,095
-159,993	-145,777	-0,086	-0,005
-158,979	52,026	-0,068	-0,047
-157,964	271,066	-0,070	-0,090
-156,950	68,506	-0,097	0,072
-155,935	-200,000	-0,003	0,025
-154,920	-136,740	0,080	0,007
-153,906	-200,000	-0,011	0,055
-152,891	-5,305	0,045	0,022
-151,877	-149,579	0,055	-0,003
-150,862	-200,000	0,030	-0,142
-149,847	-200,000	0,001	0,085
-148,833	-8,348	-0,079	-0,039
-147,818	145,297	0,142	-0,138
-146,804	-200,000	0,035	0,145
-145,789	-200,000	-0,002	0,069
-144,775	258,606	0,083	0,104
-143,760	205,429	-0,099	0,112
-142,745	800,000	-0,034	0,098
-141,731	90,709	0,099	0,081
-140,716	-200,000	0,003	0,073
-139,702	-200,000	-0,024	0,092
-138,687	-97,803	0,023	0,004
-137,672	-200,000	0,027	-0,103
-136,658	800,000	-0,108	-0,254
-135,643	800,000	0,036	-0,095
-134,629	235,081	0,035	-0,042
-133,614	23,385	-0,060	0,036
-132,599	800,000	0,011	0,029
-131,585	534,091	0,018	-0,031
-130,570	8,880	0,022	-0,012
-129,556	241,165	-0,103	-0,125
-128,541	-200,000	-0,008	-0,075
-127,526	-200,000	0,014	-0,085
-126,512	800,000	-0,048	-0,117
-125,497	139,570	0,087	0,084
-124,483	257,767	0,024	-0,030
-123,468	-200,000	0,003	0,057
-122,453	164,596	-0,033	0,033
-121,439	-38,022	-0,060	0,023
-120,424	-200,000	0,001	0,045
-119,410	-200,000	0,031	0,123
-118,395	-200,000	0,015	0,213
-117,380	800,000	0,071	0,145
-116,366	-200,000	0,017	-0,067
-115,351	-37,957	-0,123	0,047
-114,337	1,180	-0,154	-0,080
-113,322	50,279	0,012	0,009
-112,307	742,729	-0,046	-0,090
-111,293	20,087	-0,058	0,034
-110,278	-200,000	-0,000	0,020
-109,264	-44,476	-0,119	-0,043
-108,249	327,220	0,044	-0,062
-107,234	-70,294	-0,231	-0,063
-106,220	800,000	0,031	-0,064
-105,205	93,344	0,026	-0,021
-104,191	-48,729	-0,013	0,005
-103,176	-200,000	0,009	0,105
-102,162	34,062	0,035	0,022
-101,147	710,794	0,080	-0,155
-100,132	163,120	-0,015	0,016
-99,118	-200,000	-0,043	0,151
-98,103	800,000	-0,017	0,050
-97,089	140,702	-0,019	-0,018
-96,074	309,794	-0,063	-0,086
-95,059	-200,000	0,034	0,171
-94,045	161,610	-0,175	-0,178
-93,030	-200,000	0,017	-0,083
-92,016	-96,810	0,092	-0,017
-91,001	-200,000	-0,009	-0,066
-89,986	260,949	-0,055	-0,070
-88,972	53,878	0,028	0,019
-87,957	603,678	0,019	0,035
-86,943	56,677	-0,115	-0,081
-85,928	180,123	-0,099	-0,106
-84,913	-139,803	-0,018	-0,001
-83,899	196,565	0,149	0,165
-82,884	800,000	-0,031	0,096
-81,870	-200,000	0,058	0,216
-80,855	800,000	-0,051	0,113
-79,840	-122,706	0,052	0,006
-78,826	133,097	-0,028	-0,026
-77,811	66,223	0,025	-0,018
-76,797	-145,676	0,011	0,001
-75,782	-167,495	-0,154	-0,004
-74,767	-49,803	-0,124	0,043
-73,753	-182,310	-0,036	0,000
-72,738	243,455	0,047	0,057
-71,724	216,498	-0,052	0,060
-70,709	-18,611	-0,080	0,036
-69,694	-151,156	-0,049	0,003
-68,680	-200,000	0,009	-0,035
-67,665	145,958	0,060	0,059
-66,651	475,840	0,077	0,126
-65,636	35,887	0,034	-0,022
-64,622	-129,083	-0,097	0,010
-63,607	-200,000	-0,079	0,000
-62,592	-183,431	-0,109	0,001
-61,578	93,399	0,134	0,110
-60,563	115,898	0,150	-0,133
-59,549	800,000	0,043	0,105
-58,534	-106,077	-1,272	-0,205
-57,519	513,250	-0,820	-1,394
-56,505	-200,000	-0,722	-4,394
-55,490	-20,987	0,511	-0,226
-54,476	800,000	4,921	11,730
-53,461	-200,000	13,562	253,246
-52,446	-200,000	689,346	2260,772
-51,432	591,990	1622,222	2919,058
-50,417	119,423	1635,200	1469,038
-49,403	73,299	1288,977	977,615
-48,388	38,161	1024,226	660,193
-47,373	24,313	982,062	587,457
-46,359	23,550	971,712	578,739
-45,344	22,612	967,335	573,044
-44,330	22,527	966,015	571,962
-43,315	22,411	964,257	570,520
-42,300	22,434	963,230	569,966
-41,286	22,420	962,406	569,410
-40,271	22,438	961,367	568,831
-39,257	22,435	960,466	568,265
-38,242	22,434	959,537	567,688
-37,227	22,385	958,750	567,041
-36,213	22,381	957,816	566,455
-35,198	22,334	957,125	565,871
-34,184	22,428	956,308	565,669
-33,169	22,287	955,639	564,796
-32,154	22,401	954,624	564,542
-31,140	22,415	953,635	563,979
-30,125	22,447	952,755	563,539
-29,111	22,484	951,826	563,086
-28,096	22,461	951,333	562,699
-27,082	22,396	950,743	562,119
-26,067	22,402	949,941	561,640
-25,052	22,379	949,286	561,159
-24,038	22,428	948,609	560,894
-23,023	22,431	947,965	560,500
-22,009	22,456	947,262	560,140
-20,994	22,426	946,847	559,778
-19,979	22,469	946,205	559,512
-18,965	22,370	945,616	558,827
-17,950	22,447	944,771	558,551
-16,936	22,483	944,015	558,196
-15,921	22,393	943,366	557,506
-14,906	22,317	942,676	556,832
-13,892	22,309	942,046	556,414
-12,877	22,333	941,372	556,068
-11,863	22,286	940,691	555,495
-10,848	22,296	940,281	555,262
-9,833	22,375	939,884	555,257
-8,819	22,404	939,200	554,923
-7,804	22,250	938,659	554,092
-6,790	22,268	937,978	553,725
-5,775	22,321	937,226	553,429
-4,760	22,341	936,777	553,203
-3,746	22,336	936,184	552,816
-2,731	22,180	935,363	551,815
-1,717	22,133	934,712	551,262
-0,702	22,162	934,001	550,912
0,313	21,871	933,706	550,653
1,327	25,015	931,445	559,157
2,342	34,620	796,196	503,559
3,356	32,663	451,515	282,589
4,371	1,714	293,462	152,818
5,386	-2,611	274,474	138,827
6,400	-4,354	268,618	134,237
7,415	-4,974	266,301	132,498
8,429	-4,564	265,065	132,247
9,444	-4,458	264,047	131,823
10,459	-4,546	263,667	131,542
11,473	-4,678	262,955	131,055
12,488	-4,651	262,341	130,762
13,502	-4,972	261,927	130,254
14,517	-4,733	261,584	130,287
15,531	-4,719	261,063	130,028
16,546	-4,579	260,828	130,026
17,561	-4,594	260,535	129,855
18,575	-4,424	260,067	129,763
19,590	-4,615	259,681	129,387
20,604	-4,589	259,513	129,316
21,619	-4,723	259,153	129,005
22,634	-4,808	258,903	128,793
23,648	-4,720	258,381	128,600
24,663	-4,733	258,142	128,458
25,677	-4,713	258,044	128,416
26,692	-4,808	257,728	128,163
27,707	-4,746	257,555	128,120
28,721	-4,817	257,180	127,859
29,736	-4,767	256,920	127,763
30,750	-4,922	256,760	127,534
31,765	-4,552	256,352	127,648
32,780	-4,810	256,298	127,381
33,794	-4,604	256,027	127,417
34,809	-4,671	255,717	127,192
35,823	-4,822	255,563	126,972
36,838	-4,678	255,249	126,930
37,853	-4,782	255,203	126,805
38,867	-4,914	254,897	126,526
39,882	-4,722	254,638	126,554
40,896	-4,779	254,287	126,319
41,911	-4,626	254,093	126,346
42,926	-4,860	254,037	126,101
43,940	-4,764	253,740	126,026
44,955	-4,882	253,518	125,802
45,969	-4,894	253,218	125,631
46,984	-5,213	253,024	125,246
47,999	-5,411	252,900	125,002
49,013	-5,398	252,454	124,781
50,028	-5,465	252,205	124,588
51,042	-5,656	251,808	124,216
52,057	-5,831	251,688	123,994
53,071	-5,782	251,617	123,991
54,086	-5,465	251,384	124,139
55,101	-5,544	251,213	123,975
56,115	-5,299	251,203	124,171
57,130	-4,827	251,059	124,496
58,144	-4,506	250,949	124,708
59,159	-4,643	250,710	124,459
60,174	-4,492	250,532	124,489
61,188	-4,521	250,252	124,315
62,203	-4,672	250,078	124,088
63,217	-4,794	249,832	123,850
64,232	-4,616	249,552	123,853
65,247	-4,674	249,514	123,773
66,261	-4,612	249,220	123,669
67,276	-5,033	248,987	123,182
68,290	-4,983	248,587	123,016
69,305	-5,195	248,418	122,741
70,320	-4,915	248,206	122,864
71,334	-4,800	248,176	122,936
72,349	-4,635	247,929	122,943
73,363	-4,562	247,829	122,944
74,378	-4,580	247,624	122,816
75,393	-4,692	247,434	122,616
76,407	-4,567	247,157	122,573
77,422	-4,670	247,095	122,445
78,436	-4,534	246,862	122,434
79,451	-4,771	246,663	122,124
80,466	-4,766	246,226	121,900
81,480	-4,845	246,155	121,788
82,495	-4,944	246,001	121,617
83,509	-4,898	245,875	121,583
84,524	-5,033	245,671	121,357
85,539	-5,216	245,413	121,065
86,553	-5,285	245,190	120,886
87,568	-5,066	245,014	120,973
88,582	-5,097	244,960	120,909
89,597	-4,986	244,675	120,850
90,611	-4,750	244,481	120,942
91,626	-4,838	244,489	120,862
92,641	-4,775	244,259	120,790
93,655	-5,048	243,986	120,415
94,670	-4,821	243,681	120,444
95,684	-4,887	243,576	120,326
96,699	-4,869	243,376	120,231
97,714	-4,986	243,164	120,019
98,728	-4,936	243,083	120,010
99,743	-5,168	242,771	119,652
100,757	-5,326	242,672	119,461
101,772	-5,116	242,497	119,539
102,787	-4,892	242,189	119,562
103,801	-4,850	242,082	119,534
104,816	-4,739	241,866	119,508
105,830	-4,509	241,797	119,654
106,845	-4,808	241,674	119,335
107,860	-4,739	241,430	119,261
108,874	-4,965	241,238	118,969
109,889	-4,791	241,027	118,998
110,903	-4,890	240,846	118,816
111,918	-4,769	240,551	118,759
112,933	-4,815	240,590	118,730
113,947	-4,780	240,317	118,614
114,962	-4,844	240,223	118,504
115,976	-4,767	239,980	118,437
116,991	-4,758	239,824	118,357
118,006	-4,731	239,651	118,283
119,020	-4,735	239,647	118,267
120,035	-4,580	239,400	118,262
121,049	-4,506	239,253	118,239
122,064	-4,767	239,144	117,961
123,079	-4,775	238,845	117,796
124,093	-4,854	238,696	117,648
125,108	-5,112	238,470	117,316
126,122	-5,147	238,174	117,131
127,137	-5,132	237,897	116,997
128,151	-5,060	237,891	117,042
129,166	-5,000	237,782	117,027
130,181	-5,104	237,540	116,813
131,195	-5,123	237,322	116,680
132,210	-5,016	237,236	116,714
133,224	-4,937	237,206	116,753
134,239	-4,921	237,041	116,674
135,254	-4,632	236,626	116,693
136,268	-4,943	236,405	116,323
137,283	-5,149	236,293	116,091
138,297	-5,314	236,154	115,879
139,312	-5,099	235,775	115,856
140,327	-5,138	236,023	115,936
141,341	-4,524	235,933	116,376
142,356	-4,554	235,788	116,270
143,370	-4,639	235,519	116,059
144,385	-4,545	235,514	116,121
145,400	-4,535	235,230	115,979
146,414	-4,423	234,877	115,884
147,429	-4,552	234,869	115,767
148,443	-4,448	234,711	115,761
149,458	-4,582	234,507	115,544
150,473	-4,599	234,371	115,453
151,487	-4,483	234,092	115,398
152,502	-4,480	233,940	115,315
153,516	-4,593	234,006	115,247
154,531	-4,612	233,796	115,118
155,546	-4,652	233,527	114,944
156,560	-4,529	233,335	114,936
157,575	-4,889	233,235	114,591
158,589	-4,585	232,870	114,643
159,604	-4,423	232,810	114,731
160,619	-4,290	232,751	114,797
161,633	-4,264	232,504	114,686
162,648	-4,309	232,565	114,670
163,662	-4,498	232,239	114,350
164,677	-4,608	232,043	114,156
165,692	-4,536	231,938	114,151
166,706	-4,506	231,889	114,140
167,721	-4,284	231,650	114,188
168,735	-4,362	231,529	114,056
169,750	-4,551	231,470	113,868
170,764	-4,519	231,294	113,797
171,779	-4,304	230,976	113,799
172,794	-4,427	230,840	113,625
173,808	-4,524	230,425	113,335
174,823	-5,129	230,288	112,783
175,837	-5,269	230,155	112,598
176,852	-4,856	230,074	112,872
177,867	-4,559	230,020	113,068
178,881	-4,337	229,997	113,220
179,896	-4,470	229,778	112,998
180,910	-4,121	229,533	113,140
181,925	-4,268	229,375	112,938
182,940	-4,291	229,164	112,806
183,954	-4,271	229,232	112,845
184,969	-4,231	229,081	112,791
185,983	-4,216	228,927	112,717
186,998	-4,229	228,703	112,587
188,013	-4,251	228,664	112,541
189,027	-4,166	228,446	112,489
190,042	-4,216	228,179	112,309
191,056	-4,256	228,070	112,214
192,071	-4,280	227,867	112,086
193,086	-4,466	227,805	111,902
194,100	-4,291	227,567	111,910
195,115	-4,536	227,261	111,560
196,129	-5,299	226,980	110,824
197,144	-2,104	227,885	113,727
198,159	1,980	229,135	117,510
199,173	4,198	229,613	119,465
200,188	4,325	229,644	119,569
201,202	4,406	229,451	119,521
202,217	4,374	229,267	119,389
203,232	4,684	229,209	119,588
204,246	4,738	229,056	119,540
205,261	4,638	229,021	119,433
206,275	4,765	228,997	119,508
207,290	5,007	228,685	119,522
208,304	5,055	228,545	119,475
209,319	4,805	228,362	119,176
210,334	4,902	228,140	119,124
211,348	4,686	227,835	118,788
212,363	4,156	227,715	118,308
213,377	4,114	227,591	118,201
214,392	4,189	227,185	118,037
215,407	4,114	227,174	117,963
216,421	4,242	227,141	118,034
217,436	4,263	226,962	117,946
218,450	4,012	226,621	117,566
219,465	3,701	226,750	117,385
220,480	3,794	226,495	117,314
221,494	3,834	226,348	117,258
222,509	4,015	226,179	117,298
223,523	3,801	226,052	117,058
224,538	3,890	225,794	116,983
225,553	4,079	225,678	117,055
226,567	3,978	225,639	116,948
227,582	4,445	225,506	117,223
228,596	4,436	225,437	117,170
229,611	4,201	225,125	116,819
230,626	3,904	225,012	116,525
231,640	4,127	224,807	116,578
232,655	4,388	224,693	116,705
233,669	4,533	224,746	116,832
234,684	4,706	224,522	116,836
235,699	4,337	224,509	116,540
236,713	4,397	224,105	116,365
237,728	4,041	223,871	115,965
238,742	4,029	223,690	115,852
239,757	4,021	223,512	115,743
240,772	4,033	223,573	115,774
241,786	4,051	223,439	115,707
242,801	4,183	223,415	115,784
243,815	4,501	223,038	115,817
244,830	4,390	223,084	115,747
245,844	4,320	222,830	115,553
246,859	4,239	222,564	115,344
247,874	4,251	222,599	115,361
248,888	4,463	222,392	115,401
249,903	4,155	222,257	115,091
250,917	4,232	222,113	115,063
251,932	4,155	221,914	114,893
252,947	4,001	221,782	114,699
253,961	3,991	221,716	114,648
254,976	3,895	221,489	114,448
255,990	4,048	221,345	114,478
257,005	4,278	221,213	114,570
258,020	4,182	221,218	114,491
259,034	4,608	221,048	114,709
260,049	4,658	220,797	114,606
261,063	4,300	220,661	114,260
262,078	4,498	220,513	114,320
263,093	4,390	220,619	114,285
264,107	4,332	220,427	114,132
265,122	4,532	220,175	114,139
266,136	4,462	220,144	114,061
267,151	4,499	219,910	113,956
268,166	4,126	219,778	113,603
269,180	3,999	219,400	113,304
270,195	3,951	219,210	113,161
271,209	3,990	219,118	113,132
272,224	4,112	219,166	113,236
273,239	4,176	219,094	113,236
274,253	4,159	218,766	113,044
275,268	3,980	218,633	112,834
276,282	3,710	218,385	112,498
277,297	3,895	218,285	112,572
278,312	3,922	218,076	112,474
279,326	4,034	218,029	112,522
280,341	4,029	217,944	112,464
281,355	4,022	217,882	112,417
282,370	4,393	217,523	112,492
283,384	4,130	217,424	112,239
284,399	3,862	217,262	111,950
285,414	3,814	217,207	111,877
286,428	4,034	217,152	111,999
287,443	4,195	216,967	112,010
288,457	4,119	216,891	111,906
289,472	4,075	216,751	111,792
290,487	3,728	216,456	111,378
291,501	3,641	216,301	111,225
292,516	3,860	216,193	111,318
293,530	3,907	216,067	111,277
294,545	3,759	216,022	111,137
295,560	4,046	215,795	111,218
296,574	3,919	215,700	111,067
297,589	4,150	215,584	111,165
298,603	4,092	215,542	111,092
299,618	3,969	215,487	110,965
300,633	4,085	215,141	110,859
301,647	4,361	215,259	111,109
302,662	4,368	214,937	110,939
303,676	4,560	214,739	110,964
304,691	4,439	214,781	110,889
305,706	4,306	214,586	110,683
306,720	4,406	214,424	110,662
307,735	4,133	214,216	110,349
308,749	4,098	214,124	110,267
309,764	4,025	214,078	110,181
310,779	4,396	213,937	110,364
311,793	4,300	213,844	110,237
312,808	4,220	213,631	110,060
313,822	4,296	213,343	109,956
314,837	4,199	213,169	109,787
315,852	3,936	213,087	109,548
316,866	4,035	212,906	109,516
317,881	4,234	212,858	109,623
318,895	4,209	212,875	109,604
319,910	4,206	212,560	109,430
320,925	3,993	212,403	109,188
321,939	3,457	212,125	108,656
322,954	3,783	212,004	108,815
323,968	4,056	212,195	109,097
324,983	4,290	211,963	109,133
325,997	4,081	211,901	108,944
327,012	4,366	211,688	109,027
328,027	4,142	211,530	108,778
329,041	4,402	211,594	108,984
330,056	4,418	211,388	108,879
331,070	4,292	211,021	108,592
332,085	3,775	210,934	108,174
333,100	3,848	210,773	108,132
334,114	4,028	210,699	108,212
335,129	4,183	210,630	108,275
336,143	3,985	210,362	107,989
337,158	3,965	210,315	107,941
338,173	4,238	210,157	108,042
339,187	4,091	209,911	107,803
340,202	3,598	209,853	107,418
341,216	3,699	209,620	107,360
342,231	3,779	209,508	107,349
343,246	4,005	209,455	107,470
344,260	3,905	209,400	107,363
345,275	3,932	209,388	107,366
346,289	4,248	209,242	107,502
347,304	3,992	209,038	107,209
348,319	3,959	208,906	107,109
349,333	4,096	208,786	107,133
350,348	4,039	208,641	107,010
351,362	4,174	208,463	107,002
352,377	4,010	208,420	106,857
353,392	4,091	208,337	106,861
354,406	3,919	208,305	106,716
355,421	193,520	1347,090	1434,790
356,435	154,378	1485,944	1434,905
