DTS Sentinel unit serial number:	SN410029Multiplexer serial number:	ORYXHardware model number:	OX2-SRSoftware version number:	ORYX F/W v4,00 Oryx Data Collector v3.7.2.0data status	okinstallation	B6 Nyhavnadifferential loss correction	single-endedforward channel	channel 2reverse channel	N/Adate	2023/12/09time	14:10:08forward acquisition time	300,00reverse acquisition time	0,00gamma	499,1914k internal	0,3134k external	0,3134temperature offset calibration	1,0000default loss term (dB/km)	0,3820temperature slope calibration	1,0000multiplexer offset coefficient	1,0000multiplexer slope coefficient	1,0000fibre end	0,00T internal ref (°C)	20,46T ext. ref 1 (°C)	4,31T ext. ref 2 (°C)	4,33length (m)	temperature (°C)	Stokes	anti-Stokes-744,400	-200,000	0,002	-0,026
-743,385	5,946	-0,246	0,135
-742,371	-200,000	0,001	-0,062
-741,356	-38,030	-0,299	0,118
-740,342	-69,012	0,092	-0,026
-739,327	14,547	-0,258	0,149
-738,312	-126,097	-0,004	0,000
-737,298	-93,768	-0,174	0,035
-736,283	456,038	0,017	0,029
-735,269	15,317	-0,219	0,127
-734,254	5,904	-0,124	-0,068
-733,239	-86,782	-0,484	-0,109
-732,225	119,523	0,029	0,026
-731,210	-200,000	0,007	0,079
-730,196	-200,000	0,003	0,014
-729,181	60,486	0,041	-0,030
-728,167	-200,000	-0,000	-0,078
-727,152	-70,561	-0,054	-0,015
-726,137	-200,000	0,003	0,029
-725,123	-1,037	-0,054	0,028
-724,108	-118,378	-0,168	-0,022
-723,094	800,000	-0,022	-0,052
-722,079	500,732	0,048	-0,083
-721,064	176,927	-0,031	-0,033
-720,050	-88,643	-0,008	0,002
-719,035	-115,116	-0,111	-0,015
-718,021	8,087	-0,081	-0,045
-717,006	800,000	-0,017	0,053
-715,991	-139,230	-0,181	-0,014
-714,977	-181,892	-0,090	0,001
-713,962	-200,000	0,001	-0,035
-712,948	-200,000	0,001	0,074
-711,933	800,000	0,032	0,070
-710,918	2,060	-0,099	0,053
-709,904	-200,000	0,016	-0,079
-708,889	209,747	-0,037	-0,043
-707,875	499,146	-0,081	-0,138
-706,860	171,288	-0,071	0,076
-705,845	-200,000	-0,005	0,109
-704,831	-42,677	-0,053	0,020
-703,816	340,386	-0,092	-0,134
-702,802	800,000	-0,030	0,073
-701,787	54,205	0,056	-0,040
-700,772	-200,000	0,009	0,059
-699,758	-200,000	0,030	0,156
-698,743	119,699	-0,142	0,131
-697,729	-2,761	0,058	-0,030
-696,714	-67,920	-0,040	0,012
-695,699	-78,137	0,038	-0,010
-694,685	-200,000	-0,019	0,072
-693,670	34,609	-0,182	-0,117
-692,656	-200,000	-0,012	-0,066
-691,641	31,154	-0,082	-0,052
-690,627	800,000	-0,091	0,280
-689,612	-200,000	0,010	0,050
-688,597	88,878	-0,079	-0,065
-687,583	-200,000	0,014	-0,110
-686,568	-67,142	0,011	-0,003
-685,554	81,407	-0,070	-0,056
-684,539	-200,000	0,005	-0,063
-683,524	178,006	-0,040	-0,043
-682,510	-200,000	0,008	0,065
-681,495	23,478	-0,139	-0,084
-680,481	-200,000	-0,017	0,077
-679,466	-200,000	0,046	-0,168
-678,451	800,000	-0,027	0,060
-677,437	-200,000	-0,024	-0,083
-676,422	-200,000	-0,007	0,042
-675,408	-144,832	0,081	-0,005
-674,393	-164,020	0,050	-0,002
-673,378	-29,724	-0,167	-0,070
-672,364	261,731	-0,073	-0,094
-671,349	-200,000	0,001	-0,061
-670,335	226,829	-0,053	-0,064
-669,320	427,779	-0,089	-0,142
-668,305	-130,249	-0,128	-0,013
-667,291	83,474	-0,072	-0,058
-666,276	249,926	0,032	-0,040
-665,262	107,809	-0,080	-0,071
-664,247	89,140	-0,049	0,040
-663,232	-33,337	-0,042	0,017
-662,218	-200,000	0,017	-0,139
-661,203	-23,395	-0,150	0,066
-660,189	391,534	0,034	-0,053
-659,174	12,450	0,018	-0,010
-658,159	119,963	-0,094	-0,086
-657,145	214,900	-0,046	-0,054
-656,130	-74,707	-0,010	-0,003
-655,116	266,900	0,046	-0,059
-654,101	50,415	0,111	0,078
-653,086	-200,000	0,028	0,171
-652,072	-85,045	-0,083	-0,019
-651,057	527,523	0,130	-0,228
-650,043	59,976	0,030	-0,022
-649,028	-90,952	0,027	-0,006
-648,014	498,089	0,077	0,132
-646,999	-200,000	0,044	0,150
-645,984	113,541	-0,084	-0,076
-644,970	-19,590	-0,027	0,013
-643,955	-200,000	-0,022	-0,074
-642,941	800,000	-0,053	-0,151
-641,926	-21,963	-0,055	-0,025
-640,911	-148,394	-0,016	0,001
-639,897	-200,000	-0,003	-0,032
-638,882	-200,000	0,002	-0,029
-637,868	-20,631	-0,087	0,039
-636,853	-70,955	-0,028	-0,008
-635,838	283,437	-0,041	-0,055
-634,824	5,556	0,100	-0,055
-633,809	-200,000	-0,007	0,131
-632,795	267,342	0,004	-0,005
-631,780	-65,775	0,127	0,037
-630,765	-57,860	0,134	0,043
-629,751	-200,000	-0,026	-0,131
-628,736	196,613	0,045	0,051
-627,722	-173,369	-0,091	0,002
-626,707	-200,000	-0,004	0,024
-625,692	89,062	-0,068	0,056
-624,678	180,760	-0,028	-0,030
-623,663	-200,000	-0,012	-0,087
-622,649	-200,000	-0,042	-0,170
-621,634	93,944	-0,046	0,038
-620,619	-81,761	-0,257	0,062
-619,605	-200,000	-0,011	0,116
-618,590	548,750	0,025	-0,045
-617,576	-200,000	-0,002	0,013
-616,561	-200,000	-0,018	0,090
-615,546	-94,608	-0,054	0,011
-614,532	-50,243	-0,059	-0,021
-613,517	-200,000	-0,017	-0,106
-612,503	-200,000	-0,138	0,000
-611,488	-155,725	-0,034	0,002
-610,474	-200,000	0,003	0,112
-609,459	-36,967	0,107	-0,042
-608,444	-134,841	-0,148	0,013
-607,430	800,000	-0,043	-0,104
-606,415	708,332	-0,041	-0,081
-605,401	-43,155	0,049	0,018
-604,386	-30,976	0,110	-0,045
-603,371	-14,778	-0,140	0,066
-602,357	-126,427	-0,132	0,014
-601,342	-52,285	-0,077	-0,026
-600,328	292,220	-0,041	-0,056
-599,313	366,864	-0,037	0,055
-598,298	800,000	-0,078	0,199
-597,284	731,305	-0,036	0,072
-596,269	23,920	0,080	-0,049
-595,255	-63,198	0,184	0,056
-594,240	65,968	0,109	-0,082
-593,225	-114,744	0,081	-0,011
-592,211	16,430	0,022	-0,013
-591,196	-200,000	-0,037	0,152
-590,182	-66,649	0,052	-0,015
-589,167	-67,815	-0,022	-0,006
-588,152	-200,000	-0,029	0,113
-587,138	139,527	-0,078	0,076
-586,123	-200,000	0,019	0,076
-585,109	-200,000	0,004	-0,067
-584,094	325,145	-0,073	-0,103
-583,079	-91,278	0,096	0,020
-582,065	-2,751	0,016	-0,008
-581,050	-69,859	0,094	0,026
-580,036	800,000	0,044	-0,141
-579,021	-18,084	-0,055	-0,025
-578,006	38,317	0,034	0,022
-576,992	287,544	-0,015	0,020
-575,977	396,891	0,015	-0,023
-574,963	-111,797	0,133	0,020
-573,948	39,851	-0,028	0,019
-572,934	-72,148	0,056	-0,015
-571,919	-10,165	0,059	-0,029
-570,904	424,223	-0,091	-0,145
-569,890	485,699	-0,095	-0,160
-568,875	367,557	0,092	-0,137
-567,861	149,413	0,128	0,128
-566,846	-6,021	0,127	0,064
-565,831	0,541	0,084	-0,044
-564,817	800,000	0,018	-0,042
-563,802	-200,000	0,001	-0,057
-562,788	800,000	0,050	0,117
-561,773	53,442	-0,038	0,027
-560,758	-200,000	-0,017	-0,125
-559,744	323,631	0,037	-0,052
-558,729	88,466	0,074	-0,061
-557,715	136,026	0,034	0,033
-556,700	800,000	-0,046	0,108
-555,685	308,071	-0,060	0,083
-554,671	58,758	0,020	-0,015
-553,656	-157,062	0,149	0,007
-552,642	-20,381	0,059	0,027
-551,627	-200,000	-0,021	0,070
-550,612	421,785	-0,061	0,097
-549,598	-186,021	-0,124	-0,001
-548,583	-61,395	-0,195	-0,060
-547,569	26,590	0,132	0,082
-546,554	23,859	0,134	0,081
-545,539	241,857	-0,080	0,099
-544,525	59,280	0,092	-0,067
-543,510	-43,319	0,048	0,018
-542,496	97,877	-0,112	-0,095
-541,481	46,790	-0,097	0,066
-540,466	18,152	0,068	-0,040
-539,452	-48,829	0,072	0,025
-538,437	598,618	0,031	0,056
-537,423	800,000	-0,048	0,126
-536,408	-104,501	0,076	-0,013
-535,393	800,000	-0,037	-0,117
-534,379	483,522	-0,052	0,088
-533,364	800,000	0,049	0,118
-532,350	-177,405	0,100	-0,002
-531,335	-33,378	-0,097	0,040
-530,321	-70,292	0,130	0,036
-529,306	-35,526	0,034	0,014
-528,291	-16,812	0,082	0,038
-527,277	-95,012	-0,030	0,006
-526,262	-81,181	0,116	-0,028
-525,248	157,124	-0,046	-0,047
-524,233	-114,044	0,047	-0,007
-523,218	-71,213	0,111	-0,030
-522,204	-71,134	0,133	0,037
-521,189	133,227	0,099	-0,094
-520,175	-200,000	0,018	-0,124
-519,160	-13,199	-0,040	0,019
-518,145	-20,359	-0,073	-0,033
-517,131	164,800	0,037	0,038
-516,116	5,439	0,026	0,014
-515,102	82,978	-0,103	0,083
-514,087	83,640	-0,098	0,079
-513,072	530,310	-0,027	-0,047
-512,058	-200,000	-0,038	-0,126
-511,043	-200,000	-0,026	-0,135
-510,029	-200,000	0,008	-0,028
-509,014	-188,284	-0,070	0,001
-507,999	-200,000	-0,017	0,175
-506,985	87,266	-0,066	-0,054
-505,970	64,447	0,023	0,017
-504,956	-182,920	-0,220	-0,003
-503,941	280,938	-0,057	0,075
-502,926	223,522	-0,035	0,041
-501,912	155,721	0,103	0,104
-500,897	268,693	0,024	-0,031
-499,883	57,740	-0,047	0,034
-498,868	164,760	0,099	-0,103
-497,853	52,659	-0,085	-0,060
-496,839	-200,000	0,011	-0,054
-495,824	321,715	-0,085	-0,119
-494,810	79,091	0,014	0,011
-493,795	-135,328	-0,136	0,012
-492,781	226,166	-0,062	-0,074
-491,766	800,000	0,024	-0,056
-490,751	112,915	-0,112	-0,100
-489,737	-189,873	0,127	0,001
-488,722	627,960	0,063	0,118
-487,708	112,974	-0,072	0,064
-486,693	-58,009	0,092	0,029
-485,678	-200,000	-0,018	-0,090
-484,664	-200,000	-0,010	0,034
-483,649	-158,291	-0,058	0,002
-482,635	-200,000	-0,007	-0,092
-481,620	41,254	-0,005	-0,003
-480,605	-159,862	-0,009	-0,000
-479,591	123,977	-0,030	-0,027
-478,576	-83,111	0,111	0,026
-477,562	-19,264	-0,031	0,014
-476,547	-200,000	-0,003	-0,060
-475,532	-200,000	-0,023	-0,096
-474,518	-200,000	0,002	-0,027
-473,503	210,779	-0,060	-0,069
-472,489	9,908	-0,085	0,047
-471,474	219,942	0,063	0,074
-470,459	800,000	-0,031	-0,064
-469,445	33,453	0,109	0,069
-468,430	-200,000	0,005	-0,051
-467,416	74,997	0,076	0,059
-466,401	-200,000	-0,000	0,104
-465,386	-200,000	0,011	0,067
-464,372	-200,000	0,003	-0,054
-463,357	-200,000	0,027	-0,117
-462,343	-128,953	-0,045	0,005
-461,328	-200,000	0,011	0,055
-460,313	-200,000	-0,001	-0,022
-459,299	-27,326	0,052	-0,022
-458,284	185,902	-0,013	-0,014
-457,270	751,896	0,042	0,084
-456,255	42,775	0,083	-0,055
-455,241	44,557	-0,136	-0,092
-454,226	100,624	-0,123	0,105
-453,211	702,122	-0,041	0,080
-452,197	43,002	-0,048	-0,032
-451,182	-200,000	0,020	0,066
-450,168	87,121	-0,060	-0,049
-449,153	-79,241	-0,050	0,012
-448,138	-100,242	-0,106	0,019
-447,124	-142,494	0,025	0,002
-446,109	-81,035	0,072	-0,017
-445,095	16,516	-0,049	0,028
-444,080	-166,533	0,064	0,002
-443,065	278,835	0,046	-0,061
-442,051	99,051	-0,036	0,030
-441,036	-200,000	-0,005	-0,052
-440,022	-41,534	-0,067	0,025
-439,007	212,444	0,068	0,079
-437,992	366,309	0,083	-0,123
-436,978	74,332	0,105	0,081
-435,963	628,250	0,041	0,075
-434,949	-29,518	-0,105	-0,044
-433,934	-1,107	0,014	0,007
-432,919	221,347	-0,069	-0,082
-431,905	800,000	-0,035	-0,102
-430,890	7,194	0,084	-0,046
-429,876	234,684	0,042	0,051
-428,861	77,226	-0,075	0,058
-427,846	107,391	0,021	-0,018
-426,832	-200,000	-0,041	-0,151
-425,817	66,052	-0,044	0,033
-424,803	542,041	-0,031	-0,054
-423,788	-140,893	0,091	0,007
-422,773	-81,233	0,066	-0,016
-421,759	-200,000	-0,001	0,012
-420,744	589,803	0,039	0,070
-419,730	58,982	-0,049	-0,035
-418,715	-200,000	-0,019	0,078
-417,701	103,435	0,109	0,094
-416,686	293,198	-0,052	-0,070
-415,671	354,107	-0,047	0,069
-414,657	-119,040	0,116	0,015
-413,642	-70,785	0,026	-0,007
-412,628	-8,060	-0,069	-0,034
-411,613	61,804	-0,034	-0,025
-410,598	1,876	0,076	-0,040
-409,584	79,151	0,152	0,119
-408,569	-57,537	0,066	0,021
-407,555	-200,000	0,012	-0,045
-406,540	326,534	0,063	-0,089
-405,525	-56,829	0,031	-0,010
-404,511	137,828	0,086	-0,082
-403,496	-101,404	0,024	0,004
-402,482	631,935	0,098	-0,183
-401,467	-49,539	0,063	-0,022
-400,452	-200,000	0,006	0,121
-399,438	189,794	-0,053	0,059
-398,423	-15,603	0,067	0,031
-397,409	-200,000	0,038	-0,180
-396,394	-200,000	0,018	-0,093
-395,379	-200,000	0,011	0,082
-394,365	428,011	-0,016	-0,025
-393,350	571,229	0,054	0,096
-392,336	-200,000	-0,007	-0,132
-391,321	607,776	0,061	0,112
-390,306	-200,000	-0,005	-0,130
-389,292	-143,912	0,057	0,004
-388,277	30,298	-0,028	-0,017
-387,263	-54,678	0,050	-0,016
-386,248	-57,302	0,027	0,009
-385,233	-45,596	0,102	-0,037
-384,219	800,000	-0,029	0,059
-383,204	-86,590	-0,094	0,021
-382,190	-122,824	0,065	0,008
-381,175	151,505	0,081	0,081
-380,160	-98,782	0,030	0,005
-379,146	117,680	0,056	-0,050
-378,131	-28,156	0,090	0,038
-377,117	105,974	-0,085	0,074
-376,102	-116,542	0,097	0,013
-375,088	-78,160	-0,091	-0,023
-374,073	21,931	-0,086	0,051
-373,058	32,875	0,187	0,119
-372,044	-62,750	-0,123	-0,037
-371,029	760,974	0,046	-0,092
-370,015	25,814	-0,058	0,035
-369,000	556,686	-0,098	-0,174
-367,985	-200,000	-0,004	-0,079
-366,971	9,460	-0,145	-0,080
-365,956	113,335	0,072	-0,064
-364,942	79,584	0,074	0,058
-363,927	-12,187	-0,039	-0,019
-362,912	781,369	0,007	-0,015
-361,898	90,628	-0,111	-0,091
-360,883	478,622	-0,021	0,035
-359,869	-200,000	0,005	-0,036
-358,854	-5,274	-0,062	-0,031
-357,839	-24,530	0,171	0,074
-356,825	63,925	0,102	0,075
-355,810	-200,000	-0,009	-0,124
-354,796	800,000	-0,038	-0,119
-353,781	-200,000	-0,000	0,012
-352,766	420,121	-0,025	-0,040
-351,752	-126,900	-0,072	-0,008
-350,737	-200,000	0,007	0,141
-349,723	800,000	0,007	0,020
-348,708	-118,394	-0,097	0,012
-347,693	-175,640	0,075	-0,001
-346,679	-50,435	-0,020	-0,007
-345,664	-200,000	0,043	0,164
-344,650	-66,449	0,149	-0,043
-343,635	13,286	0,044	0,025
-342,620	52,979	0,078	0,054
-341,606	-167,799	-0,120	0,003
-340,591	131,491	0,107	-0,100
-339,577	-82,860	-0,138	0,032
-338,562	-83,319	-0,034	0,008
-337,548	800,000	-0,062	-0,177
-336,533	800,000	0,051	0,138
-335,518	-200,000	0,015	0,076
-334,504	11,357	-0,097	0,054
-333,489	621,543	-0,057	0,105
-332,475	-200,000	0,014	0,068
-331,460	-200,000	0,023	0,082
-330,445	800,000	-0,006	-0,014
-329,431	61,589	0,087	0,063
-328,416	800,000	-0,020	0,053
-327,402	-200,000	0,065	0,276
-326,387	800,000	0,009	-0,024
-325,372	-72,163	-0,082	-0,022
-324,358	83,251	0,108	-0,086
-323,343	-200,000	-0,004	-0,019
-322,329	-74,400	-0,114	-0,030
-321,314	-77,737	-0,125	0,031
-320,299	800,000	0,041	0,112
-319,285	196,066	0,099	-0,110
-318,270	-81,323	-0,085	0,020
-317,256	35,002	-0,076	-0,048
-316,241	800,000	0,038	-0,099
-315,226	60,607	-0,071	0,051
-314,212	-63,867	0,078	-0,023
-313,197	161,768	-0,051	-0,052
-312,183	-9,686	-0,019	0,009
-311,168	-200,000	-0,030	-0,202
-310,153	800,000	0,076	0,159
-309,139	800,000	0,017	-0,042
-308,124	35,884	0,096	0,061
-307,110	626,144	-0,015	-0,029
-306,095	74,204	0,081	0,062
-305,080	227,077	0,046	0,054
-304,066	-131,823	0,080	-0,008
-303,051	475,242	0,017	-0,028
-302,037	-25,359	-0,097	0,042
-301,022	348,354	-0,019	0,027
-300,008	45,623	0,081	0,055
-298,993	-200,000	0,023	0,100
-297,978	-200,000	-0,000	-0,050
-296,964	412,761	-0,101	-0,158
-295,949	7,228	-0,105	-0,057
-294,935	19,395	-0,085	-0,050
-293,920	800,000	-0,009	-0,025
-292,905	-118,755	-0,009	-0,001
-291,891	-78,820	0,084	-0,021
-290,876	60,862	0,094	-0,068
-289,862	380,507	-0,037	0,055
-288,847	226,534	0,038	-0,045
-287,832	390,410	-0,055	0,084
-286,818	-28,276	0,186	0,078
-285,803	52,945	0,029	0,020
-284,789	19,209	0,016	-0,009
-283,774	-200,000	0,005	0,037
-282,759	-24,095	-0,153	-0,066
-281,745	456,603	-0,037	0,059
-280,730	-116,043	0,159	0,021
-279,716	-200,000	0,029	0,122
-278,701	304,730	0,035	-0,048
-277,686	333,663	-0,113	0,160
-276,672	730,349	-0,082	0,160
-275,657	-9,838	-0,092	-0,044
-274,643	-200,000	0,007	-0,068
-273,628	196,343	-0,021	-0,023
-272,613	-136,806	0,131	0,011
-271,599	9,641	0,039	0,021
-270,584	171,392	-0,077	0,081
-269,570	-122,145	0,066	-0,008
-268,555	-200,000	0,012	0,083
-267,540	-117,429	0,091	-0,012
-266,526	-200,000	0,019	-0,064
-265,511	-136,659	0,037	0,003
-264,497	-88,510	-0,060	0,013
-263,482	54,773	0,050	-0,035
-262,467	-128,766	-0,077	-0,008
-261,453	231,955	-0,052	-0,062
-260,438	425,210	-0,016	-0,026
-259,424	-200,000	-0,031	-0,170
-258,409	-200,000	-0,011	0,159
-257,395	-125,903	-0,147	-0,016
-256,380	-22,723	0,087	-0,038
-255,365	800,000	-0,035	-0,075
-254,351	-200,000	0,013	0,060
-253,336	-103,496	0,082	0,014
-252,322	-200,000	-0,019	-0,070
-251,307	430,303	-0,029	0,047
-250,292	800,000	0,008	0,023
-249,278	-200,000	0,034	0,124
-248,263	286,081	-0,016	0,022
-247,249	-200,000	0,005	0,097
-246,234	3,046	0,051	0,027
-245,219	91,859	-0,066	0,054
-244,205	-74,268	-0,037	-0,010
-243,190	-25,229	-0,075	-0,032
-242,176	-200,000	-0,029	0,158
-241,161	-38,764	0,147	-0,056
-240,146	-106,421	-0,060	-0,010
-239,132	0,688	-0,065	-0,034
-238,117	800,000	-0,038	-0,084
-237,103	-85,107	0,071	-0,016
-236,088	555,384	0,025	-0,044
-235,073	164,413	-0,047	0,048
-234,059	47,050	0,112	0,076
-233,044	38,808	0,094	0,061
-232,030	-127,230	-0,056	-0,006
-231,015	-200,000	-0,004	-0,119
-230,000	800,000	0,038	-0,085
-228,986	568,481	-0,034	0,060
-227,971	-200,000	-0,009	0,029
-226,957	800,000	-0,006	-0,015
-225,942	637,236	-0,057	0,106
-224,927	580,418	-0,074	0,133
-223,913	215,328	-0,130	-0,151
-222,898	-200,000	0,027	-0,118
-221,884	-200,000	-0,025	-0,112
-220,869	-200,000	-0,014	0,053
-219,855	384,861	0,045	-0,067
-218,840	800,000	-0,041	-0,117
-217,825	-184,155	-0,105	-0,001
-216,811	543,727	0,043	-0,074
-215,796	327,100	-0,024	0,034
-214,782	188,867	0,081	-0,088
-213,767	179,243	0,085	0,091
-212,752	-65,097	-0,154	-0,045
-211,738	67,645	-0,088	-0,066
-210,723	748,684	-0,054	-0,107
-209,709	-101,659	0,113	-0,020
-208,694	118,727	0,021	-0,019
-207,679	-70,859	-0,178	-0,049
-206,665	-200,000	-0,005	-0,058
-205,650	-200,000	0,039	0,143
-204,636	146,812	-0,094	-0,092
-203,621	-200,000	-0,003	0,021
-202,606	-85,459	-0,123	-0,028
-201,592	800,000	0,010	-0,028
-200,577	-200,000	0,020	-0,092
-199,563	-22,114	0,138	0,061
-198,548	800,000	-0,005	0,014
-197,533	722,313	-0,042	0,081
-196,519	450,139	-0,028	0,045
-195,504	-175,887	0,134	-0,003
-194,490	-200,000	0,006	-0,047
-193,475	800,000	-0,069	-0,144
-192,460	-46,918	0,047	0,017
-191,446	-16,743	-0,087	-0,040
-190,431	-200,000	0,016	0,053
-189,417	-37,161	0,056	0,022
-188,402	-49,262	0,061	-0,021
-187,387	90,013	-0,091	0,074
-186,373	-200,000	-0,012	0,043
-185,358	-70,162	-0,067	0,018
-184,344	590,830	-0,024	-0,044
-183,329	-200,000	0,000	0,047
-182,315	-44,599	0,164	-0,059
-181,300	278,762	-0,086	0,111
-180,285	-200,000	0,019	-0,144
-179,271	800,000	-0,030	0,075
-178,256	-178,622	-0,151	0,002
-177,242	-47,735	0,135	0,047
-176,227	-88,340	0,098	-0,021
-175,212	800,000	-0,061	0,133
-174,198	218,784	-0,015	0,017
-173,183	37,275	-0,178	-0,114
-172,169	-47,490	-0,092	0,032
-171,154	-200,000	0,022	-0,137
-170,139	-200,000	-0,021	0,072
-169,125	481,089	0,016	0,027
-168,110	308,120	-0,062	-0,084
-167,096	747,896	0,051	-0,101
-166,081	-200,000	0,027	-0,116
-165,066	73,739	-0,160	-0,122
-164,052	800,000	-0,054	0,116
-163,037	271,298	0,043	0,055
-162,023	-148,092	0,042	-0,003
-161,008	81,476	0,038	0,030
-159,993	-200,000	-0,008	-0,030
-158,979	-200,000	0,021	0,091
-157,964	-200,000	0,013	-0,044
-156,950	734,887	-0,022	0,042
-155,935	-200,000	0,019	0,135
-154,920	800,000	0,042	0,093
-153,906	65,898	0,123	0,091
-152,891	-133,813	-0,042	0,004
-151,877	508,205	-0,027	-0,046
-150,862	236,026	0,121	-0,145
-149,847	406,253	0,032	0,050
-148,833	-200,000	-0,009	0,073
-147,818	121,873	-0,050	0,046
-146,804	236,502	-0,039	0,047
-145,789	329,068	-0,073	0,101
-144,775	388,331	0,068	0,102
-143,760	-50,435	-0,087	0,030
-142,745	315,580	0,070	-0,096
-141,731	800,000	-0,023	-0,058
-140,716	-7,656	-0,107	0,053
-139,702	-182,476	0,134	-0,002
-138,687	-200,000	-0,011	0,060
-137,672	-200,000	-0,025	0,117
-136,658	-200,000	0,029	-0,151
-135,643	-53,718	0,176	-0,058
-134,629	713,922	-0,062	0,120
-133,614	89,925	0,067	0,054
-132,599	800,000	-0,032	0,066
-131,585	-133,884	0,069	-0,006
-130,570	5,533	-0,069	-0,037
-129,556	-134,791	-0,179	0,016
-128,541	-37,835	-0,120	-0,046
-127,526	800,000	0,066	0,169
-126,512	6,417	0,069	0,037
-125,497	-200,000	0,032	0,169
-124,483	-200,000	0,005	0,065
-123,468	224,823	0,100	0,117
-122,453	-200,000	0,001	0,068
-121,439	166,215	0,051	-0,052
-120,424	22,796	0,151	-0,089
-119,410	74,735	-0,072	0,055
-118,395	-110,700	0,160	0,024
-117,380	33,531	-0,086	-0,054
-116,366	-200,000	-0,001	-0,009
-115,351	116,274	-0,045	0,040
-114,337	-46,487	-0,107	-0,038
-113,322	448,523	-0,059	-0,094
-112,307	-200,000	-0,003	-0,111
-111,293	800,000	-0,025	0,062
-110,278	196,604	-0,088	0,097
-109,264	63,616	0,024	-0,018
-108,249	102,702	-0,106	-0,090
-107,234	189,261	-0,066	-0,072
-106,220	117,778	-0,146	-0,131
-105,205	-200,000	0,015	-0,070
-104,191	-90,240	0,085	-0,018
-103,176	-81,300	-0,047	0,011
-102,162	-123,485	-0,133	-0,015
-101,147	-86,724	-0,061	0,013
-100,132	70,994	-0,070	0,053
-99,118	171,699	0,063	-0,065
-98,103	-200,000	-0,021	0,074
-97,089	-200,000	0,012	-0,107
-96,074	216,878	0,108	-0,125
-95,059	100,762	0,101	0,085
-94,045	-200,000	-0,029	0,103
-93,030	-76,575	-0,089	-0,023
-92,016	-45,995	0,089	0,032
-91,001	101,837	0,088	0,074
-89,986	153,485	-0,027	0,026
-88,972	-200,000	-0,010	0,041
-87,957	-133,760	0,139	0,012
-86,943	44,478	-0,073	-0,048
-85,928	-144,435	-0,045	-0,003
-84,913	-82,357	-0,185	-0,043
-83,899	-136,488	0,055	-0,005
-82,884	800,000	0,081	0,182
-81,870	-200,000	0,001	-0,041
-80,855	87,006	0,104	0,083
-79,840	800,000	0,055	-0,115
-78,826	800,000	0,058	-0,171
-77,811	55,894	-0,081	-0,057
-76,797	-30,145	-0,181	-0,074
-75,782	131,796	0,126	0,118
-74,767	-68,877	-0,114	-0,032
-73,753	-101,127	0,102	-0,018
-72,738	178,662	0,042	0,044
-71,724	196,041	0,007	0,008
-70,709	-17,998	-0,058	0,026
-69,694	48,717	0,078	0,053
-68,680	800,000	-0,028	-0,087
-67,665	-200,000	0,024	0,191
-66,651	-200,000	0,022	0,110
-65,636	502,058	0,070	0,117
-64,622	297,814	0,094	-0,126
-63,607	-200,000	0,028	-0,103
-62,592	91,422	0,059	-0,048
-61,578	800,000	0,025	0,072
-60,563	-78,760	0,137	0,034
-59,549	273,891	-0,064	0,081
-58,534	-69,661	-1,494	-0,410
-57,519	525,063	-0,735	-1,256
-56,505	-200,000	-1,052	-4,602
-55,490	-109,830	0,787	-0,118
-54,476	800,000	5,010	12,001
-53,461	-200,000	14,770	262,628
-52,446	-200,000	697,980	2236,758
-51,432	564,909	1621,939	2854,355
-50,417	119,142	1628,769	1456,680
-49,403	76,616	1283,180	983,068
-48,388	37,474	1022,216	654,207
-47,373	22,825	982,004	580,398
-46,359	21,942	971,331	571,175
-45,344	20,780	966,989	564,809
-44,330	20,699	965,609	563,720
-43,315	20,526	963,914	562,142
-42,300	20,536	963,057	561,654
-41,286	20,515	961,966	560,926
-40,271	20,499	961,099	560,347
-39,257	20,463	960,268	559,724
-38,242	20,515	959,218	559,257
-37,227	20,532	958,339	558,778
-36,213	20,464	957,611	558,113
-35,198	20,480	956,488	557,488
-34,184	20,530	955,795	557,222
-33,169	20,469	955,090	556,594
-32,154	20,588	953,749	556,172
-31,140	20,547	953,169	555,680
-30,125	20,477	952,529	555,059
-29,111	20,507	951,473	554,520
-28,096	20,499	950,920	554,147
-27,082	20,508	950,058	553,653
-26,067	20,500	949,431	553,241
-25,052	20,480	948,718	552,738
-24,038	20,534	948,127	552,546
-23,023	20,499	947,390	551,981
-22,009	20,511	946,874	551,696
-20,994	20,539	946,152	551,343
-19,979	20,534	945,547	550,955
-18,965	20,518	944,944	550,529
-17,950	20,468	944,252	549,945
-16,936	20,396	943,732	549,393
-15,921	20,461	942,954	549,125
-14,906	20,341	942,493	548,451
-13,892	20,355	941,618	547,967
-12,877	20,376	941,018	547,663
-11,863	20,341	940,277	547,097
-10,848	20,355	940,002	546,959
-9,833	20,482	939,411	546,997
-8,819	20,429	938,928	546,527
-7,804	20,399	938,146	545,954
-6,790	20,405	937,506	545,581
-5,775	20,376	936,964	545,152
-4,760	20,438	936,295	544,936
-3,746	20,393	935,817	544,492
-2,731	20,324	935,077	543,824
-1,717	20,214	934,396	543,059
-0,702	20,219	933,825	542,721
0,313	20,046	933,009	542,523
1,327	23,045	931,194	550,832
2,342	32,057	793,241	493,126
3,356	29,363	450,689	276,100
4,371	-0,322	295,632	151,331
5,386	-4,816	276,993	137,498
6,400	-5,991	271,213	133,520
7,415	-6,384	268,669	131,893
8,429	-6,051	267,542	131,634
9,444	-6,189	266,668	131,066
10,459	-6,143	266,053	130,794
11,473	-6,271	265,360	130,325
12,488	-6,320	264,976	130,080
13,502	-6,358	264,257	129,680
14,517	-6,440	263,967	129,452
15,531	-6,414	263,612	129,290
16,546	-6,395	263,235	129,111
17,561	-6,360	262,925	128,979
18,575	-6,213	262,613	128,948
19,590	-6,362	262,213	128,606
20,604	-6,227	261,930	128,577
21,619	-6,420	261,642	128,250
22,634	-6,485	261,270	127,998
23,648	-6,426	260,776	127,797
24,663	-6,467	260,717	127,720
25,677	-6,326	260,359	127,659
26,692	-6,170	259,928	127,576
27,707	-6,270	259,837	127,431
28,721	-6,369	259,722	127,275
29,736	-6,517	259,270	126,910
30,750	-6,461	258,978	126,806
31,765	-6,454	258,786	126,706
32,780	-6,626	258,695	126,498
33,794	-6,341	258,328	126,560
34,809	-6,582	258,138	126,242
35,823	-6,305	257,819	126,320
36,838	-6,405	257,546	126,086
37,853	-6,310	257,237	126,008
38,867	-6,365	257,069	125,866
39,882	-6,475	256,885	125,668
40,896	-6,585	256,825	125,530
41,911	-6,586	256,420	125,320
42,926	-6,703	256,261	125,128
43,940	-6,473	255,939	125,162
44,955	-6,641	255,703	124,888
45,969	-6,816	255,599	124,672
46,984	-7,070	255,337	124,311
47,999	-7,143	255,112	124,126
49,013	-7,068	254,756	124,008
50,028	-7,290	254,586	123,720
51,042	-7,469	254,181	123,355
52,057	-7,197	253,890	123,440
53,071	-7,426	253,820	123,196
54,086	-7,312	253,785	123,267
55,101	-7,129	253,614	123,332
56,115	-6,822	253,244	123,408
57,130	-6,657	253,351	123,593
58,144	-6,262	253,049	123,777
59,159	-6,259	252,829	123,661
60,174	-6,437	252,736	123,450
61,188	-6,377	252,690	123,469
62,203	-6,409	252,245	123,212
63,217	-6,515	252,084	123,032
64,232	-6,482	251,854	122,937
65,247	-6,287	251,570	122,955
66,261	-6,251	251,404	122,894
67,276	-6,652	251,141	122,410
68,290	-6,755	250,864	122,175
69,305	-6,959	250,627	121,874
70,320	-6,861	250,389	121,831
71,334	-6,795	250,355	121,860
72,349	-6,287	250,185	122,202
73,363	-6,205	250,088	122,214
74,378	-6,373	249,717	121,878
75,393	-6,378	249,521	121,768
76,407	-6,288	249,239	121,696
77,422	-6,480	249,162	121,483
78,436	-6,363	248,964	121,476
79,451	-6,347	248,701	121,350
80,466	-6,087	248,332	121,381
81,480	-6,821	248,432	120,795
82,495	-6,657	248,062	120,743
83,509	-6,702	247,874	120,603
84,524	-6,759	247,851	120,532
85,539	-6,811	247,547	120,329
86,553	-6,883	247,298	120,137
87,568	-6,678	247,098	120,202
88,582	-6,651	246,982	120,158
89,597	-6,830	246,727	119,872
90,611	-6,659	246,655	119,971
91,626	-6,720	246,550	119,858
92,641	-6,308	246,237	120,042
93,655	-6,588	246,157	119,757
94,670	-6,653	246,003	119,616
95,684	-6,612	245,757	119,520
96,699	-6,500	245,428	119,444
97,714	-6,771	245,262	119,125
98,728	-6,651	245,147	119,159
99,743	-6,932	244,736	118,714
100,757	-7,317	244,761	118,393
101,772	-6,799	244,402	118,641
102,787	-6,722	244,235	118,614
103,801	-6,659	244,176	118,627
104,816	-6,669	244,140	118,591
105,830	-6,554	244,063	118,638
106,845	-6,294	243,672	118,654
107,860	-6,562	243,561	118,366
108,874	-6,786	243,329	118,057
109,889	-6,589	243,003	118,052
110,903	-6,497	242,802	118,020
111,918	-6,834	242,701	117,682
112,933	-6,663	242,626	117,776
113,947	-6,566	242,357	117,715
114,962	-6,529	242,231	117,675
115,976	-6,503	242,105	117,624
116,991	-6,712	241,993	117,387
118,006	-6,603	241,725	117,336
119,020	-6,505	241,589	117,340
120,035	-6,583	241,547	117,245
121,049	-6,232	241,386	117,445
122,064	-6,533	241,097	117,047
123,079	-6,431	240,938	117,043
124,093	-6,655	240,752	116,758
125,108	-6,899	240,642	116,494
126,122	-7,079	240,346	116,194
127,137	-7,019	239,980	116,055
128,151	-7,170	240,030	115,945
129,166	-6,878	239,702	116,015
130,181	-7,114	239,642	115,783
131,195	-6,978	239,283	115,710
132,210	-6,654	239,168	115,908
133,224	-6,735	239,138	115,817
134,239	-6,726	239,034	115,764
135,254	-6,515	238,827	115,825
136,268	-6,599	238,605	115,638
137,283	-7,059	238,345	115,129
138,297	-7,066	238,017	114,955
139,312	-7,080	237,833	114,844
140,327	-6,699	237,919	115,184
141,341	-6,344	237,857	115,431
142,356	-5,917	237,533	115,609
143,370	-6,140	237,537	115,420
144,385	-6,022	237,135	115,310
145,400	-6,117	237,109	115,210
146,414	-6,278	237,030	115,032
147,429	-6,276	236,759	114,892
148,443	-6,347	236,579	114,737
149,458	-6,407	236,520	114,650
150,473	-6,317	236,382	114,645
151,487	-6,348	236,181	114,512
152,502	-6,248	235,928	114,460
153,516	-6,172	235,802	114,450
154,531	-6,312	235,588	114,223
155,546	-6,218	235,343	114,170
156,560	-6,235	235,197	114,075
157,575	-6,448	235,042	113,819
158,589	-6,287	234,829	113,835
159,604	-6,151	234,755	113,897
160,619	-6,055	234,542	113,860
161,633	-5,952	234,445	113,885
162,648	-6,098	234,291	113,683
163,662	-6,229	234,107	113,480
164,677	-6,146	233,935	113,452
165,692	-6,169	233,804	113,361
166,706	-5,941	233,609	113,437
167,721	-6,082	233,552	113,287
168,735	-5,950	233,311	113,265
169,750	-6,017	233,271	113,182
170,764	-6,088	233,122	113,043
171,779	-6,005	232,937	113,009
172,794	-6,080	232,847	112,897
173,808	-6,482	232,637	112,467
174,823	-6,785	232,177	111,996
175,837	-6,893	232,143	111,884
176,852	-6,528	232,026	112,105
177,867	-6,286	232,019	112,283
178,881	-6,070	231,704	112,290
179,896	-6,165	231,695	112,201
180,910	-6,148	231,512	112,115
181,925	-6,292	231,354	111,916
182,940	-6,240	231,227	111,885
183,954	-6,063	230,999	111,904
184,969	-6,174	230,923	111,770
185,983	-6,128	230,815	111,744
186,998	-5,971	230,555	111,730
188,013	-6,028	230,493	111,646
189,027	-6,069	230,268	111,495
190,042	-5,906	230,178	111,569
191,056	-5,895	229,937	111,451
192,071	-6,049	229,943	111,323
193,086	-6,199	229,692	111,075
194,100	-5,980	229,383	111,086
195,115	-6,499	229,224	110,596
196,129	-6,912	229,215	110,261
197,144	-3,094	230,160	113,680
198,159	1,431	231,399	117,816
199,173	3,409	232,015	119,665
200,188	3,613	231,908	119,759
201,202	3,791	231,755	119,809
202,217	4,092	231,530	119,916
203,232	4,202	231,581	120,017
204,246	4,246	231,419	119,957
205,261	4,297	231,217	119,881
206,275	4,459	231,033	119,900
207,290	4,520	230,954	119,896
208,304	4,520	230,829	119,820
209,319	4,560	230,593	119,719
210,334	4,241	230,566	119,447
211,348	3,983	230,175	119,034
212,363	3,944	229,922	118,862
213,377	3,437	229,796	118,395
214,392	3,667	229,612	118,467
215,407	3,750	229,526	118,476
216,421	3,952	229,208	118,457
217,436	3,581	229,145	118,129
218,450	3,426	228,915	117,880
219,465	3,361	228,673	117,694
220,480	3,498	228,585	117,744
221,494	3,533	228,586	117,761
222,509	3,223	228,632	117,536
223,523	3,444	228,284	117,517
224,538	3,450	227,941	117,334
225,553	3,309	228,026	117,260
226,567	3,666	227,736	117,373
227,582	3,978	227,802	117,634
228,596	3,846	227,788	117,516
229,611	3,826	227,401	117,290
230,626	3,345	227,168	116,793
231,640	3,577	226,937	116,841
232,655	3,567	227,088	116,901
233,669	4,221	226,983	117,334
234,684	4,165	226,909	117,243
235,699	3,845	226,580	116,819
236,713	3,834	226,301	116,656
237,728	3,573	226,253	116,423
238,742	3,575	226,107	116,339
239,757	3,691	225,919	116,320
240,772	3,533	225,585	116,018
241,786	3,409	225,622	115,933
242,801	3,621	225,575	116,059
243,815	3,985	225,439	116,254
244,830	3,992	225,318	116,186
245,844	3,585	225,099	115,755
246,859	3,759	224,973	115,811
247,874	3,731	224,804	115,694
248,888	3,751	224,638	115,613
249,903	3,768	224,512	115,551
250,917	3,592	224,355	115,327
251,932	3,480	224,147	115,126
252,947	3,483	223,982	115,033
253,961	3,536	223,800	114,969
254,976	3,571	223,690	114,929
255,990	3,674	223,673	114,986
257,005	3,916	223,402	115,018
258,020	3,940	223,342	114,995
259,034	4,068	223,348	115,084
260,049	4,012	222,935	114,819
261,063	3,799	222,937	114,651
262,078	3,741	222,829	114,541
263,093	4,102	222,790	114,780
264,107	3,854	222,487	114,430
265,122	3,892	222,364	114,384
266,136	3,968	222,317	114,406
267,151	3,844	222,241	114,265
268,166	3,564	221,736	113,787
269,180	3,281	221,552	113,473
270,195	3,356	221,528	113,506
271,209	3,395	221,300	113,408
272,224	3,683	221,241	113,580
273,239	3,701	221,103	113,514
274,253	3,548	220,936	113,304
275,268	3,414	220,767	113,109
276,282	3,118	220,699	112,845
277,297	3,378	220,457	112,903
278,312	3,450	220,404	112,918
279,326	3,634	220,196	112,937
280,341	3,553	220,105	112,821
281,355	3,720	220,011	112,886
282,370	3,589	219,856	112,700
283,384	3,214	219,640	112,304
284,399	3,196	219,493	112,206
285,414	3,300	219,249	112,147
286,428	3,459	219,390	112,325
287,443	3,741	219,164	112,407
288,457	3,639	218,983	112,229
289,472	3,770	218,743	112,192
290,487	3,478	218,508	111,848
291,501	3,236	218,462	111,638
292,516	3,104	218,465	111,533
293,530	3,410	218,235	111,629
294,545	3,155	218,112	111,371
295,560	3,239	218,075	111,403
296,574	3,665	217,876	111,600
297,589	3,724	217,673	111,530
298,603	3,399	217,723	111,309
299,618	3,629	217,492	111,348
300,633	3,486	217,393	111,184
301,647	3,763	217,253	111,303
302,662	3,994	217,133	111,399
303,676	3,890	216,952	111,221
304,691	3,884	216,888	111,174
305,706	4,043	216,666	111,165
306,720	3,659	216,496	110,791
307,735	3,635	216,297	110,662
308,749	3,685	216,199	110,638
309,764	3,827	216,121	110,690
310,779	3,866	216,052	110,673
311,793	3,832	215,757	110,487
312,808	3,481	215,635	110,163
313,822	3,642	215,499	110,200
314,837	3,576	215,310	110,045
315,852	3,491	215,273	109,956
316,866	3,435	215,083	109,809
317,881	3,713	215,056	109,985
318,895	3,762	214,820	109,889
319,910	3,558	214,741	109,693
320,925	3,412	214,389	109,399
321,939	3,268	214,271	109,226
322,954	3,256	214,146	109,144
323,968	3,584	214,346	109,470
324,983	3,710	214,054	109,401
325,997	3,857	213,890	109,413
327,012	3,776	213,740	109,268
328,027	3,543	213,708	109,077
329,041	4,091	213,603	109,403
330,056	3,916	213,471	109,201
331,070	3,712	213,255	108,937
332,085	3,243	213,003	108,465
333,100	3,381	212,977	108,540
334,114	3,644	212,781	108,617
335,129	3,729	212,782	108,668
336,143	3,598	212,553	108,449
337,158	3,575	212,399	108,344
338,173	3,547	212,122	108,173
339,187	3,503	211,994	108,068
340,202	3,280	211,785	107,795
341,216	3,171	211,753	107,692
342,231	3,465	211,643	107,833
343,246	3,288	211,504	107,628
344,260	3,295	211,519	107,631
345,275	3,479	211,245	107,611
346,289	3,776	211,155	107,764
347,304	3,798	211,088	107,736
348,319	3,691	210,967	107,589
349,333	3,556	210,783	107,391
350,348	3,593	210,634	107,332
351,362	3,913	210,594	107,526
352,377	3,875	210,485	107,434
353,392	3,672	210,477	107,279
354,406	3,611	210,226	107,099
355,421	195,050	1342,248	1429,490
356,435	155,747	1480,234	1429,582
