DTS Sentinel unit serial number:	SN410029Multiplexer serial number:	ORYXHardware model number:	OX2-SRSoftware version number:	ORYX F/W v4,00 Oryx Data Collector v3.7.2.0data status	okinstallation	B6 Nyhavnadifferential loss correction	single-endedforward channel	channel 2reverse channel	N/Adate	2023/12/10time	23:25:08forward acquisition time	300,00reverse acquisition time	0,00gamma	499,1914k internal	0,3123k external	0,3123temperature offset calibration	1,0000default loss term (dB/km)	0,3820temperature slope calibration	1,0000multiplexer offset coefficient	1,0000multiplexer slope coefficient	1,0000fibre end	0,00T internal ref (°C)	22,40T ext. ref 1 (°C)	6,09T ext. ref 2 (°C)	6,10length (m)	temperature (°C)	Stokes	anti-Stokes-744,400	80,039	0,082	0,066
-743,385	-10,535	-0,294	0,145
-742,371	-32,692	0,078	-0,032
-741,356	94,963	-0,177	0,150
-740,342	-24,351	0,165	0,073
-739,327	-41,234	-0,289	0,110
-738,312	55,891	0,095	-0,069
-737,298	-158,020	-0,399	0,017
-736,283	275,666	0,108	0,143
-735,269	800,000	-0,075	0,156
-734,254	-200,000	0,020	0,086
-733,239	-75,785	-0,550	-0,144
-732,225	-130,725	0,169	-0,017
-731,210	-0,520	0,051	0,027
-730,196	-76,400	0,046	-0,012
-729,181	90,340	-0,052	0,043
-728,167	217,911	0,060	0,072
-727,152	-11,558	-0,004	0,002
-726,137	187,509	0,037	0,042
-725,123	-200,000	-0,021	-0,086
-724,108	104,315	-0,126	-0,111
-723,094	636,720	-0,083	-0,158
-722,079	-200,000	0,023	-0,111
-721,064	145,359	0,057	-0,057
-720,050	800,000	-0,035	-0,088
-719,035	-200,000	0,007	-0,067
-718,021	800,000	-0,017	0,035
-717,006	800,000	-0,067	-0,157
-715,991	189,656	-0,130	-0,146
-714,977	9,838	0,059	-0,033
-713,962	800,000	-0,012	-0,033
-712,948	-200,000	-0,001	-0,114
-711,933	-200,000	-0,011	-0,090
-710,918	-115,395	0,009	-0,001
-709,904	11,891	-0,104	-0,059
-708,889	406,109	-0,084	-0,132
-707,875	-200,000	-0,025	-0,173
-706,860	211,342	0,011	0,013
-705,845	4,636	-0,111	0,061
-704,831	-200,000	-0,004	-0,041
-703,816	-200,000	-0,004	-0,050
-702,802	26,762	-0,210	-0,131
-701,787	800,000	0,021	-0,066
-700,772	502,594	-0,103	-0,177
-699,758	-94,262	0,103	-0,021
-698,743	800,000	0,027	-0,087
-697,729	234,708	0,049	0,060
-696,714	10,009	0,057	0,032
-695,699	142,199	0,069	-0,068
-694,685	-19,192	-0,157	-0,072
-693,670	291,770	0,060	0,082
-692,656	96,787	-0,006	0,006
-691,641	-120,036	0,054	-0,007
-690,627	800,000	0,023	-0,069
-689,612	57,223	0,065	0,047
-688,597	-89,617	0,158	-0,034
-687,583	-200,000	-0,031	-0,240
-686,568	373,335	-0,054	-0,081
-685,554	-82,168	0,048	-0,012
-684,539	-119,854	-0,036	-0,005
-683,524	-200,000	-0,003	-0,066
-682,510	-200,000	-0,007	0,083
-681,495	-145,559	-0,086	-0,006
-680,481	-36,883	-0,149	0,059
-679,466	-183,564	-0,113	-0,001
-678,451	-37,593	-0,120	-0,047
-677,437	776,495	0,060	-0,122
-676,422	-200,000	0,006	-0,113
-675,408	287,978	-0,035	-0,048
-674,393	-64,457	0,070	-0,021
-673,378	353,923	-0,036	-0,053
-672,364	153,696	-0,095	-0,097
-671,349	51,266	0,051	-0,036
-670,335	16,979	0,142	-0,083
-669,320	-200,000	0,036	-0,131
-668,305	-200,000	-0,025	-0,160
-667,291	800,000	-0,049	-0,104
-666,276	89,431	-0,128	-0,106
-665,262	-200,000	-0,021	-0,093
-664,247	-142,195	-0,182	0,013
-663,232	141,457	0,089	0,087
-662,218	-180,266	-0,078	-0,001
-661,203	-168,765	0,118	-0,003
-660,189	213,925	-0,105	0,124
-659,174	-58,844	0,077	-0,025
-658,159	596,748	-0,074	-0,136
-657,145	46,153	-0,073	-0,050
-656,130	-200,000	0,049	0,000
-655,116	800,000	-0,036	-0,093
-654,101	-200,000	-0,006	0,059
-653,086	-200,000	-0,027	0,126
-652,072	-200,000	-0,013	-0,105
-651,057	-44,118	-0,182	-0,067
-650,043	-54,016	-0,104	0,035
-649,028	-111,608	0,110	-0,016
-648,014	-132,261	-0,092	-0,009
-646,999	-164,691	-0,053	0,002
-645,984	800,000	-0,035	0,083
-644,970	284,500	0,028	-0,038
-643,955	265,393	0,038	0,049
-642,941	-110,982	-0,070	-0,011
-641,926	563,889	-0,044	0,080
-640,911	593,268	-0,075	0,137
-639,897	192,918	0,062	-0,070
-638,882	-18,213	0,176	0,082
-637,868	-77,956	-0,041	0,010
-636,853	151,419	-0,091	-0,092
-635,838	175,295	-0,082	-0,088
-634,824	137,988	0,052	-0,050
-633,809	-111,473	-0,063	-0,009
-632,795	-200,000	-0,010	0,078
-631,780	-68,360	0,086	-0,025
-630,765	-126,525	-0,104	0,011
-629,751	800,000	-0,031	0,084
-628,736	-15,101	-0,166	-0,079
-627,722	-56,117	-0,044	-0,014
-626,707	85,756	0,070	0,057
-625,692	-200,000	0,016	0,057
-624,678	84,848	-0,021	-0,017
-623,663	-200,000	0,003	0,030
-622,649	309,917	-0,083	-0,116
-621,634	-60,723	-0,096	-0,030
-620,619	-29,933	-0,062	-0,026
-619,605	-200,000	-0,016	-0,152
-618,590	715,513	0,036	0,071
-617,576	-123,700	0,097	0,011
-616,561	800,000	0,042	-0,090
-615,546	-40,120	0,091	-0,035
-614,532	-200,000	0,008	-0,137
-613,517	-151,593	-0,022	-0,001
-612,503	-200,000	-0,017	-0,086
-611,488	-113,823	0,132	0,019
-610,474	-200,000	0,007	-0,127
-609,459	-67,418	0,199	-0,058
-608,444	-105,450	0,186	0,031
-607,430	-40,733	-0,088	0,034
-606,415	116,740	-0,058	-0,053
-605,401	77,453	-0,139	-0,109
-604,386	43,537	0,023	0,015
-603,371	-94,387	-0,077	-0,015
-602,357	33,067	0,070	0,045
-601,342	-1,752	-0,067	0,035
-600,328	160,273	0,088	0,091
-599,313	-10,639	-0,115	0,056
-598,298	106,114	-0,032	-0,028
-597,284	-200,000	-0,017	-0,105
-596,269	-200,000	-0,002	-0,141
-595,255	74,454	0,067	-0,052
-594,240	129,796	0,070	0,067
-593,225	-53,050	0,065	-0,022
-592,211	800,000	-0,022	0,046
-591,196	196,164	0,026	0,029
-590,182	-200,000	0,025	0,086
-589,167	50,584	0,105	-0,074
-588,152	-116,514	0,107	-0,014
-587,138	-200,000	-0,017	-0,159
-586,123	82,974	-0,121	-0,097
-585,109	800,000	0,027	-0,078
-584,094	-56,284	-0,086	0,028
-583,079	-200,000	0,002	0,050
-582,065	-200,000	-0,007	-0,025
-581,050	800,000	0,027	0,086
-580,036	587,543	-0,091	0,166
-579,021	-200,000	0,009	-0,036
-578,006	60,554	-0,122	-0,089
-576,992	-94,310	-0,041	0,008
-575,977	-121,605	-0,060	-0,007
-574,963	23,054	0,057	-0,034
-573,948	-114,649	0,115	-0,016
-572,934	193,513	0,078	-0,087
-571,919	-200,000	-0,042	-0,145
-570,904	126,148	-0,039	-0,036
-569,890	-107,113	0,028	-0,005
-568,875	-72,309	0,149	-0,040
-567,861	60,413	0,029	-0,021
-566,846	-120,269	-0,070	0,009
-565,831	66,201	0,083	-0,062
-564,817	-15,724	-0,074	-0,035
-563,802	534,686	0,048	-0,085
-562,788	574,561	-0,059	-0,107
-561,773	124,164	0,068	0,063
-560,758	338,425	-0,019	-0,028
-559,744	-32,279	-0,026	-0,011
-558,729	-200,000	-0,006	0,027
-557,715	-104,850	-0,064	-0,011
-556,700	-200,000	-0,050	-0,186
-555,685	21,468	0,039	0,024
-554,671	-18,055	0,047	-0,022
-553,656	276,581	-0,028	0,037
-552,642	34,712	0,030	0,019
-551,627	800,000	0,047	-0,102
-550,612	-54,347	-0,012	-0,004
-549,598	187,499	-0,089	-0,098
-548,583	800,000	-0,055	-0,117
-547,569	94,529	-0,058	-0,049
-546,554	214,443	0,108	0,127
-545,539	-159,723	-0,097	0,004
-544,525	800,000	0,020	0,043
-543,510	-200,000	-0,019	0,103
-542,496	-65,559	-0,093	-0,027
-541,481	-119,510	-0,215	-0,027
-540,466	-200,000	-0,004	-0,063
-539,452	95,477	0,056	0,047
-538,437	15,527	-0,110	-0,063
-537,423	102,653	0,077	-0,066
-536,408	-19,723	-0,132	-0,060
-535,393	359,920	-0,118	-0,175
-534,379	-19,833	-0,092	0,042
-533,364	61,879	-0,085	-0,063
-532,350	-200,000	0,010	-0,077
-531,335	24,511	0,044	-0,027
-530,321	148,988	-0,028	0,028
-529,306	572,700	0,019	-0,034
-528,291	-111,117	-0,079	0,012
-527,277	357,630	0,022	-0,032
-526,262	800,000	0,099	-0,239
-525,248	-141,047	0,070	-0,005
-524,233	115,026	0,104	-0,094
-523,218	-144,379	0,150	0,010
-522,204	800,000	0,013	-0,037
-521,189	800,000	0,006	0,017
-520,175	-49,763	-0,131	0,046
-519,160	800,000	-0,011	0,029
-518,145	-61,574	-0,063	-0,019
-517,131	-200,000	-0,039	-0,137
-516,116	479,853	0,079	0,132
-515,102	135,323	-0,093	0,089
-514,087	-200,000	-0,002	0,034
-513,072	28,474	0,049	-0,030
-512,058	-200,000	0,004	-0,017
-511,043	221,148	-0,049	0,058
-510,029	-200,000	-0,013	0,113
-509,014	-125,168	0,128	-0,014
-507,999	800,000	0,067	-0,164
-506,985	-200,000	0,012	-0,123
-505,970	145,869	-0,105	0,104
-504,956	-200,000	0,000	0,013
-503,941	599,399	0,041	-0,076
-502,926	800,000	0,068	0,208
-501,912	61,247	-0,081	0,060
-500,897	218,567	-0,058	-0,068
-499,883	800,000	0,029	0,062
-498,868	151,219	0,024	0,024
-497,853	-17,987	-0,072	-0,033
-496,839	152,124	0,057	-0,057
-495,824	326,645	0,081	-0,115
-494,810	-200,000	-0,012	-0,096
-493,795	-89,380	0,053	-0,011
-492,781	-200,000	-0,018	0,099
-491,766	-200,000	-0,009	-0,033
-490,751	-89,757	-0,083	0,018
-489,737	800,000	0,044	0,107
-488,722	53,184	0,076	-0,053
-487,708	-200,000	0,025	0,149
-486,693	-85,338	0,061	-0,014
-485,678	-0,344	0,078	0,041
-484,664	361,261	-0,019	-0,028
-483,649	800,000	-0,048	-0,152
-482,635	-36,407	0,126	0,050
-481,620	-19,159	0,056	-0,026
-480,605	-200,000	0,009	0,127
-479,591	213,528	0,096	0,112
-478,576	-200,000	-0,016	0,099
-477,562	-148,606	-0,128	0,008
-476,547	27,839	-0,151	-0,094
-475,532	-200,000	0,004	-0,058
-474,518	52,271	-0,146	-0,103
-473,503	291,984	-0,107	-0,144
-472,489	47,343	0,084	-0,058
-471,474	-30,590	-0,156	-0,065
-470,459	800,000	0,035	-0,079
-469,445	123,843	-0,090	0,084
-468,430	30,011	0,127	0,079
-467,416	-90,394	0,061	0,013
-466,401	-112,571	-0,040	0,006
-465,386	582,723	-0,034	-0,062
-464,372	327,043	0,022	0,031
-463,357	-86,735	-0,139	0,031
-462,343	-200,000	-0,010	-0,176
-461,328	800,000	0,044	0,097
-460,313	800,000	0,016	-0,038
-459,299	174,662	-0,059	0,063
-458,284	216,338	-0,081	-0,095
-457,270	247,746	-0,041	-0,052
-456,255	-55,090	-0,180	0,059
-455,241	-82,223	-0,211	0,050
-454,226	-135,690	-0,085	-0,007
-453,211	-47,610	0,124	0,044
-452,197	-116,008	0,069	-0,009
-451,182	696,566	0,030	-0,058
-450,168	-72,663	-0,088	0,024
-449,153	-180,851	-0,052	0,001
-448,138	10,164	0,091	-0,051
-447,124	158,190	-0,072	0,073
-446,109	-80,574	-0,173	0,042
-445,095	78,437	0,125	0,098
-444,080	57,520	-0,091	-0,066
-443,065	-200,000	-0,001	0,101
-442,051	-50,816	-0,034	0,012
-441,036	16,365	0,092	-0,053
-440,022	-53,781	-0,074	-0,025
-439,007	482,251	0,055	-0,093
-437,992	800,000	-0,014	0,036
-436,978	183,805	0,034	-0,037
-435,963	-161,101	-0,080	-0,003
-434,949	509,469	0,036	0,062
-433,934	447,448	-0,029	0,047
-432,919	-81,562	-0,082	0,020
-431,905	592,080	0,040	0,073
-430,890	-200,000	0,002	-0,056
-429,876	-103,180	0,144	0,025
-428,861	-124,423	-0,091	-0,010
-427,846	-200,000	-0,020	-0,132
-426,832	-200,000	-0,001	-0,066
-425,817	312,864	-0,083	0,115
-424,803	-76,650	0,119	-0,031
-423,788	468,651	0,044	0,074
-422,773	468,968	0,032	-0,053
-421,759	-200,000	-0,036	0,120
-420,744	800,000	0,032	0,099
-419,730	110,548	-0,057	-0,051
-418,715	-28,352	-0,137	0,058
-417,701	-22,796	0,146	0,065
-416,686	180,715	0,080	0,087
-415,671	-60,970	0,117	-0,036
-414,657	-20,236	-0,162	0,073
-413,642	-111,923	-0,078	0,011
-412,628	-200,000	0,016	0,074
-411,613	-94,140	-0,026	-0,005
-410,598	800,000	-0,047	-0,115
-409,584	532,579	0,069	0,121
-408,569	86,182	0,093	0,075
-407,555	-137,476	-0,111	0,009
-406,540	460,192	0,072	-0,118
-405,525	83,440	0,052	0,042
-404,511	-29,405	-0,113	-0,047
-403,496	11,533	0,099	-0,056
-402,482	-125,269	0,088	-0,010
-401,467	-200,000	0,014	0,087
-400,452	-200,000	-0,035	0,161
-399,438	-132,034	0,089	-0,008
-398,423	-13,167	0,095	-0,045
-397,409	-200,000	0,010	-0,090
-396,394	172,207	0,073	-0,078
-395,379	-123,563	0,252	0,029
-394,365	-200,000	0,030	0,180
-393,350	-42,971	0,037	0,014
-392,336	68,866	0,107	-0,081
-391,321	800,000	-0,035	0,083
-390,306	-80,649	-0,052	-0,013
-389,292	800,000	-0,020	-0,042
-388,277	634,373	0,048	-0,090
-387,263	124,963	-0,064	0,059
-386,248	-200,000	0,006	-0,027
-385,233	131,583	0,097	0,092
-384,219	388,045	0,062	0,095
-383,204	110,881	0,047	0,041
-382,190	324,754	-0,070	0,098
-381,175	800,000	-0,061	-0,131
-380,160	78,880	0,090	0,071
-379,146	-200,000	-0,009	-0,059
-378,131	-200,000	-0,001	0,050
-377,117	244,469	-0,086	0,106
-376,102	-200,000	0,042	0,189
-375,088	262,734	-0,137	-0,175
-374,073	270,461	-0,071	-0,092
-373,058	-200,000	-0,016	0,114
-372,044	800,000	-0,015	0,038
-371,029	800,000	0,022	0,063
-370,015	800,000	-0,029	0,093
-369,000	-62,057	-0,284	-0,087
-367,985	-200,000	0,018	-0,094
-366,971	692,044	-0,030	-0,058
-365,956	-3,107	0,079	-0,041
-364,942	-34,611	0,114	-0,046
-363,927	738,012	-0,083	0,165
-362,912	-131,307	0,057	0,006
-361,898	-113,894	-0,071	-0,010
-360,883	237,427	0,007	-0,009
-359,869	-200,000	0,003	-0,030
-358,854	-200,000	-0,022	0,079
-357,839	-117,579	0,110	0,014
-356,825	157,493	0,026	0,027
-355,810	-200,000	-0,026	0,156
-354,796	800,000	0,056	-0,154
-353,781	11,117	-0,051	-0,028
-352,766	-200,000	-0,013	0,111
-351,752	141,554	0,064	0,062
-350,737	113,576	0,118	-0,106
-349,723	126,761	0,031	0,029
-348,708	-68,970	-0,062	-0,017
-347,693	-41,718	0,086	0,032
-346,679	137,758	0,070	-0,067
-345,664	800,000	-0,044	0,098
-344,650	245,233	0,032	0,039
-343,635	-200,000	0,004	0,067
-342,620	81,203	0,147	0,116
-341,606	-64,427	-0,190	-0,056
-340,591	-58,895	0,070	0,022
-339,577	-200,000	0,000	-0,020
-338,562	251,278	0,040	0,050
-337,548	-200,000	-0,007	0,118
-336,533	-137,891	0,152	0,012
-335,518	-64,566	0,125	-0,037
-334,504	-32,438	0,124	-0,050
-333,489	-200,000	-0,021	0,092
-332,475	197,273	0,033	-0,037
-331,460	-200,000	0,030	0,112
-330,445	321,315	0,025	0,035
-329,431	-145,591	0,139	0,009
-328,416	181,158	-0,088	0,095
-327,402	376,525	0,068	0,103
-326,387	137,014	0,055	-0,052
-325,372	800,000	-0,018	0,051
-324,358	-14,688	-0,059	0,028
-323,343	322,964	-0,027	-0,037
-322,329	77,259	-0,011	0,009
-321,314	800,000	-0,009	0,028
-320,299	-200,000	0,008	0,031
-319,285	-200,000	0,013	0,112
-318,270	610,989	-0,015	0,028
-317,256	-200,000	-0,005	-0,053
-316,241	4,713	0,024	-0,013
-315,226	645,569	-0,029	0,055
-314,212	-25,924	0,023	-0,010
-313,197	66,930	-0,082	0,061
-312,183	-51,140	0,100	0,034
-311,168	-130,977	0,065	0,006
-310,153	800,000	-0,053	-0,108
-309,139	-200,000	0,010	-0,053
-308,124	583,705	0,050	0,091
-307,110	-200,000	-0,024	0,158
-306,095	-104,548	0,046	-0,008
-305,080	245,934	-0,036	0,044
-304,066	153,258	-0,053	0,053
-303,051	800,000	-0,009	0,028
-302,037	253,228	0,082	-0,102
-301,022	-112,567	0,007	-0,001
-300,008	-200,000	0,009	-0,204
-298,993	123,175	0,048	0,044
-297,978	486,736	0,117	0,196
-296,964	71,792	-0,013	0,010
-295,949	79,777	-0,080	-0,063
-294,935	-116,851	-0,050	0,007
-293,920	800,000	0,019	-0,053
-292,905	-200,000	-0,042	-0,147
-291,891	800,000	-0,014	0,033
-290,876	-110,547	0,112	0,017
-289,862	-114,669	-0,059	0,008
-288,847	800,000	0,018	-0,043
-287,832	-15,112	-0,053	0,025
-286,818	134,962	0,056	-0,053
-285,803	188,600	0,047	0,052
-284,789	271,555	-0,065	-0,084
-283,774	417,838	0,048	0,075
-282,759	49,739	0,071	-0,049
-281,745	-106,882	-0,072	0,012
-280,730	155,169	0,080	-0,080
-279,716	-98,238	-0,068	-0,013
-278,701	522,966	-0,064	-0,110
-277,686	-200,000	-0,001	-0,018
-276,672	139,783	0,028	-0,027
-275,657	-68,466	-0,032	0,009
-274,643	-200,000	-0,005	-0,083
-273,628	226,920	0,067	0,080
-272,613	800,000	-0,004	0,012
-271,599	109,848	0,095	0,084
-270,584	-115,628	-0,123	0,017
-269,570	-200,000	0,015	0,091
-268,555	800,000	-0,018	-0,043
-267,540	-200,000	-0,036	-0,141
-266,526	-200,000	-0,025	-0,182
-265,511	800,000	0,035	-0,097
-264,497	-45,382	0,095	-0,034
-263,482	-98,394	-0,088	0,016
-262,467	-200,000	-0,014	-0,109
-261,453	566,625	0,061	0,109
-260,438	-1,232	-0,032	-0,017
-259,424	800,000	-0,043	0,111
-258,409	51,980	-0,097	0,068
-257,395	-33,984	0,054	-0,022
-256,380	-115,041	0,125	-0,017
-255,365	-150,209	0,114	-0,006
-254,351	61,704	-0,092	-0,067
-253,336	273,841	-0,065	0,085
-252,322	-108,668	0,027	-0,004
-251,307	136,258	0,049	0,047
-250,292	-200,000	-0,011	0,051
-249,278	266,812	0,105	0,134
-248,263	-80,765	0,064	-0,015
-247,249	-200,000	-0,007	0,153
-246,234	13,733	0,143	0,081
-245,219	157,564	0,085	-0,086
-244,205	-30,942	-0,053	-0,022
-243,190	612,948	0,018	0,034
-242,176	-47,457	0,096	-0,034
-241,161	271,410	-0,015	0,020
-240,146	-109,493	0,124	0,019
-239,132	205,157	-0,099	-0,112
-238,117	-200,000	-0,022	-0,089
-237,103	-200,000	0,021	0,193
-236,088	-200,000	0,013	-0,054
-235,073	101,243	-0,103	-0,087
-234,059	-69,542	0,033	-0,009
-233,044	171,153	0,095	0,100
-232,030	131,607	-0,036	0,034
-231,015	-88,273	-0,081	-0,017
-230,000	-159,699	0,104	-0,004
-228,986	-200,000	0,046	-0,242
-227,971	68,022	0,030	-0,022
-226,957	800,000	-0,042	0,128
-225,942	-200,000	0,008	0,080
-224,927	-200,000	0,059	-0,194
-223,913	-200,000	0,006	-0,092
-222,898	-200,000	-0,011	-0,041
-221,884	-34,396	-0,074	-0,029
-220,869	416,990	-0,019	-0,030
-219,855	237,970	-0,024	0,029
-218,840	-200,000	-0,026	0,000
-217,825	800,000	0,053	0,129
-216,811	170,274	0,066	0,069
-215,796	-200,000	-0,025	-0,126
-214,782	572,952	0,022	-0,040
-213,767	-200,000	-0,035	-0,170
-212,752	275,871	-0,073	-0,095
-211,738	-8,033	0,029	0,014
-210,723	-75,273	0,134	-0,035
-209,709	237,597	-0,031	-0,038
-208,694	393,011	-0,026	-0,039
-207,679	127,925	0,009	-0,009
-206,665	-16,533	-0,058	-0,027
-205,650	51,136	-0,125	0,087
-204,636	-200,000	-0,001	0,053
-203,621	-200,000	-0,005	0,069
-202,606	-93,602	-0,036	-0,007
-201,592	-100,648	-0,083	0,015
-200,577	1,903	-0,189	-0,099
-199,563	565,936	0,019	0,033
-198,548	126,378	-0,037	0,034
-197,533	220,019	-0,046	0,053
-196,519	800,000	-0,048	0,100
-195,504	-94,431	-0,055	-0,011
-194,490	-200,000	-0,036	0,117
-193,475	19,350	-0,053	-0,031
-192,460	758,781	0,043	-0,085
-191,446	175,390	0,042	0,045
-190,431	-32,594	-0,032	-0,013
-189,417	-135,336	-0,026	-0,002
-188,402	-122,892	-0,051	0,006
-187,387	-45,255	0,091	0,033
-186,373	800,000	-0,016	0,046
-185,358	637,710	-0,026	-0,048
-184,344	-200,000	0,003	0,117
-183,329	-140,454	0,133	-0,010
-182,315	98,564	-0,019	-0,016
-181,300	15,219	-0,113	0,064
-180,285	195,599	-0,030	0,033
-179,271	-76,501	-0,069	-0,018
-178,256	800,000	-0,032	0,094
-177,242	800,000	0,003	0,007
-176,227	340,325	-0,041	-0,059
-175,212	800,000	0,033	0,100
-174,198	134,526	-0,081	0,076
-173,183	-95,155	0,060	-0,012
-172,169	800,000	0,003	0,008
-171,154	121,842	-0,122	0,111
-170,139	-200,000	-0,019	-0,129
-169,125	-195,479	0,125	0,001
-168,110	-200,000	-0,015	0,089
-167,096	166,533	0,056	0,058
-166,081	58,209	0,055	0,039
-165,066	11,968	0,131	0,073
-164,052	52,222	-0,124	0,086
-163,037	-71,511	-0,158	0,043
-162,023	-37,965	0,180	0,069
-161,008	319,929	-0,037	0,052
-159,993	-200,000	-0,003	-0,011
-158,979	800,000	0,046	-0,098
-157,964	-169,988	-0,059	0,002
-156,950	-200,000	0,011	-0,044
-155,935	-91,231	-0,043	-0,009
-154,920	-74,292	0,123	-0,032
-153,906	-200,000	0,028	0,094
-152,891	800,000	-0,032	0,095
-151,877	-155,581	-0,056	-0,003
-150,862	-60,535	-0,219	-0,067
-149,847	-200,000	-0,011	-0,122
-148,833	116,449	-0,063	-0,057
-147,818	-86,167	0,178	0,040
-146,804	492,771	-0,120	0,200
-145,789	-2,620	-0,065	0,033
-144,775	-200,000	0,029	0,150
-143,760	-25,071	-0,086	-0,037
-142,745	800,000	-0,019	0,051
-141,731	-200,000	0,001	-0,049
-140,716	45,451	0,129	-0,087
-139,702	800,000	0,030	-0,074
-138,687	-200,000	-0,012	0,088
-137,672	-88,119	-0,165	-0,036
-136,658	315,812	0,020	0,028
-135,643	712,491	-0,047	0,091
-134,629	49,498	-0,056	-0,038
-133,614	223,646	0,029	0,035
-132,599	364,164	-0,083	-0,123
-131,585	-145,214	0,140	-0,009
-130,570	800,000	-0,069	-0,148
-129,556	-154,728	-0,111	0,005
-128,541	800,000	0,019	-0,046
-127,526	-100,807	0,167	0,030
-126,512	42,887	-0,046	0,030
-125,497	-61,980	-0,031	-0,010
-124,483	50,006	0,051	0,035
-123,468	-97,194	0,099	0,019
-122,453	-67,356	0,068	0,019
-121,439	-55,153	0,125	-0,041
-120,424	535,983	-0,041	0,071
-119,410	-200,000	-0,007	0,042
-118,395	127,892	0,110	0,102
-117,380	-200,000	-0,004	-0,041
-116,366	-137,729	-0,051	-0,004
-115,351	-126,929	-0,118	0,013
-114,337	149,011	-0,076	0,074
-113,322	-195,739	0,063	0,000
-112,307	-13,508	0,059	0,028
-111,293	257,055	0,063	0,079
-110,278	44,235	0,102	0,068
-109,264	800,000	-0,009	-0,025
-108,249	-200,000	0,002	0,030
-107,234	-200,000	-0,012	-0,054
-106,220	-144,211	0,132	-0,009
-105,205	-200,000	0,015	0,068
-104,191	43,256	0,031	-0,021
-103,176	-158,011	-0,054	0,002
-102,162	-53,554	0,094	-0,031
-101,147	-200,000	0,004	-0,042
-100,132	750,327	-0,062	-0,123
-99,118	-13,536	0,103	0,048
-98,103	87,689	-0,107	-0,086
-97,089	786,945	-0,013	0,026
-96,074	-200,000	0,030	0,147
-95,059	73,942	-0,074	0,056
-94,045	707,256	-0,031	-0,061
-93,030	-182,098	-0,073	-0,001
-92,016	252,655	-0,074	-0,092
-91,001	-200,000	0,012	-0,049
-89,986	-71,800	0,071	-0,019
-88,972	-7,078	0,036	-0,018
-87,957	-83,393	0,109	-0,025
-86,943	-101,752	0,028	0,005
-85,928	-200,000	-0,025	-0,085
-84,913	-115,697	-0,044	0,006
-83,899	310,417	-0,089	-0,122
-82,884	-200,000	-0,023	-0,096
-81,870	800,000	-0,010	0,026
-80,855	-135,333	0,072	0,006
-79,840	800,000	-0,064	-0,202
-78,826	-153,331	0,119	-0,006
-77,811	425,139	-0,036	0,057
-76,797	36,616	0,062	0,040
-75,782	353,242	-0,036	0,052
-74,767	-200,000	0,018	0,195
-73,753	74,627	0,009	-0,007
-72,738	-200,000	0,001	-0,122
-71,724	-111,721	-0,086	-0,013
-70,709	45,227	-0,131	0,087
-69,694	-177,884	-0,025	0,000
-68,680	800,000	0,036	0,097
-67,665	609,299	-0,069	0,125
-66,651	66,196	0,097	-0,072
-65,636	-200,000	0,000	0,102
-64,622	22,658	-0,067	0,040
-63,607	-200,000	-0,034	-0,125
-62,592	-50,706	-0,004	-0,002
-61,578	800,000	-0,061	0,147
-60,563	606,810	0,021	0,038
-59,549	-130,742	-0,081	-0,008
-58,534	-140,361	-1,349	-0,101
-57,519	399,237	-0,909	-1,387
-56,505	-200,000	-0,771	-4,324
-55,490	44,339	0,690	-0,459
-54,476	800,000	4,987	11,828
-53,461	-200,000	13,433	252,663
-52,446	-200,000	689,255	2260,344
-51,432	592,526	1622,238	2919,889
-50,417	119,520	1634,989	1469,190
-49,403	73,398	1289,203	978,107
-48,388	38,127	1024,277	660,055
-47,373	24,354	981,914	587,457
-46,359	23,546	971,580	578,602
-45,344	22,685	967,212	573,162
-44,330	22,585	965,799	571,975
-43,315	22,446	964,410	570,677
-42,300	22,442	963,315	569,994
-41,286	22,467	962,434	569,532
-40,271	22,519	961,211	568,953
-39,257	22,383	960,386	568,002
-38,242	22,365	959,543	567,423
-37,227	22,411	958,609	566,995
-36,213	22,381	957,884	566,448
-35,198	22,376	957,015	565,895
-34,184	22,438	956,329	565,666
-33,169	22,383	955,468	564,957
-32,154	22,459	954,579	564,656
-31,140	22,467	953,674	564,125
-30,125	22,496	952,686	563,609
-29,111	22,421	951,995	562,937
-28,096	22,478	951,464	562,785
-27,082	22,432	950,742	562,188
-26,067	22,463	949,801	561,709
-25,052	22,400	949,269	561,169
-24,038	22,522	948,484	561,072
-23,023	22,472	947,874	560,532
-22,009	22,508	947,221	560,239
-20,994	22,459	946,654	559,722
-19,979	22,445	946,136	559,348
-18,965	22,468	945,445	558,993
-17,950	22,450	944,857	558,565
-16,936	22,373	944,105	557,852
-15,921	22,421	943,382	557,555
-14,906	22,338	942,623	556,822
-13,892	22,338	942,114	556,498
-12,877	22,267	941,431	555,848
-11,863	22,254	940,902	555,472
-10,848	22,245	940,398	555,124
-9,833	22,409	939,829	555,287
-8,819	22,418	939,281	554,971
-7,804	22,298	938,512	554,111
-6,790	22,330	937,854	553,805
-5,775	22,395	937,223	553,616
-4,760	22,372	936,695	553,208
-3,746	22,246	936,177	552,482
-2,731	22,181	935,466	551,835
-1,717	22,134	934,822	551,285
-0,702	22,124	934,095	550,804
0,313	21,971	933,298	550,683
1,327	25,031	931,384	559,126
2,342	34,624	796,137	503,490
3,356	32,614	451,422	282,434
4,371	1,870	293,395	152,928
5,386	-2,659	274,349	138,708
6,400	-4,122	268,553	134,409
7,415	-4,822	266,172	132,563
8,429	-4,484	265,008	132,280
9,444	-4,495	264,031	131,771
10,459	-4,483	263,477	131,493
11,473	-4,644	262,966	131,080
12,488	-4,636	262,436	130,812
13,502	-4,579	261,811	130,540
14,517	-4,714	261,315	130,160
15,531	-4,746	261,219	130,071
16,546	-4,796	260,682	129,747
17,561	-4,655	260,374	129,709
18,575	-4,505	259,930	129,610
19,590	-4,496	259,604	129,445
20,604	-4,377	259,458	129,467
21,619	-4,476	258,855	129,067
22,634	-4,565	258,622	128,860
23,648	-4,665	258,342	128,619
24,663	-4,661	258,144	128,513
25,677	-4,656	257,902	128,385
26,692	-4,764	257,729	128,192
27,707	-4,674	257,401	128,096
28,721	-4,686	256,980	127,865
29,736	-4,850	256,869	127,653
30,750	-4,837	256,550	127,495
31,765	-4,803	256,440	127,459
32,780	-4,725	256,178	127,386
33,794	-4,825	256,018	127,208
34,809	-4,812	255,733	127,065
35,823	-4,676	255,415	127,016
36,838	-4,914	255,258	126,717
37,853	-4,850	254,962	126,615
38,867	-4,666	254,792	126,681
39,882	-4,785	254,582	126,462
40,896	-4,675	254,252	126,382
41,911	-4,937	254,209	126,120
42,926	-4,806	253,773	126,007
43,940	-4,650	253,495	125,994
44,955	-4,866	253,522	125,808
45,969	-4,947	253,097	125,515
46,984	-5,228	252,912	125,168
47,999	-5,273	252,609	124,967
49,013	-5,507	252,346	124,623
50,028	-5,568	252,083	124,429
51,042	-5,568	251,793	124,275
52,057	-5,626	251,587	124,112
53,071	-5,905	251,615	123,873
54,086	-5,590	251,261	123,960
55,101	-5,427	251,132	124,026
56,115	-5,257	251,106	124,149
57,130	-4,834	250,971	124,436
58,144	-4,417	250,727	124,664
59,159	-4,576	250,499	124,402
60,174	-4,703	250,402	124,234
61,188	-4,617	250,113	124,153
62,203	-4,496	250,077	124,228
63,217	-4,681	249,731	123,886
64,232	-4,630	249,612	123,860
65,247	-4,580	249,383	123,778
66,261	-4,610	249,061	123,581
67,276	-4,989	248,830	123,132
68,290	-5,121	248,664	122,926
69,305	-5,225	248,390	122,691
70,320	-5,126	248,226	122,684
71,334	-4,988	248,136	122,746
72,349	-4,598	247,865	122,932
73,363	-4,597	247,666	122,823
74,378	-4,681	247,586	122,701
75,393	-4,586	247,254	122,607
76,407	-4,785	247,101	122,352
77,422	-4,939	247,003	122,161
78,436	-4,573	246,788	122,354
79,451	-4,720	246,428	122,041
80,466	-4,948	246,176	121,712
81,480	-4,948	246,159	121,693
82,495	-4,894	245,975	121,637
83,509	-5,143	245,745	121,302
84,524	-5,011	245,451	121,258
85,539	-4,976	245,285	121,194
86,553	-5,100	245,126	121,001
87,568	-5,006	244,876	120,945
88,582	-5,100	244,795	120,816
89,597	-4,940	244,498	120,792
90,611	-4,973	244,476	120,743
91,626	-4,642	244,251	120,898
92,641	-4,868	244,125	120,636
93,655	-4,703	243,792	120,599
94,670	-4,873	243,647	120,373
95,684	-4,917	243,429	120,219
96,699	-4,730	243,169	120,235
97,714	-4,860	243,064	120,065
98,728	-4,978	242,889	119,870
99,743	-5,189	242,548	119,515
100,757	-5,440	242,391	119,219
101,772	-5,101	242,320	119,454
102,787	-5,098	242,312	119,442
103,801	-4,951	242,079	119,439
104,816	-4,864	241,777	119,351
105,830	-4,955	241,712	119,233
106,845	-4,715	241,648	119,389
107,860	-4,525	241,293	119,360
108,874	-4,784	241,113	119,047
109,889	-4,899	241,022	118,897
110,903	-4,932	240,787	118,742
111,918	-5,024	240,530	118,530
112,933	-4,821	240,397	118,620
113,947	-4,649	240,270	118,689
114,962	-4,725	240,161	118,562
115,976	-4,867	239,980	118,345
116,991	-4,850	239,659	118,191
118,006	-4,957	239,757	118,140
119,020	-4,900	239,553	118,076
120,035	-4,738	239,387	118,116
121,049	-4,617	239,240	118,132
122,064	-4,660	238,924	117,930
123,079	-4,780	238,868	117,794
124,093	-4,924	238,691	117,579
125,108	-4,841	238,287	117,437
126,122	-5,228	238,218	117,077
127,137	-5,419	238,057	116,833
128,151	-5,152	237,705	116,867
129,166	-5,204	237,726	116,824
130,181	-5,157	237,414	116,698
131,195	-5,131	237,286	116,646
132,210	-5,059	237,197	116,650
133,224	-4,758	237,044	116,808
134,239	-4,819	236,922	116,689
135,254	-4,764	236,695	116,610
136,268	-4,894	236,419	116,359
137,283	-5,165	236,173	116,010
138,297	-5,126	235,871	115,883
139,312	-5,408	235,921	115,669
140,327	-5,080	235,883	115,904
141,341	-4,792	235,827	116,098
142,356	-4,547	235,805	116,275
143,370	-4,453	235,557	116,217
144,385	-4,587	235,292	115,968
145,400	-4,357	235,145	116,070
146,414	-4,590	235,110	115,856
147,429	-4,417	234,744	115,804
148,443	-4,438	234,393	115,603
149,458	-4,506	234,346	115,515
150,473	-4,472	234,273	115,496
151,487	-4,668	234,104	115,246
152,502	-4,617	233,909	115,180
153,516	-4,309	233,753	115,339
154,531	-4,506	233,616	115,104
155,546	-4,553	233,440	114,970
156,560	-4,702	233,259	114,752
157,575	-4,790	233,076	114,582
158,589	-4,677	232,819	114,535
159,604	-4,543	232,777	114,610
160,619	-4,411	232,729	114,681
161,633	-4,397	232,429	114,534
162,648	-4,549	232,376	114,377
163,662	-4,649	232,075	114,140
164,677	-4,653	231,924	114,052
165,692	-4,712	232,035	114,050
166,706	-4,324	231,724	114,193
167,721	-4,257	231,594	114,171
168,735	-4,153	231,399	114,148
169,750	-4,435	231,346	113,889
170,764	-4,530	231,214	113,739
171,779	-4,341	231,039	113,791
172,794	-4,254	230,795	113,730
173,808	-4,542	230,492	113,344
174,823	-4,943	230,311	112,932
175,837	-5,254	230,065	112,556
176,852	-4,622	229,985	113,002
177,867	-4,428	229,938	113,121
178,881	-4,486	229,920	113,056
179,896	-4,245	229,625	113,089
180,910	-4,333	229,531	112,964
181,925	-4,262	229,304	112,898
182,940	-4,413	229,255	112,746
183,954	-4,245	229,028	112,755
184,969	-4,167	228,925	112,755
185,983	-4,167	228,879	112,723
186,998	-4,136	228,699	112,648
188,013	-4,248	228,490	112,447
189,027	-4,129	228,390	112,481
190,042	-4,105	228,151	112,372
191,056	-4,115	227,989	112,274
192,071	-4,344	227,846	112,016
193,086	-4,491	227,655	111,799
194,100	-4,607	227,625	111,684
195,115	-4,506	227,262	111,575
196,129	-4,991	227,003	111,064
197,144	-1,700	228,148	114,162
198,159	2,785	229,107	118,109
199,173	4,232	229,628	119,490
200,188	4,304	229,612	119,526
201,202	4,263	229,364	119,355
202,217	4,356	229,457	119,465
203,232	4,908	229,149	119,720
204,246	4,965	229,044	119,698
205,261	4,922	228,864	119,561
206,275	4,898	228,947	119,575
207,290	5,138	228,733	119,638
208,304	5,086	228,518	119,475
209,319	4,781	228,343	119,138
210,334	4,868	228,268	119,155
211,348	4,806	227,879	118,894
212,363	4,337	227,707	118,433
213,377	4,117	227,277	118,031
214,392	4,123	227,298	118,035
215,407	4,247	227,140	118,038
216,421	4,431	227,025	118,109
217,436	4,113	226,814	117,745
218,450	3,964	226,617	117,518
219,465	3,812	226,434	117,297
220,480	3,906	226,522	117,404
221,494	3,965	226,170	117,255
222,509	4,078	226,196	117,345
223,523	3,917	225,941	117,079
224,538	3,968	225,857	117,065
225,553	4,351	225,604	117,214
226,567	4,350	225,525	117,162
227,582	4,444	225,414	117,164
228,596	4,474	225,411	117,175
229,611	4,299	225,114	116,878
230,626	4,128	224,879	116,617
231,640	4,083	224,595	116,425
232,655	4,152	224,765	116,554
233,669	4,861	224,602	116,995
234,684	4,856	224,462	116,908
235,699	4,539	224,336	116,593
236,713	4,236	224,184	116,275
237,728	4,049	223,966	116,011
238,742	4,152	223,590	115,883
239,757	4,027	223,548	115,757
240,772	3,744	223,501	115,509
241,786	4,252	223,208	115,730
242,801	4,172	223,217	115,663
243,815	4,586	223,047	115,876
244,830	4,658	222,949	115,869
245,844	4,243	222,717	115,427
246,859	4,151	222,739	115,360
247,874	4,538	222,378	115,451
248,888	4,504	222,285	115,367
249,903	4,454	222,091	115,219
250,917	4,104	222,151	114,978
251,932	4,135	221,812	114,816
252,947	4,085	221,666	114,693
253,961	3,953	221,560	114,530
254,976	4,054	221,569	114,599
255,990	4,317	221,418	114,706
257,005	4,455	221,159	114,664
258,020	4,176	221,062	114,397
259,034	4,243	221,233	114,525
260,049	4,304	220,797	114,334
261,063	4,265	220,815	114,304
262,078	4,504	220,515	114,316
263,093	4,523	220,392	114,256
264,107	4,518	220,231	114,159
265,122	4,461	220,161	114,070
266,136	4,799	219,931	114,190
267,151	4,371	219,951	113,875
268,166	4,193	219,510	113,505
269,180	3,780	219,478	113,174
270,195	4,043	219,292	113,261
271,209	4,013	219,117	113,139
272,224	4,169	219,010	113,188
273,239	4,297	218,894	113,212
274,253	4,235	218,761	113,088
275,268	4,169	218,438	112,862
276,282	3,965	218,368	112,667
277,297	3,967	218,181	112,561
278,312	3,907	218,095	112,463
279,326	4,076	217,992	112,524
280,341	3,995	217,995	112,455
281,355	4,159	217,894	112,514
282,370	4,075	217,670	112,326
283,384	3,881	217,491	112,083
284,399	3,917	217,131	111,913
285,414	3,880	217,125	111,873
286,428	3,931	217,201	111,940
287,443	4,267	216,962	112,051
288,457	4,259	216,922	112,014
289,472	4,190	216,708	111,844
290,487	3,920	216,335	111,446
291,501	3,853	216,295	111,367
292,516	3,879	216,163	111,307
293,530	3,812	216,061	111,196
294,545	4,062	215,745	111,204
295,560	4,003	215,701	111,129
296,574	4,153	215,583	111,167
297,589	3,965	215,606	111,033
298,603	4,113	215,422	111,035
299,618	4,148	215,213	110,943
300,633	4,109	215,112	110,853
301,647	4,318	215,166	111,022
302,662	4,334	215,062	110,969
303,676	4,458	214,709	110,866
304,691	4,345	214,685	110,763
305,706	4,337	214,651	110,729
306,720	4,361	214,356	110,585
307,735	4,315	214,143	110,432
308,749	3,926	214,037	110,089
309,764	4,355	213,843	110,286
310,779	4,323	213,833	110,248
311,793	4,472	213,676	110,265
312,808	4,292	213,524	110,048
313,822	4,369	213,430	110,044
314,837	4,187	213,331	109,854
315,852	4,000	212,968	109,524
316,866	4,356	212,929	109,747
317,881	4,272	212,931	109,679
318,895	4,474	212,622	109,653
319,910	4,203	212,503	109,389
320,925	3,837	212,371	109,052
321,939	3,496	212,191	108,708
322,954	3,698	212,020	108,755
323,968	4,262	212,049	109,159
324,983	4,217	211,887	109,034
325,997	4,273	211,763	109,000
327,012	4,243	211,609	108,890
328,027	4,223	211,487	108,803
329,041	4,594	211,458	109,040
330,056	4,645	211,360	109,016
331,070	4,314	211,071	108,624
332,085	3,917	210,843	108,218
333,100	4,185	210,526	108,233
334,114	4,120	210,662	108,248
335,129	4,044	210,477	108,090
336,143	3,838	210,136	107,761
337,158	3,696	210,261	107,716
338,173	3,995	210,011	107,788
339,187	3,676	209,900	107,498
340,202	3,776	209,650	107,430
341,216	3,723	209,534	107,324
342,231	3,928	209,490	107,435
343,246	3,922	209,300	107,324
344,260	3,952	209,312	107,341
345,275	4,045	209,168	107,323
346,289	4,150	209,149	107,376
347,304	4,342	208,932	107,390
348,319	4,339	208,708	107,262
349,333	4,101	208,508	106,985
350,348	4,278	208,584	107,137
351,362	4,426	208,422	107,147
352,377	4,282	208,209	106,928
353,392	4,087	208,234	106,796
354,406	4,258	207,989	106,780
355,421	193,838	1345,922	1434,474
356,435	154,640	1484,681	1434,592
