DTS Sentinel unit serial number:	SN410029Multiplexer serial number:	ORYXHardware model number:	OX2-SRSoftware version number:	ORYX F/W v4,00 Oryx Data Collector v3.7.2.0data status	okinstallation	B6 Nyhavnadifferential loss correction	single-endedforward channel	channel 2reverse channel	N/Adate	2023/12/10time	23:10:08forward acquisition time	300,00reverse acquisition time	0,00gamma	499,1914k internal	0,3122k external	0,3122temperature offset calibration	1,0000default loss term (dB/km)	0,3820temperature slope calibration	1,0000multiplexer offset coefficient	1,0000multiplexer slope coefficient	1,0000fibre end	0,00T internal ref (°C)	22,38T ext. ref 1 (°C)	6,11T ext. ref 2 (°C)	6,13length (m)	temperature (°C)	Stokes	anti-Stokes-744,400	-122,395	0,103	0,012
-743,385	-153,318	-0,255	-0,013
-742,371	565,989	0,050	0,091
-741,356	-24,246	-0,230	0,102
-740,342	701,106	0,060	0,119
-739,327	12,322	-0,263	0,151
-738,312	209,280	0,028	-0,033
-737,298	13,221	-0,229	0,132
-736,283	589,097	0,078	-0,143
-735,269	-200,000	0,016	-0,107
-734,254	0,724	-0,114	-0,061
-733,239	-43,947	-0,435	-0,162
-732,225	88,330	0,061	-0,050
-731,210	635,251	0,095	0,180
-730,196	800,000	0,048	0,158
-729,181	146,636	0,065	0,065
-728,167	-95,731	0,066	-0,013
-727,152	-103,971	0,059	0,010
-726,137	80,619	-0,087	0,070
-725,123	-185,523	0,053	-0,001
-724,108	-200,000	0,008	-0,027
-723,094	-200,000	0,010	-0,076
-722,079	800,000	-0,094	-0,214
-721,064	231,519	-0,102	-0,125
-720,050	-67,479	0,055	-0,016
-719,035	-200,000	-0,031	0,132
-718,021	596,507	0,092	-0,170
-717,006	422,343	-0,046	-0,073
-715,991	800,000	-0,081	-0,174
-714,977	800,000	0,028	-0,072
-713,962	57,536	-0,088	-0,064
-712,948	214,127	0,071	-0,084
-711,933	-22,703	0,081	-0,036
-710,918	-91,439	0,121	0,025
-709,904	700,766	-0,072	-0,142
-708,889	800,000	-0,012	-0,040
-707,875	-117,395	-0,145	-0,019
-706,860	-124,521	-0,061	-0,007
-705,845	-200,000	-0,005	0,111
-704,831	-83,592	-0,098	0,023
-703,816	9,708	0,051	-0,029
-702,802	356,212	-0,041	-0,062
-701,787	-200,000	-0,022	-0,086
-700,772	-200,000	0,006	0,111
-699,758	301,544	0,023	-0,032
-698,743	-6,917	0,155	-0,078
-697,729	-15,861	0,119	0,056
-696,714	30,587	-0,064	-0,041
-695,699	1,974	-0,103	-0,055
-694,685	311,519	-0,051	-0,071
-693,670	738,321	-0,047	-0,093
-692,656	178,650	0,090	-0,098
-691,641	-200,000	-0,012	-0,058
-690,627	51,417	0,078	0,055
-689,612	-77,579	0,053	0,013
-688,597	-127,739	0,053	-0,006
-687,583	-200,000	0,009	-0,040
-686,568	800,000	-0,043	0,091
-685,554	-200,000	0,012	-0,128
-684,539	-115,416	-0,091	-0,013
-683,524	-102,271	0,088	0,016
-682,510	-136,292	-0,080	0,007
-681,495	-200,000	-0,016	0,079
-680,481	-200,000	0,011	-0,081
-679,466	800,000	-0,039	-0,120
-678,451	-124,743	-0,115	-0,013
-677,437	168,560	-0,072	0,076
-676,422	-0,574	-0,128	0,067
-675,408	-200,000	-0,010	0,082
-674,393	-200,000	0,043	0,159
-673,378	-6,768	-0,069	0,035
-672,364	161,612	-0,067	-0,070
-671,349	-75,352	-0,169	-0,044
-670,335	-200,000	-0,013	0,071
-669,320	-200,000	0,015	0,061
-668,305	140,877	0,025	-0,025
-667,291	111,664	0,069	-0,062
-666,276	588,336	-0,033	-0,061
-665,262	-200,000	-0,008	-0,088
-664,247	800,000	-0,033	-0,090
-663,232	-10,239	0,109	-0,054
-662,218	-40,125	0,090	0,035
-661,203	90,371	0,051	-0,043
-660,189	-200,000	0,039	-0,135
-659,174	59,040	-0,079	-0,058
-658,159	448,126	-0,130	-0,214
-657,145	-200,000	-0,010	-0,071
-656,130	-200,000	0,029	0,103
-655,116	72,650	0,136	0,105
-654,101	-200,000	0,008	-0,043
-653,086	-163,827	0,139	0,005
-652,072	-60,550	-0,047	0,015
-651,057	49,398	-0,087	0,061
-650,043	-140,777	-0,027	0,002
-649,028	-167,688	-0,090	0,003
-648,014	203,090	0,079	-0,090
-646,999	-200,000	0,012	0,140
-645,984	-182,271	-0,140	-0,002
-644,970	-200,000	-0,015	0,117
-643,955	-200,000	0,009	-0,050
-642,941	-200,000	0,000	-0,084
-641,926	167,499	-0,109	0,115
-640,911	-36,813	0,047	-0,019
-639,897	-200,000	0,001	0,035
-638,882	509,762	-0,034	0,059
-637,868	176,029	0,040	0,043
-636,853	-24,931	-0,106	-0,046
-635,838	-181,166	-0,131	0,002
-634,824	-141,806	-0,031	0,002
-633,809	-71,807	0,024	0,007
-632,795	-129,159	0,057	-0,006
-631,780	-146,522	0,087	0,006
-630,765	-75,292	0,033	-0,009
-629,751	-200,000	-0,025	0,091
-628,736	1,799	-0,083	-0,044
-627,722	7,220	0,023	-0,013
-626,707	351,392	-0,129	-0,191
-625,692	800,000	0,045	0,099
-624,678	76,119	0,044	-0,034
-623,663	67,865	0,110	0,083
-622,649	-155,744	-0,176	0,008
-621,634	800,000	-0,015	0,035
-620,619	241,358	0,003	-0,004
-619,605	-200,000	-0,030	0,111
-618,590	-74,712	0,129	0,034
-617,576	-56,879	-0,225	-0,073
-616,561	-102,939	-0,041	0,007
-615,546	207,367	-0,076	-0,088
-614,532	400,201	0,034	-0,053
-613,517	-200,000	0,006	-0,111
-612,503	800,000	-0,012	0,040
-611,488	40,035	0,031	0,021
-610,474	80,258	-0,039	0,031
-609,459	6,240	0,092	-0,050
-608,444	-105,277	0,106	0,018
-607,430	91,047	-0,017	0,014
-606,415	-200,000	-0,031	-0,179
-605,401	-112,612	0,183	-0,027
-604,386	-39,148	0,092	0,036
-603,371	320,622	-0,080	0,113
-602,357	-200,000	-0,017	0,096
-601,342	105,765	0,061	0,054
-600,328	411,210	-0,007	0,012
-599,313	-200,000	-0,010	-0,110
-598,298	-200,000	0,014	-0,123
-597,284	-153,089	0,119	0,006
-596,269	800,000	0,051	-0,160
-595,255	396,651	-0,049	-0,075
-594,240	29,949	-0,026	-0,017
-593,225	-200,000	-0,017	-0,129
-592,211	800,000	0,022	-0,064
-591,196	535,384	-0,026	-0,046
-590,182	-95,652	0,107	-0,021
-589,167	491,387	0,037	-0,062
-588,152	127,617	-0,133	-0,125
-587,138	-200,000	-0,011	-0,083
-586,123	-200,000	-0,009	-0,070
-585,109	-200,000	-0,009	-0,073
-584,094	-200,000	0,028	-0,210
-583,079	-56,420	0,061	0,020
-582,065	-200,000	-0,012	0,112
-581,050	398,665	-0,058	-0,090
-580,036	-136,038	0,127	0,011
-579,021	115,388	-0,128	0,115
-578,006	18,167	-0,042	0,025
-576,992	-200,000	-0,024	-0,097
-575,977	800,000	0,033	-0,105
-574,963	-131,518	-0,137	-0,013
-573,948	-200,000	0,021	0,074
-572,934	110,748	0,049	-0,044
-571,919	568,755	-0,088	-0,159
-570,904	-195,120	0,090	0,000
-569,890	52,851	-0,092	-0,065
-568,875	40,241	0,044	0,030
-567,861	88,127	-0,039	-0,032
-566,846	800,000	-0,027	-0,079
-565,831	372,179	-0,068	0,102
-564,817	-31,114	-0,087	-0,036
-563,802	800,000	0,041	0,099
-562,788	-91,449	-0,081	-0,017
-561,773	800,000	-0,038	-0,113
-560,758	-200,000	-0,025	0,084
-559,744	800,000	-0,066	0,154
-558,729	-57,048	-0,028	0,009
-557,715	-90,421	-0,109	-0,023
-556,700	800,000	-0,009	-0,024
-555,685	146,194	-0,047	-0,047
-554,671	10,106	0,104	0,058
-553,656	-200,000	0,033	0,115
-552,642	-126,067	0,107	-0,012
-551,627	-110,885	-0,111	-0,017
-550,612	-200,000	-0,012	-0,072
-549,598	-45,839	-0,094	0,034
-548,583	-103,621	-0,031	-0,005
-547,569	44,085	-0,056	-0,038
-546,554	330,239	0,027	0,039
-545,539	42,245	0,068	0,046
-544,525	101,846	-0,075	0,065
-543,510	792,769	-0,032	-0,066
-542,496	72,576	-0,126	-0,097
-541,481	-200,000	-0,009	-0,050
-540,466	800,000	-0,053	0,118
-539,452	-11,307	0,085	-0,041
-538,437	-200,000	0,014	0,069
-537,423	-200,000	-0,023	0,132
-536,408	604,443	0,030	0,055
-535,393	139,058	0,041	-0,039
-534,379	315,606	0,077	-0,108
-533,364	-200,000	0,012	0,151
-532,350	-200,000	0,004	-0,049
-531,335	752,804	0,038	-0,077
-530,321	-83,948	-0,043	0,010
-529,306	-146,991	0,121	0,008
-528,291	39,232	0,053	0,035
-527,277	126,468	-0,141	-0,132
-526,262	244,780	0,108	-0,134
-525,248	-117,107	-0,031	-0,004
-524,233	-62,355	-0,032	-0,010
-523,218	-200,000	0,042	-0,149
-522,204	159,264	0,026	-0,027
-521,189	-126,311	-0,108	0,012
-520,175	-200,000	0,010	-0,072
-519,160	-200,000	-0,003	-0,052
-518,145	59,395	0,079	-0,058
-517,131	800,000	0,019	-0,052
-516,116	37,489	0,035	0,023
-515,102	-160,665	0,084	0,003
-514,087	-200,000	-0,003	-0,105
-513,072	-200,000	0,003	-0,143
-512,058	143,285	-0,128	0,126
-511,043	-200,000	0,004	-0,105
-510,029	-10,527	0,062	0,030
-509,014	-53,618	0,114	0,038
-507,999	-200,000	-0,005	-0,146
-506,985	152,982	0,036	0,037
-505,970	800,000	-0,054	-0,127
-504,956	158,061	0,103	0,105
-503,941	437,690	0,067	-0,109
-502,926	276,237	0,037	0,049
-501,912	-200,000	-0,016	0,106
-500,897	-200,000	-0,043	0,173
-499,883	-200,000	-0,018	-0,072
-498,868	-85,477	-0,075	0,017
-497,853	181,830	-0,071	-0,077
-496,839	94,718	-0,085	-0,071
-495,824	621,333	0,020	-0,038
-494,810	-172,296	-0,038	-0,001
-493,795	-52,842	0,125	-0,042
-492,781	800,000	0,054	0,163
-491,766	-58,566	-0,137	0,044
-490,751	-0,261	0,032	0,017
-489,737	269,703	0,090	0,117
-488,722	-6,220	0,066	-0,033
-487,708	78,384	-0,078	-0,062
-486,693	261,168	-0,013	-0,016
-485,678	11,789	0,022	0,012
-484,664	-174,421	0,047	-0,001
-483,649	170,533	0,049	-0,051
-482,635	115,872	-0,006	-0,006
-481,620	2,913	0,157	0,084
-480,605	189,940	-0,021	-0,023
-479,591	-154,520	0,090	-0,004
-478,576	193,617	-0,030	0,034
-477,562	224,174	0,114	0,136
-476,547	380,399	0,040	-0,061
-475,532	24,727	-0,051	0,031
-474,518	-52,992	0,060	-0,020
-473,503	-61,386	-0,028	-0,009
-472,489	-200,000	0,019	0,100
-471,474	73,273	-0,075	0,058
-470,459	7,898	-0,137	-0,075
-469,445	122,577	-0,106	-0,098
-468,430	37,181	0,029	0,019
-467,416	4,206	-0,015	0,008
-466,401	-200,000	-0,027	0,174
-465,386	129,517	-0,115	0,108
-464,372	-89,804	-0,033	-0,007
-463,357	8,980	-0,091	-0,050
-462,343	4,180	-0,219	0,118
-461,328	229,341	-0,049	0,059
-460,313	597,471	0,053	-0,098
-459,299	13,517	0,038	0,022
-458,284	87,358	0,026	-0,021
-457,270	-21,756	-0,056	-0,025
-456,255	-129,647	-0,042	0,004
-455,241	20,784	0,030	-0,018
-454,226	123,566	-0,102	-0,094
-453,211	5,858	0,067	0,037
-452,197	-164,582	0,089	-0,003
-451,182	570,133	-0,026	-0,048
-450,168	249,476	-0,048	0,060
-449,153	166,770	0,091	-0,095
-448,138	-200,000	-0,024	-0,109
-447,124	-13,327	0,086	-0,041
-446,109	11,512	-0,024	0,013
-445,095	-86,659	0,157	-0,035
-444,080	-200,000	-0,035	0,122
-443,065	-4,229	-0,093	0,047
-442,051	-200,000	0,027	-0,111
-441,036	454,712	0,028	0,045
-440,022	26,504	-0,149	-0,091
-439,007	82,556	-0,079	0,063
-437,992	680,276	-0,028	0,053
-436,978	152,717	-0,028	0,029
-435,963	66,266	0,109	-0,082
-434,949	-200,000	-0,025	-0,086
-433,934	-200,000	0,036	-0,191
-432,919	-90,962	-0,066	-0,014
-431,905	-200,000	0,013	-0,089
-430,890	31,694	0,050	0,031
-429,876	24,309	0,011	-0,006
-428,861	800,000	0,049	0,111
-427,846	277,905	-0,088	0,115
-426,832	302,299	-0,069	-0,094
-425,817	-35,045	0,063	-0,025
-424,803	-110,249	-0,034	-0,005
-423,788	719,662	0,031	0,061
-422,773	-69,950	0,064	0,018
-421,759	-39,723	-0,116	0,044
-420,744	38,841	0,032	0,021
-419,730	67,419	-0,042	-0,031
-418,715	-37,885	-0,090	-0,035
-417,701	54,993	-0,081	0,057
-416,686	-200,000	0,058	0,000
-415,671	63,594	-0,025	-0,018
-414,657	800,000	0,006	0,015
-413,642	-116,952	-0,032	0,004
-412,628	112,314	-0,060	0,053
-411,613	-45,041	0,142	-0,052
-410,598	-200,000	-0,006	-0,065
-409,584	7,742	-0,079	0,043
-408,569	519,232	0,029	-0,051
-407,555	182,709	-0,026	0,029
-406,540	60,303	0,026	-0,019
-405,525	-26,751	-0,084	0,036
-404,511	-200,000	0,015	-0,054
-403,496	-126,294	-0,093	0,010
-402,482	115,938	0,053	0,048
-401,467	43,200	0,031	0,021
-400,452	750,846	0,028	0,055
-399,438	324,483	0,050	0,071
-398,423	251,772	-0,034	0,042
-397,409	-200,000	-0,038	-0,157
-396,394	-131,752	0,122	0,012
-395,379	558,404	0,051	0,090
-394,365	-200,000	-0,023	0,125
-393,350	-182,582	0,099	-0,001
-392,336	-100,556	0,094	0,017
-391,321	167,020	0,050	-0,052
-390,306	340,426	0,010	-0,015
-389,292	150,803	-0,079	0,079
-388,277	-200,000	0,010	0,037
-387,263	-153,378	0,114	-0,006
-386,248	7,739	-0,083	-0,046
-385,233	229,464	0,062	0,075
-384,219	684,750	-0,101	0,195
-383,204	800,000	0,046	0,103
-382,190	-200,000	-0,021	-0,094
-381,175	-83,085	-0,065	-0,015
-380,160	-61,012	0,067	-0,021
-379,146	425,942	0,084	-0,134
-378,131	-148,053	0,028	-0,002
-377,117	800,000	0,010	0,030
-376,102	512,434	-0,029	-0,050
-375,088	688,738	-0,045	0,087
-374,073	-200,000	0,013	-0,081
-373,058	226,675	-0,022	0,026
-372,044	-200,000	0,206	0,000
-371,029	115,851	-0,099	0,089
-370,015	-200,000	0,005	0,103
-369,000	245,807	-0,073	-0,091
-367,985	-13,405	0,020	-0,010
-366,971	800,000	0,024	-0,062
-365,956	-111,255	0,203	0,030
-364,942	800,000	0,063	0,192
-363,927	-200,000	-0,002	0,105
-362,912	-29,354	0,025	-0,011
-361,898	185,055	0,093	0,101
-360,883	-90,536	-0,044	0,009
-359,869	-200,000	0,000	-0,068
-358,854	-200,000	-0,010	0,139
-357,839	75,427	-0,146	-0,113
-356,825	-155,988	0,142	-0,006
-355,810	-93,746	0,123	-0,025
-354,796	800,000	-0,038	-0,094
-353,781	-95,412	0,094	0,018
-352,766	-200,000	-0,043	-0,147
-351,752	800,000	0,011	-0,030
-350,737	32,086	0,235	0,148
-349,723	497,186	-0,040	0,068
-348,708	-67,480	-0,058	-0,017
-347,693	-200,000	-0,020	-0,120
-346,679	-200,000	-0,011	-0,115
-345,664	-37,182	0,133	-0,052
-344,650	800,000	0,018	-0,059
-343,635	-200,000	-0,007	0,036
-342,620	-98,213	-0,080	0,015
-341,606	-200,000	-0,004	0,033
-340,591	-16,293	0,039	-0,018
-339,577	-36,294	0,042	0,017
-338,562	-200,000	0,009	0,063
-337,548	-34,738	-0,043	0,017
-336,533	-200,000	0,008	0,039
-335,518	98,558	0,048	0,040
-334,504	-111,315	0,067	0,010
-333,489	-200,000	-0,007	-0,140
-332,475	-153,131	-0,066	-0,003
-331,460	158,187	-0,046	-0,047
-330,445	9,512	0,083	-0,046
-329,431	-44,959	0,025	0,009
-328,416	-200,000	-0,003	0,119
-327,402	44,235	-0,098	0,066
-326,387	-160,040	-0,052	0,002
-325,372	-173,691	-0,073	0,002
-324,358	800,000	-0,015	0,045
-323,343	215,311	0,003	-0,003
-322,329	70,917	-0,103	0,078
-321,314	-80,530	0,013	-0,003
-320,299	7,905	0,072	-0,039
-319,285	-24,315	0,178	0,077
-318,270	-7,408	-0,082	0,041
-317,256	164,137	-0,032	0,033
-316,241	800,000	0,017	0,041
-315,226	6,183	0,043	-0,023
-314,212	369,908	-0,032	-0,047
-313,197	-165,086	-0,015	0,000
-312,183	-95,153	0,075	-0,015
-311,168	-200,000	-0,000	-0,130
-310,153	-200,000	0,008	0,041
-309,139	69,717	0,077	-0,058
-308,124	120,537	-0,103	0,093
-307,110	-96,589	0,034	-0,006
-306,095	40,000	-0,114	0,075
-305,080	-200,000	-0,025	0,154
-304,066	-200,000	-0,005	-0,058
-303,051	-200,000	0,016	0,082
-302,037	-152,906	0,078	0,004
-301,022	8,037	-0,057	-0,031
-300,008	-200,000	-0,002	0,019
-298,993	-111,181	0,085	-0,013
-297,978	-127,565	0,023	-0,002
-296,964	-26,979	-0,077	-0,033
-295,949	91,905	-0,006	0,005
-294,935	661,428	-0,040	-0,076
-293,920	800,000	-0,028	-0,089
-292,905	800,000	0,053	0,157
-291,891	-149,198	0,088	-0,005
-290,876	-70,247	0,060	0,017
-289,862	-154,528	-0,054	0,003
-288,847	382,475	-0,114	-0,172
-287,832	792,662	0,041	0,084
-286,818	-36,196	0,074	-0,029
-285,803	86,287	0,066	0,053
-284,789	134,892	-0,043	-0,041
-283,774	-18,888	0,082	-0,037
-282,759	-56,421	-0,053	0,017
-281,745	800,000	-0,079	-0,162
-280,730	-200,000	-0,014	0,059
-279,716	85,048	0,088	0,070
-278,701	-200,000	-0,014	-0,058
-277,686	48,886	0,096	-0,066
-276,672	-200,000	0,020	-0,088
-275,657	185,144	0,044	-0,048
-274,643	43,773	-0,047	-0,032
-273,628	212,697	-0,060	0,069
-272,613	684,769	-0,102	-0,195
-271,599	-76,922	0,156	0,040
-270,584	220,862	0,027	-0,032
-269,570	-200,000	-0,000	0,054
-268,555	-68,473	0,041	0,012
-267,540	800,000	-0,055	-0,154
-266,526	392,504	-0,057	-0,087
-265,511	274,272	-0,032	0,041
-264,497	401,549	0,027	0,042
-263,482	-200,000	0,018	-0,092
-262,467	-115,623	0,098	0,013
-261,453	175,984	0,170	0,181
-260,438	800,000	0,011	0,028
-259,424	-200,000	0,003	-0,048
-258,409	800,000	0,040	-0,112
-257,395	477,461	0,069	0,114
-256,380	-57,720	-0,031	0,010
-255,365	-40,690	0,120	-0,045
-254,351	776,585	-0,062	0,125
-253,336	-200,000	-0,040	0,152
-252,322	131,492	-0,122	-0,115
-251,307	-113,467	-0,098	0,014
-250,292	129,964	-0,061	-0,057
-249,278	800,000	0,022	0,069
-248,263	498,064	-0,042	0,071
-247,249	800,000	0,016	-0,051
-246,234	467,423	0,106	0,175
-245,219	-200,000	0,001	-0,067
-244,205	-200,000	-0,017	-0,102
-243,190	-80,747	0,062	0,015
-242,176	-28,203	-0,114	-0,048
-241,161	15,173	0,050	-0,029
-240,146	102,252	0,100	0,086
-239,132	-200,000	0,000	-0,058
-238,117	800,000	-0,039	-0,090
-237,103	-9,929	0,028	-0,014
-236,088	730,297	0,039	-0,076
-235,073	800,000	-0,012	-0,035
-234,059	-65,102	-0,100	-0,029
-233,044	80,611	0,046	-0,036
-232,030	48,488	-0,054	0,037
-231,015	800,000	0,013	-0,034
-230,000	800,000	-0,046	0,136
-228,986	179,338	-0,033	-0,035
-227,971	-85,931	0,054	0,012
-226,957	-200,000	-0,008	-0,088
-225,942	-94,703	0,024	0,005
-224,927	-77,226	-0,133	0,034
-223,913	800,000	0,017	0,048
-222,898	-54,993	0,163	0,053
-221,884	163,983	-0,072	-0,074
-220,869	800,000	0,056	0,118
-219,855	88,921	-0,027	0,022
-218,840	-97,558	0,070	-0,013
-217,825	649,809	-0,090	0,169
-216,811	800,000	0,019	-0,056
-215,796	225,681	-0,051	0,060
-214,782	800,000	0,008	0,021
-213,767	-105,592	-0,104	-0,017
-212,752	-146,680	-0,048	0,003
-211,738	52,841	0,219	-0,153
-210,723	-28,121	-0,096	-0,040
-209,709	-200,000	-0,004	-0,028
-208,694	-200,000	0,014	-0,129
-207,679	71,337	-0,056	0,042
-206,665	-200,000	0,006	-0,084
-205,650	44,960	0,086	0,058
-204,636	-151,513	-0,099	0,005
-203,621	800,000	-0,028	0,085
-202,606	-110,624	0,052	-0,008
-201,592	27,717	-0,073	0,045
-200,577	291,618	0,071	0,095
-199,563	-200,000	-0,006	-0,046
-198,548	-74,755	0,075	0,019
-197,533	665,160	-0,045	0,085
-196,519	758,726	0,037	0,073
-195,504	-52,643	-0,045	0,015
-194,490	158,212	0,073	-0,074
-193,475	-200,000	0,004	-0,102
-192,460	800,000	-0,016	0,039
-191,446	278,274	0,053	0,070
-190,431	800,000	-0,044	0,116
-189,417	800,000	0,045	-0,110
-188,402	130,246	-0,043	0,040
-187,387	20,054	-0,092	0,054
-186,373	88,376	0,088	0,071
-185,358	8,653	-0,066	-0,036
-184,344	114,343	-0,097	0,086
-183,329	164,646	0,091	0,094
-182,315	132,524	-0,075	0,070
-181,300	-14,438	-0,084	0,039
-180,285	27,139	-0,183	0,112
-179,271	299,780	0,013	0,017
-178,256	-200,000	-0,014	-0,068
-177,242	800,000	0,019	0,053
-176,227	68,289	0,041	-0,030
-175,212	-28,886	-0,063	-0,026
-174,198	375,329	0,071	-0,106
-173,183	12,825	-0,084	0,047
-172,169	-107,254	-0,118	0,019
-171,154	20,125	-0,087	0,051
-170,139	293,847	0,045	0,061
-169,125	329,317	0,011	0,015
-168,110	-200,000	0,016	0,071
-167,096	800,000	0,108	0,245
-166,081	800,000	0,039	-0,083
-165,066	150,833	0,012	-0,012
-164,052	800,000	-0,005	-0,014
-163,037	84,436	-0,140	0,112
-162,023	-200,000	0,022	0,112
-161,008	-19,738	0,213	0,096
-159,993	13,543	-0,026	0,015
-158,979	307,156	0,009	0,012
-157,964	-51,403	0,086	-0,029
-156,950	-90,864	-0,065	0,013
-155,935	-200,000	0,013	0,048
-154,920	156,316	0,035	-0,036
-153,906	-45,465	0,104	-0,037
-152,891	800,000	-0,019	0,047
-151,877	-200,000	-0,019	-0,093
-150,862	800,000	-0,040	-0,096
-149,847	-43,594	0,158	-0,058
-148,833	-200,000	0,018	0,091
-147,818	-200,000	-0,002	0,068
-146,804	554,765	0,036	0,064
-145,789	55,077	0,037	-0,026
-144,775	120,927	-0,046	0,042
-143,760	800,000	-0,033	-0,072
-142,745	800,000	0,006	0,013
-141,731	385,467	0,016	0,025
-140,716	81,297	-0,039	0,031
-139,702	-43,130	0,233	0,086
-138,687	800,000	-0,047	0,129
-137,672	-79,273	-0,127	0,031
-136,658	468,995	-0,090	-0,148
-135,643	800,000	0,053	0,141
-134,629	-70,116	-0,137	-0,038
-133,614	326,561	0,029	0,040
-132,599	-200,000	-0,007	0,248
-131,585	-200,000	-0,014	0,130
-130,570	67,455	0,081	0,060
-129,556	539,488	0,017	0,030
-128,541	19,306	-0,109	0,063
-127,526	-200,000	0,018	-0,160
-126,512	-200,000	0,008	0,060
-125,497	-50,485	0,154	-0,053
-124,483	-18,976	0,115	-0,052
-123,468	800,000	-0,037	0,080
-122,453	-55,930	-0,092	0,030
-121,439	173,226	-0,043	0,046
-120,424	-56,135	0,074	-0,024
-119,410	-136,214	0,066	0,006
-118,395	-200,000	0,015	-0,083
-117,380	-166,584	-0,120	-0,004
-116,366	-200,000	0,002	0,020
-115,351	-200,000	-0,008	-0,170
-114,337	389,359	-0,059	-0,089
-113,322	289,429	0,061	0,081
-112,307	-23,780	0,132	0,057
-111,293	-100,480	-0,064	-0,011
-110,278	-200,000	-0,009	0,081
-109,264	-102,658	0,063	-0,011
-108,249	4,354	-0,025	0,013
-107,234	-53,301	-0,093	-0,031
-106,220	273,270	0,021	0,028
-105,205	206,343	0,064	0,072
-104,191	-71,645	0,200	-0,054
-103,176	-200,000	-0,007	-0,129
-102,162	-200,000	-0,009	0,072
-101,147	276,724	0,027	0,034
-100,132	253,986	0,019	-0,024
-99,118	327,321	0,049	-0,069
-98,103	116,376	-0,084	0,075
-97,089	715,365	-0,080	0,155
-96,074	-200,000	-0,012	0,054
-95,059	-13,762	0,033	0,016
-94,045	-80,625	-0,009	0,002
-93,030	800,000	-0,019	0,055
-92,016	-104,530	0,072	-0,012
-91,001	192,367	-0,041	-0,045
-89,986	-8,061	0,088	0,043
-88,972	-41,511	0,041	-0,015
-87,957	-200,000	0,003	-0,076
-86,943	-73,231	-0,073	-0,019
-85,928	-200,000	-0,017	-0,134
-84,913	-76,613	-0,075	-0,019
-83,899	-44,504	-0,071	-0,026
-82,884	-53,502	0,019	0,006
-81,870	10,559	-0,072	-0,040
-80,855	-109,943	0,122	0,018
-79,840	23,978	-0,080	0,048
-78,826	611,193	0,021	-0,037
-77,811	-200,000	0,009	0,079
-76,797	-200,000	0,006	0,083
-75,782	402,779	-0,050	0,077
-74,767	33,393	0,143	0,090
-73,753	8,980	0,046	-0,025
-72,738	800,000	0,023	-0,050
-71,724	-57,486	0,098	0,031
-70,709	800,000	-0,024	-0,061
-69,694	59,649	0,023	0,016
-68,680	800,000	-0,038	0,095
-67,665	-200,000	0,029	0,127
-66,651	391,311	-0,041	0,063
-65,636	206,437	-0,071	0,080
-64,622	317,559	0,056	-0,077
-63,607	-200,000	-0,012	-0,106
-62,592	17,348	-0,029	0,017
-61,578	-200,000	-0,006	0,039
-60,563	800,000	0,051	0,103
-59,549	340,503	0,060	0,085
-58,534	-144,985	-1,315	-0,086
-57,519	556,223	-0,837	-1,469
-56,505	-200,000	-1,105	-4,372
-55,490	140,488	0,562	-0,539
-54,476	800,000	4,965	11,959
-53,461	-200,000	13,563	253,077
-52,446	-200,000	689,292	2260,819
-51,432	592,326	1622,331	2920,048
-50,417	119,550	1635,145	1469,659
-49,403	73,353	1289,177	978,033
-48,388	38,088	1024,237	659,982
-47,373	24,352	981,894	587,512
-46,359	23,602	971,459	578,787
-45,344	22,609	967,183	572,972
-44,330	22,504	965,720	571,738
-43,315	22,501	964,361	570,901
-42,300	22,476	963,279	570,156
-41,286	22,368	962,403	569,265
-40,271	22,392	961,275	568,654
-39,257	22,382	960,603	568,201
-38,242	22,358	959,644	567,532
-37,227	22,411	958,676	567,109
-36,213	22,417	957,727	566,545
-35,198	22,389	956,997	566,000
-34,184	22,438	956,432	565,802
-33,169	22,291	955,594	564,810
-32,154	22,410	954,556	564,556
-31,140	22,437	953,596	564,054
-30,125	22,477	952,671	563,612
-29,111	22,414	951,951	562,963
-28,096	22,432	951,363	562,649
-27,082	22,449	950,580	562,220
-26,067	22,425	949,926	561,732
-25,052	22,405	949,206	561,223
-24,038	22,375	948,548	560,714
-23,023	22,369	947,910	560,294
-22,009	22,433	947,354	560,148
-20,994	22,450	946,609	559,741
-19,979	22,406	946,008	559,221
-18,965	22,468	945,464	559,077
-17,950	22,439	944,829	558,586
-16,936	22,379	944,216	558,011
-15,921	22,343	943,553	557,481
-14,906	22,306	942,648	556,807
-13,892	22,291	942,176	556,458
-12,877	22,329	941,406	556,103
-11,863	22,283	940,835	555,597
-10,848	22,315	940,201	555,303
-9,833	22,394	939,869	555,335
-8,819	22,387	939,218	554,907
-7,804	22,370	938,460	554,382
-6,790	22,270	937,966	553,752
-5,775	22,387	937,192	553,644
-4,760	22,314	936,644	553,067
-3,746	22,327	936,147	552,792
-2,731	22,163	935,404	551,814
-1,717	22,100	934,704	551,181
-0,702	22,062	934,261	550,776
0,313	21,911	933,349	550,595
1,327	25,027	931,413	559,203
2,342	34,660	796,025	503,582
3,356	32,590	451,509	282,489
4,371	1,622	293,493	152,748
5,386	-2,745	274,358	138,649
6,400	-4,192	268,362	134,266
7,415	-4,909	266,102	132,465
8,429	-4,360	264,937	132,375
9,444	-4,489	264,087	131,821
10,459	-4,436	263,527	131,578
11,473	-4,566	262,830	131,101
12,488	-4,648	262,382	130,791
13,502	-4,810	261,706	130,296
14,517	-4,814	261,564	130,211
15,531	-4,583	261,059	130,155
16,546	-4,519	260,586	129,965
17,561	-4,530	260,168	129,736
18,575	-4,461	259,857	129,630
19,590	-4,712	259,515	129,224
20,604	-4,603	259,287	129,197
21,619	-4,606	258,871	128,975
22,634	-4,622	258,548	128,788
23,648	-4,863	258,237	128,407
24,663	-4,768	258,115	128,420
25,677	-4,666	257,792	128,338
26,692	-4,635	257,574	128,246
27,707	-4,661	257,393	128,121
28,721	-4,768	257,136	127,887
29,736	-4,765	256,868	127,745
30,750	-4,959	256,607	127,432
31,765	-4,505	256,396	127,717
32,780	-4,737	256,093	127,350
33,794	-4,937	256,044	127,138
34,809	-4,743	255,589	127,071
35,823	-4,811	255,520	126,966
36,838	-4,721	255,153	126,851
37,853	-4,821	254,948	126,650
38,867	-4,762	254,773	126,604
39,882	-4,988	254,569	126,293
40,896	-4,780	254,232	126,297
41,911	-4,826	254,075	126,168
42,926	-4,657	253,787	126,161
43,940	-4,801	253,575	125,918
44,955	-4,860	253,286	125,712
45,969	-5,051	253,167	125,475
46,984	-5,205	252,986	125,240
47,999	-5,381	252,593	124,882
49,013	-5,545	252,439	124,652
50,028	-5,363	252,024	124,594
51,042	-5,868	251,733	124,001
52,057	-5,672	251,548	124,069
53,071	-5,668	251,357	123,967
54,086	-5,543	251,367	124,069
55,101	-5,558	251,083	123,905
56,115	-5,158	250,942	124,169
57,130	-4,798	250,946	124,471
58,144	-4,631	250,940	124,601
59,159	-4,477	250,601	124,554
60,174	-4,535	250,245	124,316
61,188	-4,701	250,135	124,108
62,203	-4,788	249,871	123,891
63,217	-4,746	249,674	123,818
64,232	-4,702	249,619	123,818
65,247	-4,632	249,254	123,685
66,261	-4,727	249,065	123,500
67,276	-5,013	248,881	123,153
68,290	-5,030	248,540	122,958
69,305	-5,206	248,286	122,671
70,320	-5,253	248,111	122,534
71,334	-4,959	248,079	122,758
72,349	-4,767	248,113	122,927
73,363	-4,685	247,680	122,772
74,378	-4,571	247,444	122,740
75,393	-4,814	247,205	122,405
76,407	-4,754	247,081	122,383
77,422	-4,705	246,906	122,327
78,436	-4,607	246,668	122,282
79,451	-4,607	246,434	122,155
80,466	-4,944	246,213	121,750
81,480	-4,904	245,829	121,583
82,495	-5,003	245,870	121,509
83,509	-5,053	245,706	121,374
84,524	-4,803	245,512	121,478
85,539	-4,974	245,154	121,147
86,553	-5,181	244,999	120,885
87,568	-4,944	244,783	120,967
88,582	-5,059	244,721	120,829
89,597	-5,120	244,533	120,674
90,611	-4,941	244,440	120,768
91,626	-4,710	244,213	120,838
92,641	-4,620	244,099	120,846
93,655	-4,768	243,741	120,534
94,670	-4,816	243,617	120,422
95,684	-4,920	243,380	120,208
96,699	-4,656	243,167	120,312
97,714	-5,137	243,184	119,908
98,728	-5,096	242,822	119,753
99,743	-5,154	242,600	119,585
100,757	-5,139	242,433	119,505
101,772	-5,160	242,320	119,421
102,787	-5,091	242,050	119,334
103,801	-4,887	241,941	119,439
104,816	-4,966	241,826	119,306
105,830	-4,788	241,661	119,361
106,845	-4,720	241,530	119,343
107,860	-4,786	241,337	119,182
108,874	-5,047	241,056	118,817
109,889	-5,168	240,789	118,575
110,903	-4,983	240,541	118,595
111,918	-5,118	240,555	118,479
112,933	-4,814	240,533	118,708
113,947	-4,812	240,236	118,553
114,962	-4,685	240,130	118,594
115,976	-4,801	239,941	118,396
116,991	-4,805	239,886	118,354
118,006	-4,721	239,397	118,172
119,020	-4,894	239,417	118,029
120,035	-4,637	239,306	118,174
121,049	-4,672	239,133	118,050
122,064	-4,698	238,820	117,863
123,079	-4,842	238,766	117,709
124,093	-5,058	238,689	117,484
125,108	-5,195	238,351	117,196
126,122	-5,201	238,045	117,030
127,137	-5,326	237,823	116,808
128,151	-5,111	237,759	116,941
129,166	-5,000	237,639	116,962
130,181	-5,269	237,490	116,660
131,195	-4,899	237,196	116,805
132,210	-5,070	237,113	116,615
133,224	-4,937	237,042	116,678
134,239	-4,836	236,871	116,665
135,254	-4,798	236,711	116,606
136,268	-5,032	236,353	116,231
137,283	-5,026	236,197	116,149
138,297	-5,289	235,900	115,780
139,312	-5,312	235,556	115,582
140,327	-4,862	235,658	115,984
141,341	-4,637	235,764	116,207
142,356	-4,447	235,555	116,246
143,370	-4,427	235,364	116,157
144,385	-4,392	235,339	116,163
145,400	-4,393	235,069	116,019
146,414	-4,497	235,028	115,905
147,429	-4,475	234,811	115,805
148,443	-4,514	234,445	115,583
149,458	-4,715	234,452	115,416
150,473	-4,700	234,276	115,331
151,487	-4,453	234,137	115,449
152,502	-4,605	233,814	115,158
153,516	-4,419	233,707	115,244
154,531	-4,479	233,515	115,091
155,546	-4,518	233,269	114,928
156,560	-4,695	233,215	114,750
157,575	-4,432	232,856	114,773
158,589	-4,681	232,816	114,546
159,604	-4,414	232,749	114,714
160,619	-4,315	232,401	114,610
161,633	-4,301	232,415	114,618
162,648	-4,565	232,301	114,343
163,662	-4,580	232,125	114,234
164,677	-4,694	231,890	114,018
165,692	-4,379	231,833	114,229
166,706	-4,394	231,739	114,160
167,721	-4,162	231,467	114,198
168,735	-4,356	231,364	113,985
169,750	-4,571	231,246	113,747
170,764	-4,236	231,086	113,922
171,779	-4,474	230,963	113,664
172,794	-4,358	230,758	113,645
173,808	-4,554	230,448	113,328
174,823	-4,924	230,211	112,912
175,837	-5,050	229,973	112,686
176,852	-4,876	230,010	112,830
177,867	-4,392	230,017	113,203
178,881	-4,478	229,764	113,001
179,896	-4,451	229,570	112,916
180,910	-4,374	229,533	112,948
181,925	-4,492	229,372	112,767
182,940	-4,507	229,169	112,645
183,954	-4,349	229,030	112,690
184,969	-4,239	228,867	112,685
185,983	-4,102	228,801	112,749
186,998	-4,105	228,597	112,636
188,013	-4,196	228,471	112,493
189,027	-4,167	228,312	112,427
190,042	-4,172	228,123	112,320
191,056	-4,173	227,955	112,228
192,071	-4,118	227,865	112,215
193,086	-4,397	227,709	111,912
194,100	-4,355	227,528	111,846
195,115	-4,561	227,198	111,515
196,129	-5,549	227,085	110,688
197,144	-2,195	227,956	113,698
198,159	2,366	228,960	117,725
199,173	4,069	229,611	119,370
200,188	4,385	229,429	119,509
201,202	4,421	229,392	119,507
202,217	4,407	229,261	119,417
203,232	4,670	229,191	119,574
204,246	4,812	228,976	119,561
205,261	4,656	228,803	119,340
206,275	5,057	228,832	119,653
207,290	5,050	228,655	119,545
208,304	4,972	228,427	119,355
209,319	4,852	228,303	119,187
210,334	4,808	228,032	119,001
211,348	4,709	227,894	118,842
212,363	4,233	227,604	118,315
213,377	4,123	227,344	118,085
214,392	3,953	227,303	117,923
215,407	4,189	227,205	118,042
216,421	4,210	226,989	117,936
217,436	4,080	226,865	117,762
218,450	4,142	226,487	117,602
219,465	3,791	226,396	117,276
220,480	4,154	226,257	117,471
221,494	4,102	226,055	117,316
222,509	4,163	225,996	117,321
223,523	3,978	225,932	117,137
224,538	4,194	225,603	117,120
225,553	4,048	225,601	116,997
226,567	4,280	225,590	117,157
227,582	4,292	225,397	117,056
228,596	4,433	225,412	117,161
229,611	4,082	225,083	116,713
230,626	3,945	224,856	116,481
231,640	4,132	224,707	116,535
232,655	4,307	224,598	116,600
233,669	4,647	224,607	116,851
234,684	4,685	224,511	116,820
235,699	4,436	224,268	116,495
236,713	4,236	224,110	116,252
237,728	4,066	223,781	115,943
238,742	4,007	223,675	115,833
239,757	4,114	223,517	115,821
240,772	4,131	223,535	115,833
241,786	4,036	223,393	115,678
242,801	4,255	223,091	115,675
243,815	4,549	223,121	115,901
244,830	4,519	223,067	115,841
245,844	4,259	222,726	115,459
246,859	4,299	222,582	115,403
247,874	4,274	222,516	115,341
248,888	4,351	222,331	115,292
249,903	4,257	222,087	115,084
250,917	4,178	221,919	114,929
251,932	4,233	221,804	114,899
252,947	4,257	221,582	114,792
253,961	3,957	221,554	114,544
254,976	4,426	221,345	114,775
255,990	4,133	221,257	114,501
257,005	4,260	221,249	114,581
258,020	4,252	221,182	114,530
259,034	4,572	220,918	114,621
260,049	4,443	220,722	114,413
261,063	4,447	220,543	114,313
262,078	4,325	220,569	114,226
263,093	4,562	220,487	114,349
264,107	4,245	220,326	114,021
265,122	4,381	219,984	113,934
266,136	4,604	219,949	114,070
267,151	4,420	219,923	113,911
268,166	4,310	219,480	113,590
269,180	3,984	219,426	113,312
270,195	3,897	219,275	113,159
271,209	3,872	219,133	113,058
272,224	3,814	219,222	113,052
273,239	4,217	218,900	113,171
274,253	4,120	218,741	113,008
275,268	3,928	218,535	112,751
276,282	3,854	218,321	112,575
277,297	3,895	218,184	112,526
278,312	3,855	218,101	112,443
279,326	4,011	217,990	112,490
280,341	3,910	217,949	112,385
281,355	4,098	217,744	112,406
282,370	3,987	217,607	112,245
283,384	3,722	217,503	111,988
284,399	3,833	217,303	111,956
285,414	4,127	216,994	112,001
286,428	4,122	217,027	112,003
287,443	4,226	216,949	112,029
288,457	4,164	216,836	111,915
289,472	4,066	216,536	111,680
290,487	3,773	216,395	111,385
291,501	3,336	216,330	111,024
292,516	3,791	215,942	111,145
293,530	3,957	215,879	111,223
294,545	3,673	215,788	110,960
295,560	3,991	215,746	111,158
296,574	4,048	215,597	111,113
297,589	4,086	215,423	111,041
298,603	4,085	215,510	111,075
299,618	4,295	215,124	111,017
300,633	4,131	215,080	110,866
301,647	4,454	215,136	111,118
302,662	4,618	214,904	111,106
303,676	4,515	214,748	110,942
304,691	4,384	214,685	110,805
305,706	4,344	214,543	110,693
306,720	4,334	214,338	110,570
307,735	4,016	214,281	110,304
308,749	4,046	214,050	110,196
309,764	4,345	214,001	110,374
310,779	4,127	213,908	110,161
311,793	4,166	213,587	110,014
312,808	4,464	213,408	110,124
313,822	4,270	213,241	109,890
314,837	3,911	213,181	109,594
315,852	3,684	213,177	109,420
316,866	4,025	213,004	109,564
317,881	4,254	212,906	109,667
318,895	4,378	212,765	109,673
319,910	4,086	212,473	109,306
320,925	4,052	212,276	109,170
321,939	3,633	212,016	108,730
322,954	3,681	212,032	108,763
323,968	4,003	212,092	109,012
324,983	4,414	211,809	109,147
325,997	4,287	211,789	109,037
327,012	4,351	211,504	108,926
328,027	4,157	211,548	108,802
329,041	4,544	211,405	108,992
330,056	4,600	211,410	109,024
331,070	4,329	211,080	108,654
332,085	3,770	210,788	108,100
333,100	4,134	210,701	108,302
334,114	4,196	210,629	108,299
335,129	4,089	210,368	108,080
336,143	3,942	210,186	107,874
337,158	3,753	210,275	107,776
338,173	3,948	209,982	107,754
339,187	3,882	209,821	107,615
340,202	3,871	209,740	107,556
341,216	3,730	209,657	107,405
342,231	3,727	209,605	107,368
343,246	3,633	209,439	107,207
344,260	3,906	209,306	107,320
345,275	3,901	209,135	107,220
346,289	4,091	209,059	107,303
347,304	4,119	208,958	107,261
348,319	4,181	208,703	107,164
349,333	3,982	208,669	106,999
350,348	4,261	208,413	107,052
351,362	4,424	208,314	107,104
352,377	4,336	208,310	107,032
353,392	3,967	208,132	106,675
354,406	3,886	208,020	106,551
355,421	193,958	1344,970	1434,040
356,435	154,749	1483,605	1434,168
