DTS Sentinel unit serial number:	SN410029Multiplexer serial number:	ORYXHardware model number:	OX2-SRSoftware version number:	ORYX F/W v4,00 Oryx Data Collector v3.7.2.0data status	okinstallation	B6 Nyhavnadifferential loss correction	single-endedforward channel	channel 2reverse channel	N/Adate	2023/12/09time	21:20:08forward acquisition time	300,00reverse acquisition time	0,00gamma	499,1914k internal	0,3128k external	0,3128temperature offset calibration	1,0000default loss term (dB/km)	0,3820temperature slope calibration	1,0000multiplexer offset coefficient	1,0000multiplexer slope coefficient	1,0000fibre end	0,00T internal ref (°C)	21,52T ext. ref 1 (°C)	5,41T ext. ref 2 (°C)	5,40length (m)	temperature (°C)	Stokes	anti-Stokes-744,400	209,811	0,012	-0,014
-743,385	61,146	-0,213	0,157
-742,371	-200,000	0,001	-0,083
-741,356	-58,564	-0,267	0,086
-740,342	-44,876	0,132	-0,049
-739,327	0,453	-0,260	0,138
-738,312	57,163	0,063	-0,045
-737,298	-93,179	-0,195	0,040
-736,283	-68,383	0,091	0,026
-735,269	-36,538	-0,134	0,053
-734,254	-200,000	0,024	0,171
-733,239	-96,742	-0,460	-0,089
-732,225	-195,533	0,169	-0,001
-731,210	462,357	0,105	0,175
-730,196	18,833	-0,134	0,080
-729,181	13,011	-0,021	0,012
-728,167	-156,773	-0,025	-0,001
-727,152	-200,000	-0,015	0,088
-726,137	233,985	0,082	-0,100
-725,123	31,928	-0,151	-0,096
-724,108	440,058	-0,101	-0,165
-723,094	-200,000	0,021	-0,070
-722,079	38,574	-0,123	-0,081
-721,064	800,000	0,024	0,059
-720,050	800,000	0,025	-0,070
-719,035	-200,000	-0,001	-0,130
-718,021	27,953	-0,152	-0,095
-717,006	33,628	-0,092	-0,059
-715,991	-200,000	0,029	-0,105
-714,977	-21,924	-0,059	0,027
-713,962	155,352	-0,110	0,113
-712,948	130,044	-0,040	-0,038
-711,933	-52,583	-0,119	0,041
-710,918	21,132	0,021	-0,012
-709,904	127,523	0,073	-0,068
-708,889	254,730	-0,041	0,052
-707,875	-122,493	-0,083	-0,010
-706,860	487,498	0,054	-0,092
-705,845	-134,213	-0,022	0,002
-704,831	-156,907	-0,042	-0,002
-703,816	137,412	0,010	-0,009
-702,802	800,000	-0,040	-0,097
-701,787	556,273	-0,076	-0,137
-700,772	269,994	-0,062	0,081
-699,758	-152,837	0,106	0,005
-698,743	-200,000	0,001	0,019
-697,729	-200,000	-0,012	-0,163
-696,714	-75,576	-0,096	-0,025
-695,699	-84,950	0,048	-0,011
-694,685	-200,000	-0,019	0,082
-693,670	277,792	-0,052	-0,069
-692,656	-200,000	-0,007	0,026
-691,641	265,658	-0,020	0,026
-690,627	548,828	-0,043	0,076
-689,612	11,077	-0,109	0,062
-688,597	-22,574	-0,062	-0,028
-687,583	110,755	-0,077	0,068
-686,568	-137,094	-0,062	0,005
-685,554	-129,546	-0,019	-0,002
-684,539	800,000	-0,036	-0,087
-683,524	158,414	0,026	-0,027
-682,510	-14,149	-0,068	0,032
-681,495	187,786	-0,037	-0,041
-680,481	-112,188	0,036	0,005
-679,466	271,992	0,028	0,037
-678,451	-160,704	-0,060	0,002
-677,437	31,403	0,089	0,056
-676,422	256,540	-0,055	0,070
-675,408	-91,498	-0,037	-0,008
-674,393	62,242	0,044	-0,033
-673,378	-200,000	-0,018	-0,075
-672,364	306,183	0,009	-0,012
-671,349	-200,000	-0,023	0,093
-670,335	-200,000	-0,003	0,211
-669,320	800,000	0,008	0,024
-668,305	-64,919	-0,111	-0,033
-667,291	-200,000	-0,003	-0,049
-666,276	-200,000	0,018	-0,066
-665,262	119,838	-0,076	-0,069
-664,247	651,830	-0,057	-0,109
-663,232	-200,000	-0,019	0,065
-662,218	343,264	0,038	0,055
-661,203	-200,000	0,009	-0,077
-660,189	-91,066	-0,022	0,005
-659,174	-110,104	0,034	0,005
-658,159	-22,467	-0,114	-0,051
-657,145	-200,000	0,002	0,032
-656,130	230,275	-0,075	-0,091
-655,116	-105,958	0,172	-0,028
-654,101	342,961	-0,084	0,123
-653,086	353,326	-0,064	-0,095
-652,072	-114,205	-0,017	0,002
-651,057	168,118	0,027	0,028
-650,043	266,891	-0,065	-0,084
-649,028	-90,448	-0,146	-0,031
-648,014	323,692	0,079	0,113
-646,999	-174,986	0,028	-0,001
-645,984	-200,000	-0,033	0,147
-644,970	-200,000	0,001	-0,051
-643,955	141,515	-0,039	0,038
-642,941	-172,055	-0,077	0,002
-641,926	-107,420	-0,169	-0,027
-640,911	-200,000	-0,004	0,057
-639,897	-100,876	-0,066	0,012
-638,882	800,000	-0,037	-0,106
-637,868	-30,732	-0,053	-0,022
-636,853	-108,871	0,095	-0,015
-635,838	-51,471	-0,062	-0,021
-634,824	-126,991	-0,154	0,017
-633,809	-145,049	-0,069	-0,005
-632,795	-26,843	-0,101	0,044
-631,780	-64,447	0,062	0,019
-630,765	800,000	0,044	0,120
-629,751	-200,000	-0,014	-0,086
-628,736	270,028	0,022	-0,028
-627,722	-200,000	-0,008	0,073
-626,707	-7,008	-0,128	-0,064
-625,692	-200,000	0,003	0,107
-624,678	-171,316	-0,157	-0,004
-623,663	-124,005	-0,219	-0,025
-622,649	37,226	0,085	-0,055
-621,634	221,041	0,043	0,051
-620,619	800,000	-0,038	-0,106
-619,605	526,308	0,041	-0,072
-618,590	142,976	0,067	0,066
-617,576	-200,000	-0,001	0,089
-616,561	277,375	0,068	-0,090
-615,546	27,503	-0,077	-0,048
-614,532	46,359	-0,094	-0,065
-613,517	800,000	0,020	-0,048
-612,503	800,000	0,040	0,109
-611,488	800,000	0,076	0,207
-610,474	21,189	-0,087	0,052
-609,459	32,840	-0,051	0,032
-608,444	-87,082	-0,018	0,004
-607,430	-200,000	0,015	-0,076
-606,415	151,842	-0,033	-0,033
-605,401	-200,000	0,010	-0,115
-604,386	185,781	-0,106	-0,117
-603,371	-62,274	0,123	0,038
-602,357	-162,713	0,078	0,003
-601,342	158,492	0,040	-0,041
-600,328	-105,820	-0,134	0,022
-599,313	173,736	0,133	-0,142
-598,298	-61,337	0,030	-0,009
-597,284	-65,709	-0,065	-0,019
-596,269	87,648	0,067	-0,055
-595,255	496,522	-0,028	-0,049
-594,240	-56,944	-0,127	-0,041
-593,225	-25,427	-0,100	-0,044
-592,211	-200,000	-0,013	-0,130
-591,196	234,440	0,023	0,028
-590,182	150,436	0,051	-0,052
-589,167	-200,000	0,023	0,111
-588,152	-13,674	0,069	0,033
-587,138	-83,025	-0,093	-0,022
-586,123	-200,000	-0,007	-0,108
-585,109	0,374	0,109	-0,057
-584,094	800,000	-0,056	-0,137
-583,079	-200,000	0,032	0,116
-582,065	-115,480	0,119	-0,016
-581,050	800,000	0,030	0,071
-580,036	-87,969	-0,193	-0,042
-579,021	578,019	-0,042	-0,077
-578,006	117,377	-0,033	-0,030
-576,992	77,659	0,071	-0,056
-575,977	48,809	-0,049	-0,034
-574,963	-4,605	-0,032	0,016
-573,948	35,050	-0,053	-0,034
-572,934	-51,321	0,071	0,024
-571,919	800,000	-0,021	-0,051
-570,904	-109,106	0,026	0,004
-569,890	24,212	-0,067	-0,041
-568,875	372,214	0,004	0,006
-567,861	800,000	-0,023	0,052
-566,846	-73,501	0,119	-0,032
-565,831	-200,000	0,019	0,101
-564,817	800,000	0,043	-0,099
-563,802	-78,976	-0,195	-0,049
-562,788	800,000	-0,003	-0,006
-561,773	-200,000	-0,006	0,059
-560,758	94,205	0,039	-0,033
-559,744	-36,995	0,094	0,037
-558,729	716,426	0,026	0,052
-557,715	332,567	-0,050	0,072
-556,700	132,097	-0,085	-0,081
-555,685	-150,239	-0,044	0,002
-554,671	36,465	-0,072	-0,047
-553,656	-69,143	0,104	0,029
-552,642	-92,663	0,023	-0,005
-551,627	79,593	-0,007	0,006
-550,612	-200,000	0,008	0,145
-549,598	-200,000	-0,003	0,069
-548,583	-200,000	0,003	-0,011
-547,569	470,245	-0,033	0,055
-546,554	57,242	-0,031	-0,022
-545,539	196,140	0,015	-0,017
-544,525	173,265	0,090	0,096
-543,510	-139,970	-0,080	0,006
-542,496	16,385	0,073	-0,042
-541,481	226,508	-0,090	-0,108
-540,466	201,936	0,082	-0,093
-539,452	-200,000	-0,032	0,120
-538,437	-200,000	0,013	0,054
-537,423	35,054	0,065	-0,042
-536,408	-3,044	0,063	-0,032
-535,393	82,134	-0,068	0,054
-534,379	-66,707	-0,063	-0,018
-533,364	-47,912	0,037	0,013
-532,350	361,023	0,067	0,100
-531,335	36,831	-0,141	0,092
-530,321	308,561	0,077	0,107
-529,306	-5,283	-0,109	0,055
-528,291	261,105	-0,107	-0,137
-527,277	800,000	0,029	-0,082
-526,262	-3,922	-0,077	-0,039
-525,248	-131,496	0,046	-0,004
-524,233	-6,263	-0,035	0,018
-523,218	-124,212	-0,140	-0,016
-522,204	800,000	-0,004	-0,011
-521,189	-108,151	0,167	-0,026
-520,175	-200,000	-0,012	0,097
-519,160	-200,000	0,010	0,076
-518,145	800,000	-0,010	-0,031
-517,131	23,977	-0,060	-0,036
-516,116	-41,843	0,074	0,028
-515,102	649,399	0,055	-0,105
-514,087	-36,416	-0,136	0,054
-513,072	800,000	0,085	-0,180
-512,058	-111,555	-0,067	0,010
-511,043	-200,000	0,025	0,125
-510,029	141,036	-0,033	0,032
-509,014	-200,000	-0,054	-0,222
-507,999	27,942	-0,156	-0,097
-506,985	-52,614	-0,052	-0,018
-505,970	710,519	0,037	-0,072
-504,956	108,263	-0,033	-0,029
-503,941	-196,304	-0,147	0,001
-502,926	800,000	-0,009	0,023
-501,912	-200,000	0,023	-0,111
-500,897	-200,000	-0,019	0,116
-499,883	685,753	0,040	0,077
-498,868	-200,000	0,025	-0,117
-497,853	281,036	-0,060	0,079
-496,839	-43,829	-0,103	0,038
-495,824	-96,517	-0,131	0,025
-494,810	584,479	0,042	-0,076
-493,795	213,664	-0,117	0,137
-492,781	-200,000	-0,025	0,144
-491,766	385,178	-0,045	-0,069
-490,751	800,000	-0,087	-0,182
-489,737	25,126	-0,019	0,012
-488,722	754,174	0,085	0,170
-487,708	-19,970	0,098	0,045
-486,693	-12,876	0,096	0,046
-485,678	130,702	0,020	0,019
-484,664	-200,000	0,002	-0,038
-483,649	-120,324	-0,125	-0,015
-482,635	190,266	-0,071	-0,079
-481,620	-200,000	0,012	-0,069
-480,605	-33,252	-0,075	-0,030
-479,591	800,000	0,051	0,137
-478,576	800,000	-0,013	-0,037
-477,562	2,982	-0,091	-0,049
-476,547	-77,263	-0,059	0,015
-475,532	-60,761	0,119	0,037
-474,518	800,000	0,060	0,123
-473,503	800,000	-0,009	0,029
-472,489	800,000	-0,018	-0,057
-471,474	-200,000	0,027	0,141
-470,459	626,289	0,025	-0,047
-469,445	800,000	-0,028	-0,063
-468,430	-88,635	0,162	-0,035
-467,416	-97,910	-0,103	0,019
-466,401	-200,000	-0,006	-0,026
-465,386	-200,000	0,019	0,074
-464,372	81,683	-0,032	-0,026
-463,357	-118,349	-0,067	0,009
-462,343	271,781	-0,032	0,041
-461,328	44,564	-0,123	0,083
-460,313	252,721	0,049	-0,062
-459,299	236,847	-0,006	-0,007
-458,284	667,744	0,088	0,168
-457,270	800,000	-0,009	-0,028
-456,255	-39,830	0,117	0,045
-455,241	800,000	0,022	0,051
-454,226	431,485	-0,065	0,103
-453,211	800,000	0,022	0,054
-452,197	-40,469	0,057	-0,022
-451,182	-34,959	0,029	0,012
-450,168	-200,000	0,030	0,098
-449,153	-70,216	0,027	0,008
-448,138	379,387	0,020	-0,030
-447,124	-200,000	-0,002	-0,029
-446,109	40,443	0,035	0,023
-445,095	-200,000	-0,040	-0,182
-444,080	-200,000	-0,013	0,043
-443,065	158,788	0,051	0,052
-442,051	69,855	0,127	0,096
-441,036	-48,725	0,056	-0,020
-440,022	49,716	-0,023	-0,016
-439,007	-84,466	0,031	0,007
-437,992	-200,000	0,044	0,164
-436,978	92,060	0,006	0,005
-435,963	269,256	0,051	0,067
-434,949	-29,804	-0,194	-0,081
-433,934	604,599	0,084	-0,155
-432,919	99,452	0,041	0,035
-431,905	800,000	0,025	0,063
-430,890	-200,000	-0,013	0,134
-429,876	-200,000	-0,035	0,174
-428,861	800,000	-0,067	0,178
-427,846	-200,000	0,006	-0,116
-426,832	25,141	0,103	-0,063
-425,817	-15,929	-0,056	0,026
-424,803	372,783	-0,018	-0,026
-423,788	-200,000	-0,026	0,167
-422,773	232,033	0,081	-0,098
-421,759	-77,786	0,105	0,026
-420,744	-200,000	0,007	-0,068
-419,730	-150,266	0,130	-0,007
-418,715	-96,777	-0,085	0,016
-417,701	-200,000	0,037	-0,152
-416,686	10,500	-0,090	-0,050
-415,671	-10,579	-0,077	0,037
-414,657	800,000	-0,023	-0,055
-413,642	370,055	0,075	-0,112
-412,628	222,629	0,003	-0,004
-411,613	-200,000	-0,014	-0,122
-410,598	562,303	0,063	-0,112
-409,584	2,613	0,133	-0,071
-408,569	-56,844	0,101	0,033
-407,555	-37,610	-0,085	0,033
-406,540	132,198	0,035	0,033
-405,525	411,062	-0,056	0,087
-404,511	-44,491	-0,092	0,034
-403,496	241,512	0,027	0,034
-402,482	800,000	0,012	-0,029
-401,467	-117,705	0,116	0,015
-400,452	124,718	-0,046	0,043
-399,438	-88,160	-0,115	0,025
-398,423	-117,332	-0,171	-0,022
-397,409	800,000	-0,019	-0,041
-396,394	122,930	-0,069	0,063
-395,379	-127,420	0,058	0,006
-394,365	45,131	0,045	-0,030
-393,350	800,000	0,026	0,067
-392,336	-200,000	-0,015	-0,084
-391,321	-200,000	-0,022	-0,093
-390,306	193,203	0,106	0,118
-389,292	-99,744	0,067	0,012
-388,277	166,051	0,071	-0,074
-387,263	-123,566	0,097	-0,011
-386,248	-200,000	0,006	-0,144
-385,233	-60,172	0,120	0,037
-384,219	60,591	0,048	0,035
-383,204	-200,000	0,003	0,015
-382,190	129,833	-0,042	-0,039
-381,175	84,908	0,119	-0,096
-380,160	-122,498	-0,039	-0,005
-379,146	-200,000	-0,017	0,061
-378,131	41,140	0,140	-0,093
-377,117	-4,801	-0,066	0,033
-376,102	0,805	-0,046	0,024
-375,088	84,508	-0,175	0,140
-374,073	-151,207	0,125	0,007
-373,058	-73,245	0,075	0,020
-372,044	-200,000	-0,016	-0,087
-371,029	7,569	0,050	-0,027
-370,015	74,186	0,019	-0,014
-369,000	-200,000	-0,026	-0,102
-367,985	156,431	-0,060	-0,061
-366,971	-58,842	0,055	0,017
-365,956	28,623	0,122	0,076
-364,942	-106,870	0,123	0,020
-363,927	-200,000	-0,041	-0,147
-362,912	102,479	-0,044	0,037
-361,898	639,566	0,035	0,066
-360,883	800,000	-0,033	-0,071
-359,869	28,501	-0,026	0,016
-358,854	58,864	0,154	0,111
-357,839	-200,000	-0,000	-0,037
-356,825	102,961	-0,082	0,070
-355,810	-189,337	-0,082	-0,001
-354,796	353,646	-0,022	0,032
-353,781	50,888	-0,027	-0,019
-352,766	336,145	-0,105	0,149
-351,752	-115,295	0,061	0,008
-350,737	-47,310	-0,063	0,022
-349,723	-58,727	0,085	-0,027
-348,708	-62,594	0,114	0,035
-347,693	-200,000	-0,010	0,129
-346,679	139,520	-0,068	-0,066
-345,664	800,000	0,025	0,072
-344,650	800,000	-0,021	0,043
-343,635	382,313	0,042	0,064
-342,620	-115,299	0,182	-0,025
-341,606	800,000	0,024	-0,078
-340,591	14,921	0,036	-0,021
-339,577	-103,281	-0,149	0,026
-338,562	-200,000	-0,028	-0,260
-337,548	86,940	0,064	-0,052
-336,533	457,188	0,040	-0,066
-335,518	800,000	0,048	-0,134
-334,504	370,581	0,014	0,021
-333,489	77,297	-0,086	-0,067
-332,475	-200,000	-0,006	-0,032
-331,460	-100,305	0,105	0,019
-330,445	-200,000	-0,017	-0,139
-329,431	-134,049	0,042	0,004
-328,416	-200,000	-0,016	0,120
-327,402	270,954	0,025	0,032
-326,387	800,000	-0,052	0,112
-325,372	-176,501	0,090	-0,002
-324,358	-58,148	-0,091	0,029
-323,343	-23,519	-0,062	0,027
-322,329	-200,000	-0,057	0,267
-321,314	-93,563	-0,046	0,009
-320,299	631,436	-0,033	0,061
-319,285	800,000	-0,061	0,131
-318,270	144,912	-0,029	0,028
-317,256	202,121	0,028	-0,032
-316,241	760,442	0,039	-0,078
-315,226	-200,000	-0,005	-0,138
-314,212	800,000	-0,035	-0,094
-313,197	78,087	0,111	-0,087
-312,183	-111,803	0,129	-0,019
-311,168	-200,000	-0,016	-0,119
-310,153	14,569	-0,012	0,007
-309,139	-200,000	0,001	-0,008
-308,124	800,000	-0,018	0,052
-307,110	137,834	0,114	0,109
-306,095	800,000	-0,030	-0,070
-305,080	-78,053	-0,107	-0,027
-304,066	35,935	0,091	0,059
-303,051	36,672	-0,060	0,039
-302,037	-35,885	0,061	0,024
-301,022	800,000	0,044	-0,108
-300,008	-86,930	-0,028	0,006
-298,993	-200,000	0,006	0,050
-297,978	-151,644	-0,132	0,007
-296,964	-76,347	-0,050	-0,013
-295,949	-200,000	-0,023	-0,074
-294,935	-200,000	0,007	-0,109
-293,920	316,708	0,019	-0,026
-292,905	-28,618	0,162	-0,068
-291,891	145,640	-0,036	0,035
-290,876	-25,497	-0,083	0,035
-289,862	164,193	0,026	-0,027
-288,847	800,000	-0,054	-0,122
-287,832	-12,567	0,051	0,024
-286,818	-200,000	-0,003	-0,055
-285,803	-118,419	0,093	0,012
-284,789	41,352	0,137	-0,090
-283,774	800,000	0,018	-0,050
-282,759	-37,555	0,142	0,055
-281,745	129,562	0,063	0,059
-280,730	-90,503	-0,020	0,004
-279,716	-78,911	-0,029	-0,007
-278,701	-88,779	0,083	0,018
-277,686	210,718	-0,077	0,089
-276,672	257,800	0,067	0,085
-275,657	112,711	-0,113	0,100
-274,643	784,904	0,061	-0,123
-273,628	-200,000	0,013	-0,160
-272,613	255,345	-0,113	0,142
-271,599	800,000	0,070	-0,170
-270,584	98,254	0,021	0,017
-269,570	-36,383	0,120	0,047
-268,555	21,174	-0,025	-0,015
-267,540	-200,000	-0,026	-0,103
-266,526	275,497	-0,046	0,059
-265,511	241,438	-0,089	-0,109
-264,497	-23,470	0,050	0,022
-263,482	28,019	-0,055	0,034
-262,467	-200,000	-0,001	-0,044
-261,453	117,388	0,040	0,036
-260,438	82,399	-0,116	-0,092
-259,424	-52,797	-0,147	-0,049
-258,409	-161,476	0,033	-0,001
-257,395	161,799	-0,037	-0,038
-256,380	-22,566	0,106	0,047
-255,365	-93,230	0,093	0,019
-254,351	361,133	-0,022	-0,033
-253,336	23,558	-0,054	-0,032
-252,322	18,326	0,080	0,047
-251,307	800,000	-0,054	0,129
-250,292	245,667	0,105	0,129
-249,278	127,635	0,012	0,011
-248,263	-56,601	-0,021	0,007
-247,249	-200,000	-0,018	-0,074
-246,234	490,842	0,025	0,042
-245,219	21,164	-0,042	-0,025
-244,205	-27,934	0,077	-0,033
-243,190	142,264	-0,045	-0,044
-242,176	512,604	-0,041	0,071
-241,161	-11,627	0,093	-0,044
-240,146	-200,000	0,003	-0,036
-239,132	11,206	0,062	0,035
-238,117	-200,000	-0,034	0,113
-237,103	-200,000	-0,028	-0,138
-236,088	-93,975	0,021	-0,004
-235,073	-35,230	0,040	0,016
-234,059	111,963	0,130	-0,114
-233,044	-200,000	-0,008	-0,031
-232,030	26,508	0,018	0,011
-231,015	123,525	0,032	0,029
-230,000	-20,097	0,027	-0,012
-228,986	800,000	0,059	0,140
-227,971	-200,000	-0,046	0,166
-226,957	396,063	0,075	0,114
-225,942	-60,557	-0,114	0,035
-224,927	-41,173	-0,037	-0,014
-223,913	800,000	0,027	-0,081
-222,898	82,614	-0,120	-0,095
-221,884	57,709	-0,074	-0,053
-220,869	479,608	0,060	-0,100
-219,855	-200,000	-0,005	0,054
-218,840	800,000	-0,036	0,083
-217,825	-82,796	-0,063	-0,015
-216,811	-95,196	-0,057	-0,011
-215,796	291,061	0,015	0,020
-214,782	112,622	0,056	0,050
-213,767	-200,000	-0,002	-0,027
-212,752	-2,660	0,037	-0,019
-211,738	97,967	0,118	0,099
-210,723	-47,352	0,058	0,020
-209,709	-64,647	0,078	-0,023
-208,694	76,608	0,114	-0,088
-207,679	203,343	0,132	-0,149
-206,665	-49,718	-0,075	-0,026
-205,650	-200,000	-0,027	0,141
-204,636	-200,000	0,035	0,153
-203,621	-26,470	0,050	-0,021
-202,606	800,000	0,055	-0,140
-201,592	800,000	0,026	-0,054
-200,577	800,000	-0,035	-0,094
-199,563	-200,000	0,019	0,090
-198,548	-44,175	-0,150	-0,055
-197,533	20,143	-0,033	0,020
-196,519	446,876	-0,090	-0,144
-195,504	61,542	0,073	-0,053
-194,490	-200,000	0,000	-0,080
-193,475	-200,000	0,008	-0,026
-192,460	-166,059	0,031	0,001
-191,446	-154,243	-0,066	0,003
-190,431	50,781	0,061	0,042
-189,417	568,772	-0,032	-0,058
-188,402	79,428	0,066	0,051
-187,387	-123,368	-0,095	0,011
-186,373	735,571	0,057	0,111
-185,358	132,538	0,022	0,021
-184,344	-200,000	0,042	0,193
-183,329	284,127	0,073	-0,096
-182,315	-95,384	-0,028	-0,005
-181,300	388,989	-0,043	0,066
-180,285	-176,708	-0,088	0,002
-179,271	249,352	0,059	0,073
-178,256	800,000	-0,005	0,015
-177,242	800,000	0,036	0,108
-176,227	-67,818	-0,063	0,018
-175,212	800,000	-0,028	0,085
-174,198	-61,874	-0,018	0,005
-173,183	414,435	-0,061	-0,095
-172,169	-79,368	0,135	-0,033
-171,154	-185,361	-0,056	0,001
-170,139	800,000	0,028	0,065
-169,125	1,980	0,063	0,033
-168,110	-6,280	0,078	0,039
-167,096	-200,000	0,021	0,146
-166,081	-92,252	0,093	0,019
-165,066	800,000	-0,025	-0,057
-164,052	-18,253	-0,097	0,044
-163,037	-200,000	0,001	0,009
-162,023	-200,000	0,012	0,048
-161,008	-200,000	0,017	-0,111
-159,993	-92,830	0,091	0,018
-158,979	-200,000	-0,003	0,060
-157,964	-70,062	0,065	-0,018
-156,950	-200,000	-0,025	-0,230
-155,935	800,000	-0,025	0,066
-154,920	38,570	-0,154	-0,100
-153,906	15,843	0,136	0,078
-152,891	267,330	-0,121	0,155
-151,877	-200,000	0,007	0,056
-150,862	-10,512	-0,094	0,045
-149,847	800,000	0,027	0,070
-148,833	785,074	0,056	0,111
-147,818	-1,627	0,065	-0,033
-146,804	-123,529	0,074	-0,008
-145,789	44,158	0,067	-0,044
-144,775	800,000	-0,013	-0,029
-143,760	94,100	0,066	-0,054
-142,745	800,000	0,037	-0,112
-141,731	-200,000	-0,035	-0,139
-140,716	7,751	0,135	0,073
-139,702	-200,000	0,012	0,043
-138,687	-200,000	0,007	0,027
-137,672	800,000	-0,062	-0,152
-136,658	-39,151	-0,059	-0,022
-135,643	190,977	-0,095	-0,104
-134,629	800,000	0,017	-0,046
-133,614	-10,467	0,121	-0,058
-132,599	-200,000	0,011	-0,061
-131,585	192,599	0,062	0,069
-130,570	-95,338	0,093	-0,018
-129,556	-110,803	-0,068	0,010
-128,541	-200,000	-0,009	0,076
-127,526	-200,000	0,006	-0,063
-126,512	800,000	0,061	-0,142
-125,497	800,000	0,014	-0,033
-124,483	-116,484	-0,149	0,020
-123,468	-192,532	-0,045	0,000
-122,453	800,000	0,024	-0,060
-121,439	79,097	0,110	-0,085
-120,424	13,304	-0,079	-0,044
-119,410	45,270	0,109	-0,073
-118,395	191,225	-0,040	-0,044
-117,380	22,695	0,102	0,061
-116,366	174,820	0,088	0,093
-115,351	76,615	-0,024	-0,018
-114,337	164,460	-0,090	0,092
-113,322	-200,000	0,040	0,134
-112,307	-22,063	-0,109	-0,048
-111,293	800,000	-0,024	-0,065
-110,278	800,000	0,057	0,138
-109,264	-27,964	-0,054	0,022
-108,249	30,633	0,124	-0,077
-107,234	414,871	0,031	0,047
-106,220	436,815	0,115	-0,183
-105,205	-200,000	-0,014	-0,153
-104,191	-200,000	0,003	-0,161
-103,176	171,618	-0,037	-0,039
-102,162	-200,000	-0,006	0,023
-101,147	-200,000	-0,003	-0,126
-100,132	63,087	-0,097	0,070
-99,118	-6,780	0,081	-0,040
-98,103	-200,000	0,028	-0,095
-97,089	800,000	-0,041	-0,086
-96,074	158,109	-0,025	0,025
-95,059	339,742	0,016	0,023
-94,045	-200,000	-0,020	0,153
-93,030	-65,528	0,086	-0,025
-92,016	800,000	0,018	-0,056
-91,001	-200,000	0,001	-0,067
-89,986	-133,178	-0,087	-0,008
-88,972	-200,000	0,012	0,099
-87,957	8,177	0,077	0,042
-86,943	-128,626	0,051	-0,005
-85,928	332,991	0,025	0,035
-84,913	800,000	-0,087	-0,192
-83,899	286,953	-0,046	-0,060
-82,884	800,000	0,013	0,028
-81,870	75,345	-0,034	-0,026
-80,855	615,399	0,030	-0,055
-79,840	577,145	0,055	-0,098
-78,826	40,775	-0,028	-0,018
-77,811	18,746	-0,080	0,046
-76,797	-200,000	0,003	-0,119
-75,782	607,676	0,079	-0,144
-74,767	-13,235	-0,075	-0,035
-73,753	127,599	0,122	0,113
-72,738	540,308	0,034	0,059
-71,724	218,891	-0,079	0,092
-70,709	109,546	-0,010	-0,009
-69,694	64,932	0,100	-0,073
-68,680	-122,423	0,082	-0,010
-67,665	-200,000	-0,013	0,116
-66,651	206,914	-0,029	-0,033
-65,636	800,000	0,003	-0,010
-64,622	359,797	-0,023	-0,033
-63,607	-156,897	-0,105	-0,005
-62,592	496,217	-0,072	0,120
-61,578	129,658	-0,078	-0,072
-60,563	-200,000	0,002	-0,023
-59,549	-200,000	0,009	0,134
-58,534	-99,892	-1,435	-0,257
-57,519	530,945	-0,832	-1,431
-56,505	-200,000	-0,827	-4,485
-55,490	-69,782	0,766	-0,210
-54,476	800,000	5,068	11,808
-53,461	-200,000	14,366	254,060
-52,446	800,000	696,665	2228,159
-51,432	564,706	1624,492	2863,811
-50,417	116,680	1630,755	1449,506
-49,403	73,126	1284,257	971,664
-48,388	37,445	1021,985	655,192
-47,373	23,593	980,818	583,326
-46,359	22,779	970,396	574,440
-45,344	21,788	965,997	568,583
-44,330	21,745	964,447	567,507
-43,315	21,596	963,070	566,190
-42,300	21,531	962,239	565,469
-41,286	21,592	961,072	564,957
-40,271	21,526	960,132	564,169
-39,257	21,588	958,924	563,638
-38,242	21,513	958,264	562,985
-37,227	21,519	957,245	562,383
-36,213	21,516	956,205	561,739
-35,198	21,454	955,503	561,104
-34,184	21,521	955,034	561,024
-33,169	21,539	953,911	560,398
-32,154	21,554	953,068	559,930
-31,140	21,553	952,200	559,394
-30,125	21,625	951,437	559,155
-29,111	21,594	950,477	558,469
-28,096	21,556	949,827	557,943
-27,082	21,568	949,229	557,609
-26,067	21,563	948,575	557,188
-25,052	21,534	947,702	556,558
-24,038	21,568	947,085	556,282
-23,023	21,595	946,383	555,935
-22,009	21,619	945,761	555,623
-20,994	21,528	945,186	554,972
-19,979	21,581	944,688	554,830
-18,965	21,561	943,802	554,222
-17,950	21,543	943,249	553,820
-16,936	21,489	942,541	553,210
-15,921	21,515	941,893	552,891
-14,906	21,467	941,153	552,281
-13,892	21,433	940,570	551,808
-12,877	21,409	940,038	551,398
-11,863	21,387	939,381	550,921
-10,848	21,404	938,977	550,716
-9,833	21,555	938,345	550,803
-8,819	21,534	937,765	550,372
-7,804	21,435	937,108	549,653
-6,790	21,407	936,531	549,205
-5,775	21,469	935,990	549,060
-4,760	21,485	935,085	548,558
-3,746	21,430	934,633	548,099
-2,731	21,276	933,887	547,153
-1,717	21,265	933,150	546,665
-0,702	21,262	932,521	546,266
0,313	21,064	931,901	546,106
1,327	24,104	929,988	554,474
2,342	33,442	793,577	497,930
3,356	31,160	450,430	279,166
4,371	0,769	294,237	152,003
5,386	-3,541	275,145	138,046
6,400	-4,862	269,468	133,960
7,415	-5,090	266,981	132,502
8,429	-5,082	265,810	131,916
9,444	-5,015	264,859	131,494
10,459	-4,948	264,225	131,228
11,473	-5,359	263,788	130,626
12,488	-5,198	263,215	130,476
13,502	-5,408	262,611	129,975
14,517	-5,176	262,211	129,975
15,531	-5,199	261,955	129,816
16,546	-5,237	261,490	129,540
17,561	-5,315	261,094	129,262
18,575	-5,274	260,780	129,132
19,590	-5,223	260,314	128,935
20,604	-5,209	260,065	128,813
21,619	-5,239	259,752	128,620
22,634	-5,240	259,365	128,415
23,648	-5,371	259,192	128,202
24,663	-5,424	258,977	128,036
25,677	-5,055	258,678	128,206
26,692	-5,284	258,440	127,873
27,707	-5,473	258,188	127,569
28,721	-5,290	257,874	127,565
29,736	-5,336	257,667	127,410
30,750	-5,475	257,426	127,157
31,765	-5,168	257,109	127,260
32,780	-5,602	256,886	126,755
33,794	-5,235	256,650	126,952
34,809	-5,303	256,597	126,854
35,823	-5,422	256,229	126,555
36,838	-5,453	255,893	126,351
37,853	-5,392	255,606	126,252
38,867	-5,435	255,481	126,141
39,882	-5,335	255,313	126,134
40,896	-5,422	255,095	125,939
41,911	-5,538	254,801	125,681
42,926	-5,423	254,566	125,654
43,940	-5,462	254,278	125,468
44,955	-5,701	254,225	125,221
45,969	-5,377	253,774	125,271
46,984	-5,632	253,699	125,000
47,999	-5,811	253,514	124,742
49,013	-6,054	253,157	124,344
50,028	-6,144	252,849	124,103
51,042	-6,235	252,562	123,872
52,057	-6,042	252,355	123,926
53,071	-6,052	252,215	123,838
54,086	-5,965	252,028	123,811
55,101	-6,073	251,867	123,627
56,115	-5,696	251,788	123,903
57,130	-5,375	251,766	124,159
58,144	-5,119	251,572	124,273
59,159	-5,031	251,241	124,174
60,174	-5,144	251,191	124,041
61,188	-5,207	250,938	123,851
62,203	-5,291	250,625	123,614
63,217	-5,224	250,462	123,580
64,232	-5,204	250,204	123,459
65,247	-5,073	250,020	123,469
66,261	-5,257	249,831	123,207
67,276	-5,382	249,478	122,915
68,290	-5,584	249,280	122,634
69,305	-5,819	249,180	122,373
70,320	-5,564	248,920	122,451
71,334	-5,507	248,787	122,424
72,349	-5,277	248,585	122,509
73,363	-5,110	248,322	122,511
74,378	-5,200	248,216	122,371
75,393	-5,274	247,918	122,151
76,407	-5,177	247,599	122,065
77,422	-5,401	247,690	121,909
78,436	-5,202	247,286	121,868
79,451	-5,268	247,151	121,734
80,466	-5,397	246,944	121,513
81,480	-5,439	246,584	121,289
82,495	-5,492	246,488	121,186
83,509	-5,465	246,310	121,111
84,524	-5,518	246,103	120,954
85,539	-5,598	245,888	120,770
86,553	-5,715	245,785	120,610
87,568	-5,504	245,551	120,662
88,582	-5,626	245,474	120,511
89,597	-5,399	245,220	120,565
90,611	-5,497	245,118	120,423
91,626	-5,372	244,923	120,421
92,641	-5,451	244,785	120,276
93,655	-5,420	244,452	120,127
94,670	-5,255	244,352	120,206
95,684	-5,298	244,041	120,006
96,699	-5,532	243,951	119,756
97,714	-5,498	243,788	119,694
98,728	-5,587	243,503	119,469
99,743	-5,817	243,306	119,170
100,757	-5,528	243,122	119,309
101,772	-5,645	242,904	119,094
102,787	-5,689	242,810	119,001
103,801	-5,535	242,660	119,045
104,816	-5,305	242,473	119,134
105,830	-5,261	242,321	119,085
106,845	-5,184	242,132	119,045
107,860	-5,247	241,890	118,864
108,874	-5,449	241,749	118,617
109,889	-5,470	241,475	118,454
110,903	-5,450	241,184	118,318
111,918	-5,569	241,232	118,232
112,933	-5,499	241,005	118,168
113,947	-5,590	240,960	118,060
114,962	-5,260	240,648	118,168
115,976	-5,175	240,451	118,131
116,991	-5,423	240,360	117,872
118,006	-5,382	240,187	117,811
119,020	-5,310	240,106	117,819
120,035	-5,213	239,935	117,805
121,049	-5,393	239,870	117,615
122,064	-5,321	239,583	117,522
123,079	-5,490	239,487	117,326
124,093	-5,163	239,032	117,360
125,108	-5,550	238,867	116,952
126,122	-5,885	238,760	116,617
127,137	-5,779	238,467	116,550
128,151	-5,613	238,348	116,616
129,166	-5,446	238,059	116,600
130,181	-5,721	238,043	116,358
131,195	-5,613	237,789	116,311
132,210	-5,591	237,871	116,359
133,224	-5,490	237,501	116,249
134,239	-5,403	237,413	116,266
135,254	-5,158	237,120	116,311
136,268	-5,386	236,915	116,016
137,283	-5,671	236,784	115,711
138,297	-5,678	236,419	115,517
139,312	-5,883	236,349	115,307
140,327	-5,632	236,418	115,533
141,341	-5,066	236,341	115,941
142,356	-5,056	236,059	115,800
143,370	-5,277	236,001	115,583
144,385	-5,005	235,956	115,770
145,400	-5,067	235,606	115,538
146,414	-5,027	235,385	115,451
147,429	-5,084	235,260	115,334
148,443	-5,281	235,081	115,078
149,458	-5,189	234,876	115,041
150,473	-5,043	234,736	115,079
151,487	-5,068	234,583	114,974
152,502	-5,009	234,406	114,924
153,516	-5,103	234,211	114,743
154,531	-5,089	234,030	114,656
155,546	-5,088	233,893	114,579
156,560	-5,248	233,781	114,387
157,575	-5,162	233,631	114,372
158,589	-5,076	233,315	114,275
159,604	-4,822	233,205	114,412
160,619	-5,075	233,161	114,180
161,633	-4,980	233,025	114,178
162,648	-5,037	232,950	114,086
163,662	-5,108	232,623	113,860
164,677	-5,063	232,398	113,775
165,692	-5,140	232,282	113,647
166,706	-5,111	232,131	113,586
167,721	-4,907	232,004	113,675
168,735	-4,912	231,902	113,611
169,750	-5,000	231,735	113,449
170,764	-5,038	231,525	113,307
171,779	-5,058	231,424	113,231
172,794	-5,145	231,319	113,102
173,808	-5,144	231,067	112,969
174,823	-5,473	230,833	112,587
175,837	-5,473	230,506	112,417
176,852	-5,322	230,575	112,559
177,867	-4,815	230,360	112,841
178,881	-4,874	230,187	112,700
179,896	-4,918	230,233	112,678
180,910	-4,961	229,994	112,517
181,925	-5,086	229,902	112,364
182,940	-4,732	229,639	112,502
183,954	-4,827	229,560	112,380
184,969	-4,936	229,399	112,206
185,983	-4,942	229,416	112,199
186,998	-5,089	229,223	111,980
188,013	-4,864	229,007	112,040
189,027	-4,847	228,765	111,924
190,042	-4,770	228,588	111,888
191,056	-4,663	228,429	111,883
192,071	-4,661	228,322	111,822
193,086	-4,820	228,158	111,608
194,100	-4,961	228,083	111,453
195,115	-5,151	227,736	111,127
196,129	-5,246	227,417	110,888
197,144	-2,215	228,554	113,779
198,159	1,546	229,798	117,311
199,173	3,616	230,206	119,117
200,188	3,905	229,961	119,203
201,202	3,830	229,882	119,094
202,217	4,259	229,717	119,329
203,232	4,112	229,754	119,224
204,246	4,356	229,495	119,268
205,261	4,591	229,356	119,367
206,275	4,816	229,188	119,442
207,290	4,535	229,187	119,214
208,304	4,622	228,921	119,132
209,319	4,574	228,931	119,090
210,334	4,392	228,623	118,779
211,348	4,078	228,372	118,396
212,363	3,901	228,139	118,129
213,377	3,772	227,883	117,888
214,392	3,709	227,826	117,799
215,407	3,737	227,723	117,756
216,421	3,861	227,519	117,736
217,436	3,807	227,229	117,534
218,450	3,708	227,174	117,419
219,465	3,429	226,933	117,071
220,480	3,686	226,831	117,204
221,494	3,291	226,801	116,877
222,509	3,531	226,643	116,968
223,523	3,390	226,453	116,752
224,538	3,469	226,349	116,748
225,553	3,646	226,178	116,784
226,567	3,801	226,019	116,810
227,582	3,885	225,933	116,818
228,596	3,957	225,961	116,877
229,611	3,833	225,674	116,624
230,626	3,395	225,458	116,170
231,640	3,512	225,188	116,109
232,655	4,024	225,106	116,444
233,669	4,305	225,230	116,710
234,684	4,421	224,966	116,651
235,699	4,323	224,784	116,472
236,713	3,982	224,527	116,072
237,728	3,734	224,402	115,810
238,742	3,608	224,178	115,589
239,757	3,591	224,045	115,497
240,772	3,711	223,893	115,499
241,786	3,473	223,799	115,261
242,801	3,969	223,615	115,529
243,815	3,974	223,682	115,556
244,830	4,024	223,622	115,553
245,844	3,912	223,255	115,268
246,859	3,790	223,170	115,123
247,874	3,810	223,102	115,093
248,888	4,012	222,791	115,073
249,903	3,961	222,555	114,903
250,917	3,757	222,429	114,675
251,932	3,824	222,426	114,713
252,947	3,890	222,068	114,568
253,961	3,512	222,070	114,277
254,976	3,563	221,906	114,220
255,990	3,914	221,802	114,418
257,005	3,864	221,760	114,349
258,020	3,695	221,554	114,107
259,034	4,158	221,497	114,412
260,049	3,778	221,342	114,039
261,063	3,933	221,212	114,077
262,078	3,927	220,994	113,950
263,093	4,062	220,828	113,954
264,107	4,210	220,712	113,993
265,122	4,087	220,503	113,784
266,136	4,028	220,546	113,753
267,151	4,004	220,339	113,618
268,166	3,637	220,071	113,199
269,180	3,724	219,657	113,040
270,195	3,759	219,672	113,063
271,209	3,484	219,526	112,776
272,224	3,408	219,434	112,662
273,239	3,932	219,193	112,914
274,253	3,575	219,257	112,674
275,268	3,563	219,013	112,530
276,282	3,677	218,843	112,516
277,297	3,704	218,588	112,395
278,312	3,584	218,613	112,310
279,326	3,506	218,581	112,227
280,341	3,817	218,179	112,237
281,355	3,905	218,171	112,287
282,370	3,699	217,967	112,022
283,384	3,610	217,784	111,854
284,399	3,302	217,733	111,592
285,414	3,338	217,621	111,552
286,428	3,633	217,560	111,725
287,443	4,011	217,318	111,866
288,457	3,925	217,168	111,716
289,472	3,808	216,884	111,475
290,487	3,402	216,826	111,141
291,501	3,374	216,544	110,966
292,516	3,501	216,520	111,035
293,530	3,761	216,311	111,107
294,545	3,508	216,410	110,965
295,560	3,496	216,338	110,909
296,574	3,725	216,126	110,956
297,589	3,371	216,067	110,660
298,603	3,443	215,885	110,609
299,618	3,747	215,835	110,793
300,633	3,864	215,574	110,733
301,647	3,960	215,527	110,768
302,662	4,119	215,417	110,816
303,676	3,950	215,406	110,679
304,691	4,110	215,029	110,590
305,706	3,875	214,971	110,383
306,720	4,018	214,756	110,364
307,735	3,725	214,734	110,134
308,749	3,525	214,437	109,828
309,764	3,783	214,449	110,009
310,779	4,070	214,263	110,109
311,793	4,021	213,949	109,902
312,808	3,826	214,037	109,799
313,822	3,963	213,768	109,749
314,837	3,466	213,742	109,371
315,852	3,581	213,564	109,352
316,866	3,615	213,485	109,326
317,881	4,012	213,224	109,465
318,895	4,046	213,162	109,448
319,910	3,781	212,924	109,128
320,925	3,496	212,721	108,812
321,939	3,222	212,576	108,534
322,954	3,262	212,503	108,515
323,968	3,809	212,543	108,914
324,983	3,888	212,434	108,904
325,997	3,941	212,275	108,850
327,012	4,009	211,996	108,745
328,027	3,856	211,956	108,607
329,041	4,066	211,943	108,739
330,056	4,106	211,806	108,687
331,070	3,711	211,530	108,258
332,085	3,568	211,175	107,966
333,100	3,688	211,185	108,046
334,114	3,829	210,984	108,032
335,129	3,700	210,991	107,935
336,143	3,639	210,715	107,741
337,158	3,565	210,655	107,649
338,173	3,654	210,480	107,613
339,187	3,502	210,462	107,488
340,202	3,343	210,133	107,199
341,216	3,473	209,958	107,190
342,231	3,599	210,000	107,291
343,246	3,523	209,774	107,112
344,260	3,763	209,611	107,187
345,275	3,604	209,492	107,006
346,289	4,022	209,596	107,341
347,304	3,824	209,329	107,057
348,319	3,843	209,063	106,925
349,333	3,755	208,998	106,821
350,348	3,707	209,100	106,830
351,362	3,877	208,920	106,847
352,377	3,851	208,762	106,738
353,392	3,770	208,471	106,524
354,406	3,785	208,506	106,543
355,421	194,390	1343,781	1431,657
356,435	155,137	1482,174	1431,772
