DTS Sentinel unit serial number:	SN410029Multiplexer serial number:	ORYXHardware model number:	OX2-SRSoftware version number:	ORYX F/W v4,00 Oryx Data Collector v3.7.2.0data status	okinstallation	B6 Nyhavnadifferential loss correction	single-endedforward channel	channel 2reverse channel	N/Adate	2023/12/09time	02:15:08forward acquisition time	300,00reverse acquisition time	0,00gamma	499,1914k internal	0,3155k external	0,3155temperature offset calibration	1,0000default loss term (dB/km)	0,3820temperature slope calibration	1,0000multiplexer offset coefficient	1,0000multiplexer slope coefficient	1,0000fibre end	0,00T internal ref (°C)	15,93T ext. ref 1 (°C)	-0,31T ext. ref 2 (°C)	-0,32length (m)	temperature (°C)	Stokes	anti-Stokes-744,400	-142,645	0,048	0,003
-743,385	-135,098	-0,239	0,021
-742,371	-104,874	0,160	0,027
-741,356	-110,801	-0,295	0,044
-740,342	800,000	-0,029	-0,075
-739,327	-131,143	-0,266	-0,026
-738,312	152,324	0,108	-0,108
-737,298	-34,464	-0,347	-0,139
-736,283	800,000	0,037	0,086
-735,269	-26,323	-0,346	0,149
-734,254	-99,172	0,165	0,031
-733,239	-116,621	-0,493	-0,066
-732,225	-135,681	0,262	0,023
-731,210	-200,000	0,016	0,116
-730,196	20,263	-0,123	-0,073
-729,181	251,628	-0,084	-0,105
-728,167	-200,000	-0,000	-0,111
-727,152	800,000	-0,057	0,127
-726,137	-20,927	-0,116	-0,052
-725,123	-26,934	-0,202	-0,087
-724,108	240,175	-0,106	-0,131
-723,094	-43,867	-0,101	0,037
-722,079	800,000	-0,039	-0,096
-721,064	-33,943	-0,080	-0,032
-720,050	800,000	-0,024	0,077
-719,035	305,015	0,112	-0,153
-718,021	-200,000	-0,274	0,000
-717,006	-200,000	-0,001	0,034
-715,991	-132,605	-0,007	0,001
-714,977	-49,116	-0,100	0,035
-713,962	-118,139	-0,107	-0,014
-712,948	152,105	-0,057	-0,057
-711,933	352,673	-0,040	0,058
-710,918	-200,000	-0,006	-0,048
-709,904	-200,000	0,024	-0,143
-708,889	-142,977	-0,050	0,004
-707,875	-118,527	-0,039	-0,005
-706,860	167,045	0,034	0,036
-705,845	800,000	-0,044	-0,138
-704,831	155,227	-0,077	-0,078
-703,816	149,174	0,020	-0,020
-702,802	800,000	-0,036	-0,089
-701,787	84,894	-0,032	0,025
-700,772	205,429	0,042	-0,048
-699,758	800,000	0,011	0,025
-698,743	161,037	0,036	0,037
-697,729	-186,236	-0,060	0,001
-696,714	195,351	0,070	0,078
-695,699	396,336	-0,076	0,117
-694,685	-134,919	-0,104	0,009
-693,670	187,684	0,051	-0,056
-692,656	-200,000	-0,000	-0,023
-691,641	-95,275	0,041	-0,008
-690,627	-21,822	-0,101	0,045
-689,612	-200,000	0,013	0,075
-688,597	-200,000	0,008	-0,178
-687,583	48,757	-0,090	0,062
-686,568	-6,586	0,032	-0,016
-685,554	-73,599	-0,212	-0,056
-684,539	800,000	-0,037	0,097
-683,524	-167,906	-0,058	-0,002
-682,510	102,220	-0,088	-0,076
-681,495	-154,118	-0,133	-0,006
-680,481	-64,965	0,058	-0,017
-679,466	-200,000	0,009	-0,128
-678,451	800,000	-0,032	-0,069
-677,437	-200,000	-0,014	0,057
-676,422	235,692	0,078	-0,095
-675,408	166,796	-0,058	-0,060
-674,393	236,578	0,057	0,070
-673,378	15,424	-0,068	0,039
-672,364	63,468	-0,130	-0,096
-671,349	174,937	-0,058	-0,062
-670,335	-200,000	0,065	-0,241
-669,320	-139,532	-0,077	-0,006
-668,305	174,910	0,023	0,024
-667,291	-63,057	-0,053	-0,016
-666,276	129,839	-0,121	-0,114
-665,262	66,303	0,063	0,047
-664,247	-200,000	-0,009	-0,048
-663,232	800,000	0,012	-0,038
-662,218	104,702	0,088	-0,076
-661,203	217,329	-0,047	-0,055
-660,189	-4,563	-0,072	0,036
-659,174	3,580	0,123	0,066
-658,159	-200,000	-0,020	-0,158
-657,145	282,448	-0,129	-0,171
-656,130	349,117	0,043	0,062
-655,116	-3,043	-0,106	0,054
-654,101	764,295	-0,034	-0,068
-653,086	-200,000	-0,016	-0,061
-652,072	-200,000	0,004	-0,139
-651,057	185,098	0,107	-0,117
-650,043	-41,307	0,043	0,016
-649,028	-50,554	-0,013	0,005
-648,014	201,341	0,023	0,026
-646,999	317,243	0,034	0,048
-645,984	45,451	-0,050	0,034
-644,970	-82,966	-0,083	-0,019
-643,955	-82,462	-0,116	-0,027
-642,941	295,999	0,035	-0,047
-641,926	-86,070	0,007	0,001
-640,911	72,804	-0,005	0,004
-639,897	-89,922	-0,153	0,032
-638,882	-200,000	-0,002	-0,103
-637,868	288,851	0,045	-0,060
-636,853	94,580	-0,173	0,145
-635,838	324,196	-0,038	-0,053
-634,824	231,904	0,048	0,058
-633,809	800,000	0,021	0,050
-632,795	-200,000	0,033	0,253
-631,780	139,717	-0,110	0,106
-630,765	160,582	-0,010	0,011
-629,751	800,000	-0,025	-0,069
-628,736	-78,468	-0,049	-0,012
-627,722	-27,376	0,174	-0,074
-626,707	-166,688	0,059	-0,002
-625,692	-134,476	-0,067	0,006
-624,678	-200,000	-0,011	-0,120
-623,663	86,376	-0,032	-0,026
-622,649	-200,000	-0,011	-0,056
-621,634	-200,000	-0,023	-0,104
-620,619	800,000	0,047	-0,148
-619,605	369,893	-0,057	-0,085
-618,590	-65,385	0,127	0,037
-617,576	80,372	0,040	-0,031
-616,561	-125,417	-0,075	0,008
-615,546	180,070	-0,066	-0,071
-614,532	-200,000	-0,022	-0,134
-613,517	100,615	-0,141	0,120
-612,503	-200,000	-0,006	0,024
-611,488	-200,000	-0,011	-0,102
-610,474	-132,687	-0,112	0,010
-609,459	117,757	-0,060	0,054
-608,444	-200,000	0,023	-0,089
-607,430	-49,383	-0,136	0,047
-606,415	68,390	0,027	0,020
-605,401	-28,965	-0,147	-0,061
-604,386	44,451	-0,023	-0,015
-603,371	553,908	0,080	-0,142
-602,357	-200,000	0,007	0,042
-601,342	-65,857	-0,119	0,035
-600,328	-200,000	-0,011	-0,108
-599,313	61,194	0,052	0,038
-598,298	19,254	0,073	-0,043
-597,284	800,000	-0,036	-0,103
-596,269	639,014	0,039	-0,072
-595,255	41,738	-0,063	-0,042
-594,240	800,000	-0,039	-0,092
-593,225	201,743	-0,021	-0,024
-592,211	96,247	0,096	-0,080
-591,196	69,995	-0,107	-0,081
-590,182	-200,000	0,024	0,103
-589,167	800,000	0,044	0,111
-588,152	48,278	-0,019	0,013
-587,138	-77,606	-0,021	0,005
-586,123	10,012	-0,166	0,092
-585,109	-42,664	-0,049	0,018
-584,094	26,412	-0,119	0,073
-583,079	-23,892	0,140	-0,061
-582,065	391,794	-0,091	-0,140
-581,050	-165,898	0,051	0,002
-580,036	412,736	-0,040	0,062
-579,021	19,191	-0,103	0,061
-578,006	9,107	-0,114	-0,063
-576,992	-200,000	0,025	0,102
-575,977	-200,000	-0,008	-0,170
-574,963	-79,595	0,128	-0,031
-573,948	-63,621	-0,115	-0,034
-572,934	255,907	-0,077	-0,098
-571,919	-28,411	-0,072	-0,030
-570,904	-36,973	0,038	0,015
-569,890	66,152	-0,071	-0,053
-568,875	-200,000	0,014	-0,128
-567,861	-19,618	0,035	-0,016
-566,846	-19,385	0,040	0,018
-565,831	-115,600	0,053	-0,007
-564,817	-175,661	-0,108	-0,002
-563,802	13,581	-0,110	-0,062
-562,788	-73,342	-0,051	-0,014
-561,773	-88,248	0,058	0,013
-560,758	-99,813	0,168	0,031
-559,744	560,366	-0,059	0,105
-558,729	-30,306	-0,099	-0,041
-557,715	214,470	-0,080	0,093
-556,700	800,000	0,038	-0,109
-555,685	-200,000	0,013	-0,122
-554,671	673,392	0,078	-0,149
-553,656	-124,742	0,086	0,010
-552,642	-9,372	0,036	0,017
-551,627	-200,000	-0,018	0,107
-550,612	-51,509	-0,081	0,027
-549,598	-105,048	0,141	0,023
-548,583	-200,000	-0,011	-0,164
-547,569	-200,000	-0,014	0,064
-546,554	-200,000	0,004	0,113
-545,539	21,515	0,137	0,081
-544,525	-62,225	-0,080	0,024
-543,510	-200,000	0,021	-0,074
-542,496	-200,000	0,017	0,232
-541,481	-66,761	0,120	-0,035
-540,466	-200,000	0,032	-0,126
-539,452	304,991	0,011	-0,015
-538,437	-163,346	0,049	0,002
-537,423	-56,125	0,111	-0,036
-536,408	139,000	0,071	-0,068
-535,393	-26,842	-0,153	-0,065
-534,379	73,747	-0,108	0,083
-533,364	800,000	0,014	-0,043
-532,350	120,481	0,061	0,055
-531,335	-99,470	-0,038	0,007
-530,321	800,000	-0,008	-0,019
-529,306	-200,000	-0,002	-0,159
-528,291	-200,000	0,004	0,016
-527,277	-143,996	-0,051	-0,003
-526,262	110,237	0,088	0,077
-525,248	-200,000	-0,007	-0,052
-524,233	-200,000	-0,024	0,090
-523,218	546,744	0,028	-0,049
-522,204	-174,001	-0,076	0,002
-521,189	119,715	-0,058	0,053
-520,175	800,000	0,031	0,082
-519,160	-78,406	0,076	0,019
-518,145	800,000	0,032	0,085
-517,131	-200,000	-0,001	0,027
-516,116	270,641	0,048	0,062
-515,102	218,626	-0,112	0,131
-514,087	-200,000	0,028	0,118
-513,072	681,505	-0,012	0,024
-512,058	171,209	0,095	0,100
-511,043	443,245	0,031	0,050
-510,029	105,955	0,043	-0,037
-509,014	-79,545	0,059	-0,014
-507,999	80,908	-0,058	0,046
-506,985	654,111	0,046	0,087
-505,970	39,621	-0,120	-0,078
-504,956	-69,126	0,031	0,009
-503,941	-23,924	0,122	-0,053
-502,926	30,893	-0,093	0,058
-501,912	800,000	-0,006	-0,018
-500,897	800,000	-0,043	0,098
-499,883	250,287	0,094	0,117
-498,868	69,113	0,046	-0,034
-497,853	240,318	0,076	-0,092
-496,839	-200,000	-0,005	0,065
-495,824	-175,529	-0,143	0,003
-494,810	198,802	0,109	0,122
-493,795	9,922	0,082	0,045
-492,781	616,989	-0,031	-0,057
-491,766	575,598	0,013	-0,023
-490,751	-170,884	-0,102	-0,003
-489,737	800,000	-0,038	0,093
-488,722	729,599	0,018	0,035
-487,708	255,524	0,045	0,057
-486,693	-200,000	-0,014	-0,069
-485,678	-200,000	-0,035	-0,138
-484,664	-200,000	0,028	-0,175
-483,649	-200,000	0,004	-0,034
-482,635	52,319	0,070	0,049
-481,620	-200,000	0,018	-0,083
-480,605	318,480	0,038	0,053
-479,591	6,138	0,087	-0,047
-478,576	-200,000	-0,002	0,048
-477,562	53,374	-0,110	-0,077
-476,547	-200,000	-0,030	0,108
-475,532	48,795	0,091	-0,062
-474,518	-182,952	-0,120	-0,002
-473,503	233,753	0,079	-0,095
-472,489	-81,396	-0,064	0,015
-471,474	-200,000	0,026	-0,109
-470,459	-200,000	-0,058	-0,200
-469,445	800,000	-0,038	-0,094
-468,430	412,114	0,061	-0,095
-467,416	-200,000	-0,001	0,064
-466,401	232,163	0,014	-0,017
-465,386	379,817	0,023	-0,034
-464,372	124,283	0,137	0,126
-463,357	-148,562	-0,165	0,010
-462,343	138,436	-0,067	-0,064
-461,328	800,000	0,008	-0,017
-460,313	252,679	-0,079	0,098
-459,299	414,727	0,061	0,095
-458,284	-200,000	0,020	0,141
-457,270	115,635	-0,077	-0,069
-456,255	800,000	-0,019	0,048
-455,241	188,678	0,021	-0,023
-454,226	85,664	0,059	0,047
-453,211	-103,596	-0,180	0,031
-452,197	87,505	0,126	0,102
-451,182	701,674	0,088	0,169
-450,168	111,421	-0,084	0,074
-449,153	-4,334	-0,081	0,041
-448,138	-111,817	0,033	-0,005
-447,124	382,668	0,024	0,037
-446,109	64,642	-0,099	-0,072
-445,095	611,207	0,061	0,112
-444,080	109,165	0,086	-0,075
-443,065	104,827	0,054	-0,047
-442,051	17,441	0,064	0,037
-441,036	607,480	0,060	-0,109
-440,022	198,801	0,088	-0,098
-439,007	-40,958	-0,083	-0,031
-437,992	-64,738	-0,052	0,015
-436,978	25,300	0,144	0,087
-435,963	-200,000	-0,051	0,177
-434,949	-101,452	0,147	0,026
-433,934	-13,210	0,010	0,005
-432,919	-21,062	0,035	-0,016
-431,905	-153,223	-0,051	0,003
-430,890	-200,000	-0,011	-0,050
-429,876	800,000	-0,028	0,082
-428,861	-21,031	0,184	-0,082
-427,846	-200,000	0,004	0,038
-426,832	-170,353	-0,124	0,003
-425,817	800,000	0,022	-0,060
-424,803	278,939	0,110	-0,144
-423,788	-124,094	0,069	0,008
-422,773	13,014	0,124	0,070
-421,759	82,906	0,030	0,024
-420,744	-200,000	-0,032	0,110
-419,730	139,223	0,127	-0,121
-418,715	113,090	0,040	-0,036
-417,701	-64,042	0,012	0,003
-416,686	-200,000	-0,014	0,084
-415,671	20,172	0,118	-0,069
-414,657	-59,521	0,159	0,050
-413,642	0,405	-0,085	0,044
-412,628	800,000	-0,046	0,111
-411,613	14,833	0,028	0,016
-410,598	542,847	0,048	-0,084
-409,584	-200,000	-0,032	-0,130
-408,569	800,000	0,040	0,089
-407,555	-200,000	0,007	-0,104
-406,540	282,063	0,068	-0,089
-405,525	65,984	0,080	-0,059
-404,511	200,416	-0,072	-0,081
-403,496	-200,000	-0,016	-0,146
-402,482	800,000	-0,024	0,059
-401,467	-200,000	-0,011	0,130
-400,452	-55,164	0,072	0,024
-399,438	75,818	-0,105	0,081
-398,423	82,828	0,072	0,057
-397,409	-44,182	-0,033	0,012
-396,394	-162,680	-0,101	0,004
-395,379	-200,000	-0,012	0,043
-394,365	800,000	-0,031	0,078
-393,350	-60,459	0,075	0,023
-392,336	800,000	0,011	0,029
-391,321	-200,000	0,007	-0,061
-390,306	-93,740	-0,125	0,025
-389,292	800,000	-0,058	-0,145
-388,277	65,312	0,064	-0,047
-387,263	-27,129	-0,035	0,015
-386,248	-200,000	-0,018	-0,100
-385,233	-151,622	0,024	0,001
-384,219	-55,558	-0,134	0,043
-383,204	-70,738	-0,030	0,008
-382,190	-200,000	-0,001	-0,029
-381,175	800,000	-0,064	-0,130
-380,160	-49,720	0,014	-0,005
-379,146	28,805	0,153	-0,094
-378,131	49,524	-0,127	-0,087
-377,117	-90,758	-0,067	0,014
-376,102	-200,000	-0,005	0,080
-375,088	66,103	0,080	0,059
-374,073	-200,000	-0,025	-0,085
-373,058	-24,947	-0,060	-0,026
-372,044	313,529	0,081	0,111
-371,029	335,381	0,095	-0,134
-370,015	-100,263	-0,084	-0,015
-369,000	-146,100	-0,096	0,006
-367,985	144,395	0,047	-0,046
-366,971	-96,231	-0,117	-0,022
-365,956	-200,000	0,052	0,206
-364,942	800,000	0,053	0,123
-363,927	-200,000	0,028	0,128
-362,912	171,090	-0,025	-0,026
-361,898	-200,000	-0,025	-0,138
-360,883	-200,000	-0,002	-0,015
-359,869	-200,000	-0,007	-0,072
-358,854	91,428	0,064	0,052
-357,839	-200,000	0,004	-0,058
-356,825	-200,000	-0,004	0,085
-355,810	113,767	0,014	-0,013
-354,796	22,489	-0,182	0,108
-353,781	-41,378	0,030	0,011
-352,766	200,694	0,102	-0,115
-351,752	-49,521	-0,039	-0,013
-350,737	-47,703	0,141	-0,049
-349,723	249,092	0,109	0,135
-348,708	16,855	0,099	0,057
-347,693	79,950	0,037	0,029
-346,679	-125,731	0,066	0,007
-345,664	-40,432	-0,149	-0,056
-344,650	-123,607	-0,109	0,012
-343,635	44,124	0,118	0,078
-342,620	800,000	0,026	-0,080
-341,606	800,000	-0,015	-0,036
-340,591	800,000	-0,035	0,076
-339,577	-45,927	0,046	0,016
-338,562	-200,000	-0,027	-0,139
-337,548	161,442	-0,079	-0,080
-336,533	800,000	-0,026	-0,069
-335,518	-200,000	0,004	0,019
-334,504	800,000	0,062	0,144
-333,489	-114,745	-0,023	0,003
-332,475	800,000	-0,022	0,047
-331,460	-200,000	0,009	-0,044
-330,445	198,425	0,033	0,037
-329,431	-5,854	0,028	0,014
-328,416	116,907	-0,079	-0,070
-327,402	-200,000	-0,014	0,107
-326,387	327,585	-0,052	0,072
-325,372	264,991	-0,033	-0,042
-324,358	-137,609	-0,073	-0,006
-323,343	-80,571	0,102	0,024
-322,329	-99,795	-0,051	0,009
-321,314	800,000	-0,039	0,097
-320,299	-200,000	0,004	0,167
-319,285	-63,306	-0,088	0,026
-318,270	373,600	0,052	-0,077
-317,256	26,505	0,046	0,028
-316,241	99,404	-0,085	-0,072
-315,226	-200,000	0,037	0,000
-314,212	410,984	0,034	0,052
-313,197	72,817	0,117	0,089
-312,183	-90,614	0,039	0,008
-311,168	-21,081	0,036	0,016
-310,153	398,432	0,043	-0,066
-309,139	800,000	0,010	-0,026
-308,124	16,887	0,023	0,013
-307,110	-87,812	-0,112	0,024
-306,095	272,280	-0,082	0,106
-305,080	139,915	0,075	-0,072
-304,066	-200,000	-0,021	-0,101
-303,051	11,195	-0,043	-0,024
-302,037	-91,856	0,111	0,023
-301,022	9,779	-0,150	-0,082
-300,008	-200,000	-0,011	-0,072
-298,993	28,751	0,039	0,024
-297,978	200,241	-0,050	-0,056
-296,964	-200,000	-0,043	-0,145
-295,949	-53,153	0,065	0,022
-294,935	86,412	0,028	-0,022
-293,920	-91,138	-0,062	-0,013
-292,905	-187,535	0,095	-0,001
-291,891	253,584	0,051	-0,063
-290,876	359,031	0,056	0,082
-289,862	-200,000	0,003	0,144
-288,847	-140,399	-0,048	-0,004
-287,832	152,265	-0,076	-0,075
-286,818	-200,000	-0,010	-0,042
-285,803	-142,131	0,099	0,007
-284,789	67,321	0,031	-0,023
-283,774	-200,000	-0,016	0,070
-282,759	-200,000	0,029	-0,101
-281,745	-70,756	-0,103	0,028
-280,730	530,563	-0,023	-0,040
-279,716	420,574	0,056	-0,088
-278,701	-87,081	0,007	-0,001
-277,686	265,031	0,109	-0,138
-276,672	127,780	0,090	-0,082
-275,657	502,172	-0,029	-0,049
-274,643	-92,129	0,057	-0,012
-273,628	-38,054	0,065	0,025
-272,613	29,032	-0,057	0,035
-271,599	337,961	0,029	-0,041
-270,584	338,510	0,023	0,032
-269,570	221,692	-0,039	-0,045
-268,555	139,032	0,035	-0,034
-267,540	-176,500	-0,058	0,001
-266,526	-70,589	-0,027	-0,007
-265,511	-200,000	-0,029	-0,121
-264,497	133,613	-0,052	0,049
-263,482	-56,761	-0,062	-0,020
-262,467	100,129	-0,030	-0,025
-261,453	-200,000	0,004	-0,061
-260,438	-200,000	0,013	-0,051
-259,424	261,644	-0,132	0,166
-258,409	800,000	0,046	0,134
-257,395	397,219	0,068	0,104
-256,380	-68,111	0,100	-0,028
-255,365	-200,000	0,007	-0,111
-254,351	188,449	0,078	0,085
-253,336	800,000	0,026	0,059
-252,322	173,057	-0,109	0,114
-251,307	-74,853	-0,149	0,038
-250,292	-108,946	-0,208	0,032
-249,278	313,007	0,046	0,063
-248,263	-200,000	-0,011	0,090
-247,249	-19,454	0,056	-0,025
-246,234	-200,000	0,019	-0,190
-245,219	800,000	-0,024	0,062
-244,205	413,134	0,025	-0,038
-243,190	457,777	-0,035	-0,057
-242,176	-8,725	-0,174	0,084
-241,161	-200,000	-0,000	0,002
-240,146	566,900	-0,034	0,061
-239,132	58,899	-0,023	0,016
-238,117	-200,000	-0,004	-0,151
-237,103	-8,140	-0,108	-0,053
-236,088	92,021	-0,076	0,062
-235,073	-200,000	0,001	-0,011
-234,059	800,000	0,017	0,044
-233,044	323,032	0,008	0,011
-232,030	800,000	-0,030	-0,066
-231,015	-200,000	0,004	-0,103
-230,000	-200,000	0,006	0,024
-228,986	-200,000	0,003	-0,045
-227,971	-200,000	-0,001	0,089
-226,957	282,332	0,046	0,060
-225,942	49,978	0,071	0,048
-224,927	-72,859	-0,057	-0,015
-223,913	-148,220	-0,134	0,008
-222,898	276,851	0,098	0,127
-221,884	72,737	-0,045	0,034
-220,869	-200,000	-0,003	0,073
-219,855	-100,907	0,051	-0,009
-218,840	90,673	0,124	0,101
-217,825	176,066	0,017	0,018
-216,811	23,941	0,103	0,061
-215,796	41,122	-0,085	0,055
-214,782	-32,368	0,092	0,037
-213,767	-200,000	0,002	-0,176
-212,752	172,644	0,046	-0,048
-211,738	-200,000	-0,012	-0,055
-210,723	800,000	-0,048	0,097
-209,709	800,000	0,017	-0,035
-208,694	39,899	-0,121	-0,078
-207,679	269,174	-0,085	-0,109
-206,665	800,000	-0,009	0,018
-205,650	-146,626	0,090	0,006
-204,636	-200,000	-0,011	-0,037
-203,621	412,863	0,051	-0,078
-202,606	-7,028	0,038	0,019
-201,592	-49,350	0,024	0,008
-200,577	344,076	0,069	-0,098
-199,563	800,000	-0,024	-0,074
-198,548	-122,653	-0,135	0,016
-197,533	173,916	0,056	0,059
-196,519	-200,000	-0,006	0,067
-195,504	419,694	-0,054	-0,084
-194,490	800,000	0,097	-0,194
-193,475	88,458	0,078	-0,063
-192,460	730,798	0,086	0,167
-191,446	-200,000	0,031	0,104
-190,431	718,007	-0,017	-0,033
-189,417	70,330	0,090	0,067
-188,402	-200,000	0,003	-0,101
-187,387	251,309	-0,043	0,053
-186,373	188,125	-0,051	0,055
-185,358	800,000	0,044	-0,115
-184,344	1,076	0,087	0,045
-183,329	-194,414	0,090	0,001
-182,315	240,666	0,035	0,042
-181,300	-195,595	0,036	0,000
-180,285	-50,286	-0,026	-0,009
-179,271	800,000	0,021	0,050
-178,256	40,651	-0,056	-0,036
-177,242	73,231	0,096	0,072
-176,227	800,000	0,079	0,171
-175,212	-27,685	0,057	-0,024
-174,198	325,088	0,096	-0,133
-173,183	189,168	-0,101	0,109
-172,169	-200,000	-0,041	0,182
-171,154	-200,000	0,009	0,034
-170,139	335,158	0,101	0,141
-169,125	-200,000	0,003	0,022
-168,110	-200,000	-0,012	-0,044
-167,096	-200,000	-0,025	0,080
-166,081	116,168	-0,103	-0,091
-165,066	3,161	-0,043	-0,023
-164,052	-79,137	-0,097	0,024
-163,037	-44,335	0,076	-0,027
-162,023	-200,000	0,040	0,134
-161,008	89,827	0,058	0,047
-159,993	-200,000	-0,002	-0,040
-158,979	90,699	-0,078	-0,063
-157,964	800,000	0,050	0,128
-156,950	-200,000	-0,004	0,020
-155,935	548,409	0,070	-0,122
-154,920	-57,988	-0,023	-0,007
-153,906	-4,997	0,072	0,036
-152,891	258,909	-0,118	0,147
-151,877	-156,612	-0,207	-0,009
-150,862	800,000	-0,060	-0,152
-149,847	-167,396	-0,072	0,002
-148,833	-200,000	-0,006	-0,028
-147,818	-158,917	0,129	-0,005
-146,804	800,000	-0,029	0,088
-145,789	-37,388	-0,180	-0,069
-144,775	80,543	-0,095	-0,074
-143,760	800,000	-0,085	-0,179
-142,745	142,886	-0,020	-0,020
-141,731	800,000	-0,041	-0,084
-140,716	75,709	0,059	0,045
-139,702	151,157	-0,009	0,009
-138,687	336,034	0,062	-0,087
-137,672	37,126	-0,063	0,040
-136,658	-62,539	-0,106	-0,032
-135,643	800,000	0,010	-0,021
-134,629	800,000	0,019	0,053
-133,614	-41,914	-0,186	0,068
-132,599	395,492	-0,035	0,053
-131,585	-200,000	-0,009	0,048
-130,570	-145,310	-0,115	-0,007
-129,556	306,373	-0,076	-0,102
-128,541	-200,000	0,000	-0,129
-127,526	283,411	0,089	-0,115
-126,512	22,933	-0,055	-0,033
-125,497	-200,000	-0,017	0,138
-124,483	-200,000	0,016	0,075
-123,468	-200,000	0,001	-0,011
-122,453	-200,000	-0,014	0,047
-121,439	574,185	-0,053	-0,094
-120,424	800,000	-0,053	-0,128
-119,410	-24,183	0,129	0,055
-118,395	385,318	-0,036	0,054
-117,380	800,000	-0,013	-0,036
-116,366	-200,000	0,005	-0,086
-115,351	-93,604	-0,048	-0,010
-114,337	-200,000	0,014	-0,111
-113,322	-13,976	-0,080	-0,037
-112,307	23,885	0,059	-0,035
-111,293	-200,000	-0,035	-0,134
-110,278	136,990	0,106	0,100
-109,264	323,613	0,059	0,081
-108,249	-73,413	-0,146	0,038
-107,234	-200,000	-0,030	-0,112
-106,220	53,554	-0,096	-0,066
-105,205	45,231	-0,153	0,102
-104,191	524,285	0,032	0,055
-103,176	-81,079	0,177	0,042
-102,162	-36,862	-0,066	-0,026
-101,147	675,688	0,055	0,103
-100,132	-200,000	-0,028	-0,132
-99,118	361,232	-0,057	0,083
-98,103	-31,486	-0,018	0,007
-97,089	-17,343	0,028	0,013
-96,074	800,000	-0,028	0,085
-95,059	187,142	-0,111	0,119
-94,045	22,481	-0,089	-0,052
-93,030	800,000	-0,064	-0,182
-92,016	202,993	0,115	-0,128
-91,001	-30,654	0,113	0,046
-89,986	671,981	-0,067	0,126
-88,972	16,884	0,061	0,035
-87,957	-111,121	0,158	0,023
-86,943	-124,890	0,130	0,014
-85,928	112,516	-0,182	-0,158
-84,913	0,286	0,047	0,024
-83,899	800,000	-0,034	0,101
-82,884	-200,000	-0,023	0,078
-81,870	800,000	0,064	0,150
-80,855	-200,000	-0,006	0,059
-79,840	-104,013	-0,125	-0,021
-78,826	-113,097	0,151	0,021
-77,811	41,543	-0,058	-0,038
-76,797	25,634	-0,064	0,038
-75,782	-46,552	-0,018	-0,006
-74,767	286,988	0,083	0,108
-73,753	-18,583	0,059	-0,026
-72,738	-47,905	-0,083	-0,029
-71,724	-31,210	-0,155	-0,063
-70,709	-200,000	0,001	0,141
-69,694	5,276	0,044	-0,023
-68,680	-200,000	0,030	0,105
-67,665	800,000	0,055	-0,122
-66,651	-200,000	0,017	0,123
-65,636	225,081	-0,114	0,132
-64,622	-85,242	0,037	-0,008
-63,607	300,491	-0,013	-0,018
-62,592	-66,013	-0,075	0,021
-61,578	-200,000	-0,001	0,046
-60,563	-137,909	-0,171	-0,014
-59,549	-65,697	-0,042	0,012
-58,534	2,687	-1,971	-1,023
-57,519	800,000	-0,361	-0,826
-56,505	-200,000	-1,391	-4,936
-55,490	-54,838	0,844	0,272
-54,476	800,000	5,302	12,283
-53,461	-200,000	17,420	282,849
-52,446	800,000	722,507	2210,400
-51,432	533,487	1635,076	2791,930
-50,417	111,437	1627,554	1409,091
-49,403	74,930	1285,211	971,040
-48,388	32,685	1030,052	638,370
-47,373	20,030	992,161	573,036
-46,359	18,641	980,393	561,644
-45,344	16,271	976,307	551,502
-44,330	16,404	974,881	551,111
-43,315	16,000	973,044	548,726
-42,300	15,961	972,041	548,012
-41,286	15,995	971,079	547,559
-40,271	16,035	969,848	546,974
-39,257	15,971	969,228	546,392
-38,242	16,042	968,118	545,979
-37,227	16,016	967,493	545,519
-36,213	15,963	966,728	544,894
-35,198	15,955	965,656	544,240
-34,184	15,997	965,145	544,069
-33,169	15,932	964,247	543,329
-32,154	16,017	962,903	542,826
-31,140	15,958	962,237	542,237
-30,125	15,978	961,287	541,745
-29,111	15,962	960,767	541,379
-28,096	15,943	960,134	540,938
-27,082	15,973	959,384	540,594
-26,067	16,015	958,389	540,147
-25,052	15,915	957,903	539,527
-24,038	16,000	956,966	539,253
-23,023	15,962	956,349	538,762
-22,009	16,011	955,557	538,451
-20,994	15,961	955,185	538,061
-19,979	15,964	954,660	537,754
-18,965	15,998	953,902	537,412
-17,950	16,020	953,307	537,126
-16,936	15,851	952,765	536,258
-15,921	15,912	952,041	536,025
-14,906	15,827	951,249	535,287
-13,892	15,872	950,812	535,162
-12,877	15,825	950,078	534,580
-11,863	15,775	949,571	534,114
-10,848	15,824	948,837	533,834
-9,833	15,980	948,344	534,032
-8,819	15,900	947,680	533,383
-7,804	15,892	946,978	532,941
-6,790	15,823	946,444	532,400
-5,775	15,879	945,842	532,218
-4,760	15,850	945,416	531,866
-3,746	15,907	944,714	531,631
-2,731	15,787	943,910	530,776
-1,717	15,723	943,387	530,259
-0,702	15,685	942,789	529,779
0,313	15,529	942,073	529,685
1,327	18,789	940,243	538,915
2,342	28,078	794,026	479,707
3,356	24,808	446,806	265,046
4,371	-4,842	295,849	145,823
5,386	-8,658	277,388	133,092
6,400	-9,932	271,705	129,167
7,415	-10,110	269,255	127,827
8,429	-10,107	267,963	127,205
9,444	-10,191	267,100	126,708
10,459	-10,109	266,428	126,452
11,473	-10,339	265,785	125,926
12,488	-10,359	265,356	125,694
13,502	-10,719	264,752	125,070
14,517	-10,527	264,434	125,083
15,531	-10,539	263,809	124,765
16,546	-10,644	263,602	124,562
17,561	-10,534	263,170	124,446
18,575	-10,388	262,799	124,390
19,590	-10,510	262,453	124,106
20,604	-10,466	262,286	124,055
21,619	-10,398	261,832	123,891
22,634	-10,416	261,433	123,674
23,648	-10,598	261,239	123,409
24,663	-10,465	260,989	123,399
25,677	-10,502	260,704	123,220
26,692	-10,720	260,539	122,936
27,707	-10,749	260,299	122,787
28,721	-10,777	259,965	122,593
29,736	-10,590	259,695	122,621
30,750	-10,534	259,281	122,464
31,765	-10,544	259,159	122,387
32,780	-10,790	259,114	122,136
33,794	-10,695	258,861	122,091
34,809	-10,701	258,559	121,932
35,823	-10,764	258,189	121,691
36,838	-10,714	258,116	121,690
37,853	-10,648	257,639	121,512
38,867	-11,049	257,509	121,087
39,882	-10,646	257,096	121,236
40,896	-10,884	257,040	120,990
41,911	-10,861	256,759	120,867
42,926	-10,755	256,463	120,810
43,940	-10,829	256,286	120,651
44,955	-10,889	256,095	120,497
45,969	-10,905	255,896	120,380
46,984	-11,115	255,560	120,028
47,999	-11,243	255,118	119,698
49,013	-11,521	255,063	119,419
50,028	-11,494	254,730	119,276
51,042	-11,701	254,366	118,915
52,057	-11,680	254,282	118,884
53,071	-11,663	254,210	118,853
54,086	-11,626	253,975	118,766
55,101	-11,425	253,736	118,817
56,115	-11,146	253,594	118,982
57,130	-10,816	253,602	119,260
58,144	-10,524	253,398	119,406
59,159	-10,328	253,117	119,432
60,174	-10,543	252,950	119,157
61,188	-10,530	252,762	119,069
62,203	-10,600	252,600	118,923
63,217	-10,663	252,303	118,718
64,232	-10,576	252,125	118,698
65,247	-10,393	251,850	118,715
66,261	-10,579	251,639	118,445
67,276	-10,865	251,217	117,991
68,290	-11,090	250,972	117,673
69,305	-11,164	250,803	117,520
70,320	-11,381	250,669	117,261
71,334	-11,003	250,597	117,540
72,349	-10,382	250,468	117,999
73,363	-10,480	250,405	117,875
74,378	-10,452	249,896	117,649
75,393	-10,492	249,753	117,538
76,407	-10,685	249,637	117,308
77,422	-10,760	249,405	117,124
78,436	-10,448	249,131	117,251
79,451	-10,723	248,977	116,935
80,466	-10,726	248,635	116,761
81,480	-10,929	248,330	116,435
82,495	-11,079	248,237	116,255
83,509	-11,000	248,017	116,208
84,524	-10,948	247,695	116,091
85,539	-11,038	247,613	115,967
86,553	-11,302	247,505	115,683
87,568	-11,099	247,233	115,716
88,582	-10,897	246,989	115,762
89,597	-11,041	246,804	115,543
90,611	-11,088	246,727	115,457
91,626	-10,636	246,648	115,790
92,641	-10,727	246,479	115,624
93,655	-11,005	246,203	115,251
94,670	-11,146	246,036	115,044
95,684	-10,962	245,734	115,047
96,699	-10,848	245,665	115,099
97,714	-11,190	245,467	114,711
98,728	-11,155	245,275	114,640
99,743	-11,050	244,898	114,542
100,757	-11,280	244,778	114,284
101,772	-11,322	244,605	114,158
102,787	-10,946	244,254	114,296
103,801	-11,082	244,266	114,178
104,816	-10,833	244,046	114,272
105,830	-10,835	243,970	114,224
106,845	-10,730	243,863	114,251
107,860	-10,457	243,532	114,312
108,874	-10,585	243,358	114,114
109,889	-10,763	243,119	113,845
110,903	-11,001	243,017	113,591
111,918	-11,027	242,844	113,478
112,933	-10,946	242,705	113,470
113,947	-10,837	242,497	113,452
114,962	-10,910	242,400	113,337
115,976	-10,668	242,025	113,350
116,991	-10,847	242,023	113,192
118,006	-10,772	241,856	113,165
119,020	-10,764	241,719	113,097
120,035	-10,788	241,650	113,036
121,049	-10,651	241,413	113,026
122,064	-10,611	241,128	112,916
123,079	-10,661	240,849	112,734
124,093	-10,965	240,681	112,398
125,108	-11,092	240,457	112,179
126,122	-11,184	240,201	111,976
127,137	-11,246	240,073	111,855
128,151	-11,144	239,773	111,788
129,166	-10,978	239,627	111,845
130,181	-11,215	239,526	111,595
131,195	-11,109	239,273	111,553
132,210	-10,878	239,166	111,681
133,224	-10,702	239,079	111,773
134,239	-10,725	238,870	111,647
135,254	-10,707	238,673	111,559
136,268	-10,971	238,495	111,253
137,283	-11,403	238,375	110,838
138,297	-11,396	237,978	110,650
139,312	-11,407	237,885	110,587
140,327	-10,998	237,893	110,911
141,341	-10,595	237,777	111,171
142,356	-10,453	237,789	111,281
143,370	-10,283	237,559	111,300
144,385	-10,509	237,332	111,002
145,400	-10,252	237,177	111,127
146,414	-10,505	237,019	110,839
147,429	-10,342	236,811	110,863
148,443	-10,368	236,634	110,750
149,458	-10,537	236,472	110,529
150,473	-10,318	236,193	110,563
151,487	-10,331	235,897	110,404
152,502	-10,391	235,894	110,345
153,516	-10,452	235,716	110,203
154,531	-10,387	235,545	110,166
155,546	-10,514	235,389	109,981
156,560	-10,619	235,287	109,840
157,575	-10,668	235,123	109,715
158,589	-10,488	234,802	109,698
159,604	-10,387	234,783	109,760
160,619	-10,435	234,626	109,639
161,633	-10,227	234,518	109,743
162,648	-10,324	234,300	109,555
163,662	-10,462	234,156	109,369
164,677	-10,464	233,850	109,214
165,692	-10,487	233,683	109,108
166,706	-10,207	233,496	109,232
167,721	-10,230	233,506	109,209
168,735	-10,298	233,364	109,079
169,750	-10,368	233,280	108,975
170,764	-10,413	232,918	108,761
171,779	-10,337	232,988	108,844
172,794	-10,231	232,729	108,796
173,808	-10,459	232,402	108,455
174,823	-10,891	232,093	107,962
175,837	-11,350	231,928	107,517
176,852	-10,590	232,060	108,164
177,867	-10,524	232,096	108,223
178,881	-10,419	231,848	108,180
179,896	-10,393	231,722	108,131
180,910	-10,400	231,481	108,003
181,925	-10,100	231,243	108,117
182,940	-10,288	231,258	107,968
183,954	-10,205	231,100	107,949
184,969	-10,298	230,969	107,805
185,983	-10,084	230,647	107,812
186,998	-10,139	230,624	107,748
188,013	-9,907	230,397	107,814
189,027	-10,226	230,281	107,502
190,042	-10,044	230,192	107,592
191,056	-10,194	229,993	107,373
192,071	-9,995	229,813	107,434
193,086	-10,235	229,677	107,175
194,100	-10,046	229,406	107,185
195,115	-10,344	229,088	106,797
196,129	-10,593	229,143	106,621
197,144	-5,466	230,733	111,332
198,159	0,254	232,335	116,555
199,173	3,199	233,168	119,260
200,188	3,517	233,227	119,528
201,202	3,630	233,014	119,496
202,217	3,621	233,000	119,471
203,232	4,057	232,927	119,763
204,246	3,928	232,751	119,562
205,261	3,904	232,662	119,486
206,275	4,160	232,466	119,573
207,290	4,322	232,375	119,642
208,304	4,241	232,073	119,413
209,319	4,103	232,091	119,304
210,334	4,040	231,765	119,078
211,348	3,637	231,562	118,651
212,363	3,491	231,256	118,371
213,377	3,319	231,114	118,155
214,392	3,351	230,847	118,033
215,407	3,514	230,831	118,139
216,421	3,484	230,626	118,001
217,436	3,398	230,406	117,811
218,450	3,035	230,224	117,429
219,465	3,032	230,105	117,356
220,480	2,858	229,991	117,153
221,494	3,034	229,876	117,220
222,509	2,915	229,803	117,081
223,523	3,330	229,576	117,272
224,538	3,065	229,462	117,001
225,553	3,185	229,313	117,006
226,567	3,229	229,236	116,990
227,582	3,531	229,104	117,143
228,596	3,711	229,041	117,238
229,611	3,542	228,749	116,949
230,626	2,874	228,528	116,317
231,640	3,178	228,332	116,438
232,655	3,523	228,326	116,687
233,669	3,991	228,304	117,022
234,684	4,002	228,158	116,945
235,699	3,495	227,863	116,398
236,713	3,432	227,774	116,294
237,728	3,357	227,581	116,129
238,742	3,156	227,268	115,807
239,757	3,307	227,111	115,831
240,772	3,055	227,108	115,628
241,786	3,219	226,930	115,651
242,801	3,376	226,917	115,752
243,815	3,543	226,752	115,785
244,830	3,767	226,607	115,869
245,844	3,566	226,509	115,657
246,859	3,338	226,214	115,324
247,874	3,477	226,102	115,361
248,888	3,597	225,960	115,369
249,903	3,477	225,753	115,163
250,917	3,117	225,607	114,808
251,932	3,254	225,410	114,800
252,947	3,405	225,183	114,787
253,961	3,145	225,152	114,567
254,976	3,211	225,079	114,568
255,990	3,469	224,984	114,703
257,005	3,566	224,772	114,657
258,020	3,464	224,576	114,471
259,034	3,629	224,537	114,564
260,049	3,652	224,462	114,533
261,063	3,691	224,156	114,395
262,078	3,818	224,097	114,450
263,093	3,662	223,961	114,254
264,107	3,669	223,791	114,162
265,122	3,771	223,616	114,138
266,136	3,918	223,551	114,204
267,151	3,717	223,389	113,962
268,166	3,352	223,113	113,541
269,180	3,105	222,803	113,190
270,195	3,058	222,772	113,129
271,209	3,385	222,621	113,285
272,224	3,316	222,566	113,196
273,239	3,478	222,404	113,223
274,253	3,200	222,264	112,936
275,268	3,031	222,021	112,677
276,282	2,823	222,086	112,547
277,297	3,187	221,571	112,544
278,312	3,092	221,710	112,535
279,326	3,187	221,633	112,555
280,341	3,273	221,472	112,526
281,355	3,426	221,207	112,495
282,370	3,324	220,993	112,301
283,384	3,111	220,858	112,066
284,399	2,951	220,690	111,854
285,414	3,226	220,501	111,949
286,428	3,270	220,668	112,056
287,443	3,432	220,459	112,059
288,457	3,291	220,421	111,926
289,472	3,291	219,946	111,675
290,487	2,965	219,875	111,392
291,501	2,775	219,688	111,148
292,516	3,070	219,667	111,342
293,530	3,098	219,537	111,287
294,545	2,819	219,390	110,999
295,560	3,185	219,232	111,176
296,574	3,341	219,065	111,195
297,589	2,871	219,019	110,820
298,603	3,297	218,911	111,065
299,618	3,453	218,770	111,096
300,633	3,350	218,658	110,955
301,647	3,493	218,661	111,050
302,662	3,606	218,468	111,024
303,676	3,575	218,247	110,880
304,691	3,421	218,069	110,668
305,706	3,477	217,911	110,618
306,720	3,747	217,791	110,742
307,735	3,186	217,600	110,231
308,749	3,102	217,534	110,127
309,764	3,385	217,411	110,259
310,779	3,526	217,314	110,301
311,793	3,562	217,127	110,223
312,808	3,638	216,885	110,144
313,822	3,436	216,784	109,938
314,837	3,231	216,673	109,724
315,852	3,126	216,538	109,572
316,866	3,452	216,248	109,648
317,881	3,441	216,304	109,659
318,895	3,424	216,217	109,593
319,910	3,331	215,812	109,311
320,925	3,166	215,642	109,098
321,939	2,682	215,466	108,655
322,954	3,210	215,573	109,075
323,968	3,663	215,471	109,336
324,983	3,432	215,237	109,044
325,997	3,407	215,213	109,004
327,012	3,462	214,916	108,883
328,027	3,320	214,818	108,723
329,041	3,798	214,860	109,074
330,056	3,945	214,759	109,117
331,070	3,351	214,530	108,569
332,085	3,141	214,332	108,311
333,100	3,335	214,027	108,284
334,114	3,357	213,962	108,258
335,129	3,452	213,952	108,310
336,143	3,232	213,789	108,063
337,158	3,479	213,637	108,150
338,173	3,327	213,460	107,944
339,187	3,170	213,296	107,741
340,202	3,261	213,090	107,691
341,216	2,908	213,013	107,394
342,231	3,190	212,889	107,521
343,246	3,144	212,730	107,398
344,260	3,094	212,673	107,325
345,275	3,328	212,606	107,445
346,289	3,430	212,443	107,425
347,304	3,659	212,412	107,561
348,319	3,503	212,115	107,292
349,333	3,239	211,943	107,010
350,348	3,482	211,930	107,164
351,362	3,631	211,766	107,176
352,377	3,435	211,716	107,004
353,392	3,361	211,622	106,895
354,406	3,593	211,336	106,903
355,421	196,685	1342,100	1424,674
356,435	157,142	1479,864	1424,652
