DTS Sentinel unit serial number:	SN410029Multiplexer serial number:	ORYXHardware model number:	OX2-SRSoftware version number:	ORYX F/W v4,00 Oryx Data Collector v3.7.2.0data status	okinstallation	B6 Nyhavnadifferential loss correction	single-endedforward channel	channel 2reverse channel	N/Adate	2023/12/11time	01:25:08forward acquisition time	300,00reverse acquisition time	0,00gamma	499,1914k internal	0,3122k external	0,3122temperature offset calibration	1,0000default loss term (dB/km)	0,3820temperature slope calibration	1,0000multiplexer offset coefficient	1,0000multiplexer slope coefficient	1,0000fibre end	0,00T internal ref (°C)	22,12T ext. ref 1 (°C)	5,40T ext. ref 2 (°C)	5,44length (m)	temperature (°C)	Stokes	anti-Stokes-744,400	-98,719	0,215	0,041
-743,385	-65,199	-0,309	0,092
-742,371	-190,296	0,186	-0,001
-741,356	173,190	-0,157	0,169
-740,342	174,433	-0,037	-0,039
-739,327	-1,043	-0,178	0,094
-738,312	59,667	0,100	-0,074
-737,298	-139,246	-0,153	0,012
-736,283	-46,784	0,042	-0,015
-735,269	79,201	-0,263	0,210
-734,254	398,011	0,052	-0,082
-733,239	-137,218	-0,405	-0,034
-732,225	90,565	0,106	-0,089
-731,210	757,379	-0,010	0,021
-730,196	37,538	-0,062	-0,041
-729,181	-200,000	0,025	-0,154
-728,167	-81,150	0,141	-0,034
-727,152	800,000	0,043	0,091
-726,137	-200,000	-0,031	-0,165
-725,123	-96,996	-0,060	0,012
-724,108	-200,000	-0,015	-0,099
-723,094	-118,835	-0,076	0,010
-722,079	800,000	-0,046	-0,118
-721,064	744,353	0,015	0,031
-720,050	-16,756	-0,064	-0,030
-719,035	-79,555	-0,062	-0,016
-718,021	-150,339	0,057	-0,003
-717,006	11,944	-0,140	-0,080
-715,991	800,000	0,015	-0,042
-714,977	-65,052	0,043	-0,013
-713,962	694,758	-0,013	0,026
-712,948	-15,737	0,097	-0,046
-711,933	-108,760	-0,008	0,001
-710,918	800,000	-0,019	0,042
-709,904	370,055	-0,028	-0,042
-708,889	128,761	-0,109	-0,104
-707,875	-187,288	-0,179	0,002
-706,860	304,705	-0,138	-0,192
-705,845	96,829	-0,081	-0,069
-704,831	146,444	0,037	0,037
-703,816	-5,544	0,044	-0,022
-702,802	451,155	-0,130	-0,214
-701,787	27,910	-0,085	-0,053
-700,772	4,446	-0,169	0,092
-699,758	96,093	-0,024	0,020
-698,743	-200,000	-0,006	-0,076
-697,729	20,051	-0,041	0,024
-696,714	-10,474	0,029	0,014
-695,699	143,159	0,028	-0,027
-694,685	-56,778	-0,102	-0,033
-693,670	78,601	-0,114	-0,091
-692,656	124,321	-0,044	-0,041
-691,641	345,630	0,120	0,176
-690,627	-200,000	-0,018	0,078
-689,612	-48,396	-0,028	-0,010
-688,597	242,883	0,073	0,091
-687,583	800,000	0,054	-0,146
-686,568	64,911	-0,035	-0,026
-685,554	800,000	0,039	0,099
-684,539	-73,846	0,082	-0,022
-683,524	1,696	-0,064	-0,034
-682,510	-66,144	0,116	0,034
-681,495	-200,000	-0,002	-0,153
-680,481	-103,215	-0,104	0,018
-679,466	142,303	-0,010	-0,010
-678,451	529,770	0,028	-0,049
-677,437	800,000	0,016	-0,040
-676,422	-24,262	-0,129	-0,057
-675,408	62,641	-0,027	0,020
-674,393	71,831	0,128	0,099
-673,378	121,384	-0,159	-0,147
-672,364	255,641	-0,105	-0,135
-671,349	800,000	-0,049	-0,141
-670,335	-200,000	0,015	0,141
-669,320	-41,400	-0,067	-0,025
-668,305	800,000	-0,013	-0,034
-667,291	279,599	0,028	-0,037
-666,276	-152,374	-0,020	-0,001
-665,262	-84,597	-0,152	0,035
-664,247	-22,965	-0,106	0,047
-663,232	-23,795	-0,055	-0,024
-662,218	174,515	0,024	0,026
-661,203	126,375	-0,032	0,030
-660,189	138,716	-0,070	-0,068
-659,174	-29,527	0,117	-0,049
-658,159	800,000	0,005	-0,012
-657,145	57,246	0,108	-0,078
-656,130	89,795	-0,042	0,035
-655,116	-200,000	-0,087	0,000
-654,101	453,657	-0,048	-0,079
-653,086	-19,572	-0,067	0,031
-652,072	-69,282	0,196	0,056
-651,057	242,039	-0,092	-0,115
-650,043	-119,685	0,044	0,006
-649,028	800,000	-0,026	0,060
-648,014	144,358	0,054	0,053
-646,999	439,882	0,057	0,093
-645,984	405,650	-0,077	-0,121
-644,970	-200,000	-0,004	-0,038
-643,955	31,609	-0,122	0,078
-642,941	169,517	-0,073	-0,078
-641,926	135,687	0,041	-0,039
-640,911	92,797	0,102	0,085
-639,897	-200,000	0,006	-0,062
-638,882	-142,697	-0,019	-0,001
-637,868	-16,922	0,021	-0,010
-636,853	41,077	-0,068	-0,046
-635,838	-70,015	-0,109	-0,031
-634,824	387,808	-0,048	-0,073
-633,809	341,592	0,031	-0,046
-632,795	234,280	0,016	0,019
-631,780	-47,190	0,106	-0,038
-630,765	-19,722	-0,108	-0,049
-629,751	-200,000	0,006	0,059
-628,736	-114,288	-0,161	0,023
-627,722	-200,000	-0,018	-0,140
-626,707	-173,840	-0,152	0,003
-625,692	-77,312	0,082	-0,021
-624,678	186,823	-0,016	0,017
-623,663	-40,968	-0,045	-0,017
-622,649	-172,081	-0,093	0,002
-621,634	-171,164	0,126	-0,003
-620,619	800,000	-0,031	-0,073
-619,605	-51,248	0,062	-0,022
-618,590	-200,000	-0,001	0,047
-617,576	-200,000	-0,007	-0,040
-616,561	59,482	0,019	-0,014
-615,546	594,189	0,024	0,044
-614,532	800,000	-0,074	-0,153
-613,517	-0,697	-0,155	-0,081
-612,503	311,860	0,052	0,072
-611,488	249,442	-0,013	0,016
-610,474	444,171	-0,112	0,183
-609,459	800,000	0,023	-0,068
-608,444	49,845	-0,128	-0,089
-607,430	182,336	-0,022	-0,024
-606,415	741,402	0,027	-0,053
-605,401	-183,422	0,066	-0,001
-604,386	-151,589	0,069	0,004
-603,371	73,411	-0,156	0,121
-602,357	-153,432	0,080	-0,004
-601,342	-52,105	0,069	-0,024
-600,328	-92,738	0,076	-0,016
-599,313	-200,000	-0,005	0,030
-598,298	800,000	-0,038	-0,093
-597,284	275,957	-0,088	0,116
-596,269	800,000	-0,030	-0,080
-595,255	65,870	-0,057	0,043
-594,240	194,400	0,067	0,075
-593,225	-89,592	-0,096	-0,021
-592,211	-55,384	-0,104	-0,035
-591,196	-200,000	-0,005	0,133
-590,182	710,946	-0,008	-0,015
-589,167	37,363	0,123	0,080
-588,152	204,642	-0,043	-0,049
-587,138	-200,000	0,013	-0,049
-586,123	-18,134	-0,062	-0,029
-585,109	-200,000	0,066	-0,231
-584,094	195,148	-0,010	0,011
-583,079	94,358	0,053	0,045
-582,065	800,000	-0,012	0,024
-581,050	800,000	0,026	0,081
-580,036	-79,826	-0,028	0,007
-579,021	800,000	0,053	-0,109
-578,006	168,312	0,008	0,009
-576,992	-200,000	0,002	-0,083
-575,977	800,000	0,050	0,104
-574,963	291,754	-0,043	-0,058
-573,948	27,155	-0,133	0,083
-572,934	-200,000	-0,009	0,044
-571,919	-95,593	-0,053	-0,010
-570,904	62,461	-0,079	0,058
-569,890	102,787	0,133	0,116
-568,875	-78,782	0,226	-0,057
-567,861	-200,000	-0,007	-0,025
-566,846	97,637	0,176	0,149
-565,831	-200,000	-0,029	0,107
-564,817	437,128	-0,037	0,060
-563,802	318,329	0,026	-0,036
-562,788	-200,000	-0,028	0,130
-561,773	91,668	0,018	-0,015
-560,758	133,759	-0,056	0,054
-559,744	152,046	0,033	0,033
-558,729	-69,720	0,095	-0,027
-557,715	245,026	0,016	-0,020
-556,700	549,546	0,035	0,063
-555,685	800,000	-0,055	-0,113
-554,671	322,297	-0,055	-0,078
-553,656	-200,000	-0,073	0,000
-552,642	134,090	0,137	0,132
-551,627	-200,000	0,022	0,123
-550,612	-43,436	-0,117	-0,043
-549,598	90,106	-0,036	-0,030
-548,583	-99,777	0,044	-0,008
-547,569	-146,523	0,144	-0,009
-546,554	800,000	-0,093	0,213
-545,539	338,683	0,057	0,083
-544,525	2,133	-0,090	0,048
-543,510	405,974	0,039	-0,061
-542,496	800,000	0,016	-0,041
-541,481	16,636	-0,095	-0,055
-540,466	181,933	-0,032	0,034
-539,452	-129,414	0,145	0,015
-538,437	-200,000	0,040	0,171
-537,423	528,829	0,027	0,047
-536,408	-129,821	-0,081	-0,008
-535,393	-200,000	-0,091	0,000
-534,379	722,631	-0,019	-0,038
-533,364	-200,000	0,007	0,040
-532,350	-200,000	0,004	0,065
-531,335	-200,000	0,003	-0,012
-530,321	608,399	0,064	0,119
-529,306	154,873	0,067	-0,068
-528,291	-200,000	-0,010	-0,060
-527,277	-200,000	-0,008	0,127
-526,262	-200,000	-0,036	0,123
-525,248	595,515	0,060	0,111
-524,233	800,000	0,010	-0,026
-523,218	-200,000	-0,004	-0,025
-522,204	139,677	-0,081	0,079
-521,189	-200,000	-0,007	-0,024
-520,175	574,999	0,009	0,017
-519,160	60,539	-0,069	0,051
-518,145	-117,660	0,040	-0,005
-517,131	-84,724	0,073	0,017
-516,116	-138,452	0,064	-0,005
-515,102	36,959	0,112	0,073
-514,087	800,000	-0,018	-0,036
-513,072	-200,000	-0,002	0,154
-512,058	238,342	-0,037	0,045
-511,043	-200,000	-0,001	0,004
-510,029	800,000	0,071	0,229
-509,014	800,000	-0,029	0,088
-507,999	-30,800	-0,049	-0,020
-506,985	-200,000	-0,030	-0,104
-505,970	800,000	-0,053	-0,116
-504,956	483,927	-0,071	-0,119
-503,941	-74,037	-0,125	-0,033
-502,926	-176,379	0,102	-0,002
-501,912	-29,617	0,126	0,053
-500,897	276,778	-0,040	-0,052
-499,883	-200,000	0,003	-0,091
-498,868	-81,969	0,038	0,009
-497,853	518,315	0,021	-0,036
-496,839	-140,015	0,134	0,010
-495,824	273,011	-0,031	-0,040
-494,810	-200,000	0,010	-0,085
-493,795	-42,243	-0,062	-0,023
-492,781	353,698	0,041	0,060
-491,766	-133,844	-0,138	-0,012
-490,751	119,356	0,087	-0,079
-489,737	570,093	-0,046	-0,082
-488,722	33,108	0,036	0,023
-487,708	-60,194	-0,078	0,025
-486,693	800,000	0,013	-0,030
-485,678	-42,152	-0,131	0,049
-484,664	-171,009	-0,072	0,002
-483,649	142,386	-0,105	-0,103
-482,635	-92,926	0,063	0,013
-481,620	-58,322	0,066	0,021
-480,605	-92,060	0,076	0,016
-479,591	-136,313	0,161	0,014
-478,576	399,779	-0,075	0,116
-477,562	560,115	-0,044	-0,079
-476,547	156,965	-0,082	-0,084
-475,532	38,718	-0,053	0,035
-474,518	117,716	-0,057	-0,052
-473,503	-200,000	0,003	0,073
-472,489	-200,000	0,003	0,022
-471,474	-5,959	-0,107	0,054
-470,459	-91,409	-0,137	0,029
-469,445	-200,000	-0,014	-0,068
-468,430	-200,000	-0,002	0,054
-467,416	-40,534	0,173	-0,066
-466,401	-71,729	-0,045	-0,012
-465,386	-129,639	-0,076	-0,008
-464,372	177,968	0,049	-0,052
-463,357	-200,000	0,000	0,054
-462,343	242,058	0,044	0,054
-461,328	495,344	-0,058	-0,099
-460,313	-200,000	-0,010	0,044
-459,299	-54,905	-0,079	0,026
-458,284	-200,000	0,037	0,222
-457,270	210,151	-0,054	0,063
-456,255	121,247	0,020	-0,019
-455,241	-12,958	0,073	-0,035
-454,226	58,543	-0,069	0,050
-453,211	102,092	0,045	-0,039
-452,197	-78,525	0,074	0,018
-451,182	47,650	0,033	0,023
-450,168	800,000	-0,046	0,107
-449,153	748,918	-0,015	0,030
-448,138	513,813	-0,038	0,066
-447,124	-169,376	0,097	-0,003
-446,109	175,274	-0,144	-0,154
-445,095	91,405	0,038	-0,031
-444,080	383,836	0,013	-0,019
-443,065	-100,833	-0,161	-0,029
-442,051	-200,000	0,019	-0,074
-441,036	-108,619	-0,006	0,001
-440,022	-63,535	-0,135	0,041
-439,007	-200,000	-0,019	0,063
-437,992	643,924	0,003	-0,006
-436,978	-200,000	-0,024	0,182
-435,963	-200,000	-0,028	0,106
-434,949	338,656	0,117	-0,168
-433,934	-147,959	-0,110	-0,007
-432,919	292,260	-0,045	-0,061
-431,905	499,522	0,100	-0,171
-430,890	492,276	-0,023	0,039
-429,876	186,461	-0,017	-0,019
-428,861	174,712	-0,041	0,044
-427,846	19,524	0,072	-0,042
-426,832	-200,000	0,010	-0,087
-425,817	-83,722	-0,081	0,019
-424,803	-200,000	-0,003	-0,024
-423,788	-200,000	-0,021	-0,074
-422,773	85,593	0,056	-0,045
-421,759	-99,689	0,023	-0,004
-420,744	27,172	0,085	-0,053
-419,730	10,679	-0,100	-0,056
-418,715	111,684	0,094	-0,084
-417,701	159,232	-0,135	-0,139
-416,686	51,058	0,041	0,029
-415,671	5,147	0,063	-0,034
-414,657	136,352	0,038	0,036
-413,642	291,412	0,071	-0,095
-412,628	192,655	-0,014	0,015
-411,613	800,000	-0,057	0,124
-410,598	-81,762	-0,040	-0,010
-409,584	-82,985	0,120	0,028
-408,569	398,515	0,048	0,074
-407,555	1,338	0,037	0,019
-406,540	210,751	-0,076	0,088
-405,525	-117,376	-0,073	-0,010
-404,511	-200,000	-0,009	-0,107
-403,496	22,744	0,074	0,045
-402,482	143,811	0,066	-0,064
-401,467	17,884	0,030	0,018
-400,452	295,686	-0,040	0,055
-399,438	149,991	0,053	0,053
-398,423	-54,021	-0,128	-0,043
-397,409	-30,452	-0,019	-0,008
-396,394	-200,000	0,000	-0,078
-395,379	289,637	0,080	-0,108
-394,365	-74,238	-0,069	-0,018
-393,350	800,000	0,015	0,046
-392,336	-86,658	0,065	-0,015
-391,321	260,587	-0,036	-0,046
-390,306	117,526	-0,125	-0,113
-389,292	800,000	0,052	-0,135
-388,277	-200,000	-0,011	0,171
-387,263	33,774	0,158	0,101
-386,248	107,743	0,051	-0,044
-385,233	72,387	-0,047	-0,036
-384,219	-200,000	-0,017	-0,113
-383,204	380,379	0,084	-0,127
-382,190	677,336	-0,037	0,071
-381,175	-200,000	-0,032	0,139
-380,160	-200,000	0,021	-0,086
-379,146	800,000	0,060	0,152
-378,131	474,601	0,074	0,123
-377,117	800,000	0,022	-0,070
-376,102	54,316	-0,077	-0,054
-375,088	-185,190	-0,288	-0,003
-374,073	-106,868	0,013	-0,002
-373,058	-148,569	0,128	-0,008
-372,044	73,984	0,071	-0,055
-371,029	-96,010	0,099	-0,019
-370,015	-45,887	0,039	-0,014
-369,000	250,074	0,117	-0,146
-367,985	23,753	-0,017	-0,011
-366,971	-185,904	0,105	0,001
-365,956	135,232	0,020	-0,020
-364,942	46,866	0,136	0,092
-363,927	-83,688	0,105	0,024
-362,912	1,520	0,035	0,018
-361,898	82,991	0,099	-0,079
-360,883	500,531	-0,041	-0,070
-359,869	-153,757	-0,041	-0,002
-358,854	147,437	0,098	-0,097
-357,839	-200,000	-0,005	0,062
-356,825	-79,424	0,048	-0,012
-355,810	395,359	0,071	-0,108
-354,796	800,000	0,020	0,058
-353,781	-61,755	-0,054	-0,017
-352,766	657,647	0,078	0,148
-351,752	-200,000	0,007	0,129
-350,737	-200,000	0,006	-0,069
-349,723	25,041	0,075	-0,046
-348,708	-77,600	0,123	0,031
-347,693	-58,445	-0,073	0,023
-346,679	586,149	0,022	-0,040
-345,664	-200,000	-0,012	0,092
-344,650	800,000	0,011	-0,032
-343,635	-33,461	-0,088	0,036
-342,620	100,332	0,067	0,057
-341,606	-200,000	0,011	0,051
-340,591	800,000	-0,037	-0,083
-339,577	-6,621	-0,091	-0,045
-338,562	282,694	0,047	0,062
-337,548	82,826	0,148	0,118
-336,533	22,400	0,123	-0,074
-335,518	800,000	-0,043	0,111
-334,504	-200,000	0,038	-0,209
-333,489	-200,000	0,005	0,037
-332,475	-103,185	-0,047	-0,008
-331,460	319,891	0,032	0,044
-330,445	-140,016	0,039	0,003
-329,431	95,223	0,013	-0,011
-328,416	-73,785	0,024	0,006
-327,402	-200,000	0,000	-0,107
-326,387	-200,000	0,008	0,063
-325,372	800,000	-0,009	-0,022
-324,358	205,792	-0,023	0,026
-323,343	40,984	-0,016	-0,011
-322,329	543,734	-0,009	-0,016
-321,314	-86,662	0,075	-0,017
-320,299	-105,822	-0,021	0,003
-319,285	-38,737	0,109	-0,042
-318,270	-96,187	-0,185	0,036
-317,256	-111,388	0,070	-0,010
-316,241	800,000	-0,030	0,091
-315,226	800,000	0,004	0,012
-314,212	-82,231	0,052	-0,012
-313,197	-78,735	0,118	-0,029
-312,183	-200,000	0,002	0,044
-311,168	280,739	-0,038	-0,050
-310,153	-200,000	-0,005	-0,139
-309,139	115,372	-0,019	0,017
-308,124	800,000	-0,026	0,075
-307,110	-97,532	-0,035	0,007
-306,095	-104,925	0,077	-0,013
-305,080	-200,000	-0,024	0,106
-304,066	635,003	0,027	-0,051
-303,051	-70,670	-0,137	-0,038
-302,037	100,704	-0,012	-0,010
-301,022	800,000	-0,022	0,050
-300,008	-25,831	-0,074	0,032
-298,993	800,000	-0,081	0,191
-297,978	-1,392	0,086	0,044
-296,964	243,276	-0,035	0,043
-295,949	-66,219	0,062	-0,018
-294,935	10,757	-0,051	-0,029
-293,920	25,657	-0,100	0,061
-292,905	245,378	0,049	-0,060
-291,891	43,112	-0,062	0,042
-290,876	800,000	0,011	-0,031
-289,862	148,103	-0,012	-0,011
-288,847	536,664	0,028	-0,049
-287,832	-200,000	-0,001	0,025
-286,818	533,609	-0,056	-0,098
-285,803	-38,831	-0,093	-0,036
-284,789	800,000	0,051	0,114
-283,774	-46,803	-0,042	0,015
-282,759	-200,000	-0,013	-0,181
-281,745	-200,000	0,008	-0,075
-280,730	-29,414	-0,028	0,011
-279,716	-121,013	-0,074	-0,009
-278,701	78,878	0,047	0,037
-277,686	-200,000	0,022	-0,075
-276,672	-77,319	0,110	-0,028
-275,657	-37,388	-0,018	-0,007
-274,643	-200,000	-0,028	-0,147
-273,628	-113,725	0,037	-0,005
-272,613	476,377	-0,002	0,004
-271,599	140,690	0,029	0,028
-270,584	-91,001	0,114	0,024
-269,570	-200,000	-0,013	0,176
-268,555	258,062	0,043	0,055
-267,540	-200,000	0,022	-0,126
-266,526	164,518	-0,044	0,046
-265,511	-200,000	0,002	-0,012
-264,497	-200,000	-0,042	-0,137
-263,482	-36,865	0,164	0,064
-262,467	800,000	0,018	-0,054
-261,453	311,650	-0,023	0,032
-260,438	297,702	-0,078	0,105
-259,424	159,192	-0,100	-0,102
-258,409	-200,000	0,005	-0,142
-257,395	-200,000	0,001	-0,034
-256,380	789,708	-0,053	0,107
-255,365	700,922	0,034	-0,066
-254,351	693,263	0,015	0,029
-253,336	800,000	0,033	-0,081
-252,322	-200,000	-0,016	-0,068
-251,307	13,910	-0,017	0,010
-250,292	31,227	0,004	0,003
-249,278	-178,224	0,114	-0,002
-248,263	24,195	-0,110	0,067
-247,249	-44,225	-0,151	0,055
-246,234	233,423	0,039	0,047
-245,219	716,976	-0,042	0,082
-244,205	399,818	-0,034	-0,053
-243,190	-193,270	-0,151	-0,001
-242,176	-200,000	-0,011	-0,168
-241,161	-97,471	0,020	0,004
-240,146	66,060	-0,073	0,054
-239,132	-147,740	-0,148	-0,009
-238,117	81,206	-0,088	-0,069
-237,103	160,247	-0,026	-0,026
-236,088	-29,288	0,146	-0,061
-235,073	800,000	-0,010	-0,025
-234,059	91,388	0,089	0,073
-233,044	-78,415	0,115	0,029
-232,030	734,775	-0,017	0,034
-231,015	304,312	-0,078	-0,106
-230,000	29,466	-0,145	-0,090
-228,986	-200,000	-0,011	-0,152
-227,971	-200,000	0,021	0,173
-226,957	264,603	0,052	0,067
-225,942	57,643	0,014	0,010
-224,927	800,000	-0,012	0,035
-223,913	-88,633	-0,089	-0,019
-222,898	-68,305	0,081	-0,023
-221,884	126,628	-0,080	-0,074
-220,869	-76,943	0,090	0,023
-219,855	800,000	-0,028	0,069
-218,840	84,267	0,129	0,103
-217,825	-32,130	0,120	0,049
-216,811	322,607	-0,089	-0,124
-215,796	-200,000	-0,012	-0,078
-214,782	-200,000	-0,010	-0,040
-213,767	-200,000	0,009	-0,073
-212,752	127,200	0,023	-0,021
-211,738	-200,000	0,006	0,096
-210,723	278,175	0,019	0,025
-209,709	-200,000	0,018	-0,096
-208,694	-200,000	0,029	0,126
-207,679	93,973	-0,034	0,028
-206,665	210,249	0,090	-0,104
-205,650	-46,093	0,014	0,005
-204,636	-112,979	0,020	0,003
-203,621	37,601	-0,044	-0,028
-202,606	678,041	0,021	-0,041
-201,592	-57,830	-0,053	-0,017
-200,577	-200,000	-0,021	-0,110
-199,563	286,448	-0,050	0,066
-198,548	-200,000	0,004	-0,032
-197,533	-91,843	-0,100	-0,021
-196,519	800,000	0,012	0,033
-195,504	150,203	-0,115	0,114
-194,490	-56,082	0,152	-0,049
-193,475	-113,971	0,088	0,012
-192,460	-66,997	0,072	-0,021
-191,446	-45,710	0,136	0,049
-190,431	-98,764	-0,133	-0,024
-189,417	-118,274	0,092	-0,012
-188,402	800,000	-0,037	0,117
-187,387	324,742	-0,070	-0,098
-186,373	-200,000	-0,001	0,006
-185,358	-103,267	0,135	-0,023
-184,344	178,181	0,076	0,081
-183,329	-37,689	0,143	0,055
-182,315	542,765	-0,043	0,075
-181,300	124,900	0,153	0,141
-180,285	-200,000	-0,017	-0,072
-179,271	408,146	-0,090	-0,140
-178,256	-200,000	-0,029	0,146
-177,242	6,602	0,055	-0,030
-176,227	-200,000	-0,010	0,072
-175,212	373,712	-0,028	0,041
-174,198	800,000	-0,074	0,151
-173,183	-27,832	-0,096	0,041
-172,169	10,466	-0,020	0,011
-171,154	-11,495	-0,074	0,035
-170,139	604,105	-0,069	-0,126
-169,125	-9,168	0,056	-0,027
-168,110	800,000	0,010	-0,027
-167,096	800,000	-0,037	0,105
-166,081	800,000	-0,040	-0,105
-165,066	585,283	0,086	-0,155
-164,052	22,258	-0,090	0,053
-163,037	17,630	0,116	-0,067
-162,023	307,897	-0,019	0,025
-161,008	-163,388	-0,036	0,001
-159,993	701,362	-0,044	-0,084
-158,979	800,000	-0,017	-0,037
-157,964	62,842	-0,139	0,101
-156,950	234,821	0,049	-0,059
-155,935	-20,535	-0,016	0,007
-154,920	-200,000	0,001	0,024
-153,906	-107,813	0,093	0,015
-152,891	-121,395	0,110	-0,013
-151,877	191,380	-0,147	-0,161
-150,862	800,000	-0,056	0,176
-149,847	-102,136	0,048	0,008
-148,833	47,798	-0,038	0,026
-147,818	-52,395	-0,038	0,013
-146,804	61,965	0,115	0,084
-145,789	-200,000	0,030	0,152
-144,775	126,106	-0,112	-0,104
-143,760	-197,956	-0,136	0,001
-142,745	-56,845	-0,144	-0,046
-141,731	-166,199	0,103	-0,003
-140,716	-57,459	-0,035	0,011
-139,702	-4,128	0,127	0,064
-138,687	-200,000	0,000	-0,031
-137,672	72,125	-0,074	-0,056
-136,658	298,494	-0,085	-0,115
-135,643	-177,440	0,041	-0,001
-134,629	-119,361	-0,030	0,004
-133,614	-200,000	0,027	-0,097
-132,599	-140,149	0,035	0,003
-131,585	800,000	-0,035	0,093
-130,570	800,000	-0,019	0,049
-129,556	800,000	-0,034	0,080
-128,541	48,281	-0,024	0,017
-127,526	-200,000	0,005	0,049
-126,512	-200,000	-0,019	-0,112
-125,497	56,127	0,058	0,041
-124,483	-200,000	0,043	0,176
-123,468	308,160	-0,021	-0,029
-122,453	-33,216	-0,102	0,041
-121,439	-200,000	0,003	-0,014
-120,424	800,000	-0,026	-0,054
-119,410	487,678	0,042	0,071
-118,395	800,000	-0,036	-0,113
-117,380	800,000	-0,025	-0,057
-116,366	315,106	-0,027	0,037
-115,351	-200,000	-0,013	-0,108
-114,337	144,259	-0,047	0,046
-113,322	69,214	-0,030	-0,022
-112,307	232,383	0,084	0,100
-111,293	208,863	0,142	0,162
-110,278	-117,261	0,046	0,006
-109,264	-10,894	0,085	0,041
-108,249	222,316	0,048	0,056
-107,234	-76,096	-0,108	-0,028
-106,220	800,000	-0,034	0,077
-105,205	-51,412	-0,094	-0,032
-104,191	-168,529	-0,126	-0,003
-103,176	32,108	-0,075	-0,047
-102,162	-79,143	-0,154	0,038
-101,147	266,746	-0,091	0,116
-100,132	800,000	0,095	-0,245
-99,118	191,430	0,062	-0,068
-98,103	-200,000	0,009	0,038
-97,089	-155,515	0,105	-0,005
-96,074	-75,114	0,060	0,015
-95,059	-200,000	0,014	0,048
-94,045	800,000	0,074	0,158
-93,030	298,306	0,030	0,041
-92,016	-200,000	0,013	-0,047
-91,001	-72,882	-0,089	-0,024
-89,986	421,829	-0,065	0,102
-88,972	95,021	-0,046	-0,038
-87,957	800,000	-0,007	-0,016
-86,943	524,793	-0,086	-0,148
-85,928	385,162	-0,068	-0,103
-84,913	80,717	0,064	-0,050
-83,899	-200,000	0,003	-0,096
-82,884	537,584	-0,053	0,092
-81,870	99,527	-0,039	0,033
-80,855	-153,432	0,039	-0,002
-79,840	293,458	0,085	0,113
-78,826	800,000	-0,025	0,068
-77,811	105,696	-0,054	-0,047
-76,797	272,197	-0,050	0,064
-75,782	-200,000	-0,023	-0,106
-74,767	-200,000	-0,032	0,128
-73,753	-200,000	-0,022	0,073
-72,738	390,566	0,066	0,100
-71,724	-200,000	0,022	-0,090
-70,709	-200,000	-0,039	-0,135
-69,694	192,097	0,059	-0,064
-68,680	98,763	-0,085	-0,071
-67,665	-200,000	-0,001	0,106
-66,651	281,633	0,027	0,036
-65,636	13,524	-0,077	-0,043
-64,622	300,827	0,038	-0,051
-63,607	81,323	-0,078	-0,061
-62,592	151,032	0,049	-0,049
-61,578	800,000	-0,034	0,105
-60,563	-81,746	0,012	0,003
-59,549	-200,000	-0,007	0,058
-58,534	-98,909	-1,303	-0,238
-57,519	659,011	-0,860	-1,613
-56,505	-200,000	-0,949	-4,321
-55,490	69,944	0,495	-0,371
-54,476	800,000	5,040	11,830
-53,461	-200,000	14,022	254,098
-52,446	-200,000	692,028	2254,560
-51,432	585,467	1623,711	2908,954
-50,417	118,344	1634,331	1463,119
-49,403	73,010	1288,615	976,165
-48,388	37,742	1024,258	658,788
-47,373	24,150	982,059	586,916
-46,359	23,328	971,781	578,051
-45,344	22,392	967,160	572,221
-44,330	22,279	965,835	571,046
-43,315	22,191	964,533	569,966
-42,300	22,163	963,499	569,239
-41,286	22,148	962,439	568,543
-40,271	22,159	961,585	568,053
-39,257	22,121	960,675	567,368
-38,242	22,158	959,596	566,826
-37,227	22,209	958,686	566,432
-36,213	22,087	957,958	565,586
-35,198	22,087	957,263	565,153
-34,184	22,163	956,375	564,853
-33,169	22,125	955,519	564,202
-32,154	22,181	954,690	563,868
-31,140	22,171	953,695	563,228
-30,125	22,233	952,872	562,921
-29,111	22,204	952,015	562,298
-28,096	22,207	951,259	561,838
-27,082	22,165	950,692	561,345
-26,067	22,209	949,999	561,056
-25,052	22,137	949,213	560,339
-24,038	22,137	948,639	559,977
-23,023	22,163	947,873	559,587
-22,009	22,197	947,488	559,445
-20,994	22,260	946,602	559,101
-19,979	22,160	946,081	558,451
-18,965	22,177	945,538	558,165
-17,950	22,142	944,898	557,653
-16,936	22,090	944,251	557,081
-15,921	22,112	943,450	556,658
-14,906	22,098	942,584	556,079
-13,892	22,003	942,135	555,490
-12,877	22,001	941,578	555,133
-11,863	21,976	940,943	554,658
-10,848	22,015	940,401	554,439
-9,833	22,116	939,963	554,481
-8,819	22,108	939,142	553,950
-7,804	22,064	938,583	553,458
-6,790	22,052	938,005	553,058
-5,775	22,086	937,301	552,728
-4,760	22,087	936,654	552,329
-3,746	22,016	936,202	551,815
-2,731	21,924	935,362	551,005
-1,717	21,849	934,798	550,416
-0,702	21,838	934,103	549,951
0,313	21,639	933,511	549,803
1,327	24,812	931,441	558,519
2,342	34,339	795,957	502,660
3,356	32,155	451,837	282,024
4,371	1,239	294,363	152,806
5,386	-3,327	275,283	138,556
6,400	-5,005	269,475	134,061
7,415	-5,295	266,980	132,540
8,429	-5,130	265,708	132,047
9,444	-4,963	264,904	131,789
10,459	-4,962	264,298	131,476
11,473	-5,027	263,624	131,071
12,488	-5,254	263,255	130,669
13,502	-5,312	262,708	130,333
14,517	-5,399	262,388	130,084
15,531	-5,206	261,927	130,019
16,546	-5,093	261,670	129,981
17,561	-5,004	261,120	129,777
18,575	-5,033	260,817	129,589
19,590	-4,978	260,566	129,502
20,604	-5,010	260,280	129,319
21,619	-4,970	259,903	129,157
22,634	-5,031	259,518	128,899
23,648	-5,082	259,338	128,753
24,663	-5,027	259,113	128,679
25,677	-5,112	258,946	128,508
26,692	-5,181	258,621	128,274
27,707	-5,139	258,465	128,222
28,721	-5,084	258,005	128,032
29,736	-5,104	257,826	127,913
30,750	-5,187	257,580	127,707
31,765	-5,218	257,388	127,572
32,780	-5,160	257,072	127,456
33,794	-5,212	256,880	127,303
34,809	-5,163	256,707	127,249
35,823	-5,180	256,464	127,103
36,838	-5,273	256,073	126,816
37,853	-5,187	255,986	126,837
38,867	-5,148	255,656	126,697
39,882	-5,167	255,575	126,628
40,896	-5,289	255,267	126,357
41,911	-5,113	254,968	126,352
42,926	-5,204	254,713	126,135
43,940	-5,281	254,593	125,997
44,955	-5,315	254,413	125,867
45,969	-5,172	254,029	125,791
46,984	-5,525	253,876	125,395
47,999	-5,622	253,540	125,133
49,013	-5,882	253,397	124,825
50,028	-5,749	252,990	124,729
51,042	-5,928	252,832	124,484
52,057	-6,058	252,624	124,258
53,071	-6,053	252,628	124,253
54,086	-5,888	252,330	124,239
55,101	-5,730	252,272	124,336
56,115	-5,546	252,005	124,353
57,130	-5,014	251,803	124,702
58,144	-4,993	251,760	124,689
59,159	-4,870	251,487	124,649
60,174	-4,964	251,254	124,441
61,188	-4,877	250,973	124,366
62,203	-5,033	250,870	124,169
63,217	-5,147	250,746	123,998
64,232	-5,107	250,394	123,848
65,247	-5,143	250,267	123,743
66,261	-5,054	249,999	123,676
67,276	-5,162	249,631	123,390
68,290	-5,388	249,423	123,082
69,305	-5,788	249,392	122,713
70,320	-5,520	249,016	122,747
71,334	-5,251	249,034	122,975
72,349	-4,966	248,873	123,128
73,363	-4,928	248,644	123,036
74,378	-4,950	248,477	122,924
75,393	-5,081	248,268	122,698
76,407	-5,080	248,037	122,574
77,422	-5,261	247,853	122,318
78,436	-5,040	247,700	122,419
79,451	-5,109	247,426	122,215
80,466	-5,291	247,204	121,939
81,480	-5,106	246,915	121,943
82,495	-5,345	246,909	121,726
83,509	-5,408	246,556	121,488
84,524	-5,327	246,406	121,472
85,539	-5,464	246,250	121,268
86,553	-5,587	246,019	121,040
87,568	-5,387	245,699	121,040
88,582	-5,245	245,720	121,159
89,597	-5,460	245,464	120,842
90,611	-5,230	245,371	120,978
91,626	-5,037	245,127	121,009
92,641	-5,194	244,974	120,791
93,655	-5,165	244,720	120,680
94,670	-5,238	244,686	120,591
95,684	-5,193	244,455	120,504
96,699	-5,349	244,155	120,215
97,714	-5,443	244,022	120,060
98,728	-5,355	243,734	119,981
99,743	-5,468	243,595	119,807
100,757	-5,572	243,403	119,616
101,772	-5,610	243,238	119,493
102,787	-5,427	243,107	119,570
103,801	-5,325	242,771	119,478
104,816	-5,483	242,764	119,333
105,830	-5,245	242,684	119,481
106,845	-5,053	242,432	119,506
107,860	-5,312	242,276	119,203
108,874	-5,332	242,018	119,050
109,889	-5,304	241,763	118,937
110,903	-5,256	241,623	118,896
111,918	-5,305	241,493	118,781
112,933	-5,440	241,478	118,652
113,947	-5,149	241,194	118,742
114,962	-5,202	240,961	118,573
115,976	-5,333	240,834	118,392
116,991	-5,218	240,587	118,355
118,006	-5,178	240,484	118,326
119,020	-5,192	240,321	118,224
120,035	-5,379	240,314	118,056
121,049	-5,160	240,125	118,133
122,064	-5,218	239,901	117,965
123,079	-5,403	239,721	117,714
124,093	-5,268	239,529	117,720
125,108	-5,420	239,162	117,405
126,122	-5,505	238,975	117,233
127,137	-5,705	239,003	117,072
128,151	-5,566	238,624	116,990
129,166	-5,331	238,310	117,017
130,181	-5,466	238,189	116,838
131,195	-5,575	238,099	116,694
132,210	-5,245	237,953	116,880
133,224	-5,247	237,824	116,805
134,239	-5,473	237,714	116,557
135,254	-5,206	237,483	116,650
136,268	-5,440	237,307	116,363
137,283	-5,313	236,953	116,282
138,297	-5,742	236,880	115,889
139,312	-5,720	236,558	115,739
140,327	-5,267	236,536	116,084
141,341	-5,031	236,537	116,265
142,356	-4,977	236,375	116,218
143,370	-4,732	236,203	116,321
144,385	-4,805	236,027	116,164
145,400	-4,889	235,760	115,955
146,414	-4,734	235,725	116,053
147,429	-4,866	235,457	115,804
148,443	-5,104	235,562	115,654
149,458	-4,970	235,301	115,623
150,473	-4,868	234,952	115,523
151,487	-5,036	234,972	115,388
152,502	-5,073	234,700	115,215
153,516	-4,886	234,628	115,319
154,531	-4,965	234,364	115,116
155,546	-5,095	234,270	114,955
156,560	-4,934	234,097	114,989
157,575	-5,224	233,707	114,556
158,589	-5,061	233,578	114,612
159,604	-4,885	233,641	114,773
160,619	-4,953	233,484	114,632
161,633	-4,678	233,188	114,695
162,648	-4,735	233,129	114,610
163,662	-5,029	232,976	114,291
164,677	-5,029	232,606	114,099
165,692	-4,970	232,646	114,156
166,706	-4,772	232,539	114,249
167,721	-4,702	232,420	114,237
168,735	-4,884	232,270	114,009
169,750	-4,710	231,779	113,895
170,764	-5,047	231,881	113,668
171,779	-5,024	231,725	113,601
172,794	-5,151	231,532	113,395
173,808	-5,142	231,335	113,296
174,823	-5,424	230,928	112,865
175,837	-5,493	230,840	112,757
176,852	-5,205	230,909	113,007
177,867	-4,847	230,640	113,147
178,881	-5,095	230,704	112,973
179,896	-4,903	230,466	112,997
180,910	-4,576	230,209	113,117
181,925	-4,760	230,180	112,949
182,940	-4,656	229,906	112,886
183,954	-4,863	229,969	112,745
184,969	-4,417	229,668	112,935
185,983	-4,538	229,473	112,735
186,998	-4,723	229,448	112,568
188,013	-4,715	229,253	112,469
189,027	-4,634	229,173	112,483
190,042	-4,843	228,858	112,156
191,056	-4,697	228,769	112,215
192,071	-4,843	228,673	112,045
193,086	-4,990	228,517	111,844
194,100	-4,588	228,276	112,028
195,115	-5,169	227,828	111,348
196,129	-5,805	227,592	110,731
197,144	-2,435	228,911	113,982
198,159	2,090	230,096	118,088
199,173	4,197	230,542	119,948
200,188	4,352	230,374	119,970
201,202	4,220	230,298	119,818
202,217	4,583	230,150	120,011
203,232	4,752	229,999	120,053
204,246	4,764	229,988	120,046
205,261	4,667	229,769	119,846
206,275	4,963	229,656	120,005
207,290	4,838	229,684	119,913
208,304	4,956	229,452	119,872
209,319	4,901	229,180	119,677
210,334	4,828	228,941	119,485
211,348	4,519	228,838	119,182
212,363	4,345	228,553	118,889
213,377	3,975	228,366	118,496
214,392	3,983	228,197	118,404
215,407	4,071	228,059	118,389
216,421	4,123	227,834	118,302
217,436	3,977	227,637	118,077
218,450	3,870	227,462	117,894
219,465	3,802	227,236	117,714
220,480	3,779	227,185	117,660
221,494	3,899	227,084	117,689
222,509	4,054	226,952	117,729
223,523	4,035	226,877	117,664
224,538	3,908	226,674	117,452
225,553	3,949	226,540	117,403
226,567	4,268	226,241	117,480
227,582	4,322	226,430	117,609
228,596	4,478	226,192	117,594
229,611	4,137	226,069	117,260
230,626	3,988	225,808	117,001
231,640	3,995	225,570	116,873
232,655	4,237	225,501	117,011
233,669	4,676	225,483	117,324
234,684	4,732	225,292	117,256
235,699	4,564	225,198	117,070
236,713	3,939	225,007	116,487
237,728	3,966	224,720	116,348
238,742	3,968	224,495	116,223
239,757	3,984	224,405	116,178
240,772	4,137	224,302	116,230
241,786	3,977	224,294	116,094
242,801	4,430	224,050	116,299
243,815	4,654	223,968	116,414
244,830	4,488	223,896	116,242
245,844	4,222	223,559	115,857
246,859	4,122	223,454	115,717
247,874	4,345	223,399	115,845
248,888	4,538	223,233	115,894
249,903	4,282	223,023	115,582
250,917	4,355	222,856	115,540
251,932	4,129	222,687	115,274
252,947	4,201	222,500	115,221
253,961	3,870	222,421	114,921
254,976	4,119	222,228	114,998
255,990	4,239	222,167	115,046
257,005	4,220	222,052	114,961
258,020	4,439	221,941	115,057
259,034	4,379	221,921	114,991
260,049	4,359	221,700	114,852
261,063	4,305	221,522	114,710
262,078	4,472	221,423	114,772
263,093	4,523	221,302	114,737
264,107	4,369	221,019	114,465
265,122	4,333	220,979	114,409
266,136	4,430	220,942	114,451
267,151	4,599	220,698	114,439
268,166	4,007	220,466	113,871
269,180	3,834	220,360	113,678
270,195	3,770	220,179	113,527
271,209	3,908	219,961	113,506
272,224	4,017	219,933	113,562
273,239	4,393	219,618	113,666
274,253	4,029	219,427	113,290
275,268	3,895	219,458	113,197
276,282	3,789	219,166	112,958
277,297	3,768	219,071	112,884
278,312	3,725	219,021	112,817
279,326	3,965	218,784	112,860
280,341	3,836	218,790	112,758
281,355	3,961	218,596	112,740
282,370	3,981	218,510	112,701
283,384	3,851	218,395	112,536
284,399	3,933	218,038	112,402
285,414	3,903	218,023	112,362
286,428	4,003	218,049	112,439
287,443	4,057	217,884	112,383
288,457	3,936	217,721	112,201
289,472	4,195	217,494	112,262
290,487	3,561	217,288	111,684
291,501	3,860	216,922	111,704
292,516	3,938	216,804	111,690
293,530	3,821	216,872	111,629
294,545	3,677	216,783	111,469
295,560	4,040	216,675	111,667
296,574	3,983	216,527	111,540
297,589	3,944	216,244	111,356
298,603	3,900	216,375	111,381
299,618	4,118	216,172	111,425
300,633	3,920	216,023	111,195
301,647	4,264	215,886	111,363
302,662	4,203	215,801	111,265
303,676	4,256	215,603	111,192
304,691	4,245	215,576	111,159
305,706	4,397	215,376	111,156
306,720	4,122	215,267	110,892
307,735	3,949	215,118	110,680
308,749	4,098	214,855	110,643
309,764	4,253	214,691	110,659
310,779	4,549	214,509	110,768
311,793	4,405	214,455	110,627
312,808	4,176	214,338	110,393
313,822	4,196	214,113	110,282
314,837	3,794	214,167	110,012
315,852	3,830	213,886	109,883
316,866	3,904	213,845	109,905
317,881	4,170	213,625	109,972
318,895	4,258	213,620	110,023
319,910	4,260	213,408	109,905
320,925	3,852	213,129	109,461
321,939	3,465	212,999	109,109
322,954	3,568	212,833	109,088
323,968	4,253	212,694	109,493
324,983	4,201	212,709	109,455
325,997	4,242	212,665	109,451
327,012	4,039	212,531	109,228
328,027	4,144	212,280	109,164
329,041	4,523	212,241	109,403
330,056	4,848	211,956	109,476
331,070	4,054	211,921	108,887
332,085	3,909	211,711	108,666
333,100	3,938	211,547	108,593
334,114	4,110	211,455	108,657
335,129	3,800	211,375	108,389
336,143	3,908	211,127	108,328
337,158	3,653	211,026	108,086
338,173	3,895	210,860	108,162
339,187	4,040	210,645	108,144
340,202	3,785	210,525	107,894
341,216	3,580	210,397	107,674
342,231	3,896	210,199	107,785
343,246	3,769	210,242	107,709
344,260	3,963	210,024	107,723
345,275	3,852	210,061	107,655
346,289	3,881	209,886	107,576
347,304	4,172	209,734	107,692
348,319	4,053	209,623	107,542
349,333	3,979	209,507	107,421
350,348	4,180	209,242	107,416
351,362	4,385	209,338	107,599
352,377	4,325	209,166	107,459
353,392	4,128	208,979	107,216
354,406	4,225	208,803	107,184
355,421	194,106	1343,467	1432,851
356,435	154,908	1481,809	1432,981
