DTS Sentinel unit serial number:	SN410029Multiplexer serial number:	ORYXHardware model number:	OX2-SRSoftware version number:	ORYX F/W v4,00 Oryx Data Collector v3.7.2.0data status	okinstallation	B6 Nyhavnadifferential loss correction	single-endedforward channel	channel 2reverse channel	N/Adate	2023/12/07time	13:40:08forward acquisition time	300,00reverse acquisition time	0,00gamma	499,1914k internal	0,3201k external	0,3201temperature offset calibration	1,0000default loss term (dB/km)	0,3820temperature slope calibration	1,0000multiplexer offset coefficient	1,0000multiplexer slope coefficient	1,0000fibre end	0,00T internal ref (°C)	12,47T ext. ref 1 (°C)	-1,60T ext. ref 2 (°C)	-1,60length (m)	temperature (°C)	Stokes	anti-Stokes-744,400	-131,484	0,102	-0,010
-743,385	-88,647	-0,323	-0,069
-742,371	-62,283	0,155	0,047
-741,356	-95,020	-0,318	-0,062
-740,342	276,899	0,109	0,141
-739,327	-192,230	-0,254	-0,002
-738,312	-143,077	0,136	0,009
-737,298	21,987	-0,297	-0,176
-736,283	4,262	0,145	0,077
-735,269	-198,547	-0,293	-0,001
-734,254	794,185	0,054	0,109
-733,239	-29,685	-0,536	-0,221
-732,225	-124,774	0,227	-0,025
-731,210	183,609	-0,070	0,076
-730,196	800,000	0,031	-0,081
-729,181	800,000	-0,061	0,127
-728,167	-200,000	0,004	-0,040
-727,152	-108,513	0,038	-0,006
-726,137	-163,086	-0,185	0,006
-725,123	-200,000	-0,002	-0,189
-724,108	90,992	-0,077	-0,063
-723,094	118,076	-0,049	-0,043
-722,079	-200,000	-0,033	-0,199
-721,064	-94,569	0,142	-0,028
-720,050	-196,607	0,021	0,000
-719,035	-127,573	-0,193	-0,020
-718,021	504,567	-0,058	-0,097
-717,006	-200,000	0,004	-0,036
-715,991	328,510	-0,093	-0,130
-714,977	5,343	-0,126	-0,067
-713,962	143,607	0,050	0,049
-712,948	621,834	0,024	-0,043
-711,933	37,151	-0,030	0,019
-710,918	196,431	-0,020	0,022
-709,904	-200,000	-0,034	-0,121
-708,889	-70,241	-0,048	-0,013
-707,875	345,309	0,056	-0,080
-706,860	-200,000	0,020	-0,131
-705,845	74,098	-0,079	0,060
-704,831	244,051	-0,086	0,105
-703,816	2,951	0,111	0,059
-702,802	90,285	-0,090	-0,073
-701,787	-200,000	0,005	-0,059
-700,772	-120,575	-0,073	-0,009
-699,758	-15,108	-0,047	-0,022
-698,743	37,680	0,161	-0,103
-697,729	800,000	0,020	0,042
-696,714	8,637	0,056	0,031
-695,699	800,000	-0,028	-0,068
-694,685	-106,634	-0,117	-0,019
-693,670	800,000	0,018	-0,052
-692,656	800,000	0,056	-0,121
-691,641	40,979	-0,075	-0,049
-690,627	-200,000	0,001	0,123
-689,612	-200,000	-0,040	0,196
-688,597	-54,922	-0,109	-0,035
-687,583	293,768	-0,100	-0,133
-686,568	-20,760	0,092	0,041
-685,554	711,697	-0,061	0,118
-684,539	284,771	0,088	-0,116
-683,524	-58,931	0,070	-0,022
-682,510	-91,299	0,088	0,018
-681,495	-140,201	0,076	0,006
-680,481	-200,000	-0,038	-0,186
-679,466	324,043	-0,127	-0,177
-678,451	193,417	0,056	0,061
-677,437	-13,793	0,028	0,013
-676,422	800,000	0,048	0,122
-675,408	-139,818	-0,023	-0,002
-674,393	-37,274	0,068	0,026
-673,378	-132,726	-0,074	0,007
-672,364	63,655	0,052	-0,038
-671,349	-128,184	0,085	-0,009
-670,335	303,361	0,048	-0,065
-669,320	-200,000	-0,000	0,065
-668,305	-200,000	-0,039	-0,141
-667,291	-40,321	-0,036	0,013
-666,276	-51,643	-0,073	0,024
-665,262	480,804	0,087	-0,143
-664,247	-93,297	-0,160	0,032
-663,232	-147,019	-0,095	-0,006
-662,218	-200,000	0,003	0,021
-661,203	-200,000	0,016	0,054
-660,189	-200,000	-0,007	0,096
-659,174	16,789	-0,075	-0,043
-658,159	-35,132	-0,035	0,014
-657,145	440,322	-0,097	-0,154
-656,130	299,871	-0,077	-0,104
-655,116	800,000	-0,033	-0,086
-654,101	-200,000	0,008	0,031
-653,086	-200,000	-0,008	0,081
-652,072	-200,000	0,026	-0,120
-651,057	-30,106	-0,058	-0,024
-650,043	-200,000	0,004	-0,092
-649,028	-38,290	0,085	-0,032
-648,014	-76,045	-0,042	-0,011
-646,999	-88,334	0,141	-0,030
-645,984	-142,289	-0,087	-0,006
-644,970	12,940	-0,188	0,105
-643,955	-200,000	0,031	-0,143
-642,941	-200,000	-0,021	-0,078
-641,926	-200,000	-0,000	0,059
-640,911	-200,000	0,002	-0,011
-639,897	800,000	-0,078	-0,227
-638,882	-129,267	0,141	0,014
-637,868	546,060	-0,018	-0,032
-636,853	-36,304	-0,032	0,013
-635,838	160,036	0,016	-0,017
-634,824	42,968	-0,047	0,031
-633,809	-6,798	0,110	0,054
-632,795	-62,434	0,198	0,059
-631,780	151,293	0,111	0,109
-630,765	88,459	0,124	-0,099
-629,751	128,866	-0,106	-0,098
-628,736	-200,000	-0,043	-0,209
-627,722	-69,878	-0,101	0,028
-626,707	-200,000	0,012	-0,065
-625,692	-71,961	-0,057	-0,015
-624,678	53,835	-0,083	0,058
-623,663	21,926	0,090	-0,053
-622,649	273,983	-0,074	-0,095
-621,634	35,759	0,030	0,019
-620,619	28,840	-0,018	0,011
-619,605	800,000	0,015	-0,035
-618,590	461,477	-0,041	-0,066
-617,576	-7,683	0,034	0,017
-616,561	186,945	0,036	-0,039
-615,546	-200,000	0,018	-0,093
-614,532	800,000	-0,048	-0,149
-613,517	-200,000	-0,020	-0,094
-612,503	614,955	-0,011	-0,020
-611,488	-200,000	-0,003	0,140
-610,474	-86,790	0,113	0,025
-609,459	-159,352	-0,038	-0,001
-608,444	457,759	0,065	-0,105
-607,430	226,925	-0,045	-0,052
-606,415	715,468	-0,050	-0,096
-605,401	153,019	0,059	-0,058
-604,386	-141,810	0,112	-0,008
-603,371	800,000	0,037	0,109
-602,357	-140,800	-0,088	0,006
-601,342	-200,000	0,023	-0,112
-600,328	701,669	0,068	-0,130
-599,313	800,000	-0,015	-0,047
-598,298	-200,000	0,031	0,135
-597,284	-158,775	0,086	0,003
-596,269	-200,000	0,038	0,120
-595,255	800,000	0,020	0,053
-594,240	80,347	-0,105	-0,081
-593,225	375,165	-0,011	-0,016
-592,211	104,092	-0,026	-0,022
-591,196	-200,000	-0,003	0,048
-590,182	-86,689	-0,186	-0,041
-589,167	-66,442	0,079	0,023
-588,152	-65,557	-0,118	-0,034
-587,138	-16,057	0,055	-0,025
-586,123	609,329	-0,071	-0,129
-585,109	-149,865	0,091	-0,005
-584,094	33,792	0,069	-0,043
-583,079	273,996	0,071	0,090
-582,065	194,298	0,057	0,063
-581,050	800,000	0,042	-0,110
-580,036	-92,504	-0,037	-0,007
-579,021	-176,190	-0,135	0,003
-578,006	-200,000	0,010	-0,048
-576,992	533,053	0,004	0,006
-575,977	169,151	-0,077	-0,079
-574,963	-200,000	0,012	-0,049
-573,948	-74,220	-0,121	-0,031
-572,934	275,623	0,077	0,099
-571,919	64,348	0,073	-0,053
-570,904	-30,448	-0,137	-0,056
-569,890	-117,609	-0,085	0,011
-568,875	-200,000	0,016	0,061
-567,861	800,000	0,045	0,120
-566,846	34,044	-0,086	-0,054
-565,831	-110,750	0,080	-0,012
-564,817	41,006	-0,110	-0,071
-563,802	-116,200	0,033	0,004
-562,788	-200,000	-0,000	0,026
-561,773	-200,000	0,020	0,073
-560,758	-200,000	0,005	-0,111
-559,744	-200,000	0,042	-0,187
-558,729	-96,570	-0,122	0,023
-557,715	-8,580	0,099	0,048
-556,700	-126,205	-0,199	-0,021
-555,685	800,000	0,028	0,081
-554,671	-200,000	0,023	-0,114
-553,656	-200,000	-0,006	-0,019
-552,642	179,204	0,107	0,113
-551,627	154,459	-0,081	-0,081
-550,612	-200,000	-0,017	-0,077
-549,598	193,739	-0,040	0,044
-548,583	-80,293	-0,125	0,030
-547,569	-200,000	-0,001	-0,010
-546,554	171,342	0,074	0,076
-545,539	800,000	-0,018	0,039
-544,525	81,027	0,117	0,091
-543,510	-90,036	0,022	0,005
-542,496	800,000	-0,010	-0,021
-541,481	-22,552	-0,119	-0,052
-540,466	349,855	-0,037	-0,053
-539,452	-200,000	-0,005	-0,019
-538,437	-200,000	0,018	0,081
-537,423	-17,020	0,039	0,018
-536,408	-125,487	0,066	-0,007
-535,393	-200,000	-0,014	-0,270
-534,379	-129,665	-0,076	-0,007
-533,364	255,300	-0,028	-0,035
-532,350	7,877	0,087	0,047
-531,335	-24,865	-0,113	0,048
-530,321	311,049	-0,033	0,044
-529,306	-200,000	-0,006	0,120
-528,291	142,745	-0,031	-0,030
-527,277	126,575	-0,065	0,060
-526,262	652,009	0,072	-0,134
-525,248	354,610	0,057	0,082
-524,233	522,410	-0,056	0,096
-523,218	-1,374	-0,014	-0,007
-522,204	141,662	-0,095	-0,090
-521,189	-200,000	0,001	-0,025
-520,175	-180,606	-0,111	-0,002
-519,160	127,622	0,027	-0,024
-518,145	625,002	0,005	-0,010
-517,131	-130,385	-0,037	0,004
-516,116	-11,882	-0,083	0,039
-515,102	-39,300	-0,063	-0,024
-514,087	392,519	-0,055	-0,083
-513,072	125,270	-0,095	-0,087
-512,058	40,073	-0,021	0,014
-511,043	-200,000	0,007	-0,030
-510,029	800,000	0,041	0,086
-509,014	238,129	-0,047	0,056
-507,999	465,836	-0,023	0,037
-506,985	156,204	-0,110	0,110
-505,970	30,061	0,093	0,057
-504,956	13,665	-0,122	-0,068
-503,941	68,976	0,057	0,042
-502,926	-72,133	-0,109	0,029
-501,912	800,000	-0,034	0,081
-500,897	-200,000	0,003	0,083
-499,883	308,438	0,025	0,034
-498,868	800,000	-0,022	-0,056
-497,853	800,000	0,022	0,046
-496,839	240,260	0,047	0,057
-495,824	-200,000	0,034	-0,167
-494,810	-200,000	0,002	-0,028
-493,795	-200,000	0,021	0,108
-492,781	112,946	-0,034	0,030
-491,766	-74,455	0,066	-0,017
-490,751	-99,362	0,087	-0,016
-489,737	800,000	0,034	-0,070
-488,722	-131,030	0,089	0,008
-487,708	-200,000	0,007	0,064
-486,693	10,760	-0,086	-0,047
-485,678	800,000	-0,027	-0,077
-484,664	-200,000	-0,022	-0,113
-483,649	-105,105	-0,043	-0,007
-482,635	-122,428	0,074	-0,009
-481,620	-200,000	0,045	0,150
-480,605	800,000	0,036	0,087
-479,591	-200,000	0,000	0,018
-478,576	-131,113	0,081	0,008
-477,562	386,316	0,106	-0,159
-476,547	800,000	0,030	-0,063
-475,532	-70,682	-0,133	-0,036
-474,518	-139,467	0,115	0,009
-473,503	-181,319	0,108	-0,001
-472,489	-200,000	0,010	0,061
-471,474	483,528	-0,027	-0,044
-470,459	213,180	-0,077	0,088
-469,445	144,238	0,051	-0,049
-468,430	-200,000	-0,013	0,042
-467,416	-200,000	0,001	0,164
-466,401	38,929	-0,073	0,047
-465,386	-200,000	0,121	0,000
-464,372	133,145	0,041	-0,038
-463,357	-30,034	-0,071	-0,029
-462,343	678,560	-0,006	0,011
-461,328	420,691	-0,046	-0,071
-460,313	764,450	-0,080	-0,157
-459,299	-149,696	0,114	-0,006
-458,284	3,064	-0,101	0,053
-457,270	343,104	-0,024	0,034
-456,255	-128,719	-0,036	-0,004
-455,241	-135,486	-0,072	0,006
-454,226	85,883	-0,065	0,051
-453,211	211,218	0,083	0,094
-452,197	-133,738	0,201	0,018
-451,182	-200,000	0,007	0,112
-450,168	267,463	-0,062	-0,078
-449,153	-200,000	0,008	-0,041
-448,138	-105,074	-0,032	-0,005
-447,124	-200,000	-0,020	-0,068
-446,109	800,000	0,041	-0,103
-445,095	-150,478	0,075	-0,004
-444,080	95,943	-0,028	-0,023
-443,065	-91,432	0,022	0,005
-442,051	800,000	0,040	0,105
-441,036	159,984	-0,099	-0,099
-440,022	100,565	-0,034	0,028
-439,007	-200,000	-0,016	-0,146
-437,992	-27,139	0,114	0,047
-436,978	214,569	0,119	0,135
-435,963	-93,816	-0,110	0,022
-434,949	-200,000	0,012	-0,045
-433,934	229,354	-0,078	-0,092
-432,919	5,787	0,062	0,033
-431,905	363,297	-0,063	-0,091
-430,890	-175,626	0,075	0,001
-429,876	-200,000	-0,005	0,016
-428,861	130,676	-0,036	0,034
-427,846	-1,634	0,025	0,013
-426,832	-107,520	-0,125	-0,019
-425,817	77,117	0,037	-0,028
-424,803	62,115	0,074	0,053
-423,788	-27,792	-0,037	-0,015
-422,773	268,946	0,053	-0,067
-421,759	157,723	-0,057	0,057
-420,744	800,000	0,027	-0,055
-419,730	-98,067	-0,145	-0,027
-418,715	432,460	-0,054	-0,084
-417,701	-200,000	0,038	-0,161
-416,686	-147,365	-0,111	-0,007
-415,671	162,947	0,040	-0,040
-414,657	-154,087	0,094	-0,005
-413,642	433,663	-0,012	-0,019
-412,628	45,596	-0,109	-0,072
-411,613	-158,423	0,061	0,002
-410,598	379,819	-0,095	0,140
-409,584	313,504	0,073	0,099
-408,569	5,406	-0,021	-0,011
-407,555	-200,000	-0,002	0,160
-406,540	-147,831	0,152	-0,009
-405,525	800,000	-0,036	-0,092
-404,511	-21,664	-0,145	-0,063
-403,496	-200,000	0,050	0,183
-402,482	220,957	-0,026	0,030
-401,467	-200,000	0,018	-0,096
-400,452	130,939	-0,027	0,025
-399,438	-200,000	0,008	-0,026
-398,423	800,000	0,063	-0,187
-397,409	8,674	0,033	0,018
-396,394	-129,299	-0,052	0,005
-395,379	-81,429	0,102	0,024
-394,365	-135,500	0,024	-0,002
-393,350	-43,366	0,058	0,021
-392,336	-14,166	0,095	0,044
-391,321	104,891	0,103	-0,087
-390,306	-86,109	-0,040	0,009
-389,292	-52,414	-0,065	-0,021
-388,277	90,803	-0,033	-0,026
-387,263	130,253	0,078	0,072
-386,248	-200,000	-0,014	-0,083
-385,233	168,361	-0,071	0,073
-384,219	20,016	-0,055	0,032
-383,204	147,404	0,043	-0,042
-382,190	-174,515	0,082	0,002
-381,175	160,875	0,110	-0,110
-380,160	137,564	-0,052	0,049
-379,146	384,426	0,090	0,133
-378,131	320,434	-0,049	0,067
-377,117	-12,288	0,080	-0,037
-376,102	482,123	0,064	-0,104
-375,088	800,000	-0,047	0,120
-374,073	800,000	-0,015	-0,041
-373,058	51,590	0,090	0,061
-372,044	-29,609	0,050	0,020
-371,029	-55,490	0,131	0,042
-370,015	-110,447	-0,066	0,010
-369,000	-115,966	-0,074	-0,010
-367,985	-55,836	-0,027	0,008
-366,971	-163,683	-0,072	-0,002
-365,956	23,568	0,098	0,058
-364,942	62,432	0,192	0,137
-363,927	223,199	-0,130	0,151
-362,912	105,743	0,037	0,032
-361,898	175,405	-0,031	0,033
-360,883	-84,280	-0,119	-0,027
-359,869	307,713	0,073	-0,097
-358,854	44,266	0,044	0,029
-357,839	415,215	-0,088	-0,134
-356,825	59,938	0,086	0,061
-355,810	-200,000	0,000	0,087
-354,796	-200,000	0,024	0,092
-353,781	-98,780	-0,020	0,004
-352,766	174,612	0,094	-0,098
-351,752	-200,000	-0,010	-0,156
-350,737	-200,000	-0,010	0,167
-349,723	117,037	-0,053	0,046
-348,708	-25,590	0,074	0,031
-347,693	-102,569	-0,196	-0,033
-346,679	-200,000	-0,014	0,081
-345,664	479,896	-0,088	-0,143
-344,650	462,846	-0,002	0,002
-343,635	-200,000	0,006	0,055
-342,620	-200,000	0,000	0,017
-341,606	-127,360	0,025	-0,003
-340,591	126,237	-0,084	0,076
-339,577	314,314	0,087	-0,117
-338,562	-44,528	0,137	-0,049
-337,548	-31,516	0,062	0,025
-336,533	800,000	0,063	0,137
-335,518	355,637	0,132	0,189
-334,504	56,955	-0,063	-0,044
-333,489	-200,000	-0,010	-0,075
-332,475	-200,000	0,028	-0,103
-331,460	-5,227	-0,168	-0,082
-330,445	5,713	-0,067	-0,035
-329,431	800,000	0,020	0,040
-328,416	-200,000	-0,020	0,093
-327,402	146,854	-0,111	0,107
-326,387	30,053	0,020	0,012
-325,372	326,779	-0,015	0,020
-324,358	13,455	-0,103	-0,057
-323,343	241,096	-0,040	0,048
-322,329	-36,527	0,042	0,016
-321,314	-139,188	-0,061	0,005
-320,299	25,056	0,029	0,017
-319,285	-46,205	-0,098	0,034
-318,270	-135,505	-0,153	-0,013
-317,256	800,000	0,025	-0,072
-316,241	292,051	-0,048	-0,063
-315,226	800,000	0,047	-0,128
-314,212	-138,025	0,112	-0,009
-313,197	800,000	0,026	0,069
-312,183	544,340	0,053	0,090
-311,168	73,942	0,026	-0,020
-310,153	-200,000	0,001	-0,058
-309,139	-200,000	-0,002	-0,031
-308,124	-89,950	0,192	-0,040
-307,110	306,373	0,020	0,027
-306,095	25,852	0,081	0,048
-305,080	-200,000	-0,007	0,185
-304,066	-200,000	-0,018	0,062
-303,051	462,609	-0,061	0,097
-302,037	-61,665	-0,162	0,048
-301,022	800,000	0,016	0,037
-300,008	243,953	0,012	-0,015
-298,993	211,229	0,040	-0,045
-297,978	-64,136	0,158	-0,046
-296,964	800,000	-0,015	0,040
-295,949	34,076	-0,056	-0,035
-294,935	-83,199	-0,036	-0,008
-293,920	-47,850	0,055	-0,019
-292,905	0,751	0,122	-0,062
-291,891	96,315	-0,053	0,043
-290,876	-114,135	0,104	0,014
-289,862	9,775	-0,100	0,054
-288,847	33,463	0,096	0,060
-287,832	-2,418	-0,006	-0,003
-286,818	-200,000	-0,043	0,204
-285,803	800,000	0,023	0,068
-284,789	719,898	0,026	-0,049
-283,774	-200,000	0,009	0,132
-282,759	-45,991	0,130	0,045
-281,745	88,185	-0,107	-0,085
-280,730	-115,399	-0,117	-0,016
-279,716	129,617	-0,086	-0,079
-278,701	-1,070	0,110	0,056
-277,686	5,291	-0,073	-0,038
-276,672	-77,604	-0,048	0,012
-275,657	288,861	-0,058	-0,076
-274,643	64,368	-0,036	0,026
-273,628	-200,000	-0,017	-0,096
-272,613	224,730	0,033	-0,038
-271,599	-200,000	-0,005	0,040
-270,584	221,042	0,087	0,100
-269,570	87,262	-0,074	0,058
-268,555	800,000	0,070	-0,182
-267,540	14,143	-0,100	0,056
-266,526	96,400	-0,080	0,066
-265,511	-54,569	0,043	-0,014
-264,497	99,667	0,165	0,136
-263,482	642,694	-0,046	0,084
-262,467	540,442	-0,031	0,053
-261,453	-200,000	0,003	0,015
-260,438	-26,464	0,091	-0,038
-259,424	316,293	-0,099	0,134
-258,409	29,530	-0,089	-0,054
-257,395	-200,000	0,017	-0,112
-256,380	800,000	-0,035	-0,084
-255,365	-200,000	-0,004	-0,024
-254,351	-29,034	0,106	-0,043
-253,336	75,083	-0,061	0,046
-252,322	-200,000	-0,010	-0,104
-251,307	-110,333	0,152	-0,022
-250,292	-200,000	0,007	0,056
-249,278	800,000	-0,027	-0,071
-248,263	-16,039	-0,076	-0,035
-247,249	24,215	-0,141	0,083
-246,234	322,307	-0,059	-0,080
-245,219	800,000	-0,056	-0,111
-244,205	226,338	0,036	0,042
-243,190	40,348	-0,103	-0,066
-242,176	-58,012	0,147	0,045
-241,161	20,299	-0,032	-0,018
-240,146	3,649	0,156	0,081
-239,132	7,343	-0,086	0,046
-238,117	-200,000	0,016	-0,079
-237,103	800,000	-0,007	-0,019
-236,088	77,329	-0,092	-0,070
-235,073	294,131	0,125	0,164
-234,059	144,628	0,094	0,090
-233,044	800,000	-0,056	0,112
-232,030	45,458	-0,062	0,041
-231,015	233,309	0,031	-0,036
-230,000	-113,685	-0,104	-0,014
-228,986	-127,126	0,071	0,007
-227,971	55,306	0,099	0,068
-226,957	110,604	0,072	0,062
-225,942	-200,000	-0,003	0,031
-224,927	-153,662	0,148	-0,007
-223,913	228,362	-0,096	0,111
-222,898	177,919	-0,077	-0,080
-221,884	348,692	-0,079	0,111
-220,869	800,000	0,032	0,084
-219,855	800,000	-0,005	0,016
-218,840	503,112	0,047	0,078
-217,825	800,000	0,022	0,054
-216,811	220,105	0,111	-0,127
-215,796	20,208	-0,122	-0,070
-214,782	-200,000	-0,010	-0,059
-213,767	-126,606	0,171	-0,018
-212,752	-35,699	0,059	-0,023
-211,738	-56,315	0,119	-0,037
-210,723	800,000	-0,024	0,054
-209,709	316,813	-0,080	-0,108
-208,694	800,000	-0,019	-0,053
-207,679	-47,372	-0,108	0,037
-206,665	800,000	-0,027	0,072
-205,650	519,525	0,022	-0,036
-204,636	34,655	-0,055	-0,034
-203,621	-31,343	-0,073	0,029
-202,606	-164,884	0,131	0,004
-201,592	-59,392	-0,223	-0,068
-200,577	-87,101	0,053	-0,011
-199,563	-160,822	0,081	-0,003
-198,548	800,000	0,039	-0,089
-197,533	-200,000	-0,051	0,172
-196,519	800,000	-0,040	-0,092
-195,504	-200,000	0,013	0,100
-194,490	-19,089	-0,089	0,039
-193,475	98,999	-0,088	-0,073
-192,460	800,000	-0,043	0,085
-191,446	-200,000	-0,009	-0,071
-190,431	-74,914	0,147	0,037
-189,417	412,077	0,054	0,081
-188,402	-200,000	-0,010	-0,059
-187,387	-5,794	0,112	-0,054
-186,373	-170,408	0,093	0,002
-185,358	12,355	0,074	0,040
-184,344	6,223	-0,075	0,040
-183,329	800,000	-0,034	0,083
-182,315	-41,259	-0,051	-0,019
-181,300	330,505	-0,109	0,149
-180,285	-196,643	0,115	0,001
-179,271	-200,000	0,010	0,046
-178,256	34,549	-0,024	-0,015
-177,242	800,000	-0,049	0,107
-176,227	143,684	0,049	-0,047
-175,212	0,163	0,117	0,059
-174,198	56,432	-0,070	0,048
-173,183	800,000	-0,008	-0,021
-172,169	800,000	0,024	0,065
-171,154	800,000	0,015	0,034
-170,139	-118,690	0,040	-0,005
-169,125	-37,009	0,076	0,029
-168,110	800,000	-0,012	0,033
-167,096	491,060	0,038	-0,062
-166,081	-9,323	-0,055	-0,026
-165,066	800,000	-0,063	-0,191
-164,052	-200,000	0,005	0,111
-163,037	93,828	0,118	0,095
-162,023	52,359	0,113	0,077
-161,008	-200,000	0,014	-0,044
-159,993	-200,000	0,002	0,042
-158,979	750,746	-0,056	-0,108
-157,964	297,119	-0,020	-0,026
-156,950	-91,969	0,062	-0,012
-155,935	-11,156	-0,097	0,045
-154,920	101,043	-0,033	0,028
-153,906	800,000	-0,023	-0,070
-152,891	800,000	-0,037	-0,116
-151,877	559,791	-0,042	-0,072
-150,862	4,964	-0,014	0,007
-149,847	48,023	0,077	0,051
-148,833	-200,000	0,020	-0,155
-147,818	800,000	-0,045	0,103
-146,804	-44,148	0,034	0,012
-145,789	-95,115	-0,066	0,013
-144,775	198,129	0,040	-0,044
-143,760	204,240	0,049	-0,054
-142,745	800,000	0,050	-0,105
-141,731	-39,519	-0,107	0,040
-140,716	37,223	0,128	0,081
-139,702	-200,000	0,008	0,070
-138,687	152,111	0,182	0,176
-137,672	-200,000	0,006	0,134
-136,658	-118,245	-0,073	-0,009
-135,643	310,832	-0,082	-0,110
-134,629	-200,000	-0,025	0,081
-133,614	-200,000	0,035	0,200
-132,599	800,000	0,055	-0,113
-131,585	41,971	-0,078	-0,050
-130,570	-26,568	-0,128	0,053
-129,556	-57,529	0,207	-0,064
-128,541	-15,278	-0,125	0,057
-127,526	101,728	0,032	-0,027
-126,512	19,021	-0,068	-0,038
-125,497	152,678	0,043	0,042
-124,483	-91,452	0,043	-0,009
-123,468	-42,202	0,007	0,002
-122,453	-147,358	0,071	0,004
-121,439	-83,443	0,130	-0,029
-120,424	-200,000	0,003	-0,085
-119,410	800,000	0,065	0,142
-118,395	187,648	0,108	0,115
-117,380	800,000	-0,057	0,143
-116,366	800,000	-0,035	-0,070
-115,351	257,492	0,057	-0,070
-114,337	27,387	0,114	-0,068
-113,322	303,740	-0,024	-0,032
-112,307	800,000	0,086	-0,190
-111,293	800,000	0,042	0,094
-110,278	-54,132	0,125	-0,040
-109,264	-200,000	0,013	-0,229
-108,249	800,000	0,021	-0,061
-107,234	-200,000	-0,026	-0,083
-106,220	-32,474	0,066	0,026
-105,205	-200,000	0,004	0,055
-104,191	94,243	-0,072	0,058
-103,176	38,606	0,109	0,069
-102,162	52,731	-0,060	-0,041
-101,147	-84,972	-0,176	0,039
-100,132	-200,000	-0,002	-0,099
-99,118	-200,000	0,015	0,054
-98,103	-200,000	-0,011	-0,085
-97,089	-200,000	0,005	-0,058
-96,074	-164,218	0,087	-0,003
-95,059	-87,417	-0,152	0,032
-94,045	18,699	0,182	-0,103
-93,030	800,000	-0,146	-0,334
-92,016	90,422	0,128	-0,101
-91,001	-200,000	0,002	0,072
-89,986	230,522	0,070	0,081
-88,972	-46,657	0,095	0,033
-87,957	-18,892	-0,075	-0,033
-86,943	-11,596	-0,049	0,023
-85,928	571,751	0,086	-0,149
-84,913	46,919	-0,024	0,016
-83,899	-133,445	-0,158	-0,014
-82,884	708,369	-0,027	-0,051
-81,870	-200,000	0,029	0,126
-80,855	-72,668	0,083	0,021
-79,840	350,532	0,064	0,090
-78,826	478,745	-0,069	0,111
-77,811	-147,674	-0,160	-0,009
-76,797	112,818	0,057	-0,049
-75,782	265,946	0,094	-0,116
-74,767	182,627	0,119	0,125
-73,753	-200,000	-0,001	0,077
-72,738	154,373	-0,057	-0,056
-71,724	7,397	0,199	-0,105
-70,709	-100,987	-0,030	0,005
-69,694	-200,000	-0,066	-0,254
-68,680	-51,154	0,171	-0,056
-67,665	63,140	-0,067	-0,047
-66,651	279,629	0,061	-0,077
-65,636	332,933	0,078	-0,107
-64,622	303,363	0,101	0,133
-63,607	207,411	-0,102	-0,113
-62,592	-38,779	0,081	-0,030
-61,578	800,000	0,083	-0,165
-60,563	716,167	0,063	-0,119
-59,549	116,692	-0,038	0,033
-58,534	70,264	-2,223	-1,624
-57,519	-200,000	-0,057	-0,652
-56,505	-200,000	-1,339	-5,236
-55,490	133,177	0,964	0,882
-54,476	800,000	5,220	11,779
-53,461	-200,000	19,026	326,392
-52,446	-200,000	740,699	2318,067
-51,432	550,484	1651,208	2815,062
-50,417	75,419	1677,910	1252,266
-49,403	19,510	1600,369	908,477
-48,388	14,121	1554,703	854,723
-47,373	17,866	1546,401	869,353
-46,359	16,290	1535,704	855,277
-45,344	12,677	1530,951	834,210
-44,330	12,546	1529,167	832,537
-43,315	12,496	1527,486	831,339
-42,300	12,450	1526,019	830,271
-41,286	12,443	1524,646	829,453
-40,271	12,469	1523,162	828,749
-39,257	12,522	1521,560	828,113
-38,242	12,505	1519,965	827,125
-37,227	12,473	1518,884	826,341
-36,213	12,497	1517,386	825,614
-35,198	12,523	1516,032	824,976
-34,184	12,550	1515,061	824,551
-33,169	12,539	1513,255	823,482
-32,154	12,559	1511,758	822,736
-31,140	12,557	1510,655	822,092
-30,125	12,552	1509,283	821,285
-29,111	12,546	1507,824	820,431
-28,096	12,528	1506,896	819,802
-27,082	12,507	1506,064	819,210
-26,067	12,483	1504,709	818,322
-25,052	12,494	1503,654	817,769
-24,038	12,496	1502,462	817,098
-23,023	12,493	1501,376	816,461
-22,009	12,572	1500,007	816,079
-20,994	12,516	1499,414	815,444
-19,979	12,513	1498,239	814,759
-18,965	12,510	1497,291	814,198
-17,950	12,569	1496,060	813,789
-16,936	12,453	1495,387	812,814
-15,921	12,431	1494,038	811,937
-14,906	12,398	1492,897	811,120
-13,892	12,376	1492,193	810,596
-12,877	12,353	1490,919	809,759
-11,863	12,301	1489,945	808,939
-10,848	12,357	1489,170	808,766
-9,833	12,494	1488,034	808,794
-8,819	12,475	1486,986	808,100
-7,804	12,385	1485,987	807,077
-6,790	12,371	1485,536	806,735
-5,775	12,401	1484,369	806,214
-4,760	12,455	1483,529	805,994
-3,746	12,394	1482,457	805,077
-2,731	12,246	1481,398	803,741
-1,717	12,209	1480,360	802,965
-0,702	12,210	1479,482	802,459
0,313	12,016	1478,308	802,084
1,327	15,874	1475,264	819,279
2,342	25,421	1240,845	728,159
3,356	21,934	698,337	401,750
4,371	-7,292	467,949	223,504
5,386	-11,004	439,805	204,532
6,400	-12,223	430,690	198,501
7,415	-12,119	426,894	196,884
8,429	-12,897	424,449	194,622
9,444	-13,043	423,161	193,807
10,459	-13,043	421,832	193,181
11,473	-13,386	421,025	192,305
12,488	-13,593	419,766	191,420
13,502	-13,804	419,032	190,770
14,517	-13,961	418,023	190,072
15,531	-14,158	417,374	189,481
16,546	-14,084	416,595	189,214
17,561	-14,254	416,244	188,799
18,575	-14,164	415,462	188,554
19,590	-14,237	414,761	188,117
20,604	-14,273	414,436	187,903
21,619	-14,228	413,816	187,668
22,634	-14,296	413,389	187,362
23,648	-14,400	412,747	186,910
24,663	-14,263	412,380	186,918
25,677	-14,394	411,985	186,540
26,692	-14,361	411,411	186,309
27,707	-14,391	411,033	186,079
28,721	-14,402	410,638	185,869
29,736	-14,391	410,156	185,650
30,750	-14,409	409,641	185,375
31,765	-14,439	409,269	185,149
32,780	-14,458	408,894	184,936
33,794	-14,483	408,532	184,721
34,809	-14,365	408,118	184,680
35,823	-14,623	407,752	184,144
36,838	-14,514	407,287	184,067
37,853	-14,490	406,825	183,874
38,867	-14,539	406,558	183,670
39,882	-14,640	406,034	183,280
40,896	-14,566	405,778	183,248
41,911	-14,550	405,363	183,067
42,926	-14,550	404,868	182,826
43,940	-14,483	404,420	182,700
44,955	-14,565	404,175	182,461
45,969	-14,765	403,861	182,030
46,984	-14,935	403,342	181,549
47,999	-15,125	402,921	181,085
49,013	-15,115	402,433	180,864
50,028	-15,360	402,048	180,343
51,042	-15,294	401,710	180,265
52,057	-15,245	401,348	180,152
53,071	-15,219	401,080	180,051
54,086	-15,240	400,808	179,885
55,101	-15,114	400,468	179,886
56,115	-14,828	400,156	180,114
57,130	-14,322	400,210	180,805
58,144	-14,022	399,838	181,024
59,159	-13,891	399,567	181,061
60,174	-14,028	399,228	180,708
61,188	-14,031	398,796	180,492
62,203	-14,294	398,617	180,043
63,217	-14,222	398,047	179,865
64,232	-14,282	397,894	179,699
65,247	-13,925	397,313	179,898
66,261	-14,182	397,076	179,432
67,276	-14,508	396,547	178,742
68,290	-14,850	396,156	178,094
69,305	-14,853	395,671	177,856
70,320	-14,870	395,328	177,663
71,334	-14,496	395,316	178,140
72,349	-14,218	395,172	178,428
73,363	-13,961	394,763	178,568
74,378	-14,151	394,553	178,206
75,393	-14,307	394,074	177,767
76,407	-14,270	393,762	177,659
77,422	-14,186	393,154	177,480
78,436	-14,241	393,251	177,435
79,451	-14,112	392,679	177,332
80,466	-14,394	392,208	176,731
81,480	-14,570	391,843	176,319
82,495	-14,703	391,586	176,014
83,509	-14,640	391,285	175,945
84,524	-14,651	390,913	175,748
85,539	-14,901	390,549	175,240
86,553	-14,845	390,140	175,115
87,568	-14,669	389,810	175,181
88,582	-14,740	389,602	174,979
89,597	-14,789	389,337	174,780
90,611	-14,602	389,305	174,995
91,626	-14,520	389,101	174,996
92,641	-14,384	388,601	174,931
93,655	-14,448	388,150	174,629
94,670	-14,573	387,906	174,342
95,684	-14,551	387,623	174,228
96,699	-14,438	387,311	174,218
97,714	-14,490	386,784	173,899
98,728	-14,775	386,556	173,412
99,743	-14,912	386,239	173,075
100,757	-14,784	385,811	173,035
101,772	-14,720	385,546	172,982
102,787	-14,499	385,280	173,133
103,801	-14,487	385,157	173,079
104,816	-14,452	384,878	172,983
105,830	-14,251	384,777	173,180
106,845	-14,248	384,499	173,044
107,860	-14,303	384,163	172,807
108,874	-14,322	383,585	172,507
109,889	-14,234	383,163	172,414
110,903	-14,300	382,953	172,220
111,918	-14,410	382,811	172,000
112,933	-14,399	382,589	171,899
113,947	-14,213	382,188	171,942
114,962	-14,327	381,992	171,692
115,976	-14,357	381,637	171,479
116,991	-14,297	381,307	171,392
118,006	-14,249	381,131	171,360
119,020	-14,199	380,923	171,314
120,035	-14,267	380,721	171,122
121,049	-14,246	380,477	171,023
122,064	-14,185	380,132	170,931
123,079	-14,263	379,691	170,618
124,093	-14,346	379,415	170,373
125,108	-14,571	378,982	169,878
126,122	-14,750	378,555	169,445
127,137	-15,056	378,321	168,938
128,151	-14,804	378,036	169,114
129,166	-14,665	377,748	169,145
130,181	-14,600	377,371	169,044
131,195	-14,732	377,072	168,728
132,210	-14,431	376,921	169,026
133,224	-14,378	376,749	168,999
134,239	-14,365	376,592	168,931
135,254	-14,239	376,329	168,956
136,268	-14,374	375,874	168,568
137,283	-14,689	375,248	167,876
138,297	-14,900	375,036	167,502
139,312	-14,847	374,715	167,410
140,327	-14,406	374,700	167,941
141,341	-13,919	374,670	168,522
142,356	-13,780	374,423	168,570
143,370	-13,960	374,130	168,198
144,385	-13,885	373,848	168,150
145,400	-13,815	373,623	168,121
146,414	-13,830	373,281	167,933
147,429	-13,908	372,954	167,674
148,443	-13,949	372,714	167,501
149,458	-14,005	372,445	167,294
150,473	-13,966	372,090	167,169
151,487	-13,907	371,646	167,027
152,502	-13,913	371,591	166,981
153,516	-13,805	371,369	166,999
154,531	-13,889	371,173	166,792
155,546	-14,015	370,748	166,430
156,560	-14,063	370,387	166,195
157,575	-14,200	370,183	165,918
158,589	-14,000	370,081	166,105
159,604	-13,773	369,729	166,213
160,619	-13,590	369,632	166,380
161,633	-13,687	369,154	166,030
162,648	-13,811	369,212	165,888
163,662	-13,886	368,822	165,607
164,677	-14,014	368,446	165,265
165,692	-13,864	368,334	165,384
166,706	-13,771	368,195	165,422
167,721	-13,804	367,993	165,276
168,735	-13,569	367,720	165,427
169,750	-13,709	367,369	165,082
170,764	-13,777	367,139	164,881
171,779	-13,712	366,961	164,866
172,794	-13,711	366,740	164,753
173,808	-13,910	366,306	164,300
174,823	-14,514	365,670	163,265
175,837	-14,556	365,307	163,037
176,852	-14,011	365,288	163,677
177,867	-13,746	365,363	164,019
178,881	-13,814	364,953	163,737
179,896	-13,725	364,815	163,769
180,910	-13,769	364,499	163,559
181,925	-13,656	364,333	163,608
182,940	-13,612	364,152	163,565
183,954	-13,582	363,779	163,419
184,969	-13,635	363,652	163,283
185,983	-13,568	363,217	163,155
186,998	-13,632	363,096	163,008
188,013	-13,554	362,890	162,996
189,027	-13,593	362,661	162,831
190,042	-13,706	362,372	162,551
191,056	-13,611	362,244	162,593
192,071	-13,469	361,843	162,570
193,086	-13,346	361,680	162,629
194,100	-13,027	361,763	163,036
195,115	-12,763	361,508	163,224
196,129	-12,163	361,847	164,084
197,144	-8,164	363,607	169,696
198,159	-4,596	365,336	174,808
199,173	-1,238	366,837	179,586
200,188	-0,624	366,900	180,346
201,202	-0,949	366,543	179,760
202,217	-0,918	366,295	179,661
203,232	-0,528	366,103	180,022
204,246	-0,286	365,907	180,202
205,261	-0,276	365,798	180,144
206,275	-0,051	365,600	180,302
207,290	-0,149	365,344	180,042
208,304	-0,074	364,928	179,911
209,319	-0,329	364,913	179,580
210,334	-0,267	364,622	179,496
211,348	-0,285	364,264	179,282
212,363	-0,390	363,864	178,943
213,377	-0,421	363,551	178,736
214,392	-0,367	363,528	178,773
215,407	-0,241	363,333	178,813
216,421	-0,373	363,121	178,534
217,436	-0,207	362,764	178,541
218,450	-0,538	362,493	177,995
219,465	-0,624	362,168	177,718
220,480	-0,600	361,916	177,607
221,494	-0,618	361,782	177,504
222,509	-0,243	361,766	177,928
223,523	-0,146	361,451	177,872
224,538	-0,390	361,042	177,366
225,553	-0,389	360,840	177,251
226,567	-0,418	360,571	177,069
227,582	-0,221	360,590	177,296
228,596	0,212	360,401	177,701
229,611	-0,200	360,102	177,050
230,626	-0,669	359,663	176,263
231,640	-0,419	359,365	176,396
232,655	0,012	359,264	176,842
233,669	0,185	359,186	176,992
234,684	0,262	359,007	176,979
235,699	0,109	358,609	176,586
236,713	-0,227	358,422	176,081
237,728	-0,383	357,951	175,651
238,742	-0,558	357,774	175,342
239,757	-0,327	357,467	175,448
240,772	-0,355	357,161	175,249
241,786	-0,477	356,993	175,008
242,801	-0,307	357,039	175,215
243,815	0,081	356,919	175,596
244,830	-0,067	356,470	175,186
245,844	-0,402	356,031	174,562
246,859	-0,385	355,804	174,455
247,874	-0,107	355,621	174,674
248,888	-0,187	355,551	174,531
249,903	-0,238	355,339	174,352
250,917	-0,389	355,012	173,999
251,932	-0,302	354,684	173,925
252,947	-0,612	354,455	173,436
253,961	-0,439	354,095	173,445
254,976	-0,462	353,943	173,329
255,990	-0,345	354,012	173,484
257,005	-0,024	353,813	173,744
258,020	-0,197	353,528	173,387
259,034	-0,276	353,194	173,116
260,049	-0,193	353,059	173,130
261,063	0,006	352,529	173,085
262,078	0,082	352,630	173,208
263,093	0,143	352,566	173,232
264,107	0,010	352,222	172,894
265,122	0,015	351,953	172,752
266,136	0,245	351,758	172,907
267,151	0,113	351,393	172,559
268,166	-0,235	350,961	171,931
269,180	-0,590	350,741	171,398
270,195	-0,488	350,558	171,412
271,209	-0,396	350,392	171,420
272,224	-0,293	350,196	171,429
273,239	-0,023	349,971	171,613
274,253	-0,160	349,820	171,366
275,268	-0,378	349,328	170,860
276,282	-0,347	349,103	170,770
277,297	-0,538	348,862	170,419
278,312	-0,332	348,841	170,629
279,326	-0,272	348,633	170,580
280,341	-0,203	348,472	170,566
281,355	-0,138	348,171	170,477
282,370	0,082	347,917	170,589
283,384	-0,374	347,658	169,927
284,399	-0,314	347,281	169,796
285,414	-0,569	346,986	169,345
286,428	-0,489	347,079	169,467
287,443	-0,050	346,770	169,801
288,457	-0,101	346,685	169,686
289,472	-0,349	346,428	169,264
290,487	-0,590	345,969	168,750
291,501	-0,686	345,599	168,446
292,516	-0,586	345,464	168,478
293,530	-0,420	345,370	168,605
294,545	-0,337	345,100	168,552
295,560	-0,328	345,038	168,518
296,574	-0,052	344,767	168,681
297,589	-0,283	344,499	168,275
298,603	-0,125	344,308	168,345
299,618	-0,197	344,037	168,117
300,633	-0,047	343,962	168,234
301,647	0,051	343,811	168,255
302,662	0,171	343,550	168,247
303,676	0,050	343,424	168,034
304,691	0,099	343,219	167,974
305,706	-0,044	342,938	167,661
306,720	-0,079	342,652	167,466
307,735	-0,359	342,252	166,942
308,749	-0,265	342,074	166,947
309,764	-0,100	342,081	167,120
310,779	-0,064	341,650	166,935
311,793	-0,333	341,422	166,507
312,808	-0,153	341,276	166,623
313,822	-0,077	341,151	166,632
314,837	-0,171	340,818	166,350
315,852	-0,285	340,525	166,064
316,866	-0,006	340,525	166,360
317,881	0,042	340,282	166,280
318,895	-0,040	339,961	166,017
319,910	-0,256	339,655	165,613
320,925	-0,491	339,248	165,140
321,939	-0,663	338,993	164,810
322,954	-0,565	338,995	164,905
323,968	-0,120	338,919	165,345
324,983	0,260	338,740	165,664
325,997	0,250	338,708	165,623
327,012	0,222	338,337	165,396
328,027	0,032	338,139	165,075
329,041	0,281	338,016	165,275
330,056	0,203	337,705	165,021
331,070	-0,167	337,184	164,345
332,085	-0,416	336,984	163,959
333,100	-0,076	336,746	164,202
334,114	0,198	336,693	164,463
335,129	0,150	336,568	164,334
336,143	-0,034	336,351	164,012
337,158	-0,013	336,092	163,894
338,173	-0,121	335,912	163,673
339,187	-0,108	335,633	163,537
340,202	-0,231	335,327	163,239
341,216	-0,355	335,102	162,979
342,231	-0,199	334,863	163,018
343,246	-0,111	334,693	163,017
344,260	-0,261	334,480	162,736
345,275	0,064	334,416	163,044
346,289	0,119	334,066	162,919
347,304	-0,246	333,899	162,426
348,319	-0,235	333,704	162,329
349,333	0,131	333,624	162,673
350,348	0,075	333,545	162,559
351,362	0,444	333,328	162,839
352,377	0,417	333,005	162,639
353,392	0,154	332,731	162,205
354,406	0,057	332,585	162,014
355,421	196,031	1329,383	1389,027
356,435	160,444	1450,737	1388,948
