DTS Sentinel unit serial number:	SN410029Multiplexer serial number:	ORYXHardware model number:	OX2-SRSoftware version number:	ORYX F/W v4,00 Oryx Data Collector v3.7.2.0data status	okinstallation	B6 Nyhavnadifferential loss correction	single-endedforward channel	channel 2reverse channel	N/Adate	2023/12/10time	04:55:08forward acquisition time	300,00reverse acquisition time	0,00gamma	499,1914k internal	0,3125k external	0,3125temperature offset calibration	1,0000default loss term (dB/km)	0,3820temperature slope calibration	1,0000multiplexer offset coefficient	1,0000multiplexer slope coefficient	1,0000fibre end	0,00T internal ref (°C)	22,30T ext. ref 1 (°C)	6,36T ext. ref 2 (°C)	6,33length (m)	temperature (°C)	Stokes	anti-Stokes-744,400	-54,242	0,124	-0,042
-743,385	83,783	-0,251	0,204
-742,371	-200,000	-0,017	-0,062
-741,356	289,877	-0,094	0,128
-740,342	-149,855	-0,029	0,002
-739,327	-141,835	-0,237	-0,017
-738,312	229,412	-0,071	-0,086
-737,298	7,103	-0,225	0,124
-736,283	64,955	0,056	-0,042
-735,269	-135,528	-0,104	-0,009
-734,254	-100,133	-0,110	-0,020
-733,239	-78,523	-0,413	-0,104
-732,225	-90,984	0,130	0,028
-731,210	-96,468	-0,089	0,017
-730,196	192,658	-0,066	-0,075
-729,181	-33,183	-0,013	-0,005
-728,167	24,847	-0,118	0,072
-727,152	-82,519	0,108	-0,026
-726,137	-175,093	-0,132	-0,003
-725,123	-13,577	-0,069	-0,033
-724,108	92,051	-0,151	-0,126
-723,094	62,035	-0,056	0,042
-722,079	543,873	-0,076	-0,135
-721,064	-32,771	-0,055	-0,022
-720,050	-104,743	-0,156	0,026
-719,035	173,278	-0,106	-0,114
-718,021	800,000	-0,014	-0,029
-717,006	-30,056	-0,217	-0,092
-715,991	16,767	-0,080	-0,047
-714,977	125,031	-0,127	-0,119
-713,962	-6,702	-0,061	0,031
-712,948	800,000	-0,099	-0,248
-711,933	81,863	-0,047	-0,038
-710,918	-196,549	-0,092	-0,000
-709,904	-200,000	-0,029	-0,141
-708,889	42,223	-0,121	-0,081
-707,875	221,886	-0,040	-0,048
-706,860	500,324	0,036	-0,061
-705,845	420,828	0,078	-0,126
-704,831	36,097	0,053	0,035
-703,816	226,022	-0,071	-0,085
-702,802	453,214	-0,040	0,066
-701,787	-26,111	-0,064	-0,028
-700,772	566,458	-0,047	-0,086
-699,758	624,535	-0,067	-0,127
-698,743	402,796	0,063	0,099
-697,729	-200,000	0,002	0,010
-696,714	446,190	-0,045	0,073
-695,699	649,815	0,054	-0,102
-694,685	258,454	-0,023	0,030
-693,670	180,270	-0,008	-0,008
-692,656	261,001	0,037	0,048
-691,641	216,700	-0,002	0,002
-690,627	35,966	0,171	0,112
-689,612	-65,687	0,076	0,022
-688,597	-200,000	-0,019	0,073
-687,583	-79,813	0,135	-0,033
-686,568	118,383	0,048	0,044
-685,554	-63,960	-0,061	-0,018
-684,539	311,817	0,057	0,080
-683,524	800,000	-0,077	0,192
-682,510	17,162	-0,041	-0,024
-681,495	-200,000	-0,031	0,165
-680,481	-53,907	0,060	-0,020
-679,466	-15,086	-0,102	-0,048
-678,451	-33,647	-0,069	-0,028
-677,437	632,029	0,037	-0,070
-676,422	38,374	0,110	0,073
-675,408	-200,000	0,027	0,116
-674,393	404,391	-0,033	0,052
-673,378	-147,912	0,014	-0,001
-672,364	598,995	0,024	0,045
-671,349	-39,400	-0,145	-0,056
-670,335	26,730	0,103	0,064
-669,320	531,602	0,068	0,120
-668,305	106,425	-0,122	0,108
-667,291	800,000	-0,037	-0,106
-666,276	296,530	-0,017	-0,024
-665,262	800,000	-0,040	-0,093
-664,247	135,628	-0,095	-0,092
-663,232	23,699	-0,121	-0,074
-662,218	106,023	0,069	-0,061
-661,203	736,155	-0,070	0,140
-660,189	-200,000	0,004	-0,109
-659,174	206,180	0,028	-0,033
-658,159	121,559	0,037	-0,034
-657,145	-200,000	-0,022	-0,146
-656,130	243,561	-0,041	-0,051
-655,116	-129,257	0,121	-0,012
-654,101	-33,997	-0,064	-0,026
-653,086	-200,000	0,015	-0,051
-652,072	-144,698	-0,152	0,010
-651,057	-200,000	-0,028	0,174
-650,043	256,867	-0,082	-0,104
-649,028	488,355	-0,033	-0,056
-648,014	-200,000	-0,004	0,032
-646,999	458,074	0,023	0,037
-645,984	192,589	-0,018	0,020
-644,970	800,000	-0,046	0,104
-643,955	800,000	0,017	-0,038
-642,941	800,000	-0,039	-0,095
-641,926	-126,340	-0,060	-0,007
-640,911	-24,412	-0,037	-0,016
-639,897	127,948	0,169	0,159
-638,882	117,426	0,121	-0,111
-637,868	-16,397	-0,046	0,021
-636,853	-144,026	0,149	-0,010
-635,838	82,303	-0,075	-0,060
-634,824	30,620	0,051	0,033
-633,809	-108,512	-0,124	0,020
-632,795	-50,031	0,081	-0,028
-631,780	-200,000	0,008	0,043
-630,765	-42,835	-0,143	-0,054
-629,751	411,486	-0,060	0,094
-628,736	-6,715	-0,059	-0,030
-627,722	-115,032	-0,154	0,021
-626,707	-49,019	0,015	0,005
-625,692	101,834	-0,108	0,094
-624,678	-200,000	0,013	0,155
-623,663	800,000	0,046	0,098
-622,649	92,245	0,099	0,083
-621,634	-195,477	-0,038	0,000
-620,619	711,678	0,045	-0,089
-619,605	-16,285	0,171	-0,080
-618,590	235,981	0,009	0,011
-617,576	139,336	0,130	0,127
-616,561	140,431	-0,162	-0,159
-615,546	15,772	0,076	-0,044
-614,532	800,000	0,075	-0,168
-613,517	-76,960	-0,032	0,008
-612,503	-169,796	0,100	0,003
-611,488	73,746	-0,083	-0,064
-610,474	800,000	0,013	0,028
-609,459	-200,000	0,002	0,056
-608,444	-34,675	0,071	-0,028
-607,430	800,000	-0,028	-0,066
-606,415	240,698	-0,039	-0,048
-605,401	-200,000	-0,026	-0,141
-604,386	-62,119	0,023	0,007
-603,371	-111,400	0,029	0,004
-602,357	-74,435	-0,079	0,021
-601,342	-200,000	-0,039	-0,134
-600,328	800,000	-0,068	-0,170
-599,313	-138,666	-0,092	0,007
-598,298	132,184	-0,064	0,061
-597,284	-200,000	0,006	0,088
-596,269	400,422	0,095	0,148
-595,255	800,000	0,017	0,039
-594,240	800,000	-0,051	0,148
-593,225	800,000	0,057	-0,136
-592,211	-68,878	-0,048	-0,014
-591,196	731,620	-0,058	0,116
-590,182	-52,146	0,050	-0,017
-589,167	-76,949	0,122	0,031
-588,152	224,762	-0,084	-0,101
-587,138	291,861	-0,091	0,123
-586,123	-91,547	-0,068	-0,014
-585,109	335,463	-0,046	-0,066
-584,094	-166,887	0,095	0,003
-583,079	-200,000	0,006	0,062
-582,065	-113,066	-0,104	0,015
-581,050	127,125	-0,125	0,117
-580,036	606,478	-0,055	-0,102
-579,021	-200,000	-0,051	0,212
-578,006	378,758	-0,103	-0,156
-576,992	-48,024	0,092	-0,033
-575,977	800,000	0,066	-0,145
-574,963	7,180	-0,038	0,021
-573,948	-200,000	-0,005	0,072
-572,934	-200,000	-0,011	-0,125
-571,919	-200,000	0,008	0,038
-570,904	-96,263	0,150	-0,029
-569,890	177,756	0,126	-0,136
-568,875	-124,787	0,072	0,008
-567,861	-200,000	0,027	0,200
-566,846	-23,478	-0,068	-0,030
-565,831	138,585	-0,130	0,126
-564,817	-200,000	0,020	-0,068
-563,802	-112,967	-0,062	0,009
-562,788	800,000	0,014	0,029
-561,773	-200,000	0,100	0,000
-560,758	800,000	0,017	0,038
-559,744	-175,584	-0,112	0,002
-558,729	800,000	0,025	0,053
-557,715	-13,833	0,024	-0,011
-556,700	-200,000	-0,012	-0,048
-555,685	-160,899	-0,087	-0,003
-554,671	334,979	0,021	-0,030
-553,656	54,595	-0,041	-0,029
-552,642	-200,000	0,003	-0,053
-551,627	-79,717	0,055	0,014
-550,612	-200,000	0,006	-0,065
-549,598	42,783	-0,196	0,132
-548,583	-129,164	-0,098	-0,010
-547,569	-200,000	0,000	-0,037
-546,554	-65,915	-0,074	-0,022
-545,539	-200,000	-0,010	0,046
-544,525	73,487	0,088	-0,068
-543,510	-200,000	0,009	-0,070
-542,496	-200,000	-0,041	-0,199
-541,481	-42,501	0,057	0,022
-540,466	-200,000	-0,023	-0,110
-539,452	92,008	-0,096	0,079
-538,437	171,453	0,051	0,054
-537,423	-68,730	0,045	-0,013
-536,408	124,494	-0,108	-0,100
-535,393	45,480	0,066	0,045
-534,379	110,396	-0,088	-0,078
-533,364	-31,358	0,104	0,043
-532,350	-62,168	-0,073	-0,022
-531,335	-127,837	-0,099	-0,010
-530,321	10,585	0,052	-0,029
-529,306	27,010	-0,122	0,075
-528,291	-131,766	-0,050	0,005
-527,277	739,025	-0,070	0,140
-526,262	278,489	0,012	0,016
-525,248	108,479	-0,072	-0,063
-524,233	-2,239	0,140	0,072
-523,218	-200,000	-0,002	0,065
-522,204	62,049	0,037	0,027
-521,189	-200,000	0,009	-0,079
-520,175	169,613	-0,048	-0,051
-519,160	119,768	-0,103	0,095
-518,145	-200,000	-0,001	0,031
-517,131	386,334	0,043	0,065
-516,116	51,612	0,045	0,032
-515,102	13,495	-0,056	0,032
-514,087	280,945	-0,046	-0,060
-513,072	-80,021	-0,112	0,027
-512,058	800,000	-0,049	-0,125
-511,043	110,676	-0,020	-0,018
-510,029	-63,577	-0,069	0,021
-509,014	10,901	0,079	-0,044
-507,999	431,747	-0,034	0,055
-506,985	-200,000	-0,005	-0,125
-505,970	457,009	-0,041	-0,068
-504,956	800,000	-0,048	-0,116
-503,941	-186,054	-0,104	-0,001
-502,926	-79,721	0,032	-0,008
-501,912	140,209	0,057	-0,055
-500,897	-29,666	0,009	0,004
-499,883	-54,959	-0,106	-0,035
-498,868	106,175	-0,193	-0,169
-497,853	-20,394	-0,051	-0,023
-496,839	34,201	-0,054	0,034
-495,824	271,818	0,014	0,018
-494,810	179,219	-0,033	0,036
-493,795	-200,000	0,161	0,000
-492,781	321,052	-0,027	-0,038
-491,766	-200,000	0,003	-0,029
-490,751	-200,000	-0,015	-0,067
-489,737	-42,757	-0,040	-0,015
-488,722	-200,000	0,016	0,092
-487,708	-104,068	0,117	-0,020
-486,693	-200,000	0,040	0,175
-485,678	-200,000	-0,000	-0,062
-484,664	-10,002	-0,074	-0,036
-483,649	-200,000	0,004	-0,107
-482,635	74,482	-0,035	-0,027
-481,620	-3,599	0,160	-0,082
-480,605	-200,000	-0,018	0,072
-479,591	800,000	0,016	0,039
-478,576	65,612	0,054	-0,041
-477,562	-150,697	-0,140	0,008
-476,547	412,212	0,023	0,036
-475,532	-200,000	0,004	0,115
-474,518	120,905	0,060	-0,055
-473,503	158,503	0,050	0,051
-472,489	90,360	0,059	-0,049
-471,474	-200,000	-0,009	0,063
-470,459	304,337	-0,080	0,109
-469,445	-200,000	0,018	0,079
-468,430	-200,000	-0,037	0,148
-467,416	526,990	0,061	0,106
-466,401	-200,000	0,005	0,084
-465,386	336,552	-0,048	0,069
-464,372	-65,614	0,024	0,007
-463,357	800,000	-0,020	0,056
-462,343	116,737	0,052	-0,047
-461,328	-200,000	0,027	-0,092
-460,313	-134,173	0,081	0,007
-459,299	-153,544	0,095	0,005
-458,284	13,639	-0,022	0,012
-457,270	-29,824	-0,022	-0,009
-456,255	-192,357	0,036	0,000
-455,241	800,000	0,065	-0,197
-454,226	298,719	-0,034	0,046
-453,211	186,998	-0,036	0,039
-452,197	-144,325	0,070	-0,005
-451,182	-77,473	0,109	-0,028
-450,168	369,075	0,069	0,103
-449,153	-19,316	-0,028	0,013
-448,138	-102,997	0,127	-0,022
-447,124	-53,365	-0,185	-0,062
-446,109	800,000	0,022	0,046
-445,095	-200,000	0,026	-0,102
-444,080	-37,010	0,100	0,039
-443,065	-26,350	0,106	0,046
-442,051	-54,403	-0,131	0,044
-441,036	-16,973	0,013	0,006
-440,022	-42,929	-0,028	0,010
-439,007	800,000	-0,011	-0,024
-437,992	392,671	0,053	0,082
-436,978	-200,000	-0,027	0,117
-435,963	-200,000	-0,015	0,180
-434,949	94,176	0,031	-0,026
-433,934	800,000	0,035	0,086
-432,919	-200,000	-0,007	-0,039
-431,905	-200,000	0,030	-0,138
-430,890	-37,450	-0,076	0,030
-429,876	91,602	0,045	0,037
-428,861	-41,689	0,064	0,024
-427,846	-200,000	0,013	0,107
-426,832	-53,774	-0,087	-0,029
-425,817	-101,763	-0,123	0,022
-424,803	-34,387	0,039	0,016
-423,788	61,736	-0,102	-0,074
-422,773	-200,000	-0,010	0,139
-421,759	800,000	0,024	0,072
-420,744	800,000	0,016	0,040
-419,730	-200,000	0,007	-0,135
-418,715	-40,208	-0,039	0,015
-417,701	-200,000	0,013	0,078
-416,686	243,829	-0,078	0,096
-415,671	-200,000	-0,002	0,017
-414,657	215,425	0,075	0,087
-413,642	-19,182	-0,018	-0,008
-412,628	-112,264	0,047	-0,007
-411,613	267,014	0,044	-0,057
-410,598	116,369	-0,121	-0,109
-409,584	389,799	-0,029	0,045
-408,569	142,124	0,076	0,074
-407,555	800,000	0,055	-0,127
-406,540	-200,000	0,004	0,047
-405,525	-200,000	-0,018	0,135
-404,511	157,408	0,089	0,091
-403,496	-200,000	0,026	0,130
-402,482	800,000	-0,030	-0,072
-401,467	-121,411	-0,088	-0,011
-400,452	800,000	0,006	0,013
-399,438	293,389	-0,070	-0,094
-398,423	800,000	0,080	-0,188
-397,409	210,455	-0,128	-0,148
-396,394	27,678	-0,096	0,059
-395,379	2,352	-0,160	-0,085
-394,365	364,640	0,139	0,207
-393,350	105,156	-0,100	-0,087
-392,336	32,925	0,095	-0,060
-391,321	-200,000	0,011	0,055
-390,306	113,747	-0,074	-0,066
-389,292	-87,282	-0,069	-0,015
-388,277	-92,968	0,067	-0,014
-387,263	-47,219	0,105	0,037
-386,248	211,953	-0,064	0,074
-385,233	379,691	-0,014	-0,022
-384,219	-170,631	0,070	-0,002
-383,204	-200,000	0,002	0,031
-382,190	800,000	-0,036	-0,073
-381,175	-85,650	0,056	-0,013
-380,160	-104,908	0,183	-0,031
-379,146	-200,000	-0,031	-0,105
-378,131	227,313	-0,052	-0,063
-377,117	800,000	-0,025	0,078
-376,102	406,963	-0,029	-0,046
-375,088	-200,000	-0,007	-0,101
-374,073	23,816	-0,082	-0,049
-373,058	-79,235	-0,087	-0,021
-372,044	367,397	0,070	0,104
-371,029	753,508	-0,031	-0,061
-370,015	177,191	0,036	0,038
-369,000	269,169	0,093	-0,120
-367,985	-0,231	-0,124	-0,065
-366,971	71,270	-0,120	-0,091
-365,956	455,761	0,034	0,055
-364,942	-89,510	0,006	0,001
-363,927	800,000	-0,018	0,057
-362,912	-45,114	-0,052	-0,019
-361,898	-59,861	-0,028	-0,009
-360,883	-8,618	-0,029	-0,014
-359,869	614,431	-0,051	-0,094
-358,854	209,256	0,031	-0,036
-357,839	-54,993	0,072	0,024
-356,825	-200,000	0,006	-0,038
-355,810	-200,000	-0,003	0,120
-354,796	194,516	0,075	-0,083
-353,781	-118,896	0,143	0,018
-352,766	-200,000	-0,018	0,114
-351,752	193,275	0,033	-0,037
-350,737	491,595	0,028	0,047
-349,723	-36,457	0,073	0,029
-348,708	-200,000	-0,004	0,076
-347,693	-45,778	0,087	-0,031
-346,679	627,325	0,020	0,038
-345,664	597,591	-0,001	-0,003
-344,650	-128,748	0,113	0,012
-343,635	800,000	-0,010	-0,021
-342,620	331,235	0,046	0,066
-341,606	-133,642	0,026	-0,002
-340,591	-200,000	-0,016	-0,120
-339,577	668,683	0,060	-0,115
-338,562	800,000	0,002	-0,004
-337,548	-16,884	0,012	-0,006
-336,533	-2,359	0,077	-0,039
-335,518	-6,966	-0,022	0,011
-334,504	-200,000	0,012	0,104
-333,489	41,673	-0,040	-0,027
-332,475	410,263	-0,022	0,034
-331,460	3,422	-0,102	0,055
-330,445	121,405	0,029	0,027
-329,431	-86,140	0,105	0,024
-328,416	-200,000	-0,006	0,030
-327,402	379,254	0,041	0,062
-326,387	-200,000	-0,031	-0,102
-325,372	45,586	-0,102	0,069
-324,358	-200,000	0,034	-0,146
-323,343	-56,490	0,032	0,010
-322,329	58,924	0,090	0,065
-321,314	8,242	-0,077	0,042
-320,299	170,139	0,049	0,052
-319,285	256,372	-0,123	-0,155
-318,270	800,000	-0,033	-0,100
-317,256	8,886	-0,107	-0,059
-316,241	6,389	-0,102	-0,055
-315,226	-200,000	0,015	-0,067
-314,212	-116,440	0,074	0,010
-313,197	-59,000	0,139	0,044
-312,183	-128,810	0,149	0,015
-311,168	-93,140	-0,128	0,026
-310,153	174,274	-0,048	-0,051
-309,139	-90,968	0,112	0,023
-308,124	-108,739	-0,047	0,007
-307,110	-86,756	0,241	0,053
-306,095	-150,845	0,023	-0,001
-305,080	175,329	0,066	-0,071
-304,066	-43,950	-0,094	0,034
-303,051	-200,000	0,009	-0,136
-302,037	-200,000	0,010	0,117
-301,022	-0,455	0,159	0,082
-300,008	133,459	-0,041	0,039
-298,993	-200,000	-0,010	0,035
-297,978	55,624	0,096	0,068
-296,964	12,384	-0,071	-0,040
-295,949	398,036	0,034	-0,053
-294,935	-200,000	0,020	-0,080
-293,920	159,773	-0,053	0,054
-292,905	-152,895	0,178	0,009
-291,891	-200,000	-0,010	0,049
-290,876	-131,445	0,085	0,008
-289,862	150,579	-0,097	-0,096
-288,847	-100,322	-0,102	-0,018
-287,832	-35,683	-0,105	-0,041
-286,818	800,000	0,011	0,029
-285,803	-0,180	0,099	-0,051
-284,789	800,000	0,026	0,069
-283,774	227,752	0,056	0,067
-282,759	13,617	0,036	0,020
-281,745	17,365	0,113	-0,066
-280,730	205,011	0,029	-0,033
-279,716	-0,641	0,053	0,027
-278,701	-71,244	0,122	-0,033
-277,686	-85,465	-0,168	-0,038
-276,672	-200,000	-0,031	-0,122
-275,657	335,724	-0,034	0,048
-274,643	41,671	-0,069	0,045
-273,628	167,719	-0,083	-0,086
-272,613	226,234	-0,103	0,123
-271,599	800,000	0,069	-0,214
-270,584	-160,457	-0,202	-0,008
-269,570	-4,514	0,117	-0,059
-268,555	107,147	-0,064	-0,055
-267,540	-90,388	0,029	-0,006
-266,526	-200,000	0,011	-0,034
-265,511	-200,000	-0,007	-0,106
-264,497	-47,760	0,135	0,048
-263,482	-193,430	0,083	-0,001
-262,467	298,395	-0,033	-0,045
-261,453	-133,425	0,100	0,009
-260,438	684,314	-0,073	0,140
-259,424	-81,183	0,028	-0,007
-258,409	-159,115	0,146	0,006
-257,395	-43,598	0,204	0,075
-256,380	65,138	0,020	-0,014
-255,365	-200,000	0,008	0,092
-254,351	-139,929	-0,123	0,009
-253,336	-200,000	-0,011	0,037
-252,322	189,329	-0,047	-0,051
-251,307	92,647	-0,015	0,013
-250,292	800,000	0,068	0,143
-249,278	584,929	0,031	0,056
-248,263	158,986	-0,013	-0,013
-247,249	-104,894	0,117	0,019
-246,234	229,424	0,056	0,067
-245,219	12,929	0,050	-0,028
-244,205	367,786	-0,092	-0,137
-243,190	-200,000	0,015	0,119
-242,176	449,823	-0,017	0,028
-241,161	96,559	0,081	0,068
-240,146	63,264	-0,076	0,055
-239,132	-200,000	0,024	0,124
-238,117	-104,694	-0,005	0,001
-237,103	364,127	-0,072	-0,106
-236,088	128,691	-0,091	0,085
-235,073	-102,492	0,062	0,011
-234,059	-200,000	0,016	-0,165
-233,044	-200,000	0,003	0,059
-232,030	800,000	0,026	-0,068
-231,015	-81,308	-0,087	-0,021
-230,000	-162,525	-0,079	0,003
-228,986	303,912	0,039	-0,053
-227,971	-200,000	-0,015	-0,100
-226,957	365,240	0,152	-0,224
-225,942	800,000	-0,016	0,034
-224,927	-200,000	0,010	-0,108
-223,913	-200,000	0,016	-0,061
-222,898	-200,000	-0,010	-0,113
-221,884	-129,570	-0,222	-0,022
-220,869	-101,157	0,151	0,027
-219,855	229,906	-0,081	-0,097
-218,840	491,696	0,033	0,055
-217,825	800,000	-0,023	0,071
-216,811	-200,000	-0,009	0,051
-215,796	151,101	-0,101	-0,100
-214,782	113,143	0,035	-0,031
-213,767	-200,000	0,007	0,108
-212,752	-200,000	0,002	-0,023
-211,738	-200,000	0,027	0,099
-210,723	144,551	-0,013	0,013
-209,709	440,411	0,052	0,084
-208,694	-95,904	-0,076	-0,015
-207,679	175,289	0,008	-0,009
-206,665	90,478	-0,112	0,092
-205,650	40,928	0,065	0,043
-204,636	-123,602	0,128	-0,015
-203,621	312,452	-0,064	-0,089
-202,606	40,085	-0,112	-0,073
-201,592	6,298	0,002	-0,001
-200,577	63,533	0,039	0,028
-199,563	-82,577	-0,099	0,023
-198,548	-200,000	0,186	0,000
-197,533	-52,820	0,084	0,028
-196,519	-200,000	0,010	0,065
-195,504	474,595	-0,063	0,104
-194,490	558,651	-0,055	0,098
-193,475	102,327	0,082	0,070
-192,460	-200,000	0,009	-0,069
-191,446	48,577	0,058	0,040
-190,431	-156,095	0,045	-0,002
-189,417	-12,388	0,103	-0,049
-188,402	-200,000	0,011	-0,057
-187,387	-200,000	-0,008	-0,062
-186,373	-23,717	-0,091	0,040
-185,358	1,623	-0,054	-0,028
-184,344	547,522	0,047	0,082
-183,329	158,897	0,153	0,155
-182,315	570,881	0,064	0,114
-181,300	225,753	-0,035	0,041
-180,285	800,000	-0,083	-0,175
-179,271	-200,000	-0,025	-0,199
-178,256	207,816	0,096	0,110
-177,242	77,772	0,099	0,077
-176,227	23,573	0,022	0,013
-175,212	165,486	0,136	0,141
-174,198	530,262	-0,028	0,049
-173,183	-54,614	-0,061	0,020
-172,169	800,000	0,024	0,068
-171,154	38,355	-0,067	-0,043
-170,139	202,931	0,031	-0,035
-169,125	800,000	-0,014	0,041
-168,110	-154,040	0,025	0,001
-167,096	-90,250	-0,077	0,016
-166,081	800,000	-0,008	0,017
-165,066	-200,000	-0,037	-0,137
-164,052	-200,000	0,009	-0,058
-163,037	-200,000	-0,006	-0,036
-162,023	105,433	-0,048	-0,041
-161,008	346,903	0,014	0,021
-159,993	22,367	-0,063	-0,037
-158,979	-136,608	-0,055	-0,005
-157,964	-141,511	-0,164	0,012
-156,950	800,000	0,048	-0,107
-155,935	-200,000	-0,021	-0,075
-154,920	-71,350	0,102	-0,028
-153,906	-200,000	-0,027	0,135
-152,891	100,857	-0,090	0,076
-151,877	-121,986	-0,092	0,011
-150,862	22,979	-0,061	0,036
-149,847	-85,247	0,129	-0,029
-148,833	-200,000	0,008	0,076
-147,818	128,691	0,051	-0,047
-146,804	-200,000	-0,028	-0,094
-145,789	393,374	0,045	-0,068
-144,775	130,074	-0,046	-0,043
-143,760	723,839	0,035	0,069
-142,745	606,749	-0,018	-0,033
-141,731	-200,000	0,002	-0,025
-140,716	71,849	0,123	0,093
-139,702	-76,327	-0,091	-0,023
-138,687	-200,000	-0,016	-0,087
-137,672	-200,000	0,003	-0,058
-136,658	171,413	0,055	0,058
-135,643	-93,959	-0,123	-0,024
-134,629	35,432	0,089	-0,057
-133,614	422,741	-0,012	-0,018
-132,599	121,058	0,037	-0,034
-131,585	84,950	0,084	0,067
-130,570	95,456	0,120	0,099
-129,556	800,000	0,030	-0,065
-128,541	48,551	-0,047	-0,032
-127,526	135,576	0,076	0,072
-126,512	6,482	0,108	-0,058
-125,497	50,859	0,073	0,051
-124,483	800,000	0,039	0,114
-123,468	139,725	0,040	0,038
-122,453	742,097	0,035	0,068
-121,439	-200,000	-0,001	-0,065
-120,424	-94,158	-0,046	-0,009
-119,410	692,362	-0,054	0,104
-118,395	-200,000	0,008	0,025
-117,380	115,564	-0,049	0,043
-116,366	800,000	0,022	-0,058
-115,351	-36,416	-0,188	0,073
-114,337	61,109	-0,082	-0,059
-113,322	800,000	-0,068	-0,155
-112,307	181,748	0,082	0,088
-111,293	800,000	0,035	-0,108
-110,278	-86,027	-0,064	-0,014
-109,264	309,785	0,024	0,033
-108,249	-45,863	-0,135	0,048
-107,234	-20,745	-0,016	-0,007
-106,220	641,732	-0,037	-0,069
-105,205	145,429	0,128	0,125
-104,191	-200,000	-0,056	0,275
-103,176	32,392	-0,066	0,042
-102,162	-39,361	0,088	0,033
-101,147	15,231	-0,047	-0,027
-100,132	-146,082	-0,178	-0,011
-99,118	-48,772	0,060	-0,021
-98,103	800,000	0,034	0,070
-97,089	-200,000	-0,008	0,049
-96,074	800,000	-0,025	0,077
-95,059	-200,000	-0,009	-0,102
-94,045	232,926	-0,021	0,025
-93,030	181,694	-0,037	0,040
-92,016	-145,149	-0,058	-0,004
-91,001	800,000	-0,036	0,105
-89,986	150,367	-0,043	0,043
-88,972	482,650	0,024	0,040
-87,957	-200,000	-0,000	0,083
-86,943	671,517	-0,039	-0,074
-85,928	-28,144	-0,182	-0,076
-84,913	-77,570	-0,114	0,029
-83,899	-200,000	0,002	0,059
-82,884	800,000	0,012	0,028
-81,870	567,311	-0,022	-0,038
-80,855	412,586	0,010	-0,016
-79,840	-125,112	0,162	0,018
-78,826	142,814	-0,055	-0,053
-77,811	800,000	-0,035	-0,077
-76,797	-4,545	0,047	-0,024
-75,782	7,276	0,080	-0,043
-74,767	-94,967	-0,078	-0,015
-73,753	56,265	0,119	0,084
-72,738	440,483	-0,021	0,033
-71,724	222,279	0,038	0,045
-70,709	93,907	-0,088	0,072
-69,694	-157,331	0,062	0,003
-68,680	800,000	-0,014	0,032
-67,665	-200,000	-0,031	0,148
-66,651	788,285	0,054	0,108
-65,636	86,753	0,043	-0,034
-64,622	243,686	-0,052	0,064
-63,607	-17,759	-0,157	0,071
-62,592	322,642	-0,057	0,079
-61,578	544,543	0,038	0,067
-60,563	177,532	0,074	0,078
-59,549	800,000	0,020	0,063
-58,534	-115,316	-1,413	-0,191
-57,519	624,951	-0,781	-1,434
-56,505	-200,000	-0,900	-4,516
-55,490	-53,847	0,577	-0,190
-54,476	800,000	5,011	11,901
-53,461	-200,000	13,742	252,874
-52,446	-200,000	689,742	2253,382
-51,432	586,986	1622,117	2906,750
-50,417	119,241	1634,819	1466,651
-49,403	72,951	1288,800	975,281
-48,388	38,021	1023,936	659,000
-47,373	24,297	981,466	586,577
-46,359	23,548	971,185	577,953
-45,344	22,517	967,185	572,183
-44,330	22,434	965,585	570,944
-43,315	22,384	964,051	569,851
-42,300	22,336	962,930	569,011
-41,286	22,340	962,049	568,479
-40,271	22,350	961,105	567,933
-39,257	22,299	960,386	567,321
-38,242	22,323	959,240	566,697
-37,227	22,279	958,537	566,116
-36,213	22,268	957,756	565,599
-35,198	22,215	956,828	564,856
-34,184	22,364	956,220	564,956
-33,169	22,247	955,357	564,047
-32,154	22,397	954,236	563,846
-31,140	22,347	953,356	563,142
-30,125	22,404	952,570	562,840
-29,111	22,331	951,818	562,139
-28,096	22,322	951,135	561,684
-27,082	22,325	950,444	561,262
-26,067	22,330	949,839	560,898
-25,052	22,277	949,089	560,264
-24,038	22,383	948,435	560,194
-23,023	22,298	947,885	559,575
-22,009	22,380	946,923	559,248
-20,994	22,406	946,425	559,015
-19,979	22,375	945,903	558,584
-18,965	22,354	945,195	558,076
-17,950	22,353	944,605	557,703
-16,936	22,347	943,809	557,193
-15,921	22,299	943,154	556,633
-14,906	22,240	942,426	555,991
-13,892	22,198	941,859	555,503
-12,877	22,249	941,037	555,156
-11,863	22,196	940,665	554,746
-10,848	22,220	940,169	554,510
-9,833	22,272	939,752	554,407
-8,819	22,302	938,962	554,014
-7,804	22,245	938,287	553,413
-6,790	22,232	937,730	553,020
-5,775	22,279	937,148	552,804
-4,760	22,195	936,634	552,214
-3,746	22,242	935,787	551,842
-2,731	22,093	935,132	550,963
-1,717	21,975	934,639	550,278
-0,702	22,038	933,666	549,881
0,313	21,828	933,243	549,800
1,327	24,987	931,314	558,541
2,342	34,717	795,857	503,197
3,356	32,948	451,310	282,663
4,371	1,771	293,756	152,905
5,386	-2,818	274,570	138,569
6,400	-4,227	268,880	134,378
7,415	-4,475	266,470	132,934
8,429	-4,177	265,172	132,548
9,444	-4,343	264,381	131,989
10,459	-4,205	263,962	131,894
11,473	-4,333	263,308	131,439
12,488	-4,457	262,591	130,957
13,502	-4,416	262,039	130,707
14,517	-4,369	261,549	130,494
15,531	-4,469	261,310	130,272
16,546	-4,435	260,858	130,066
17,561	-4,485	260,532	129,847
18,575	-4,467	260,179	129,676
19,590	-4,383	259,740	129,521
20,604	-4,304	259,564	129,492
21,619	-4,563	259,412	129,173
22,634	-4,576	258,922	128,906
23,648	-4,593	258,718	128,777
24,663	-4,478	258,489	128,755
25,677	-4,374	258,071	128,627
26,692	-4,358	257,904	128,546
27,707	-4,578	257,717	128,247
28,721	-4,703	257,415	127,974
29,736	-4,478	256,962	127,936
30,750	-4,762	256,976	127,681
31,765	-4,716	256,520	127,483
32,780	-4,539	256,345	127,541
33,794	-4,499	256,129	127,458
34,809	-4,615	255,817	127,189
35,823	-4,572	255,688	127,151
36,838	-4,573	255,375	126,983
37,853	-4,587	255,185	126,865
38,867	-4,796	254,974	126,566
39,882	-4,755	254,845	126,527
40,896	-4,587	254,563	126,522
41,911	-4,605	254,311	126,370
42,926	-4,775	253,849	125,981
43,940	-4,765	253,763	125,936
44,955	-4,794	253,608	125,822
45,969	-4,941	253,464	125,611
46,984	-4,970	253,060	125,375
47,999	-5,030	252,832	125,198
49,013	-5,362	252,645	124,807
50,028	-5,439	252,428	124,621
51,042	-5,484	252,162	124,440
52,057	-5,574	251,930	124,237
53,071	-5,267	251,664	124,359
54,086	-5,104	251,552	124,434
55,101	-5,186	251,462	124,308
56,115	-5,230	251,397	124,226
57,130	-4,543	251,098	124,660
58,144	-4,172	251,023	124,932
59,159	-4,209	250,892	124,823
60,174	-4,484	250,730	124,495
61,188	-4,456	250,437	124,363
62,203	-4,571	250,281	124,176
63,217	-4,361	249,910	124,161
64,232	-4,542	249,797	123,938
65,247	-4,370	249,516	123,935
66,261	-4,531	249,420	123,738
67,276	-4,819	249,076	123,310
68,290	-4,789	248,787	123,182
69,305	-5,074	248,610	122,840
70,320	-5,088	248,465	122,745
71,334	-4,762	248,312	122,937
72,349	-4,594	248,206	123,016
73,363	-4,692	248,095	122,867
74,378	-4,520	247,679	122,796
75,393	-4,577	247,569	122,682
76,407	-4,550	247,439	122,630
77,422	-4,618	247,230	122,458
78,436	-4,562	246,934	122,347
79,451	-4,502	246,804	122,323
80,466	-4,614	246,437	122,036
81,480	-4,798	246,274	121,788
82,495	-4,709	246,029	121,731
83,509	-4,686	245,850	121,651
84,524	-4,934	245,937	121,475
85,539	-5,012	245,502	121,183
86,553	-4,926	245,266	121,128
87,568	-4,757	245,047	121,151
88,582	-4,914	245,043	121,006
89,597	-4,899	244,791	120,884
90,611	-4,630	244,578	120,993
91,626	-4,810	244,538	120,812
92,641	-4,534	244,301	120,915
93,655	-4,678	244,090	120,680
94,670	-4,627	243,855	120,595
95,684	-4,688	243,717	120,465
96,699	-4,661	243,555	120,397
97,714	-4,751	243,186	120,129
98,728	-4,789	243,183	120,085
99,743	-5,025	242,854	119,715
100,757	-5,162	242,823	119,576
101,772	-4,735	242,498	119,760
102,787	-4,799	242,356	119,626
103,801	-4,866	242,245	119,505
104,816	-4,800	242,090	119,472
105,830	-4,535	241,964	119,619
106,845	-4,307	241,719	119,675
107,860	-4,528	241,600	119,423
108,874	-4,704	241,217	119,078
109,889	-4,691	241,131	119,035
110,903	-4,602	240,968	119,018
111,918	-4,771	240,730	118,751
112,933	-4,663	240,677	118,803
113,947	-4,757	240,604	118,679
114,962	-4,577	240,507	118,768
115,976	-4,749	240,142	118,437
116,991	-4,768	239,991	118,336
118,006	-4,716	239,763	118,255
119,020	-4,611	239,717	118,308
120,035	-4,611	239,577	118,228
121,049	-4,681	239,570	118,157
122,064	-4,248	239,132	118,284
123,079	-4,522	238,957	117,963
124,093	-4,648	238,801	117,774
125,108	-4,953	238,609	117,419
126,122	-4,943	238,180	117,206
127,137	-5,085	238,118	117,050
128,151	-4,967	237,990	117,072
129,166	-4,953	237,974	117,065
130,181	-4,987	237,630	116,858
131,195	-5,044	237,566	116,770
132,210	-4,782	237,425	116,902
133,224	-4,495	237,258	117,042
134,239	-4,509	237,044	116,915
135,254	-4,615	236,937	116,766
136,268	-4,625	236,574	116,569
137,283	-4,981	236,480	116,225
138,297	-5,075	236,188	115,995
139,312	-4,833	236,074	116,123
140,327	-4,876	235,851	115,969
141,341	-4,346	235,949	116,433
142,356	-4,194	235,819	116,481
143,370	-4,143	235,578	116,393
144,385	-4,261	235,443	116,221
145,400	-4,330	235,323	116,096
146,414	-4,245	235,114	116,051
147,429	-4,308	234,889	115,878
148,443	-4,502	234,879	115,708
149,458	-4,334	234,634	115,712
150,473	-4,318	234,413	115,605
151,487	-4,149	234,322	115,685
152,502	-4,432	234,154	115,366
153,516	-4,348	233,904	115,299
154,531	-4,256	233,731	115,277
155,546	-4,296	233,487	115,114
156,560	-4,459	233,426	114,945
157,575	-4,440	233,243	114,859
158,589	-4,326	233,011	114,825
159,604	-4,340	232,976	114,786
160,619	-4,159	232,759	114,813
161,633	-4,182	232,701	114,756
162,648	-4,178	232,510	114,655
163,662	-4,255	232,319	114,489
164,677	-4,293	232,052	114,318
165,692	-4,131	231,919	114,369
166,706	-4,096	231,807	114,332
167,721	-4,005	231,512	114,247
168,735	-4,231	231,565	114,086
169,750	-4,221	231,410	114,007
170,764	-4,263	231,242	113,881
171,779	-4,298	231,162	113,804
172,794	-4,222	231,026	113,786
173,808	-4,192	230,797	113,688
174,823	-4,666	230,474	113,146
175,837	-4,980	230,332	112,821
176,852	-4,443	230,283	113,207
177,867	-4,323	230,220	113,260
178,881	-4,313	229,986	113,142
179,896	-4,354	229,833	113,025
180,910	-4,272	229,730	113,028
181,925	-4,361	229,518	112,844
182,940	-4,099	229,419	112,990
183,954	-4,188	229,269	112,837
184,969	-4,308	229,227	112,713
185,983	-4,032	228,972	112,792
186,998	-4,271	228,899	112,560
188,013	-3,944	228,629	112,671
189,027	-4,030	228,519	112,540
190,042	-4,044	228,337	112,429
191,056	-3,993	228,183	112,383
192,071	-3,893	227,999	112,360
193,086	-3,914	227,889	112,279
194,100	-3,969	227,690	112,129
195,115	-4,272	227,362	111,724
196,129	-4,478	227,362	111,555
197,144	-2,370	228,004	113,489
198,159	0,868	228,951	116,460
199,173	3,698	229,504	118,925
200,188	4,348	229,557	119,446
201,202	4,152	229,426	119,215
202,217	4,433	229,285	119,349
203,232	4,353	229,269	119,267
204,246	4,665	229,037	119,377
205,261	4,596	228,994	119,291
206,275	4,718	228,904	119,328
207,290	4,935	228,729	119,393
208,304	4,846	228,499	119,194
209,319	4,747	228,342	119,026
210,334	4,710	228,075	118,847
211,348	4,621	227,847	118,649
212,363	4,238	227,522	118,176
213,377	3,884	227,492	117,878
214,392	3,888	227,291	117,766
215,407	3,983	227,170	117,766
216,421	3,810	227,001	117,536
217,436	3,999	226,804	117,567
218,450	3,586	226,702	117,189
219,465	3,694	226,489	117,151
220,480	3,811	226,324	117,144
221,494	3,693	226,295	117,028
222,509	3,714	226,199	116,985
223,523	3,973	225,896	117,015
224,538	3,833	225,773	116,833
225,553	3,809	225,730	116,783
226,567	3,992	225,627	116,858
227,582	4,245	225,426	116,935
228,596	4,541	225,437	117,156
229,611	3,910	225,107	116,495
230,626	3,565	224,968	116,152
231,640	3,954	224,616	116,254
232,655	4,356	224,549	116,513
233,669	4,563	224,700	116,737
234,684	4,753	224,604	116,820
235,699	4,463	224,196	116,379
236,713	4,213	224,089	116,125
237,728	3,814	224,026	115,781
238,742	3,994	223,726	115,751
239,757	3,872	223,582	115,575
240,772	3,691	223,503	115,387
241,786	3,761	223,398	115,376
242,801	4,153	223,121	115,516
243,815	4,271	223,332	115,703
244,830	4,396	223,074	115,653
245,844	4,267	222,731	115,369
246,859	3,831	222,755	115,045
247,874	4,193	222,531	115,189
248,888	4,097	222,418	115,049
249,903	4,001	222,387	114,951
250,917	3,803	222,103	114,646
251,932	3,907	221,947	114,633
252,947	3,827	221,708	114,439
253,961	3,638	221,571	114,218
254,976	3,674	221,439	114,166
255,990	4,287	221,268	114,523
257,005	4,175	221,231	114,411
258,020	4,183	221,232	114,407
259,034	4,240	221,047	114,344
260,049	4,079	220,974	114,176
261,063	4,076	220,709	114,027
262,078	4,493	220,554	114,246
263,093	4,419	220,480	114,142
264,107	4,462	220,214	114,026
265,122	4,146	220,222	113,786
266,136	4,347	220,093	113,858
267,151	4,370	219,862	113,745
268,166	3,977	219,780	113,403
269,180	3,819	219,423	113,092
270,195	3,997	219,175	113,086
271,209	4,030	219,169	113,097
272,224	3,767	219,230	112,925
273,239	3,985	218,974	112,943
274,253	3,788	218,812	112,705
275,268	3,669	218,532	112,464
276,282	3,692	218,436	112,421
277,297	3,539	218,338	112,248
278,312	3,699	218,143	112,255
279,326	3,926	218,135	112,407
280,341	3,783	217,910	112,176
281,355	3,901	217,810	112,201
282,370	3,910	217,585	112,082
283,384	3,728	217,447	111,868
284,399	3,577	217,289	111,667
285,414	3,758	217,068	111,675
286,428	3,738	217,172	111,704
287,443	4,159	217,007	111,915
288,457	3,846	217,028	111,688
289,472	3,870	216,662	111,507
290,487	3,319	216,423	110,975
291,501	3,389	216,146	110,874
292,516	3,600	216,127	111,007
293,530	3,625	216,054	110,978
294,545	3,476	215,874	110,767
295,560	3,764	215,739	110,897
296,574	4,020	215,582	110,990
297,589	3,944	215,480	110,873
298,603	3,881	215,452	110,804
299,618	4,011	215,300	110,809
300,633	3,846	215,289	110,675
301,647	4,279	215,072	110,864
302,662	4,170	214,950	110,714
303,676	3,960	214,950	110,553
304,691	4,132	214,763	110,570
305,706	4,266	214,528	110,536
306,720	4,127	214,215	110,265
307,735	3,888	214,112	110,031
308,749	3,783	213,984	109,880
309,764	4,094	213,936	110,068
310,779	4,193	213,851	110,086
311,793	3,929	213,670	109,794
312,808	4,132	213,503	109,843
313,822	4,106	213,382	109,752
314,837	3,818	213,185	109,436
315,852	3,832	213,081	109,383
316,866	3,891	212,890	109,317
317,881	3,999	212,915	109,397
318,895	4,004	212,722	109,292
319,910	3,871	212,602	109,126
320,925	3,695	212,373	108,874
321,939	3,455	212,158	108,584
322,954	3,583	212,107	108,639
323,968	4,080	212,049	108,951
324,983	3,939	211,902	108,766
325,997	4,115	211,742	108,799
327,012	4,046	211,662	108,699
328,027	3,980	211,501	108,560
329,041	4,121	211,469	108,634
330,056	4,300	211,362	108,696
331,070	3,882	211,271	108,344
332,085	3,650	210,919	107,991
333,100	3,699	210,779	107,944
334,114	3,915	210,666	108,028
335,129	4,191	210,455	108,104
336,143	3,753	210,319	107,718
337,158	3,810	210,340	107,758
338,173	3,826	210,126	107,651
339,187	3,585	209,953	107,384
340,202	3,483	209,709	107,178
341,216	3,388	209,681	107,088
342,231	3,889	209,556	107,364
343,246	3,714	209,360	107,132
344,260	3,647	209,291	107,041
345,275	3,807	209,173	107,082
346,289	3,776	209,029	106,977
347,304	4,208	208,895	107,200
348,319	3,802	208,754	106,836
349,333	3,793	208,629	106,756
350,348	4,282	208,507	107,023
351,362	3,922	208,540	106,780
352,377	3,925	208,418	106,711
353,392	3,919	208,284	106,629
354,406	3,906	207,996	106,463
355,421	194,395	1345,805	1435,141
356,435	155,111	1484,538	1435,261
