DTS Sentinel unit serial number:	SN410029Multiplexer serial number:	ORYXHardware model number:	OX2-SRSoftware version number:	ORYX F/W v4,00 Oryx Data Collector v3.7.2.0data status	okinstallation	B6 Nyhavnadifferential loss correction	single-endedforward channel	channel 2reverse channel	N/Adate	2023/12/08time	23:40:08forward acquisition time	300,00reverse acquisition time	0,00gamma	499,1914k internal	0,3157k external	0,3157temperature offset calibration	1,0000default loss term (dB/km)	0,3820temperature slope calibration	1,0000multiplexer offset coefficient	1,0000multiplexer slope coefficient	1,0000fibre end	0,00T internal ref (°C)	15,50T ext. ref 1 (°C)	-0,91T ext. ref 2 (°C)	-0,93length (m)	temperature (°C)	Stokes	anti-Stokes-744,400	128,881	0,132	-0,124
-743,385	-169,558	-0,309	-0,008
-742,371	70,499	0,149	0,113
-741,356	-12,233	-0,179	0,086
-740,342	33,665	-0,027	-0,018
-739,327	-135,186	-0,199	-0,017
-738,312	171,353	0,071	0,075
-737,298	-113,828	-0,235	-0,033
-736,283	-200,000	0,012	0,071
-735,269	-32,766	-0,316	0,129
-734,254	295,233	0,073	0,099
-733,239	-61,083	-0,565	-0,175
-732,225	-192,003	0,211	0,001
-731,210	-200,000	-0,030	0,221
-730,196	-200,000	0,024	0,088
-729,181	-191,916	-0,112	-0,001
-728,167	-154,821	-0,089	-0,004
-727,152	-68,773	-0,130	0,037
-726,137	160,082	-0,092	0,094
-725,123	488,500	-0,033	-0,055
-724,108	9,924	0,053	0,030
-723,094	-200,000	-0,018	-0,138
-722,079	-200,000	-0,024	-0,138
-721,064	-200,000	-0,002	-0,052
-720,050	800,000	0,019	-0,057
-719,035	47,499	-0,069	-0,047
-718,021	23,040	-0,242	-0,146
-717,006	800,000	-0,025	0,075
-715,991	800,000	-0,010	-0,029
-714,977	11,731	0,082	-0,046
-713,962	800,000	0,018	-0,057
-712,948	800,000	-0,023	0,057
-711,933	-200,000	0,038	-0,229
-710,918	7,238	-0,115	-0,063
-709,904	800,000	0,050	-0,158
-708,889	-171,401	0,057	0,001
-707,875	-48,676	0,071	-0,025
-706,860	-130,780	-0,104	0,010
-705,845	-200,000	-0,033	-0,140
-704,831	263,056	-0,045	0,057
-703,816	116,402	-0,039	-0,035
-702,802	-111,439	0,035	0,005
-701,787	-200,000	0,020	-0,079
-700,772	-24,171	-0,112	-0,049
-699,758	-169,426	0,071	-0,002
-698,743	435,215	0,044	0,071
-697,729	-5,422	0,028	-0,014
-696,714	-65,607	-0,045	0,013
-695,699	29,404	0,053	-0,033
-694,685	-27,955	-0,040	0,017
-693,670	80,434	-0,045	0,036
-692,656	-105,798	-0,084	-0,014
-691,641	320,509	0,054	0,076
-690,627	10,709	-0,083	0,046
-689,612	204,494	0,072	-0,082
-688,597	-95,341	-0,068	0,013
-687,583	-103,336	-0,171	-0,029
-686,568	-107,036	0,095	-0,015
-685,554	648,652	0,014	0,027
-684,539	-104,448	0,056	-0,009
-683,524	35,675	-0,073	-0,047
-682,510	-23,423	-0,054	-0,024
-681,495	-23,553	0,063	-0,028
-680,481	-158,172	-0,159	-0,007
-679,466	0,945	0,142	0,075
-678,451	-5,241	-0,199	-0,100
-677,437	-200,000	0,007	0,066
-676,422	-200,000	-0,003	-0,134
-675,408	800,000	-0,034	-0,077
-674,393	83,028	-0,068	-0,055
-673,378	676,912	-0,013	-0,024
-672,364	100,230	-0,169	-0,144
-671,349	800,000	-0,047	-0,111
-670,335	-47,553	-0,123	-0,044
-669,320	-200,000	0,013	-0,084
-668,305	800,000	0,032	-0,080
-667,291	-200,000	-0,004	-0,027
-666,276	-3,217	-0,198	-0,101
-665,262	-169,705	-0,164	0,004
-664,247	-6,182	-0,059	0,030
-663,232	93,454	-0,118	0,098
-662,218	175,580	0,055	0,059
-661,203	799,093	-0,016	0,033
-660,189	7,536	-0,162	0,089
-659,174	-30,618	-0,088	-0,037
-658,159	-73,348	-0,191	-0,051
-657,145	208,847	-0,006	-0,007
-656,130	-75,593	-0,148	-0,038
-655,116	-200,000	0,011	-0,129
-654,101	211,904	-0,068	0,078
-653,086	-29,125	0,069	-0,029
-652,072	321,237	-0,047	-0,066
-651,057	-89,163	-0,130	-0,028
-650,043	800,000	0,024	0,072
-649,028	50,699	0,113	0,078
-648,014	-53,871	-0,078	0,026
-646,999	-8,026	0,165	0,081
-645,984	91,127	-0,154	0,127
-644,970	-200,000	-0,005	-0,184
-643,955	-200,000	0,004	-0,046
-642,941	-0,827	-0,128	-0,066
-641,926	-12,883	-0,045	-0,022
-640,911	-200,000	0,025	0,101
-639,897	800,000	-0,024	0,057
-638,882	-200,000	-0,008	-0,060
-637,868	367,199	0,040	0,059
-636,853	800,000	-0,033	-0,083
-635,838	-200,000	-0,001	-0,076
-634,824	250,306	0,074	-0,093
-633,809	-112,578	0,154	-0,022
-632,795	327,571	-0,048	0,068
-631,780	425,005	0,071	0,112
-630,765	112,567	0,041	0,037
-629,751	200,057	-0,155	-0,175
-628,736	44,174	-0,095	-0,064
-627,722	-116,869	-0,092	0,012
-626,707	352,727	0,105	-0,153
-625,692	101,263	0,048	-0,041
-624,678	189,445	-0,128	0,141
-623,663	172,516	-0,036	-0,038
-622,649	24,691	-0,068	0,041
-621,634	-103,236	-0,192	-0,033
-620,619	-4,312	-0,090	-0,046
-619,605	-155,965	0,148	0,007
-618,590	-33,647	-0,053	-0,021
-617,576	191,744	0,048	0,054
-616,561	79,883	0,077	-0,061
-615,546	-200,000	0,001	-0,004
-614,532	167,048	0,083	-0,087
-613,517	-123,467	0,032	0,004
-612,503	-17,348	0,054	0,025
-611,488	-138,211	-0,114	-0,009
-610,474	362,226	0,071	-0,105
-609,459	135,654	-0,028	0,026
-608,444	-200,000	0,014	-0,044
-607,430	304,749	-0,113	-0,154
-606,415	-48,306	-0,143	0,050
-605,401	-73,737	0,068	0,018
-604,386	-46,967	0,109	0,039
-603,371	-10,106	0,093	0,045
-602,357	68,198	0,022	0,016
-601,342	393,469	-0,045	-0,068
-600,328	67,142	0,090	-0,067
-599,313	-128,371	-0,074	0,008
-598,298	385,277	0,054	-0,083
-597,284	39,720	0,102	-0,067
-596,269	621,824	-0,063	0,116
-595,255	736,144	-0,048	0,095
-594,240	481,746	0,022	0,036
-593,225	46,574	-0,072	-0,049
-592,211	800,000	0,003	-0,009
-591,196	626,313	0,018	-0,033
-590,182	-200,000	-0,036	-0,123
-589,167	306,568	0,028	0,039
-588,152	-83,129	0,057	-0,013
-587,138	-200,000	-0,002	-0,011
-586,123	800,000	-0,013	0,035
-585,109	68,573	0,057	-0,043
-584,094	-200,000	-0,001	0,031
-583,079	6,615	0,057	-0,031
-582,065	800,000	-0,061	-0,127
-581,050	-115,822	0,057	0,008
-580,036	193,276	-0,011	0,013
-579,021	-200,000	0,006	0,037
-578,006	608,950	-0,070	-0,129
-576,992	-20,436	-0,060	0,027
-575,977	-200,000	0,016	0,144
-574,963	723,275	0,030	-0,059
-573,948	800,000	-0,049	0,101
-572,934	438,140	0,008	-0,013
-571,919	778,047	0,052	-0,104
-570,904	123,703	0,009	-0,008
-569,890	177,726	-0,086	0,092
-568,875	203,823	-0,030	-0,033
-567,861	-200,000	0,004	0,160
-566,846	-20,449	-0,027	0,012
-565,831	-200,000	-0,019	0,080
-564,817	124,034	0,037	-0,034
-563,802	320,325	0,058	-0,080
-562,788	-200,000	0,018	-0,116
-561,773	67,828	-0,114	0,085
-560,758	-64,068	0,119	-0,035
-559,744	108,414	-0,023	0,020
-558,729	-61,801	-0,139	0,042
-557,715	-32,727	-0,089	0,036
-556,700	800,000	-0,060	-0,155
-555,685	81,043	0,051	-0,040
-554,671	76,878	-0,023	0,018
-553,656	-65,834	-0,109	-0,032
-552,642	-200,000	0,022	0,116
-551,627	-167,054	-0,120	0,004
-550,612	-83,526	-0,045	-0,010
-549,598	256,459	-0,073	-0,092
-548,583	-32,226	0,068	-0,028
-547,569	404,558	-0,013	0,020
-546,554	800,000	-0,032	0,085
-545,539	-5,757	-0,100	-0,050
-544,525	-200,000	0,014	-0,093
-543,510	308,118	-0,092	-0,125
-542,496	-200,000	-0,024	-0,085
-541,481	800,000	-0,029	0,091
-540,466	-200,000	0,007	0,099
-539,452	800,000	0,034	0,073
-538,437	36,955	-0,079	-0,051
-537,423	10,245	-0,108	0,060
-536,408	-200,000	0,021	0,096
-535,393	-36,449	-0,116	-0,046
-534,379	-19,087	-0,040	-0,018
-533,364	-200,000	0,016	-0,157
-532,350	-182,063	-0,162	-0,002
-531,335	328,239	0,110	0,155
-530,321	800,000	-0,019	0,051
-529,306	160,654	0,067	-0,069
-528,291	778,616	0,042	0,085
-527,277	232,711	0,062	0,074
-526,262	753,772	-0,027	0,054
-525,248	327,516	-0,024	-0,033
-524,233	213,262	0,080	0,093
-523,218	-200,000	0,000	0,091
-522,204	61,867	0,065	-0,047
-521,189	19,064	-0,091	0,053
-520,175	491,292	-0,034	-0,058
-519,160	-200,000	0,030	-0,106
-518,145	-200,000	-0,009	0,092
-517,131	32,701	-0,043	0,027
-516,116	-21,314	0,136	0,061
-515,102	634,583	0,042	0,078
-514,087	-116,558	-0,134	0,018
-513,072	322,023	0,032	-0,044
-512,058	-200,000	-0,029	-0,155
-511,043	355,413	-0,024	0,035
-510,029	-200,000	-0,044	0,167
-509,014	800,000	0,029	0,073
-507,999	-62,089	0,126	-0,038
-506,985	468,858	0,017	0,027
-505,970	-3,312	-0,160	-0,081
-504,956	324,623	-0,042	-0,058
-503,941	428,007	-0,078	-0,123
-502,926	-200,000	0,008	0,146
-501,912	800,000	-0,025	0,063
-500,897	324,133	-0,023	0,032
-499,883	46,405	-0,050	-0,034
-498,868	-130,237	-0,052	-0,005
-497,853	36,242	0,035	-0,023
-496,839	485,976	0,068	-0,113
-495,824	480,734	0,051	0,085
-494,810	71,775	-0,085	0,065
-493,795	-200,000	-0,005	-0,015
-492,781	32,555	0,069	-0,043
-491,766	800,000	-0,023	0,056
-490,751	-169,229	-0,088	0,002
-489,737	-71,988	-0,132	-0,036
-488,722	800,000	0,029	-0,085
-487,708	32,700	0,077	0,049
-486,693	-19,934	-0,055	0,025
-485,678	-116,528	-0,080	-0,011
-484,664	47,857	0,157	0,107
-483,649	-24,391	-0,115	0,050
-482,635	130,223	0,080	0,075
-481,620	-77,483	0,024	-0,006
-480,605	-45,407	0,059	-0,021
-479,591	-58,511	-0,124	0,039
-478,576	-22,828	0,121	0,053
-477,562	207,974	-0,052	-0,059
-476,547	800,000	0,019	-0,047
-475,532	-2,882	0,072	-0,036
-474,518	128,111	0,061	0,057
-473,503	-1,135	0,145	0,074
-472,489	56,906	-0,111	0,079
-471,474	800,000	-0,010	0,025
-470,459	62,755	0,139	-0,101
-469,445	800,000	-0,019	-0,061
-468,430	-53,174	0,040	0,013
-467,416	337,248	0,121	0,172
-466,401	800,000	-0,006	-0,016
-465,386	161,574	0,028	-0,028
-464,372	-133,872	0,111	0,010
-463,357	-200,000	-0,039	-0,139
-462,343	627,987	0,067	-0,124
-461,328	106,407	0,148	-0,128
-460,313	-71,129	-0,087	-0,024
-459,299	-140,235	-0,042	-0,003
-458,284	-135,952	0,058	0,005
-457,270	-35,226	0,092	-0,036
-456,255	-200,000	0,007	-0,077
-455,241	116,248	-0,080	-0,071
-454,226	-99,919	-0,041	0,007
-453,211	-34,397	0,072	-0,029
-452,197	-104,010	-0,084	0,014
-451,182	-200,000	-0,003	0,017
-450,168	-200,000	-0,048	-0,196
-449,153	21,567	-0,079	0,047
-448,138	256,093	0,009	0,011
-447,124	-168,887	0,136	0,004
-446,109	-200,000	0,003	-0,188
-445,095	583,374	0,043	0,078
-444,080	27,398	0,076	0,047
-443,065	-200,000	-0,008	0,056
-442,051	682,088	0,045	-0,086
-441,036	-200,000	0,017	-0,141
-440,022	-200,000	0,016	-0,072
-439,007	38,734	0,039	0,026
-437,992	158,081	-0,065	-0,065
-436,978	800,000	-0,030	0,064
-435,963	800,000	-0,029	0,081
-434,949	-45,818	0,064	0,023
-433,934	-112,594	-0,070	-0,010
-432,919	800,000	-0,085	-0,185
-431,905	786,447	0,061	-0,122
-430,890	-71,159	0,053	0,014
-429,876	-200,000	0,025	0,217
-428,861	-200,000	0,018	0,097
-427,846	-114,506	-0,197	-0,027
-426,832	-120,179	-0,096	0,012
-425,817	710,999	0,048	-0,094
-424,803	766,838	-0,038	0,076
-423,788	800,000	0,056	0,120
-422,773	70,015	-0,060	0,045
-421,759	46,690	0,096	-0,065
-420,744	-200,000	0,006	-0,073
-419,730	24,967	-0,093	-0,056
-418,715	-46,641	-0,142	-0,050
-417,701	336,006	0,040	-0,056
-416,686	24,565	0,041	-0,025
-415,671	84,411	-0,132	-0,105
-414,657	-70,156	0,161	-0,044
-413,642	-58,555	-0,117	0,037
-412,628	-10,825	-0,153	0,073
-411,613	-5,560	0,107	0,053
-410,598	-37,709	-0,056	0,022
-409,584	800,000	-0,055	-0,117
-408,569	98,130	0,051	0,042
-407,555	-200,000	0,022	0,127
-406,540	455,781	-0,053	-0,087
-405,525	614,306	-0,025	-0,046
-404,511	86,694	0,064	-0,052
-403,496	800,000	-0,060	-0,127
-402,482	103,188	-0,023	-0,020
-401,467	182,427	0,106	0,114
-400,452	-44,079	0,141	-0,051
-399,438	-73,495	-0,051	-0,014
-398,423	-200,000	-0,011	0,089
-397,409	800,000	-0,048	0,102
-396,394	800,000	-0,065	-0,142
-395,379	-77,198	-0,056	-0,014
-394,365	186,134	0,053	0,058
-393,350	363,742	0,061	0,090
-392,336	615,310	0,019	0,035
-391,321	-81,180	-0,180	-0,043
-390,306	-30,217	-0,089	-0,037
-389,292	-180,673	0,063	-0,001
-388,277	-156,608	-0,060	0,003
-387,263	114,437	0,123	-0,109
-386,248	-37,818	0,074	0,028
-385,233	800,000	0,035	0,091
-384,219	-140,819	0,152	-0,011
-383,204	28,079	0,043	-0,027
-382,190	61,361	0,134	-0,097
-381,175	-25,679	-0,089	0,038
-380,160	-200,000	0,023	-0,096
-379,146	-59,972	0,087	0,027
-378,131	19,875	-0,084	-0,049
-377,117	128,703	0,027	0,025
-376,102	-200,000	-0,008	0,101
-375,088	-132,167	0,116	0,011
-374,073	2,331	-0,097	0,051
-373,058	-200,000	-0,022	0,163
-372,044	96,406	0,107	0,089
-371,029	484,475	0,113	0,188
-370,015	408,636	0,045	0,069
-369,000	-106,212	0,011	-0,002
-367,985	2,842	0,029	-0,015
-366,971	800,000	0,037	-0,086
-365,956	-200,000	-0,027	0,182
-364,942	782,963	-0,075	0,150
-363,927	-151,340	0,117	0,006
-362,912	8,446	-0,012	-0,007
-361,898	-114,414	0,060	-0,008
-360,883	203,362	0,046	0,052
-359,869	478,449	0,072	-0,119
-358,854	187,159	0,011	0,012
-357,839	-45,778	0,128	-0,046
-356,825	525,564	0,068	0,117
-355,810	419,006	-0,067	0,104
-354,796	618,391	0,029	-0,052
-353,781	-64,288	-0,061	-0,018
-352,766	78,221	0,044	0,034
-351,752	12,180	0,067	-0,038
-350,737	58,581	0,028	0,020
-349,723	329,529	-0,012	0,017
-348,708	-60,365	-0,065	0,020
-347,693	-200,000	0,002	-0,070
-346,679	-200,000	0,012	-0,164
-345,664	-200,000	0,027	-0,107
-344,650	531,025	-0,068	-0,116
-343,635	229,461	0,100	0,119
-342,620	-200,000	0,004	0,135
-341,606	-200,000	0,001	0,104
-340,591	-200,000	0,018	0,071
-339,577	457,593	-0,072	-0,116
-338,562	-200,000	0,001	-0,030
-337,548	-200,000	-0,009	-0,077
-336,533	445,499	-0,134	0,214
-335,518	575,575	0,085	0,152
-334,504	-96,479	-0,050	0,009
-333,489	800,000	0,078	-0,163
-332,475	800,000	-0,006	0,014
-331,460	279,557	0,117	-0,152
-330,445	39,561	0,101	0,066
-329,431	63,524	-0,054	-0,039
-328,416	205,074	-0,076	0,085
-327,402	529,756	-0,031	-0,054
-326,387	-200,000	0,023	-0,164
-325,372	-200,000	0,009	0,163
-324,358	-23,591	-0,189	0,082
-323,343	-19,139	0,061	0,028
-322,329	-200,000	-0,002	-0,010
-321,314	-125,926	0,018	0,002
-320,299	125,089	-0,029	0,027
-319,285	-200,000	0,018	0,115
-318,270	26,647	-0,109	0,066
-317,256	-56,701	-0,105	0,034
-316,241	557,917	-0,055	-0,097
-315,226	800,000	0,028	-0,073
-314,212	176,743	0,090	-0,095
-313,197	387,050	0,024	0,036
-312,183	161,253	-0,079	0,080
-311,168	182,344	0,121	-0,130
-310,153	132,907	0,036	-0,034
-309,139	89,996	-0,120	-0,097
-308,124	446,034	0,044	0,070
-307,110	294,669	-0,043	0,057
-306,095	11,605	0,033	-0,018
-305,080	800,000	-0,033	0,070
-304,066	-200,000	-0,006	-0,043
-303,051	793,175	0,037	0,075
-302,037	-200,000	-0,040	0,130
-301,022	122,838	0,138	0,125
-300,008	37,213	0,046	0,030
-298,993	800,000	0,019	0,053
-297,978	290,365	0,050	0,066
-296,964	-30,708	-0,126	0,051
-295,949	23,630	-0,141	-0,084
-294,935	-200,000	0,016	0,090
-293,920	-52,786	0,066	0,022
-292,905	-84,484	0,052	0,012
-291,891	-142,786	0,114	-0,008
-290,876	800,000	0,094	0,192
-289,862	-48,608	-0,046	-0,016
-288,847	-111,182	-0,122	-0,018
-287,832	436,096	0,022	-0,034
-286,818	114,337	-0,066	-0,058
-285,803	158,846	-0,117	-0,118
-284,789	300,329	0,040	0,053
-283,774	-105,659	-0,197	-0,032
-282,759	-14,290	-0,052	-0,024
-281,745	222,303	0,065	-0,076
-280,730	188,376	-0,078	-0,085
-279,716	211,176	-0,080	0,091
-278,701	105,191	-0,064	0,055
-277,686	-200,000	-0,024	0,119
-276,672	9,656	0,070	0,038
-275,657	576,464	-0,072	-0,128
-274,643	-200,000	0,013	-0,131
-273,628	323,556	-0,048	0,066
-272,613	300,518	-0,084	-0,113
-271,599	75,006	0,020	-0,015
-270,584	408,989	-0,014	-0,022
-269,570	800,000	0,026	0,056
-268,555	-200,000	0,010	0,066
-267,540	135,527	0,044	0,041
-266,526	800,000	-0,064	-0,156
-265,511	136,856	-0,027	0,025
-264,497	443,370	-0,032	0,051
-263,482	-13,763	0,104	-0,049
-262,467	-24,789	0,028	0,012
-261,453	191,599	-0,083	0,091
-260,438	800,000	-0,060	-0,190
-259,424	-30,393	0,111	-0,045
-258,409	228,029	-0,061	-0,072
-257,395	800,000	0,038	-0,120
-256,380	377,446	0,053	-0,079
-255,365	-200,000	-0,033	0,134
-254,351	5,423	-0,059	0,032
-253,336	-200,000	-0,032	-0,130
-252,322	-49,662	0,122	-0,042
-251,307	-50,839	0,063	-0,021
-250,292	126,148	-0,098	-0,089
-249,278	-105,959	-0,071	-0,011
-248,263	-200,000	0,037	0,157
-247,249	140,077	-0,046	-0,044
-246,234	250,188	0,046	-0,056
-245,219	-61,640	-0,119	0,036
-244,205	189,740	0,062	0,067
-243,190	43,475	0,067	-0,044
-242,176	36,183	0,056	-0,035
-241,161	-200,000	-0,008	-0,085
-240,146	203,339	0,095	0,106
-239,132	-200,000	-0,006	-0,089
-238,117	223,298	-0,101	0,118
-237,103	44,721	0,094	-0,063
-236,088	181,496	0,005	0,005
-235,073	-51,930	-0,060	-0,020
-234,059	27,267	0,099	0,060
-233,044	-200,000	-0,020	0,162
-232,030	800,000	-0,029	-0,084
-231,015	231,476	-0,036	-0,043
-230,000	-35,786	0,092	-0,036
-228,986	168,535	-0,041	0,042
-227,971	150,515	-0,087	0,086
-226,957	-68,664	0,070	0,019
-225,942	-59,482	-0,121	0,037
-224,927	131,331	-0,046	0,043
-223,913	-200,000	0,034	-0,139
-222,898	-159,892	0,029	-0,001
-221,884	-16,487	0,067	-0,030
-220,869	20,410	0,105	-0,061
-219,855	9,221	0,097	-0,053
-218,840	-46,323	-0,104	-0,037
-217,825	800,000	-0,053	0,109
-216,811	-200,000	-0,016	-0,119
-215,796	800,000	-0,022	-0,064
-214,782	-76,657	0,075	-0,019
-213,767	51,698	-0,062	-0,043
-212,752	800,000	0,025	0,076
-211,738	67,049	0,168	0,124
-210,723	49,011	0,053	-0,036
-209,709	78,141	0,087	0,067
-208,694	800,000	0,019	0,051
-207,679	-200,000	-0,002	0,043
-206,665	597,697	0,048	0,086
-205,650	800,000	0,038	-0,085
-204,636	1,991	0,075	-0,039
-203,621	800,000	-0,009	-0,028
-202,606	374,841	0,052	0,077
-201,592	-152,275	-0,121	-0,006
-200,577	-4,678	0,017	-0,008
-199,563	800,000	0,019	0,052
-198,548	177,097	0,124	0,131
-197,533	-200,000	0,015	0,050
-196,519	800,000	-0,029	-0,084
-195,504	800,000	0,023	0,055
-194,490	-85,633	0,133	-0,030
-193,475	-200,000	0,032	0,108
-192,460	-200,000	-0,006	-0,035
-191,446	137,625	0,020	0,019
-190,431	-200,000	0,007	0,105
-189,417	122,065	-0,121	0,109
-188,402	-1,460	-0,068	0,034
-187,387	739,586	-0,086	-0,168
-186,373	800,000	0,035	0,089
-185,358	75,538	-0,086	-0,066
-184,344	-14,743	0,021	0,010
-183,329	-200,000	0,015	0,127
-182,315	-200,000	0,001	0,028
-181,300	800,000	-0,028	0,078
-180,285	689,175	-0,097	-0,183
-179,271	-200,000	0,001	-0,009
-178,256	-124,098	-0,084	0,009
-177,242	59,381	-0,029	-0,020
-176,227	-160,113	0,094	0,004
-175,212	533,721	-0,030	0,051
-174,198	-128,695	-0,032	0,003
-173,183	-200,000	0,014	-0,176
-172,169	-200,000	-0,054	-0,228
-171,154	-200,000	-0,001	-0,010
-170,139	-6,934	0,154	0,075
-169,125	72,013	0,061	0,046
-168,110	359,143	-0,086	0,124
-167,096	117,503	-0,054	0,048
-166,081	397,084	0,043	0,065
-165,066	-200,000	-0,006	-0,046
-164,052	-85,278	0,047	-0,010
-163,037	348,961	-0,045	0,064
-162,023	158,363	0,060	-0,060
-161,008	-200,000	0,031	0,159
-159,993	-200,000	0,018	-0,057
-158,979	-19,323	-0,077	0,034
-157,964	110,319	0,036	0,031
-156,950	-200,000	0,002	-0,026
-155,935	-94,701	0,062	0,012
-154,920	-200,000	0,024	-0,097
-153,906	225,111	0,067	-0,078
-152,891	-62,665	0,115	-0,034
-151,877	-1,300	-0,167	-0,085
-150,862	-182,800	-0,049	0,001
-149,847	-200,000	-0,012	0,071
-148,833	-128,878	0,011	0,001
-147,818	-200,000	0,017	0,116
-146,804	-173,893	-0,027	-0,001
-145,789	-10,734	-0,013	-0,006
-144,775	-88,541	-0,106	-0,022
-143,760	553,127	-0,058	-0,101
-142,745	-200,000	-0,012	-0,123
-141,731	399,108	-0,021	-0,031
-140,716	59,905	0,052	0,037
-139,702	172,869	0,049	0,051
-138,687	-52,994	-0,068	-0,022
-137,672	-54,700	-0,031	0,010
-136,658	-44,698	-0,154	-0,055
-135,643	-110,974	-0,058	-0,008
-134,629	-123,864	0,069	-0,008
-133,614	23,591	0,062	0,036
-132,599	-200,000	0,012	0,044
-131,585	116,139	-0,021	0,019
-130,570	298,036	0,034	0,046
-129,556	143,141	-0,058	0,055
-128,541	-200,000	0,002	-0,024
-127,526	-166,018	0,113	0,003
-126,512	-3,102	0,092	-0,046
-125,497	61,776	-0,039	0,028
-124,483	800,000	0,025	-0,056
-123,468	492,583	-0,050	-0,083
-122,453	-200,000	-0,009	0,070
-121,439	-74,058	0,054	-0,014
-120,424	800,000	0,059	-0,127
-119,410	711,334	0,083	0,159
-118,395	181,104	-0,040	0,042
-117,380	-200,000	-0,008	0,094
-116,366	177,333	-0,082	-0,086
-115,351	-99,174	-0,116	-0,021
-114,337	93,955	-0,017	0,014
-113,322	-29,005	0,051	-0,021
-112,307	91,550	-0,010	0,008
-111,293	800,000	0,056	0,174
-110,278	-200,000	0,001	-0,024
-109,264	-97,105	0,032	0,006
-108,249	-11,005	-0,099	-0,047
-107,234	800,000	-0,010	-0,026
-106,220	88,289	-0,093	-0,074
-105,205	-40,836	0,048	0,018
-104,191	54,824	0,086	0,059
-103,176	800,000	0,050	0,101
-102,162	-110,557	0,081	0,012
-101,147	800,000	-0,034	-0,087
-100,132	800,000	-0,082	-0,184
-99,118	386,894	0,028	-0,042
-98,103	-95,562	-0,055	-0,010
-97,089	800,000	0,012	-0,032
-96,074	-200,000	-0,006	0,032
-95,059	-191,256	0,098	-0,001
-94,045	-200,000	-0,007	0,146
-93,030	212,216	0,064	0,072
-92,016	800,000	-0,066	-0,153
-91,001	-148,383	-0,144	-0,008
-89,986	654,450	0,015	0,028
-88,972	384,065	-0,122	0,182
-87,957	-122,326	-0,075	-0,009
-86,943	-200,000	0,003	-0,122
-85,928	-12,234	-0,112	-0,052
-84,913	650,628	-0,028	-0,052
-83,899	6,693	0,052	-0,028
-82,884	25,757	-0,093	0,055
-81,870	-116,512	-0,146	0,019
-80,855	-110,609	0,163	0,024
-79,840	800,000	-0,027	0,065
-78,826	159,048	-0,068	0,068
-77,811	800,000	0,024	-0,057
-76,797	-200,000	-0,016	-0,055
-75,782	51,266	0,091	0,062
-74,767	-200,000	0,012	0,118
-73,753	-77,050	-0,066	0,016
-72,738	109,630	0,048	-0,041
-71,724	-102,789	-0,118	-0,020
-70,709	800,000	0,031	0,070
-69,694	-43,507	-0,078	0,028
-68,680	-5,479	-0,074	-0,036
-67,665	-42,385	-0,088	-0,032
-66,651	-128,057	-0,165	-0,017
-65,636	217,064	-0,052	-0,060
-64,622	106,250	-0,039	0,033
-63,607	144,907	-0,059	0,056
-62,592	-34,809	-0,171	-0,067
-61,578	42,561	0,075	0,049
-60,563	-34,416	0,188	-0,074
-59,549	-54,943	-0,213	0,069
-58,534	21,513	-1,981	-1,154
-57,519	800,000	-0,272	-0,796
-56,505	-200,000	-1,411	-5,073
-55,490	22,710	0,711	0,417
-54,476	800,000	5,384	12,175
-53,461	-200,000	17,610	289,147
-52,446	800,000	724,298	2234,994
-51,432	541,764	1637,190	2811,390
-50,417	111,010	1628,349	1406,858
-49,403	74,508	1283,480	967,436
-48,388	32,122	1026,781	634,030
-47,373	20,002	988,928	570,713
-46,359	18,409	977,127	558,658
-45,344	15,863	973,010	547,958
-44,330	16,054	971,565	547,745
-43,315	15,524	969,957	545,086
-42,300	15,558	968,845	544,550
-41,286	15,538	967,716	543,831
-40,271	15,432	966,702	542,894
-39,257	15,538	965,768	542,690
-38,242	15,598	964,849	542,347
-37,227	15,567	964,176	541,848
-36,213	15,538	963,291	541,234
-35,198	15,504	962,617	540,726
-34,184	15,534	961,798	540,339
-33,169	15,471	960,787	539,547
-32,154	15,508	959,999	539,203
-31,140	15,504	958,920	538,562
-30,125	15,571	958,202	538,354
-29,111	15,542	957,504	537,846
-28,096	15,526	956,892	537,431
-27,082	15,533	956,107	536,990
-26,067	15,536	955,264	536,506
-25,052	15,523	954,525	536,027
-24,038	15,570	953,957	535,837
-23,023	15,525	953,246	535,275
-22,009	15,577	952,518	535,009
-20,994	15,515	952,154	534,587
-19,979	15,483	951,331	534,000
-18,965	15,544	950,718	533,829
-17,950	15,514	950,308	533,483
-16,936	15,503	949,522	532,985
-15,921	15,509	948,994	532,686
-14,906	15,435	948,180	531,974
-13,892	15,419	947,495	531,517
-12,877	15,454	946,832	531,233
-11,863	15,416	946,088	530,675
-10,848	15,388	945,771	530,387
-9,833	15,556	945,327	530,652
-8,819	15,403	944,717	529,801
-7,804	15,441	943,951	529,473
-6,790	15,348	943,507	528,908
-5,775	15,462	942,717	528,805
-4,760	15,410	942,186	528,321
-3,746	15,405	941,679	528,000
-2,731	15,278	940,830	527,102
-1,717	15,260	940,220	526,681
-0,702	15,287	939,509	526,348
0,313	15,031	938,966	526,028
1,327	18,550	937,242	536,102
2,342	27,846	791,028	476,984
3,356	24,587	445,269	263,641
4,371	-5,308	295,862	145,267
5,386	-9,092	277,267	132,538
6,400	-10,433	271,707	128,621
7,415	-10,631	269,331	127,302
8,429	-10,792	267,988	126,509
9,444	-10,826	267,067	126,031
10,459	-10,801	266,460	125,756
11,473	-10,767	265,738	125,435
12,488	-10,897	265,315	125,107
13,502	-11,083	264,734	124,653
14,517	-11,094	264,297	124,426
15,531	-11,038	263,734	124,200
16,546	-10,939	263,593	124,213
17,561	-10,992	263,192	123,964
18,575	-10,901	262,822	123,861
19,590	-10,888	262,460	123,692
20,604	-10,740	262,090	123,638
21,619	-11,109	261,861	123,189
22,634	-11,066	261,548	123,069
23,648	-11,105	261,200	122,860
24,663	-11,105	261,007	122,758
25,677	-11,090	260,641	122,588
26,692	-11,175	260,603	122,483
27,707	-11,017	260,081	122,368
28,721	-10,988	259,792	122,247
29,736	-11,165	259,552	121,966
30,750	-11,089	259,307	121,907
31,765	-11,200	259,185	121,740
32,780	-11,224	259,031	121,636
33,794	-11,250	258,738	121,465
34,809	-11,045	258,400	121,477
35,823	-11,154	258,098	121,228
36,838	-11,182	257,917	121,107
37,853	-11,102	257,673	121,052
38,867	-11,043	257,507	121,015
39,882	-11,155	257,062	120,696
40,896	-11,114	256,821	120,609
41,911	-11,123	256,528	120,452
42,926	-11,059	256,408	120,442
43,940	-11,258	256,172	120,146
44,955	-11,260	256,061	120,082
45,969	-11,191	255,610	119,919
46,984	-11,488	255,504	119,600
47,999	-11,879	255,242	119,126
49,013	-11,818	255,018	119,064
50,028	-12,092	254,724	118,678
51,042	-11,970	254,497	118,667
52,057	-11,971	254,327	118,577
53,071	-12,080	254,060	118,347
54,086	-11,986	253,842	118,316
55,101	-11,877	253,812	118,386
56,115	-11,613	253,584	118,497
57,130	-11,389	253,643	118,708
58,144	-10,953	253,306	118,917
59,159	-10,864	253,190	118,928
60,174	-10,885	253,041	118,830
61,188	-11,245	252,818	118,404
62,203	-11,065	252,712	118,499
63,217	-11,108	252,222	118,222
64,232	-10,925	252,118	118,319
65,247	-11,002	251,931	118,155
66,261	-11,019	251,540	117,946
67,276	-11,196	251,318	117,681
68,290	-11,365	251,017	117,385
69,305	-11,530	250,808	117,136
70,320	-11,524	250,705	117,083
71,334	-11,194	250,520	117,267
72,349	-10,924	250,513	117,484
73,363	-10,789	249,980	117,338
74,378	-11,115	249,917	117,020
75,393	-10,973	249,702	117,030
76,407	-10,998	249,533	116,919
77,422	-11,049	249,252	116,734
78,436	-11,057	249,010	116,604
79,451	-10,983	248,890	116,600
80,466	-11,198	248,661	116,300
81,480	-11,180	248,318	116,145
82,495	-11,474	248,268	115,863
83,509	-11,427	248,116	115,820
84,524	-11,163	247,630	115,806
85,539	-11,691	247,668	115,368
86,553	-11,520	247,371	115,364
87,568	-11,311	247,240	115,468
88,582	-11,455	247,064	115,254
89,597	-11,368	246,702	115,149
90,611	-11,169	246,597	115,256
91,626	-11,233	246,629	115,207
92,641	-11,141	246,459	115,195
93,655	-11,178	246,083	114,977
94,670	-11,386	245,911	114,713
95,684	-11,231	245,762	114,763
96,699	-11,168	245,505	114,685
97,714	-11,186	245,299	114,564
98,728	-11,430	245,150	114,280
99,743	-11,592	244,976	114,054
100,757	-11,624	244,710	113,894
101,772	-11,505	244,649	113,954
102,787	-11,410	244,400	113,907
103,801	-11,346	244,313	113,910
104,816	-11,194	243,978	113,869
105,830	-11,241	243,983	113,822
106,845	-11,064	243,855	113,899
107,860	-11,107	243,709	113,785
108,874	-11,121	243,274	113,560
109,889	-11,370	243,065	113,247
110,903	-11,399	242,759	113,071
111,918	-11,248	242,644	113,131
112,933	-11,141	242,539	113,161
113,947	-11,006	242,275	113,138
114,962	-11,159	242,162	112,949
115,976	-11,092	242,083	112,957
116,991	-11,145	242,009	112,869
118,006	-11,426	241,766	112,515
119,020	-11,098	241,620	112,706
120,035	-10,960	241,446	112,728
121,049	-10,815	241,338	112,786
122,064	-10,977	241,092	112,529
123,079	-11,139	240,932	112,312
124,093	-11,299	240,602	112,017
125,108	-11,555	240,456	111,731
126,122	-11,852	240,357	111,433
127,137	-11,741	240,011	111,352
128,151	-11,598	239,867	111,392
129,166	-11,250	239,684	111,580
130,181	-11,595	239,561	111,233
131,195	-11,617	239,166	111,021
132,210	-11,445	239,170	111,153
133,224	-11,247	239,083	111,263
134,239	-11,127	238,798	111,218
135,254	-11,276	238,752	111,066
136,268	-11,396	238,540	110,860
137,283	-11,648	238,007	110,399
138,297	-11,774	238,137	110,348
139,312	-11,672	237,778	110,254
140,327	-11,293	237,761	110,541
141,341	-10,838	237,819	110,925
142,356	-10,776	237,555	110,841
143,370	-10,789	237,516	110,803
144,385	-10,594	237,309	110,853
145,400	-10,660	237,044	110,666
146,414	-10,896	237,036	110,464
147,429	-10,960	236,969	110,371
148,443	-10,965	236,578	110,175
149,458	-10,929	236,377	110,101
150,473	-10,766	236,215	110,146
151,487	-10,888	235,893	109,889
152,502	-10,856	235,832	109,876
153,516	-10,798	235,614	109,811
154,531	-10,912	235,615	109,711
155,546	-10,871	235,195	109,537
156,560	-11,092	235,192	109,351
157,575	-11,283	234,903	109,055
158,589	-11,174	234,880	109,121
159,604	-10,843	234,637	109,261
160,619	-10,804	234,498	109,217
161,633	-10,679	234,323	109,225
162,648	-10,493	234,174	109,293
163,662	-10,645	233,947	109,057
164,677	-11,059	233,888	108,693
165,692	-10,819	233,660	108,767
166,706	-10,662	233,647	108,875
167,721	-10,806	233,533	108,698
168,735	-10,659	233,377	108,732
169,750	-10,672	233,146	108,605
170,764	-10,962	233,129	108,358
171,779	-10,730	232,776	108,367
172,794	-10,777	232,741	108,304
173,808	-11,035	232,444	107,954
174,823	-11,499	231,993	107,372
175,837	-11,613	231,914	107,237
176,852	-10,969	231,940	107,743
177,867	-10,950	231,786	107,676
178,881	-10,717	231,696	107,807
179,896	-10,607	231,535	107,809
180,910	-10,619	231,460	107,755
181,925	-10,809	231,359	107,550
182,940	-10,714	231,052	107,471
183,954	-10,798	231,117	107,427
184,969	-10,495	230,787	107,499
185,983	-10,543	230,753	107,437
186,998	-10,631	230,603	107,289
188,013	-10,698	230,305	107,089
189,027	-10,348	230,186	107,295
190,042	-10,437	230,031	107,144
191,056	-10,582	229,914	106,968
192,071	-10,630	229,765	106,852
193,086	-10,688	229,623	106,731
194,100	-10,566	229,401	106,714
195,115	-10,796	229,156	106,412
196,129	-10,985	229,064	106,215
197,144	-5,431	230,861	111,351
198,159	0,306	232,667	116,689
199,173	3,043	233,248	119,105
200,188	3,119	233,130	119,093
201,202	3,296	233,039	119,174
202,217	3,605	233,049	119,409
203,232	3,727	232,988	119,462
204,246	3,679	232,738	119,285
205,261	3,668	232,689	119,241
206,275	4,287	232,453	119,590
207,290	4,204	232,417	119,496
208,304	4,129	232,109	119,269
209,319	4,289	231,832	119,240
210,334	3,846	231,898	118,921
211,348	3,710	231,608	118,656
212,363	3,591	231,339	118,416
213,377	3,144	231,127	117,952
214,392	3,443	230,891	118,051
215,407	3,227	231,033	117,947
216,421	3,450	230,628	117,901
217,436	3,061	230,615	117,585
218,450	3,051	230,321	117,417
219,465	2,878	230,121	117,172
220,480	2,953	230,064	117,190
221,494	2,978	230,022	117,177
222,509	3,240	229,853	117,281
223,523	3,147	229,847	117,197
224,538	3,266	229,480	117,090
225,553	3,336	229,359	117,071
226,567	3,249	229,214	116,920
227,582	3,398	229,132	116,982
228,596	3,667	229,024	117,121
229,611	3,243	228,888	116,719
230,626	3,216	228,540	116,510
231,640	3,162	228,376	116,375
232,655	3,347	228,483	116,560
233,669	3,788	228,260	116,771
234,684	3,952	228,171	116,840
235,699	3,723	227,980	116,557
236,713	3,644	227,762	116,376
237,728	3,181	227,538	115,901
238,742	3,305	227,308	115,867
239,757	3,088	227,267	115,671
240,772	3,137	227,088	115,606
241,786	3,215	226,808	115,513
242,801	3,283	226,833	115,566
243,815	3,754	226,737	115,863
244,830	3,571	226,682	115,686
245,844	3,307	226,401	115,334
246,859	3,021	226,237	115,024
247,874	3,491	226,124	115,310
248,888	3,502	226,101	115,296
249,903	3,615	225,862	115,249
250,917	3,310	225,670	114,912
251,932	3,254	225,475	114,761
252,947	3,252	225,250	114,635
253,961	3,150	225,159	114,502
254,976	3,535	225,022	114,710
255,990	3,466	225,055	114,664
257,005	3,637	224,727	114,615
258,020	3,554	224,716	114,537
259,034	3,554	224,538	114,436
260,049	3,563	224,529	114,428
261,063	3,378	224,308	114,167
262,078	3,588	224,302	114,311
263,093	3,733	224,009	114,259
264,107	3,561	223,993	114,113
265,122	3,467	223,849	113,959
266,136	3,655	223,685	114,005
267,151	3,535	223,502	113,813
268,166	3,162	223,333	113,440
269,180	3,092	222,913	113,164
270,195	2,998	222,986	113,122
271,209	3,174	222,794	113,145
272,224	3,251	222,592	113,089
273,239	3,511	222,404	113,175
274,253	3,209	222,342	112,911
275,268	3,057	222,132	112,682
276,282	2,956	222,067	112,564
277,297	3,017	221,768	112,448
278,312	3,101	221,834	112,534
279,326	3,219	221,550	112,466
280,341	3,327	221,500	112,510
281,355	3,549	221,307	112,564
282,370	3,278	221,129	112,265
283,384	3,050	220,864	111,954
284,399	2,946	220,715	111,792
285,414	2,935	220,609	111,720
286,428	3,171	220,689	111,924
287,443	3,385	220,587	112,018
288,457	3,506	220,450	112,027
289,472	3,105	220,080	111,537
290,487	2,830	219,886	111,228
291,501	2,600	219,731	110,973
292,516	3,082	219,668	111,281
293,530	2,991	219,665	111,203
294,545	3,032	219,610	111,195
295,560	3,347	219,236	111,225
296,574	2,960	219,356	110,995
297,589	3,127	219,135	110,994
298,603	3,448	218,880	111,088
299,618	3,357	218,838	110,991
300,633	3,101	218,827	110,790
301,647	3,637	218,637	111,072
302,662	3,430	218,443	110,814
303,676	3,432	218,294	110,730
304,691	3,422	218,160	110,645
305,706	3,455	218,107	110,632
306,720	3,438	217,925	110,517
307,735	3,214	217,697	110,230
308,749	3,259	217,609	110,208
309,764	3,502	217,367	110,251
310,779	3,554	217,341	110,265
311,793	3,331	217,191	110,019
312,808	3,321	217,034	109,923
313,822	3,352	216,917	109,876
314,837	3,368	216,643	109,739
315,852	3,147	216,475	109,486
316,866	3,421	216,506	109,687
317,881	3,777	216,334	109,846
318,895	3,386	216,317	109,547
319,910	3,392	216,039	109,401
320,925	3,010	215,859	109,028
321,939	2,996	215,572	108,863
322,954	2,958	215,402	108,740
323,968	2,954	215,385	108,719
324,983	3,336	215,460	109,019
325,997	3,693	215,300	109,182
327,012	3,468	215,157	108,940
328,027	3,462	214,944	108,818
329,041	3,735	214,935	108,998
330,056	3,720	214,751	108,884
331,070	3,448	214,604	108,608
332,085	2,998	214,400	108,175
333,100	2,926	214,269	108,049
334,114	3,372	214,066	108,253
335,129	3,390	213,932	108,188
336,143	3,213	213,686	107,929
337,158	3,176	213,700	107,900
338,173	3,218	213,473	107,805
339,187	3,122	213,400	107,691
340,202	2,968	213,200	107,472
341,216	2,820	213,160	107,339
342,231	3,017	212,956	107,365
343,246	3,036	212,981	107,381
344,260	3,065	212,649	107,225
345,275	3,112	212,657	107,252
346,289	3,406	212,509	107,374
347,304	3,534	212,375	107,386
348,319	3,320	212,183	107,129
349,333	3,275	212,141	107,068
350,348	3,432	212,057	107,125
351,362	3,431	211,952	107,062
352,377	3,363	211,873	106,965
353,392	3,531	211,451	106,860
354,406	3,623	211,453	106,915
355,421	196,574	1340,038	1421,227
356,435	157,068	1477,502	1421,198
