DTS Sentinel unit serial number:	SN410029Multiplexer serial number:	ORYXHardware model number:	OX2-SRSoftware version number:	ORYX F/W v4,00 Oryx Data Collector v3.7.2.0data status	okinstallation	B6 Nyhavnadifferential loss correction	single-endedforward channel	channel 2reverse channel	N/Adate	2023/12/10time	14:15:08forward acquisition time	300,00reverse acquisition time	0,00gamma	499,1914k internal	0,3122k external	0,3122temperature offset calibration	1,0000default loss term (dB/km)	0,3820temperature slope calibration	1,0000multiplexer offset coefficient	1,0000multiplexer slope coefficient	1,0000fibre end	0,00T internal ref (°C)	22,67T ext. ref 1 (°C)	6,16T ext. ref 2 (°C)	6,17length (m)	temperature (°C)	Stokes	anti-Stokes-744,400	-200,000	0,005	-0,066
-743,385	97,994	-0,252	0,216
-742,371	186,288	0,039	-0,043
-741,356	-33,207	-0,280	0,115
-740,342	-120,536	0,124	0,016
-739,327	22,653	-0,212	0,129
-738,312	-55,011	0,041	0,014
-737,298	-82,419	-0,260	0,062
-736,283	-83,175	-0,160	-0,038
-735,269	-33,289	-0,303	0,124
-734,254	-200,000	0,015	0,052
-733,239	-108,113	-0,409	-0,065
-732,225	-162,597	0,156	0,006
-731,210	800,000	-0,041	0,092
-730,196	-200,000	-0,004	0,054
-729,181	36,183	-0,022	0,015
-728,167	54,008	-0,078	-0,056
-727,152	598,914	-0,049	-0,091
-726,137	196,417	-0,102	-0,116
-725,123	239,222	-0,028	-0,035
-724,108	94,491	-0,096	-0,081
-723,094	-200,000	-0,002	-0,092
-722,079	21,226	0,065	-0,039
-721,064	477,641	0,011	-0,019
-720,050	800,000	0,009	-0,018
-719,035	106,001	-0,026	-0,023
-718,021	800,000	-0,048	0,112
-717,006	-91,060	-0,191	0,040
-715,991	-200,000	0,006	-0,201
-714,977	187,712	0,039	0,043
-713,962	-200,000	0,044	-0,175
-712,948	380,403	-0,123	-0,188
-711,933	418,108	-0,026	0,042
-710,918	47,912	0,048	-0,033
-709,904	-138,460	-0,094	-0,008
-708,889	246,914	0,041	-0,052
-707,875	-136,465	-0,123	-0,010
-706,860	-104,681	0,121	-0,021
-705,845	399,315	0,010	0,015
-704,831	25,725	0,043	-0,027
-703,816	-78,254	-0,168	-0,043
-702,802	800,000	-0,018	-0,051
-701,787	10,841	-0,103	-0,058
-700,772	800,000	0,041	-0,114
-699,758	-200,000	0,019	0,089
-698,743	800,000	-0,025	0,066
-697,729	-26,823	0,135	-0,058
-696,714	17,755	0,069	-0,041
-695,699	800,000	-0,042	-0,096
-694,685	334,486	-0,055	-0,080
-693,670	-200,000	0,009	-0,189
-692,656	496,402	-0,105	-0,180
-691,641	-86,229	0,044	0,010
-690,627	87,414	0,118	0,097
-689,612	-90,010	-0,066	-0,014
-688,597	401,776	-0,076	-0,119
-687,583	88,578	-0,053	-0,044
-686,568	800,000	0,036	0,105
-685,554	8,137	0,087	-0,049
-684,539	800,000	-0,013	-0,040
-683,524	-200,000	0,041	-0,155
-682,510	429,098	0,066	-0,106
-681,495	82,619	-0,101	-0,082
-680,481	326,520	-0,020	-0,028
-679,466	121,864	-0,071	0,066
-678,451	400,355	-0,040	-0,062
-677,437	-200,000	-0,003	-0,182
-676,422	-101,593	-0,104	0,019
-675,408	-200,000	0,029	0,125
-674,393	58,673	-0,061	0,045
-673,378	-61,485	-0,193	0,060
-672,364	-200,000	0,000	-0,052
-671,349	-118,088	-0,069	0,009
-670,335	-82,126	0,092	0,022
-669,320	800,000	0,022	-0,051
-668,305	13,602	-0,115	0,066
-667,291	115,987	0,100	0,091
-666,276	-56,925	0,038	-0,013
-665,262	-31,699	-0,059	0,024
-664,247	10,100	-0,176	-0,099
-663,232	35,051	0,071	0,046
-662,218	572,870	-0,032	-0,059
-661,203	-200,000	-0,011	-0,045
-660,189	-39,590	-0,018	0,007
-659,174	800,000	0,042	-0,121
-658,159	427,738	-0,068	-0,109
-657,145	126,762	-0,050	-0,047
-656,130	34,851	0,075	-0,048
-655,116	212,771	-0,134	0,158
-654,101	108,010	-0,146	0,129
-653,086	405,838	-0,027	0,042
-652,072	-27,449	-0,144	-0,062
-651,057	-6,467	0,089	0,045
-650,043	800,000	-0,106	-0,227
-649,028	-200,000	-0,017	-0,122
-648,014	-42,493	-0,005	0,002
-646,999	-67,433	-0,070	0,020
-645,984	-76,224	0,046	0,012
-644,970	-200,000	-0,042	-0,158
-643,955	800,000	0,020	-0,044
-642,941	257,287	-0,051	-0,065
-641,926	149,198	0,030	-0,030
-640,911	-175,548	0,094	-0,002
-639,897	60,209	-0,072	-0,053
-638,882	-200,000	-0,000	-0,049
-637,868	-200,000	0,033	-0,123
-636,853	620,707	-0,027	-0,050
-635,838	312,605	-0,106	-0,148
-634,824	-200,000	-0,003	-0,031
-633,809	58,821	0,052	0,038
-632,795	-0,941	-0,133	0,070
-631,780	20,481	-0,059	-0,035
-630,765	117,097	0,069	0,063
-629,751	238,367	0,026	0,033
-628,736	800,000	-0,007	0,023
-627,722	800,000	0,033	-0,088
-626,707	219,051	0,043	-0,051
-625,692	-100,565	0,078	0,014
-624,678	-200,000	-0,008	0,032
-623,663	-3,344	-0,027	0,014
-622,649	-200,000	-0,013	-0,106
-621,634	349,117	0,091	0,133
-620,619	-148,165	0,086	0,005
-619,605	-63,327	0,168	0,051
-618,590	800,000	0,007	0,022
-617,576	-1,821	-0,040	-0,021
-616,561	800,000	0,033	0,071
-615,546	518,941	-0,052	-0,090
-614,532	-16,413	-0,170	-0,080
-613,517	-200,000	-0,006	0,034
-612,503	146,829	-0,107	0,107
-611,488	86,519	0,052	0,042
-610,474	104,180	0,124	0,108
-609,459	159,807	-0,046	0,047
-608,444	229,195	-0,081	-0,099
-607,430	359,371	0,125	0,185
-606,415	161,270	-0,123	-0,128
-605,401	-54,523	0,174	-0,058
-604,386	93,916	0,095	-0,080
-603,371	-91,793	0,086	0,018
-602,357	-200,000	-0,015	0,063
-601,342	557,122	-0,025	-0,045
-600,328	-55,811	0,021	0,007
-599,313	-37,309	-0,147	0,058
-598,298	10,857	-0,093	0,053
-597,284	-67,009	0,056	0,016
-596,269	-94,254	-0,031	0,006
-595,255	10,251	0,099	0,055
-594,240	-200,000	0,017	-0,067
-593,225	488,885	-0,074	-0,126
-592,211	-200,000	-0,017	-0,127
-591,196	800,000	0,019	-0,058
-590,182	124,328	-0,059	-0,055
-589,167	-6,809	0,085	-0,043
-588,152	-48,860	0,187	-0,066
-587,138	273,184	-0,054	0,071
-586,123	784,029	0,006	-0,011
-585,109	-200,000	0,005	-0,120
-584,094	-200,000	0,012	-0,193
-583,079	722,976	-0,026	0,051
-582,065	-200,000	0,035	0,121
-581,050	250,273	0,040	0,050
-580,036	-16,298	0,076	0,036
-579,021	27,883	-0,089	0,056
-578,006	49,050	-0,179	-0,124
-576,992	51,954	0,110	-0,077
-575,977	-200,000	0,002	-0,061
-574,963	800,000	0,041	0,094
-573,948	220,741	0,087	0,103
-572,934	208,950	0,043	-0,049
-571,919	800,000	0,052	-0,108
-570,904	800,000	0,026	0,066
-569,890	230,538	-0,051	0,062
-568,875	-33,728	-0,021	-0,009
-567,861	-84,217	-0,059	-0,014
-566,846	408,683	0,060	0,095
-565,831	85,467	0,046	0,038
-564,817	-103,292	-0,076	0,013
-563,802	800,000	-0,063	-0,131
-562,788	559,154	-0,056	-0,101
-561,773	326,983	-0,046	-0,065
-560,758	577,077	0,014	0,025
-559,744	800,000	0,060	-0,131
-558,729	241,577	-0,049	-0,061
-557,715	52,896	0,049	-0,035
-556,700	-56,836	0,098	0,032
-555,685	-25,710	0,060	-0,026
-554,671	144,896	-0,107	-0,106
-553,656	4,658	0,118	-0,064
-552,642	-200,000	-0,043	0,156
-551,627	157,268	-0,093	-0,095
-550,612	19,221	0,033	-0,020
-549,598	14,301	-0,039	0,023
-548,583	11,743	-0,054	-0,030
-547,569	-167,960	-0,115	-0,003
-546,554	800,000	0,026	0,057
-545,539	224,734	0,029	0,035
-544,525	-200,000	-0,022	-0,092
-543,510	-31,583	0,026	0,011
-542,496	-131,415	-0,086	0,008
-541,481	11,234	-0,113	-0,064
-540,466	-97,913	-0,076	-0,014
-539,452	-7,126	-0,103	-0,052
-538,437	-200,000	0,013	-0,063
-537,423	216,097	0,034	0,040
-536,408	800,000	-0,049	0,104
-535,393	156,484	-0,019	0,020
-534,379	425,247	-0,025	-0,040
-533,364	-103,087	-0,184	0,032
-532,350	-192,425	-0,065	0,000
-531,335	10,366	0,066	-0,037
-530,321	-29,297	0,063	0,026
-529,306	800,000	0,054	-0,157
-528,291	-111,938	-0,110	-0,016
-527,277	128,523	-0,058	-0,054
-526,262	375,609	-0,039	-0,059
-525,248	-200,000	0,020	-0,170
-524,233	800,000	-0,060	-0,173
-523,218	-200,000	0,003	0,110
-522,204	277,417	0,074	0,098
-521,189	-17,961	-0,134	0,062
-520,175	572,349	-0,038	-0,069
-519,160	-109,739	-0,158	0,024
-518,145	328,003	0,023	0,033
-517,131	-173,412	-0,045	-0,001
-516,116	424,317	-0,040	0,063
-515,102	-104,814	0,044	-0,007
-514,087	586,755	0,010	-0,019
-513,072	-200,000	-0,019	-0,094
-512,058	103,140	-0,177	-0,153
-511,043	51,269	0,053	0,037
-510,029	24,703	-0,116	0,071
-509,014	800,000	0,027	0,061
-507,999	-118,097	-0,080	0,010
-506,985	-162,590	-0,078	0,003
-505,970	-42,225	-0,063	-0,024
-504,956	56,790	-0,035	0,025
-503,941	45,052	-0,098	-0,066
-502,926	37,854	0,145	0,095
-501,912	-135,519	0,047	-0,004
-500,897	-200,000	-0,047	0,162
-499,883	29,307	-0,057	0,036
-498,868	-200,000	0,017	-0,101
-497,853	-200,000	0,013	-0,048
-496,839	-34,805	0,019	0,008
-495,824	-165,312	-0,030	-0,001
-494,810	184,822	-0,021	-0,024
-493,795	180,625	-0,023	-0,025
-492,781	206,990	-0,052	-0,060
-491,766	-53,200	-0,101	-0,034
-490,751	-200,000	0,021	-0,088
-489,737	51,983	0,086	-0,061
-488,722	-200,000	-0,038	0,264
-487,708	404,409	0,032	0,050
-486,693	72,539	-0,102	-0,079
-485,678	800,000	-0,031	0,078
-484,664	800,000	-0,042	0,107
-483,649	154,113	-0,061	0,062
-482,635	71,879	0,028	0,021
-481,620	800,000	-0,090	0,235
-480,605	5,789	0,046	0,025
-479,591	-36,022	0,136	-0,054
-478,576	696,189	-0,033	0,064
-477,562	488,170	0,033	0,055
-476,547	-126,695	-0,124	0,013
-475,532	157,074	-0,059	0,060
-474,518	-200,000	0,004	0,081
-473,503	-200,000	-0,024	0,113
-472,489	-200,000	-0,017	-0,087
-471,474	-200,000	0,002	0,053
-470,459	-200,000	0,021	-0,078
-469,445	96,301	0,046	0,039
-468,430	-200,000	0,018	-0,140
-467,416	-200,000	-0,011	-0,065
-466,401	-200,000	-0,026	0,102
-465,386	-200,000	-0,001	0,102
-464,372	-200,000	-0,006	0,114
-463,357	-200,000	0,003	-0,150
-462,343	-19,920	0,043	0,020
-461,328	-125,050	0,211	-0,024
-460,313	253,345	-0,025	0,031
-459,299	186,190	-0,028	0,031
-458,284	800,000	-0,003	0,008
-457,270	-22,892	-0,040	0,018
-456,255	17,806	-0,083	0,048
-455,241	-200,000	0,015	-0,087
-454,226	-187,860	-0,059	-0,001
-453,211	-103,711	0,129	-0,022
-452,197	-200,000	-0,013	0,108
-451,182	-200,000	-0,010	-0,169
-450,168	786,422	0,016	0,033
-449,153	242,761	0,037	-0,045
-448,138	-94,670	-0,108	-0,021
-447,124	-200,000	0,038	0,138
-446,109	75,555	0,073	0,057
-445,095	800,000	0,039	0,117
-444,080	-200,000	-0,008	-0,138
-443,065	82,014	-0,096	-0,076
-442,051	-13,145	-0,070	-0,033
-441,036	-200,000	-0,052	-0,201
-440,022	-131,075	0,112	-0,011
-439,007	-200,000	-0,017	-0,101
-437,992	155,765	-0,081	0,082
-436,978	85,278	-0,045	0,036
-435,963	42,991	-0,057	-0,038
-434,949	-63,353	-0,094	0,028
-433,934	-111,724	-0,107	0,016
-432,919	-2,365	-0,144	0,074
-431,905	157,295	0,136	-0,139
-430,890	-0,878	-0,118	0,061
-429,876	-200,000	0,019	-0,083
-428,861	98,774	-0,040	-0,034
-427,846	-89,341	-0,206	0,044
-426,832	9,002	-0,183	-0,101
-425,817	297,492	0,030	0,040
-424,803	43,670	-0,095	0,064
-423,788	325,519	0,058	-0,082
-422,773	-200,000	-0,012	0,141
-421,759	-16,611	0,128	0,059
-420,744	-200,000	-0,011	0,128
-419,730	-190,650	0,129	-0,001
-418,715	-54,063	-0,049	0,016
-417,701	-6,928	-0,096	-0,048
-416,686	577,850	0,036	-0,066
-415,671	-35,795	-0,069	-0,028
-414,657	290,099	0,139	0,187
-413,642	179,348	-0,048	0,052
-412,628	202,991	0,030	-0,034
-411,613	-56,989	0,057	-0,018
-410,598	376,822	-0,056	-0,084
-409,584	102,182	0,080	0,069
-408,569	-200,000	-0,009	0,216
-407,555	-143,480	0,120	-0,008
-406,540	-200,000	-0,036	0,122
-405,525	-48,519	0,097	-0,034
-404,511	-120,239	-0,194	-0,024
-403,496	121,429	0,064	0,059
-402,482	-133,284	0,151	-0,014
-401,467	84,890	0,115	-0,093
-400,452	187,733	0,061	-0,067
-399,438	-200,000	0,006	0,141
-398,423	-53,554	0,106	-0,036
-397,409	800,000	-0,054	-0,158
-396,394	165,527	0,025	-0,026
-395,379	326,838	0,077	-0,108
-394,365	-200,000	0,000	0,087
-393,350	513,970	-0,096	0,165
-392,336	161,873	-0,050	0,052
-391,321	-88,568	0,012	-0,003
-390,306	-4,746	-0,109	-0,055
-389,292	317,527	-0,029	-0,040
-388,277	-200,000	0,032	0,139
-387,263	-136,348	0,036	0,003
-386,248	-39,078	0,060	-0,023
-385,233	-133,708	0,131	0,012
-384,219	-46,836	-0,056	0,020
-383,204	333,287	-0,065	-0,092
-382,190	-200,000	-0,053	-0,195
-381,175	325,522	0,093	0,131
-380,160	115,159	0,075	0,067
-379,146	67,345	0,089	0,066
-378,131	63,233	0,108	-0,079
-377,117	51,880	0,049	-0,034
-376,102	146,046	-0,134	-0,132
-375,088	-102,729	-0,105	0,018
-374,073	-200,000	-0,002	-0,053
-373,058	606,195	-0,034	0,063
-372,044	-51,455	0,104	-0,036
-371,029	-40,195	-0,184	-0,070
-370,015	-141,723	0,100	0,007
-369,000	74,780	0,046	-0,035
-367,985	427,958	-0,034	0,054
-366,971	-104,271	0,036	0,006
-365,956	800,000	0,022	-0,048
-364,942	800,000	0,027	-0,057
-363,927	21,888	-0,129	0,077
-362,912	-39,527	0,017	-0,006
-361,898	-126,277	-0,106	0,011
-360,883	346,539	0,049	-0,071
-359,869	35,309	0,099	0,064
-358,854	-200,000	-0,031	0,125
-357,839	571,024	-0,007	0,013
-356,825	-200,000	0,002	0,156
-355,810	-120,093	-0,157	0,020
-354,796	800,000	-0,046	0,123
-353,781	176,291	-0,058	-0,062
-352,766	176,915	-0,090	-0,097
-351,752	800,000	0,033	-0,092
-350,737	127,378	0,149	0,139
-349,723	-200,000	0,007	-0,073
-348,708	323,900	-0,033	-0,047
-347,693	-28,584	0,054	-0,023
-346,679	-200,000	-0,047	-0,190
-345,664	52,288	-0,042	-0,029
-344,650	-135,133	0,042	0,004
-343,635	-44,853	-0,129	-0,047
-342,620	-147,990	0,072	0,004
-341,606	-42,279	0,069	-0,026
-340,591	616,887	-0,022	0,040
-339,577	143,532	0,070	0,069
-338,562	-88,668	-0,149	-0,032
-337,548	800,000	-0,010	-0,025
-336,533	800,000	0,010	0,032
-335,518	-123,936	0,059	-0,007
-334,504	146,287	0,106	0,104
-333,489	344,788	0,033	0,048
-332,475	800,000	-0,024	-0,060
-331,460	408,858	-0,056	-0,087
-330,445	-191,147	0,057	0,000
-329,431	-51,802	0,014	-0,005
-328,416	-131,880	0,044	0,004
-327,402	-200,000	0,028	0,109
-326,387	33,788	-0,048	0,030
-325,372	-200,000	-0,001	-0,064
-324,358	405,574	0,070	-0,109
-323,343	800,000	0,035	-0,074
-322,329	502,826	0,039	0,067
-321,314	-200,000	-0,002	0,029
-320,299	-5,206	-0,079	0,040
-319,285	-126,906	0,104	-0,011
-318,270	20,503	-0,078	0,046
-317,256	153,305	-0,081	-0,081
-316,241	-76,893	0,137	0,035
-315,226	-114,014	-0,022	0,003
-314,212	-75,476	0,250	0,065
-313,197	-107,492	-0,031	0,005
-312,183	-200,000	-0,003	0,012
-311,168	-50,208	-0,097	-0,033
-310,153	654,835	-0,039	-0,074
-309,139	-35,911	-0,078	0,031
-308,124	-26,065	-0,075	0,032
-307,110	-200,000	-0,029	0,104
-306,095	-200,000	0,033	0,154
-305,080	240,159	0,096	-0,117
-304,066	292,305	0,093	0,125
-303,051	-90,991	-0,128	0,027
-302,037	-200,000	-0,017	-0,093
-301,022	-200,000	-0,000	0,110
-300,008	-200,000	-0,000	0,123
-298,993	-53,303	0,120	-0,040
-297,978	-25,391	0,064	-0,027
-296,964	56,093	0,067	-0,047
-295,949	-200,000	0,002	-0,075
-294,935	-162,429	0,118	0,004
-293,920	119,809	-0,026	-0,023
-292,905	-29,088	0,113	-0,047
-291,891	450,165	0,094	-0,152
-290,876	749,551	0,050	-0,099
-289,862	-200,000	-0,071	0,000
-288,847	800,000	-0,018	0,047
-287,832	-20,984	0,042	-0,019
-286,818	44,931	-0,134	-0,090
-285,803	-188,151	0,037	-0,000
-284,789	-117,161	0,050	-0,007
-283,774	383,968	-0,025	0,037
-282,759	-132,434	-0,127	-0,012
-281,745	-200,000	-0,002	0,028
-280,730	-200,000	-0,028	-0,098
-279,716	800,000	-0,017	-0,053
-278,701	174,282	0,101	0,107
-277,686	800,000	0,068	0,154
-276,672	-157,439	-0,105	0,005
-275,657	-200,000	-0,007	-0,031
-274,643	-200,000	0,004	-0,113
-273,628	264,470	-0,047	-0,060
-272,613	-7,619	0,091	-0,045
-271,599	-200,000	-0,006	0,078
-270,584	-91,085	0,218	0,045
-269,570	527,330	0,073	0,126
-268,555	800,000	-0,107	-0,226
-267,540	-200,000	0,007	0,084
-266,526	-91,983	-0,101	0,021
-265,511	-200,000	-0,019	-0,109
-264,497	-200,000	-0,007	0,028
-263,482	32,698	0,062	0,039
-262,467	800,000	-0,013	-0,026
-261,453	-39,826	0,111	-0,042
-260,438	-200,000	0,024	-0,120
-259,424	-200,000	-0,018	-0,066
-258,409	-200,000	0,003	0,025
-257,395	-200,000	0,034	-0,122
-256,380	-0,769	0,186	0,096
-255,365	-35,985	-0,117	0,046
-254,351	-37,358	-0,135	0,053
-253,336	653,422	-0,029	-0,054
-252,322	800,000	0,048	-0,136
-251,307	-47,588	-0,105	0,037
-250,292	4,843	0,065	-0,035
-249,278	-200,000	0,025	-0,083
-248,263	-64,066	0,066	-0,020
-247,249	-200,000	-0,012	-0,039
-246,234	-95,758	-0,061	-0,012
-245,219	-200,000	0,036	-0,133
-244,205	800,000	-0,019	0,050
-243,190	-184,212	0,090	0,001
-242,176	800,000	0,077	0,164
-241,161	-24,320	0,070	-0,031
-240,146	800,000	0,068	0,168
-239,132	121,217	-0,036	-0,033
-238,117	-6,183	-0,106	-0,053
-237,103	-29,204	-0,084	0,035
-236,088	-200,000	0,004	0,049
-235,073	-105,220	-0,062	-0,010
-234,059	130,327	0,016	0,015
-233,044	-200,000	-0,012	0,066
-232,030	300,067	-0,088	0,118
-231,015	-84,171	0,055	-0,013
-230,000	800,000	0,045	-0,124
-228,986	-85,259	0,037	-0,008
-227,971	79,008	-0,038	0,030
-226,957	-200,000	0,021	0,114
-225,942	117,196	0,065	0,058
-224,927	-19,785	-0,009	-0,004
-223,913	-200,000	0,025	-0,094
-222,898	-139,959	-0,087	-0,007
-221,884	-35,840	0,092	-0,036
-220,869	56,168	0,063	0,045
-219,855	-7,200	0,121	0,060
-218,840	155,519	0,080	0,080
-217,825	-200,000	-0,001	0,122
-216,811	800,000	-0,022	0,051
-215,796	167,555	0,046	-0,048
-214,782	454,550	-0,082	-0,134
-213,767	-119,543	0,026	-0,003
-212,752	299,951	-0,077	0,104
-211,738	236,333	0,071	0,086
-210,723	-27,945	-0,123	-0,052
-209,709	-200,000	-0,005	-0,091
-208,694	-18,742	-0,109	0,049
-207,679	-166,414	0,151	-0,005
-206,665	-200,000	-0,012	-0,061
-205,650	800,000	-0,040	0,086
-204,636	-129,432	0,087	0,009
-203,621	-200,000	-0,009	0,118
-202,606	800,000	0,008	0,021
-201,592	-119,467	-0,054	-0,007
-200,577	253,750	-0,043	-0,054
-199,563	435,007	-0,078	-0,124
-198,548	-76,227	0,200	-0,051
-197,533	141,339	0,075	0,072
-196,519	591,462	0,045	0,082
-195,504	-131,546	0,059	-0,006
-194,490	-66,547	0,023	-0,006
-193,475	261,896	-0,038	-0,048
-192,460	-135,500	0,088	0,008
-191,446	467,280	-0,038	0,062
-190,431	800,000	0,080	0,217
-189,417	380,678	0,040	0,060
-188,402	150,036	0,080	0,079
-187,387	-200,000	0,009	-0,093
-186,373	-42,724	0,083	0,031
-185,358	-42,086	0,065	-0,024
-184,344	-85,920	0,098	0,022
-183,329	-37,007	0,126	0,049
-182,315	-195,236	-0,119	0,001
-181,300	159,772	-0,119	0,121
-180,285	-200,000	0,008	0,076
-179,271	118,968	-0,115	-0,104
-178,256	718,602	-0,065	0,127
-177,242	-200,000	-0,007	0,110
-176,227	800,000	-0,004	0,008
-175,212	800,000	0,057	0,120
-174,198	49,094	-0,057	0,039
-173,183	336,967	-0,064	-0,091
-172,169	-200,000	0,010	-0,110
-171,154	800,000	-0,025	0,069
-170,139	-200,000	0,014	0,145
-169,125	-200,000	0,017	-0,120
-168,110	116,152	0,028	0,025
-167,096	-154,853	0,082	-0,004
-166,081	-94,838	-0,105	-0,021
-165,066	146,455	0,075	0,074
-164,052	-200,000	-0,002	-0,039
-163,037	342,776	0,062	-0,089
-162,023	546,348	0,055	0,097
-161,008	86,056	0,023	0,018
-159,993	35,805	0,093	0,060
-158,979	-200,000	0,004	0,031
-157,964	177,336	-0,082	-0,087
-156,950	-200,000	0,002	0,139
-155,935	-200,000	0,002	0,071
-154,920	-29,137	0,045	-0,019
-153,906	-34,076	0,062	0,025
-152,891	-20,008	0,033	-0,015
-151,877	612,179	0,042	-0,077
-150,862	25,651	-0,047	0,029
-149,847	326,482	-0,038	0,053
-148,833	39,126	0,106	-0,069
-147,818	31,812	-0,032	-0,020
-146,804	472,217	-0,076	0,125
-145,789	-130,229	0,108	-0,011
-144,775	696,620	0,042	0,082
-143,760	275,126	0,073	-0,094
-142,745	299,896	-0,061	-0,082
-141,731	-147,705	-0,088	-0,005
-140,716	-78,366	-0,088	-0,022
-139,702	-200,000	0,018	0,133
-138,687	37,844	-0,016	0,010
-137,672	-200,000	-0,003	0,057
-136,658	-200,000	-0,020	-0,130
-135,643	-200,000	-0,006	-0,049
-134,629	-99,741	0,039	-0,007
-133,614	-60,608	0,067	0,021
-132,599	-8,382	0,047	-0,023
-131,585	419,453	-0,046	0,072
-130,570	-79,402	-0,103	0,025
-129,556	497,813	0,038	-0,063
-128,541	-200,000	0,000	-0,058
-127,526	87,431	-0,120	-0,096
-126,512	68,134	-0,085	0,063
-125,497	-200,000	-0,004	0,043
-124,483	734,426	0,030	0,059
-123,468	800,000	0,039	0,089
-122,453	800,000	-0,023	-0,050
-121,439	42,006	0,139	-0,091
-120,424	-200,000	-0,001	-0,163
-119,410	-200,000	-0,012	0,104
-118,395	794,410	-0,089	-0,180
-117,380	15,456	0,048	-0,027
-116,366	800,000	-0,057	0,117
-115,351	66,301	0,116	0,085
-114,337	-13,997	-0,072	0,034
-113,322	-144,413	-0,117	0,008
-112,307	800,000	-0,069	0,161
-111,293	-200,000	0,010	0,116
-110,278	122,764	0,082	-0,075
-109,264	482,573	0,070	-0,116
-108,249	-200,000	0,001	0,006
-107,234	74,148	-0,131	-0,100
-106,220	-200,000	-0,005	0,056
-105,205	135,062	0,075	-0,071
-104,191	-200,000	0,033	0,143
-103,176	800,000	-0,038	0,094
-102,162	648,706	0,024	-0,044
-101,147	220,680	-0,041	-0,048
-100,132	-67,367	-0,007	0,002
-99,118	-200,000	0,025	-0,129
-98,103	-200,000	-0,014	-0,082
-97,089	49,861	0,120	0,082
-96,074	24,831	0,044	0,027
-95,059	-83,894	0,062	0,014
-94,045	-100,766	-0,057	-0,010
-93,030	800,000	0,023	-0,065
-92,016	373,229	-0,056	-0,083
-91,001	47,114	0,152	-0,102
-89,986	-39,242	-0,089	0,034
-88,972	-200,000	-0,018	0,078
-87,957	83,578	-0,088	0,070
-86,943	-139,154	0,067	0,005
-85,928	-200,000	0,006	-0,099
-84,913	-200,000	-0,038	0,196
-83,899	556,235	0,017	0,030
-82,884	626,082	-0,031	-0,056
-81,870	2,693	-0,024	-0,013
-80,855	49,349	0,031	-0,021
-79,840	97,411	-0,056	0,046
-78,826	-14,468	0,056	-0,026
-77,811	-17,039	-0,068	0,031
-76,797	-200,000	-0,005	-0,185
-75,782	-107,701	0,057	-0,009
-74,767	10,635	0,086	0,048
-73,753	-200,000	-0,008	0,082
-72,738	-200,000	-0,013	-0,202
-71,724	-152,425	-0,078	-0,004
-70,709	129,547	0,057	-0,053
-69,694	-200,000	0,008	-0,083
-68,680	-164,716	0,141	0,005
-67,665	93,127	-0,087	-0,071
-66,651	-58,153	0,047	0,015
-65,636	81,440	0,043	-0,034
-64,622	538,771	-0,070	0,121
-63,607	-200,000	0,004	-0,132
-62,592	290,428	0,033	0,044
-61,578	-200,000	-0,027	0,100
-60,563	57,981	-0,056	-0,040
-59,549	401,464	0,009	0,014
-58,534	-167,219	-1,324	-0,038
-57,519	424,144	-0,868	-1,360
-56,505	-200,000	-0,927	-4,458
-55,490	50,570	0,559	-0,383
-54,476	800,000	4,801	11,888
-53,461	-200,000	13,266	254,030
-52,446	-200,000	688,463	2273,590
-51,432	598,536	1623,053	2933,394
-50,417	121,099	1637,044	1478,743
-49,403	73,737	1291,177	981,118
-48,388	38,461	1025,778	662,248
-47,373	24,557	983,182	588,969
-46,359	23,825	972,858	580,356
-45,344	22,889	968,724	574,803
-44,330	22,885	966,953	573,719
-43,315	22,777	965,822	572,670
-42,300	22,705	964,722	571,761
-41,286	22,666	963,795	571,063
-40,271	22,675	962,826	570,496
-39,257	22,692	961,967	570,018
-38,242	22,661	960,853	569,236
-37,227	22,663	960,166	568,814
-36,213	22,707	959,163	568,337
-35,198	22,622	958,288	567,521
-34,184	22,707	957,699	567,426
-33,169	22,696	956,790	566,829
-32,154	22,719	955,775	566,278
-31,140	22,721	954,947	565,774
-30,125	22,713	954,312	565,349
-29,111	22,686	953,430	564,716
-28,096	22,686	952,719	564,274
-27,082	22,679	952,138	563,883
-26,067	22,735	951,239	563,509
-25,052	22,713	950,572	563,020
-24,038	22,672	950,102	562,588
-23,023	22,698	949,290	562,169
-22,009	22,721	948,678	561,856
-20,994	22,736	948,018	561,493
-19,979	22,730	947,239	560,990
-18,965	22,760	946,647	560,714
-17,950	22,748	946,195	560,386
-16,936	22,647	945,518	559,639
-15,921	22,647	944,776	559,177
-14,906	22,634	944,059	558,688
-13,892	22,665	943,376	558,362
-12,877	22,551	942,908	557,700
-11,863	22,460	942,458	557,123
-10,848	22,572	941,649	556,976
-9,833	22,656	941,292	557,012
-8,819	22,618	940,695	556,515
-7,804	22,639	939,855	556,064
-6,790	22,570	939,278	555,481
-5,775	22,666	938,555	555,335
-4,760	22,606	938,025	554,811
-3,746	22,594	937,576	554,484
-2,731	22,458	936,680	553,502
-1,717	22,383	936,141	552,925
-0,702	22,452	935,354	552,655
0,313	22,248	934,790	552,514
1,327	25,401	932,612	561,102
2,342	35,147	797,053	505,527
3,356	33,051	452,132	283,576
4,371	1,903	293,648	153,114
5,386	-2,697	274,693	138,865
6,400	-4,189	268,763	134,470
7,415	-4,790	266,463	132,755
8,429	-4,353	265,085	132,456
9,444	-4,385	264,178	131,962
10,459	-4,388	263,576	131,647
11,473	-4,470	263,096	131,321
12,488	-4,458	262,440	130,993
13,502	-4,547	261,900	130,631
14,517	-4,691	261,575	130,328
15,531	-4,393	261,269	130,432
16,546	-4,509	260,858	130,111
17,561	-4,473	260,489	129,947
18,575	-4,354	260,166	129,881
19,590	-4,360	259,693	129,628
20,604	-4,373	259,599	129,559
21,619	-4,547	259,390	129,287
22,634	-4,497	258,970	129,111
23,648	-4,433	258,590	128,966
24,663	-4,522	258,548	128,855
25,677	-4,428	258,102	128,705
26,692	-4,350	257,749	128,587
27,707	-4,283	257,565	128,543
28,721	-4,323	257,325	128,376
29,736	-4,676	257,077	127,928
30,750	-4,653	256,935	127,867
31,765	-4,503	256,619	127,831
32,780	-4,762	256,461	127,512
33,794	-4,733	256,303	127,447
34,809	-4,297	255,777	127,558
35,823	-4,491	255,654	127,315
36,838	-4,411	255,492	127,294
37,853	-4,537	255,271	127,062
38,867	-4,444	254,995	126,994
39,882	-4,330	254,780	126,976
40,896	-4,519	254,492	126,655
41,911	-4,625	254,374	126,493
42,926	-4,532	253,999	126,376
43,940	-4,533	253,892	126,311
44,955	-4,673	253,587	126,026
45,969	-4,697	253,430	125,916
46,984	-4,964	253,261	125,588
47,999	-4,955	252,886	125,399
49,013	-5,175	252,676	125,091
50,028	-5,373	252,492	124,817
51,042	-5,265	252,095	124,704
52,057	-5,448	252,013	124,493
53,071	-5,236	251,712	124,516
54,086	-5,337	251,620	124,373
55,101	-5,138	251,552	124,500
56,115	-4,793	251,252	124,638
57,130	-4,629	251,281	124,783
58,144	-4,271	251,056	124,970
59,159	-4,182	250,803	124,909
60,174	-4,413	250,647	124,622
61,188	-4,305	250,364	124,563
62,203	-4,301	250,199	124,473
63,217	-4,358	249,979	124,303
64,232	-4,564	249,738	123,996
65,247	-4,395	249,489	124,006
66,261	-4,513	249,282	123,791
67,276	-4,513	248,932	123,607
68,290	-4,900	248,810	123,204
69,305	-4,929	248,532	123,031
70,320	-4,948	248,455	122,965
71,334	-4,652	248,341	123,150
72,349	-4,502	248,239	123,217
73,363	-4,171	248,004	123,371
74,378	-4,430	247,828	123,052
75,393	-4,420	247,560	122,916
76,407	-4,501	247,460	122,787
77,422	-4,448	247,141	122,663
78,436	-4,636	246,953	122,399
79,451	-4,396	246,748	122,490
80,466	-4,381	246,533	122,385
81,480	-4,552	246,213	122,071
82,495	-4,601	246,125	121,975
83,509	-4,521	245,920	121,929
84,524	-4,652	245,765	121,731
85,539	-4,838	245,557	121,461
86,553	-4,709	245,288	121,426
87,568	-4,843	245,252	121,284
88,582	-4,803	244,968	121,167
89,597	-4,637	244,754	121,189
90,611	-4,580	244,657	121,178
91,626	-4,490	244,622	121,226
92,641	-4,616	244,354	120,976
93,655	-4,480	244,066	120,937
94,670	-4,544	243,966	120,823
95,684	-4,662	243,710	120,587
96,699	-4,502	243,497	120,604
97,714	-4,613	243,324	120,415
98,728	-4,597	243,140	120,327
99,743	-4,839	243,008	120,050
100,757	-4,787	242,655	119,907
101,772	-4,857	242,596	119,809
102,787	-4,882	242,483	119,722
103,801	-4,670	242,170	119,733
104,816	-4,560	242,225	119,840
105,830	-4,506	242,000	119,764
106,845	-4,401	241,868	119,774
107,860	-4,557	241,581	119,492
108,874	-4,631	241,309	119,286
109,889	-4,711	241,145	119,129
110,903	-4,529	240,954	119,174
111,918	-4,700	240,802	118,947
112,933	-4,852	240,801	118,811
113,947	-4,380	240,527	119,053
114,962	-4,529	240,350	118,832
115,976	-4,625	240,288	118,712
116,991	-4,534	239,972	118,620
118,006	-4,727	239,986	118,458
119,020	-4,546	239,620	118,416
120,035	-4,281	239,502	118,563
121,049	-4,252	239,452	118,551
122,064	-4,456	239,269	118,284
123,079	-4,465	239,059	118,162
124,093	-4,815	238,988	117,830
125,108	-4,740	238,648	117,714
126,122	-4,798	238,476	117,570
127,137	-4,990	238,095	117,217
128,151	-5,017	238,054	117,163
129,166	-4,918	237,888	117,152
130,181	-4,813	237,648	117,109
131,195	-4,710	237,493	117,106
132,210	-4,785	237,400	116,988
133,224	-4,591	237,156	117,014
134,239	-4,527	237,068	117,012
135,254	-4,366	236,803	117,001
136,268	-4,553	236,540	116,710
137,283	-4,957	236,497	116,352
138,297	-5,035	236,206	116,136
139,312	-4,861	235,950	116,140
140,327	-4,797	235,843	116,128
141,341	-4,470	236,057	116,487
142,356	-4,227	235,869	116,579
143,370	-4,182	235,642	116,492
144,385	-4,207	235,496	116,390
145,400	-4,290	235,453	116,291
146,414	-4,080	235,192	116,321
147,429	-4,214	234,971	116,094
148,443	-4,348	234,860	115,921
149,458	-4,125	234,616	115,969
150,473	-4,239	234,431	115,776
151,487	-4,395	234,411	115,631
152,502	-4,408	234,120	115,467
153,516	-4,244	234,017	115,537
154,531	-4,280	233,764	115,372
155,546	-4,641	233,670	115,028
156,560	-4,422	233,486	115,102
157,575	-4,261	233,135	115,047
158,589	-4,179	232,959	115,015
159,604	-4,034	232,867	115,074
160,619	-3,904	232,769	115,119
161,633	-4,031	232,744	114,995
162,648	-4,189	232,603	114,790
163,662	-4,509	232,502	114,476
164,677	-4,373	232,150	114,400
165,692	-4,303	232,069	114,406
166,706	-4,121	231,974	114,493
167,721	-4,262	231,887	114,328
168,735	-4,184	231,682	114,278
169,750	-4,235	231,581	114,178
170,764	-4,159	231,376	114,126
171,779	-4,223	231,148	113,954
172,794	-4,300	231,076	113,848
173,808	-4,414	230,870	113,646
174,823	-4,791	230,474	113,146
175,837	-4,855	230,208	112,955
176,852	-4,434	230,272	113,306
177,867	-4,212	230,272	113,469
178,881	-4,421	230,161	113,241
179,896	-4,110	229,858	113,325
180,910	-4,171	229,695	113,187
181,925	-4,134	229,571	113,145
182,940	-4,016	229,448	113,166
183,954	-4,273	229,451	112,957
184,969	-4,058	229,177	112,979
185,983	-4,079	229,106	112,918
186,998	-4,014	228,871	112,843
188,013	-3,936	228,815	112,866
189,027	-4,062	228,604	112,654
190,042	-4,074	228,406	112,537
191,056	-4,069	228,207	112,432
192,071	-3,981	228,066	112,421
193,086	-4,047	227,881	112,268
194,100	-4,225	227,723	112,043
195,115	-4,462	227,270	111,628
196,129	-5,281	227,021	110,864
197,144	-2,266	228,239	113,785
198,159	1,988	229,351	117,633
199,173	4,291	229,562	119,517
200,188	4,135	229,635	119,424
201,202	4,189	229,417	119,342
202,217	4,416	229,178	119,382
203,232	4,484	229,314	119,495
204,246	4,730	229,199	119,614
205,261	4,961	229,017	119,687
206,275	4,886	228,910	119,562
207,290	5,033	228,705	119,559
208,304	4,998	228,633	119,483
209,319	4,850	228,291	119,180
210,334	4,717	228,299	119,071
211,348	4,833	227,795	118,886
212,363	4,250	227,774	118,418
213,377	4,051	227,426	118,073
214,392	4,122	227,251	118,026
215,407	4,367	227,273	118,215
216,421	4,135	227,080	117,926
217,436	4,179	226,994	117,905
218,450	3,821	226,659	117,447
219,465	3,728	226,409	117,235
220,480	4,077	226,311	117,441
221,494	3,773	226,231	117,157
222,509	4,212	226,063	117,394
223,523	3,859	225,993	117,079
224,538	3,782	225,910	116,967
225,553	3,895	225,796	116,983
226,567	4,299	225,519	117,136
227,582	4,289	225,547	117,132
228,596	4,627	225,378	117,291
229,611	4,289	225,202	116,932
230,626	3,854	224,959	116,466
231,640	3,971	224,834	116,479
232,655	4,309	224,791	116,702
233,669	4,550	224,777	116,867
234,684	4,744	224,548	116,884
235,699	4,394	224,303	116,482
236,713	4,311	224,152	116,331
237,728	4,141	223,975	116,100
238,742	3,970	223,808	115,875
239,757	4,077	223,566	115,820
240,772	3,934	223,567	115,702
241,786	3,823	223,379	115,511
242,801	4,208	223,422	115,813
243,815	4,607	223,232	116,003
244,830	4,567	222,989	115,837
245,844	4,116	222,788	115,384
246,859	4,053	222,712	115,287
247,874	4,375	222,548	115,433
248,888	4,304	222,449	115,319
249,903	4,094	222,341	115,095
250,917	4,074	222,091	114,941
251,932	4,019	221,998	114,841
252,947	4,170	221,751	114,815
253,961	3,936	221,644	114,576
254,976	4,042	221,647	114,646
255,990	4,117	221,506	114,618
257,005	4,027	221,346	114,458
258,020	4,406	220,964	114,532
259,034	4,546	221,009	114,649
260,049	4,346	220,915	114,442
261,063	4,351	220,721	114,335
262,078	4,301	220,675	114,264
263,093	4,606	220,384	114,329
264,107	4,598	220,342	114,290
265,122	4,313	220,211	114,002
266,136	4,442	220,156	114,058
267,151	4,724	219,881	114,114
268,166	3,907	219,799	113,459
269,180	3,614	219,470	113,063
270,195	3,957	219,326	113,231
271,209	3,901	219,219	113,125
272,224	3,954	219,082	113,082
273,239	4,290	219,015	113,284
274,253	3,893	218,803	112,874
275,268	3,604	218,772	112,635
276,282	3,948	218,398	112,685
277,297	3,613	218,343	112,401
278,312	3,618	218,155	112,298
279,326	4,148	217,949	112,569
280,341	3,912	217,939	112,382
281,355	4,178	217,811	112,500
282,370	3,929	217,744	112,274
283,384	3,889	217,541	112,130
284,399	3,814	217,368	111,976
285,414	3,565	217,175	111,685
286,428	4,159	216,972	112,003
287,443	4,228	216,996	112,055
288,457	4,102	216,882	111,895
289,472	4,162	216,692	111,830
290,487	3,891	216,300	111,422
291,501	3,769	216,243	111,294
292,516	3,832	216,252	111,335
293,530	3,822	216,108	111,244
294,545	3,842	216,071	111,229
295,560	3,664	216,003	111,055
296,574	3,962	215,790	111,151
297,589	3,986	215,670	111,097
298,603	4,265	215,460	111,180
299,618	3,928	215,444	110,919
300,633	4,160	215,242	110,971
301,647	4,284	215,089	110,972
302,662	4,279	215,011	110,919
303,676	4,379	214,902	110,924
304,691	4,418	214,554	110,763
305,706	4,492	214,470	110,763
306,720	4,531	214,348	110,718
307,735	4,201	214,272	110,432
308,749	3,995	214,041	110,156
309,764	4,250	214,018	110,316
310,779	4,445	213,795	110,331
311,793	4,255	213,743	110,158
312,808	4,279	213,529	110,056
313,822	4,051	213,446	109,841
314,837	4,052	213,142	109,675
315,852	4,000	213,237	109,677
316,866	3,993	213,129	109,606
317,881	4,522	212,903	109,856
318,895	4,150	212,773	109,516
319,910	4,048	212,683	109,387
320,925	3,795	212,376	109,040
321,939	3,469	212,239	108,728
322,954	3,705	212,203	108,868
323,968	4,062	212,095	109,056
324,983	3,941	212,058	108,941
325,997	4,462	211,862	109,200
327,012	4,240	211,685	108,941
328,027	4,073	211,633	108,787
329,041	4,185	211,598	108,839
330,056	4,694	211,368	109,069
331,070	4,333	211,114	108,674
332,085	3,729	210,946	108,153
333,100	3,913	210,910	108,254
334,114	4,147	210,734	108,319
335,129	4,390	210,507	108,363
336,143	4,185	210,221	108,062
337,158	3,974	210,369	107,981
338,173	4,038	210,224	107,942
339,187	3,961	210,053	107,790
340,202	3,700	209,909	107,524
341,216	3,587	209,753	107,356
342,231	3,855	209,614	107,462
343,246	3,760	209,401	107,277
344,260	3,836	209,293	107,266
345,275	4,050	209,181	107,348
346,289	4,074	209,108	107,317
347,304	4,252	208,943	107,347
348,319	4,193	208,738	107,191
349,333	4,000	208,801	107,079
350,348	4,218	208,592	107,114
351,362	4,192	208,589	107,085
352,377	4,186	208,281	106,913
353,392	4,069	208,099	106,729
354,406	4,163	208,072	106,771
355,421	193,429	1346,495	1433,936
356,435	154,301	1485,307	1434,066
