DTS Sentinel unit serial number:	SN410029Multiplexer serial number:	ORYXHardware model number:	OX2-SRSoftware version number:	ORYX F/W v4,00 Oryx Data Collector v3.7.2.0data status	okinstallation	B6 Nyhavnadifferential loss correction	single-endedforward channel	channel 2reverse channel	N/Adate	2023/12/07time	21:10:08forward acquisition time	300,00reverse acquisition time	0,00gamma	499,1914k internal	0,3165k external	0,3165temperature offset calibration	1,0000default loss term (dB/km)	0,3820temperature slope calibration	1,0000multiplexer offset coefficient	1,0000multiplexer slope coefficient	1,0000fibre end	0,00T internal ref (°C)	13,74T ext. ref 1 (°C)	-3,14T ext. ref 2 (°C)	-3,14length (m)	temperature (°C)	Stokes	anti-Stokes-744,400	-80,236	0,109	-0,027
-743,385	-48,126	-0,193	-0,068
-742,371	16,824	0,166	0,096
-741,356	-107,318	-0,228	-0,036
-740,342	54,099	0,127	0,089
-739,327	-142,231	-0,353	-0,025
-738,312	195,555	0,091	-0,102
-737,298	-131,217	-0,293	-0,028
-736,283	-127,600	0,063	0,007
-735,269	-96,879	-0,329	-0,063
-734,254	-161,327	0,222	0,008
-733,239	-90,254	-0,575	-0,122
-732,225	-96,890	0,147	-0,028
-731,210	-25,160	-0,128	0,056
-730,196	140,259	-0,106	0,103
-729,181	481,160	0,022	0,038
-728,167	201,577	-0,064	-0,072
-727,152	-200,000	0,005	-0,058
-726,137	-200,000	0,023	-0,106
-725,123	208,794	0,031	0,035
-724,108	-69,925	-0,171	-0,048
-723,094	-12,058	-0,174	-0,084
-722,079	139,195	0,020	-0,019
-721,064	-7,564	0,052	0,026
-720,050	0,544	-0,071	0,037
-719,035	-200,000	-0,000	0,065
-718,021	-172,151	-0,103	0,002
-717,006	800,000	0,034	-0,103
-715,991	133,030	-0,164	0,156
-714,977	-36,192	0,029	-0,012
-713,962	800,000	-0,026	0,053
-712,948	5,795	-0,138	-0,075
-711,933	131,256	0,058	0,055
-710,918	-46,028	-0,123	-0,044
-709,904	30,428	-0,109	-0,068
-708,889	253,263	-0,035	-0,044
-707,875	800,000	-0,029	0,086
-706,860	-200,000	-0,009	0,080
-705,845	-57,735	0,081	-0,026
-704,831	250,292	-0,031	-0,038
-703,816	-184,869	-0,114	-0,001
-702,802	800,000	-0,024	0,069
-701,787	-40,624	-0,089	-0,034
-700,772	187,120	0,051	-0,056
-699,758	-80,433	-0,218	-0,053
-698,743	76,654	-0,085	0,066
-697,729	117,900	-0,071	-0,064
-696,714	800,000	0,016	-0,034
-695,699	-177,873	-0,069	0,001
-694,685	471,145	0,103	-0,171
-693,670	800,000	-0,040	-0,097
-692,656	42,758	-0,122	-0,081
-691,641	-150,884	0,111	0,006
-690,627	-11,897	-0,052	-0,025
-689,612	49,150	-0,119	0,082
-688,597	-116,871	-0,252	0,034
-687,583	3,239	-0,027	0,014
-686,568	800,000	-0,019	0,047
-685,554	24,123	0,106	0,064
-684,539	-76,116	0,042	0,011
-683,524	-200,000	0,007	0,079
-682,510	-200,000	-0,003	-0,013
-681,495	261,116	0,061	-0,078
-680,481	-94,856	-0,064	0,013
-679,466	543,370	-0,092	-0,162
-678,451	800,000	-0,032	-0,097
-677,437	-2,630	-0,110	-0,056
-676,422	-13,522	-0,038	0,018
-675,408	-200,000	-0,011	-0,100
-674,393	-200,000	-0,082	0,000
-673,378	321,544	-0,019	-0,027
-672,364	-35,972	-0,053	0,021
-671,349	364,727	0,054	0,080
-670,335	-172,014	-0,168	0,004
-669,320	81,344	0,119	-0,094
-668,305	-200,000	0,019	-0,072
-667,291	-11,771	0,048	0,023
-666,276	-49,622	-0,226	-0,078
-665,262	800,000	-0,026	0,068
-664,247	-1,830	-0,141	0,073
-663,232	-200,000	0,018	0,061
-662,218	-169,733	0,168	0,004
-661,203	-90,052	0,045	0,010
-660,189	-200,000	-0,008	0,038
-659,174	184,760	0,067	-0,073
-658,159	77,521	-0,087	-0,068
-657,145	132,042	-0,105	-0,099
-656,130	120,822	0,118	0,108
-655,116	84,145	-0,104	0,083
-654,101	-7,540	0,051	-0,025
-653,086	-53,478	0,136	-0,045
-652,072	-200,000	-0,007	-0,157
-651,057	-200,000	0,003	-0,249
-650,043	800,000	-0,005	0,015
-649,028	-30,590	-0,042	-0,017
-648,014	-58,835	0,052	0,016
-646,999	-121,447	-0,033	-0,004
-645,984	-88,159	-0,072	0,016
-644,970	42,706	0,012	-0,008
-643,955	-61,686	-0,030	0,009
-642,941	-26,994	0,063	-0,027
-641,926	-124,212	0,057	0,007
-640,911	434,368	-0,058	0,092
-639,897	-80,475	0,076	-0,018
-638,882	230,170	0,053	-0,063
-637,868	800,000	-0,055	0,115
-636,853	550,351	-0,008	-0,014
-635,838	-0,744	0,149	-0,077
-634,824	43,099	0,056	-0,037
-633,809	-200,000	-0,043	0,153
-632,795	-200,000	-0,001	0,119
-631,780	800,000	-0,027	-0,065
-630,765	-105,078	-0,140	-0,023
-629,751	-7,826	-0,071	-0,035
-628,736	516,367	-0,088	-0,151
-627,722	65,529	-0,063	-0,047
-626,707	41,261	-0,030	0,020
-625,692	-200,000	-0,009	0,079
-624,678	-5,568	0,107	0,053
-623,663	426,614	0,033	-0,051
-622,649	-122,163	-0,110	-0,013
-621,634	288,287	-0,072	0,096
-620,619	800,000	-0,016	0,041
-619,605	721,402	0,040	-0,079
-618,590	91,262	-0,127	-0,104
-617,576	383,230	0,033	-0,050
-616,561	258,915	-0,010	0,012
-615,546	-200,000	0,017	-0,085
-614,532	-200,000	0,039	-0,138
-613,517	660,989	0,069	-0,131
-612,503	275,368	-0,066	0,086
-611,488	-61,710	0,059	-0,018
-610,474	248,887	0,057	0,071
-609,459	800,000	-0,103	0,245
-608,444	-87,421	0,055	0,012
-607,430	584,653	-0,032	-0,059
-606,415	-133,442	-0,117	0,011
-605,401	162,327	0,042	0,043
-604,386	694,656	-0,082	0,157
-603,371	-200,000	-0,006	0,022
-602,357	596,035	-0,013	-0,024
-601,342	-121,512	-0,129	0,015
-600,328	-91,877	-0,212	-0,044
-599,313	78,303	-0,124	-0,097
-598,298	-200,000	0,004	0,060
-597,284	-26,208	-0,043	0,018
-596,269	-64,875	0,149	0,044
-595,255	-126,927	-0,051	0,005
-594,240	-141,433	0,093	-0,007
-593,225	463,221	-0,057	-0,093
-592,211	-13,647	0,017	0,008
-591,196	-200,000	-0,011	-0,070
-590,182	160,806	-0,108	-0,111
-589,167	-200,000	0,038	0,143
-588,152	-34,269	0,046	-0,018
-587,138	93,646	-0,032	-0,027
-586,123	-175,657	-0,151	-0,003
-585,109	800,000	0,016	-0,041
-584,094	90,805	0,061	0,050
-583,079	770,205	0,110	0,221
-582,065	800,000	-0,028	-0,082
-581,050	-56,197	0,103	-0,033
-580,036	-93,961	-0,024	-0,005
-579,021	-142,759	-0,018	-0,001
-578,006	800,000	-0,077	-0,162
-576,992	111,930	-0,056	0,049
-575,977	-200,000	0,019	-0,116
-574,963	800,000	0,064	0,142
-573,948	-152,180	-0,064	-0,003
-572,934	105,009	-0,058	-0,050
-571,919	-200,000	0,004	-0,064
-570,904	453,821	-0,104	-0,168
-569,890	-200,000	0,004	0,111
-568,875	-153,849	-0,092	-0,005
-567,861	800,000	0,048	0,115
-566,846	669,286	-0,026	-0,050
-565,831	-32,786	-0,052	0,021
-564,817	-131,245	-0,101	0,010
-563,802	105,198	-0,072	-0,062
-562,788	-200,000	0,010	-0,109
-561,773	30,076	0,110	0,069
-560,758	800,000	-0,022	0,061
-559,744	-25,222	0,066	-0,029
-558,729	224,154	0,108	0,128
-557,715	5,684	-0,011	0,006
-556,700	-200,000	0,016	-0,216
-555,685	78,335	-0,062	-0,048
-554,671	-89,369	0,132	-0,028
-553,656	143,874	0,029	0,028
-552,642	-200,000	0,005	-0,109
-551,627	-200,000	-0,005	-0,043
-550,612	766,864	0,045	-0,089
-549,598	173,281	-0,075	-0,079
-548,583	-200,000	0,000	-0,053
-547,569	6,423	0,122	0,066
-546,554	800,000	0,030	0,085
-545,539	-6,724	-0,064	-0,032
-544,525	24,726	0,108	-0,065
-543,510	222,449	-0,044	-0,052
-542,496	27,184	-0,061	0,037
-541,481	-38,309	-0,072	-0,028
-540,466	800,000	0,015	-0,039
-539,452	-88,916	-0,128	0,028
-538,437	66,471	0,048	-0,035
-537,423	621,476	-0,024	-0,045
-536,408	800,000	-0,046	-0,095
-535,393	91,809	0,096	-0,079
-534,379	340,771	0,077	-0,110
-533,364	-83,309	0,108	0,025
-532,350	433,558	0,058	-0,092
-531,335	-66,317	0,090	0,026
-530,321	800,000	-0,045	-0,099
-529,306	800,000	-0,034	-0,088
-528,291	-200,000	0,030	0,198
-527,277	-31,125	0,070	-0,029
-526,262	-44,966	-0,113	0,041
-525,248	800,000	0,054	0,134
-524,233	-48,042	0,141	0,050
-523,218	416,626	-0,065	0,102
-522,204	323,457	-0,024	0,034
-521,189	800,000	0,027	-0,086
-520,175	154,071	0,042	0,042
-519,160	-200,000	0,004	-0,089
-518,145	190,625	-0,011	0,012
-517,131	299,126	-0,050	-0,067
-516,116	-60,379	0,074	-0,023
-515,102	183,667	0,027	-0,029
-514,087	-153,670	0,111	-0,005
-513,072	-49,253	-0,170	0,059
-512,058	800,000	0,020	-0,061
-511,043	673,826	-0,020	-0,039
-510,029	-200,000	-0,003	-0,011
-509,014	800,000	0,107	0,219
-507,999	-167,795	-0,053	-0,001
-506,985	197,525	0,035	-0,039
-505,970	-18,824	0,131	-0,059
-504,956	206,716	-0,132	-0,151
-503,941	800,000	-0,015	-0,042
-502,926	-147,747	-0,058	0,003
-501,912	-53,828	-0,052	0,017
-500,897	-72,528	0,027	0,007
-499,883	119,489	-0,080	-0,072
-498,868	800,000	0,002	0,006
-497,853	779,576	-0,057	0,114
-496,839	-119,010	0,082	0,010
-495,824	-200,000	0,003	0,074
-494,810	-57,531	0,090	-0,029
-493,795	-200,000	0,005	0,057
-492,781	125,598	0,067	-0,062
-491,766	-84,941	-0,036	0,008
-490,751	-150,624	-0,093	-0,005
-489,737	-85,674	-0,076	0,017
-488,722	86,930	-0,078	-0,062
-487,708	-44,680	-0,006	-0,002
-486,693	-200,000	-0,013	-0,104
-485,678	37,046	-0,100	0,064
-484,664	-123,874	0,095	-0,011
-483,649	120,924	0,050	0,045
-482,635	-12,637	-0,108	0,051
-481,620	800,000	-0,025	0,078
-480,605	-92,505	0,100	-0,020
-479,591	152,206	-0,025	-0,024
-478,576	-9,191	0,098	-0,048
-477,562	-200,000	-0,002	-0,038
-476,547	318,404	0,023	-0,031
-475,532	51,223	0,059	0,041
-474,518	-28,767	0,125	0,052
-473,503	-200,000	-0,007	0,092
-472,489	395,382	0,046	-0,070
-471,474	67,434	0,078	-0,058
-470,459	-200,000	0,014	-0,177
-469,445	800,000	0,033	0,097
-468,430	-200,000	-0,000	0,097
-467,416	365,116	0,045	-0,067
-466,401	701,225	-0,067	-0,130
-465,386	71,588	-0,105	0,079
-464,372	216,287	0,044	-0,050
-463,357	-138,904	-0,145	-0,011
-462,343	-200,000	0,000	-0,036
-461,328	10,719	-0,051	0,028
-460,313	357,317	0,125	0,181
-459,299	800,000	0,054	0,142
-458,284	181,145	0,017	-0,018
-457,270	-200,000	0,023	0,157
-456,255	134,781	-0,056	0,053
-455,241	334,394	0,032	0,045
-454,226	-200,000	-0,038	-0,132
-453,211	-17,398	0,132	-0,060
-452,197	-129,976	-0,118	0,012
-451,182	-200,000	0,020	0,172
-450,168	395,979	0,038	0,057
-449,153	-200,000	-0,005	-0,099
-448,138	186,368	0,138	-0,150
-447,124	-200,000	-0,010	-0,070
-446,109	-43,750	-0,014	-0,005
-445,095	-200,000	0,028	0,093
-444,080	-41,707	0,071	0,026
-443,065	800,000	0,060	0,162
-442,051	800,000	0,017	-0,043
-441,036	-43,007	0,230	-0,084
-440,022	-57,659	-0,054	-0,017
-439,007	248,644	0,049	-0,060
-437,992	313,563	-0,010	0,014
-436,978	47,470	0,041	-0,028
-435,963	-200,000	0,023	-0,097
-434,949	800,000	0,055	-0,173
-433,934	800,000	-0,044	-0,100
-432,919	245,986	-0,045	0,056
-431,905	285,075	-0,018	-0,024
-430,890	800,000	-0,044	-0,101
-429,876	477,122	0,032	-0,053
-428,861	-200,000	0,009	-0,035
-427,846	800,000	0,025	-0,066
-426,832	-200,000	-0,021	0,135
-425,817	-200,000	0,026	-0,109
-424,803	800,000	-0,025	-0,075
-423,788	-65,438	-0,072	0,021
-422,773	288,296	-0,015	0,020
-421,759	800,000	-0,048	0,101
-420,744	414,046	-0,110	0,171
-419,730	-72,466	-0,130	0,035
-418,715	800,000	-0,054	-0,129
-417,701	-200,000	-0,003	-0,071
-416,686	-11,624	0,071	-0,034
-415,671	536,688	0,037	-0,063
-414,657	290,165	0,115	-0,152
-413,642	198,958	-0,042	-0,047
-412,628	-102,011	-0,059	-0,010
-411,613	636,195	0,042	-0,078
-410,598	460,739	0,013	0,022
-409,584	125,146	0,063	0,057
-408,569	101,629	0,042	0,035
-407,555	-1,383	0,151	-0,077
-406,540	192,195	-0,071	0,078
-405,525	-200,000	0,014	-0,065
-404,511	-56,692	-0,093	-0,030
-403,496	-200,000	0,008	-0,081
-402,482	-35,221	-0,027	-0,011
-401,467	-200,000	0,004	-0,079
-400,452	6,975	0,075	0,040
-399,438	800,000	0,073	0,165
-398,423	800,000	-0,015	0,043
-397,409	149,127	0,068	-0,067
-396,394	124,570	0,057	0,052
-395,379	-200,000	0,041	0,137
-394,365	-200,000	-0,142	0,000
-393,350	-52,217	0,123	0,041
-392,336	-62,877	-0,012	-0,004
-391,321	521,926	-0,075	-0,129
-390,306	305,569	0,064	-0,087
-389,292	117,855	-0,118	-0,105
-388,277	-200,000	0,010	0,097
-387,263	-200,000	0,010	0,052
-386,248	-163,718	-0,098	0,003
-385,233	292,139	0,033	0,044
-384,219	-56,533	-0,095	-0,030
-383,204	-146,714	0,163	-0,010
-382,190	-15,625	0,073	-0,033
-381,175	70,354	-0,059	0,044
-380,160	-200,000	-0,026	0,113
-379,146	-69,543	-0,162	0,045
-378,131	155,946	-0,060	0,060
-377,117	-117,971	-0,090	0,012
-376,102	157,676	0,072	0,072
-375,088	202,400	0,051	0,057
-374,073	-200,000	0,001	0,145
-373,058	-5,539	0,025	0,013
-372,044	-200,000	-0,011	0,089
-371,029	-121,237	0,136	-0,016
-370,015	-143,568	0,055	-0,004
-369,000	-14,752	0,015	0,007
-367,985	27,506	-0,119	0,073
-366,971	-55,459	0,173	-0,056
-365,956	146,739	0,093	0,090
-364,942	800,000	0,093	0,189
-363,927	-200,000	0,014	-0,049
-362,912	-110,035	-0,210	0,032
-361,898	-200,000	-0,005	-0,113
-360,883	-45,189	-0,064	0,023
-359,869	-48,795	-0,096	-0,033
-358,854	-136,649	-0,050	-0,004
-357,839	-90,741	0,111	0,023
-356,825	800,000	-0,033	0,072
-355,810	769,015	0,056	0,112
-354,796	335,019	-0,095	-0,133
-353,781	-200,000	-0,031	-0,161
-352,766	-159,166	0,172	0,007
-351,752	375,144	0,121	-0,178
-350,737	289,776	0,132	0,174
-349,723	800,000	0,045	-0,098
-348,708	435,807	0,026	0,042
-347,693	172,875	-0,040	0,041
-346,679	92,738	-0,050	-0,041
-345,664	337,116	0,019	-0,027
-344,650	102,360	-0,065	0,055
-343,635	372,560	0,061	0,091
-342,620	800,000	0,030	0,077
-341,606	247,140	-0,026	-0,032
-340,591	20,305	-0,012	-0,007
-339,577	-183,631	0,069	-0,001
-338,562	-101,751	-0,084	-0,015
-337,548	-37,311	-0,109	-0,042
-336,533	137,771	0,027	0,026
-335,518	800,000	-0,060	0,123
-334,504	-200,000	0,034	0,125
-333,489	-200,000	-0,014	0,083
-332,475	127,585	0,124	0,114
-331,460	-109,546	-0,226	0,034
-330,445	-41,320	0,034	0,013
-329,431	-43,891	0,046	0,017
-328,416	-2,491	0,020	0,010
-327,402	-200,000	-0,020	0,067
-326,387	-200,000	-0,004	0,014
-325,372	-67,682	-0,083	-0,023
-324,358	-200,000	0,009	0,104
-323,343	610,304	-0,086	-0,156
-322,329	390,728	0,041	-0,062
-321,314	-100,708	0,067	-0,012
-320,299	79,817	-0,078	0,061
-319,285	178,900	0,090	-0,095
-318,270	279,328	0,050	-0,065
-317,256	74,401	-0,115	0,087
-316,241	-65,997	0,121	-0,035
-315,226	-40,193	0,081	0,030
-314,212	50,190	0,121	0,083
-313,197	419,947	-0,011	0,018
-312,183	800,000	0,007	-0,019
-311,168	59,994	-0,085	-0,061
-310,153	-82,579	-0,182	0,042
-309,139	91,168	-0,089	-0,072
-308,124	-200,000	0,023	0,095
-307,110	59,662	0,068	0,049
-306,095	43,438	0,079	0,052
-305,080	81,741	0,035	-0,028
-304,066	-50,442	-0,160	-0,054
-303,051	-60,713	-0,060	-0,018
-302,037	-192,386	-0,033	0,000
-301,022	125,161	-0,095	0,087
-300,008	51,413	0,068	0,047
-298,993	73,631	0,070	0,053
-297,978	-200,000	-0,028	0,172
-296,964	-200,000	-0,001	0,048
-295,949	467,930	-0,079	-0,128
-294,935	-166,810	-0,066	-0,002
-293,920	-200,000	0,021	-0,097
-292,905	-134,513	-0,039	-0,003
-291,891	81,785	-0,101	0,079
-290,876	800,000	0,030	0,080
-289,862	800,000	0,048	-0,112
-288,847	-86,030	-0,089	0,020
-287,832	3,728	-0,138	-0,072
-286,818	-200,000	0,007	-0,076
-285,803	490,074	0,034	-0,056
-284,789	590,347	0,060	-0,108
-283,774	-200,000	-0,001	0,054
-282,759	106,673	-0,049	-0,042
-281,745	-200,000	0,021	0,101
-280,730	165,475	-0,040	0,041
-279,716	50,753	0,048	0,033
-278,701	14,541	0,006	-0,004
-277,686	240,630	-0,062	-0,074
-276,672	-43,041	-0,065	0,024
-275,657	-8,835	-0,117	0,056
-274,643	-108,164	-0,041	0,006
-273,628	320,632	-0,122	-0,168
-272,613	42,329	-0,108	0,071
-271,599	11,732	0,115	0,064
-270,584	-200,000	0,043	0,142
-269,570	506,782	0,012	0,020
-268,555	-98,727	0,049	-0,009
-267,540	11,093	-0,103	0,056
-266,526	381,229	0,071	-0,105
-265,511	-175,152	-0,155	0,003
-264,497	-200,000	0,010	-0,043
-263,482	-97,927	0,227	0,042
-262,467	114,538	-0,046	-0,040
-261,453	-12,571	0,084	0,040
-260,438	1,028	-0,066	0,034
-259,424	448,014	0,068	-0,109
-258,409	-145,099	-0,117	-0,008
-257,395	251,972	0,073	0,090
-256,380	-200,000	-0,001	0,128
-255,365	-200,000	0,025	0,214
-254,351	-152,872	0,137	-0,007
-253,336	132,187	0,026	0,024
-252,322	763,338	-0,023	0,046
-251,307	0,053	-0,078	0,040
-250,292	309,657	0,043	-0,058
-249,278	-39,492	0,054	-0,020
-248,263	800,000	0,036	0,080
-247,249	800,000	-0,072	0,153
-246,234	347,713	0,033	-0,047
-245,219	-178,387	0,046	-0,001
-244,205	31,916	0,094	-0,058
-243,190	26,536	0,109	0,066
-242,176	-56,140	0,125	0,040
-241,161	-200,000	0,032	0,110
-240,146	-17,549	0,202	0,091
-239,132	-200,000	-0,085	0,296
-238,117	212,557	0,075	0,085
-237,103	-200,000	-0,017	-0,172
-236,088	-200,000	0,005	-0,027
-235,073	800,000	0,028	-0,079
-234,059	8,769	0,083	0,045
-233,044	-97,519	0,080	-0,015
-232,030	103,925	0,071	-0,060
-231,015	-106,069	0,078	0,013
-230,000	-91,400	-0,125	0,026
-228,986	198,364	0,107	0,118
-227,971	-200,000	-0,010	-0,096
-226,957	181,494	-0,047	0,050
-225,942	-141,588	-0,079	0,006
-224,927	70,008	-0,168	-0,125
-223,913	-200,000	-0,013	0,068
-222,898	-165,838	-0,210	0,006
-221,884	800,000	-0,006	-0,019
-220,869	-200,000	0,010	0,065
-219,855	-200,000	0,012	-0,052
-218,840	-200,000	0,029	0,096
-217,825	23,835	-0,071	0,042
-216,811	30,509	-0,067	-0,041
-215,796	370,748	-0,089	-0,130
-214,782	-131,288	-0,056	0,005
-213,767	-95,107	0,078	-0,015
-212,752	800,000	-0,021	-0,066
-211,738	-200,000	-0,030	-0,120
-210,723	440,360	-0,031	0,049
-209,709	227,425	0,116	-0,136
-208,694	800,000	0,030	-0,080
-207,679	-188,473	-0,095	-0,001
-206,665	-181,083	-0,023	0,000
-205,650	-2,727	0,167	-0,084
-204,636	186,547	-0,054	-0,058
-203,621	-85,368	-0,089	0,020
-202,606	-200,000	0,044	0,144
-201,592	641,699	0,039	-0,071
-200,577	-25,133	-0,046	-0,020
-199,563	-42,647	-0,108	0,039
-198,548	-169,388	0,054	0,001
-197,533	52,042	0,104	0,071
-196,519	-2,091	0,051	-0,026
-195,504	471,484	-0,059	-0,096
-194,490	-99,672	0,038	-0,007
-193,475	-32,905	-0,081	-0,032
-192,460	-140,133	0,038	0,003
-191,446	563,913	0,041	-0,071
-190,431	-200,000	0,007	-0,051
-189,417	117,460	-0,056	0,050
-188,402	800,000	-0,037	-0,114
-187,387	-163,729	-0,126	-0,004
-186,373	-160,470	0,100	0,004
-185,358	-200,000	-0,011	0,047
-184,344	-200,000	-0,008	0,118
-183,329	-99,325	0,074	-0,013
-182,315	-101,159	0,116	-0,020
-181,300	-78,199	-0,083	0,020
-180,285	-21,071	-0,110	-0,048
-179,271	-134,641	-0,035	0,003
-178,256	-75,344	0,109	-0,028
-177,242	-113,105	0,050	-0,007
-176,227	43,565	-0,010	0,007
-175,212	35,154	-0,102	-0,064
-174,198	772,963	-0,022	0,043
-173,183	652,196	0,028	0,052
-172,169	-200,000	0,012	0,089
-171,154	-158,201	-0,057	-0,002
-170,139	121,702	0,050	-0,045
-169,125	800,000	0,036	-0,092
-168,110	-200,000	-0,008	-0,056
-167,096	-200,000	0,008	-0,033
-166,081	-11,064	-0,119	-0,056
-165,066	-200,000	0,026	-0,171
-164,052	101,671	-0,122	0,102
-163,037	-102,778	0,111	0,019
-162,023	-70,075	0,135	-0,037
-161,008	-97,214	0,144	-0,027
-159,993	308,246	-0,061	-0,082
-158,979	527,767	-0,081	-0,138
-157,964	-93,780	-0,029	0,006
-156,950	141,557	0,122	0,116
-155,935	800,000	0,032	0,089
-154,920	101,984	0,039	0,032
-153,906	467,971	-0,012	0,020
-152,891	800,000	-0,025	0,069
-151,877	-1,285	-0,109	-0,055
-150,862	70,903	-0,039	0,029
-149,847	-200,000	0,020	-0,157
-148,833	-98,577	0,076	-0,014
-147,818	-143,357	-0,182	0,012
-146,804	499,413	-0,020	-0,033
-145,789	800,000	0,047	0,116
-144,775	-200,000	-0,004	0,106
-143,760	-200,000	-0,019	0,086
-142,745	-200,000	0,019	-0,098
-141,731	-200,000	-0,016	-0,067
-140,716	-200,000	-0,004	-0,043
-139,702	800,000	0,037	-0,091
-138,687	-200,000	0,005	-0,032
-137,672	74,602	0,064	-0,049
-136,658	82,246	0,059	-0,046
-135,643	-169,877	0,146	0,004
-134,629	142,884	-0,117	-0,112
-133,614	-200,000	0,004	0,026
-132,599	-200,000	0,031	-0,100
-131,585	-200,000	0,034	0,120
-130,570	-55,165	-0,107	0,034
-129,556	-200,000	-0,022	-0,073
-128,541	133,943	-0,063	0,059
-127,526	-132,277	0,048	-0,004
-126,512	-156,816	-0,029	-0,001
-125,497	-200,000	0,028	0,100
-124,483	-200,000	-0,001	0,045
-123,468	-200,000	-0,002	0,009
-122,453	21,564	0,043	-0,025
-121,439	51,479	0,044	-0,030
-120,424	-200,000	-0,020	-0,075
-119,410	146,989	0,073	-0,071
-118,395	800,000	-0,037	0,103
-117,380	-200,000	0,016	0,183
-116,366	151,762	-0,140	-0,137
-115,351	-65,572	-0,037	-0,011
-114,337	400,636	-0,067	-0,101
-113,322	-137,527	0,054	0,004
-112,307	-200,000	-0,019	0,082
-111,293	413,147	0,050	0,077
-110,278	109,259	0,064	0,055
-109,264	-94,332	0,053	0,010
-108,249	800,000	0,047	-0,118
-107,234	-127,978	0,086	-0,009
-106,220	-200,000	-0,023	0,161
-105,205	634,150	-0,025	0,046
-104,191	462,507	0,027	0,043
-103,176	-81,957	0,088	-0,020
-102,162	210,577	-0,085	0,096
-101,147	678,258	-0,114	0,214
-100,132	-18,072	-0,124	0,055
-99,118	43,324	0,061	-0,040
-98,103	-200,000	0,006	-0,025
-97,089	-149,652	-0,072	-0,004
-96,074	399,657	0,072	-0,108
-95,059	800,000	0,037	0,088
-94,045	498,154	-0,105	-0,174
-93,030	-146,166	0,141	0,009
-92,016	276,793	-0,055	0,070
-91,001	101,056	-0,133	-0,111
-89,986	-37,900	-0,063	0,024
-88,972	-54,747	-0,041	0,013
-87,957	798,587	-0,065	0,129
-86,943	-74,443	0,153	0,039
-85,928	-156,975	0,126	0,005
-84,913	203,979	-0,044	0,048
-83,899	5,136	0,067	0,035
-82,884	-200,000	0,027	-0,109
-81,870	51,638	0,104	-0,071
-80,855	139,966	0,071	0,067
-79,840	800,000	0,066	0,189
-78,826	59,479	-0,083	-0,059
-77,811	105,609	-0,097	-0,082
-76,797	174,995	-0,050	-0,052
-75,782	233,485	-0,107	0,127
-74,767	-200,000	0,002	-0,043
-73,753	-3,836	0,081	0,040
-72,738	-200,000	0,033	0,116
-71,724	298,816	0,002	-0,003
-70,709	-200,000	-0,029	-0,094
-69,694	-97,302	-0,088	0,016
-68,680	116,764	0,112	0,098
-67,665	364,664	-0,087	0,126
-66,651	157,859	-0,097	0,096
-65,636	-29,074	0,141	-0,058
-64,622	-200,000	-0,037	-0,136
-63,607	108,513	-0,134	0,115
-62,592	-76,765	0,025	0,006
-61,578	156,449	-0,151	0,149
-60,563	-93,713	0,150	-0,029
-59,549	-49,026	-0,023	0,008
-58,534	26,142	-2,116	-1,262
-57,519	-200,000	0,018	-0,705
-56,505	-200,000	-1,417	-5,131
-55,490	76,049	0,920	0,696
-54,476	800,000	5,318	12,164
-53,461	-200,000	18,547	306,752
-52,446	800,000	737,880	2276,167
-51,432	537,207	1651,067	2818,994
-50,417	108,404	1635,925	1397,705
-49,403	72,024	1286,423	957,487
-48,388	29,790	1027,700	625,224
-47,373	19,769	990,177	569,354
-46,359	17,469	977,861	554,717
-45,344	14,139	974,036	541,634
-44,330	14,432	972,364	541,641
-43,315	13,761	970,658	538,478
-42,300	13,732	969,562	537,754
-41,286	13,748	968,733	537,324
-40,271	13,769	967,650	536,770
-39,257	13,680	966,974	536,085
-38,242	13,769	965,838	535,725
-37,227	13,748	965,137	535,246
-36,213	13,702	964,511	534,726
-35,198	13,676	963,465	534,042
-34,184	13,761	962,689	533,866
-33,169	13,767	961,460	533,183
-32,154	13,790	960,661	532,792
-31,140	13,808	959,848	532,380
-30,125	13,792	959,057	531,868
-29,111	13,784	958,160	531,322
-28,096	13,815	957,630	531,108
-27,082	13,826	956,827	530,677
-26,067	13,763	956,217	530,114
-25,052	13,793	955,648	529,874
-24,038	13,753	954,746	529,227
-23,023	13,739	954,182	528,845
-22,009	13,811	953,650	528,763
-20,994	13,815	952,839	528,305
-19,979	13,794	952,312	527,924
-18,965	13,765	951,491	527,354
-17,950	13,760	951,143	527,125
-16,936	13,750	950,321	526,617
-15,921	13,710	949,657	526,101
-14,906	13,647	948,987	525,508
-13,892	13,651	948,412	525,180
-12,877	13,668	947,580	524,754
-11,863	13,677	946,896	524,382
-10,848	13,666	946,663	524,197
-9,833	13,718	946,116	524,038
-8,819	13,706	945,311	523,534
-7,804	13,739	944,552	523,199
-6,790	13,629	944,179	522,623
-5,775	13,760	943,619	522,705
-4,760	13,653	943,142	522,081
-3,746	13,629	942,390	521,567
-2,731	13,526	941,684	520,831
-1,717	13,536	940,988	520,459
-0,702	13,511	940,399	520,032
0,313	13,393	939,619	520,014
1,327	16,724	937,628	529,357
2,342	25,809	788,855	469,249
3,356	21,968	443,601	258,180
4,371	-7,320	296,514	143,219
5,386	-11,173	278,354	130,773
6,400	-12,585	272,512	126,702
7,415	-12,614	270,245	125,610
8,429	-12,659	268,839	124,904
9,444	-12,789	267,886	124,332
10,459	-12,756	267,295	124,076
11,473	-12,981	266,733	123,599
12,488	-12,944	266,071	123,315
13,502	-13,345	265,486	122,669
14,517	-12,973	264,912	122,730
15,531	-13,084	264,776	122,555
16,546	-12,844	264,199	122,494
17,561	-12,897	263,906	122,300
18,575	-12,926	263,606	122,124
19,590	-12,860	263,151	121,961
20,604	-12,834	263,119	121,959
21,619	-13,079	262,694	121,531
22,634	-12,928	262,331	121,488
23,648	-13,088	261,948	121,156
24,663	-13,038	261,694	121,073
25,677	-12,921	261,446	121,051
26,692	-13,084	261,220	120,791
27,707	-13,053	260,984	120,698
28,721	-12,789	260,536	120,715
29,736	-12,977	260,466	120,505
30,750	-13,139	260,185	120,220
31,765	-13,177	259,904	120,047
32,780	-13,095	259,549	119,944
33,794	-12,970	259,393	119,971
34,809	-13,040	259,180	119,801
35,823	-13,147	258,820	119,529
36,838	-13,238	258,622	119,347
37,853	-13,187	258,416	119,286
38,867	-13,135	258,082	119,167
39,882	-13,130	258,016	119,130
40,896	-13,113	257,664	118,972
41,911	-13,103	257,383	118,841
42,926	-13,148	257,146	118,681
43,940	-13,198	256,970	118,546
44,955	-13,185	256,640	118,394
45,969	-13,228	256,477	118,271
46,984	-13,425	256,221	117,970
47,999	-13,477	255,940	117,785
49,013	-13,618	255,636	117,512
50,028	-13,860	255,504	117,230
51,042	-13,672	255,126	117,209
52,057	-14,006	254,966	116,836
53,071	-13,864	254,797	116,871
54,086	-13,764	254,557	116,837
55,101	-13,514	254,471	117,004
56,115	-13,555	254,384	116,918
57,130	-12,981	254,015	117,234
58,144	-12,843	253,974	117,324
59,159	-12,963	253,763	117,112
60,174	-13,046	253,564	116,938
61,188	-12,998	253,291	116,843
62,203	-13,048	253,142	116,721
63,217	-13,099	252,939	116,574
64,232	-13,009	252,593	116,481
65,247	-12,941	252,421	116,450
66,261	-13,030	252,260	116,289
67,276	-13,258	252,024	115,974
68,290	-13,426	251,701	115,672
69,305	-13,568	251,481	115,438
70,320	-13,499	251,142	115,331
71,334	-13,059	251,068	115,663
72,349	-12,841	250,847	115,737
73,363	-13,077	250,755	115,483
74,378	-12,832	250,470	115,550
75,393	-13,143	250,410	115,247
76,407	-13,163	250,236	115,140
77,422	-12,978	249,917	115,140
78,436	-12,831	249,733	115,169
79,451	-12,870	249,409	114,976
80,466	-12,930	249,074	114,761
81,480	-13,313	249,003	114,394
82,495	-13,303	248,896	114,343
83,509	-13,192	248,798	114,382
84,524	-13,309	248,435	114,106
85,539	-13,230	248,102	114,010
86,553	-13,349	248,068	113,884
87,568	-13,537	247,921	113,648
88,582	-13,332	247,598	113,661
89,597	-13,355	247,421	113,552
90,611	-13,101	247,330	113,713
91,626	-13,045	247,070	113,630
92,641	-13,134	247,107	113,562
93,655	-13,065	246,847	113,490
94,670	-13,108	246,581	113,322
95,684	-13,074	246,397	113,255
96,699	-13,116	246,002	113,029
97,714	-13,164	245,885	112,925
98,728	-13,306	245,765	112,742
99,743	-13,513	245,482	112,429
100,757	-13,530	245,328	112,335
101,772	-13,424	245,138	112,326
102,787	-13,450	245,010	112,236
103,801	-13,002	244,719	112,464
104,816	-12,920	244,602	112,468
105,830	-13,061	244,583	112,332
106,845	-13,033	244,268	112,201
107,860	-12,940	244,057	112,171
108,874	-13,301	243,796	111,743
109,889	-13,192	243,737	111,795
110,903	-13,210	243,513	111,668
111,918	-13,231	243,190	111,492
112,933	-13,125	243,054	111,508
113,947	-13,134	243,046	111,486
114,962	-13,170	242,765	111,319
115,976	-12,975	242,543	111,366
116,991	-12,985	242,399	111,282
118,006	-13,018	242,358	111,227
119,020	-13,114	242,167	111,051
120,035	-13,011	242,008	111,052
121,049	-12,981	241,849	110,993
122,064	-12,958	241,706	110,937
123,079	-13,012	241,468	110,774
124,093	-13,281	241,198	110,420
125,108	-13,389	241,052	110,255
126,122	-13,549	240,596	109,906
127,137	-13,646	240,456	109,754
128,151	-13,343	240,264	109,903
129,166	-13,402	240,360	109,889
130,181	-13,431	240,071	109,724
131,195	-13,307	239,744	109,665
132,210	-13,236	239,699	109,692
133,224	-13,061	239,504	109,735
134,239	-13,096	239,522	109,704
135,254	-13,002	239,105	109,580
136,268	-13,325	239,024	109,272
137,283	-13,540	238,724	108,952
138,297	-13,524	238,360	108,789
139,312	-13,607	238,252	108,664
140,327	-13,235	238,152	108,908
141,341	-12,834	238,122	109,206
142,356	-12,726	238,071	109,260
143,370	-12,778	237,783	109,077
144,385	-12,724	237,570	109,012
145,400	-12,893	237,621	108,890
146,414	-12,811	237,260	108,781
147,429	-12,968	237,090	108,568
148,443	-13,065	237,122	108,495
149,458	-13,045	236,802	108,355
150,473	-12,962	236,674	108,353
151,487	-12,891	236,357	108,254
152,502	-13,067	236,388	108,119
153,516	-12,765	235,999	108,172
154,531	-12,828	235,875	108,055
155,546	-12,917	235,835	107,956
156,560	-12,958	235,550	107,784
157,575	-12,964	235,247	107,631
158,589	-12,865	235,119	107,641
159,604	-12,843	235,053	107,619
160,619	-12,510	234,715	107,718
161,633	-12,577	234,794	107,692
162,648	-12,799	234,678	107,453
163,662	-12,927	234,527	107,273
164,677	-12,962	234,180	107,078
165,692	-13,035	233,939	106,900
166,706	-12,840	233,989	107,067
167,721	-12,563	233,788	107,184
168,735	-12,878	233,874	106,965
169,750	-12,740	233,444	106,868
170,764	-12,821	233,410	106,779
171,779	-12,662	233,110	106,757
172,794	-12,751	233,102	106,674
173,808	-12,990	232,838	106,356
174,823	-13,261	232,551	106,003
175,837	-13,473	232,413	105,765
176,852	-13,156	232,409	106,002
177,867	-12,827	232,141	106,127
178,881	-12,690	232,037	106,177
179,896	-12,702	231,810	106,054
180,910	-12,598	231,580	106,021
181,925	-12,745	231,583	105,899
182,940	-12,765	231,544	105,856
183,954	-12,729	231,265	105,747
184,969	-12,794	231,154	105,636
185,983	-12,713	230,975	105,607
186,998	-13,009	231,024	105,390
188,013	-12,429	230,549	105,614
189,027	-12,485	230,513	105,545
190,042	-12,683	230,273	105,273
191,056	-12,855	230,176	105,085
192,071	-12,721	230,164	105,174
193,086	-12,690	229,831	105,037
194,100	-12,583	229,636	105,021
195,115	-13,028	229,236	104,485
196,129	-13,039	229,398	104,542
197,144	-7,429	231,222	109,720
198,159	-1,756	232,991	114,977
199,173	1,667	233,824	118,052
200,188	2,381	233,901	118,637
201,202	2,211	233,731	118,408
202,217	2,100	233,551	118,219
203,232	2,440	233,301	118,347
204,246	2,429	233,194	118,274
205,261	2,625	233,109	118,372
206,275	2,566	233,076	118,299
207,290	2,766	232,871	118,340
208,304	2,823	232,753	118,314
209,319	2,541	232,545	117,979
210,334	2,482	232,456	117,878
211,348	2,425	232,060	117,622
212,363	2,028	231,942	117,245
213,377	1,980	231,543	116,996
214,392	1,839	231,475	116,842
215,407	2,038	231,419	116,957
216,421	1,886	231,263	116,751
217,436	1,857	231,214	116,693
218,450	1,766	230,998	116,503
219,465	1,741	230,701	116,324
220,480	1,974	230,480	116,381
221,494	1,727	230,521	116,203
222,509	2,210	230,296	116,449
223,523	2,291	230,267	116,485
224,538	2,340	229,904	116,329
225,553	1,980	229,917	116,050
226,567	1,987	229,750	115,961
227,582	2,285	229,599	116,102
228,596	2,424	229,582	116,189
229,611	2,011	229,399	115,771
230,626	1,632	229,176	115,359
231,640	1,777	229,150	115,446
232,655	2,283	228,958	115,725
233,669	2,275	228,929	115,693
234,684	2,525	228,650	115,732
235,699	2,204	228,587	115,446
236,713	1,925	228,192	115,025
237,728	1,955	228,008	114,944
238,742	1,727	227,918	114,716
239,757	2,033	227,813	114,884
240,772	1,828	227,691	114,658
241,786	1,828	227,492	114,547
242,801	2,076	227,458	114,707
243,815	2,521	227,350	114,978
244,830	2,400	227,169	114,786
245,844	2,087	227,051	114,480
246,859	2,012	226,760	114,266
247,874	2,117	226,759	114,335
248,888	2,195	226,472	114,239
249,903	1,974	226,426	114,039
250,917	2,125	226,256	114,056
251,932	1,969	226,099	113,850
252,947	1,915	225,726	113,612
253,961	1,824	225,733	113,537
254,976	1,915	225,686	113,571
255,990	2,070	225,516	113,592
257,005	2,221	225,389	113,631
258,020	2,178	225,343	113,565
259,034	2,343	224,999	113,504
260,049	2,177	225,073	113,408
261,063	2,358	224,750	113,371
262,078	2,259	224,758	113,290
263,093	2,240	224,575	113,174
264,107	2,390	224,439	113,207
265,122	2,281	224,321	113,056
266,136	2,486	224,134	113,104
267,151	2,399	224,185	113,055
268,166	2,181	223,756	112,667
269,180	1,978	223,373	112,313
270,195	2,074	223,358	112,367
271,209	1,989	223,249	112,240
272,224	2,037	223,248	112,264
273,239	2,169	222,987	112,220
274,253	2,035	222,892	112,064
275,268	1,836	222,735	111,828
276,282	1,823	222,533	111,707
277,297	1,715	222,420	111,561
278,312	1,972	222,290	111,675
279,326	2,189	222,152	111,755
280,341	2,174	221,970	111,643
281,355	2,275	221,785	111,614
282,370	2,235	221,682	111,523
283,384	1,741	221,533	111,075
284,399	1,694	221,297	110,912
285,414	1,631	221,278	110,847
286,428	2,236	221,084	111,183
287,443	2,439	220,998	111,278
288,457	2,147	220,901	111,006
289,472	1,760	220,782	110,653
290,487	1,735	220,305	110,386
291,501	1,558	220,321	110,255
292,516	1,755	220,033	110,245
293,530	1,828	220,006	110,275
294,545	1,912	219,941	110,294
295,560	1,762	219,850	110,129
296,574	1,959	219,700	110,187
297,589	2,060	219,597	110,199
298,603	1,978	219,553	110,108
299,618	2,194	219,231	110,093
300,633	2,317	219,132	110,123
301,647	2,259	219,119	110,064
302,662	2,330	219,040	110,066
303,676	2,267	218,867	109,924
304,691	2,369	218,706	109,907
305,706	2,361	218,492	109,784
306,720	2,303	218,375	109,673
307,735	2,072	218,286	109,452
308,749	1,859	218,067	109,179
309,764	2,247	217,917	109,373
310,779	2,380	217,781	109,392
311,793	2,263	217,699	109,256
312,808	2,301	217,535	109,191
313,822	2,221	217,365	109,039
314,837	2,173	217,206	108,915
315,852	2,025	217,041	108,717
316,866	2,272	216,967	108,846
317,881	2,231	216,840	108,744
318,895	2,143	216,712	108,607
319,910	2,106	216,372	108,401
320,925	1,646	216,235	107,994
321,939	1,378	216,076	107,714
322,954	1,490	216,092	107,792
323,968	1,985	215,996	108,087
324,983	2,324	215,961	108,302
325,997	2,554	215,822	108,386
327,012	2,448	215,630	108,204
328,027	2,266	215,632	108,067
329,041	2,393	215,495	108,079
330,056	2,337	215,314	107,938
331,070	2,116	214,994	107,611
332,085	2,004	214,792	107,421
333,100	2,079	214,653	107,395
334,114	2,046	214,714	107,393
335,129	2,229	214,396	107,354
336,143	2,220	214,127	107,203
337,158	2,102	214,158	107,126
338,173	1,939	214,076	106,960
339,187	1,826	213,914	106,790
340,202	1,640	213,788	106,587
341,216	1,914	213,581	106,667
342,231	2,249	213,587	106,896
343,246	1,982	213,387	106,598
344,260	1,859	213,421	106,519
345,275	2,237	213,198	106,664
346,289	2,433	213,105	106,746
347,304	2,068	212,876	106,366
348,319	2,167	212,536	106,256
349,333	2,101	212,624	106,243
350,348	2,248	212,388	106,219
351,362	2,357	212,408	106,296
352,377	2,409	212,284	106,261
353,392	1,994	212,159	105,899
354,406	2,386	211,999	106,084
355,421	196,583	1315,225	1391,742
356,435	157,212	1449,595	1391,696
