DTS Sentinel unit serial number:	SN410029Multiplexer serial number:	ORYXHardware model number:	OX2-SRSoftware version number:	ORYX F/W v4,00 Oryx Data Collector v3.7.2.0data status	okinstallation	B6 Nyhavnadifferential loss correction	single-endedforward channel	channel 2reverse channel	N/Adate	2023/12/09time	04:40:08forward acquisition time	300,00reverse acquisition time	0,00gamma	499,1914k internal	0,3146k external	0,3146temperature offset calibration	1,0000default loss term (dB/km)	0,3820temperature slope calibration	1,0000multiplexer offset coefficient	1,0000multiplexer slope coefficient	1,0000fibre end	0,00T internal ref (°C)	17,22T ext. ref 1 (°C)	1,80T ext. ref 2 (°C)	1,82length (m)	temperature (°C)	Stokes	anti-Stokes-744,400	250,557	0,083	-0,105
-743,385	30,770	-0,178	0,112
-742,371	-45,749	0,127	0,046
-741,356	-118,783	-0,361	0,046
-740,342	-122,596	0,191	-0,023
-739,327	7,095	-0,310	-0,171
-738,312	-200,000	-0,038	-0,147
-737,298	-58,802	-0,325	-0,103
-736,283	283,607	0,020	-0,027
-735,269	-144,685	-0,284	0,019
-734,254	-61,524	0,031	0,010
-733,239	-104,369	-0,464	-0,079
-732,225	-78,435	0,258	0,065
-731,210	184,792	-0,043	0,047
-730,196	800,000	0,013	-0,027
-729,181	111,785	-0,037	0,033
-728,167	-200,000	-0,003	0,074
-727,152	-7,987	-0,113	0,056
-726,137	-137,741	-0,098	0,008
-725,123	-134,695	0,076	-0,007
-724,108	800,000	-0,053	-0,120
-723,094	-129,677	-0,135	-0,014
-722,079	18,718	-0,049	-0,029
-721,064	800,000	0,045	-0,108
-720,050	-161,313	-0,126	-0,005
-719,035	72,913	-0,042	-0,032
-718,021	127,127	-0,022	0,020
-717,006	-65,050	-0,194	-0,058
-715,991	-200,000	-0,140	0,000
-714,977	-81,941	-0,075	0,018
-713,962	27,326	0,142	-0,088
-712,948	691,779	-0,093	-0,181
-711,933	-200,000	0,015	-0,151
-710,918	-200,000	0,006	-0,105
-709,904	50,247	-0,071	-0,049
-708,889	800,000	0,064	-0,163
-707,875	-119,063	-0,125	0,016
-706,860	153,528	0,006	0,006
-705,845	-108,966	-0,020	0,003
-704,831	-200,000	-0,006	0,051
-703,816	5,869	-0,069	-0,037
-702,802	161,730	-0,072	-0,074
-701,787	-58,826	-0,146	-0,047
-700,772	145,002	-0,035	-0,035
-699,758	800,000	-0,012	0,030
-698,743	-85,101	0,129	-0,030
-697,729	-68,598	0,125	0,035
-696,714	-156,665	0,134	-0,006
-695,699	-123,269	-0,074	0,009
-694,685	-200,000	-0,013	-0,059
-693,670	-128,749	-0,086	0,009
-692,656	-200,000	0,013	-0,113
-691,641	800,000	0,027	-0,062
-690,627	54,367	0,078	0,055
-689,612	-88,974	-0,029	0,006
-688,597	-111,313	-0,053	-0,008
-687,583	800,000	0,025	0,066
-686,568	38,678	-0,088	-0,058
-685,554	335,211	-0,023	-0,033
-684,539	-31,318	-0,046	-0,019
-683,524	2,506	-0,002	-0,001
-682,510	53,184	0,063	0,044
-681,495	433,939	-0,064	-0,103
-680,481	-200,000	0,004	0,035
-679,466	-200,000	0,012	-0,083
-678,451	800,000	-0,045	0,095
-677,437	130,619	-0,046	-0,043
-676,422	287,528	0,036	-0,049
-675,408	800,000	-0,043	0,103
-674,393	-200,000	-0,015	0,106
-673,378	22,776	0,061	-0,037
-672,364	92,356	-0,090	-0,074
-671,349	-82,509	0,037	0,009
-670,335	-200,000	-0,025	0,108
-669,320	-61,402	0,195	-0,060
-668,305	800,000	-0,050	0,127
-667,291	7,257	-0,039	0,021
-666,276	800,000	-0,045	-0,114
-665,262	-200,000	-0,010	-0,220
-664,247	176,248	-0,055	-0,059
-663,232	187,642	-0,056	-0,062
-662,218	-200,000	-0,012	-0,058
-661,203	-197,489	0,095	-0,000
-660,189	92,934	-0,088	-0,073
-659,174	800,000	-0,025	0,055
-658,159	800,000	-0,028	-0,071
-657,145	-0,310	-0,052	0,027
-656,130	49,130	0,036	0,025
-655,116	-102,381	-0,049	-0,009
-654,101	-129,595	-0,039	-0,004
-653,086	165,143	-0,091	0,095
-652,072	800,000	-0,024	-0,076
-651,057	-200,000	-0,009	-0,066
-650,043	800,000	0,027	0,073
-649,028	-127,343	0,049	-0,005
-648,014	800,000	0,027	-0,076
-646,999	342,510	0,043	0,062
-645,984	287,597	0,030	-0,040
-644,970	39,618	-0,066	0,044
-643,955	-10,777	-0,136	0,066
-642,941	-91,080	0,057	0,012
-641,926	-200,000	0,024	-0,097
-640,911	-102,062	-0,045	0,008
-639,897	-114,211	0,069	0,010
-638,882	737,280	-0,038	-0,075
-637,868	232,476	-0,040	-0,049
-636,853	-200,000	0,004	0,105
-635,838	-118,475	0,095	-0,012
-634,824	-121,523	0,063	0,008
-633,809	521,716	0,045	-0,079
-632,795	57,379	-0,066	-0,047
-631,780	340,682	0,064	-0,092
-630,765	-127,058	-0,057	0,006
-629,751	71,688	-0,066	-0,050
-628,736	-200,000	0,007	-0,060
-627,722	800,000	-0,014	0,035
-626,707	157,115	-0,086	-0,087
-625,692	-200,000	-0,028	0,178
-624,678	-19,858	-0,105	-0,047
-623,663	513,005	0,014	0,024
-622,649	14,368	-0,047	0,027
-621,634	340,196	0,025	-0,036
-620,619	91,239	-0,036	0,029
-619,605	800,000	-0,023	-0,067
-618,590	-29,410	-0,042	0,018
-617,576	-40,170	0,097	-0,037
-616,561	30,985	0,102	-0,064
-615,546	-114,029	-0,147	-0,021
-614,532	-68,673	0,019	0,006
-613,517	49,932	0,032	0,022
-612,503	-200,000	-0,006	-0,070
-611,488	-97,331	0,048	-0,009
-610,474	755,011	-0,049	0,098
-609,459	-126,389	-0,043	0,005
-608,444	199,770	-0,095	-0,108
-607,430	188,771	0,022	-0,024
-606,415	519,660	-0,055	-0,095
-605,401	-10,664	-0,103	-0,050
-604,386	61,452	0,041	-0,030
-603,371	800,000	-0,036	0,084
-602,357	-132,980	-0,167	-0,015
-601,342	764,830	-0,036	0,073
-600,328	295,951	-0,090	-0,122
-599,313	-200,000	-0,027	-0,174
-598,298	177,436	0,038	-0,040
-597,284	-38,421	0,130	-0,050
-596,269	-70,020	0,047	-0,013
-595,255	-200,000	0,074	0,000
-594,240	338,861	0,023	0,033
-593,225	-200,000	0,031	-0,107
-592,211	-27,385	0,064	-0,027
-591,196	112,563	0,123	0,110
-590,182	-0,282	-0,085	0,045
-589,167	800,000	0,027	0,089
-588,152	800,000	-0,035	0,077
-587,138	-200,000	0,023	0,100
-586,123	800,000	-0,023	0,071
-585,109	165,612	-0,014	-0,015
-584,094	-128,228	0,052	-0,005
-583,079	-69,028	0,052	0,015
-582,065	739,152	-0,081	0,162
-581,050	716,740	-0,135	-0,265
-580,036	126,270	-0,054	-0,050
-579,021	-200,000	0,015	-0,140
-578,006	26,457	-0,043	-0,027
-576,992	-200,000	0,002	0,027
-575,977	-42,709	-0,076	0,028
-574,963	-200,000	0,004	-0,091
-573,948	270,170	-0,094	0,122
-572,934	50,643	0,082	0,057
-571,919	-200,000	-0,045	-0,216
-570,904	-175,165	-0,052	-0,001
-569,890	-72,828	-0,086	0,023
-568,875	-200,000	0,023	0,137
-567,861	132,496	-0,018	-0,017
-566,846	-200,000	-0,034	-0,120
-565,831	112,692	0,105	0,094
-564,817	-3,818	-0,119	0,061
-563,802	763,951	0,061	-0,122
-562,788	-177,573	-0,139	-0,002
-561,773	220,119	-0,016	0,019
-560,758	800,000	0,055	0,168
-559,744	36,858	0,111	0,072
-558,729	-172,983	-0,153	-0,003
-557,715	800,000	-0,031	-0,091
-556,700	-200,000	0,028	-0,102
-555,685	56,027	0,015	-0,011
-554,671	655,508	-0,038	-0,072
-553,656	-160,112	0,041	-0,002
-552,642	-170,853	0,033	-0,001
-551,627	-151,056	-0,070	0,004
-550,612	-85,305	-0,103	0,023
-549,598	26,457	0,084	0,052
-548,583	-200,000	0,043	-0,147
-547,569	-64,827	-0,067	-0,020
-546,554	-125,164	0,019	-0,002
-545,539	61,677	0,125	0,091
-544,525	285,407	0,097	-0,128
-543,510	230,016	0,034	-0,041
-542,496	-200,000	-0,014	-0,105
-541,481	800,000	-0,014	-0,030
-540,466	-200,000	-0,014	0,051
-539,452	201,483	0,027	0,031
-538,437	-70,703	0,074	-0,020
-537,423	-22,908	-0,130	0,057
-536,408	-101,973	-0,126	0,022
-535,393	60,937	0,068	-0,049
-534,379	98,666	0,049	-0,041
-533,364	409,175	0,043	0,068
-532,350	212,958	0,029	-0,034
-531,335	-118,063	0,068	0,009
-530,321	-200,000	-0,005	0,043
-529,306	800,000	-0,056	-0,115
-528,291	221,232	0,035	-0,042
-527,277	-168,284	0,117	0,003
-526,262	404,354	0,024	-0,038
-525,248	-200,000	0,002	-0,116
-524,233	41,647	-0,133	-0,088
-523,218	-200,000	0,020	0,095
-522,204	222,114	0,070	0,082
-521,189	-200,000	-0,011	-0,095
-520,175	652,957	-0,059	-0,111
-519,160	-200,000	0,008	-0,152
-518,145	160,187	0,036	-0,037
-517,131	-200,000	-0,008	0,054
-516,116	-200,000	-0,007	-0,036
-515,102	399,525	0,091	-0,140
-514,087	161,081	-0,039	-0,040
-513,072	797,516	-0,062	-0,125
-512,058	-30,170	0,137	-0,057
-511,043	125,519	-0,059	0,054
-510,029	800,000	0,052	0,126
-509,014	800,000	0,054	0,120
-507,999	-14,156	0,024	-0,011
-506,985	44,355	-0,049	0,033
-505,970	-51,520	-0,083	-0,028
-504,956	72,419	0,102	-0,078
-503,941	116,370	-0,020	0,018
-502,926	-137,119	0,145	-0,012
-501,912	-146,325	-0,050	0,003
-500,897	-200,000	-0,027	0,094
-499,883	110,984	0,080	0,071
-498,868	63,812	-0,175	-0,128
-497,853	206,563	0,173	-0,198
-496,839	-200,000	-0,005	0,118
-495,824	106,161	0,048	0,042
-494,810	-129,531	-0,042	0,004
-493,795	220,619	-0,071	0,083
-492,781	30,364	-0,048	-0,030
-491,766	-200,000	0,026	-0,128
-490,751	800,000	-0,065	-0,139
-489,737	-164,615	0,094	0,003
-488,722	-86,856	0,122	0,027
-487,708	-21,613	0,012	0,005
-486,693	-200,000	-0,000	-0,163
-485,678	62,000	-0,055	-0,040
-484,664	800,000	0,037	-0,098
-483,649	13,401	-0,094	0,053
-482,635	-200,000	0,004	-0,018
-481,620	-200,000	0,018	0,172
-480,605	-121,548	-0,141	0,017
-479,591	-145,799	0,083	0,005
-478,576	371,960	-0,107	-0,159
-477,562	-101,995	-0,129	0,023
-476,547	364,180	-0,041	0,061
-475,532	698,946	-0,028	-0,054
-474,518	-200,000	0,003	-0,125
-473,503	-200,000	-0,003	-0,036
-472,489	-169,651	0,162	0,004
-471,474	-200,000	-0,018	-0,071
-470,459	-200,000	-0,008	0,086
-469,445	30,279	-0,046	-0,029
-468,430	-95,562	-0,120	-0,023
-467,416	-200,000	-0,010	0,078
-466,401	800,000	0,026	0,056
-465,386	424,748	0,031	-0,048
-464,372	-164,599	0,149	-0,005
-463,357	-200,000	-0,001	-0,147
-462,343	194,160	0,022	-0,024
-461,328	-200,000	0,018	-0,059
-460,313	-200,000	0,030	0,103
-459,299	-146,891	-0,064	0,004
-458,284	-30,764	-0,028	0,011
-457,270	800,000	0,012	-0,026
-456,255	28,428	0,042	-0,026
-455,241	171,830	-0,089	0,094
-454,226	-200,000	0,009	0,044
-453,211	800,000	-0,010	-0,024
-452,197	191,906	0,045	0,050
-451,182	-100,604	-0,064	-0,012
-450,168	-200,000	0,040	0,133
-449,153	318,596	0,079	-0,110
-448,138	58,808	-0,092	-0,066
-447,124	-200,000	0,007	-0,036
-446,109	-94,171	0,031	0,006
-445,095	-200,000	0,011	-0,043
-444,080	144,319	0,100	0,098
-443,065	74,314	0,099	0,076
-442,051	-86,232	-0,131	0,029
-441,036	467,114	-0,009	-0,016
-440,022	-165,764	-0,077	0,002
-439,007	-200,000	0,005	0,026
-437,992	-200,000	-0,042	0,167
-436,978	800,000	0,060	0,155
-435,963	-96,073	0,149	-0,029
-434,949	-56,970	-0,202	0,065
-433,934	-91,392	-0,101	-0,021
-432,919	609,709	0,076	0,140
-431,905	20,055	-0,029	0,017
-430,890	-200,000	-0,001	0,135
-429,876	164,044	-0,034	-0,035
-428,861	81,298	-0,110	0,087
-427,846	-200,000	-0,002	0,117
-426,832	542,617	-0,023	0,040
-425,817	-114,877	0,034	-0,005
-424,803	10,065	-0,116	-0,064
-423,788	-69,311	0,041	-0,012
-422,773	221,037	0,029	0,034
-421,759	-109,720	-0,115	0,018
-420,744	-119,186	-0,056	0,007
-419,730	-200,000	-0,011	0,035
-418,715	800,000	-0,076	-0,193
-417,701	-60,318	-0,084	-0,026
-416,686	182,742	0,087	-0,094
-415,671	-90,398	-0,082	-0,017
-414,657	-98,087	0,084	0,016
-413,642	-200,000	-0,013	0,042
-412,628	-200,000	-0,005	0,067
-411,613	800,000	0,010	0,027
-410,598	-200,000	-0,036	0,149
-409,584	-70,080	-0,153	0,042
-408,569	156,728	-0,091	0,092
-407,555	-103,059	-0,131	0,022
-406,540	-200,000	0,001	0,034
-405,525	-200,000	-0,005	-0,016
-404,511	-200,000	-0,031	0,117
-403,496	160,954	-0,059	-0,060
-402,482	-72,268	0,112	-0,030
-401,467	85,234	0,073	-0,058
-400,452	800,000	0,048	0,099
-399,438	565,610	0,040	0,072
-398,423	800,000	0,044	0,136
-397,409	98,625	-0,049	0,042
-396,394	-115,666	0,136	0,018
-395,379	536,135	-0,059	0,102
-394,365	15,451	0,113	0,065
-393,350	-103,617	0,103	-0,017
-392,336	-48,432	0,091	-0,032
-391,321	324,363	-0,017	0,024
-390,306	231,474	0,065	-0,078
-389,292	-78,353	-0,067	-0,017
-388,277	-68,378	0,100	0,028
-387,263	-42,541	0,163	0,060
-386,248	157,757	-0,030	-0,031
-385,233	49,747	0,042	0,029
-384,219	-200,000	-0,017	0,107
-383,204	-72,727	0,121	-0,032
-382,190	800,000	-0,048	-0,118
-381,175	8,781	0,080	-0,044
-380,160	123,683	0,114	-0,105
-379,146	265,181	-0,043	-0,055
-378,131	-88,204	0,098	0,021
-377,117	16,661	0,041	0,024
-376,102	-131,986	0,058	-0,005
-375,088	-3,735	-0,062	0,031
-374,073	800,000	0,037	0,092
-373,058	-200,000	-0,001	0,069
-372,044	429,787	0,054	0,086
-371,029	354,003	0,048	-0,069
-370,015	-1,529	-0,038	-0,019
-369,000	800,000	0,028	-0,085
-367,985	55,168	-0,115	-0,081
-366,971	-200,000	0,003	0,011
-365,956	-200,000	-0,013	0,092
-364,942	-200,000	0,056	0,198
-363,927	-200,000	-0,006	-0,033
-362,912	520,522	0,046	-0,078
-361,898	223,931	-0,047	-0,055
-360,883	155,999	-0,063	-0,064
-359,869	-136,739	-0,055	-0,005
-358,854	800,000	0,060	0,179
-357,839	155,181	-0,037	0,038
-356,825	0,649	-0,075	-0,039
-355,810	255,663	0,088	0,110
-354,796	-200,000	-0,011	-0,045
-353,781	196,183	-0,035	-0,039
-352,766	-28,020	0,045	-0,019
-351,752	800,000	0,051	-0,132
-350,737	-200,000	-0,011	0,057
-349,723	-124,369	0,081	-0,009
-348,708	133,096	0,114	0,107
-347,693	-200,000	-0,020	0,113
-346,679	-200,000	-0,003	0,037
-345,664	88,721	-0,044	-0,035
-344,650	800,000	-0,011	0,029
-343,635	-62,241	-0,102	-0,031
-342,620	-200,000	-0,015	0,081
-341,606	-200,000	0,009	-0,085
-340,591	-92,106	0,115	-0,024
-339,577	-109,678	0,158	-0,024
-338,562	-32,943	0,114	0,046
-337,548	-24,156	-0,042	0,018
-336,533	800,000	0,035	0,074
-335,518	11,720	0,224	0,125
-334,504	138,505	-0,068	0,065
-333,489	800,000	-0,054	-0,130
-332,475	-86,825	0,139	0,031
-331,460	124,353	-0,078	0,071
-330,445	800,000	0,058	0,150
-329,431	-200,000	-0,015	0,122
-328,416	-38,722	-0,086	0,033
-327,402	800,000	0,009	0,018
-326,387	53,866	-0,060	-0,042
-325,372	-200,000	-0,013	-0,051
-324,358	-200,000	0,006	-0,109
-323,343	-55,766	-0,017	-0,005
-322,329	800,000	0,032	0,085
-321,314	-92,742	0,053	-0,011
-320,299	-138,969	-0,065	-0,005
-319,285	174,474	-0,059	-0,062
-318,270	-17,548	0,063	-0,029
-317,256	575,105	0,051	-0,092
-316,241	-200,000	-0,017	-0,091
-315,226	800,000	0,051	0,104
-314,212	-68,946	0,048	0,013
-313,197	141,349	-0,056	0,054
-312,183	-3,522	-0,161	-0,081
-311,168	233,490	0,066	-0,080
-310,153	132,556	0,052	-0,049
-309,139	800,000	-0,063	-0,165
-308,124	-106,760	0,117	-0,019
-307,110	-200,000	0,017	0,057
-306,095	-109,688	0,057	0,009
-305,080	800,000	0,014	0,030
-304,066	307,957	0,052	0,071
-303,051	-29,831	-0,050	0,021
-302,037	-120,764	0,141	-0,017
-301,022	41,292	0,056	-0,037
-300,008	28,888	-0,071	-0,043
-298,993	-200,000	-0,006	-0,050
-297,978	178,418	-0,020	-0,021
-296,964	560,157	0,036	0,064
-295,949	-200,000	0,016	-0,084
-294,935	-29,739	-0,183	0,075
-293,920	-60,893	-0,043	0,013
-292,905	-117,929	0,107	0,014
-291,891	-10,381	0,051	-0,025
-290,876	242,976	0,026	0,032
-289,862	-2,096	0,088	0,045
-288,847	73,623	-0,167	-0,127
-287,832	-78,747	0,086	0,021
-286,818	68,385	-0,031	-0,023
-285,803	194,226	0,022	-0,025
-284,789	-6,753	0,051	0,025
-283,774	-200,000	0,021	0,092
-282,759	-200,000	0,030	0,158
-281,745	160,653	0,053	0,054
-280,730	211,376	-0,034	0,038
-279,716	-200,000	0,000	0,070
-278,701	27,660	0,075	0,046
-277,686	-200,000	-0,009	0,038
-276,672	426,206	0,073	0,115
-275,657	-124,316	-0,105	-0,012
-274,643	366,965	-0,023	-0,035
-273,628	-141,189	-0,107	0,008
-272,613	-200,000	0,020	0,089
-271,599	-147,071	0,073	0,004
-270,584	315,697	-0,073	0,100
-269,570	156,166	-0,104	0,104
-268,555	800,000	0,019	-0,043
-267,540	355,363	-0,051	-0,074
-266,526	-179,272	-0,031	-0,000
-265,511	800,000	0,053	-0,151
-264,497	-111,550	0,024	-0,004
-263,482	-148,686	0,035	0,002
-262,467	381,434	-0,023	0,034
-261,453	223,301	-0,062	-0,073
-260,438	69,980	-0,047	-0,035
-259,424	-92,413	-0,129	-0,026
-258,409	30,839	-0,107	-0,066
-257,395	138,049	0,078	0,074
-256,380	-200,000	0,013	-0,088
-255,365	-16,337	0,108	0,050
-254,351	13,879	-0,135	0,076
-253,336	-150,744	0,076	0,004
-252,322	-174,063	-0,091	-0,002
-251,307	-82,049	-0,130	0,030
-250,292	135,510	0,085	-0,080
-249,278	-200,000	0,001	0,035
-248,263	-200,000	-0,031	0,145
-247,249	297,465	0,079	0,105
-246,234	314,237	-0,046	-0,063
-245,219	-54,184	-0,113	0,037
-244,205	-1,583	0,079	-0,040
-243,190	800,000	-0,056	0,127
-242,176	800,000	-0,063	0,164
-241,161	-153,340	0,198	0,010
-240,146	383,670	-0,088	0,133
-239,132	-40,708	0,034	-0,013
-238,117	-47,032	-0,160	-0,057
-237,103	-200,000	-0,007	0,025
-236,088	800,000	0,034	-0,071
-235,073	-37,917	0,066	0,025
-234,059	-200,000	0,002	0,087
-233,044	47,999	-0,098	-0,067
-232,030	800,000	0,026	-0,054
-231,015	116,828	0,086	-0,077
-230,000	81,307	-0,113	-0,089
-228,986	-200,000	-0,034	-0,119
-227,971	-200,000	-0,001	-0,006
-226,957	-200,000	-0,023	-0,117
-225,942	129,867	0,059	0,055
-224,927	-200,000	0,036	-0,141
-223,913	104,484	0,048	-0,041
-222,898	-200,000	-0,032	-0,160
-221,884	272,500	-0,056	0,072
-220,869	-200,000	0,023	0,125
-219,855	-49,319	-0,121	-0,042
-218,840	53,496	0,098	0,068
-217,825	346,565	-0,015	0,022
-216,811	79,021	0,037	-0,029
-215,796	-25,678	-0,061	-0,026
-214,782	28,870	0,015	-0,009
-213,767	84,816	-0,039	0,031
-212,752	-29,546	0,053	-0,022
-211,738	120,168	-0,072	0,065
-210,723	18,395	0,146	0,084
-209,709	-200,000	0,030	-0,146
-208,694	551,973	0,062	-0,109
-207,679	2,200	0,128	-0,067
-206,665	-200,000	-0,006	-0,023
-205,650	189,003	0,073	0,080
-204,636	320,467	-0,043	0,059
-203,621	800,000	-0,021	0,063
-202,606	-38,000	0,036	0,014
-201,592	8,100	0,081	-0,044
-200,577	46,584	-0,134	0,090
-199,563	-200,000	0,056	-0,208
-198,548	-17,019	-0,036	-0,016
-197,533	800,000	0,050	0,119
-196,519	-200,000	-0,006	0,068
-195,504	562,141	-0,010	-0,017
-194,490	36,458	0,016	0,010
-193,475	754,145	0,049	-0,097
-192,460	-200,000	-0,005	0,022
-191,446	-90,252	-0,050	0,010
-190,431	-26,676	0,174	0,073
-189,417	-69,110	0,116	0,032
-188,402	8,214	-0,106	-0,058
-187,387	14,070	-0,085	-0,048
-186,373	-200,000	-0,011	-0,077
-185,358	437,402	-0,093	0,147
-184,344	-200,000	-0,000	0,102
-183,329	391,413	0,057	0,085
-182,315	-200,000	0,022	0,131
-181,300	102,256	-0,026	-0,022
-180,285	13,169	-0,092	-0,051
-179,271	75,197	0,041	-0,031
-178,256	226,560	0,061	-0,071
-177,242	686,586	0,035	0,066
-176,227	-104,565	-0,042	0,007
-175,212	591,954	-0,091	0,163
-174,198	6,508	-0,075	-0,040
-173,183	-133,349	0,116	-0,010
-172,169	800,000	-0,069	-0,220
-171,154	800,000	0,047	-0,109
-170,139	800,000	-0,036	0,094
-169,125	-200,000	-0,019	0,000
-168,110	443,659	0,063	0,100
-167,096	-200,000	-0,013	0,184
-166,081	5,060	-0,039	0,021
-165,066	-200,000	-0,028	-0,189
-164,052	-0,294	0,121	-0,062
-163,037	50,859	0,124	0,085
-162,023	800,000	0,039	-0,103
-161,008	800,000	-0,031	0,082
-159,993	300,701	-0,066	-0,088
-158,979	-127,245	-0,083	0,009
-157,964	60,674	-0,049	-0,035
-156,950	-133,154	-0,082	0,007
-155,935	-200,000	-0,006	-0,035
-154,920	610,641	0,017	-0,031
-153,906	-61,116	-0,117	-0,035
-152,891	-34,246	0,041	0,016
-151,877	78,345	-0,085	-0,066
-150,862	496,807	0,062	-0,104
-149,847	190,640	0,090	-0,098
-148,833	800,000	-0,030	-0,062
-147,818	240,465	-0,132	0,159
-146,804	449,265	-0,053	-0,085
-145,789	-160,364	-0,077	0,003
-144,775	-65,077	-0,080	-0,023
-143,760	34,592	0,079	0,050
-142,745	46,194	-0,113	0,076
-141,731	-29,704	-0,072	-0,030
-140,716	800,000	0,040	-0,103
-139,702	-59,706	0,060	-0,019
-138,687	-0,500	0,128	0,066
-137,672	52,074	0,070	-0,048
-136,658	800,000	0,045	-0,099
-135,643	223,162	-0,062	-0,072
-134,629	-16,547	-0,162	-0,074
-133,614	-200,000	0,013	0,079
-132,599	164,914	0,045	0,046
-131,585	800,000	0,012	0,027
-130,570	-55,794	-0,156	0,050
-129,556	-200,000	0,005	-0,106
-128,541	228,522	-0,048	-0,056
-127,526	-200,000	-0,007	0,134
-126,512	23,504	0,074	-0,044
-125,497	800,000	-0,031	0,075
-124,483	-120,343	-0,137	0,017
-123,468	-35,487	0,084	0,033
-122,453	188,107	0,017	0,018
-121,439	-200,000	0,000	0,038
-120,424	800,000	0,036	0,076
-119,410	163,679	-0,048	0,049
-118,395	215,841	-0,049	-0,056
-117,380	154,100	0,118	-0,117
-116,366	557,260	-0,019	-0,034
-115,351	215,074	0,114	-0,130
-114,337	800,000	0,030	-0,076
-113,322	-57,081	-0,120	-0,038
-112,307	-182,090	0,101	0,001
-111,293	-200,000	-0,027	0,094
-110,278	-30,641	-0,104	-0,042
-109,264	-200,000	-0,016	0,079
-108,249	-145,963	0,059	-0,004
-107,234	84,842	-0,034	-0,027
-106,220	354,327	0,046	-0,066
-105,205	317,220	-0,024	-0,032
-104,191	-121,561	0,094	-0,011
-103,176	15,273	-0,041	-0,023
-102,162	-66,320	-0,051	-0,015
-101,147	800,000	-0,038	-0,117
-100,132	-200,000	0,017	-0,111
-99,118	-200,000	0,005	-0,094
-98,103	210,630	-0,130	-0,147
-97,089	800,000	0,010	0,023
-96,074	55,592	0,092	0,064
-95,059	1,227	0,071	0,037
-94,045	-200,000	0,014	-0,103
-93,030	277,825	0,111	-0,143
-92,016	800,000	0,048	-0,106
-91,001	53,549	0,054	-0,037
-89,986	-75,696	0,072	0,018
-88,972	-200,000	-0,021	0,136
-87,957	12,026	0,083	0,046
-86,943	800,000	-0,049	0,154
-85,928	264,672	-0,015	-0,019
-84,913	256,889	-0,057	-0,071
-83,899	-57,212	0,015	0,005
-82,884	-56,965	0,128	0,040
-81,870	800,000	0,010	-0,029
-80,855	178,186	0,084	0,088
-79,840	-170,764	-0,091	-0,002
-78,826	4,690	-0,107	-0,056
-77,811	-200,000	0,009	-0,060
-76,797	-23,536	0,132	-0,057
-75,782	596,647	-0,043	-0,077
-74,767	800,000	-0,005	-0,010
-73,753	236,899	-0,038	-0,046
-72,738	19,522	0,094	-0,054
-71,724	358,259	-0,043	0,062
-70,709	395,576	0,064	-0,096
-69,694	-200,000	-0,001	-0,062
-68,680	-200,000	-0,021	0,080
-67,665	-200,000	-0,007	0,116
-66,651	-200,000	0,000	0,043
-65,636	35,190	-0,155	0,098
-64,622	426,724	-0,075	0,118
-63,607	-43,954	-0,117	0,042
-62,592	-29,028	0,019	0,008
-61,578	631,654	0,002	-0,004
-60,563	-200,000	-0,018	-0,062
-59,549	-118,934	0,014	0,002
-58,534	-43,014	-2,040	-0,742
-57,519	800,000	-0,346	-0,891
-56,505	-200,000	-1,212	-4,874
-55,490	-124,128	0,721	0,081
-54,476	800,000	5,357	12,169
-53,461	-200,000	16,802	274,180
-52,446	800,000	713,571	2206,307
-51,432	541,110	1626,534	2802,015
-50,417	116,188	1622,058	1431,111
-49,403	78,172	1283,132	985,389
-48,388	34,746	1030,242	647,475
-47,373	20,745	992,907	577,606
-46,359	19,515	981,687	566,994
-45,344	17,591	977,404	558,160
-44,330	17,756	976,007	557,884
-43,315	17,334	974,404	555,559
-42,300	17,276	973,275	554,704
-41,286	17,336	972,237	554,288
-40,271	17,263	971,234	553,454
-39,257	17,280	970,530	553,086
-38,242	17,299	969,671	552,638
-37,227	17,329	968,861	552,251
-36,213	17,237	968,132	551,512
-35,198	17,252	967,001	550,896
-34,184	17,279	966,367	550,601
-33,169	17,242	965,464	549,944
-32,154	17,271	964,620	549,537
-31,140	17,246	963,719	548,918
-30,125	17,274	962,996	548,579
-29,111	17,281	962,264	548,161
-28,096	17,298	961,475	547,745
-27,082	17,246	960,879	547,217
-26,067	17,238	959,990	546,661
-25,052	17,227	959,263	546,190
-24,038	17,278	958,490	545,892
-23,023	17,262	957,915	545,491
-22,009	17,351	957,101	545,294
-20,994	17,248	956,768	544,750
-19,979	17,264	955,805	544,233
-18,965	17,172	955,339	543,650
-17,950	17,293	954,680	543,642
-16,936	17,161	954,094	542,861
-15,921	17,200	953,209	542,464
-14,906	17,100	952,592	541,768
-13,892	17,119	951,855	541,389
-12,877	17,128	951,164	541,002
-11,863	17,145	950,561	540,693
-10,848	17,097	950,250	540,340
-9,833	17,254	949,604	540,455
-8,819	17,187	949,016	539,884
-7,804	17,174	948,290	539,409
-6,790	17,163	947,607	538,965
-5,775	17,209	947,063	538,780
-4,760	17,167	946,587	538,353
-3,746	17,212	945,825	538,040
-2,731	16,998	945,348	537,068
-1,717	16,972	944,472	536,467
-0,702	17,001	943,771	536,139
0,313	16,809	943,228	536,030
1,327	20,196	941,334	545,644
2,342	29,523	797,139	486,896
3,356	26,765	448,940	270,062
4,371	-2,848	295,700	148,215
5,386	-6,821	276,999	135,057
6,400	-7,786	271,330	131,383
7,415	-8,462	269,034	129,635
8,429	-8,578	267,601	128,827
9,444	-8,475	266,609	128,432
10,459	-8,716	266,286	128,045
11,473	-8,966	265,578	127,465
12,488	-9,121	265,071	127,069
13,502	-9,107	264,494	126,795
14,517	-9,196	263,917	126,426
15,531	-9,241	263,454	126,152
16,546	-9,273	263,059	125,922
17,561	-9,319	262,655	125,676
18,575	-8,994	262,253	125,765
19,590	-9,361	262,005	125,305
20,604	-9,330	261,768	125,208
21,619	-9,422	261,445	124,960
22,634	-9,282	261,036	124,879
23,648	-9,395	260,813	124,660
24,663	-9,429	260,442	124,441
25,677	-9,558	260,204	124,202
26,692	-9,541	260,096	124,154
27,707	-9,136	259,619	124,275
28,721	-9,460	259,409	123,876
29,736	-9,474	259,176	123,741
30,750	-9,514	258,786	123,509
31,765	-9,642	258,668	123,328
32,780	-9,500	258,473	123,350
33,794	-9,423	258,256	123,303
34,809	-9,616	258,093	123,044
35,823	-9,598	257,734	122,877
36,838	-9,579	257,452	122,749
37,853	-9,459	257,238	122,742
38,867	-9,588	256,981	122,494
39,882	-9,757	256,800	122,249
40,896	-9,653	256,520	122,196
41,911	-9,683	256,325	122,066
42,926	-9,491	255,968	122,053
43,940	-9,543	255,807	121,920
44,955	-9,653	255,481	121,658
45,969	-9,800	255,279	121,422
46,984	-10,092	255,031	121,038
47,999	-10,176	254,724	120,808
49,013	-10,453	254,547	120,472
50,028	-10,583	254,252	120,208
51,042	-10,498	254,048	120,176
52,057	-10,584	253,771	119,959
53,071	-10,434	253,594	119,995
54,086	-10,370	253,404	119,950
55,101	-10,405	253,376	119,895
56,115	-10,081	253,089	120,030
57,130	-9,365	253,042	120,616
58,144	-9,174	252,970	120,736
59,159	-9,055	252,761	120,728
60,174	-9,220	252,615	120,506
61,188	-9,322	252,512	120,358
62,203	-9,229	252,066	120,214
63,217	-9,446	251,853	119,915
64,232	-9,344	251,673	119,907
65,247	-9,134	251,551	120,018
66,261	-9,282	251,109	119,670
67,276	-9,719	250,966	119,216
68,290	-9,899	250,695	118,923
69,305	-9,910	250,604	118,860
70,320	-9,842	250,180	118,706
71,334	-9,625	250,165	118,874
72,349	-9,210	249,988	119,133
73,363	-9,150	249,960	119,161
74,378	-9,194	249,654	118,967
75,393	-9,331	249,461	118,747
76,407	-9,416	249,257	118,567
77,422	-9,395	249,017	118,461
78,436	-9,418	249,079	118,460
79,451	-9,258	248,528	118,323
80,466	-9,571	248,444	118,007
81,480	-9,608	247,993	117,751
82,495	-9,898	247,892	117,448
83,509	-9,731	247,854	117,560
84,524	-9,764	247,561	117,382
85,539	-9,920	247,234	117,086
86,553	-10,227	247,140	116,772
87,568	-9,695	246,748	117,024
88,582	-9,743	246,655	116,929
89,597	-9,970	246,556	116,681
90,611	-9,648	246,495	116,912
91,626	-9,545	246,345	116,917
92,641	-9,340	245,986	116,909
93,655	-9,661	245,837	116,558
94,670	-9,648	245,576	116,435
95,684	-9,633	245,569	116,433
96,699	-9,844	245,344	116,140
97,714	-9,804	245,090	116,043
98,728	-9,842	244,789	115,858
99,743	-9,994	244,689	115,674
100,757	-9,963	244,431	115,567
101,772	-9,810	244,224	115,587
102,787	-9,654	244,087	115,641
103,801	-9,737	244,018	115,529
104,816	-9,412	243,767	115,670
105,830	-9,576	243,741	115,511
106,845	-9,380	243,558	115,577
107,860	-9,464	243,436	115,439
108,874	-9,485	243,089	115,247
109,889	-9,683	242,948	115,005
110,903	-9,834	242,788	114,795
111,918	-9,688	242,447	114,744
112,933	-9,462	242,400	114,898
113,947	-9,531	242,251	114,760
114,962	-9,483	242,036	114,688
115,976	-9,302	241,955	114,788
116,991	-9,705	241,700	114,325
118,006	-9,777	241,578	114,198
119,020	-9,508	241,454	114,350
120,035	-9,391	241,224	114,327
121,049	-9,319	241,140	114,336
122,064	-9,474	241,089	114,174
123,079	-9,361	240,547	114,000
124,093	-9,590	240,494	113,778
125,108	-9,812	240,290	113,490
126,122	-10,016	239,931	113,144
127,137	-10,040	239,847	113,075
128,151	-9,917	239,654	113,073
129,166	-9,983	239,518	112,946
130,181	-9,829	239,265	112,942
131,195	-10,076	239,137	112,671
132,210	-9,584	238,883	112,940
133,224	-9,613	238,895	112,912
134,239	-9,638	238,758	112,817
135,254	-9,377	238,464	112,879
136,268	-9,585	238,217	112,584
137,283	-9,991	237,969	112,129
138,297	-10,031	237,798	112,006
139,312	-9,807	237,449	112,012
140,327	-9,760	237,726	112,171
141,341	-9,086	237,413	112,556
142,356	-9,046	237,408	112,576
143,370	-8,911	237,109	112,533
144,385	-8,979	236,954	112,395
145,400	-9,062	236,875	112,280
146,414	-8,952	236,656	112,255
147,429	-9,058	236,390	112,034
148,443	-9,126	236,308	111,930
149,458	-9,171	236,185	111,825
150,473	-9,274	236,019	111,655
151,487	-9,282	235,801	111,535
152,502	-9,273	235,747	111,507
153,516	-9,099	235,468	111,504
154,531	-9,235	235,412	111,359
155,546	-9,038	235,110	111,363
156,560	-9,325	235,077	111,109
157,575	-9,195	234,596	110,975
158,589	-9,219	234,477	110,890
159,604	-8,847	234,390	111,135
160,619	-8,974	234,402	111,029
161,633	-8,893	234,139	110,959
162,648	-9,128	234,226	110,804
163,662	-9,185	233,950	110,618
164,677	-9,140	233,699	110,526
165,692	-9,182	233,481	110,380
166,706	-8,919	233,494	110,583
167,721	-8,878	233,341	110,533
168,735	-8,819	233,222	110,514
169,750	-8,962	233,083	110,325
170,764	-9,132	232,862	110,077
171,779	-8,994	232,703	110,100
172,794	-8,964	232,496	110,017
173,808	-9,029	232,185	109,808
174,823	-9,636	232,026	109,247
175,837	-9,870	231,823	108,958
176,852	-9,425	231,800	109,286
177,867	-9,063	231,731	109,528
178,881	-9,088	231,618	109,445
179,896	-8,668	231,253	109,591
180,910	-8,983	231,290	109,353
181,925	-8,699	231,151	109,499
182,940	-9,019	231,139	109,234
183,954	-8,989	230,892	109,131
184,969	-8,933	230,726	109,086
185,983	-8,864	230,567	109,055
186,998	-8,560	230,222	109,119
188,013	-8,798	230,323	108,972
189,027	-8,735	230,012	108,864
190,042	-8,540	229,984	108,992
191,056	-8,712	229,830	108,776
192,071	-8,485	229,531	108,801
193,086	-8,665	229,528	108,650
194,100	-8,553	229,484	108,707
195,115	-8,153	229,203	108,874
196,129	-8,245	229,293	108,835
197,144	-3,904	230,637	112,841
198,159	0,715	231,762	116,982
199,173	2,935	232,560	119,107
200,188	3,756	232,591	119,752
201,202	3,326	232,453	119,336
202,217	3,628	232,308	119,486
203,232	3,893	232,262	119,658
204,246	3,911	232,089	119,572
205,261	3,834	231,838	119,372
206,275	4,131	231,625	119,482
207,290	3,981	231,751	119,420
208,304	3,951	231,590	119,304
209,319	3,960	231,271	119,136
210,334	3,834	231,117	118,948
211,348	3,755	230,726	118,675
212,363	3,518	230,531	118,381
213,377	3,177	230,425	118,053
214,392	3,259	230,129	117,954
215,407	3,240	230,215	117,973
216,421	3,406	229,961	117,960
217,436	3,257	229,699	117,701
218,450	3,066	229,562	117,473
219,465	2,969	229,393	117,301
220,480	2,991	229,356	117,289
221,494	3,121	229,148	117,272
222,509	3,312	229,095	117,381
223,523	3,117	229,006	117,176
224,538	3,114	228,579	116,944
225,553	3,261	228,446	116,978
226,567	3,275	228,385	116,947
227,582	3,485	228,440	117,125
228,596	3,785	228,273	117,258
229,611	3,278	228,087	116,766
230,626	3,130	227,705	116,447
231,640	2,976	227,751	116,343
232,655	3,319	227,656	116,545
233,669	3,895	227,569	116,928
234,684	3,635	227,465	116,667
235,699	3,516	227,374	116,520
236,713	3,266	226,970	116,112
237,728	3,293	226,760	116,014
238,742	3,263	226,619	115,909
239,757	3,205	226,443	115,765
240,772	3,027	226,494	115,646
241,786	2,938	226,286	115,462
242,801	3,304	226,152	115,660
243,815	3,383	226,054	115,660
244,830	3,673	225,932	115,805
245,844	3,298	225,674	115,380
246,859	3,166	225,552	115,208
247,874	3,643	225,375	115,467
248,888	3,527	225,257	115,309
249,903	3,388	225,172	115,150
250,917	3,300	224,961	114,966
251,932	3,188	224,781	114,780
252,947	3,123	224,658	114,658
253,961	3,151	224,496	114,586
254,976	3,100	224,344	114,461
255,990	3,432	224,165	114,607
257,005	3,441	224,099	114,570
258,020	3,616	224,025	114,652
259,034	3,685	223,973	114,667
260,049	3,613	223,747	114,488
261,063	3,608	223,509	114,352
262,078	3,548	223,448	114,265
263,093	3,528	223,291	114,161
264,107	3,539	223,125	114,073
265,122	3,484	223,109	114,014
266,136	3,608	222,967	114,023
267,151	3,524	222,799	113,865
268,166	3,374	222,469	113,575
269,180	3,114	222,290	113,281
270,195	3,049	222,166	113,159
271,209	3,297	221,846	113,170
272,224	3,263	221,800	113,111
273,239	3,448	221,870	113,274
274,253	3,240	221,721	113,033
275,268	3,051	221,445	112,744
276,282	2,811	221,199	112,432
277,297	2,675	221,185	112,314
278,312	2,983	220,968	112,421
279,326	3,466	220,830	112,695
280,341	3,168	220,712	112,407
281,355	3,352	220,537	112,442
282,370	3,202	220,434	112,270
283,384	2,844	220,245	111,901
284,399	2,821	220,219	111,861
285,414	2,965	219,973	111,831
286,428	3,047	220,063	111,927
287,443	3,345	219,794	111,998
288,457	3,228	219,729	111,869
289,472	3,211	219,373	111,666
290,487	2,811	219,179	111,265
291,501	2,434	219,109	110,945
292,516	2,752	219,053	111,139
293,530	2,977	218,930	111,231
294,545	2,973	218,657	111,079
295,560	3,075	218,589	111,109
296,574	3,181	218,511	111,136
297,589	3,316	218,347	111,141
298,603	3,486	218,246	111,203
299,618	3,154	218,294	110,976
300,633	3,253	217,976	110,876
301,647	3,599	217,892	111,074
302,662	3,587	217,685	110,950
303,676	3,464	217,555	110,785
304,691	3,299	217,393	110,574
305,706	3,662	217,320	110,789
306,720	3,582	217,277	110,699
307,735	3,114	217,053	110,238
308,749	3,071	216,836	110,086
309,764	3,430	216,756	110,294
310,779	3,474	216,585	110,230
311,793	3,602	216,301	110,167
312,808	3,273	216,357	109,949
313,822	3,336	216,263	109,937
314,837	3,399	215,995	109,837
315,852	3,142	215,808	109,547
316,866	3,164	215,702	109,500
317,881	3,525	215,552	109,671
318,895	3,270	215,453	109,429
319,910	3,240	215,311	109,326
320,925	3,204	215,208	109,238
321,939	3,070	214,977	109,015
322,954	3,143	214,840	108,988
323,968	3,379	214,837	109,145
324,983	3,397	214,733	109,095
325,997	3,558	214,480	109,072
327,012	3,402	214,373	108,897
328,027	3,285	214,437	108,836
329,041	3,544	214,288	108,935
330,056	3,699	214,020	108,899
331,070	3,197	213,876	108,461
332,085	3,174	213,504	108,246
333,100	3,013	213,553	108,147
334,114	3,392	213,381	108,318
335,129	3,221	213,353	108,173
336,143	3,309	213,089	108,092
337,158	3,123	213,084	107,949
338,173	3,160	212,896	107,870
339,187	3,212	212,776	107,836
340,202	2,884	212,611	107,512
341,216	2,657	212,418	107,245
342,231	2,882	212,307	107,338
343,246	2,877	212,202	107,271
344,260	3,172	212,123	107,429
345,275	3,112	212,010	107,320
346,289	3,360	211,936	107,447
347,304	3,681	211,596	107,490
348,319	3,397	211,480	107,222
349,333	3,312	211,470	107,148
350,348	3,045	211,427	106,930
351,362	3,450	211,254	107,117
352,377	3,530	211,142	107,106
353,392	3,449	211,009	106,972
354,406	2,995	210,851	106,566
355,421	194,707	1340,642	1421,073
356,435	155,482	1478,303	1421,098
