DTS Sentinel unit serial number:	SN410029Multiplexer serial number:	ORYXHardware model number:	OX2-SRSoftware version number:	ORYX F/W v4,00 Oryx Data Collector v3.7.2.0data status	okinstallation	B6 Nyhavnadifferential loss correction	single-endedforward channel	channel 2reverse channel	N/Adate	2023/12/09time	08:40:08forward acquisition time	300,00reverse acquisition time	0,00gamma	499,1914k internal	0,3139k external	0,3139temperature offset calibration	1,0000default loss term (dB/km)	0,3820temperature slope calibration	1,0000multiplexer offset coefficient	1,0000multiplexer slope coefficient	1,0000fibre end	0,00T internal ref (°C)	18,48T ext. ref 1 (°C)	1,93T ext. ref 2 (°C)	1,93length (m)	temperature (°C)	Stokes	anti-Stokes-744,400	18,069	0,183	-0,108
-743,385	-162,491	-0,294	0,011
-742,371	-200,000	-0,009	-0,064
-741,356	-23,814	-0,222	0,098
-740,342	336,214	0,115	0,166
-739,327	-142,805	-0,345	-0,025
-738,312	-72,092	0,197	-0,054
-737,298	-10,049	-0,187	0,092
-736,283	173,911	0,064	-0,069
-735,269	-81,204	-0,305	0,074
-734,254	800,000	0,039	-0,101
-733,239	-93,335	-0,397	-0,081
-732,225	-89,357	0,017	0,004
-731,210	436,246	-0,010	-0,016
-730,196	143,038	-0,053	0,052
-729,181	352,853	-0,018	-0,027
-728,167	159,515	-0,168	-0,174
-727,152	-19,720	-0,057	0,026
-726,137	800,000	-0,082	-0,182
-725,123	800,000	-0,029	-0,089
-724,108	-200,000	-0,007	-0,088
-723,094	50,302	-0,144	-0,100
-722,079	44,555	-0,049	-0,033
-721,064	-78,813	-0,068	-0,017
-720,050	306,907	-0,030	0,041
-719,035	-200,000	-0,008	-0,027
-718,021	117,640	0,084	0,077
-717,006	-78,348	-0,056	0,014
-715,991	-24,969	-0,108	0,047
-714,977	-13,101	-0,009	-0,004
-713,962	-137,628	-0,120	-0,010
-712,948	39,030	-0,110	-0,073
-711,933	60,105	-0,132	-0,097
-710,918	13,838	0,085	-0,049
-709,904	-200,000	0,003	-0,084
-708,889	289,296	-0,075	-0,102
-707,875	-106,469	0,016	0,003
-706,860	8,848	-0,008	-0,005
-705,845	15,130	-0,021	0,012
-704,831	-188,651	-0,037	-0,000
-703,816	-12,999	0,124	-0,060
-702,802	-8,129	-0,078	-0,039
-701,787	-126,487	0,040	0,004
-700,772	800,000	0,016	0,049
-699,758	284,362	-0,091	-0,121
-698,743	-120,783	0,096	0,012
-697,729	-200,000	0,003	0,031
-696,714	394,710	-0,057	0,087
-695,699	-151,135	-0,129	-0,007
-694,685	-114,426	-0,040	0,006
-693,670	525,551	-0,040	-0,070
-692,656	75,179	-0,161	-0,126
-691,641	-24,727	-0,129	0,056
-690,627	-153,069	0,135	0,007
-689,612	357,281	-0,043	-0,064
-688,597	8,839	-0,080	-0,045
-687,583	-200,000	0,018	-0,061
-686,568	-48,330	-0,178	-0,063
-685,554	-169,929	0,087	0,002
-684,539	306,078	0,032	0,044
-683,524	279,327	0,071	-0,094
-682,510	-200,000	0,004	-0,130
-681,495	-200,000	-0,029	-0,105
-680,481	800,000	0,030	0,079
-679,466	143,783	-0,117	0,116
-678,451	-200,000	0,017	-0,133
-677,437	-200,000	0,015	-0,100
-676,422	108,287	0,090	-0,079
-675,408	800,000	0,028	-0,078
-674,393	800,000	0,051	0,130
-673,378	230,388	-0,086	0,105
-672,364	260,265	0,056	-0,072
-671,349	-45,054	-0,047	-0,017
-670,335	-62,252	0,099	0,030
-669,320	-200,000	0,007	0,033
-668,305	-35,183	0,049	-0,020
-667,291	259,185	-0,043	-0,055
-666,276	62,874	-0,201	-0,149
-665,262	800,000	-0,049	-0,109
-664,247	39,873	0,109	-0,072
-663,232	299,496	-0,026	0,036
-662,218	501,736	-0,111	0,190
-661,203	-12,010	-0,076	-0,037
-660,189	800,000	0,016	-0,036
-659,174	290,886	0,078	-0,105
-658,159	-83,143	0,110	-0,026
-657,145	171,026	-0,100	-0,106
-656,130	-19,323	0,071	0,032
-655,116	385,342	0,082	-0,125
-654,101	11,495	-0,050	0,029
-653,086	684,424	-0,047	0,091
-652,072	-59,917	-0,047	0,015
-651,057	55,109	-0,122	0,087
-650,043	326,927	-0,036	0,051
-649,028	352,152	0,038	0,056
-648,014	-16,920	-0,118	-0,055
-646,999	-116,547	0,045	-0,006
-645,984	-200,000	-0,004	-0,037
-644,970	73,978	0,068	-0,052
-643,955	-200,000	-0,040	-0,136
-642,941	800,000	-0,045	0,105
-641,926	169,518	-0,055	0,058
-640,911	-200,000	-0,017	0,113
-639,897	-9,186	-0,030	0,015
-638,882	-51,644	-0,095	0,033
-637,868	800,000	0,010	0,030
-636,853	586,550	-0,102	-0,186
-635,838	-200,000	-0,025	-0,202
-634,824	-200,000	0,019	-0,077
-633,809	130,875	0,045	0,043
-632,795	518,053	0,068	0,118
-631,780	-200,000	-0,009	0,040
-630,765	-117,382	-0,048	0,006
-629,751	313,944	-0,003	0,004
-628,736	-19,686	-0,042	0,019
-627,722	646,483	-0,053	-0,100
-626,707	-56,964	-0,043	-0,014
-625,692	-114,562	-0,040	0,006
-624,678	68,379	0,090	-0,068
-623,663	176,044	-0,135	0,144
-622,649	55,741	-0,064	-0,046
-621,634	-200,000	-0,020	0,127
-620,619	38,292	0,075	0,049
-619,605	800,000	-0,017	-0,051
-618,590	-191,634	-0,122	-0,001
-617,576	143,588	-0,041	-0,040
-616,561	6,798	-0,012	0,006
-615,546	509,387	-0,080	-0,137
-614,532	800,000	-0,073	-0,187
-613,517	-200,000	-0,003	-0,072
-612,503	270,535	-0,118	-0,154
-611,488	-184,654	0,131	-0,002
-610,474	231,466	0,052	0,063
-609,459	183,392	0,024	-0,026
-608,444	-200,000	-0,006	-0,144
-607,430	254,969	0,090	-0,114
-606,415	525,675	-0,019	0,032
-605,401	-43,317	0,005	0,002
-604,386	-113,344	0,043	0,006
-603,371	69,135	-0,026	0,019
-602,357	268,291	-0,049	0,063
-601,342	-24,786	0,152	0,066
-600,328	-83,028	0,049	-0,012
-599,313	-90,953	-0,037	-0,008
-598,298	597,457	-0,106	-0,194
-597,284	-200,000	-0,004	-0,045
-596,269	138,175	0,047	-0,046
-595,255	-43,608	-0,050	-0,018
-594,240	-112,953	-0,040	-0,006
-593,225	106,797	0,046	-0,041
-592,211	27,900	-0,056	-0,035
-591,196	800,000	-0,027	-0,057
-590,182	46,298	-0,036	0,025
-589,167	174,213	-0,024	-0,026
-588,152	-129,530	-0,090	0,009
-587,138	-119,980	0,111	-0,014
-586,123	800,000	-0,043	0,105
-585,109	76,755	0,066	-0,052
-584,094	-200,000	-0,017	-0,212
-583,079	517,951	0,035	0,061
-582,065	800,000	-0,001	-0,003
-581,050	-39,066	-0,053	-0,021
-580,036	-200,000	0,025	-0,097
-579,021	7,666	-0,085	0,047
-578,006	101,790	0,016	0,013
-576,992	-121,661	-0,052	-0,006
-575,977	-62,658	-0,037	0,011
-574,963	13,163	0,026	0,015
-573,948	-200,000	0,032	0,117
-572,934	-200,000	-0,002	0,116
-571,919	800,000	-0,071	0,152
-570,904	44,955	-0,090	0,061
-569,890	24,318	0,095	-0,058
-568,875	-200,000	-0,014	0,060
-567,861	2,343	0,034	0,018
-566,846	139,254	0,154	0,149
-565,831	-96,124	0,199	0,039
-564,817	-94,812	-0,149	0,029
-563,802	-187,083	-0,121	-0,001
-562,788	-103,464	0,077	0,013
-561,773	800,000	0,036	-0,087
-560,758	-200,000	-0,019	-0,086
-559,744	-200,000	0,004	-0,133
-558,729	-200,000	0,010	-0,076
-557,715	800,000	-0,045	-0,118
-556,700	308,345	0,070	-0,096
-555,685	453,080	0,075	-0,123
-554,671	-152,368	0,058	0,003
-553,656	12,202	0,092	-0,052
-552,642	-200,000	0,005	-0,032
-551,627	-200,000	-0,005	0,048
-550,612	542,505	0,026	0,045
-549,598	-1,947	-0,080	-0,041
-548,583	-200,000	0,007	-0,027
-547,569	20,265	0,086	0,051
-546,554	388,751	-0,097	0,148
-545,539	-200,000	-0,003	-0,023
-544,525	238,785	0,047	0,058
-543,510	-200,000	0,030	0,126
-542,496	-96,999	-0,135	0,026
-541,481	612,300	0,007	-0,013
-540,466	-142,094	0,115	0,008
-539,452	-200,000	-0,042	0,145
-538,437	-200,000	0,018	-0,083
-537,423	800,000	-0,030	-0,092
-536,408	800,000	-0,044	-0,095
-535,393	-200,000	-0,010	-0,056
-534,379	800,000	-0,055	-0,154
-533,364	326,512	-0,083	-0,118
-532,350	800,000	0,066	0,151
-531,335	800,000	0,046	-0,115
-530,321	-151,522	0,123	-0,007
-529,306	-200,000	0,002	-0,162
-528,291	474,326	-0,079	-0,132
-527,277	-43,257	-0,035	-0,013
-526,262	275,511	-0,018	-0,023
-525,248	800,000	0,047	0,133
-524,233	-129,272	0,106	-0,011
-523,218	-85,278	0,140	0,032
-522,204	31,668	0,035	0,022
-521,189	417,687	0,097	-0,153
-520,175	248,984	-0,077	-0,096
-519,160	-200,000	-0,038	-0,210
-518,145	-33,835	0,031	0,012
-517,131	800,000	0,060	0,186
-516,116	287,971	0,068	0,091
-515,102	-0,697	0,096	0,050
-514,087	38,146	-0,098	-0,064
-513,072	-48,925	0,074	-0,026
-512,058	126,346	-0,073	-0,068
-511,043	-186,792	0,150	0,002
-510,029	-62,073	0,030	0,009
-509,014	24,065	0,058	0,035
-507,999	-64,982	-0,002	0,001
-506,985	79,525	-0,076	0,060
-505,970	-200,000	0,106	0,000
-504,956	35,251	0,057	-0,037
-503,941	49,785	0,086	0,060
-502,926	127,144	-0,098	0,091
-501,912	407,989	-0,087	0,136
-500,897	313,621	0,029	-0,040
-499,883	-93,110	0,041	0,008
-498,868	-200,000	0,012	-0,175
-497,853	-200,000	0,038	-0,135
-496,839	800,000	0,041	-0,099
-495,824	-187,441	-0,023	-0,000
-494,810	-2,510	-0,069	0,035
-493,795	-92,558	-0,082	0,017
-492,781	-200,000	0,002	0,072
-491,766	-14,344	-0,066	-0,031
-490,751	800,000	0,010	-0,027
-489,737	800,000	-0,051	0,146
-488,722	-200,000	0,035	0,141
-487,708	-46,517	-0,082	-0,029
-486,693	-52,733	0,155	0,052
-485,678	800,000	0,050	-0,158
-484,664	194,313	0,078	-0,087
-483,649	-200,000	-0,026	-0,088
-482,635	-200,000	-0,002	-0,039
-481,620	-200,000	-0,010	0,097
-480,605	-200,000	-0,015	0,067
-479,591	-200,000	0,030	0,118
-478,576	-200,000	-0,027	0,106
-477,562	-115,864	0,063	-0,009
-476,547	-200,000	0,007	-0,135
-475,532	-99,655	-0,080	-0,015
-474,518	28,709	-0,150	-0,093
-473,503	11,872	0,059	0,033
-472,489	800,000	0,058	-0,127
-471,474	-124,679	0,082	0,009
-470,459	-17,841	-0,157	-0,072
-469,445	95,204	-0,063	0,052
-468,430	66,652	0,045	0,034
-467,416	-75,763	-0,145	0,037
-466,401	234,883	-0,028	0,033
-465,386	-112,607	0,049	-0,007
-464,372	-2,513	-0,090	0,046
-463,357	285,510	0,036	0,048
-462,343	800,000	-0,023	-0,070
-461,328	-58,671	0,049	-0,015
-460,313	-6,856	0,108	-0,053
-459,299	149,359	-0,055	-0,054
-458,284	800,000	0,038	-0,103
-457,270	-69,122	0,134	0,038
-456,255	-200,000	-0,017	0,059
-455,241	-74,574	0,034	-0,009
-454,226	-200,000	-0,018	-0,105
-453,211	426,953	0,022	0,034
-452,197	50,938	0,136	-0,094
-451,182	800,000	0,061	0,140
-450,168	-200,000	0,030	0,169
-449,153	800,000	-0,039	0,106
-448,138	-200,000	-0,005	-0,189
-447,124	-46,800	-0,030	0,011
-446,109	94,907	0,095	0,079
-445,095	800,000	-0,033	0,086
-444,080	-130,395	0,082	-0,008
-443,065	-35,781	0,060	0,024
-442,051	24,128	-0,134	-0,081
-441,036	800,000	-0,032	0,100
-440,022	-77,802	-0,178	-0,045
-439,007	-36,094	-0,073	-0,029
-437,992	322,042	0,068	0,095
-436,978	-51,258	0,112	-0,038
-435,963	685,303	0,050	0,095
-434,949	-54,896	-0,100	0,033
-433,934	-200,000	-0,022	0,137
-432,919	479,696	0,034	0,056
-431,905	710,422	-0,064	-0,124
-430,890	-200,000	0,014	-0,053
-429,876	-44,207	0,093	0,034
-428,861	324,405	0,089	0,125
-427,846	-200,000	-0,022	-0,090
-426,832	-38,870	0,021	-0,008
-425,817	800,000	0,020	-0,051
-424,803	248,212	-0,089	0,111
-423,788	38,787	-0,021	-0,014
-422,773	-44,725	0,056	0,020
-421,759	800,000	-0,019	0,042
-420,744	186,330	-0,041	0,045
-419,730	291,600	0,050	-0,067
-418,715	81,272	-0,089	-0,071
-417,701	800,000	-0,035	0,089
-416,686	-132,640	0,086	0,008
-415,671	-1,528	-0,150	-0,077
-414,657	-18,109	-0,091	-0,042
-413,642	-200,000	-0,005	0,052
-412,628	564,697	-0,055	-0,098
-411,613	-200,000	-0,008	-0,068
-410,598	-200,000	-0,002	0,070
-409,584	95,859	0,094	0,079
-408,569	98,990	-0,056	0,047
-407,555	-55,377	0,123	-0,040
-406,540	792,708	0,040	0,080
-405,525	-143,036	0,020	-0,001
-404,511	29,097	0,017	0,011
-403,496	128,617	-0,096	-0,089
-402,482	363,911	-0,029	0,042
-401,467	-25,886	0,068	0,029
-400,452	190,371	0,051	0,056
-399,438	-200,000	-0,005	0,113
-398,423	-21,135	0,069	-0,031
-397,409	24,463	-0,110	0,066
-396,394	206,091	0,041	-0,047
-395,379	54,260	-0,072	-0,051
-394,365	-200,000	-0,000	0,056
-393,350	-96,329	-0,124	-0,024
-392,336	-200,000	0,001	0,121
-391,321	20,256	-0,070	0,041
-390,306	89,638	-0,066	-0,054
-389,292	-200,000	-0,031	-0,130
-388,277	-23,273	0,116	-0,051
-387,263	-200,000	-0,004	0,031
-386,248	-200,000	0,029	0,135
-385,233	-200,000	0,012	-0,153
-384,219	390,770	-0,042	-0,063
-383,204	-200,000	-0,023	-0,102
-382,190	303,923	-0,043	-0,058
-381,175	-4,583	0,025	0,012
-380,160	-200,000	-0,041	0,185
-379,146	-70,284	0,141	-0,039
-378,131	-25,113	-0,105	-0,045
-377,117	-200,000	0,037	-0,178
-376,102	82,450	0,061	-0,048
-375,088	-200,000	-0,002	-0,056
-374,073	800,000	-0,040	0,126
-373,058	-47,011	0,131	-0,047
-372,044	483,072	-0,082	-0,137
-371,029	-58,894	-0,203	0,064
-370,015	-103,016	0,074	-0,013
-369,000	-42,108	-0,089	-0,033
-367,985	800,000	-0,042	-0,115
-366,971	139,157	0,043	-0,041
-365,956	135,718	0,064	-0,061
-364,942	342,922	0,050	0,072
-363,927	-58,452	0,066	0,021
-362,912	619,449	-0,041	-0,076
-361,898	39,714	-0,172	-0,113
-360,883	58,832	0,088	-0,063
-359,869	-87,572	-0,042	-0,009
-358,854	-200,000	0,028	0,094
-357,839	77,500	0,038	-0,030
-356,825	366,831	0,066	0,098
-355,810	-177,945	0,076	-0,001
-354,796	-83,828	-0,060	-0,014
-353,781	-200,000	0,040	0,180
-352,766	338,228	0,046	-0,065
-351,752	-39,918	0,162	0,062
-350,737	-9,542	-0,047	0,023
-349,723	787,493	0,027	-0,055
-348,708	-165,884	-0,067	-0,002
-347,693	-150,376	0,096	-0,005
-346,679	-200,000	0,004	-0,020
-345,664	-64,818	-0,122	0,036
-344,650	659,669	0,039	0,074
-343,635	250,095	-0,043	-0,054
-342,620	-56,076	0,094	-0,030
-341,606	373,404	-0,020	0,029
-340,591	91,393	-0,048	0,039
-339,577	345,885	-0,045	-0,065
-338,562	-200,000	-0,035	0,116
-337,548	-28,756	0,161	0,067
-336,533	36,723	0,058	0,037
-335,518	-188,156	0,131	-0,001
-334,504	-143,973	-0,073	0,005
-333,489	800,000	-0,025	0,062
-332,475	-141,534	-0,062	0,005
-331,460	241,070	-0,094	0,115
-330,445	800,000	-0,019	-0,052
-329,431	174,888	0,102	0,108
-328,416	702,211	0,036	0,069
-327,402	-126,368	0,089	-0,010
-326,387	232,809	-0,033	-0,040
-325,372	19,183	0,039	-0,023
-324,358	800,000	-0,025	0,070
-323,343	133,067	-0,110	0,103
-322,329	-200,000	-0,044	0,142
-321,314	38,444	-0,072	0,047
-320,299	275,193	0,034	0,045
-319,285	-43,751	-0,104	0,038
-318,270	-200,000	-0,020	-0,124
-317,256	67,011	-0,059	0,044
-316,241	-200,000	0,001	0,083
-315,226	-132,145	0,034	-0,003
-314,212	-200,000	0,027	0,093
-313,197	91,889	-0,047	-0,039
-312,183	800,000	-0,019	-0,057
-311,168	162,985	-0,098	0,101
-310,153	-200,000	-0,022	-0,096
-309,139	-200,000	-0,001	-0,071
-308,124	390,152	0,057	0,086
-307,110	101,422	0,114	0,097
-306,095	110,584	0,077	0,068
-305,080	-200,000	-0,011	0,061
-304,066	-151,391	-0,152	0,008
-303,051	-62,549	-0,020	-0,006
-302,037	-22,674	-0,116	-0,051
-301,022	44,674	0,065	0,043
-300,008	568,405	0,048	-0,086
-298,993	800,000	0,043	-0,118
-297,978	-200,000	0,002	0,064
-296,964	133,077	-0,071	-0,067
-295,949	132,801	-0,083	0,078
-294,935	260,660	-0,066	0,083
-293,920	-184,223	-0,019	-0,000
-292,905	20,264	0,080	0,047
-291,891	800,000	0,053	0,109
-290,876	800,000	0,045	-0,105
-289,862	-109,366	-0,124	-0,019
-288,847	800,000	-0,011	-0,025
-287,832	57,816	-0,029	-0,020
-286,818	-36,270	0,159	-0,062
-285,803	-200,000	-0,014	0,090
-284,789	-63,449	0,035	-0,010
-283,774	-200,000	0,005	0,067
-282,759	680,734	0,050	-0,095
-281,745	-200,000	-0,006	0,021
-280,730	-200,000	-0,001	0,005
-279,716	-34,075	0,125	-0,050
-278,701	277,283	-0,100	-0,130
-277,686	-93,304	-0,067	0,013
-276,672	-118,069	0,084	-0,011
-275,657	290,927	-0,094	0,125
-274,643	175,584	0,057	0,061
-273,628	-200,000	-0,023	-0,119
-272,613	-110,183	0,068	-0,010
-271,599	76,960	0,079	0,061
-270,584	-44,824	-0,051	0,019
-269,570	48,658	0,119	0,081
-268,555	-2,841	-0,144	-0,073
-267,540	-200,000	-0,001	-0,071
-266,526	-81,901	-0,123	0,029
-265,511	344,999	-0,098	0,140
-264,497	111,815	-0,052	-0,046
-263,482	800,000	-0,016	-0,043
-262,467	71,189	-0,034	0,026
-261,453	84,430	0,048	0,038
-260,438	436,821	-0,088	-0,140
-259,424	188,135	0,052	-0,056
-258,409	-13,000	0,022	-0,010
-257,395	-200,000	0,030	0,142
-256,380	39,836	-0,050	0,033
-255,365	265,693	-0,081	0,104
-254,351	95,632	0,044	-0,036
-253,336	-38,299	-0,108	-0,041
-252,322	-200,000	-0,031	-0,136
-251,307	-111,162	-0,058	0,009
-250,292	-194,552	-0,039	-0,000
-249,278	-59,489	-0,061	0,019
-248,263	235,310	0,062	0,075
-247,249	209,003	0,056	0,064
-246,234	-200,000	0,029	-0,101
-245,219	1,408	0,055	-0,029
-244,205	-200,000	-0,007	0,107
-243,190	-200,000	-0,026	0,096
-242,176	-124,193	0,035	0,004
-241,161	-200,000	0,000	0,055
-240,146	322,040	0,061	-0,084
-239,132	-154,023	-0,133	-0,006
-238,117	715,973	0,048	0,093
-237,103	29,955	0,153	-0,095
-236,088	81,948	-0,117	-0,092
-235,073	-54,272	0,073	0,024
-234,059	-200,000	0,005	0,101
-233,044	664,399	-0,008	-0,014
-232,030	800,000	-0,029	-0,067
-231,015	424,733	0,033	0,052
-230,000	-200,000	-0,005	-0,018
-228,986	75,384	-0,073	0,056
-227,971	-200,000	-0,035	0,163
-226,957	-75,256	0,185	-0,048
-225,942	130,150	0,024	-0,023
-224,927	-46,467	-0,043	-0,015
-223,913	73,847	-0,072	-0,055
-222,898	-66,309	0,100	-0,029
-221,884	400,022	-0,027	0,041
-220,869	165,274	0,045	0,047
-219,855	-200,000	0,027	-0,104
-218,840	800,000	0,071	0,164
-217,825	-200,000	-0,007	0,061
-216,811	-200,000	-0,018	0,088
-215,796	800,000	-0,035	0,078
-214,782	115,011	0,033	-0,029
-213,767	-35,398	-0,099	0,039
-212,752	-200,000	-0,011	-0,081
-211,738	562,180	0,011	0,019
-210,723	-200,000	-0,037	0,221
-209,709	122,634	-0,048	0,043
-208,694	58,502	0,016	-0,012
-207,679	-200,000	-0,052	-0,170
-206,665	92,060	-0,049	0,040
-205,650	201,950	0,082	0,092
-204,636	-91,664	0,089	-0,018
-203,621	656,269	0,059	0,111
-202,606	-146,495	-0,047	-0,003
-201,592	225,016	-0,044	0,052
-200,577	-200,000	-0,035	-0,131
-199,563	252,402	-0,060	0,075
-198,548	271,695	-0,049	0,063
-197,533	-6,990	0,154	0,076
-196,519	-165,550	-0,119	-0,004
-195,504	800,000	0,014	-0,041
-194,490	292,061	0,065	0,086
-193,475	558,201	-0,024	-0,043
-192,460	226,757	0,041	0,048
-191,446	741,940	-0,026	0,050
-190,431	-200,000	0,003	0,033
-189,417	-197,669	-0,126	-0,001
-188,402	66,028	-0,114	-0,084
-187,387	23,909	0,016	0,010
-186,373	42,302	-0,045	0,029
-185,358	-200,000	-0,005	-0,094
-184,344	22,909	0,051	0,030
-183,329	-200,000	0,010	-0,073
-182,315	92,482	0,104	0,085
-181,300	81,197	0,100	-0,079
-180,285	340,649	0,081	-0,116
-179,271	800,000	0,085	-0,213
-178,256	-108,835	-0,137	-0,021
-177,242	-147,754	-0,094	0,006
-176,227	-200,000	0,006	0,075
-175,212	-14,794	0,094	-0,043
-174,198	43,665	0,103	0,069
-173,183	210,214	0,012	0,013
-172,169	202,908	0,015	-0,017
-171,154	285,292	-0,089	-0,116
-170,139	-140,382	0,127	0,009
-169,125	78,146	0,068	0,053
-168,110	136,599	0,082	0,078
-167,096	-136,561	-0,098	0,008
-166,081	47,970	-0,052	-0,035
-165,066	800,000	0,072	-0,170
-164,052	800,000	-0,057	0,116
-163,037	-91,831	0,044	0,009
-162,023	400,463	-0,028	0,042
-161,008	129,670	0,116	-0,108
-159,993	54,420	0,101	0,071
-158,979	-200,000	0,024	-0,129
-157,964	-75,238	-0,102	0,026
-156,950	372,809	0,097	0,144
-155,935	800,000	0,047	0,099
-154,920	88,211	0,078	-0,063
-153,906	-12,231	-0,044	0,021
-152,891	-104,001	-0,106	0,018
-151,877	-34,846	-0,186	-0,073
-150,862	-16,411	-0,027	-0,012
-149,847	800,000	-0,080	0,170
-148,833	-22,776	0,069	0,030
-147,818	212,082	0,028	-0,032
-146,804	442,411	-0,028	-0,045
-145,789	-101,454	0,145	-0,025
-144,775	-200,000	0,009	0,061
-143,760	-160,443	-0,105	-0,004
-142,745	-200,000	0,003	-0,089
-141,731	-76,952	-0,050	0,013
-140,716	430,297	0,037	0,058
-139,702	800,000	-0,040	0,115
-138,687	-200,000	-0,012	0,113
-137,672	472,641	-0,077	0,125
-136,658	96,669	0,041	-0,034
-135,643	-196,160	-0,134	-0,001
-134,629	92,443	-0,084	0,068
-133,614	72,837	-0,040	0,030
-132,599	52,104	-0,070	0,048
-131,585	-138,677	-0,126	0,010
-130,570	800,000	-0,024	0,058
-129,556	80,602	-0,035	-0,027
-128,541	-200,000	0,022	-0,075
-127,526	-68,786	-0,052	0,015
-126,512	-48,307	0,061	-0,021
-125,497	-5,786	0,141	0,070
-124,483	408,488	-0,014	-0,021
-123,468	-8,367	-0,100	-0,048
-122,453	800,000	-0,068	0,168
-121,439	376,630	0,080	-0,118
-120,424	-126,741	-0,168	0,018
-119,410	-200,000	-0,081	0,000
-118,395	-103,901	0,091	-0,015
-117,380	79,583	0,086	-0,067
-116,366	87,841	-0,025	0,020
-115,351	-200,000	0,006	0,067
-114,337	-200,000	-0,018	-0,134
-113,322	-200,000	-0,006	-0,062
-112,307	800,000	-0,046	-0,119
-111,293	46,806	0,120	0,081
-110,278	172,562	-0,079	-0,082
-109,264	800,000	0,026	-0,057
-108,249	114,834	0,037	-0,033
-107,234	-200,000	-0,011	-0,080
-106,220	247,005	-0,081	-0,099
-105,205	800,000	-0,051	-0,112
-104,191	21,515	0,198	-0,116
-103,176	-92,562	-0,121	0,024
-102,162	128,690	0,061	-0,056
-101,147	48,439	-0,038	-0,025
-100,132	-200,000	-0,006	-0,025
-99,118	-200,000	0,003	0,150
-98,103	108,683	0,046	-0,040
-97,089	800,000	0,013	-0,029
-96,074	-20,850	0,037	0,016
-95,059	411,050	0,034	-0,053
-94,045	-200,000	-0,014	-0,099
-93,030	-161,049	-0,032	-0,001
-92,016	432,933	-0,030	-0,047
-91,001	-200,000	0,003	-0,090
-89,986	-200,000	-0,000	0,076
-88,972	-59,897	0,057	0,018
-87,957	-82,637	-0,026	0,006
-86,943	-200,000	-0,011	-0,143
-85,928	-200,000	-0,017	-0,135
-84,913	-200,000	0,042	0,188
-83,899	-200,000	0,001	-0,076
-82,884	-200,000	0,005	-0,107
-81,870	132,237	-0,111	0,103
-80,855	-200,000	0,017	-0,078
-79,840	-68,664	0,117	-0,033
-78,826	-141,170	-0,122	-0,009
-77,811	155,617	0,045	-0,045
-76,797	-52,947	-0,071	-0,024
-75,782	800,000	0,012	-0,029
-74,767	-200,000	-0,020	-0,086
-73,753	-200,000	0,025	0,162
-72,738	31,547	-0,048	0,030
-71,724	-200,000	0,004	0,108
-70,709	-153,548	-0,110	-0,005
-69,694	62,404	-0,017	-0,012
-68,680	8,928	-0,087	0,048
-67,665	-200,000	0,007	-0,064
-66,651	17,885	-0,100	0,057
-65,636	35,477	-0,059	0,037
-64,622	381,063	0,099	0,147
-63,607	86,745	0,043	-0,034
-62,592	-158,649	0,029	0,001
-61,578	-100,824	0,091	-0,016
-60,563	13,186	0,114	0,063
-59,549	75,249	0,067	0,051
-58,534	-35,292	-1,723	-0,673
-57,519	800,000	-0,611	-1,376
-56,505	-200,000	-1,171	-4,773
-55,490	-200,000	0,679	0,000
-54,476	800,000	5,346	12,272
-53,461	-200,000	15,903	278,530
-52,446	-200,000	702,754	2249,056
-51,432	565,628	1618,772	2845,217
-50,417	122,129	1622,806	1462,791
-49,403	82,830	1284,151	1006,854
-48,388	36,976	1028,174	655,169
-47,373	21,523	990,329	579,949
-46,359	20,470	978,950	569,792
-45,344	18,825	974,666	561,867
-44,330	18,814	973,544	561,159
-43,315	18,593	971,781	559,399
-42,300	18,539	970,732	558,596
-41,286	18,580	969,636	558,075
-40,271	18,516	968,818	557,375
-39,257	18,524	967,991	556,903
-38,242	18,523	967,273	556,463
-37,227	18,563	966,321	556,025
-36,213	18,491	965,513	555,302
-35,198	18,464	964,620	554,679
-34,184	18,559	963,883	554,542
-33,169	18,532	962,918	553,878
-32,154	18,533	962,134	553,407
-31,140	18,559	961,124	552,888
-30,125	18,519	960,499	552,379
-29,111	18,528	959,785	551,973
-28,096	18,549	959,284	551,732
-27,082	18,563	958,392	551,244
-26,067	18,514	957,593	550,602
-25,052	18,501	956,893	550,136
-24,038	18,562	956,049	549,827
-23,023	18,507	955,462	549,289
-22,009	18,526	954,664	548,870
-20,994	18,505	954,130	548,475
-19,979	18,540	953,502	548,203
-18,965	18,510	952,970	547,781
-17,950	18,494	952,352	547,350
-16,936	18,445	951,701	546,797
-15,921	18,458	950,994	546,411
-14,906	18,412	950,258	545,821
-13,892	18,379	949,526	545,273
-12,877	18,374	948,944	544,901
-11,863	18,376	948,475	544,615
-10,848	18,414	947,661	544,249
-9,833	18,484	947,359	544,277
-8,819	18,462	946,515	543,701
-7,804	18,442	946,077	543,363
-6,790	18,393	945,498	542,854
-5,775	18,420	944,906	542,578
-4,760	18,417	944,303	542,201
-3,746	18,362	943,652	541,631
-2,731	18,319	942,837	541,005
-1,717	18,244	942,181	540,366
-0,702	18,211	941,640	539,931
0,313	18,006	940,933	539,691
1,327	21,183	939,093	548,647
2,342	30,296	796,611	489,679
3,356	27,269	449,667	271,843
4,371	-2,629	295,546	148,682
5,386	-6,758	276,976	135,398
6,400	-7,862	271,058	131,465
7,415	-8,429	268,815	129,841
8,429	-8,477	267,566	129,182
9,444	-8,523	266,661	128,692
10,459	-8,308	266,001	128,558
11,473	-8,421	265,397	128,152
12,488	-8,414	264,842	127,878
13,502	-8,625	264,305	127,416
14,517	-8,646	263,882	127,181
15,531	-8,365	263,541	127,261
16,546	-8,448	263,105	126,964
17,561	-8,265	262,690	126,918
18,575	-8,287	262,396	126,744
19,590	-8,434	262,127	126,471
20,604	-8,303	261,858	126,448
21,619	-8,626	261,520	125,982
22,634	-8,279	261,033	126,048
23,648	-8,553	260,975	125,763
24,663	-8,414	260,621	125,706
25,677	-8,348	260,314	125,606
26,692	-8,386	260,099	125,457
27,707	-8,447	259,881	125,286
28,721	-8,427	259,519	125,118
29,736	-8,372	259,175	124,990
30,750	-8,559	259,035	124,745
31,765	-8,406	258,814	124,764
32,780	-8,492	258,564	124,555
33,794	-8,448	258,374	124,492
34,809	-8,522	258,013	124,241
35,823	-8,463	257,654	124,110
36,838	-8,600	257,616	123,959
37,853	-8,710	257,414	123,754
38,867	-8,606	257,180	123,722
39,882	-8,586	256,988	123,636
40,896	-8,635	256,680	123,433
41,911	-8,416	256,391	123,476
42,926	-8,654	256,214	123,171
43,940	-8,460	255,881	123,169
44,955	-8,566	255,724	122,991
45,969	-8,682	255,555	122,797
46,984	-8,867	255,312	122,507
47,999	-9,090	255,054	122,177
49,013	-9,291	254,758	121,849
50,028	-9,311	254,519	121,707
51,042	-9,444	254,158	121,407
52,057	-9,665	254,096	121,174
53,071	-9,410	253,843	121,264
54,086	-9,221	253,531	121,269
55,101	-9,121	253,492	121,326
56,115	-8,978	253,399	121,395
57,130	-8,441	253,200	121,755
58,144	-8,385	253,042	121,717
59,159	-8,319	252,974	121,730
60,174	-8,127	252,672	121,740
61,188	-8,389	252,403	121,372
62,203	-8,482	252,276	121,221
63,217	-8,342	252,082	121,238
64,232	-8,483	252,018	121,075
65,247	-8,578	251,590	120,776
66,261	-8,247	251,306	120,914
67,276	-8,691	251,123	120,433
68,290	-8,942	250,945	120,122
69,305	-9,067	250,544	119,811
70,320	-9,032	250,404	119,764
71,334	-8,620	250,201	120,009
72,349	-8,453	250,156	120,120
73,363	-8,400	249,961	120,061
74,378	-8,301	249,719	120,018
75,393	-8,340	249,612	119,923
76,407	-8,381	249,327	119,740
77,422	-8,447	249,149	119,588
78,436	-8,443	248,962	119,491
79,451	-8,334	248,728	119,461
80,466	-8,558	248,453	119,127
81,480	-8,610	248,286	118,993
82,495	-8,732	248,189	118,832
83,509	-8,547	247,873	118,827
84,524	-8,616	247,701	118,676
85,539	-9,029	247,514	118,226
86,553	-8,831	247,271	118,266
87,568	-8,985	247,141	118,064
88,582	-9,017	247,015	117,966
89,597	-8,729	246,648	118,024
90,611	-8,613	246,519	118,049
91,626	-8,624	246,421	117,982
92,641	-8,609	246,292	117,922
93,655	-8,511	246,001	117,855
94,670	-8,637	245,798	117,641
95,684	-8,506	245,681	117,684
96,699	-8,491	245,482	117,591
97,714	-8,716	245,281	117,296
98,728	-8,877	245,013	117,023
99,743	-8,918	244,811	116,882
100,757	-8,988	244,524	116,676
101,772	-9,020	244,307	116,535
102,787	-8,768	244,242	116,704
103,801	-8,739	244,155	116,676
104,816	-8,653	243,982	116,654
105,830	-8,617	244,029	116,697
106,845	-8,447	243,711	116,675
107,860	-8,727	243,518	116,340
108,874	-8,753	243,169	116,141
109,889	-8,749	242,908	116,010
110,903	-8,749	242,746	115,922
111,918	-8,695	242,589	115,881
112,933	-8,833	242,508	115,718
113,947	-8,570	242,276	115,814
114,962	-8,517	242,156	115,791
115,976	-8,583	241,973	115,638
116,991	-8,591	241,872	115,573
118,006	-8,547	241,657	115,496
119,020	-8,563	241,557	115,425
120,035	-8,335	241,337	115,497
121,049	-8,442	241,246	115,355
122,064	-8,764	241,139	115,030
123,079	-8,485	240,907	115,137
124,093	-8,645	240,557	114,829
125,108	-8,755	240,357	114,633
126,122	-9,031	240,154	114,300
127,137	-9,274	240,009	114,023
128,151	-9,023	239,731	114,085
129,166	-8,834	239,612	114,172
130,181	-9,002	239,473	113,959
131,195	-8,902	239,186	113,894
132,210	-8,772	239,176	113,984
133,224	-8,573	238,967	114,037
134,239	-8,546	238,940	114,036
135,254	-8,587	238,739	113,896
136,268	-8,617	238,387	113,694
137,283	-8,930	238,164	113,324
138,297	-9,090	238,008	113,110
139,312	-9,292	237,831	112,852
140,327	-8,985	237,928	113,136
141,341	-8,305	237,720	113,577
142,356	-8,209	237,571	113,573
143,370	-8,288	237,378	113,407
144,385	-8,229	237,299	113,407
145,400	-8,307	237,147	113,261
146,414	-8,279	237,063	113,234
147,429	-8,306	236,691	113,025
148,443	-8,407	236,632	112,905
149,458	-8,466	236,346	112,711
150,473	-8,288	236,170	112,760
151,487	-8,069	235,823	112,760
152,502	-8,340	235,749	112,497
153,516	-8,190	235,742	112,604
154,531	-8,024	235,430	112,578
155,546	-8,295	235,375	112,324
156,560	-8,438	235,152	112,094
157,575	-8,331	234,972	112,084
158,589	-8,390	234,650	111,873
159,604	-8,050	234,634	112,126
160,619	-8,186	234,549	111,968
161,633	-8,185	234,444	111,908
162,648	-8,259	234,340	111,789
163,662	-8,331	234,022	111,570
164,677	-8,569	233,891	111,309
165,692	-8,302	233,756	111,446
166,706	-8,131	233,707	111,549
167,721	-8,164	233,555	111,440
168,735	-8,127	233,344	111,359
169,750	-8,101	233,208	111,305
170,764	-8,295	232,940	111,013
171,779	-8,194	232,894	111,062
172,794	-8,032	232,687	111,081
173,808	-8,366	232,469	110,704
174,823	-8,951	232,264	110,136
175,837	-8,986	231,987	109,967
176,852	-8,537	231,970	110,302
177,867	-8,231	231,769	110,437
178,881	-8,445	231,731	110,241
179,896	-8,243	231,658	110,355
180,910	-8,264	231,494	110,251
181,925	-8,134	231,241	110,222
182,940	-8,358	231,209	110,021
183,954	-8,099	231,055	110,141
184,969	-8,244	230,912	109,950
185,983	-8,081	230,760	109,995
186,998	-7,844	230,484	110,038
188,013	-8,016	230,424	109,866
189,027	-8,138	230,326	109,714
190,042	-8,109	230,141	109,639
191,056	-8,049	229,870	109,547
192,071	-8,033	229,845	109,537
193,086	-8,229	229,506	109,214
194,100	-8,127	229,417	109,241
195,115	-8,511	229,135	108,799
196,129	-9,131	228,879	108,188
197,144	-4,372	230,487	112,647
198,159	1,337	231,991	117,837
199,173	3,209	232,494	119,545
200,188	3,444	232,375	119,657
201,202	3,603	232,129	119,644
202,217	3,847	232,280	119,901
203,232	4,034	232,214	120,002
204,246	3,979	231,959	119,817
205,261	4,158	231,808	119,868
206,275	4,399	231,695	119,986
207,290	4,247	231,494	119,753
208,304	4,220	231,425	119,686
209,319	4,051	231,209	119,432
210,334	4,245	230,967	119,447
211,348	3,859	230,841	119,072
212,363	3,601	230,575	118,724
213,377	3,327	230,354	118,388
214,392	3,131	230,265	118,180
215,407	3,259	230,290	118,281
216,421	3,507	229,927	118,276
217,436	3,582	229,618	118,164
218,450	3,359	229,442	117,891
219,465	3,114	229,386	117,664
220,480	3,348	229,210	117,743
221,494	3,292	229,133	117,650
222,509	3,367	229,011	117,634
223,523	3,274	228,901	117,496
224,538	3,166	228,732	117,316
225,553	3,177	228,719	117,307
226,567	3,207	228,499	117,207
227,582	3,504	228,453	117,400
228,596	3,887	228,181	117,543
229,611	3,703	228,012	117,305
230,626	3,249	227,801	116,839
231,640	3,143	227,708	116,700
232,655	3,549	227,581	116,935
233,669	4,073	227,432	117,247
234,684	4,019	227,429	117,194
235,699	3,809	227,118	116,863
236,713	3,492	226,913	116,506
237,728	3,215	226,964	116,311
238,742	3,381	226,707	116,295
239,757	3,340	226,537	116,167
240,772	3,432	226,258	116,083
241,786	3,467	226,148	116,043
242,801	3,535	226,157	116,089
243,815	3,823	226,112	116,273
244,830	4,015	225,802	116,248
245,844	3,580	225,581	115,796
246,859	3,526	225,425	115,665
247,874	3,603	225,399	115,699
248,888	3,675	225,190	115,636
249,903	3,422	225,083	115,380
250,917	3,305	224,960	115,218
251,932	3,271	224,756	115,078
252,947	3,273	224,517	114,947
253,961	3,134	224,459	114,802
254,976	3,472	224,187	114,907
255,990	3,596	224,299	115,047
257,005	3,631	224,050	114,936
258,020	3,621	223,914	114,848
259,034	3,705	223,975	114,932
260,049	3,667	223,680	114,741
261,063	3,596	223,513	114,593
262,078	3,841	223,319	114,666
263,093	3,747	223,382	114,618
264,107	3,767	223,047	114,450
265,122	3,757	222,968	114,392
266,136	3,802	222,897	114,379
267,151	3,822	222,765	114,316
268,166	3,234	222,547	113,757
269,180	3,432	222,175	113,704
270,195	3,133	222,167	113,468
271,209	3,249	222,017	113,467
272,224	3,333	221,948	113,483
273,239	3,308	221,834	113,397
274,253	3,230	221,637	113,229
275,268	3,300	221,292	113,093
276,282	2,944	221,176	112,761
277,297	3,284	220,978	112,901
278,312	3,566	220,919	113,069
279,326	3,370	220,853	112,881
280,341	3,446	220,722	112,859
281,355	3,369	220,709	112,786
282,370	3,170	220,522	112,534
283,384	3,189	220,362	112,456
284,399	3,195	219,969	112,250
285,414	3,071	219,954	112,142
286,428	3,456	219,821	112,346
287,443	3,400	219,824	112,296
288,457	3,411	219,685	112,224
289,472	3,268	219,514	112,021
290,487	3,237	219,152	111,805
291,501	2,821	219,103	111,465
292,516	3,106	218,837	111,528
293,530	3,163	218,790	111,535
294,545	3,016	218,723	111,384
295,560	3,310	218,624	111,538
296,574	3,287	218,537	111,467
297,589	3,344	218,209	111,331
298,603	3,446	218,154	111,368
299,618	3,578	217,926	111,336
300,633	3,559	217,981	111,342
301,647	3,658	217,991	111,408
302,662	3,923	217,680	111,432
303,676	3,557	217,561	111,096
304,691	3,635	217,404	111,062
305,706	3,692	217,307	111,043
306,720	3,552	217,129	110,842
307,735	3,391	216,961	110,630
308,749	3,130	216,740	110,319
309,764	3,401	216,675	110,471
310,779	3,517	216,570	110,491
311,793	3,272	216,489	110,264
312,808	3,188	216,190	110,041
313,822	3,315	216,025	110,039
314,837	3,445	215,950	110,084
315,852	3,319	215,803	109,909
316,866	3,329	215,899	109,956
317,881	3,594	215,724	110,046
318,895	3,740	215,450	110,001
319,910	3,539	215,310	109,777
320,925	3,027	215,071	109,278
321,939	3,055	214,829	109,166
322,954	2,965	214,875	109,115
323,968	3,504	214,662	109,382
324,983	3,459	214,712	109,366
325,997	3,788	214,637	109,553
327,012	3,428	214,407	109,169
328,027	3,780	214,145	109,276
329,041	3,736	214,247	109,287
330,056	3,816	214,060	109,239
331,070	3,512	213,666	108,812
332,085	3,229	213,562	108,549
333,100	3,508	213,432	108,671
334,114	3,538	213,387	108,659
335,129	3,317	213,258	108,427
336,143	3,372	213,022	108,337
337,158	3,363	212,903	108,260
338,173	3,311	212,733	108,127
339,187	3,050	212,738	107,936
340,202	2,927	212,521	107,729
341,216	3,208	212,349	107,831
342,231	3,235	212,219	107,774
343,246	3,083	212,028	107,561
344,260	3,223	212,059	107,665
345,275	3,229	211,893	107,575
346,289	3,269	211,772	107,532
347,304	3,488	211,611	107,595
348,319	3,393	211,511	107,468
349,333	3,352	211,370	107,358
350,348	3,582	211,169	107,407
351,362	3,713	211,060	107,434
352,377	3,558	210,976	107,273
353,392	3,520	210,865	107,181
354,406	3,213	210,801	106,924
355,421	194,619	1343,197	1426,579
356,435	155,392	1481,200	1426,618
