DTS Sentinel unit serial number:	SN410029Multiplexer serial number:	ORYXHardware model number:	OX2-SRSoftware version number:	ORYX F/W v4,00 Oryx Data Collector v3.7.2.0data status	okinstallation	B6 Nyhavnadifferential loss correction	single-endedforward channel	channel 2reverse channel	N/Adate	2023/12/08time	02:05:08forward acquisition time	300,00reverse acquisition time	0,00gamma	499,1914k internal	0,3164k external	0,3164temperature offset calibration	1,0000default loss term (dB/km)	0,3820temperature slope calibration	1,0000multiplexer offset coefficient	1,0000multiplexer slope coefficient	1,0000fibre end	0,00T internal ref (°C)	13,19T ext. ref 1 (°C)	-3,71T ext. ref 2 (°C)	-3,70length (m)	temperature (°C)	Stokes	anti-Stokes-744,400	800,000	0,022	-0,072
-743,385	-156,416	-0,297	-0,013
-742,371	-128,373	0,161	0,017
-741,356	-29,167	-0,194	0,082
-740,342	-123,142	0,131	-0,015
-739,327	-61,214	-0,277	-0,085
-738,312	-28,570	-0,060	0,025
-737,298	-95,926	-0,283	-0,055
-736,283	-200,000	-0,010	0,051
-735,269	-23,193	-0,224	-0,099
-734,254	-85,181	0,262	0,060
-733,239	-102,629	-0,498	-0,087
-732,225	-107,447	0,216	0,034
-731,210	127,200	-0,107	0,100
-730,196	800,000	-0,055	0,113
-729,181	800,000	0,029	0,075
-728,167	474,461	-0,073	0,121
-727,152	216,761	-0,050	0,058
-726,137	-200,000	0,002	0,062
-725,123	431,946	0,011	0,018
-724,108	-82,324	-0,050	-0,012
-723,094	636,635	-0,072	-0,136
-722,079	-77,954	-0,169	0,043
-721,064	-200,000	0,004	-0,111
-720,050	-200,000	0,020	-0,068
-719,035	-14,181	-0,117	0,055
-718,021	529,252	0,086	-0,150
-717,006	-200,000	-0,020	-0,130
-715,991	145,693	-0,129	-0,127
-714,977	579,691	-0,060	-0,108
-713,962	82,273	0,095	0,075
-712,948	193,520	0,004	0,004
-711,933	181,449	-0,061	-0,066
-710,918	-200,000	0,017	-0,070
-709,904	-93,692	-0,114	-0,023
-708,889	-200,000	-0,048	-0,205
-707,875	-200,000	0,017	-0,134
-706,860	-2,098	-0,043	-0,022
-705,845	-200,000	0,011	-0,040
-704,831	-66,645	-0,163	-0,047
-703,816	-200,000	0,008	0,068
-702,802	81,979	0,078	0,062
-701,787	-141,119	-0,269	-0,020
-700,772	-140,919	-0,034	-0,003
-699,758	800,000	0,056	-0,126
-698,743	800,000	0,019	0,054
-697,729	464,663	0,051	0,083
-696,714	-200,000	0,006	0,062
-695,699	41,827	-0,081	-0,054
-694,685	-135,202	-0,126	-0,011
-693,670	-102,272	-0,170	0,030
-692,656	218,304	-0,113	0,133
-691,641	742,467	0,044	-0,087
-690,627	-200,000	0,005	0,113
-689,612	-200,000	-0,006	-0,146
-688,597	602,024	-0,077	-0,141
-687,583	91,769	-0,117	-0,097
-686,568	800,000	-0,049	-0,101
-685,554	411,825	0,059	-0,092
-684,539	-200,000	0,005	0,127
-683,524	625,097	0,021	-0,040
-682,510	719,744	-0,081	0,160
-681,495	56,350	-0,036	0,026
-680,481	458,723	0,073	0,120
-679,466	96,392	-0,059	0,050
-678,451	-125,513	-0,010	0,001
-677,437	518,291	0,026	-0,045
-676,422	-200,000	0,036	0,236
-675,408	800,000	-0,032	0,070
-674,393	395,268	-0,073	0,113
-673,378	800,000	0,046	-0,101
-672,364	800,000	-0,089	-0,226
-671,349	-71,042	0,083	0,023
-670,335	491,696	-0,080	0,134
-669,320	-200,000	0,000	0,033
-668,305	-200,000	-0,018	0,089
-667,291	115,912	-0,053	0,048
-666,276	26,212	0,093	0,057
-665,262	-33,324	-0,109	-0,044
-664,247	102,716	0,034	-0,029
-663,232	511,200	-0,016	0,027
-662,218	533,340	-0,055	-0,095
-661,203	-52,845	-0,073	-0,025
-660,189	800,000	0,035	0,110
-659,174	246,730	-0,081	-0,101
-658,159	-117,023	-0,042	-0,006
-657,145	-19,576	-0,098	-0,044
-656,130	800,000	0,060	0,158
-655,116	-36,306	-0,021	0,008
-654,101	94,441	-0,031	-0,026
-653,086	316,289	0,034	-0,047
-652,072	66,511	0,034	0,025
-651,057	9,890	0,088	-0,049
-650,043	-79,332	-0,094	0,023
-649,028	-200,000	0,000	0,109
-648,014	70,652	0,077	-0,058
-646,999	225,560	-0,056	-0,066
-645,984	-200,000	-0,016	0,066
-644,970	-39,878	0,088	-0,034
-643,955	-200,000	0,020	-0,069
-642,941	-150,205	0,028	-0,002
-641,926	-200,000	-0,009	-0,048
-640,911	-200,000	0,002	-0,012
-639,897	490,733	0,071	0,119
-638,882	-200,000	-0,002	-0,139
-637,868	430,593	-0,062	-0,099
-636,853	60,301	-0,085	-0,062
-635,838	800,000	0,031	-0,075
-634,824	800,000	0,040	-0,113
-633,809	-11,928	0,127	-0,061
-632,795	-130,894	-0,072	-0,007
-631,780	-200,000	-0,018	0,124
-630,765	273,861	0,016	-0,021
-629,751	167,160	-0,070	-0,072
-628,736	-2,923	-0,101	0,052
-627,722	522,399	0,067	-0,117
-626,707	-200,000	-0,021	-0,163
-625,692	-81,910	0,027	-0,006
-624,678	457,523	-0,045	0,074
-623,663	40,940	0,082	0,054
-622,649	89,301	0,002	-0,001
-621,634	800,000	-0,044	0,107
-620,619	-15,760	-0,097	-0,045
-619,605	800,000	0,006	0,013
-618,590	19,956	0,052	0,031
-617,576	800,000	0,049	-0,111
-616,561	-60,935	-0,113	-0,035
-615,546	-26,219	0,149	-0,064
-614,532	13,719	-0,106	-0,060
-613,517	-200,000	0,016	0,075
-612,503	800,000	-0,064	0,138
-611,488	-31,145	0,170	-0,070
-610,474	-32,407	0,099	0,040
-609,459	-164,634	0,076	0,002
-608,444	800,000	0,032	-0,100
-607,430	800,000	0,027	-0,058
-606,415	-200,000	-0,005	-0,099
-605,401	129,903	0,087	0,081
-604,386	75,146	-0,029	0,022
-603,371	-143,311	-0,100	-0,007
-602,357	643,138	-0,075	-0,140
-601,342	-200,000	-0,002	-0,032
-600,328	-200,000	-0,001	0,136
-599,313	1,183	-0,134	-0,070
-598,298	-139,019	0,186	0,015
-597,284	-200,000	-0,032	0,109
-596,269	-200,000	-0,001	0,149
-595,255	-200,000	-0,091	0,000
-594,240	-147,339	0,070	-0,004
-593,225	-200,000	0,012	-0,073
-592,211	307,037	-0,043	-0,058
-591,196	-200,000	0,000	0,050
-590,182	-200,000	0,019	-0,068
-589,167	12,711	0,143	0,081
-588,152	-125,222	0,082	-0,009
-587,138	231,435	-0,062	-0,074
-586,123	-182,154	-0,124	-0,002
-585,109	800,000	-0,080	-0,172
-584,094	127,949	0,036	0,034
-583,079	-35,811	0,098	0,038
-582,065	800,000	-0,034	-0,071
-581,050	-80,086	0,088	-0,022
-580,036	490,436	-0,050	-0,084
-579,021	130,530	-0,039	-0,037
-578,006	-200,000	-0,010	-0,224
-576,992	99,077	-0,101	-0,085
-575,977	-170,186	-0,053	-0,001
-574,963	-10,464	-0,112	0,054
-573,948	-200,000	0,029	0,144
-572,934	384,910	-0,033	0,049
-571,919	-137,915	0,102	0,008
-570,904	55,586	-0,063	0,045
-569,890	-200,000	-0,014	-0,062
-568,875	569,086	0,031	-0,055
-567,861	2,975	0,167	0,089
-566,846	-13,205	-0,154	-0,073
-565,831	-200,000	0,020	0,077
-564,817	-128,743	-0,032	-0,003
-563,802	800,000	0,022	-0,055
-562,788	-144,298	-0,023	-0,002
-561,773	241,429	0,059	-0,072
-560,758	233,191	-0,137	0,165
-559,744	23,871	0,092	0,055
-558,729	800,000	-0,030	-0,093
-557,715	-200,000	-0,002	0,076
-556,700	800,000	-0,032	-0,087
-555,685	104,292	-0,055	-0,047
-554,671	800,000	0,041	-0,086
-553,656	247,249	-0,059	-0,073
-552,642	-200,000	0,020	0,122
-551,627	32,477	-0,082	0,052
-550,612	-95,293	0,086	0,017
-549,598	239,823	-0,032	0,039
-548,583	800,000	-0,019	0,044
-547,569	367,868	0,115	-0,171
-546,554	-105,338	0,054	0,009
-545,539	290,413	0,066	-0,088
-544,525	-200,000	-0,021	-0,117
-543,510	-124,675	0,059	-0,007
-542,496	-129,636	-0,098	0,010
-541,481	59,842	-0,052	0,037
-540,466	-9,313	0,067	0,032
-539,452	29,569	-0,030	0,018
-538,437	33,544	-0,007	-0,004
-537,423	-100,536	0,038	0,007
-536,408	8,396	0,056	-0,031
-535,393	-200,000	0,004	-0,076
-534,379	-168,153	-0,143	0,004
-533,364	-14,000	0,043	-0,020
-532,350	733,870	0,040	-0,078
-531,335	308,314	0,041	-0,056
-530,321	100,188	0,088	0,074
-529,306	-200,000	-0,017	0,086
-528,291	-200,000	-0,001	-0,035
-527,277	-187,708	-0,042	0,000
-526,262	-107,963	-0,081	0,013
-525,248	26,151	0,064	-0,039
-524,233	218,482	-0,086	0,100
-523,218	-190,362	0,102	-0,001
-522,204	-200,000	-0,006	0,115
-521,189	-135,274	0,137	0,012
-520,175	112,274	-0,127	-0,112
-519,160	-200,000	-0,001	-0,028
-518,145	-200,000	-0,009	-0,095
-517,131	172,412	0,085	0,089
-516,116	800,000	-0,023	0,062
-515,102	-200,000	-0,009	-0,037
-514,087	-200,000	0,007	0,024
-513,072	58,755	0,065	-0,046
-512,058	73,760	0,099	-0,076
-511,043	78,530	-0,086	-0,067
-510,029	-99,091	0,062	0,011
-509,014	-52,211	-0,016	-0,005
-507,999	-133,671	0,101	0,009
-506,985	-20,386	0,020	-0,009
-505,970	21,302	0,068	0,040
-504,956	-200,000	0,000	-0,001
-503,941	-74,311	-0,043	0,011
-502,926	627,472	0,061	-0,112
-501,912	-200,000	-0,021	0,074
-500,897	-200,000	0,007	0,075
-499,883	-200,000	-0,038	-0,171
-498,868	287,688	-0,028	-0,037
-497,853	37,621	0,052	0,034
-496,839	-154,469	-0,218	0,010
-495,824	-128,237	0,085	0,009
-494,810	41,493	-0,115	-0,075
-493,795	141,111	-0,113	-0,109
-492,781	324,354	-0,044	-0,062
-491,766	-181,309	-0,140	-0,002
-490,751	-104,015	-0,063	0,011
-489,737	-200,000	0,009	-0,106
-488,722	-200,000	-0,004	0,107
-487,708	13,551	0,024	-0,014
-486,693	-117,921	-0,122	0,016
-485,678	202,872	-0,031	-0,035
-484,664	-105,125	-0,097	0,016
-483,649	-35,764	-0,114	-0,045
-482,635	-200,000	0,017	0,099
-481,620	-200,000	0,014	-0,140
-480,605	800,000	-0,048	0,102
-479,591	35,037	-0,099	0,063
-478,576	447,732	-0,044	0,071
-477,562	800,000	-0,024	-0,060
-476,547	800,000	-0,053	-0,121
-475,532	344,330	-0,102	-0,145
-474,518	-49,635	-0,110	0,038
-473,503	274,130	0,061	0,079
-472,489	292,698	0,110	-0,146
-471,474	27,851	-0,040	-0,024
-470,459	102,326	-0,123	0,104
-469,445	-39,526	-0,095	0,036
-468,430	336,502	-0,079	0,112
-467,416	-116,047	0,157	0,021
-466,401	-200,000	0,010	0,127
-465,386	-102,859	0,043	-0,007
-464,372	-31,027	-0,112	0,046
-463,357	71,668	0,073	-0,055
-462,343	-48,041	0,024	0,008
-461,328	-155,221	0,086	-0,004
-460,313	-200,000	-0,011	0,156
-459,299	434,157	0,064	0,102
-458,284	335,215	-0,060	0,085
-457,270	800,000	0,052	0,124
-456,255	177,039	0,056	-0,060
-455,241	490,240	0,034	-0,056
-454,226	-200,000	-0,001	0,010
-453,211	-163,482	-0,007	-0,000
-452,197	-145,686	0,183	-0,012
-451,182	800,000	0,086	0,218
-450,168	1,831	-0,060	0,032
-449,153	-43,065	0,070	0,026
-448,138	-33,566	0,042	-0,017
-447,124	-5,897	-0,058	0,029
-446,109	426,683	0,089	0,140
-445,095	-200,000	0,014	0,096
-444,080	4,499	0,072	0,038
-443,065	-2,994	0,031	-0,015
-442,051	800,000	0,042	-0,124
-441,036	156,049	-0,042	-0,042
-440,022	-107,567	-0,041	-0,006
-439,007	76,583	-0,113	0,087
-437,992	66,716	0,026	0,019
-436,978	-200,000	0,001	0,054
-435,963	121,146	-0,013	0,012
-434,949	119,995	-0,146	-0,131
-433,934	290,851	0,022	0,030
-432,919	-23,501	-0,093	-0,040
-431,905	86,797	-0,028	-0,022
-430,890	22,080	0,121	-0,072
-429,876	-60,624	0,238	0,073
-428,861	800,000	-0,029	-0,089
-427,846	-54,073	0,054	-0,018
-426,832	219,699	-0,010	0,011
-425,817	-174,132	0,019	0,000
-424,803	-153,600	-0,046	0,002
-423,788	-55,205	0,214	0,069
-422,773	684,246	0,070	0,134
-421,759	800,000	0,048	-0,100
-420,744	-200,000	-0,050	-0,180
-419,730	200,574	-0,030	-0,033
-418,715	-200,000	0,009	-0,079
-417,701	695,847	-0,026	0,049
-416,686	701,392	0,021	-0,039
-415,671	-200,000	-0,012	0,046
-414,657	-174,138	-0,069	-0,001
-413,642	379,165	0,038	-0,056
-412,628	-74,889	-0,154	-0,040
-411,613	3,390	-0,138	-0,073
-410,598	-200,000	0,005	-0,053
-409,584	101,020	-0,098	0,083
-408,569	293,501	-0,040	0,054
-407,555	-133,962	0,048	-0,004
-406,540	-29,410	0,019	0,008
-405,525	-143,959	-0,076	-0,005
-404,511	298,225	-0,060	-0,080
-403,496	-200,000	-0,034	-0,149
-402,482	120,527	0,132	-0,119
-401,467	800,000	0,023	0,054
-400,452	800,000	-0,034	-0,076
-399,438	-121,202	0,081	-0,010
-398,423	-200,000	-0,003	0,061
-397,409	130,133	-0,044	-0,041
-396,394	45,135	0,049	-0,033
-395,379	-200,000	-0,024	0,097
-394,365	114,621	0,083	0,074
-393,350	719,849	0,077	-0,149
-392,336	-200,000	0,004	0,107
-391,321	-7,065	-0,086	0,042
-390,306	49,927	-0,185	0,126
-389,292	-200,000	-0,007	-0,037
-388,277	800,000	-0,018	0,053
-387,263	-37,243	0,022	-0,009
-386,248	100,022	0,037	-0,031
-385,233	-80,502	-0,095	0,023
-384,219	-42,907	-0,100	0,036
-383,204	800,000	0,006	-0,012
-382,190	-76,609	-0,133	-0,033
-381,175	131,272	0,096	0,090
-380,160	112,744	0,057	-0,050
-379,146	-40,259	-0,092	-0,034
-378,131	-111,771	0,179	0,026
-377,117	-200,000	-0,013	0,061
-376,102	800,000	-0,018	0,055
-375,088	59,379	0,070	-0,050
-374,073	707,653	-0,011	-0,021
-373,058	20,889	0,152	0,089
-372,044	-200,000	-0,016	0,082
-371,029	800,000	0,029	0,083
-370,015	-104,370	-0,052	0,009
-369,000	313,857	-0,071	-0,097
-367,985	800,000	0,051	-0,122
-366,971	800,000	0,039	0,081
-365,956	800,000	0,061	0,126
-364,942	504,185	-0,043	-0,073
-363,927	-200,000	-0,046	0,000
-362,912	132,376	-0,053	0,050
-361,898	58,849	-0,111	0,079
-360,883	68,787	-0,093	-0,069
-359,869	0,469	-0,062	-0,032
-358,854	1,420	-0,046	0,024
-357,839	7,965	0,114	0,062
-356,825	-11,533	0,074	0,035
-355,810	-28,319	-0,050	0,021
-354,796	-89,538	0,090	0,019
-353,781	221,689	-0,109	-0,127
-352,766	285,518	-0,078	0,102
-351,752	-200,000	0,004	0,132
-350,737	-200,000	0,020	0,089
-349,723	-120,469	0,143	0,017
-348,708	-36,764	0,096	-0,037
-347,693	28,276	0,041	-0,025
-346,679	-200,000	0,016	0,067
-345,664	-120,199	-0,073	0,009
-344,650	-130,652	-0,030	0,003
-343,635	-96,312	0,176	-0,033
-342,620	-57,609	-0,079	0,025
-341,606	310,747	-0,102	-0,139
-340,591	339,362	-0,045	-0,063
-339,577	-200,000	0,017	-0,123
-338,562	800,000	-0,042	-0,117
-337,548	-43,660	0,028	0,010
-336,533	-91,913	-0,058	0,012
-335,518	800,000	-0,043	0,104
-334,504	-1,735	0,090	-0,046
-333,489	575,630	-0,019	0,033
-332,475	-25,417	-0,051	0,022
-331,460	-200,000	0,008	0,062
-330,445	-60,181	-0,105	-0,032
-329,431	203,466	0,042	0,047
-328,416	-53,504	0,099	-0,033
-327,402	680,457	0,017	0,031
-326,387	-39,342	0,096	-0,036
-325,372	168,612	-0,076	0,079
-324,358	-39,999	-0,039	0,015
-323,343	196,243	-0,090	0,099
-322,329	-200,000	0,021	-0,109
-321,314	-106,967	0,127	-0,020
-320,299	-12,730	0,045	0,021
-319,285	-103,693	0,054	0,009
-318,270	56,890	-0,094	0,066
-317,256	800,000	0,080	-0,219
-316,241	800,000	0,050	-0,134
-315,226	-148,061	-0,068	-0,004
-314,212	476,973	0,033	0,054
-313,197	38,700	-0,069	0,044
-312,183	314,530	-0,107	-0,146
-311,168	-58,464	-0,100	0,031
-310,153	-145,011	-0,149	0,010
-309,139	-200,000	0,007	-0,032
-308,124	168,552	-0,050	-0,051
-307,110	-181,868	0,130	-0,002
-306,095	-200,000	0,004	0,232
-305,080	800,000	0,025	-0,078
-304,066	-117,176	-0,212	-0,028
-303,051	-78,848	0,026	-0,006
-302,037	-194,732	0,033	0,000
-301,022	-200,000	-0,003	-0,054
-300,008	-40,709	0,098	0,036
-298,993	576,719	0,053	0,094
-297,978	382,301	0,063	0,094
-296,964	71,309	0,058	-0,043
-295,949	-36,050	-0,136	-0,053
-294,935	800,000	0,035	0,106
-293,920	106,738	0,017	-0,014
-292,905	-43,145	0,070	0,026
-291,891	-200,000	-0,028	0,100
-290,876	-200,000	0,012	0,125
-289,862	-200,000	0,021	-0,076
-288,847	-51,695	-0,077	0,026
-287,832	-65,856	0,133	-0,038
-286,818	-200,000	0,012	-0,167
-285,803	-200,000	-0,003	-0,115
-284,789	264,867	-0,042	-0,053
-283,774	156,445	0,046	-0,046
-282,759	-2,910	-0,083	0,042
-281,745	-200,000	-0,030	0,125
-280,730	389,313	0,015	0,023
-279,716	117,617	-0,098	-0,087
-278,701	-71,161	0,077	-0,021
-277,686	272,866	0,099	0,127
-276,672	-200,000	0,015	0,052
-275,657	-200,000	-0,019	0,079
-274,643	-200,000	-0,012	-0,080
-273,628	-134,337	0,070	-0,006
-272,613	-30,071	-0,012	-0,005
-271,599	17,426	0,100	0,057
-270,584	91,697	0,070	0,056
-269,570	127,410	0,141	0,129
-268,555	-105,358	-0,014	0,002
-267,540	800,000	-0,045	0,133
-266,526	76,674	0,095	-0,072
-265,511	-37,760	-0,056	0,021
-264,497	-149,986	0,087	0,005
-263,482	-200,000	-0,001	-0,027
-262,467	165,671	-0,102	0,105
-261,453	-63,320	0,115	0,034
-260,438	142,797	-0,038	0,037
-259,424	82,478	0,034	0,026
-258,409	231,434	-0,034	0,041
-257,395	-64,481	0,159	0,046
-256,380	800,000	0,071	0,142
-255,365	-200,000	-0,008	0,054
-254,351	800,000	0,040	0,082
-253,336	-200,000	-0,026	-0,109
-252,322	-17,674	0,064	0,029
-251,307	-133,136	-0,059	0,005
-250,292	568,411	0,045	0,080
-249,278	110,412	0,095	0,082
-248,263	693,452	-0,074	0,141
-247,249	-119,511	-0,105	0,013
-246,234	569,252	0,048	-0,085
-245,219	123,178	-0,088	0,080
-244,205	254,450	-0,058	0,072
-243,190	-98,368	0,034	-0,006
-242,176	800,000	0,024	-0,060
-241,161	-135,227	0,118	0,010
-240,146	10,594	-0,060	-0,033
-239,132	385,860	-0,055	-0,082
-238,117	800,000	-0,030	0,083
-237,103	566,864	-0,084	-0,148
-236,088	-91,131	0,076	-0,016
-235,073	67,209	0,154	0,113
-234,059	49,360	-0,114	-0,077
-233,044	-185,704	-0,034	-0,000
-232,030	-200,000	-0,028	-0,162
-231,015	800,000	-0,016	-0,046
-230,000	81,445	-0,060	-0,047
-228,986	483,424	-0,040	-0,066
-227,971	58,503	-0,082	-0,058
-226,957	-85,753	-0,055	0,012
-225,942	-74,161	-0,041	-0,011
-224,927	-200,000	0,003	-0,155
-223,913	715,791	-0,072	-0,139
-222,898	159,379	-0,083	0,083
-221,884	323,136	0,070	-0,096
-220,869	294,795	-0,041	0,054
-219,855	242,990	0,091	0,111
-218,840	-142,679	-0,144	0,010
-217,825	154,376	-0,040	-0,040
-216,811	-157,729	-0,109	0,005
-215,796	-106,128	-0,276	0,044
-214,782	-69,289	-0,099	-0,027
-213,767	800,000	0,033	0,070
-212,752	57,620	0,166	0,117
-211,738	-86,232	-0,092	0,020
-210,723	428,550	-0,022	0,035
-209,709	111,976	0,022	-0,019
-208,694	-200,000	-0,001	-0,144
-207,679	800,000	0,037	-0,102
-206,665	57,169	-0,075	0,053
-205,650	800,000	0,044	-0,111
-204,636	502,009	0,071	-0,118
-203,621	-200,000	-0,001	0,054
-202,606	-200,000	-0,006	-0,030
-201,592	251,959	0,038	0,046
-200,577	-27,520	0,044	0,018
-199,563	-0,616	0,066	-0,034
-198,548	800,000	0,046	0,139
-197,533	-109,070	0,136	-0,021
-196,519	-1,336	0,066	0,033
-195,504	-142,620	-0,110	0,008
-194,490	123,856	-0,036	-0,032
-193,475	-0,189	-0,100	0,051
-192,460	215,540	0,037	-0,043
-191,446	-200,000	-0,000	0,170
-190,431	42,188	0,047	0,031
-189,417	-151,808	0,160	-0,008
-188,402	336,994	-0,084	-0,117
-187,387	552,466	-0,013	-0,023
-186,373	444,380	0,034	-0,054
-185,358	-71,442	0,106	0,028
-184,344	-200,000	-0,006	0,038
-183,329	800,000	0,030	-0,067
-182,315	-105,865	0,116	-0,019
-181,300	800,000	0,024	0,051
-180,285	78,484	0,091	-0,070
-179,271	-111,255	0,065	-0,010
-178,256	800,000	0,026	-0,067
-177,242	-137,850	0,042	-0,003
-176,227	-200,000	0,000	0,015
-175,212	127,808	0,014	0,013
-174,198	133,266	-0,043	-0,040
-173,183	123,472	0,007	0,006
-172,169	231,250	0,044	-0,052
-171,154	198,109	-0,022	0,024
-170,139	800,000	-0,084	-0,172
-169,125	2,437	0,064	0,033
-168,110	800,000	0,052	0,135
-167,096	429,533	0,072	0,113
-166,081	344,730	-0,026	0,037
-165,066	-200,000	-0,018	0,160
-164,052	-71,162	0,029	0,008
-163,037	800,000	-0,036	-0,093
-162,023	3,087	0,115	0,060
-161,008	-200,000	-0,023	0,082
-159,993	-104,547	-0,086	-0,014
-158,979	-116,636	0,085	-0,011
-157,964	800,000	-0,041	0,099
-156,950	-106,787	0,058	-0,009
-155,935	478,890	0,023	0,038
-154,920	62,132	-0,063	0,045
-153,906	800,000	-0,026	0,074
-152,891	319,431	-0,078	0,106
-151,877	236,304	-0,118	0,140
-150,862	-169,995	-0,095	-0,002
-149,847	800,000	0,023	-0,068
-148,833	-200,000	-0,011	0,111
-147,818	583,499	0,106	0,189
-146,804	-163,016	-0,219	-0,007
-145,789	-148,114	-0,068	0,004
-144,775	566,481	-0,061	-0,107
-143,760	263,319	-0,028	0,035
-142,745	-113,189	-0,202	0,028
-141,731	-200,000	-0,004	0,042
-140,716	337,717	0,062	-0,087
-139,702	800,000	-0,043	0,088
-138,687	8,455	-0,033	0,018
-137,672	232,886	0,064	-0,076
-136,658	269,065	0,052	-0,065
-135,643	-200,000	-0,011	-0,052
-134,629	390,492	-0,048	-0,071
-133,614	-200,000	0,015	0,090
-132,599	252,981	-0,063	0,078
-131,585	230,386	0,096	0,112
-130,570	-59,092	-0,064	-0,020
-129,556	-200,000	0,006	-0,046
-128,541	-169,598	-0,005	-0,000
-127,526	-115,680	-0,025	-0,003
-126,512	218,347	0,067	-0,077
-125,497	97,436	-0,049	-0,040
-124,483	61,448	-0,072	0,052
-123,468	-41,943	0,156	-0,057
-122,453	-49,127	-0,095	0,032
-121,439	-200,000	-0,014	-0,081
-120,424	-79,748	-0,127	-0,030
-119,410	35,244	0,022	-0,014
-118,395	-39,156	0,132	0,050
-117,380	-97,539	-0,124	0,023
-116,366	18,436	-0,124	-0,071
-115,351	44,034	-0,076	-0,050
-114,337	800,000	-0,025	-0,069
-113,322	-73,794	-0,136	0,035
-112,307	-37,249	0,136	0,052
-111,293	-95,749	0,109	-0,021
-110,278	-144,094	0,067	0,004
-109,264	-200,000	0,019	-0,117
-108,249	-73,970	0,071	0,018
-107,234	-200,000	-0,016	0,058
-106,220	-37,009	-0,100	0,038
-105,205	112,577	0,091	0,079
-104,191	-200,000	-0,003	-0,103
-103,176	107,137	-0,111	0,095
-102,162	46,636	-0,118	0,078
-101,147	43,815	-0,046	0,030
-100,132	68,170	0,056	0,041
-99,118	200,110	-0,049	-0,054
-98,103	-162,961	0,063	0,002
-97,089	91,606	0,041	-0,033
-96,074	-200,000	-0,020	0,100
-95,059	-95,326	0,051	0,010
-94,045	177,755	-0,058	-0,061
-93,030	800,000	-0,052	-0,158
-92,016	-64,872	0,114	-0,033
-91,001	34,721	-0,118	-0,074
-89,986	120,288	0,107	-0,095
-88,972	800,000	-0,015	0,041
-87,957	118,123	-0,006	0,005
-86,943	-200,000	0,009	0,046
-85,928	432,779	0,052	-0,081
-84,913	471,128	-0,036	-0,057
-83,899	-200,000	0,002	-0,112
-82,884	416,321	-0,025	-0,039
-81,870	150,230	-0,105	-0,102
-80,855	-168,379	0,071	0,002
-79,840	-200,000	0,001	-0,049
-78,826	-46,034	0,062	-0,022
-77,811	-48,045	0,155	0,053
-76,797	202,604	-0,058	0,064
-75,782	-45,349	-0,091	-0,032
-74,767	47,959	-0,006	-0,004
-73,753	800,000	-0,031	0,068
-72,738	-102,203	0,095	-0,016
-71,724	-200,000	-0,007	-0,079
-70,709	-200,000	0,006	0,032
-69,694	800,000	0,026	0,053
-68,680	181,200	0,055	0,058
-67,665	14,673	0,070	-0,039
-66,651	-36,680	-0,134	0,051
-65,636	97,643	0,051	-0,042
-64,622	800,000	-0,028	0,061
-63,607	-154,265	-0,154	0,007
-62,592	554,718	-0,071	-0,122
-61,578	-109,361	0,081	-0,012
-60,563	13,150	0,186	0,103
-59,549	80,083	-0,065	-0,050
-58,534	42,782	-2,165	-1,410
-57,519	-200,000	-0,111	-0,683
-56,505	-200,000	-1,568	-5,012
-55,490	154,313	0,927	0,912
-54,476	800,000	5,374	12,297
-53,461	-200,000	18,948	319,818
-52,446	800,000	741,599	2324,413
-51,432	549,092	1654,693	2850,686
-50,417	109,865	1637,447	1406,118
-49,403	73,481	1287,781	964,420
-48,388	29,568	1029,488	625,606
-47,373	19,601	992,395	570,116
-46,359	16,938	979,989	554,224
-45,344	13,552	976,361	541,043
-44,330	13,860	974,807	541,168
-43,315	13,289	972,783	538,156
-42,300	13,174	971,796	537,212
-41,286	13,190	970,828	536,708
-40,271	13,191	969,983	536,223
-39,257	13,195	969,181	535,770
-38,242	13,185	968,236	535,195
-37,227	13,174	967,507	534,735
-36,213	13,190	966,558	534,241
-35,198	13,160	965,746	533,675
-34,184	13,229	965,014	533,472
-33,169	13,209	963,855	532,746
-32,154	13,258	962,761	532,278
-31,140	13,187	962,131	531,680
-30,125	13,241	961,359	531,406
-29,111	13,221	960,429	530,808
-28,096	13,267	959,924	530,655
-27,082	13,217	959,233	530,092
-26,067	13,234	958,314	529,615
-25,052	13,199	957,699	529,142
-24,038	13,239	957,045	528,888
-23,023	13,187	956,358	528,321
-22,009	13,213	955,810	528,081
-20,994	13,220	955,202	527,746
-19,979	13,226	954,433	527,321
-18,965	13,240	953,673	526,925
-17,950	13,209	953,381	526,642
-16,936	13,196	952,767	526,241
-15,921	13,227	951,944	525,864
-14,906	13,125	951,096	525,048
-13,892	13,143	950,721	524,880
-12,877	13,148	949,807	524,370
-11,863	13,033	949,483	523,802
-10,848	13,091	948,785	523,582
-9,833	13,251	948,163	523,727
-8,819	13,148	947,602	523,071
-7,804	13,121	946,845	522,544
-6,790	13,160	946,328	522,364
-5,775	13,175	945,829	522,114
-4,760	13,127	945,305	521,651
-3,746	13,155	944,554	521,306
-2,731	12,921	944,112	520,296
-1,717	12,965	943,068	519,841
-0,702	12,920	942,716	519,483
0,313	12,791	941,820	519,366
1,327	16,166	939,687	528,804
2,342	25,276	790,462	468,844
3,356	21,337	444,932	258,039
4,371	-7,861	298,158	143,475
5,386	-11,894	280,055	130,894
6,400	-12,960	274,137	127,117
7,415	-13,013	271,800	125,973
8,429	-13,241	270,345	125,076
9,444	-13,225	269,419	124,651
10,459	-13,255	268,830	124,340
11,473	-13,166	268,182	124,112
12,488	-13,341	267,608	123,675
13,502	-13,547	267,042	123,214
14,517	-13,411	266,667	123,154
15,531	-13,302	266,140	122,999
16,546	-13,225	265,852	122,925
17,561	-13,385	265,591	122,648
18,575	-13,160	265,219	122,669
19,590	-13,465	264,770	122,174
20,604	-13,203	264,668	122,353
21,619	-13,435	264,271	121,949
22,634	-13,448	263,872	121,742
23,648	-13,455	263,544	121,574
24,663	-13,542	263,260	121,354
25,677	-13,335	262,945	121,384
26,692	-13,375	262,747	121,246
27,707	-13,509	262,530	121,015
28,721	-13,486	262,118	120,835
29,736	-13,596	261,950	120,648
30,750	-13,417	261,764	120,712
31,765	-13,390	261,329	120,525
32,780	-13,508	261,033	120,272
33,794	-13,525	260,955	120,210
34,809	-13,592	260,743	120,042
35,823	-13,420	260,464	120,056
36,838	-13,502	260,093	119,802
37,853	-13,625	259,895	119,590
38,867	-13,324	259,497	119,663
39,882	-13,652	259,480	119,354
40,896	-13,716	259,229	119,172
41,911	-13,494	258,866	119,190
42,926	-13,540	258,725	119,074
43,940	-13,581	258,624	118,981
44,955	-13,395	258,133	118,908
45,969	-13,602	258,038	118,672
46,984	-14,020	257,718	118,146
47,999	-14,051	257,412	117,968
49,013	-14,134	257,246	117,809
50,028	-14,240	256,998	117,592
51,042	-14,308	256,598	117,339
52,057	-14,388	256,394	117,166
53,071	-14,201	256,172	117,217
54,086	-14,022	255,989	117,279
55,101	-14,020	255,792	117,180
56,115	-13,866	255,757	117,287
57,130	-13,511	255,731	117,574
58,144	-13,288	255,485	117,645
59,159	-13,302	255,343	117,557
60,174	-13,403	255,083	117,338
61,188	-13,247	254,846	117,355
62,203	-13,299	254,523	117,150
63,217	-13,483	254,263	116,862
64,232	-13,487	254,160	116,800
65,247	-13,242	253,915	116,888
66,261	-13,514	253,717	116,553
67,276	-13,571	253,529	116,406
68,290	-14,041	253,181	115,831
69,305	-13,789	252,926	115,921
70,320	-14,036	252,814	115,648
71,334	-13,509	252,720	116,046
72,349	-13,378	252,414	116,009
73,363	-13,438	252,342	115,913
74,378	-13,430	252,138	115,816
75,393	-13,391	251,927	115,743
76,407	-13,442	251,576	115,527
77,422	-13,422	251,508	115,503
78,436	-13,356	251,142	115,381
79,451	-13,470	250,918	115,170
80,466	-13,614	250,728	114,950
81,480	-13,567	250,335	114,800
82,495	-13,840	250,138	114,467
83,509	-13,609	250,139	114,654
84,524	-13,612	249,885	114,524
85,539	-14,004	249,630	114,065
86,553	-13,976	249,498	114,018
87,568	-13,887	249,231	113,961
88,582	-13,830	249,075	113,928
89,597	-13,659	248,931	113,996
90,611	-13,686	248,695	113,856
91,626	-13,542	248,559	113,905
92,641	-13,455	248,441	113,914
93,655	-13,658	248,082	113,568
94,670	-13,583	247,988	113,578
95,684	-13,484	247,676	113,509
96,699	-13,579	247,588	113,378
97,714	-13,758	247,482	113,169
98,728	-13,724	247,109	113,017
99,743	-14,062	247,047	112,695
100,757	-13,903	246,831	112,720
101,772	-13,816	246,441	112,605
102,787	-13,703	246,476	112,705
103,801	-13,732	246,196	112,543
104,816	-13,560	246,062	112,615
105,830	-13,620	246,026	112,538
106,845	-13,537	245,846	112,515
107,860	-13,409	245,667	112,529
108,874	-13,395	245,234	112,332
109,889	-13,562	245,061	112,105
110,903	-13,574	244,905	112,013
111,918	-13,691	244,828	111,871
112,933	-13,497	244,476	111,861
113,947	-13,430	244,395	111,869
114,962	-13,558	244,293	111,707
115,976	-13,478	244,029	111,643
116,991	-13,556	243,801	111,463
118,006	-13,535	243,796	111,469
119,020	-13,469	243,565	111,408
120,035	-13,437	243,343	111,322
121,049	-13,584	243,352	111,196
122,064	-13,593	243,139	111,081
123,079	-13,555	242,805	110,950
124,093	-13,419	242,466	110,897
125,108	-13,689	242,269	110,575
126,122	-13,837	242,011	110,326
127,137	-13,928	241,842	110,165
128,151	-14,005	241,736	110,044
129,166	-13,814	241,596	110,126
130,181	-13,831	241,325	109,979
131,195	-13,741	241,229	109,999
132,210	-13,484	241,058	110,121
133,224	-13,676	240,868	109,868
134,239	-13,399	240,834	110,068
135,254	-13,559	240,572	109,808
136,268	-13,603	240,339	109,657
137,283	-13,652	240,019	109,461
138,297	-14,055	239,860	109,052
139,312	-13,915	239,607	109,041
140,327	-13,473	239,508	109,344
141,341	-13,090	239,550	109,664
142,356	-13,155	239,361	109,514
143,370	-13,338	239,209	109,287
144,385	-13,166	238,981	109,312
145,400	-13,104	238,820	109,278
146,414	-13,170	238,608	109,118
147,429	-13,156	238,440	109,043
148,443	-13,270	238,323	108,888
149,458	-13,204	238,100	108,830
150,473	-13,218	237,953	108,741
151,487	-13,396	237,811	108,524
152,502	-13,368	237,642	108,460
153,516	-13,212	237,497	108,510
154,531	-13,195	237,332	108,438
155,546	-13,426	237,169	108,169
156,560	-13,263	236,985	108,206
157,575	-13,320	236,747	108,042
158,589	-13,247	236,387	107,926
159,604	-13,053	236,351	108,055
160,619	-12,986	236,193	108,026
161,633	-13,154	236,044	107,814
162,648	-13,093	236,025	107,844
163,662	-13,200	235,890	107,688
164,677	-13,408	235,660	107,408
165,692	-13,387	235,535	107,358
166,706	-13,004	235,256	107,526
167,721	-13,168	235,215	107,367
168,735	-12,928	235,006	107,453
169,750	-13,250	234,962	107,168
170,764	-13,407	234,727	106,927
171,779	-13,215	234,557	106,992
172,794	-12,949	234,430	107,134
173,808	-13,390	234,260	106,699
174,823	-13,716	233,913	106,274
175,837	-13,850	233,754	106,087
176,852	-13,372	233,640	106,402
177,867	-12,952	233,495	106,657
178,881	-12,984	233,348	106,555
179,896	-13,175	233,278	106,364
180,910	-13,155	233,179	106,325
181,925	-12,986	232,885	106,313
182,940	-13,091	232,900	106,229
183,954	-13,363	232,728	105,928
184,969	-13,087	232,458	106,011
185,983	-12,897	232,359	106,105
186,998	-12,823	232,169	106,066
188,013	-13,017	232,058	105,855
189,027	-13,038	231,720	105,675
190,042	-12,917	231,853	105,821
191,056	-12,993	231,608	105,641
192,071	-12,988	231,418	105,548
193,086	-12,945	231,160	105,454
194,100	-12,983	231,150	105,411
195,115	-13,593	230,568	104,663
196,129	-13,514	230,646	104,751
197,144	-7,972	232,528	109,925
198,159	-2,469	234,296	115,072
199,173	2,025	235,477	119,177
200,188	2,925	235,365	119,817
201,202	2,617	235,379	119,571
202,217	2,886	235,146	119,653
203,232	3,016	235,118	119,730
204,246	3,032	234,865	119,603
205,261	2,989	234,791	119,521
206,275	3,147	234,841	119,660
207,290	3,363	234,475	119,631
208,304	3,382	234,437	119,616
209,319	3,023	234,374	119,293
210,334	2,942	233,941	118,999
211,348	2,760	233,857	118,803
212,363	2,411	233,666	118,425
213,377	2,366	233,256	118,171
214,392	2,303	233,158	118,062
215,407	2,619	233,118	118,276
216,421	2,462	233,035	118,102
217,436	2,542	232,709	117,988
218,450	2,154	232,434	117,538
219,465	1,931	232,409	117,342
220,480	2,145	232,243	117,414
221,494	2,306	232,036	117,423
222,509	2,623	232,000	117,639
223,523	2,536	231,850	117,485
224,538	2,382	231,628	117,243
225,553	2,328	231,551	117,152
226,567	2,490	231,487	117,234
227,582	2,650	231,353	117,279
228,596	2,849	231,194	117,341
229,611	2,738	230,845	117,068
230,626	2,401	230,646	116,698
231,640	2,312	230,628	116,611
232,655	2,670	230,447	116,784
233,669	2,863	230,449	116,922
234,684	2,966	230,348	116,939
235,699	2,585	230,245	116,584
236,713	2,706	229,805	116,444
237,728	2,601	229,785	116,343
238,742	2,489	229,528	116,117
239,757	2,601	229,334	116,094
240,772	2,382	229,063	115,779
241,786	2,432	228,990	115,770
242,801	2,648	229,041	115,950
243,815	2,877	228,874	116,029
244,830	2,744	228,855	115,908
245,844	2,537	228,610	115,617
246,859	2,381	228,425	115,395
247,874	2,500	228,343	115,433
248,888	2,887	228,124	115,605
249,903	2,472	228,019	115,227
250,917	2,544	227,865	115,194
251,932	2,497	227,627	115,028
252,947	2,177	227,384	114,654
253,961	2,346	227,356	114,757
254,976	2,397	227,125	114,668
255,990	2,489	227,209	114,770
257,005	2,805	226,950	114,866
258,020	2,569	227,047	114,728
259,034	2,597	226,708	114,567
260,049	2,683	226,535	114,534
261,063	2,674	226,345	114,421
262,078	2,804	226,248	114,460
263,093	3,089	226,109	114,593
264,107	2,779	226,024	114,307
265,122	2,864	225,825	114,260
266,136	3,102	225,760	114,394
267,151	2,957	225,552	114,170
268,166	2,797	225,284	113,905
269,180	2,223	224,859	113,253
270,195	2,275	224,926	113,315
271,209	2,204	224,964	113,271
272,224	2,532	224,731	113,388
273,239	2,618	224,729	113,441
274,253	2,428	224,411	113,129
275,268	2,237	224,219	112,881
276,282	2,014	224,056	112,622
277,297	2,105	223,837	112,570
278,312	2,163	223,879	112,624
279,326	2,485	223,745	112,785
280,341	2,686	223,588	112,845
281,355	2,364	223,497	112,551
282,370	2,539	223,387	112,614
283,384	2,309	222,979	112,229
284,399	2,206	222,966	112,137
285,414	2,218	222,794	112,049
286,428	2,525	222,596	112,165
287,443	2,598	222,626	112,225
288,457	2,664	222,417	112,158
289,472	2,297	222,228	111,782
290,487	2,279	221,879	111,583
291,501	1,765	221,881	111,197
292,516	1,796	221,748	111,144
293,530	2,135	221,595	111,305
294,545	2,291	221,499	111,361
295,560	2,171	221,536	111,283
296,574	2,297	221,406	111,300
297,589	2,396	221,050	111,183
298,603	2,423	221,006	111,171
299,618	2,424	221,049	111,183
300,633	2,548	220,846	111,161
301,647	2,739	220,745	111,240
302,662	2,687	220,531	111,084
303,676	2,759	220,226	110,973
304,691	2,829	220,235	111,019
305,706	2,772	220,132	110,916
306,720	2,817	220,018	110,881
307,735	2,439	219,834	110,504
308,749	2,440	219,560	110,357
309,764	2,398	219,545	110,309
310,779	2,966	219,379	110,628
311,793	2,600	219,257	110,291
312,808	2,557	219,123	110,182
313,822	2,707	218,846	110,142
314,837	2,519	218,700	109,923
315,852	2,214	218,619	109,653
316,866	2,591	218,513	109,861
317,881	2,559	218,393	109,768
318,895	2,527	218,209	109,643
319,910	2,155	217,943	109,232
320,925	1,946	217,770	108,985
321,939	2,006	217,488	108,877
322,954	2,165	217,651	109,063
323,968	2,611	217,582	109,339
324,983	2,714	217,422	109,323
325,997	2,755	217,298	109,280
327,012	2,726	217,177	109,189
328,027	2,508	216,969	108,919
329,041	2,829	217,089	109,199
330,056	3,002	216,755	109,145
331,070	2,410	216,527	108,597
332,085	2,324	216,438	108,482
333,100	2,467	216,263	108,487
334,114	2,641	216,013	108,476
335,129	2,464	216,040	108,353
336,143	2,444	215,749	108,183
337,158	2,367	215,661	108,075
338,173	2,308	215,570	107,978
339,187	2,176	215,439	107,809
340,202	2,123	215,309	107,696
341,216	2,639	215,321	108,059
342,231	2,425	215,176	107,824
343,246	2,467	215,003	107,758
344,260	2,327	214,825	107,560
345,275	2,672	214,687	107,726
346,289	2,684	214,569	107,665
347,304	2,616	214,473	107,559
348,319	2,356	214,196	107,227
349,333	2,167	214,217	107,095
350,348	2,583	214,007	107,274
351,362	2,521	213,914	107,174
352,377	2,752	213,694	107,216
353,392	2,564	213,636	107,046
354,406	2,704	213,415	107,024
355,421	197,555	1313,734	1393,335
356,435	158,076	1447,746	1393,272
