DTS Sentinel unit serial number:	SN410029Multiplexer serial number:	ORYXHardware model number:	OX2-SRSoftware version number:	ORYX F/W v4,00 Oryx Data Collector v3.7.2.0data status	okinstallation	B6 Nyhavnadifferential loss correction	single-endedforward channel	channel 2reverse channel	N/Adate	2023/12/07time	11:50:08forward acquisition time	300,00reverse acquisition time	0,00gamma	499,1914k internal	0,3203k external	0,3203temperature offset calibration	1,0000default loss term (dB/km)	0,3820temperature slope calibration	1,0000multiplexer offset coefficient	1,0000multiplexer slope coefficient	1,0000fibre end	0,00T internal ref (°C)	9,09T ext. ref 1 (°C)	-4,79T ext. ref 2 (°C)	-4,78length (m)	temperature (°C)	Stokes	anti-Stokes-744,400	57,318	0,123	0,087
-743,385	58,546	-0,289	-0,206
-742,371	-8,226	0,264	0,129
-741,356	-184,431	-0,434	-0,005
-740,342	-87,808	0,203	0,044
-739,327	-76,718	-0,418	-0,106
-738,312	64,274	0,202	0,148
-737,298	-28,008	-0,344	-0,144
-736,283	-74,654	0,044	-0,011
-735,269	-144,946	-0,306	-0,020
-734,254	-71,532	0,180	0,049
-733,239	-11,059	-0,471	-0,225
-732,225	-31,910	0,274	0,111
-731,210	718,867	0,083	0,160
-730,196	7,406	-0,096	-0,052
-729,181	-200,000	0,024	-0,094
-728,167	137,458	0,061	0,058
-727,152	-60,595	-0,042	-0,013
-726,137	1,271	-0,100	-0,052
-725,123	123,109	-0,072	0,066
-724,108	213,772	-0,003	0,004
-723,094	405,043	0,021	-0,032
-722,079	-200,000	0,044	-0,201
-721,064	-52,466	0,015	-0,005
-720,050	42,621	-0,160	0,105
-719,035	55,359	-0,084	0,059
-718,021	-61,682	-0,078	0,024
-717,006	800,000	-0,015	-0,033
-715,991	-76,821	-0,134	0,034
-714,977	-200,000	-0,002	-0,073
-713,962	-32,179	-0,013	-0,005
-712,948	-164,876	0,049	0,002
-711,933	488,292	-0,070	-0,116
-710,918	800,000	-0,021	0,054
-709,904	87,069	0,100	-0,080
-708,889	800,000	-0,032	-0,088
-707,875	-200,000	0,013	-0,234
-706,860	-200,000	0,040	0,131
-705,845	47,571	-0,013	0,009
-704,831	159,307	0,123	0,124
-703,816	800,000	-0,009	0,019
-702,802	800,000	0,060	-0,137
-701,787	800,000	0,029	0,082
-700,772	126,529	-0,094	0,086
-699,758	321,182	0,032	-0,045
-698,743	8,880	0,084	-0,046
-697,729	-44,537	0,112	-0,040
-696,714	-200,000	-0,027	0,107
-695,699	-200,000	0,024	0,080
-694,685	-75,888	-0,029	0,007
-693,670	2,737	0,062	-0,032
-692,656	-67,531	0,059	-0,017
-691,641	-53,397	-0,062	0,020
-690,627	-200,000	0,005	0,054
-689,612	800,000	0,041	0,126
-688,597	109,663	0,066	0,058
-687,583	111,221	-0,055	0,048
-686,568	-101,575	-0,146	0,025
-685,554	24,104	-0,142	-0,085
-684,539	123,547	-0,027	-0,024
-683,524	-11,390	0,090	-0,043
-682,510	800,000	0,021	0,052
-681,495	-200,000	0,038	0,162
-680,481	-200,000	-0,097	0,000
-679,466	-200,000	-0,011	0,086
-678,451	139,497	0,111	-0,106
-677,437	-200,000	-0,038	0,147
-676,422	194,906	-0,081	-0,090
-675,408	-66,477	0,021	0,006
-674,393	206,843	-0,073	-0,082
-673,378	0,623	0,013	-0,007
-672,364	-200,000	-0,040	-0,148
-671,349	-0,752	-0,045	-0,023
-670,335	252,037	0,098	0,122
-669,320	76,381	0,113	0,087
-668,305	-200,000	-0,013	0,086
-667,291	800,000	0,028	-0,065
-666,276	45,747	-0,062	-0,041
-665,262	172,846	-0,046	-0,048
-664,247	-200,000	-0,004	-0,070
-663,232	-113,347	0,135	-0,019
-662,218	174,818	0,060	0,063
-661,203	-63,855	-0,039	0,012
-660,189	536,176	-0,021	0,036
-659,174	-9,954	-0,089	0,043
-658,159	800,000	-0,025	-0,074
-657,145	-200,000	-0,032	0,131
-656,130	155,254	-0,093	0,093
-655,116	-82,726	-0,058	-0,013
-654,101	-200,000	0,025	0,081
-653,086	-200,000	0,050	-0,160
-652,072	800,000	-0,060	-0,172
-651,057	-200,000	-0,003	-0,068
-650,043	-200,000	-0,002	0,061
-649,028	136,024	-0,087	-0,082
-648,014	-99,437	-0,109	0,020
-646,999	109,681	0,095	0,082
-645,984	800,000	0,026	0,063
-644,970	800,000	-0,040	-0,092
-643,955	354,517	-0,035	-0,050
-642,941	800,000	0,015	-0,034
-641,926	-148,795	0,059	0,003
-640,911	800,000	-0,007	0,021
-639,897	206,329	-0,070	0,078
-638,882	-37,809	-0,094	0,036
-637,868	-20,547	0,134	-0,060
-636,853	181,539	0,079	0,084
-635,838	800,000	0,007	-0,015
-634,824	-188,613	0,022	0,000
-633,809	354,326	-0,035	0,051
-632,795	-5,588	0,089	0,044
-631,780	-51,920	0,036	-0,012
-630,765	-200,000	-0,017	0,104
-629,751	-126,860	0,097	0,010
-628,736	-200,000	-0,020	-0,096
-627,722	84,067	-0,024	-0,019
-626,707	243,973	0,033	-0,040
-625,692	-128,477	0,090	-0,009
-624,678	91,421	-0,071	0,057
-623,663	2,688	0,019	0,010
-622,649	611,801	-0,016	0,029
-621,634	357,953	-0,023	-0,033
-620,619	296,353	-0,040	0,053
-619,605	-137,079	-0,116	0,009
-618,590	800,000	0,072	0,174
-617,576	-200,000	-0,014	0,100
-616,561	735,534	0,079	0,154
-615,546	-200,000	-0,021	0,154
-614,532	-76,899	-0,140	0,035
-613,517	4,566	0,057	-0,030
-612,503	-76,872	0,013	-0,003
-611,488	218,779	0,089	0,103
-610,474	394,645	0,051	0,077
-609,459	-180,717	0,012	0,000
-608,444	-167,663	-0,061	0,002
-607,430	-200,000	-0,004	-0,044
-606,415	260,624	-0,046	0,057
-605,401	47,392	-0,036	0,024
-604,386	-119,378	0,060	-0,007
-603,371	171,256	-0,096	0,100
-602,357	-200,000	0,000	0,011
-601,342	-67,266	-0,117	-0,033
-600,328	-200,000	-0,026	-0,102
-599,313	-118,046	-0,043	-0,005
-598,298	121,517	0,030	0,027
-597,284	-65,246	-0,046	0,013
-596,269	-104,956	-0,095	-0,016
-595,255	323,138	-0,088	0,122
-594,240	166,539	0,057	0,058
-593,225	-200,000	0,010	-0,093
-592,211	-167,959	-0,087	-0,002
-591,196	-200,000	-0,015	0,062
-590,182	54,443	0,060	0,042
-589,167	-24,292	-0,005	-0,002
-588,152	78,768	-0,064	0,050
-587,138	35,037	-0,062	-0,039
-586,123	-100,289	-0,092	-0,016
-585,109	-25,676	-0,024	-0,010
-584,094	180,821	-0,034	0,036
-583,079	-200,000	-0,019	0,097
-582,065	-168,428	0,071	0,002
-581,050	-43,077	-0,048	0,017
-580,036	-200,000	0,007	-0,067
-579,021	430,867	-0,021	0,032
-578,006	304,099	0,030	-0,040
-576,992	329,523	-0,088	0,123
-575,977	-200,000	0,002	-0,033
-574,963	-200,000	0,003	0,104
-573,948	-26,186	-0,126	0,053
-572,934	21,951	0,024	0,014
-571,919	-200,000	0,010	-0,119
-570,904	617,620	0,039	-0,071
-569,890	181,750	-0,022	-0,023
-568,875	716,302	0,041	0,078
-567,861	-91,039	0,050	-0,010
-566,846	800,000	0,068	-0,156
-565,831	-92,127	0,062	0,013
-564,817	443,228	0,022	0,034
-563,802	-6,424	-0,123	-0,060
-562,788	-200,000	0,002	-0,042
-561,773	-51,869	0,161	-0,054
-560,758	800,000	-0,013	0,027
-559,744	5,001	0,081	0,043
-558,729	323,923	0,061	-0,084
-557,715	305,566	-0,059	0,079
-556,700	-0,715	-0,073	0,037
-555,685	800,000	-0,005	-0,013
-554,671	452,222	-0,015	0,023
-553,656	-200,000	0,017	0,067
-552,642	344,507	-0,039	0,056
-551,627	-41,762	0,067	-0,025
-550,612	800,000	0,031	0,085
-549,598	-40,600	-0,123	0,046
-548,583	-108,270	-0,034	0,005
-547,569	-200,000	-0,004	-0,082
-546,554	290,096	0,041	0,053
-545,539	800,000	0,028	0,078
-544,525	89,458	0,040	-0,033
-543,510	157,703	0,055	-0,055
-542,496	-200,000	0,017	0,109
-541,481	-175,721	-0,058	-0,001
-540,466	-144,867	-0,114	0,007
-539,452	-187,171	0,178	0,002
-538,437	-47,587	-0,075	0,026
-537,423	457,578	-0,089	0,143
-536,408	-25,090	0,105	0,045
-535,393	-200,000	0,018	-0,060
-534,379	-116,226	0,029	0,004
-533,364	-53,937	-0,176	-0,057
-532,350	294,894	0,038	0,051
-531,335	-104,817	0,135	0,022
-530,321	800,000	-0,028	-0,080
-529,306	-200,000	0,001	0,111
-528,291	-200,000	0,005	-0,060
-527,277	154,505	-0,069	-0,068
-526,262	217,364	0,082	0,094
-525,248	-200,000	0,003	0,043
-524,233	-200,000	-0,009	-0,055
-523,218	381,101	0,136	0,202
-522,204	800,000	-0,013	0,031
-521,189	165,260	0,033	-0,034
-520,175	584,609	-0,044	-0,079
-519,160	29,592	-0,045	-0,027
-518,145	69,536	-0,074	0,055
-517,131	-163,023	0,110	0,004
-516,116	209,331	0,008	0,009
-515,102	-122,293	-0,064	0,007
-514,087	-200,000	0,011	-0,119
-513,072	-200,000	-0,027	-0,089
-512,058	800,000	-0,038	0,105
-511,043	562,246	-0,100	-0,175
-510,029	-200,000	0,010	-0,057
-509,014	-200,000	0,015	-0,070
-507,999	257,779	0,041	-0,051
-506,985	-200,000	0,053	0,197
-505,970	334,742	-0,040	0,056
-504,956	350,400	0,047	0,067
-503,941	800,000	-0,066	0,147
-502,926	335,374	-0,027	0,038
-501,912	393,952	0,036	-0,054
-500,897	-200,000	-0,021	0,182
-499,883	-33,660	-0,073	-0,029
-498,868	-49,704	-0,119	-0,041
-497,853	-132,215	0,050	-0,005
-496,839	-200,000	-0,010	0,109
-495,824	-107,972	-0,023	0,004
-494,810	-35,443	-0,135	0,053
-493,795	382,202	0,059	0,088
-492,781	-72,337	-0,070	0,018
-491,766	-192,481	-0,024	-0,000
-490,751	-104,604	0,054	0,009
-489,737	143,188	0,050	-0,048
-488,722	-97,165	0,052	-0,010
-487,708	-31,296	0,130	0,052
-486,693	273,467	0,053	0,068
-485,678	-200,000	0,016	0,059
-484,664	476,908	0,011	0,018
-483,649	130,610	0,066	0,061
-482,635	10,364	0,075	-0,041
-481,620	-200,000	0,001	-0,010
-480,605	-200,000	0,009	0,101
-479,591	-52,847	0,040	0,013
-478,576	231,463	0,076	-0,089
-477,562	3,719	-0,196	-0,103
-476,547	800,000	0,003	-0,007
-475,532	-130,749	-0,048	-0,005
-474,518	191,176	0,040	-0,043
-473,503	-33,159	0,111	0,044
-472,489	-44,929	-0,142	0,051
-471,474	88,385	-0,018	-0,015
-470,459	800,000	-0,008	0,018
-469,445	-19,387	-0,125	-0,056
-468,430	25,817	-0,040	-0,024
-467,416	488,208	-0,052	-0,086
-466,401	35,192	-0,242	0,152
-465,386	-4,226	0,093	0,046
-464,372	800,000	0,036	-0,077
-463,357	-200,000	0,017	-0,175
-462,343	800,000	0,035	-0,070
-461,328	515,084	-0,024	0,041
-460,313	800,000	0,035	0,095
-459,299	214,427	-0,050	0,057
-458,284	-200,000	0,049	0,223
-457,270	100,795	-0,070	0,058
-456,255	800,000	0,083	-0,224
-455,241	119,368	0,050	-0,045
-454,226	29,800	-0,092	0,056
-453,211	116,522	0,097	0,085
-452,197	800,000	0,044	0,117
-451,182	800,000	0,051	-0,112
-450,168	6,165	-0,156	-0,083
-449,153	-60,698	0,093	0,028
-448,138	800,000	-0,048	-0,099
-447,124	-200,000	-0,001	0,023
-446,109	-44,241	0,109	-0,039
-445,095	-108,145	-0,053	-0,008
-444,080	135,960	-0,025	0,023
-443,065	69,885	0,020	-0,015
-442,051	800,000	-0,022	0,053
-441,036	-200,000	-0,019	-0,079
-440,022	383,594	-0,084	-0,125
-439,007	-1,450	-0,086	-0,044
-437,992	37,234	-0,095	-0,060
-436,978	630,822	0,049	0,090
-435,963	-200,000	0,029	-0,169
-434,949	-65,304	0,021	-0,006
-433,934	49,588	0,095	0,064
-432,919	260,885	-0,062	-0,078
-431,905	390,693	0,059	-0,088
-430,890	234,454	0,025	0,029
-429,876	323,037	0,027	-0,037
-428,861	-77,842	-0,103	-0,025
-427,846	17,556	0,063	-0,036
-426,832	87,995	-0,061	-0,049
-425,817	800,000	0,012	0,025
-424,803	-38,146	0,037	0,014
-423,788	800,000	0,040	0,085
-422,773	-128,841	0,111	0,011
-421,759	-200,000	-0,048	0,159
-420,744	-200,000	-0,008	0,126
-419,730	-169,704	-0,037	0,001
-418,715	-200,000	0,021	-0,162
-417,701	800,000	0,037	-0,098
-416,686	-200,000	0,024	0,129
-415,671	14,997	0,125	0,070
-414,657	-156,304	0,084	-0,004
-413,642	6,588	0,138	-0,073
-412,628	-118,858	-0,086	0,011
-411,613	-32,124	-0,062	0,025
-410,598	-87,715	-0,032	0,007
-409,584	154,404	0,057	0,057
-408,569	-200,000	0,017	-0,077
-407,555	-200,000	0,003	-0,112
-406,540	152,650	-0,074	0,073
-405,525	263,749	-0,037	-0,046
-404,511	79,269	0,052	-0,040
-403,496	-65,290	-0,068	-0,019
-402,482	202,601	0,035	-0,039
-401,467	-46,416	0,170	0,059
-400,452	334,397	0,023	-0,032
-399,438	48,659	0,062	-0,041
-398,423	-39,890	-0,139	-0,052
-397,409	-161,935	-0,153	-0,005
-396,394	-166,177	-0,085	-0,003
-395,379	-143,726	-0,071	-0,005
-394,365	-150,728	0,184	0,010
-393,350	-200,000	0,010	0,095
-392,336	800,000	-0,034	0,073
-391,321	102,628	0,100	-0,084
-390,306	800,000	0,010	-0,020
-389,292	-26,236	0,143	-0,060
-388,277	35,613	-0,073	0,046
-387,263	-44,787	0,059	0,021
-386,248	-126,372	0,171	-0,018
-385,233	98,158	0,009	-0,007
-384,219	-200,000	0,003	0,038
-383,204	45,119	-0,079	-0,052
-382,190	65,017	0,147	-0,106
-381,175	34,924	0,102	0,064
-380,160	-49,250	0,050	0,017
-379,146	150,436	0,187	0,182
-378,131	109,809	0,134	0,115
-377,117	189,614	-0,042	0,045
-376,102	730,444	-0,094	-0,180
-375,088	-32,767	-0,017	-0,007
-374,073	-77,646	-0,120	-0,030
-373,058	-135,702	0,083	-0,007
-372,044	-200,000	-0,007	0,125
-371,029	-200,000	0,024	-0,126
-370,015	-200,000	0,002	-0,018
-369,000	-200,000	0,032	-0,133
-367,985	273,750	-0,021	-0,027
-366,971	114,305	-0,089	-0,078
-365,956	-171,790	0,073	0,002
-364,942	-67,330	0,136	0,038
-363,927	451,812	0,035	-0,055
-362,912	-52,343	-0,100	0,033
-361,898	-128,408	0,165	-0,017
-360,883	800,000	-0,018	-0,056
-359,869	-200,000	0,026	0,091
-358,854	112,004	-0,072	-0,062
-357,839	800,000	-0,007	0,018
-356,825	10,634	0,196	-0,107
-355,810	365,864	0,034	0,049
-354,796	-109,573	-0,106	-0,016
-353,781	-51,633	-0,067	-0,022
-352,766	317,512	-0,024	-0,032
-351,752	-10,571	0,226	0,107
-350,737	-200,000	-0,006	0,140
-349,723	-43,286	0,004	-0,002
-348,708	-200,000	0,002	0,066
-347,693	128,532	-0,043	0,039
-346,679	127,819	-0,083	0,076
-345,664	-200,000	-0,008	0,109
-344,650	29,932	-0,025	-0,015
-343,635	-200,000	-0,026	-0,099
-342,620	-174,028	-0,046	0,001
-341,606	-200,000	0,012	-0,045
-340,591	-109,659	-0,032	0,005
-339,577	74,845	-0,152	-0,114
-338,562	-200,000	-0,012	-0,131
-337,548	-14,933	0,074	0,034
-336,533	-140,904	-0,076	0,005
-335,518	120,098	-0,035	0,031
-334,504	-200,000	-0,016	0,058
-333,489	-3,597	-0,159	-0,079
-332,475	-56,606	-0,172	0,054
-331,460	-200,000	-0,029	0,111
-330,445	1,271	-0,054	0,028
-329,431	800,000	0,052	0,116
-328,416	303,640	0,115	0,152
-327,402	46,827	-0,077	0,051
-326,387	124,735	-0,009	0,009
-325,372	-114,761	-0,091	-0,012
-324,358	164,967	-0,040	-0,041
-323,343	-77,427	0,106	-0,026
-322,329	-200,000	0,006	0,021
-321,314	-64,632	-0,133	0,038
-320,299	197,180	0,038	0,041
-319,285	-111,269	0,139	0,020
-318,270	276,162	-0,046	-0,059
-317,256	-75,480	0,145	-0,037
-316,241	90,888	0,054	-0,044
-315,226	-51,342	0,052	0,017
-314,212	-200,000	-0,016	0,074
-313,197	-74,545	0,072	-0,018
-312,183	-32,027	-0,143	0,057
-311,168	800,000	-0,023	0,058
-310,153	-200,000	0,002	-0,156
-309,139	-9,492	-0,015	0,007
-308,124	-111,879	0,043	0,006
-307,110	319,750	0,030	0,041
-306,095	45,652	-0,071	-0,047
-305,080	92,699	0,043	-0,035
-304,066	-148,031	-0,092	0,005
-303,051	800,000	0,065	-0,156
-302,037	-95,181	-0,045	-0,009
-301,022	387,690	0,018	0,026
-300,008	104,618	0,059	0,050
-298,993	-200,000	0,013	0,157
-297,978	137,829	-0,129	-0,120
-296,964	800,000	-0,036	0,106
-295,949	30,626	0,062	-0,038
-294,935	53,577	-0,021	-0,015
-293,920	800,000	-0,039	-0,117
-292,905	75,923	0,070	-0,053
-291,891	-56,328	0,122	-0,038
-290,876	246,541	0,063	-0,077
-289,862	-37,617	0,061	-0,023
-288,847	-145,650	-0,057	-0,004
-287,832	-43,073	0,110	-0,039
-286,818	-200,000	-0,006	-0,210
-285,803	98,411	0,097	-0,080
-284,789	670,938	0,066	-0,123
-283,774	-200,000	-0,030	0,101
-282,759	196,890	0,023	-0,025
-281,745	129,161	-0,060	-0,055
-280,730	-58,245	-0,058	0,018
-279,716	201,486	-0,074	0,082
-278,701	-38,806	0,235	0,088
-277,686	180,763	-0,082	0,086
-276,672	-117,788	0,050	0,006
-275,657	68,398	0,047	-0,034
-274,643	-112,555	-0,072	-0,010
-273,628	568,746	-0,010	-0,018
-272,613	611,323	0,047	-0,084
-271,599	-168,548	0,044	0,001
-270,584	468,575	0,050	0,081
-269,570	81,450	-0,055	0,043
-268,555	360,914	-0,108	0,155
-267,540	71,799	0,070	0,052
-266,526	-114,635	-0,040	-0,005
-265,511	800,000	-0,010	-0,025
-264,497	800,000	-0,013	-0,035
-263,482	-20,780	0,061	-0,027
-262,467	264,775	-0,055	0,069
-261,453	469,031	-0,030	0,049
-260,438	-200,000	-0,007	-0,116
-259,424	162,626	0,055	-0,055
-258,409	800,000	0,036	-0,077
-257,395	686,786	-0,009	-0,017
-256,380	-200,000	-0,017	0,058
-255,365	125,033	0,088	0,079
-254,351	47,891	-0,072	-0,048
-253,336	133,899	-0,057	-0,052
-252,322	203,019	-0,073	0,080
-251,307	-200,000	0,012	-0,099
-250,292	490,232	-0,086	-0,140
-249,278	-105,818	-0,106	0,017
-248,263	687,195	-0,002	0,004
-247,249	-200,000	-0,003	0,056
-246,234	-65,091	0,088	-0,025
-245,219	-153,348	-0,121	0,006
-244,205	258,091	0,031	-0,038
-243,190	22,106	0,062	0,036
-242,176	-200,000	-0,023	-0,096
-241,161	-114,913	0,170	0,023
-240,146	-79,802	-0,187	-0,044
-239,132	194,330	0,091	-0,099
-238,117	800,000	0,021	-0,053
-237,103	-32,643	-0,108	0,043
-236,088	800,000	0,055	0,135
-235,073	800,000	-0,032	0,067
-234,059	-200,000	-0,029	-0,115
-233,044	118,940	-0,087	-0,077
-232,030	-200,000	-0,032	0,166
-231,015	-200,000	-0,010	-0,057
-230,000	800,000	0,013	-0,039
-228,986	-200,000	0,001	-0,008
-227,971	-153,954	-0,099	0,005
-226,957	800,000	-0,027	0,083
-225,942	-200,000	-0,013	-0,042
-224,927	-77,952	0,088	0,021
-223,913	792,830	-0,097	-0,192
-222,898	1,550	-0,115	-0,059
-221,884	4,216	0,098	-0,051
-220,869	72,149	-0,088	0,065
-219,855	62,291	0,104	-0,074
-218,840	-200,000	-0,004	0,210
-217,825	-200,000	0,023	0,079
-216,811	179,244	-0,080	-0,084
-215,796	-96,801	-0,088	-0,016
-214,782	-200,000	-0,014	-0,116
-213,767	271,082	0,087	-0,110
-212,752	114,345	0,037	-0,032
-211,738	-200,000	0,009	-0,059
-210,723	-131,867	0,042	0,004
-209,709	-200,000	0,021	0,100
-208,694	-32,646	-0,042	0,017
-207,679	-25,651	0,134	0,056
-206,665	-68,997	0,173	-0,047
-205,650	322,009	0,079	-0,107
-204,636	-200,000	-0,019	-0,068
-203,621	-83,624	-0,165	-0,037
-202,606	800,000	-0,027	-0,062
-201,592	366,676	-0,060	-0,086
-200,577	-27,807	0,065	-0,027
-199,563	-106,697	-0,045	-0,007
-198,548	-179,178	0,085	-0,001
-197,533	800,000	0,037	0,108
-196,519	624,833	-0,044	-0,079
-195,504	253,227	-0,095	0,116
-194,490	800,000	-0,044	0,110
-193,475	61,382	-0,135	-0,095
-192,460	442,846	-0,026	0,041
-191,446	-200,000	-0,004	0,076
-190,431	-200,000	-0,015	0,095
-189,417	2,981	-0,044	0,023
-188,402	-123,940	-0,095	0,011
-187,387	-69,654	-0,092	0,025
-186,373	-200,000	0,009	-0,146
-185,358	-152,688	0,168	-0,008
-184,344	-200,000	0,019	-0,083
-183,329	800,000	-0,031	-0,088
-182,315	93,560	0,124	0,100
-181,300	-200,000	-0,021	-0,093
-180,285	-200,000	0,023	-0,163
-179,271	-127,046	0,015	-0,002
-178,256	-36,846	0,063	-0,024
-177,242	-127,710	0,170	-0,017
-176,227	621,481	-0,070	-0,125
-175,212	-91,759	-0,092	0,018
-174,198	462,976	-0,060	0,096
-173,183	-54,746	0,040	-0,013
-172,169	-200,000	0,011	-0,083
-171,154	48,759	-0,049	-0,033
-170,139	-35,932	0,171	-0,065
-169,125	-47,044	-0,129	0,045
-168,110	800,000	-0,044	-0,096
-167,096	-200,000	-0,006	-0,076
-166,081	-14,704	0,096	-0,044
-165,066	721,232	-0,061	-0,116
-164,052	493,590	0,033	-0,053
-163,037	-83,871	0,157	0,035
-162,023	-200,000	-0,007	-0,076
-161,008	-200,000	0,013	-0,056
-159,993	-71,231	0,100	-0,026
-158,979	51,820	-0,093	-0,063
-157,964	47,035	-0,037	-0,024
-156,950	226,295	0,055	-0,063
-155,935	-60,103	-0,048	-0,014
-154,920	-200,000	0,005	0,067
-153,906	800,000	-0,064	0,158
-152,891	783,780	-0,008	-0,016
-151,877	129,648	-0,095	-0,087
-150,862	-93,418	0,021	-0,004
-149,847	238,869	-0,014	0,016
-148,833	-200,000	-0,001	-0,146
-147,818	124,610	0,072	0,064
-146,804	800,000	-0,005	0,012
-145,789	356,474	0,056	-0,080
-144,775	334,898	0,055	0,075
-143,760	120,445	-0,123	-0,109
-142,745	85,639	0,029	-0,022
-141,731	-83,621	-0,076	0,017
-140,716	-200,000	0,005	0,124
-139,702	-200,000	-0,037	0,138
-138,687	604,579	0,057	0,102
-137,672	364,192	-0,131	0,187
-136,658	-97,324	-0,093	0,017
-135,643	243,650	0,066	0,078
-134,629	-200,000	-0,030	0,111
-133,614	663,247	-0,110	0,202
-132,599	83,902	0,031	-0,024
-131,585	-31,234	0,106	0,042
-130,570	-200,000	0,009	0,035
-129,556	-200,000	0,006	-0,078
-128,541	122,925	-0,122	-0,109
-127,526	34,256	0,026	0,016
-126,512	-164,401	0,110	-0,004
-125,497	233,310	0,039	-0,045
-124,483	-2,238	0,031	-0,015
-123,468	-112,700	-0,045	-0,006
-122,453	800,000	0,032	-0,084
-121,439	-28,793	-0,092	0,038
-120,424	-200,000	0,031	-0,125
-119,410	-73,349	0,049	0,013
-118,395	-112,200	0,031	0,004
-117,380	-37,198	0,046	0,017
-116,366	-200,000	0,011	-0,064
-115,351	398,323	-0,033	-0,049
-114,337	-200,000	-0,048	0,000
-113,322	167,473	0,029	0,029
-112,307	606,077	0,031	0,055
-111,293	800,000	-0,021	-0,043
-110,278	64,580	0,101	-0,072
-109,264	-200,000	0,001	0,016
-108,249	-200,000	-0,002	0,042
-107,234	460,878	-0,045	0,071
-106,220	-200,000	0,015	-0,094
-105,205	-136,465	0,115	-0,009
-104,191	800,000	-0,013	0,028
-103,176	-132,467	0,077	-0,007
-102,162	-6,082	-0,037	0,018
-101,147	-200,000	0,146	0,000
-100,132	24,811	-0,221	-0,130
-99,118	-39,391	0,046	-0,017
-98,103	-200,000	0,005	-0,065
-97,089	-115,238	0,026	0,003
-96,074	800,000	-0,046	-0,125
-95,059	-37,819	0,143	0,054
-94,045	-200,000	0,017	-0,116
-93,030	-200,000	0,015	0,080
-92,016	441,667	0,035	-0,055
-91,001	85,187	-0,039	0,030
-89,986	-200,000	-0,012	-0,113
-88,972	129,294	-0,146	-0,133
-87,957	96,393	-0,071	-0,058
-86,943	-200,000	0,110	-0,000
-85,928	486,581	-0,023	0,037
-84,913	800,000	-0,032	0,084
-83,899	-95,170	-0,158	-0,030
-82,884	13,880	0,045	-0,025
-81,870	800,000	0,034	0,097
-80,855	251,895	0,098	0,119
-79,840	400,726	-0,063	-0,093
-78,826	152,304	-0,078	0,075
-77,811	-200,000	0,018	-0,084
-76,797	185,828	-0,107	0,113
-75,782	145,906	0,085	-0,081
-74,767	-200,000	-0,015	0,113
-73,753	161,115	0,062	-0,062
-72,738	-200,000	-0,025	-0,162
-71,724	800,000	0,051	0,108
-70,709	646,304	0,067	-0,121
-69,694	-45,214	-0,198	-0,069
-68,680	-200,000	-0,003	-0,009
-67,665	149,683	-0,060	0,058
-66,651	15,760	-0,086	0,048
-65,636	-200,000	0,025	0,084
-64,622	800,000	0,046	0,110
-63,607	7,815	0,086	-0,046
-62,592	141,687	0,069	0,065
-61,578	332,536	0,041	-0,056
-60,563	65,564	0,089	0,064
-59,549	307,178	0,048	0,064
-58,534	85,113	-2,642	-2,049
-57,519	187,606	0,325	-0,344
-56,505	-200,000	-1,686	-5,407
-55,490	277,796	1,052	1,328
-54,476	800,000	5,477	12,020
-53,461	-200,000	21,659	346,420
-52,446	800,000	764,838	2328,866
-51,432	529,591	1663,100	2788,865
-50,417	69,085	1671,656	1214,051
-49,403	15,964	1591,024	883,805
-48,388	10,725	1543,886	830,694
-47,373	18,665	1537,658	867,855
-46,359	14,101	1526,648	838,501
-45,344	9,277	1522,356	811,660
-44,330	9,180	1520,257	810,016
-43,315	9,106	1518,807	808,835
-42,300	9,113	1517,135	807,949
-41,286	9,089	1515,560	806,954
-40,271	9,115	1513,845	806,141
-39,257	9,139	1512,248	805,381
-38,242	9,119	1511,097	804,635
-37,227	9,084	1509,805	803,739
-36,213	9,106	1508,279	803,007
-35,198	9,144	1507,112	802,543
-34,184	9,147	1505,803	801,831
-33,169	9,108	1504,256	800,780
-32,154	9,122	1502,796	800,042
-31,140	9,164	1501,372	799,459
-30,125	9,181	1500,082	798,829
-29,111	9,160	1498,796	798,008
-28,096	9,163	1497,758	797,435
-27,082	9,120	1496,905	796,734
-26,067	9,105	1495,583	795,925
-25,052	9,116	1494,405	795,324
-24,038	9,088	1493,133	794,475
-23,023	9,079	1492,194	793,898
-22,009	9,134	1491,347	793,690
-20,994	9,130	1490,268	793,063
-19,979	9,105	1489,184	792,334
-18,965	9,108	1488,247	791,817
-17,950	9,114	1487,267	791,292
-16,936	9,100	1486,303	790,678
-15,921	9,086	1484,937	789,850
-14,906	9,009	1483,989	788,937
-13,892	9,018	1482,850	788,345
-12,877	8,986	1482,092	787,751
-11,863	8,984	1481,015	787,136
-10,848	9,020	1480,225	786,865
-9,833	9,077	1479,196	786,567
-8,819	9,103	1478,079	786,068
-7,804	9,018	1477,257	785,182
-6,790	9,014	1476,563	784,763
-5,775	9,072	1475,457	784,429
-4,760	9,081	1474,534	783,950
-3,746	9,049	1473,285	783,100
-2,731	8,905	1472,445	781,915
-1,717	8,829	1471,262	780,884
-0,702	8,882	1470,295	780,600
0,313	8,729	1468,863	780,269
1,327	12,467	1466,568	797,247
2,342	21,666	1226,793	704,214
3,356	17,661	687,977	385,783
4,371	-10,385	464,779	216,974
5,386	-13,647	437,300	199,311
6,400	-14,800	428,565	193,643
7,415	-14,402	424,711	192,455
8,429	-15,953	422,008	189,001
9,444	-16,097	420,497	188,103
10,459	-16,258	419,452	187,391
11,473	-16,289	418,428	186,873
12,488	-16,332	417,358	186,317
13,502	-16,421	416,549	185,815
14,517	-16,601	415,805	185,213
15,531	-16,891	415,086	184,470
16,546	-16,843	414,236	184,143
17,561	-16,973	413,742	183,726
18,575	-16,991	413,046	183,375
19,590	-17,044	412,532	183,056
20,604	-16,915	412,028	182,995
21,619	-17,036	411,537	182,593
22,634	-17,118	411,067	182,255
23,648	-17,105	410,411	181,965
24,663	-17,031	409,972	181,857
25,677	-17,078	409,654	181,635
26,692	-17,098	409,209	181,394
27,707	-17,176	408,745	181,064
28,721	-17,167	408,334	180,879
29,736	-17,016	407,767	180,819
30,750	-17,069	407,467	180,597
31,765	-17,128	407,013	180,298
32,780	-17,043	406,610	180,220
33,794	-17,210	406,285	179,831
34,809	-17,090	405,841	179,783
35,823	-17,143	405,651	179,611
36,838	-17,118	405,037	179,357
37,853	-17,069	404,553	179,194
38,867	-17,222	404,381	178,893
39,882	-17,256	403,983	178,654
40,896	-17,031	403,450	178,708
41,911	-17,146	403,066	178,367
42,926	-17,309	402,880	178,047
43,940	-17,166	402,302	177,969
44,955	-17,184	401,976	177,786
45,969	-17,185	401,555	177,581
46,984	-17,346	401,327	177,248
47,999	-17,351	401,075	177,114
49,013	-17,393	400,533	176,801
50,028	-17,345	400,117	176,667
51,042	-17,444	399,858	176,404
52,057	-17,502	399,426	176,120
53,071	-17,557	399,098	175,885
54,086	-17,411	398,820	175,942
55,101	-17,227	398,452	176,012
56,115	-17,141	398,312	176,050
57,130	-17,002	397,895	176,035
58,144	-16,815	397,726	176,195
59,159	-16,891	397,251	175,868
60,174	-16,806	396,955	175,835
61,188	-16,822	396,604	175,642
62,203	-16,951	396,176	175,265
63,217	-16,969	395,810	175,063
64,232	-16,934	395,407	174,917
65,247	-16,740	395,251	175,089
66,261	-17,034	394,880	174,519
67,276	-17,152	394,251	174,069
68,290	-17,147	393,947	173,926
69,305	-17,278	393,771	173,660
70,320	-17,155	393,287	173,593
71,334	-16,973	392,994	173,689
72,349	-16,943	392,834	173,642
73,363	-16,848	392,604	173,649
74,378	-16,874	392,020	173,342
75,393	-16,848	391,793	173,260
76,407	-16,809	391,328	173,091
77,422	-16,926	390,997	172,775
78,436	-16,799	390,765	172,824
79,451	-16,778	390,387	172,669
80,466	-16,950	389,995	172,255
81,480	-17,098	389,632	171,885
82,495	-17,143	389,522	171,763
83,509	-17,131	389,236	171,637
84,524	-17,054	388,590	171,437
85,539	-17,227	388,370	171,100
86,553	-17,076	387,904	171,076
87,568	-17,187	387,743	170,844
88,582	-17,120	387,483	170,802
89,597	-17,204	387,227	170,565
90,611	-16,984	387,065	170,763
91,626	-16,941	386,710	170,648
92,641	-16,882	386,244	170,503
93,655	-17,006	385,889	170,171
94,670	-17,106	385,810	169,991
95,684	-17,030	385,243	169,826
96,699	-16,975	385,031	169,787
97,714	-17,091	384,702	169,477
98,728	-17,069	384,373	169,346
99,743	-17,195	384,132	169,062
100,757	-17,284	383,713	168,749
101,772	-17,138	383,553	168,851
102,787	-17,050	383,068	168,735
103,801	-16,979	382,833	168,707
104,816	-16,897	382,753	168,762
105,830	-16,876	382,303	168,576
106,845	-16,880	382,050	168,444
107,860	-16,742	381,798	168,494
108,874	-16,915	381,425	168,094
109,889	-16,842	381,277	168,107
110,903	-16,900	380,862	167,834
111,918	-16,839	380,666	167,811
112,933	-16,722	380,172	167,728
113,947	-16,669	379,879	167,651
114,962	-16,741	379,814	167,516
115,976	-16,784	379,464	167,292
116,991	-16,850	379,131	167,046
118,006	-16,795	378,835	166,971
119,020	-16,644	378,584	167,037
120,035	-16,817	378,445	166,742
121,049	-16,836	378,147	166,571
122,064	-16,720	377,742	166,524
123,079	-16,806	377,490	166,290
124,093	-16,784	376,966	166,072
125,108	-17,028	376,723	165,642
126,122	-17,040	376,346	165,447
127,137	-17,200	376,091	165,118
128,151	-17,117	375,654	165,016
129,166	-16,906	375,367	165,140
130,181	-17,021	375,187	164,902
131,195	-16,985	374,916	164,813
132,210	-16,934	374,738	164,785
133,224	-16,856	374,486	164,756
134,239	-16,664	374,100	164,812
135,254	-16,669	373,772	164,647
136,268	-16,850	373,582	164,322
137,283	-17,026	373,097	163,875
138,297	-16,976	372,692	163,745
139,312	-17,016	372,497	163,595
140,327	-16,724	372,351	163,880
141,341	-16,698	372,151	163,809
142,356	-16,540	371,971	163,912
143,370	-16,552	371,700	163,763
144,385	-16,615	371,342	163,512
145,400	-16,723	371,002	163,214
146,414	-16,481	370,678	163,356
147,429	-16,604	370,549	163,133
148,443	-16,573	370,160	162,985
149,458	-16,650	369,925	162,772
150,473	-16,606	369,734	162,728
151,487	-16,635	369,472	162,562
152,502	-16,728	369,110	162,274
153,516	-16,677	368,800	162,186
154,531	-16,581	368,565	162,187
155,546	-16,604	368,280	162,018
156,560	-16,527	368,071	162,006
157,575	-16,683	367,727	161,649
158,589	-16,421	367,428	161,824
159,604	-16,620	367,231	161,479
160,619	-16,422	366,791	161,513
161,633	-16,616	366,664	161,207
162,648	-16,535	366,605	161,265
163,662	-16,506	366,097	161,063
164,677	-16,538	366,057	160,991
165,692	-16,477	365,815	160,945
166,706	-16,483	365,663	160,856
167,721	-16,587	365,291	160,552
168,735	-16,398	365,142	160,702
169,750	-16,517	364,888	160,432
170,764	-16,367	364,454	160,409
171,779	-16,427	364,476	160,330
172,794	-16,395	364,028	160,159
173,808	-16,466	363,673	159,902
174,823	-16,885	363,361	159,244
175,837	-16,882	363,134	159,133
176,852	-16,507	362,846	159,446
177,867	-16,476	362,813	159,455
178,881	-16,425	362,545	159,384
179,896	-16,503	362,328	159,180
180,910	-16,459	362,135	159,135
181,925	-16,381	361,700	159,022
182,940	-16,417	361,513	158,883
183,954	-16,335	361,226	158,842
184,969	-16,447	361,083	158,630
185,983	-16,382	360,830	158,583
186,998	-16,447	360,585	158,383
188,013	-16,490	360,227	158,160
189,027	-16,408	359,954	158,125
190,042	-16,306	359,627	158,088
191,056	-16,245	359,518	158,099
192,071	-16,198	359,405	158,091
193,086	-16,140	359,109	158,017
194,100	-15,589	359,108	158,660
195,115	-14,940	359,255	159,485
196,129	-13,791	359,820	161,096
197,144	-9,796	361,574	166,663
198,159	-6,592	363,205	171,258
199,173	-3,701	364,156	175,176
200,188	-3,365	364,211	175,590
201,202	-3,208	364,001	175,663
202,217	-3,005	363,742	175,766
203,232	-2,849	363,728	175,931
204,246	-2,631	363,454	176,045
205,261	-2,518	363,321	176,100
206,275	-2,301	363,306	176,338
207,290	-2,315	362,959	176,137
208,304	-2,624	362,574	175,565
209,319	-2,532	362,354	175,552
210,334	-2,561	362,145	175,401
211,348	-2,582	361,967	175,275
212,363	-2,525	361,579	175,138
213,377	-2,453	361,496	175,169
214,392	-2,365	361,168	175,098
215,407	-2,231	361,085	175,202
216,421	-2,178	360,898	175,159
217,436	-2,186	360,483	174,933
218,450	-2,357	360,157	174,557
219,465	-2,569	360,055	174,239
220,480	-2,455	359,767	174,220
221,494	-2,184	359,634	174,460
222,509	-2,215	359,538	174,362
223,523	-2,169	359,236	174,255
224,538	-2,370	358,819	173,799
225,553	-2,314	358,626	173,756
226,567	-2,299	358,588	173,740
227,582	-1,999	358,323	173,950
228,596	-1,969	358,110	173,867
229,611	-1,962	357,683	173,652
230,626	-2,393	357,585	173,081
231,640	-2,284	357,421	173,115
232,655	-2,235	357,203	173,052
233,669	-2,038	357,043	173,191
234,684	-2,030	356,778	173,056
235,699	-1,911	356,326	172,961
236,713	-2,410	356,017	172,210
237,728	-2,285	355,849	172,260
238,742	-2,331	355,506	172,025
239,757	-2,366	355,246	171,843
240,772	-2,204	354,900	171,849
241,786	-2,280	354,935	171,762
242,801	-2,260	354,608	171,612
243,815	-2,051	354,301	171,692
244,830	-2,319	354,212	171,321
245,844	-2,191	353,931	171,319
246,859	-2,355	353,631	170,967
247,874	-2,313	353,519	170,947
248,888	-2,268	353,335	170,895
249,903	-2,098	353,085	170,957
250,917	-2,121	352,788	170,771
251,932	-2,310	352,799	170,541
252,947	-2,269	352,395	170,378
253,961	-2,286	352,089	170,196
254,976	-2,358	351,967	170,038
255,990	-2,336	351,700	169,919
257,005	-2,405	351,425	169,692
258,020	-2,185	351,257	169,849
259,034	-2,093	350,886	169,761
260,049	-2,226	350,811	169,556
261,063	-2,304	350,517	169,310
262,078	-2,123	350,280	169,388
263,093	-2,019	350,211	169,460
264,107	-1,966	349,908	169,358
265,122	-2,095	349,612	169,052
266,136	-2,144	349,529	168,941
267,151	-2,068	349,232	168,869
268,166	-2,388	348,886	168,321
269,180	-2,265	348,466	168,243
270,195	-2,154	348,390	168,319
271,209	-2,217	348,264	168,170
272,224	-2,364	348,117	167,916
273,239	-2,055	347,797	168,100
274,253	-2,109	347,513	167,886
275,268	-2,197	347,296	167,666
276,282	-2,217	347,124	167,546
277,297	-2,085	346,855	167,550
278,312	-2,144	346,769	167,427
279,326	-2,106	346,408	167,281
280,341	-2,363	346,390	166,965
281,355	-2,184	345,895	166,915
282,370	-1,961	345,724	167,071
283,384	-2,084	345,459	166,788
284,399	-1,942	345,178	166,799
285,414	-2,108	345,068	166,543
286,428	-2,056	345,018	166,562
287,443	-1,841	344,772	166,672
288,457	-1,939	344,557	166,443
289,472	-2,162	344,247	166,026
290,487	-2,024	343,823	165,962
291,501	-2,221	343,796	165,713
292,516	-2,116	343,556	165,699
293,530	-2,107	343,434	165,636
294,545	-2,115	343,085	165,445
295,560	-2,049	342,893	165,411
296,574	-1,985	342,648	165,350
297,589	-2,031	342,302	165,117
298,603	-2,128	342,296	164,991
299,618	-2,159	342,072	164,833
300,633	-2,076	341,953	164,854
301,647	-1,786	341,669	165,027
302,662	-1,998	341,477	164,683
303,676	-1,927	341,070	164,551
304,691	-1,953	340,937	164,443
305,706	-1,954	340,697	164,311
306,720	-1,901	340,487	164,254
307,735	-1,982	340,258	164,039
308,749	-1,935	340,137	164,018
309,764	-1,898	339,868	163,916
310,779	-1,928	339,762	163,816
311,793	-1,956	339,467	163,628
312,808	-1,856	339,157	163,575
313,822	-2,039	339,042	163,302
314,837	-1,872	338,719	163,317
315,852	-1,926	338,445	163,111
316,866	-1,809	338,347	163,178
317,881	-2,013	338,190	162,863
318,895	-1,958	337,859	162,749
319,910	-1,951	337,607	162,621
320,925	-1,843	337,273	162,565
321,939	-1,820	337,365	162,620
322,954	-1,750	337,146	162,577
323,968	-1,910	336,970	162,301
324,983	-1,759	336,646	162,297
325,997	-1,739	336,417	162,194
327,012	-1,796	336,196	162,011
328,027	-1,601	335,925	162,080
329,041	-1,776	335,841	161,833
330,056	-1,717	335,407	161,674
331,070	-1,688	335,389	161,682
332,085	-1,803	335,165	161,434
333,100	-1,734	334,812	161,325
334,114	-1,640	334,787	161,401
335,129	-1,751	334,509	161,132
336,143	-1,898	334,394	160,902
337,158	-1,829	333,956	160,751
338,173	-1,810	333,817	160,691
339,187	-1,717	333,611	160,679
340,202	-1,769	333,388	160,501
341,216	-1,843	333,172	160,302
342,231	-1,744	332,938	160,282
343,246	-1,722	332,772	160,212
344,260	-1,765	332,540	160,040
345,275	-1,774	332,325	159,912
346,289	-1,696	332,097	159,872
347,304	-1,809	331,821	159,604
348,319	-1,691	331,551	159,586
349,333	-1,552	331,403	159,652
350,348	-1,713	331,378	159,451
351,362	-1,755	331,082	159,249
352,377	-1,596	330,778	159,260
353,392	-1,633	330,694	159,166
354,406	-1,577	330,574	159,154
355,421	196,644	1326,152	1386,532
356,435	160,932	1447,273	1386,384
