DTS Sentinel unit serial number:	SN410029Multiplexer serial number:	ORYXHardware model number:	OX2-SRSoftware version number:	ORYX F/W v4,00 Oryx Data Collector v3.7.2.0data status	okinstallation	B6 Nyhavnadifferential loss correction	single-endedforward channel	channel 2reverse channel	N/Adate	2023/12/07time	17:50:08forward acquisition time	300,00reverse acquisition time	0,00gamma	499,1914k internal	0,3164k external	0,3164temperature offset calibration	1,0000default loss term (dB/km)	0,3820temperature slope calibration	1,0000multiplexer offset coefficient	1,0000multiplexer slope coefficient	1,0000fibre end	0,00T internal ref (°C)	14,38T ext. ref 1 (°C)	-2,58T ext. ref 2 (°C)	-2,57length (m)	temperature (°C)	Stokes	anti-Stokes-744,400	72,853	0,131	0,100
-743,385	-59,590	-0,315	0,099
-742,371	789,376	0,044	0,088
-741,356	46,542	-0,288	0,196
-740,342	174,354	0,115	0,122
-739,327	-82,523	-0,356	-0,084
-738,312	800,000	0,036	0,093
-737,298	-64,317	-0,406	0,121
-736,283	-137,550	0,148	0,012
-735,269	-89,094	-0,262	-0,056
-734,254	37,680	0,037	0,024
-733,239	96,338	-0,483	-0,407
-732,225	-200,000	0,007	0,041
-731,210	-44,267	-0,024	0,009
-730,196	-200,000	0,006	0,033
-729,181	354,529	0,028	-0,040
-728,167	-108,724	0,082	-0,013
-727,152	4,319	-0,047	-0,026
-726,137	94,793	-0,070	-0,058
-725,123	-200,000	0,001	-0,064
-724,108	337,787	-0,049	-0,070
-723,094	769,240	-0,066	-0,133
-722,079	-34,885	-0,053	-0,021
-721,064	93,089	-0,087	0,072
-720,050	-190,410	-0,086	0,001
-719,035	800,000	0,062	-0,174
-718,021	-200,000	-0,049	0,169
-717,006	-38,638	-0,156	-0,060
-715,991	-200,000	-0,031	-0,115
-714,977	-200,000	0,001	-0,108
-713,962	115,479	-0,073	0,065
-712,948	-200,000	0,033	-0,130
-711,933	16,765	-0,148	-0,086
-710,918	-11,292	0,084	0,041
-709,904	-135,008	-0,048	-0,004
-708,889	-200,000	0,019	-0,084
-707,875	0,123	-0,163	0,085
-706,860	231,229	-0,036	-0,043
-705,845	-183,015	0,179	0,002
-704,831	252,309	0,051	0,064
-703,816	800,000	0,069	0,145
-702,802	-43,398	0,086	-0,032
-701,787	124,461	-0,075	-0,070
-700,772	800,000	0,028	-0,083
-699,758	-103,204	0,118	-0,020
-698,743	-200,000	0,019	0,092
-697,729	136,303	-0,044	-0,042
-696,714	32,533	-0,179	0,113
-695,699	-123,174	0,037	-0,004
-694,685	-55,521	0,062	-0,020
-693,670	-67,737	-0,099	0,028
-692,656	124,025	-0,031	0,028
-691,641	800,000	-0,020	0,048
-690,627	-200,000	-0,013	-0,125
-689,612	473,302	0,060	0,099
-688,597	11,751	0,081	-0,045
-687,583	800,000	-0,054	-0,121
-686,568	255,500	-0,080	0,101
-685,554	-55,643	-0,108	-0,035
-684,539	-63,563	0,114	-0,034
-683,524	-126,423	0,137	-0,015
-682,510	37,473	0,057	-0,037
-681,495	109,779	-0,068	-0,060
-680,481	-161,580	-0,033	-0,001
-679,466	297,256	-0,033	-0,044
-678,451	10,283	-0,077	-0,043
-677,437	-123,777	0,181	-0,021
-676,422	800,000	-0,039	0,086
-675,408	2,219	-0,035	0,019
-674,393	2,882	-0,052	0,028
-673,378	-200,000	0,004	-0,071
-672,364	800,000	0,008	-0,026
-671,349	487,018	-0,014	-0,024
-670,335	-42,548	-0,064	0,024
-669,320	-200,000	-0,006	0,100
-668,305	9,092	0,065	-0,036
-667,291	-200,000	0,011	-0,067
-666,276	750,973	-0,058	0,116
-665,262	-53,551	-0,148	0,049
-664,247	800,000	0,017	-0,043
-663,232	-200,000	-0,001	-0,089
-662,218	-8,631	0,085	0,042
-661,203	-131,313	0,062	-0,006
-660,189	-152,692	-0,162	-0,008
-659,174	-200,000	-0,014	-0,094
-658,159	354,404	-0,036	0,053
-657,145	36,613	-0,099	-0,064
-656,130	44,160	0,073	0,049
-655,116	107,958	0,043	0,037
-654,101	89,495	0,094	0,077
-653,086	-122,130	-0,122	-0,014
-652,072	476,459	-0,010	-0,017
-651,057	166,727	0,078	-0,081
-650,043	222,868	-0,095	0,112
-649,028	41,570	0,057	-0,038
-648,014	-200,000	-0,018	-0,150
-646,999	307,548	0,079	0,109
-645,984	-89,235	-0,087	0,019
-644,970	19,202	-0,067	-0,039
-643,955	173,789	-0,043	-0,045
-642,941	-117,764	-0,153	-0,020
-641,926	132,553	-0,039	-0,037
-640,911	-200,000	-0,006	0,074
-639,897	333,520	0,021	0,030
-638,882	-39,968	0,113	-0,043
-637,868	800,000	-0,031	0,064
-636,853	-181,764	-0,096	0,001
-635,838	119,118	0,043	-0,039
-634,824	-143,320	0,133	0,009
-633,809	-200,000	0,001	-0,010
-632,795	196,767	0,075	0,084
-631,780	800,000	0,016	-0,051
-630,765	118,532	-0,115	-0,104
-629,751	-17,962	-0,198	-0,091
-628,736	332,171	0,039	-0,055
-627,722	278,422	0,091	0,118
-626,707	-21,153	0,027	-0,012
-625,692	95,536	0,055	0,046
-624,678	121,684	0,053	-0,048
-623,663	745,775	0,008	-0,015
-622,649	33,677	0,020	-0,013
-621,634	290,826	0,089	-0,119
-620,619	800,000	0,017	-0,037
-619,605	-200,000	0,011	-0,130
-618,590	256,318	-0,052	-0,065
-617,576	107,956	-0,036	0,032
-616,561	-113,341	-0,031	0,004
-615,546	19,692	0,089	0,052
-614,532	-200,000	-0,051	0,000
-613,517	188,517	-0,047	-0,051
-612,503	-62,324	0,034	0,010
-611,488	219,353	0,025	0,029
-610,474	800,000	-0,027	0,075
-609,459	-6,412	-0,045	0,022
-608,444	-37,040	-0,051	-0,020
-607,430	-42,286	0,063	0,023
-606,415	108,924	-0,067	-0,059
-605,401	-200,000	0,015	-0,137
-604,386	800,000	-0,021	-0,054
-603,371	-130,378	0,122	0,012
-602,357	-151,917	0,051	-0,003
-601,342	707,541	0,025	-0,048
-600,328	-200,000	0,006	-0,146
-599,313	-128,143	0,078	-0,008
-598,298	22,764	0,095	0,057
-597,284	-177,400	-0,085	0,001
-596,269	44,052	0,148	0,099
-595,255	-82,223	-0,079	0,019
-594,240	-33,436	0,079	-0,032
-593,225	-200,000	0,001	0,011
-592,211	800,000	0,030	0,083
-591,196	800,000	0,026	-0,061
-590,182	6,042	-0,064	0,035
-589,167	800,000	-0,025	-0,079
-588,152	-24,302	-0,026	-0,011
-587,138	-140,046	-0,073	-0,006
-586,123	-200,000	0,013	0,071
-585,109	-72,687	-0,158	0,042
-584,094	-31,937	-0,078	0,032
-583,079	333,423	0,029	0,041
-582,065	-116,954	-0,098	0,013
-581,050	435,618	-0,069	0,110
-580,036	-148,358	0,044	0,003
-579,021	63,364	-0,055	-0,041
-578,006	-92,992	-0,086	-0,017
-576,992	55,136	0,109	-0,077
-575,977	-125,491	0,107	0,012
-574,963	800,000	0,119	0,249
-573,948	136,209	-0,089	0,085
-572,934	800,000	0,028	-0,083
-571,919	800,000	0,056	-0,124
-570,904	63,914	0,069	-0,050
-569,890	-200,000	-0,017	-0,084
-568,875	-58,723	0,065	0,020
-567,861	110,833	-0,115	0,101
-566,846	679,306	-0,018	0,034
-565,831	-23,824	-0,071	-0,031
-564,817	-65,812	-0,247	-0,072
-563,802	-200,000	-0,031	-0,125
-562,788	220,733	0,096	0,113
-561,773	24,849	-0,078	-0,047
-560,758	284,115	0,026	0,034
-559,744	344,363	0,053	-0,076
-558,729	-46,621	0,099	-0,035
-557,715	35,621	0,043	0,027
-556,700	56,993	0,080	-0,057
-555,685	800,000	-0,044	-0,097
-554,671	542,466	0,068	-0,118
-553,656	-200,000	-0,002	0,031
-552,642	379,913	0,056	-0,084
-551,627	-138,885	-0,108	0,008
-550,612	404,053	-0,095	0,146
-549,598	-95,206	-0,103	-0,020
-548,583	-4,544	0,043	-0,022
-547,569	-200,000	-0,024	0,154
-546,554	-105,096	0,161	-0,027
-545,539	-200,000	-0,009	-0,103
-544,525	-44,549	-0,080	-0,029
-543,510	-138,875	-0,006	0,000
-542,496	24,576	-0,046	-0,028
-541,481	322,494	0,028	0,040
-540,466	-200,000	0,012	-0,077
-539,452	78,371	-0,182	-0,142
-538,437	747,822	-0,038	-0,075
-537,423	-47,576	-0,021	0,007
-536,408	-200,000	-0,025	0,080
-535,393	-13,643	-0,048	0,023
-534,379	352,632	0,018	-0,026
-533,364	651,038	-0,016	0,030
-532,350	453,590	0,037	0,060
-531,335	800,000	0,032	0,080
-530,321	676,004	-0,088	-0,168
-529,306	-24,614	-0,105	-0,046
-528,291	-148,283	-0,071	0,004
-527,277	117,419	-0,020	-0,018
-526,262	800,000	-0,044	0,109
-525,248	-91,714	0,140	0,029
-524,233	800,000	0,011	-0,035
-523,218	-56,935	-0,101	-0,032
-522,204	567,339	-0,076	-0,135
-521,189	-31,670	-0,068	-0,028
-520,175	-129,878	0,055	-0,005
-519,160	51,671	0,029	-0,020
-518,145	-200,000	0,012	0,100
-517,131	-69,122	-0,134	-0,037
-516,116	800,000	0,061	0,142
-515,102	9,329	0,148	0,081
-514,087	-200,000	0,015	0,158
-513,072	-63,386	-0,173	0,051
-512,058	4,335	-0,031	-0,016
-511,043	-38,259	-0,125	0,048
-510,029	209,765	-0,026	-0,029
-509,014	324,760	0,039	-0,055
-507,999	-71,834	0,104	0,028
-506,985	-102,291	-0,072	0,012
-505,970	-189,326	0,023	0,000
-504,956	411,855	0,034	-0,053
-503,941	-63,572	0,069	0,020
-502,926	190,270	0,096	0,106
-501,912	-79,422	0,042	-0,010
-500,897	-26,072	-0,190	-0,081
-499,883	-152,898	0,226	-0,011
-498,868	-67,470	-0,078	0,022
-497,853	800,000	0,031	0,066
-496,839	466,686	-0,058	-0,095
-495,824	190,573	0,082	0,090
-494,810	216,894	-0,013	-0,016
-493,795	274,703	-0,047	-0,061
-492,781	800,000	0,025	-0,052
-491,766	800,000	0,080	-0,186
-490,751	-143,834	-0,114	-0,008
-489,737	659,804	-0,078	0,147
-488,722	91,837	0,097	0,079
-487,708	366,850	0,009	-0,014
-486,693	-200,000	0,025	0,151
-485,678	54,239	0,024	-0,017
-484,664	800,000	0,020	-0,062
-483,649	123,033	-0,020	0,018
-482,635	258,393	0,031	-0,039
-481,620	419,266	0,018	0,027
-480,605	-200,000	0,007	0,047
-479,591	-200,000	0,015	0,069
-478,576	800,000	0,049	-0,106
-477,562	92,350	0,114	-0,093
-476,547	-117,298	-0,090	-0,012
-475,532	476,410	-0,061	0,101
-474,518	25,664	0,071	-0,043
-473,503	800,000	0,049	-0,131
-472,489	-200,000	-0,025	-0,112
-471,474	800,000	0,013	-0,030
-470,459	-31,223	0,029	-0,012
-469,445	-95,623	-0,167	0,032
-468,430	213,892	0,063	-0,073
-467,416	301,794	0,045	-0,061
-466,401	317,822	0,028	-0,039
-465,386	-200,000	0,001	-0,007
-464,372	-200,000	-0,005	-0,121
-463,357	126,735	-0,015	0,014
-462,343	-200,000	0,005	0,029
-461,328	-74,031	0,024	-0,006
-460,313	6,888	-0,133	0,072
-459,299	-89,585	0,089	0,019
-458,284	19,795	0,181	-0,106
-457,270	224,065	0,035	-0,041
-456,255	800,000	-0,045	0,129
-455,241	66,607	-0,120	0,089
-454,226	-88,039	0,104	-0,022
-453,211	-105,431	0,022	0,004
-452,197	-89,126	0,075	-0,016
-451,182	170,386	0,038	-0,040
-450,168	211,307	0,100	-0,115
-449,153	56,450	-0,039	0,028
-448,138	14,053	-0,062	-0,035
-447,124	-200,000	-0,016	-0,079
-446,109	800,000	-0,011	-0,028
-445,095	665,085	-0,048	-0,090
-444,080	51,889	0,083	-0,057
-443,065	451,253	-0,027	0,044
-442,051	-87,134	-0,044	0,010
-441,036	-32,384	0,104	0,042
-440,022	-141,771	-0,138	-0,010
-439,007	575,447	-0,008	0,015
-437,992	-43,297	0,099	0,036
-436,978	-200,000	0,059	0,000
-435,963	800,000	-0,033	-0,073
-434,949	-200,000	-0,013	0,065
-433,934	-200,000	-0,019	-0,096
-432,919	800,000	0,022	0,055
-431,905	216,397	0,039	0,045
-430,890	12,185	0,042	-0,023
-429,876	-200,000	0,010	-0,037
-428,861	546,493	-0,035	0,061
-427,846	166,586	0,086	0,088
-426,832	-59,320	0,111	-0,035
-425,817	-200,000	0,015	0,050
-424,803	302,938	-0,010	0,014
-423,788	-133,800	0,024	0,002
-422,773	-98,362	0,025	-0,005
-421,759	80,933	-0,035	0,027
-420,744	261,364	-0,041	0,052
-419,730	-95,535	-0,108	0,021
-418,715	-200,000	0,004	-0,026
-417,701	130,256	-0,062	-0,058
-416,686	-20,150	-0,056	-0,025
-415,671	-82,851	0,101	-0,023
-414,657	-200,000	0,014	0,115
-413,642	653,195	-0,053	-0,100
-412,628	342,100	-0,028	0,040
-411,613	582,659	-0,035	-0,063
-410,598	-200,000	-0,014	-0,134
-409,584	-120,950	-0,026	-0,003
-408,569	599,188	-0,045	0,081
-407,555	-200,000	0,001	0,047
-406,540	4,040	0,157	-0,083
-405,525	-27,389	-0,235	-0,099
-404,511	-128,337	0,055	0,006
-403,496	476,812	0,058	-0,095
-402,482	-200,000	0,002	-0,079
-401,467	410,663	0,058	-0,090
-400,452	-182,856	0,244	0,003
-399,438	322,347	-0,046	0,064
-398,423	122,263	-0,144	0,131
-397,409	239,355	0,078	0,094
-396,394	150,682	-0,188	-0,185
-395,379	762,035	0,064	0,126
-394,365	-141,688	-0,139	-0,010
-393,350	30,809	0,088	0,055
-392,336	-160,407	-0,053	0,002
-391,321	16,433	0,088	-0,051
-390,306	-200,000	-0,000	0,024
-389,292	-146,233	-0,032	-0,002
-388,277	-179,193	-0,077	-0,001
-387,263	-82,906	-0,067	0,016
-386,248	455,256	-0,049	0,079
-385,233	800,000	-0,009	0,019
-384,219	244,531	-0,058	-0,071
-383,204	56,258	-0,063	-0,044
-382,190	166,461	0,022	-0,023
-381,175	114,167	-0,074	-0,066
-380,160	146,028	-0,047	-0,046
-379,146	-200,000	0,004	-0,162
-378,131	800,000	-0,031	-0,082
-377,117	47,019	-0,090	0,061
-376,102	-200,000	0,017	-0,156
-375,088	-12,249	-0,134	-0,063
-374,073	-113,189	-0,102	0,014
-373,058	800,000	0,061	0,193
-372,044	24,467	0,094	0,056
-371,029	-12,679	0,058	0,027
-370,015	-37,821	0,049	-0,019
-369,000	91,097	0,137	-0,111
-367,985	-200,000	-0,014	-0,132
-366,971	639,726	-0,039	-0,073
-365,956	-200,000	0,016	-0,114
-364,942	-200,000	-0,010	0,065
-363,927	-63,213	-0,112	-0,033
-362,912	-200,000	0,007	-0,053
-361,898	-2,700	0,013	0,006
-360,883	-72,325	-0,073	-0,019
-359,869	166,702	0,067	-0,069
-358,854	145,576	-0,037	-0,036
-357,839	-200,000	0,030	0,165
-356,825	-200,000	0,051	0,214
-355,810	295,244	0,106	0,140
-354,796	-161,934	0,067	0,002
-353,781	49,417	0,083	0,057
-352,766	-77,623	-0,083	0,021
-351,752	22,352	-0,068	-0,040
-350,737	18,592	0,138	-0,080
-349,723	-200,000	0,032	0,141
-348,708	-129,032	-0,085	0,009
-347,693	577,756	-0,036	0,064
-346,679	161,738	0,089	-0,090
-345,664	-174,858	-0,104	-0,002
-344,650	798,765	-0,054	0,109
-343,635	99,601	0,029	-0,025
-342,620	-27,446	0,043	-0,018
-341,606	785,898	-0,048	0,095
-340,591	800,000	-0,018	-0,055
-339,577	-27,999	-0,111	-0,046
-338,562	-200,000	0,009	0,058
-337,548	-200,000	0,011	-0,044
-336,533	390,357	0,051	-0,077
-335,518	15,669	-0,133	-0,075
-334,504	-14,758	0,022	0,010
-333,489	-200,000	-0,041	0,179
-332,475	-24,906	0,073	0,031
-331,460	-200,000	0,010	0,151
-330,445	681,654	-0,041	0,078
-329,431	520,141	-0,027	0,046
-328,416	174,112	-0,036	0,037
-327,402	-200,000	0,061	0,215
-326,387	-112,354	-0,062	-0,009
-325,372	-74,101	-0,061	-0,016
-324,358	235,343	0,019	-0,023
-323,343	267,255	0,052	0,067
-322,329	116,431	0,135	0,120
-321,314	-26,006	-0,033	0,014
-320,299	165,798	0,067	-0,069
-319,285	402,059	-0,045	0,069
-318,270	71,580	-0,051	0,039
-317,256	-200,000	0,001	-0,114
-316,241	685,087	0,053	-0,100
-315,226	-200,000	0,010	0,082
-314,212	-138,521	0,042	0,003
-313,197	21,449	0,032	-0,019
-312,183	-113,227	-0,039	-0,005
-311,168	-200,000	0,000	-0,147
-310,153	-10,356	0,115	-0,055
-309,139	-7,954	-0,095	0,046
-308,124	-200,000	-0,012	-0,141
-307,110	713,341	-0,045	-0,087
-306,095	-74,494	-0,056	0,014
-305,080	-188,578	0,072	0,001
-304,066	104,230	-0,073	-0,062
-303,051	333,227	-0,078	-0,109
-302,037	507,743	-0,071	-0,119
-301,022	-116,499	0,128	-0,017
-300,008	-21,199	0,059	-0,026
-298,993	-134,123	0,158	-0,014
-297,978	-200,000	0,010	0,095
-296,964	800,000	0,017	-0,039
-295,949	-200,000	-0,009	0,087
-294,935	-200,000	-0,032	0,109
-293,920	31,965	-0,044	-0,027
-292,905	-200,000	-0,018	-0,068
-291,891	800,000	-0,009	0,028
-290,876	-90,798	-0,036	0,008
-289,862	63,461	-0,011	-0,008
-288,847	399,209	0,033	0,050
-287,832	19,269	0,147	-0,085
-286,818	61,305	-0,078	-0,056
-285,803	800,000	0,023	0,046
-284,789	-129,556	0,069	0,007
-283,774	-36,465	0,076	0,029
-282,759	503,392	-0,088	-0,147
-281,745	-51,827	-0,126	0,042
-280,730	31,256	0,025	0,016
-279,716	753,122	-0,013	-0,025
-278,701	-141,172	0,119	0,009
-277,686	-117,364	0,037	0,005
-276,672	155,676	0,040	0,040
-275,657	148,667	-0,088	-0,086
-274,643	800,000	0,048	0,109
-273,628	-32,975	0,092	0,037
-272,613	800,000	0,050	-0,122
-271,599	648,818	-0,009	-0,017
-270,584	-200,000	-0,012	0,075
-269,570	190,458	-0,094	0,102
-268,555	-200,000	-0,009	-0,054
-267,540	-107,643	0,076	0,012
-266,526	800,000	0,051	0,119
-265,511	-153,594	0,138	-0,007
-264,497	-88,150	0,044	0,009
-263,482	-200,000	0,015	0,131
-262,467	-131,782	0,134	-0,013
-261,453	82,653	-0,041	-0,032
-260,438	-200,000	-0,073	0,286
-259,424	-64,125	0,088	0,026
-258,409	-200,000	0,024	0,115
-257,395	-35,074	0,177	-0,069
-256,380	-50,969	0,042	-0,014
-255,365	-51,424	0,137	0,046
-254,351	-47,077	0,041	-0,014
-253,336	-188,004	-0,057	-0,001
-252,322	441,533	-0,039	0,062
-251,307	-4,294	-0,054	0,027
-250,292	249,329	0,046	-0,057
-249,278	419,982	0,011	0,017
-248,263	218,356	-0,033	-0,038
-247,249	0,749	-0,068	-0,035
-246,234	713,211	0,030	0,057
-245,219	-13,965	-0,011	-0,005
-244,205	-200,000	-0,020	-0,163
-243,190	-78,731	0,146	-0,036
-242,176	-200,000	0,035	0,143
-241,161	-200,000	0,034	0,130
-240,146	-200,000	-0,014	0,116
-239,132	759,021	-0,018	0,036
-238,117	-141,631	-0,063	0,005
-237,103	-91,506	-0,132	-0,027
-236,088	184,011	-0,100	-0,107
-235,073	165,487	0,052	0,053
-234,059	45,450	0,108	-0,072
-233,044	359,154	-0,054	0,078
-232,030	-200,000	0,210	-0,000
-231,015	-200,000	-0,011	-0,065
-230,000	704,296	-0,080	-0,153
-228,986	-71,874	0,071	0,019
-227,971	-200,000	-0,002	0,039
-226,957	800,000	0,023	0,056
-225,942	45,956	-0,054	-0,036
-224,927	-93,212	0,118	0,023
-223,913	-200,000	-0,005	0,129
-222,898	-200,000	0,002	-0,043
-221,884	203,958	-0,054	-0,061
-220,869	800,000	-0,048	0,150
-219,855	-2,805	0,055	0,027
-218,840	589,520	0,080	0,143
-217,825	-200,000	-0,012	0,071
-216,811	-24,631	-0,122	-0,052
-215,796	-62,525	0,046	-0,014
-214,782	-200,000	0,019	0,103
-213,767	295,389	-0,108	-0,143
-212,752	-12,294	0,149	0,070
-211,738	800,000	0,040	0,095
-210,723	800,000	0,029	0,071
-209,709	-101,183	-0,127	0,022
-208,694	-200,000	-0,022	-0,091
-207,679	26,420	-0,116	-0,070
-206,665	151,182	-0,100	0,098
-205,650	11,314	0,019	0,010
-204,636	157,009	0,039	0,039
-203,621	-200,000	-0,006	-0,069
-202,606	1,356	0,094	-0,049
-201,592	-200,000	-0,028	0,095
-200,577	270,737	0,016	0,020
-199,563	-52,609	0,069	0,023
-198,548	17,828	0,124	0,071
-197,533	-200,000	-0,002	-0,077
-196,519	-137,648	-0,131	0,010
-195,504	287,259	-0,060	0,079
-194,490	204,011	0,027	0,030
-193,475	11,837	0,057	0,031
-192,460	-89,927	-0,039	0,008
-191,446	357,025	-0,030	-0,044
-190,431	218,864	-0,073	0,084
-189,417	60,572	-0,113	-0,080
-188,402	-85,490	-0,047	0,010
-187,387	-200,000	0,005	-0,036
-186,373	-200,000	-0,031	-0,107
-185,358	191,976	-0,073	-0,079
-184,344	-56,408	0,140	0,044
-183,329	-200,000	-0,017	0,064
-182,315	-84,788	0,058	0,013
-181,300	-58,363	-0,141	-0,044
-180,285	-200,000	0,011	-0,134
-179,271	118,045	-0,052	-0,046
-178,256	98,069	-0,077	0,064
-177,242	477,882	0,084	-0,138
-176,227	-200,000	0,009	-0,067
-175,212	-53,986	-0,019	-0,006
-174,198	-109,924	-0,070	-0,010
-173,183	-200,000	0,019	0,067
-172,169	223,864	-0,099	0,115
-171,154	-90,178	-0,135	0,028
-170,139	-34,060	0,162	0,064
-169,125	800,000	0,047	-0,095
-168,110	800,000	-0,041	0,117
-167,096	82,528	-0,098	0,076
-166,081	3,615	-0,097	0,051
-165,066	-155,080	0,066	-0,003
-164,052	112,063	0,150	0,131
-163,037	-104,549	0,013	0,002
-162,023	-200,000	-0,013	0,072
-161,008	81,613	0,058	0,045
-159,993	230,552	0,029	-0,034
-158,979	159,571	-0,119	0,120
-157,964	-200,000	-0,004	0,019
-156,950	-28,489	-0,060	0,025
-155,935	300,677	0,084	-0,112
-154,920	-80,747	-0,001	0,000
-153,906	800,000	-0,027	0,054
-152,891	-63,531	0,046	0,013
-151,877	-7,020	-0,101	0,049
-150,862	-200,000	-0,026	-0,083
-149,847	-58,764	0,082	0,025
-148,833	3,979	0,032	0,017
-147,818	-200,000	0,026	0,187
-146,804	800,000	0,026	0,059
-145,789	554,963	-0,032	0,056
-144,775	20,375	-0,054	-0,031
-143,760	-10,803	0,093	0,044
-142,745	-200,000	0,022	-0,119
-141,731	-200,000	0,028	-0,128
-140,716	-200,000	-0,010	0,051
-139,702	-30,966	0,133	-0,054
-138,687	-200,000	-0,022	0,133
-137,672	-161,567	0,074	-0,003
-136,658	158,207	0,020	0,020
-135,643	379,235	-0,021	0,032
-134,629	-161,754	-0,159	0,006
-133,614	800,000	-0,021	0,059
-132,599	-200,000	-0,022	0,092
-131,585	-16,233	0,087	0,039
-130,570	-43,001	0,049	0,018
-129,556	-200,000	0,005	-0,018
-128,541	-53,760	-0,068	-0,022
-127,526	112,156	0,147	0,127
-126,512	-130,072	-0,094	-0,009
-125,497	-158,607	0,098	-0,004
-124,483	91,316	0,042	-0,034
-123,468	-200,000	-0,030	-0,095
-122,453	-200,000	0,008	-0,087
-121,439	160,455	0,057	-0,057
-120,424	-124,307	-0,030	-0,003
-119,410	-200,000	-0,003	-0,041
-118,395	118,401	0,059	0,052
-117,380	1,979	0,059	0,030
-116,366	45,495	-0,087	-0,058
-115,351	1,539	-0,065	-0,033
-114,337	232,218	0,084	-0,099
-113,322	-105,830	0,139	0,022
-112,307	8,840	0,063	-0,034
-111,293	146,022	0,123	-0,118
-110,278	9,918	-0,079	0,043
-109,264	-77,018	0,052	0,013
-108,249	-200,000	-0,008	0,106
-107,234	-200,000	0,023	-0,088
-106,220	46,238	0,118	-0,078
-105,205	-158,086	0,096	-0,004
-104,191	391,827	-0,035	-0,052
-103,176	-168,574	-0,061	0,002
-102,162	-34,481	-0,140	0,055
-101,147	-44,622	-0,083	-0,030
-100,132	-192,389	-0,086	-0,001
-99,118	800,000	-0,013	0,038
-98,103	-200,000	-0,004	0,102
-97,089	9,893	0,098	-0,053
-96,074	-24,112	-0,101	0,043
-95,059	400,302	-0,049	0,073
-94,045	-140,065	0,017	0,001
-93,030	496,745	0,060	-0,099
-92,016	244,831	-0,070	0,085
-91,001	-200,000	0,001	-0,064
-89,986	261,381	0,053	-0,066
-88,972	800,000	0,021	0,061
-87,957	-200,000	0,031	0,112
-86,943	384,141	0,040	-0,059
-85,928	-175,761	0,173	-0,003
-84,913	-200,000	0,014	-0,162
-83,899	-200,000	0,017	0,151
-82,884	-200,000	-0,035	0,130
-81,870	800,000	0,064	0,150
-80,855	783,358	0,012	-0,024
-79,840	-112,107	-0,094	0,013
-78,826	4,831	-0,065	0,034
-77,811	21,005	0,015	0,009
-76,797	237,133	0,118	0,140
-75,782	398,910	0,033	-0,049
-74,767	-200,000	-0,016	0,088
-73,753	-200,000	0,001	0,023
-72,738	-31,535	0,053	0,021
-71,724	208,056	-0,049	-0,055
-70,709	800,000	-0,029	0,070
-69,694	141,141	0,044	-0,042
-68,680	212,646	-0,030	-0,034
-67,665	800,000	0,042	0,116
-66,651	800,000	0,047	0,115
-65,636	800,000	-0,048	0,121
-64,622	-200,000	-0,027	-0,118
-63,607	322,643	0,057	-0,077
-62,592	718,290	-0,067	-0,128
-61,578	-119,177	0,040	0,005
-60,563	-138,464	0,255	0,020
-59,549	-200,000	-0,002	0,033
-58,534	59,688	-1,989	-1,404
-57,519	-200,000	-0,026	-0,896
-56,505	-200,000	-1,357	-5,164
-55,490	85,564	0,880	0,692
-54,476	800,000	5,267	12,195
-53,461	-200,000	18,222	293,821
-52,446	800,000	730,352	2226,138
-51,432	526,519	1643,191	2783,344
-50,417	107,546	1632,077	1390,708
-49,403	71,856	1283,708	955,068
-48,388	30,587	1024,710	626,286
-47,373	19,767	986,916	567,637
-46,359	17,851	974,249	554,076
-45,344	14,708	970,448	541,651
-44,330	14,940	968,990	541,573
-43,315	14,434	966,996	538,790
-42,300	14,364	965,953	537,960
-41,286	14,400	964,923	537,483
-40,271	14,375	964,105	536,925
-39,257	14,375	963,153	536,372
-38,242	14,436	962,288	536,068
-37,227	14,428	961,475	535,567
-36,213	14,405	960,688	535,033
-35,198	14,358	959,800	534,365
-34,184	14,449	959,028	534,210
-33,169	14,366	958,035	533,367
-32,154	14,385	957,213	532,947
-31,140	14,454	956,190	532,580
-30,125	14,459	955,532	532,207
-29,111	14,367	954,692	531,424
-28,096	14,442	953,995	531,254
-27,082	14,394	953,322	530,706
-26,067	14,415	952,621	530,361
-25,052	14,450	951,826	530,011
-24,038	14,391	951,283	529,496
-23,023	14,379	950,682	529,104
-22,009	14,465	949,923	528,935
-20,994	14,495	949,148	528,580
-19,979	14,449	948,724	528,176
-18,965	14,414	947,928	527,599
-17,950	14,405	947,406	527,259
-16,936	14,389	946,659	526,773
-15,921	14,364	946,123	526,374
-14,906	14,294	945,311	525,679
-13,892	14,378	944,577	525,515
-12,877	14,328	943,943	524,983
-11,863	14,304	943,411	524,589
-10,848	14,278	943,105	524,317
-9,833	14,350	942,515	524,195
-8,819	14,404	941,841	523,971
-7,804	14,362	941,193	523,458
-6,790	14,260	940,750	522,866
-5,775	14,334	939,987	522,658
-4,760	14,383	939,212	522,358
-3,746	14,391	938,671	522,061
-2,731	14,168	938,208	521,083
-1,717	14,198	937,427	520,722
-0,702	14,190	936,679	520,261
0,313	13,936	936,189	519,976
1,327	17,477	934,083	529,866
2,342	26,678	786,668	470,355
3,356	22,827	442,520	258,893
4,371	-6,728	294,613	142,937
5,386	-10,700	276,439	130,358
6,400	-12,022	270,755	126,443
7,415	-12,227	268,424	125,155
8,429	-12,209	266,982	124,488
9,444	-12,299	266,105	123,986
10,459	-12,192	265,445	123,764
11,473	-12,484	264,836	123,205
12,488	-12,360	264,100	122,964
13,502	-12,658	263,702	122,499
14,517	-12,574	263,268	122,363
15,531	-12,473	262,956	122,297
16,546	-12,462	262,463	122,067
17,561	-12,301	261,976	121,973
18,575	-12,327	261,857	121,884
19,590	-12,601	261,371	121,402
20,604	-12,399	261,248	121,515
21,619	-12,415	260,720	121,244
22,634	-12,384	260,329	121,078
23,648	-12,486	260,267	120,948
24,663	-12,441	259,969	120,839
25,677	-12,509	259,790	120,685
26,692	-12,382	259,512	120,658
27,707	-12,511	259,194	120,384
28,721	-12,542	258,854	120,189
29,736	-12,609	258,399	119,908
30,750	-12,544	258,239	119,881
31,765	-12,333	257,984	119,937
32,780	-12,540	257,877	119,694
33,794	-12,401	257,477	119,620
34,809	-12,668	257,429	119,352
35,823	-12,562	257,052	119,260
36,838	-12,497	256,879	119,226
37,853	-12,697	256,503	118,866
38,867	-12,775	256,498	118,785
39,882	-12,711	256,140	118,665
40,896	-12,466	255,928	118,769
41,911	-12,633	255,533	118,430
42,926	-12,360	255,366	118,580
43,940	-12,442	255,234	118,437
44,955	-12,722	255,095	118,118
45,969	-12,605	254,631	117,994
46,984	-12,951	254,508	117,626
47,999	-13,008	254,175	117,413
49,013	-13,049	254,026	117,298
50,028	-13,190	253,711	117,020
51,042	-13,075	253,501	117,012
52,057	-13,420	253,313	116,617
53,071	-13,348	252,990	116,520
54,086	-13,137	252,902	116,651
55,101	-13,029	252,785	116,680
56,115	-12,634	252,563	116,906
57,130	-12,300	252,414	117,114
58,144	-12,257	252,328	117,100
59,159	-12,190	252,026	117,008
60,174	-12,333	251,884	116,809
61,188	-12,195	251,533	116,753
62,203	-12,192	251,240	116,610
63,217	-12,286	251,092	116,450
64,232	-12,371	250,827	116,244
65,247	-12,296	250,726	116,251
66,261	-12,553	250,503	115,919
67,276	-12,660	250,289	115,718
68,290	-12,733	249,886	115,459
69,305	-12,847	249,797	115,311
70,320	-12,853	249,616	115,212
71,334	-12,552	249,502	115,405
72,349	-12,441	249,118	115,311
73,363	-12,312	249,096	115,400
74,378	-12,561	248,914	115,094
75,393	-12,380	248,689	115,133
76,407	-12,542	248,544	114,918
77,422	-12,341	248,199	114,918
78,436	-12,452	248,138	114,787
79,451	-12,425	247,746	114,617
80,466	-12,635	247,557	114,344
81,480	-12,518	247,310	114,317
82,495	-12,646	247,195	114,147
83,509	-12,647	247,109	114,096
84,524	-12,787	246,898	113,870
85,539	-12,834	246,645	113,704
86,553	-12,645	246,277	113,683
87,568	-12,760	246,141	113,514
88,582	-12,632	245,987	113,540
89,597	-12,922	245,818	113,209
90,611	-12,717	245,723	113,326
91,626	-12,450	245,575	113,471
92,641	-12,442	245,339	113,358
93,655	-12,592	245,042	113,086
94,670	-12,526	244,927	113,078
95,684	-12,495	244,692	112,985
96,699	-12,615	244,509	112,791
97,714	-12,576	244,276	112,706
98,728	-12,849	244,181	112,425
99,743	-12,928	243,937	112,238
100,757	-12,717	243,643	112,267
101,772	-12,725	243,537	112,201
102,787	-12,733	243,357	112,102
103,801	-12,581	243,148	112,121
104,816	-12,632	243,044	112,021
105,830	-12,235	242,830	112,239
106,845	-12,431	242,797	112,052
107,860	-12,579	242,472	111,771
108,874	-12,475	242,324	111,779
109,889	-12,590	242,060	111,552
110,903	-12,674	241,914	111,406
111,918	-12,682	241,740	111,310
112,933	-12,575	241,650	111,346
113,947	-12,355	241,408	111,404
114,962	-12,511	241,277	111,206
115,976	-12,405	241,014	111,162
116,991	-12,570	240,839	110,936
118,006	-12,607	240,650	110,809
119,020	-12,402	240,500	110,897
120,035	-12,477	240,465	110,810
121,049	-12,545	240,298	110,668
122,064	-12,443	240,127	110,662
123,079	-12,433	239,831	110,524
124,093	-12,525	239,720	110,389
125,108	-12,760	239,468	110,072
126,122	-12,922	239,177	109,797
127,137	-12,944	239,023	109,699
128,151	-12,907	238,910	109,668
129,166	-12,575	238,680	109,821
130,181	-12,691	238,450	109,611
131,195	-12,801	238,196	109,396
132,210	-12,555	238,109	109,545
133,224	-12,269	237,924	109,679
134,239	-12,563	237,750	109,353
135,254	-12,402	237,682	109,441
136,268	-12,607	237,514	109,190
137,283	-12,933	237,166	108,759
138,297	-12,899	237,001	108,700
139,312	-13,080	236,832	108,468
140,327	-12,671	236,722	108,736
141,341	-12,291	236,636	108,990
142,356	-12,267	236,518	108,945
143,370	-12,216	236,326	108,888
144,385	-12,244	236,073	108,739
145,400	-12,185	235,960	108,724
146,414	-12,296	235,720	108,516
147,429	-12,237	235,505	108,455
148,443	-12,339	235,368	108,300
149,458	-12,545	235,360	108,123
150,473	-12,414	235,113	108,104
151,487	-12,565	234,934	107,893
152,502	-12,404	234,738	107,921
153,516	-12,219	234,642	108,013
154,531	-12,415	234,385	107,730
155,546	-12,382	234,234	107,677
156,560	-12,477	233,994	107,482
157,575	-12,507	233,787	107,354
158,589	-12,403	233,750	107,410
159,604	-12,190	233,608	107,503
160,619	-12,155	233,451	107,448
161,633	-12,335	233,309	107,232
162,648	-12,240	233,251	107,271
163,662	-12,474	232,976	106,951
164,677	-12,302	232,844	107,015
165,692	-12,365	232,597	106,843
166,706	-12,070	232,499	107,020
167,721	-11,968	232,264	106,982
168,735	-12,137	232,124	106,776
169,750	-12,188	231,966	106,653
170,764	-12,481	231,891	106,380
171,779	-12,428	231,749	106,347
172,794	-12,179	231,653	106,488
173,808	-12,447	231,177	106,051
174,823	-12,608	230,841	105,762
175,837	-13,027	230,909	105,458
176,852	-12,538	230,796	105,777
177,867	-12,313	230,757	105,924
178,881	-12,449	230,574	105,726
179,896	-12,183	230,366	105,827
180,910	-12,301	230,329	105,709
181,925	-12,292	230,056	105,581
182,940	-12,122	229,914	105,639
183,954	-12,203	229,719	105,477
184,969	-12,085	229,715	105,557
185,983	-12,056	229,570	105,503
186,998	-11,917	229,405	105,525
188,013	-11,844	229,137	105,449
189,027	-12,121	229,101	105,209
190,042	-12,177	228,789	105,014
191,056	-12,089	228,791	105,073
192,071	-12,112	228,593	104,955
193,086	-12,163	228,458	104,845
194,100	-12,043	228,326	104,867
195,115	-12,563	227,959	104,290
196,129	-12,328	227,981	104,471
197,144	-7,391	229,625	109,023
198,159	-2,083	230,975	113,762
199,173	1,427	232,098	117,029
200,188	1,854	232,254	117,427
201,202	1,980	231,788	117,279
202,217	1,804	231,746	117,111
203,232	1,963	231,679	117,190
204,246	2,173	231,452	117,227
205,261	2,039	231,348	117,060
206,275	2,110	231,316	117,088
207,290	2,257	231,141	117,102
208,304	2,305	231,037	117,076
209,319	2,356	230,765	116,967
210,334	2,203	230,560	116,736
211,348	1,819	230,485	116,392
212,363	1,575	230,067	115,983
213,377	1,772	229,914	116,046
214,392	1,319	229,921	115,693
215,407	1,939	229,683	116,038
216,421	1,864	229,535	115,895
217,436	1,859	229,326	115,775
218,450	1,618	229,094	115,463
219,465	1,503	229,039	115,338
220,480	1,648	228,777	115,306
221,494	1,455	228,756	115,138
222,509	1,952	228,561	115,408
223,523	2,068	228,505	115,458
224,538	1,638	228,490	115,113
225,553	1,740	228,284	115,076
226,567	1,655	227,996	114,856
227,582	1,917	227,965	115,029
228,596	1,987	227,893	115,036
229,611	1,947	227,631	114,863
230,626	1,435	227,422	114,360
231,640	1,483	227,227	114,288
232,655	1,854	227,270	114,579
233,669	2,131	227,177	114,732
234,684	2,195	227,012	114,687
235,699	2,068	226,780	114,463
236,713	2,078	226,563	114,351
237,728	1,701	226,488	114,020
238,742	1,509	226,217	113,728
239,757	1,780	226,159	113,893
240,772	1,576	225,975	113,637
241,786	1,638	225,730	113,550
242,801	2,013	225,602	113,757
243,815	2,315	225,645	113,995
244,830	2,331	225,468	113,907
245,844	1,606	225,253	113,245
246,859	1,635	225,083	113,172
247,874	2,065	224,923	113,403
248,888	2,163	224,789	113,398
249,903	2,230	224,592	113,338
250,917	1,672	224,644	112,938
251,932	1,580	224,414	112,744
252,947	1,437	224,175	112,508
253,961	1,514	223,971	112,452
254,976	1,542	224,033	112,494
255,990	1,995	223,877	112,742
257,005	2,201	223,795	112,844
258,020	2,011	223,582	112,586
259,034	1,919	223,493	112,462
260,049	1,886	223,351	112,357
261,063	1,984	223,142	112,314
262,078	2,098	223,037	112,336
263,093	2,195	222,763	112,259
264,107	2,040	222,763	112,135
265,122	2,029	222,578	112,023
266,136	2,272	222,496	112,152
267,151	2,157	222,330	111,973
268,166	1,816	222,121	111,607
269,180	1,554	221,872	111,279
270,195	1,850	221,613	111,357
271,209	1,574	221,547	111,111
272,224	1,937	221,421	111,304
273,239	1,805	221,448	111,211
274,253	1,826	221,136	111,059
275,268	1,528	220,890	110,708
276,282	1,473	220,727	110,576
277,297	1,475	220,591	110,500
278,312	1,559	220,614	110,562
279,326	1,818	220,386	110,628
280,341	1,846	220,414	110,652
281,355	1,804	220,266	110,537
282,370	1,988	220,149	110,603
283,384	1,643	219,933	110,234
284,399	1,571	219,594	110,001
285,414	1,482	219,560	109,910
286,428	1,848	219,526	110,149
287,443	2,050	219,525	110,286
288,457	1,945	219,374	110,123
289,472	1,718	218,959	109,741
290,487	1,439	218,797	109,448
291,501	1,304	218,651	109,267
292,516	1,323	218,570	109,231
293,530	1,525	218,401	109,283
294,545	1,472	218,313	109,190
295,560	1,449	218,295	109,155
296,574	1,898	218,132	109,388
297,589	1,775	217,839	109,143
298,603	1,756	217,874	109,137
299,618	1,870	217,670	109,107
300,633	2,009	217,596	109,160
301,647	2,092	217,604	109,214
302,662	1,887	217,450	108,979
303,676	2,153	217,171	109,021
304,691	2,440	216,968	109,115
305,706	2,081	216,906	108,817
306,720	2,105	216,787	108,765
307,735	1,978	216,445	108,493
308,749	1,783	216,439	108,340
309,764	2,006	216,318	108,430
310,779	1,963	216,214	108,337
311,793	1,884	216,050	108,189
312,808	1,693	216,031	108,033
313,822	2,031	215,773	108,136
314,837	1,871	215,471	107,861
315,852	1,629	215,424	107,656
316,866	1,872	215,321	107,768
317,881	2,092	215,288	107,898
318,895	1,977	215,043	107,684
319,910	1,757	214,875	107,434
320,925	1,406	214,627	107,051
321,939	1,479	214,404	106,983
322,954	1,627	214,400	107,076
323,968	1,812	214,418	107,206
324,983	2,105	214,354	107,372
325,997	2,182	214,177	107,328
327,012	1,853	213,980	106,987
328,027	2,047	213,743	106,996
329,041	1,944	213,975	107,030
330,056	2,150	213,647	107,002
331,070	1,958	213,436	106,751
332,085	1,732	213,222	106,476
333,100	1,870	213,304	106,604
334,114	2,206	212,994	106,676
335,129	2,348	212,814	106,676
336,143	2,014	212,625	106,337
337,158	1,756	212,641	106,155
338,173	1,875	212,454	106,136
339,187	1,898	212,293	106,062
340,202	1,563	212,133	105,738
341,216	1,522	211,984	105,625
342,231	1,676	211,842	105,653
343,246	1,797	211,585	105,600
344,260	1,431	211,653	105,369
345,275	2,282	211,822	106,038
346,289	2,542	211,516	106,056
347,304	2,409	211,287	105,839
348,319	1,988	211,216	105,502
349,333	1,960	211,120	105,425
350,348	1,979	210,939	105,338
351,362	2,090	210,798	105,335
352,377	2,303	210,582	105,366
353,392	2,084	210,595	105,211
354,406	1,877	210,479	105,000
355,421	195,556	1315,874	1389,591
356,435	156,298	1450,520	1389,551
