DTS Sentinel unit serial number:	SN410029Multiplexer serial number:	ORYXHardware model number:	OX2-SRSoftware version number:	ORYX F/W v4,00 Oryx Data Collector v3.7.2.0data status	okinstallation	B6 Nyhavnadifferential loss correction	single-endedforward channel	channel 2reverse channel	N/Adate	2023/12/10time	19:35:09forward acquisition time	300,00reverse acquisition time	0,00gamma	499,1914k internal	0,3122k external	0,3122temperature offset calibration	1,0000default loss term (dB/km)	0,3820temperature slope calibration	1,0000multiplexer offset coefficient	1,0000multiplexer slope coefficient	1,0000fibre end	0,00T internal ref (°C)	22,31T ext. ref 1 (°C)	6,01T ext. ref 2 (°C)	6,01length (m)	temperature (°C)	Stokes	anti-Stokes-744,400	11,649	0,095	-0,054
-743,385	-35,417	-0,182	0,073
-742,371	335,431	-0,062	0,089
-741,356	20,965	-0,349	0,211
-740,342	-147,050	0,103	-0,006
-739,327	-64,254	-0,422	0,127
-738,312	515,137	0,052	-0,091
-737,298	-77,331	-0,313	-0,080
-736,283	538,201	-0,060	-0,107
-735,269	800,000	-0,122	0,269
-734,254	-100,843	0,131	-0,024
-733,239	-66,715	-0,367	-0,108
-732,225	-74,088	0,206	-0,055
-731,210	-84,133	0,078	-0,018
-730,196	-87,208	-0,168	0,038
-729,181	51,380	-0,075	-0,053
-728,167	-23,169	0,093	-0,042
-727,152	-200,000	0,004	-0,028
-726,137	-82,135	-0,115	-0,028
-725,123	-44,379	-0,108	0,040
-724,108	800,000	0,048	-0,137
-723,094	-155,937	-0,096	-0,004
-722,079	626,911	-0,009	-0,016
-721,064	146,842	0,122	0,122
-720,050	87,450	-0,109	-0,090
-719,035	-200,000	0,010	-0,078
-718,021	-152,609	0,137	0,007
-717,006	-200,000	0,026	0,123
-715,991	-200,000	-0,016	0,072
-714,977	800,000	0,016	0,037
-713,962	-70,037	-0,118	-0,033
-712,948	-84,043	0,063	-0,015
-711,933	-117,023	0,074	0,010
-710,918	155,424	-0,061	-0,063
-709,904	-73,532	-0,111	-0,030
-708,889	-9,366	-0,177	0,088
-707,875	-200,000	-0,000	-0,046
-706,860	125,759	0,107	0,100
-705,845	119,031	0,042	-0,039
-704,831	6,287	0,037	-0,020
-703,816	69,224	-0,053	-0,041
-702,802	-50,554	-0,179	-0,063
-701,787	800,000	0,037	-0,103
-700,772	507,384	-0,080	0,139
-699,758	800,000	-0,034	0,080
-698,743	-28,238	0,065	-0,028
-697,729	-9,853	0,091	-0,045
-696,714	-80,773	-0,051	-0,012
-695,699	-200,000	-0,022	-0,072
-694,685	800,000	-0,016	-0,039
-693,670	800,000	0,071	-0,162
-692,656	800,000	-0,056	-0,155
-691,641	-56,959	0,037	-0,012
-690,627	608,064	0,038	-0,071
-689,612	188,068	-0,031	0,035
-688,597	-9,513	0,001	-0,001
-687,583	-29,470	-0,258	-0,109
-686,568	60,009	0,068	-0,050
-685,554	709,022	0,078	-0,154
-684,539	-47,312	-0,122	0,044
-683,524	800,000	0,023	-0,059
-682,510	-63,178	0,147	0,045
-681,495	704,701	-0,017	0,033
-680,481	-91,228	-0,138	-0,029
-679,466	-127,707	0,049	0,005
-678,451	-77,347	0,045	0,011
-677,437	800,000	0,025	-0,073
-676,422	-200,000	-0,005	0,020
-675,408	424,571	-0,058	-0,093
-674,393	370,979	-0,029	-0,044
-673,378	-33,978	-0,118	-0,048
-672,364	-115,506	0,075	0,010
-671,349	-188,011	-0,160	-0,001
-670,335	39,808	-0,140	-0,093
-669,320	800,000	0,040	0,108
-668,305	15,557	0,105	-0,061
-667,291	800,000	-0,029	-0,078
-666,276	38,879	0,014	0,009
-665,262	9,606	-0,027	0,015
-664,247	-81,444	-0,130	-0,032
-663,232	614,888	-0,067	-0,126
-662,218	-138,914	0,053	0,004
-661,203	127,570	-0,024	0,022
-660,189	-200,000	0,007	-0,053
-659,174	800,000	-0,058	-0,168
-658,159	-115,917	-0,128	-0,018
-657,145	-11,364	0,068	-0,033
-656,130	-125,536	-0,094	-0,010
-655,116	51,702	-0,103	0,073
-654,101	-98,357	-0,056	0,011
-653,086	-200,000	-0,002	0,043
-652,072	-169,653	-0,118	0,003
-651,057	256,853	0,077	-0,099
-650,043	-200,000	0,031	-0,121
-649,028	-74,434	-0,091	-0,024
-648,014	800,000	0,037	0,103
-646,999	800,000	-0,069	0,169
-645,984	-200,000	0,002	-0,134
-644,970	-119,740	-0,143	-0,018
-643,955	-200,000	-0,087	0,000
-642,941	-200,000	-0,038	-0,185
-641,926	-200,000	-0,011	-0,078
-640,911	-165,759	-0,138	0,004
-639,897	785,587	0,002	0,004
-638,882	-12,359	0,116	0,056
-637,868	-200,000	0,015	0,074
-636,853	193,094	-0,153	-0,172
-635,838	37,578	0,077	-0,050
-634,824	215,213	-0,096	0,113
-633,809	-156,604	-0,141	-0,006
-632,795	-200,000	-0,022	-0,207
-631,780	-10,798	0,077	0,038
-630,765	8,561	0,067	0,037
-629,751	800,000	0,044	-0,091
-628,736	218,956	-0,081	0,096
-627,722	-118,296	-0,032	0,004
-626,707	-35,263	-0,119	-0,048
-625,692	37,101	0,090	-0,059
-624,678	6,506	-0,046	-0,025
-623,663	-118,225	0,077	0,010
-622,649	-200,000	-0,023	0,091
-621,634	368,811	-0,067	-0,100
-620,619	-200,000	0,001	-0,036
-619,605	-83,512	0,069	-0,016
-618,590	354,075	0,057	-0,085
-617,576	800,000	-0,012	-0,027
-616,561	323,226	0,028	0,040
-615,546	-200,000	-0,025	-0,129
-614,532	-200,000	0,054	-0,193
-613,517	-200,000	-0,008	0,031
-612,503	800,000	0,037	-0,080
-611,488	66,958	0,076	-0,057
-610,474	159,367	0,126	-0,130
-609,459	-136,820	0,105	0,009
-608,444	800,000	0,083	-0,187
-607,430	-64,450	-0,132	0,039
-606,415	82,627	0,059	-0,048
-605,401	85,022	-0,088	0,071
-604,386	299,838	0,039	0,053
-603,371	-32,404	-0,127	-0,052
-602,357	-143,934	-0,136	-0,009
-601,342	800,000	0,045	-0,128
-600,328	800,000	0,036	-0,108
-599,313	-200,000	-0,022	-0,124
-598,298	800,000	0,028	-0,068
-597,284	-200,000	-0,013	0,051
-596,269	-83,811	0,171	0,040
-595,255	98,896	-0,071	0,061
-594,240	800,000	0,029	-0,073
-593,225	80,512	-0,071	-0,057
-592,211	-200,000	-0,009	0,033
-591,196	-200,000	-0,001	0,025
-590,182	607,850	-0,017	-0,032
-589,167	37,967	0,054	-0,035
-588,152	-44,840	-0,072	0,026
-587,138	575,326	0,046	0,084
-586,123	800,000	-0,048	0,111
-585,109	-200,000	0,023	-0,082
-584,094	274,562	0,038	0,050
-583,079	-200,000	-0,041	0,168
-582,065	158,735	-0,137	0,141
-581,050	28,531	-0,041	-0,026
-580,036	-55,051	0,048	0,016
-579,021	624,518	0,024	-0,045
-578,006	-152,268	-0,051	-0,003
-576,992	623,084	0,045	-0,085
-575,977	-0,446	0,080	-0,042
-574,963	-35,023	0,033	-0,013
-573,948	-200,000	0,018	0,115
-572,934	10,774	0,070	0,039
-571,919	119,918	0,010	-0,009
-570,904	23,246	-0,080	-0,048
-569,890	398,576	0,079	-0,123
-568,875	-175,145	-0,112	0,002
-567,861	-200,000	-0,004	0,044
-566,846	800,000	0,034	0,094
-565,831	-200,000	0,045	0,155
-564,817	-109,174	-0,042	-0,006
-563,802	-200,000	0,000	0,029
-562,788	-157,757	-0,165	-0,007
-561,773	396,922	-0,056	0,086
-560,758	-200,000	0,003	-0,106
-559,744	-200,000	-0,007	0,052
-558,729	720,108	-0,015	0,030
-557,715	-136,249	0,134	-0,011
-556,700	-8,555	-0,072	-0,036
-555,685	258,742	-0,061	-0,079
-554,671	-200,000	-0,006	-0,069
-553,656	-200,000	-0,008	-0,063
-552,642	-200,000	0,017	-0,059
-551,627	5,310	0,067	0,036
-550,612	-200,000	-0,002	-0,050
-549,598	-150,947	0,033	-0,002
-548,583	-56,148	-0,128	0,042
-547,569	800,000	-0,008	0,021
-546,554	-63,598	-0,085	-0,026
-545,539	-200,000	0,009	-0,067
-544,525	800,000	-0,066	0,197
-543,510	219,594	-0,098	-0,117
-542,496	800,000	0,017	-0,048
-541,481	-200,000	0,004	-0,197
-540,466	-145,767	0,055	-0,004
-539,452	-89,216	-0,158	-0,034
-538,437	800,000	-0,032	0,076
-537,423	-200,000	-0,007	0,035
-536,408	181,104	0,081	0,088
-535,393	800,000	-0,019	-0,048
-534,379	548,380	-0,022	0,038
-533,364	4,294	-0,069	-0,037
-532,350	-119,799	0,043	-0,005
-531,335	800,000	-0,045	0,141
-530,321	-6,647	0,106	0,053
-529,306	-24,531	0,115	0,050
-528,291	800,000	-0,065	-0,142
-527,277	-35,267	-0,101	-0,040
-526,262	18,130	0,052	-0,031
-525,248	800,000	-0,055	-0,148
-524,233	800,000	0,046	-0,146
-523,218	0,930	0,135	-0,071
-522,204	800,000	0,025	0,063
-521,189	719,783	-0,032	-0,064
-520,175	731,795	-0,078	0,155
-519,160	252,755	-0,035	-0,044
-518,145	31,448	0,098	-0,062
-517,131	14,356	-0,026	-0,015
-516,116	-200,000	0,037	0,170
-515,102	-118,391	0,010	0,001
-514,087	-125,515	-0,157	0,017
-513,072	800,000	0,019	-0,058
-512,058	563,420	-0,040	-0,071
-511,043	159,013	0,032	-0,033
-510,029	-88,642	-0,091	0,020
-509,014	400,035	-0,037	-0,057
-507,999	-200,000	-0,001	0,056
-506,985	-126,626	-0,052	0,006
-505,970	-200,000	-0,004	0,023
-504,956	4,323	-0,092	-0,050
-503,941	-126,839	-0,033	-0,004
-502,926	-200,000	-0,003	-0,029
-501,912	-145,053	0,106	-0,007
-500,897	-42,195	0,097	-0,036
-499,883	159,948	-0,057	-0,058
-498,868	800,000	-0,029	-0,074
-497,853	800,000	-0,031	0,075
-496,839	-140,126	0,071	0,005
-495,824	172,782	0,039	0,042
-494,810	-200,000	-0,003	0,075
-493,795	-200,000	-0,015	-0,083
-492,781	-109,860	-0,042	0,006
-491,766	133,760	-0,078	0,074
-490,751	800,000	0,010	-0,024
-489,737	14,188	0,068	0,039
-488,722	234,895	-0,040	-0,049
-487,708	-200,000	0,003	0,083
-486,693	162,155	0,090	0,093
-485,678	6,660	0,133	-0,073
-484,664	382,152	0,073	-0,110
-483,649	-200,000	0,002	-0,083
-482,635	160,111	0,015	-0,016
-481,620	-32,951	0,119	0,049
-480,605	498,781	-0,071	0,121
-479,591	800,000	0,043	0,119
-478,576	800,000	0,071	0,147
-477,562	172,385	-0,032	0,034
-476,547	609,709	0,041	-0,076
-475,532	328,075	-0,045	-0,064
-474,518	51,878	0,184	0,129
-473,503	-200,000	-0,001	0,104
-472,489	-142,589	-0,135	-0,010
-471,474	800,000	-0,014	-0,035
-470,459	-148,551	-0,144	-0,009
-469,445	2,290	0,037	-0,020
-468,430	401,251	0,043	0,066
-467,416	-200,000	0,004	0,046
-466,401	-200,000	-0,004	0,093
-465,386	393,382	-0,079	0,121
-464,372	-200,000	0,002	0,126
-463,357	26,832	-0,037	0,023
-462,343	-100,116	0,039	0,007
-461,328	800,000	0,039	0,112
-460,313	-200,000	0,015	0,171
-459,299	-2,196	0,127	0,065
-458,284	109,089	0,103	-0,091
-457,270	-200,000	0,014	-0,131
-456,255	-178,110	-0,145	-0,002
-455,241	-200,000	-0,012	0,160
-454,226	800,000	0,050	0,154
-453,211	214,010	-0,065	-0,075
-452,197	-200,000	0,024	0,102
-451,182	-200,000	-0,008	0,108
-450,168	800,000	0,024	0,054
-449,153	-200,000	-0,003	0,026
-448,138	-200,000	-0,006	0,070
-447,124	117,857	0,036	0,033
-446,109	260,410	0,062	-0,079
-445,095	-44,097	-0,140	-0,052
-444,080	35,464	-0,041	-0,026
-443,065	22,872	-0,123	0,074
-442,051	530,681	-0,015	-0,026
-441,036	800,000	0,028	-0,075
-440,022	130,546	0,080	-0,075
-439,007	-12,368	-0,109	0,052
-437,992	-53,011	0,130	0,044
-436,978	686,361	0,065	0,126
-435,963	-70,558	0,077	0,021
-434,949	-11,197	-0,080	-0,039
-433,934	666,157	-0,052	-0,100
-432,919	-107,044	0,140	-0,022
-431,905	-35,729	-0,109	0,043
-430,890	-200,000	0,003	0,061
-429,876	97,770	0,099	-0,084
-428,861	-200,000	0,015	0,091
-427,846	-18,744	-0,059	0,027
-426,832	-104,258	-0,080	0,014
-425,817	-34,714	0,121	-0,048
-424,803	-87,524	-0,021	-0,005
-423,788	22,066	0,107	0,064
-422,773	98,741	-0,142	0,121
-421,759	-200,000	0,003	-0,049
-420,744	38,385	0,059	0,039
-419,730	-141,127	-0,146	0,011
-418,715	-200,000	0,023	0,079
-417,701	-200,000	-0,015	0,055
-416,686	-200,000	0,016	0,148
-415,671	-38,593	0,031	0,012
-414,657	-5,574	0,137	-0,069
-413,642	-200,000	0,002	0,098
-412,628	-200,000	-0,013	-0,042
-411,613	-200,000	-0,001	-0,022
-410,598	800,000	0,017	-0,052
-409,584	307,802	-0,047	0,065
-408,569	800,000	0,007	0,019
-407,555	-200,000	-0,012	-0,062
-406,540	-45,062	0,143	0,052
-405,525	-134,245	-0,117	-0,010
-404,511	14,454	-0,077	-0,044
-403,496	584,820	-0,048	0,088
-402,482	-69,631	0,083	0,023
-401,467	12,067	0,078	0,044
-400,452	-20,582	0,031	-0,014
-399,438	75,484	0,089	0,069
-398,423	-130,639	-0,082	-0,008
-397,409	-38,857	0,057	0,022
-396,394	-63,623	-0,108	-0,033
-395,379	800,000	0,032	-0,067
-394,365	127,836	0,084	-0,078
-393,350	561,140	0,021	-0,038
-392,336	15,658	0,106	-0,061
-391,321	-134,437	0,095	0,008
-390,306	352,872	0,009	-0,013
-389,292	800,000	-0,063	-0,196
-388,277	-171,090	-0,058	-0,001
-387,263	-33,836	0,027	-0,011
-386,248	-200,000	0,008	-0,068
-385,233	-200,000	-0,011	-0,039
-384,219	281,730	-0,059	0,078
-383,204	227,203	-0,016	0,019
-382,190	-40,118	-0,171	-0,065
-381,175	-149,078	0,161	-0,009
-380,160	-70,640	0,051	-0,014
-379,146	-54,561	0,073	0,024
-378,131	-200,000	0,021	0,190
-377,117	-200,000	0,001	0,092
-376,102	-200,000	-0,020	-0,088
-375,088	-163,873	0,081	0,003
-374,073	800,000	-0,008	0,020
-373,058	248,200	0,046	0,058
-372,044	-200,000	0,033	0,120
-371,029	800,000	-0,065	0,134
-370,015	159,381	0,027	-0,027
-369,000	800,000	0,031	0,092
-367,985	800,000	0,049	-0,100
-366,971	800,000	0,022	-0,059
-365,956	-200,000	-0,042	-0,245
-364,942	800,000	-0,015	-0,041
-363,927	136,397	0,177	0,169
-362,912	-70,753	-0,111	-0,031
-361,898	-132,721	-0,084	-0,008
-360,883	-51,398	-0,080	0,027
-359,869	150,087	-0,026	0,026
-358,854	522,952	0,021	0,037
-357,839	-200,000	-0,016	0,190
-356,825	-200,000	-0,035	0,132
-355,810	50,975	0,128	-0,089
-354,796	44,087	0,079	0,053
-353,781	738,607	-0,070	0,138
-352,766	482,900	-0,046	-0,077
-351,752	-7,575	0,082	0,041
-350,737	206,421	0,037	0,042
-349,723	-138,334	0,022	-0,002
-348,708	800,000	0,002	0,006
-347,693	236,984	-0,087	0,106
-346,679	168,648	-0,091	0,095
-345,664	-200,000	-0,001	-0,073
-344,650	800,000	0,060	-0,130
-343,635	448,525	0,017	-0,028
-342,620	-36,127	0,026	0,010
-341,606	-4,125	-0,033	0,017
-340,591	-105,117	-0,138	-0,023
-339,577	21,804	-0,217	0,129
-338,562	-200,000	-0,041	-0,143
-337,548	-200,000	0,000	0,007
-336,533	-46,969	-0,055	0,019
-335,518	-200,000	-0,016	-0,113
-334,504	-30,533	-0,071	-0,029
-333,489	138,482	0,046	0,045
-332,475	-38,771	-0,029	-0,011
-331,460	-200,000	0,015	-0,077
-330,445	286,072	-0,059	0,078
-329,431	-152,535	0,063	-0,003
-328,416	-114,086	0,138	0,019
-327,402	800,000	-0,046	0,146
-326,387	-83,801	0,062	0,014
-325,372	180,008	0,048	-0,051
-324,358	-200,000	-0,001	-0,114
-323,343	74,990	0,111	-0,086
-322,329	-49,401	-0,018	-0,006
-321,314	312,184	0,061	-0,085
-320,299	-200,000	0,031	-0,103
-319,285	-130,042	0,034	0,003
-318,270	61,092	-0,093	-0,067
-317,256	-33,513	-0,061	0,024
-316,241	800,000	-0,010	0,027
-315,226	-81,149	0,081	-0,020
-314,212	800,000	-0,051	-0,122
-313,197	471,690	0,040	-0,067
-312,183	-198,867	0,032	0,000
-311,168	124,648	-0,101	-0,093
-310,153	88,552	0,018	0,015
-309,139	-122,542	0,140	-0,016
-308,124	26,200	0,090	0,055
-307,110	688,199	0,009	0,017
-306,095	315,473	-0,099	0,137
-305,080	-96,357	-0,068	-0,013
-304,066	425,231	0,028	0,044
-303,051	-107,385	-0,087	0,014
-302,037	541,401	0,067	-0,118
-301,022	-200,000	0,001	-0,163
-300,008	-146,393	0,033	0,002
-298,993	800,000	-0,025	0,072
-297,978	-98,614	0,143	0,027
-296,964	-200,000	0,004	0,070
-295,949	-67,634	0,008	-0,002
-294,935	800,000	0,029	-0,063
-293,920	283,491	-0,028	0,037
-292,905	143,281	0,029	0,029
-291,891	800,000	0,052	0,140
-290,876	-200,000	0,006	0,066
-289,862	451,164	-0,039	-0,064
-288,847	147,837	-0,030	-0,030
-287,832	800,000	-0,051	-0,121
-286,818	-103,529	0,155	-0,026
-285,803	-100,547	0,075	-0,013
-284,789	49,471	-0,085	-0,058
-283,774	-158,796	0,255	0,010
-282,759	-200,000	-0,019	-0,122
-281,745	-51,157	-0,051	0,017
-280,730	-92,719	-0,043	0,009
-279,716	-200,000	0,010	0,086
-278,701	800,000	-0,031	0,070
-277,686	83,197	-0,114	0,091
-276,672	800,000	-0,063	0,150
-275,657	516,045	0,075	-0,129
-274,643	-0,982	0,103	0,053
-273,628	269,229	-0,100	-0,129
-272,613	-83,911	0,045	-0,010
-271,599	-200,000	-0,002	-0,121
-270,584	15,173	-0,090	-0,052
-269,570	49,186	-0,023	0,016
-268,555	-63,198	-0,116	0,035
-267,540	-183,231	0,122	0,002
-266,526	320,076	0,083	0,115
-265,511	3,421	-0,063	0,034
-264,497	-200,000	0,017	0,086
-263,482	-200,000	0,003	-0,014
-262,467	-200,000	0,005	-0,045
-261,453	315,618	-0,027	-0,037
-260,438	-200,000	0,008	-0,065
-259,424	-200,000	-0,010	-0,098
-258,409	140,681	0,082	-0,080
-257,395	-166,684	0,055	0,002
-256,380	48,761	0,103	-0,071
-255,365	-200,000	-0,004	0,033
-254,351	-200,000	-0,012	-0,090
-253,336	-200,000	0,047	0,173
-252,322	52,223	0,083	0,058
-251,307	-200,000	-0,040	0,162
-250,292	73,719	0,091	0,069
-249,278	-200,000	0,021	0,078
-248,263	-84,234	0,154	0,036
-247,249	-200,000	-0,041	0,158
-246,234	344,296	-0,028	-0,041
-245,219	-129,437	-0,111	0,011
-244,205	598,742	-0,026	-0,047
-243,190	-200,000	0,001	-0,008
-242,176	164,906	0,011	0,011
-241,161	-11,428	0,092	0,044
-240,146	253,494	-0,100	0,124
-239,132	-44,762	-0,136	0,049
-238,117	-115,867	-0,062	-0,008
-237,103	-200,000	-0,010	-0,044
-236,088	-200,000	-0,011	-0,060
-235,073	-156,703	0,148	-0,007
-234,059	-81,220	0,085	0,020
-233,044	-91,814	0,063	-0,013
-232,030	11,350	0,098	-0,055
-231,015	188,947	-0,076	-0,084
-230,000	396,046	-0,034	-0,051
-228,986	205,891	-0,105	0,119
-227,971	142,056	0,091	0,088
-226,957	201,760	-0,016	0,018
-225,942	-42,753	0,065	-0,024
-224,927	-198,700	-0,105	-0,000
-223,913	800,000	-0,050	-0,120
-222,898	-37,596	0,095	-0,037
-221,884	485,059	0,035	0,058
-220,869	98,737	0,069	0,058
-219,855	38,578	-0,076	-0,049
-218,840	315,031	-0,049	-0,068
-217,825	800,000	0,021	-0,058
-216,811	-99,184	-0,172	-0,032
-215,796	-200,000	0,002	-0,051
-214,782	-4,609	-0,029	-0,015
-213,767	639,461	0,003	0,005
-212,752	-200,000	0,005	0,070
-211,738	147,942	0,079	0,077
-210,723	593,671	-0,039	0,071
-209,709	-109,315	-0,198	0,030
-208,694	-200,000	0,036	-0,129
-207,679	800,000	-0,035	-0,094
-206,665	3,198	-0,053	0,028
-205,650	637,039	0,035	0,065
-204,636	-99,352	0,097	0,018
-203,621	17,918	0,043	0,025
-202,606	-141,130	-0,150	-0,011
-201,592	160,589	-0,075	-0,077
-200,577	259,330	-0,057	-0,073
-199,563	800,000	-0,023	-0,056
-198,548	-200,000	-0,028	0,166
-197,533	-200,000	-0,037	0,210
-196,519	29,772	0,053	0,033
-195,504	-200,000	-0,017	0,061
-194,490	-120,919	-0,050	-0,006
-193,475	-53,481	0,029	0,010
-192,460	-146,086	-0,134	-0,009
-191,446	-25,320	0,083	-0,036
-190,431	-21,275	0,048	-0,021
-189,417	-6,314	0,085	-0,042
-188,402	-12,918	-0,170	-0,080
-187,387	-200,000	-0,049	-0,181
-186,373	-46,963	0,049	0,017
-185,358	-200,000	-0,007	-0,084
-184,344	286,592	0,028	0,037
-183,329	-87,350	0,136	0,030
-182,315	-144,871	0,161	0,011
-181,300	9,401	-0,042	0,023
-180,285	197,769	-0,130	0,145
-179,271	214,537	-0,025	-0,029
-178,256	-26,383	0,012	-0,005
-177,242	-54,229	0,036	0,012
-176,227	14,835	0,040	0,023
-175,212	173,434	0,026	-0,027
-174,198	800,000	0,026	-0,080
-173,183	68,713	0,062	-0,046
-172,169	800,000	0,018	-0,043
-171,154	-200,000	0,029	-0,192
-170,139	324,689	0,009	-0,013
-169,125	184,953	0,048	-0,052
-168,110	-200,000	-0,000	0,058
-167,096	-200,000	-0,051	-0,239
-166,081	-200,000	0,007	0,062
-165,066	-96,368	-0,079	-0,015
-164,052	15,601	0,053	-0,030
-163,037	-200,000	0,005	0,054
-162,023	22,267	0,083	0,049
-161,008	-15,174	-0,048	-0,022
-159,993	29,763	0,068	0,042
-158,979	299,233	-0,120	0,161
-157,964	800,000	-0,080	-0,173
-156,950	-66,045	0,077	0,022
-155,935	800,000	-0,026	0,061
-154,920	561,884	-0,065	0,115
-153,906	-45,075	0,126	-0,045
-152,891	-200,000	-0,022	-0,129
-151,877	-200,000	0,006	0,043
-150,862	800,000	-0,093	-0,256
-149,847	704,240	0,073	-0,141
-148,833	-200,000	0,012	-0,250
-147,818	-200,000	-0,006	0,037
-146,804	-145,824	0,167	0,011
-145,789	430,428	0,027	-0,043
-144,775	204,864	-0,042	-0,047
-143,760	-200,000	0,010	-0,042
-142,745	800,000	-0,027	0,079
-141,731	136,842	0,096	-0,091
-140,716	-200,000	0,004	0,013
-139,702	224,941	0,031	0,036
-138,687	-200,000	0,024	0,096
-137,672	-172,881	0,220	0,005
-136,658	800,000	-0,020	-0,042
-135,643	0,524	0,046	-0,024
-134,629	109,836	0,062	-0,054
-133,614	-74,179	0,084	-0,022
-132,599	800,000	0,018	0,042
-131,585	-51,242	-0,162	0,055
-130,570	126,621	0,035	-0,032
-129,556	-200,000	0,005	0,038
-128,541	-200,000	-0,043	-0,145
-127,526	-50,084	0,015	-0,005
-126,512	143,594	-0,060	0,058
-125,497	-36,613	0,076	-0,029
-124,483	7,904	0,059	-0,032
-123,468	57,607	0,060	0,043
-122,453	14,388	-0,037	-0,021
-121,439	228,159	-0,019	-0,023
-120,424	-200,000	0,002	-0,080
-119,410	-1,246	0,070	-0,036
-118,395	-142,166	0,107	-0,008
-117,380	-200,000	-0,013	-0,134
-116,366	800,000	-0,021	-0,060
-115,351	-167,004	-0,059	-0,002
-114,337	8,059	-0,077	0,042
-113,322	523,855	-0,059	-0,102
-112,307	318,952	0,106	0,147
-111,293	81,321	0,097	-0,076
-110,278	-200,000	0,000	-0,019
-109,264	-200,000	0,012	-0,043
-108,249	40,858	-0,085	-0,056
-107,234	-200,000	-0,006	-0,076
-106,220	372,883	0,003	0,004
-105,205	-200,000	0,039	0,140
-104,191	208,379	0,113	0,129
-103,176	220,029	0,024	0,028
-102,162	800,000	0,054	0,119
-101,147	-200,000	0,009	0,089
-100,132	-200,000	-0,018	-0,090
-99,118	-13,389	-0,065	-0,031
-98,103	-180,939	-0,032	-0,000
-97,089	-200,000	0,003	-0,120
-96,074	-200,000	0,029	0,189
-95,059	-200,000	0,010	0,066
-94,045	-200,000	-0,011	0,091
-93,030	247,549	0,014	-0,017
-92,016	321,410	-0,103	-0,143
-91,001	189,800	-0,085	-0,093
-89,986	-0,267	0,083	0,043
-88,972	-121,986	0,120	0,014
-87,957	-39,923	0,011	-0,004
-86,943	169,754	0,025	-0,026
-85,928	-49,320	-0,143	0,049
-84,913	-200,000	-0,006	0,020
-83,899	69,912	-0,080	-0,060
-82,884	144,188	0,089	-0,087
-81,870	800,000	0,020	0,061
-80,855	800,000	-0,046	0,097
-79,840	121,499	0,053	-0,048
-78,826	77,755	-0,087	-0,068
-77,811	-200,000	0,009	-0,109
-76,797	-6,250	-0,116	-0,058
-75,782	-194,133	0,071	0,000
-74,767	-200,000	0,013	-0,139
-73,753	-114,681	0,069	-0,009
-72,738	-166,816	0,067	0,002
-71,724	328,134	-0,008	-0,010
-70,709	-200,000	-0,004	-0,046
-69,694	11,711	-0,073	0,040
-68,680	-131,286	-0,038	-0,004
-67,665	-200,000	-0,009	0,091
-66,651	33,938	-0,056	0,035
-65,636	-116,048	0,097	0,013
-64,622	736,233	-0,050	-0,098
-63,607	-200,000	-0,003	0,014
-62,592	-2,064	-0,093	-0,047
-61,578	334,447	0,036	0,050
-60,563	-200,000	0,002	0,110
-59,549	250,753	-0,111	0,137
-58,534	-109,457	-1,325	-0,201
-57,519	483,901	-0,882	-1,462
-56,505	-200,000	-0,812	-4,281
-55,490	103,789	0,628	-0,535
-54,476	800,000	4,957	11,794
-53,461	-200,000	13,673	253,634
-52,446	-200,000	689,937	2258,323
-51,432	590,187	1622,239	2915,442
-50,417	119,108	1634,804	1467,119
-49,403	73,119	1288,913	976,790
-48,388	37,998	1024,165	659,567
-47,373	24,250	981,931	587,143
-46,359	23,498	971,518	578,427
-45,344	22,541	967,103	572,650
-44,330	22,476	965,897	571,701
-43,315	22,374	964,274	570,384
-42,300	22,341	963,329	569,696
-41,286	22,384	962,201	569,146
-40,271	22,356	961,265	568,477
-39,257	22,345	960,564	568,006
-38,242	22,323	959,411	567,231
-37,227	22,324	958,670	566,773
-36,213	22,281	957,866	566,135
-35,198	22,274	957,086	565,630
-34,184	22,349	956,221	565,338
-33,169	22,292	955,299	564,586
-32,154	22,340	954,355	564,161
-31,140	22,316	953,698	563,673
-30,125	22,362	952,775	563,252
-29,111	22,320	952,049	562,665
-28,096	22,288	951,343	562,125
-27,082	22,352	950,716	561,935
-26,067	22,376	949,791	561,444
-25,052	22,323	949,208	560,907
-24,038	22,338	948,445	560,483
-23,023	22,323	947,929	560,106
-22,009	22,382	947,317	559,912
-20,994	22,394	946,729	559,579
-19,979	22,400	945,989	559,139
-18,965	22,383	945,340	558,681
-17,950	22,354	944,716	558,196
-16,936	22,334	944,052	557,718
-15,921	22,358	943,223	557,284
-14,906	22,245	942,693	556,587
-13,892	22,293	941,873	556,235
-12,877	22,277	941,200	555,765
-11,863	22,225	940,615	555,230
-10,848	22,208	940,124	554,866
-9,833	22,346	939,647	554,999
-8,819	22,330	939,028	554,562
-7,804	22,275	938,493	554,050
-6,790	22,219	937,838	553,465
-5,775	22,229	937,222	553,108
-4,760	22,306	936,529	552,923
-3,746	22,186	936,201	552,328
-2,731	22,093	935,342	551,505
-1,717	22,021	934,716	550,886
-0,702	22,047	934,005	550,528
0,313	21,869	933,421	550,454
1,327	25,098	931,296	559,303
2,342	34,789	795,792	503,730
3,356	32,775	451,549	282,766
4,371	1,774	293,892	153,096
5,386	-2,897	275,001	138,817
6,400	-4,407	269,104	134,425
7,415	-4,854	266,677	132,789
8,429	-4,515	265,584	132,544
9,444	-4,547	264,656	132,040
10,459	-4,441	263,894	131,745
11,473	-4,517	263,266	131,350
12,488	-4,614	262,932	131,084
13,502	-4,904	262,500	130,595
14,517	-4,929	261,885	130,254
15,531	-4,408	261,370	130,457
16,546	-4,639	261,104	130,104
17,561	-4,823	260,828	129,789
18,575	-4,765	260,566	129,699
19,590	-4,718	260,218	129,556
20,604	-4,700	259,755	129,331
21,619	-4,864	259,473	129,032
22,634	-4,528	259,036	129,103
23,648	-4,912	258,825	128,645
24,663	-4,615	258,493	128,733
25,677	-4,723	258,367	128,561
26,692	-4,807	258,120	128,353
27,707	-4,650	257,910	128,377
28,721	-4,607	257,575	128,236
29,736	-4,603	257,335	128,109
30,750	-4,894	257,188	127,766
31,765	-4,932	256,971	127,613
32,780	-4,787	256,661	127,577
33,794	-4,833	256,331	127,360
34,809	-4,841	256,197	127,275
35,823	-4,724	256,031	127,285
36,838	-4,688	255,583	127,083
37,853	-4,792	255,434	126,906
38,867	-4,838	255,230	126,753
39,882	-4,791	254,913	126,625
40,896	-4,860	254,782	126,489
41,911	-4,773	254,640	126,482
42,926	-4,753	254,283	126,312
43,940	-4,972	254,207	126,070
44,955	-4,875	253,708	125,897
45,969	-4,997	253,608	125,729
46,984	-5,148	253,370	125,468
47,999	-5,382	253,010	125,076
49,013	-5,509	252,819	124,860
50,028	-5,531	252,548	124,696
51,042	-5,666	252,384	124,486
52,057	-5,640	252,088	124,351
53,071	-5,647	252,046	124,313
54,086	-5,479	251,715	124,285
55,101	-5,414	251,646	124,296
56,115	-5,237	251,517	124,374
57,130	-4,700	251,187	124,663
58,144	-4,554	251,195	124,782
59,159	-4,599	250,998	124,635
60,174	-4,585	250,899	124,586
61,188	-4,636	250,667	124,416
62,203	-4,691	250,516	124,282
63,217	-4,791	250,358	124,107
64,232	-4,732	250,094	124,016
65,247	-4,696	249,880	123,930
66,261	-4,843	249,628	123,668
67,276	-5,110	249,290	123,261
68,290	-5,030	248,987	123,168
69,305	-5,225	248,842	122,919
70,320	-5,435	248,695	122,656
71,334	-4,834	248,510	123,067
72,349	-4,796	248,463	123,065
73,363	-4,617	248,287	123,120
74,378	-4,503	248,024	123,075
75,393	-4,688	247,839	122,814
76,407	-4,595	247,559	122,744
77,422	-4,654	247,416	122,612
78,436	-4,768	247,153	122,374
79,451	-4,655	246,882	122,325
80,466	-4,774	246,577	122,062
81,480	-4,943	246,508	121,874
82,495	-4,993	246,417	121,776
83,509	-4,801	246,107	121,774
84,524	-4,980	245,924	121,521
85,539	-5,206	245,619	121,170
86,553	-5,087	245,598	121,249
87,568	-5,003	245,297	121,160
88,582	-5,014	245,149	121,067
89,597	-4,997	244,972	120,983
90,611	-4,795	244,895	121,104
91,626	-4,783	244,660	120,987
92,641	-4,827	244,643	120,930
93,655	-4,890	244,276	120,686
94,670	-4,925	244,274	120,645
95,684	-4,846	244,081	120,604
96,699	-4,966	243,716	120,313
97,714	-4,951	243,552	120,234
98,728	-4,858	243,272	120,162
99,743	-4,962	243,005	119,933
100,757	-5,311	242,892	119,576
101,772	-5,085	242,758	119,688
102,787	-4,943	242,655	119,745
103,801	-4,954	242,420	119,609
104,816	-5,085	242,385	119,472
105,830	-4,807	242,227	119,614
106,845	-4,777	241,967	119,500
107,860	-4,851	241,857	119,374
108,874	-4,866	241,613	119,230
109,889	-4,951	241,367	119,028
110,903	-4,903	241,273	119,011
111,918	-4,844	241,005	118,916
112,933	-5,208	240,937	118,572
113,947	-4,944	240,789	118,706
114,962	-4,980	240,589	118,568
115,976	-4,801	240,249	118,537
116,991	-4,826	240,151	118,457
118,006	-4,914	240,007	118,303
119,020	-4,833	239,920	118,316
120,035	-4,765	239,844	118,324
121,049	-4,770	239,690	118,233
122,064	-4,919	239,464	117,989
123,079	-4,747	239,150	117,964
124,093	-4,691	238,915	117,884
125,108	-5,075	238,808	117,507
126,122	-5,334	238,515	117,141
127,137	-5,342	238,385	117,061
128,151	-5,347	238,171	116,941
129,166	-5,083	238,074	117,097
130,181	-5,297	237,930	116,842
131,195	-5,298	237,758	116,747
132,210	-5,103	237,456	116,746
133,224	-4,756	237,384	116,982
134,239	-4,904	237,311	116,815
135,254	-4,939	237,260	116,752
136,268	-4,937	236,853	116,542
137,283	-5,100	236,646	116,298
138,297	-5,266	236,369	116,018
139,312	-5,244	236,156	115,921
140,327	-4,912	236,153	116,177
141,341	-4,708	236,191	116,350
142,356	-4,669	236,085	116,319
143,370	-4,554	235,802	116,262
144,385	-4,477	235,745	116,285
145,400	-4,501	235,458	116,113
146,414	-4,454	235,298	116,062
147,429	-4,381	235,082	116,003
148,443	-4,638	234,978	115,736
149,458	-4,548	234,760	115,690
150,473	-4,539	234,696	115,656
151,487	-4,659	234,483	115,444
152,502	-4,497	234,192	115,420
153,516	-4,576	234,314	115,406
154,531	-4,540	233,980	115,261
155,546	-4,443	233,724	115,202
156,560	-4,741	233,647	114,916
157,575	-4,884	233,442	114,691
158,589	-4,836	233,349	114,674
159,604	-4,537	233,194	114,825
160,619	-4,450	233,017	114,796
161,633	-4,462	232,880	114,709
162,648	-4,347	232,727	114,715
163,662	-4,431	232,541	114,546
164,677	-4,667	232,350	114,255
165,692	-4,578	232,249	114,266
166,706	-4,499	232,226	114,307
167,721	-4,280	231,985	114,351
168,735	-4,318	231,778	114,209
169,750	-4,424	231,634	114,044
170,764	-4,342	231,467	114,016
171,779	-4,447	231,438	113,909
172,794	-4,490	231,108	113,703
173,808	-4,532	231,020	113,617
174,823	-4,977	230,512	113,007
175,837	-5,258	230,423	112,734
176,852	-4,825	230,533	113,117
177,867	-4,346	230,364	113,399
178,881	-4,416	230,245	113,275
179,896	-4,461	230,155	113,186
180,910	-4,330	229,893	113,150
181,925	-4,636	229,901	112,904
182,940	-4,568	229,586	112,792
183,954	-4,359	229,440	112,873
184,969	-4,339	229,338	112,829
185,983	-4,085	229,189	112,943
186,998	-4,480	229,187	112,624
188,013	-4,227	228,908	112,674
189,027	-4,271	228,726	112,540
190,042	-4,418	228,608	112,358
191,056	-4,288	228,494	112,393
192,071	-4,291	228,280	112,275
193,086	-4,190	228,040	112,226
194,100	-4,161	227,845	112,142
195,115	-4,649	227,673	111,670
196,129	-5,712	227,018	110,519
197,144	-3,000	228,022	113,097
198,159	2,117	229,484	117,790
199,173	4,498	229,945	119,866
200,188	4,636	230,021	120,002
201,202	4,309	229,827	119,636
202,217	4,573	229,696	119,761
203,232	4,740	229,542	119,801
204,246	4,770	229,421	119,749
205,261	4,747	229,344	119,681
206,275	5,196	229,042	119,859
207,290	4,951	229,003	119,639
208,304	4,900	228,861	119,514
209,319	5,033	228,669	119,507
210,334	4,913	228,412	119,270
211,348	4,625	228,334	118,996
212,363	4,318	228,039	118,596
213,377	4,081	227,763	118,259
214,392	4,073	227,763	118,243
215,407	4,272	227,703	118,354
216,421	4,248	227,383	118,158
217,436	4,207	227,098	117,969
218,450	3,738	227,011	117,554
219,465	3,969	226,817	117,620
220,480	3,926	226,742	117,538
221,494	4,074	226,516	117,523
222,509	4,181	226,441	117,556
223,523	4,106	226,331	117,431
224,538	3,974	226,120	117,210
225,553	4,059	226,101	117,254
226,567	4,197	225,860	117,224
227,582	4,443	225,796	117,367
228,596	4,523	225,682	117,358
229,611	4,362	225,535	117,149
230,626	4,037	225,276	116,758
231,640	3,915	225,202	116,616
232,655	4,303	225,064	116,829
233,669	4,728	225,040	117,128
234,684	4,707	224,877	117,016
235,699	4,417	224,677	116,683
236,713	4,485	224,431	116,595
237,728	4,110	224,161	116,162
238,742	3,990	224,160	116,061
239,757	3,965	223,994	115,946
240,772	4,088	223,736	115,894
241,786	4,111	223,717	115,891
242,801	4,404	223,616	116,049
243,815	4,472	223,671	116,119
244,830	4,414	223,441	115,946
245,844	4,258	223,076	115,628
246,859	4,273	223,001	115,590
247,874	4,343	222,915	115,588
248,888	4,429	222,741	115,552
249,903	4,252	222,440	115,253
250,917	4,056	222,294	115,021
251,932	4,044	222,227	114,967
252,947	4,004	222,206	114,916
253,961	3,976	221,993	114,775
254,976	4,154	221,890	114,844
255,990	4,273	221,805	114,878
257,005	4,318	221,763	114,880
258,020	4,162	221,661	114,701
259,034	4,840	221,256	114,984
260,049	4,618	221,081	114,718
261,063	4,318	221,078	114,484
262,078	4,481	220,984	114,546
263,093	4,460	220,834	114,443
264,107	4,342	220,589	114,218
265,122	4,401	220,572	114,243
266,136	4,691	220,424	114,371
267,151	4,558	220,196	114,144
268,166	4,360	219,982	113,877
269,180	3,842	219,803	113,392
270,195	4,158	219,610	113,515
271,209	3,909	219,536	113,282
272,224	4,018	219,456	113,312
273,239	4,216	219,271	113,352
274,253	3,869	219,257	113,079
275,268	3,742	218,981	112,833
276,282	3,892	218,722	112,800
277,297	3,606	218,554	112,493
278,312	3,873	218,531	112,667
279,326	4,048	218,478	112,758
280,341	4,062	218,166	112,597
281,355	4,229	218,097	112,674
282,370	4,136	217,854	112,470
283,384	3,956	217,821	112,312
284,399	3,718	217,669	112,050
285,414	3,637	217,514	111,901
286,428	4,265	217,467	112,325
287,443	4,422	217,324	112,355
288,457	4,046	217,286	112,052
289,472	4,109	217,048	111,965
290,487	3,852	216,734	111,606
291,501	3,870	216,501	111,489
292,516	3,867	216,513	111,483
293,530	3,778	216,425	111,363
294,545	3,965	216,247	111,398
295,560	4,103	216,214	111,470
296,574	4,205	216,077	111,464
297,589	3,991	215,815	111,164
298,603	4,195	215,803	111,295
299,618	4,269	215,541	111,203
300,633	4,305	215,480	111,188
301,647	4,496	215,392	111,270
302,662	4,225	215,415	111,077
303,676	4,164	215,280	110,954
304,691	4,230	215,035	110,865
305,706	4,335	214,996	110,911
306,720	4,120	214,889	110,691
307,735	4,031	214,524	110,429
308,749	3,936	214,467	110,322
309,764	4,452	214,255	110,572
310,779	4,384	214,250	110,512
311,793	4,301	214,068	110,348
312,808	4,334	213,868	110,259
313,822	4,114	213,656	109,983
314,837	3,924	213,519	109,767
315,852	3,938	213,375	109,693
316,866	4,033	213,367	109,747
317,881	4,167	213,156	109,724
318,895	4,368	213,105	109,831
319,910	4,153	212,878	109,552
320,925	3,972	212,676	109,309
321,939	3,761	212,617	109,119
322,954	3,790	212,518	109,079
323,968	4,198	212,476	109,338
324,983	4,297	212,176	109,243
325,997	4,530	212,131	109,376
327,012	4,164	212,023	109,051
328,027	4,256	211,887	109,036
329,041	4,476	211,852	109,164
330,056	4,568	211,635	109,108
331,070	4,151	211,404	108,684
332,085	3,824	211,220	108,350
333,100	3,832	210,997	108,231
334,114	4,303	210,956	108,533
335,129	4,246	210,800	108,402
336,143	4,075	210,583	108,161
337,158	4,253	210,450	108,208
338,173	4,246	210,334	108,134
339,187	3,805	210,290	107,792
340,202	3,771	210,226	107,726
341,216	3,735	209,898	107,522
342,231	4,037	209,615	107,580
343,246	4,167	209,609	107,657
344,260	3,777	209,639	107,391
345,275	4,042	209,729	107,613
346,289	4,199	209,462	107,576
347,304	4,165	209,262	107,440
348,319	4,364	209,151	107,512
349,333	4,004	209,148	107,250
350,348	4,297	208,866	107,300
351,362	4,310	208,762	107,246
352,377	4,028	208,722	107,019
353,392	4,059	208,429	106,881
354,406	4,129	208,436	106,923
355,421	194,114	1344,129	1433,521
356,435	154,898	1482,599	1433,644
