DTS Sentinel unit serial number:	SN410029Multiplexer serial number:	ORYXHardware model number:	OX2-SRSoftware version number:	ORYX F/W v4,00 Oryx Data Collector v3.7.2.0data status	okinstallation	B6 Nyhavnadifferential loss correction	single-endedforward channel	channel 2reverse channel	N/Adate	2023/12/10time	19:05:08forward acquisition time	300,00reverse acquisition time	0,00gamma	499,1914k internal	0,3123k external	0,3123temperature offset calibration	1,0000default loss term (dB/km)	0,3820temperature slope calibration	1,0000multiplexer offset coefficient	1,0000multiplexer slope coefficient	1,0000fibre end	0,00T internal ref (°C)	22,32T ext. ref 1 (°C)	6,00T ext. ref 2 (°C)	6,02length (m)	temperature (°C)	Stokes	anti-Stokes-744,400	-159,015	0,097	0,004
-743,385	28,881	-0,306	0,193
-742,371	503,889	-0,054	0,094
-741,356	-106,709	-0,323	0,053
-740,342	-200,000	0,001	0,009
-739,327	-41,462	-0,175	0,067
-738,312	305,375	-0,082	-0,114
-737,298	-83,896	-0,183	0,043
-736,283	-200,000	0,001	-0,024
-735,269	288,690	-0,111	0,151
-734,254	270,851	0,044	-0,058
-733,239	-145,482	-0,473	-0,031
-732,225	32,617	0,065	0,042
-731,210	-145,578	0,103	0,007
-730,196	-65,516	-0,048	-0,014
-729,181	46,693	-0,093	-0,064
-728,167	-152,254	0,143	0,008
-727,152	475,760	0,072	0,122
-726,137	206,463	0,040	0,047
-725,123	100,646	-0,062	-0,054
-724,108	-2,814	-0,031	0,016
-723,094	176,936	-0,135	-0,147
-722,079	-200,000	-0,045	-0,221
-721,064	-20,302	-0,133	0,061
-720,050	563,447	-0,038	0,069
-719,035	40,547	-0,099	-0,067
-718,021	-200,000	-0,014	0,054
-717,006	0,769	-0,208	0,110
-715,991	24,011	-0,065	-0,040
-714,977	-73,405	-0,236	-0,064
-713,962	203,131	-0,053	0,061
-712,948	-128,162	-0,091	-0,010
-711,933	38,441	-0,021	-0,014
-710,918	557,295	-0,025	0,046
-709,904	70,975	-0,093	0,072
-708,889	54,458	-0,140	-0,101
-707,875	800,000	-0,034	-0,099
-706,860	518,727	-0,057	0,100
-705,845	26,323	0,096	-0,060
-704,831	800,000	0,043	0,112
-703,816	-200,000	0,026	0,088
-702,802	89,812	0,080	0,066
-701,787	-101,842	0,050	0,009
-700,772	800,000	-0,003	-0,006
-699,758	551,795	-0,014	0,025
-698,743	329,525	0,093	0,133
-697,729	-43,392	-0,048	-0,018
-696,714	60,634	-0,040	0,029
-695,699	349,923	-0,050	-0,074
-694,685	93,985	-0,066	-0,056
-693,670	46,208	0,090	-0,062
-692,656	131,715	-0,060	-0,058
-691,641	7,880	0,188	-0,104
-690,627	-33,724	-0,099	-0,041
-689,612	-86,984	0,034	0,008
-688,597	-59,703	-0,141	0,045
-687,583	-140,108	-0,115	0,009
-686,568	-200,000	-0,041	-0,157
-685,554	437,412	0,033	-0,054
-684,539	-65,430	0,151	0,045
-683,524	-200,000	0,024	0,105
-682,510	-200,000	-0,033	0,184
-681,495	-200,000	-0,012	0,085
-680,481	-99,230	0,064	0,012
-679,466	800,000	-0,053	-0,117
-678,451	-200,000	-0,010	0,079
-677,437	180,948	0,025	0,027
-676,422	-112,121	0,054	0,008
-675,408	99,152	0,091	0,079
-674,393	-137,533	0,080	-0,007
-673,378	255,237	0,009	-0,012
-672,364	101,485	0,037	0,032
-671,349	34,609	-0,111	-0,072
-670,335	800,000	0,043	0,116
-669,320	-113,354	0,141	0,020
-668,305	-105,766	-0,198	-0,033
-667,291	800,000	0,029	0,070
-666,276	-111,412	-0,089	-0,013
-665,262	452,031	-0,088	-0,145
-664,247	-135,045	-0,115	0,010
-663,232	800,000	0,018	-0,039
-662,218	-200,000	0,007	0,103
-661,203	-200,000	-0,008	-0,079
-660,189	-113,706	0,023	0,003
-659,174	-4,289	-0,065	0,033
-658,159	-27,300	-0,086	-0,037
-657,145	112,983	-0,132	-0,119
-656,130	69,362	-0,082	-0,062
-655,116	800,000	-0,012	0,033
-654,101	800,000	0,029	-0,080
-653,086	124,756	0,067	-0,062
-652,072	587,922	-0,031	-0,056
-651,057	313,519	-0,128	-0,179
-650,043	-94,381	-0,095	0,019
-649,028	800,000	0,003	-0,007
-648,014	-75,639	-0,035	-0,009
-646,999	390,076	-0,004	-0,006
-645,984	-167,703	-0,064	0,002
-644,970	105,432	-0,093	-0,082
-643,955	-200,000	-0,011	-0,102
-642,941	-92,404	-0,228	-0,047
-641,926	128,089	0,140	0,132
-640,911	513,938	-0,019	-0,032
-639,897	-200,000	0,011	0,069
-638,882	-200,000	-0,020	0,066
-637,868	-151,774	0,139	0,007
-636,853	93,107	-0,030	0,025
-635,838	614,390	-0,096	-0,179
-634,824	97,849	0,048	0,041
-633,809	26,369	0,075	0,046
-632,795	-200,000	-0,001	0,084
-631,780	-156,174	-0,063	0,003
-630,765	-29,191	-0,082	0,035
-629,751	-200,000	0,054	-0,206
-628,736	-114,541	-0,074	-0,010
-627,722	77,605	-0,080	-0,063
-626,707	-200,000	0,031	0,163
-625,692	759,743	0,059	0,119
-624,678	-200,000	-0,021	-0,116
-623,663	-200,000	-0,007	0,027
-622,649	-94,854	-0,103	-0,020
-621,634	-200,000	0,038	-0,143
-620,619	-57,569	0,036	0,012
-619,605	232,258	0,030	0,037
-618,590	800,000	-0,046	0,108
-617,576	800,000	0,051	-0,115
-616,561	-200,000	0,010	-0,050
-615,546	-200,000	0,002	-0,095
-614,532	564,825	-0,046	0,084
-613,517	-200,000	-0,013	-0,074
-612,503	42,918	0,054	0,036
-611,488	-50,207	-0,150	-0,052
-610,474	-123,628	0,127	0,015
-609,459	-84,453	-0,085	-0,020
-608,444	-98,355	-0,071	-0,013
-607,430	800,000	-0,029	-0,086
-606,415	-200,000	0,014	-0,080
-605,401	221,460	0,032	-0,038
-604,386	27,137	-0,091	-0,057
-603,371	356,818	0,049	0,072
-602,357	-81,834	0,026	0,006
-601,342	-106,520	-0,094	0,015
-600,328	-200,000	0,019	-0,080
-599,313	555,965	-0,034	-0,060
-598,298	609,148	-0,061	0,113
-597,284	-200,000	-0,011	0,049
-596,269	-45,384	0,179	-0,065
-595,255	162,508	0,034	-0,035
-594,240	800,000	0,063	-0,164
-593,225	800,000	-0,010	0,033
-592,211	750,730	-0,015	0,031
-591,196	-200,000	-0,015	-0,073
-590,182	170,147	0,048	-0,051
-589,167	68,203	0,040	0,031
-588,152	296,066	0,050	-0,068
-587,138	140,574	-0,076	0,074
-586,123	756,783	-0,065	-0,130
-585,109	-20,996	-0,158	-0,071
-584,094	107,218	-0,122	-0,107
-583,079	70,082	0,108	0,083
-582,065	209,456	-0,118	0,137
-581,050	-103,615	-0,050	-0,009
-580,036	-200,000	0,010	-0,070
-579,021	3,846	0,031	-0,017
-578,006	84,878	-0,018	-0,015
-576,992	222,380	-0,065	0,078
-575,977	749,762	-0,077	0,155
-574,963	800,000	-0,005	-0,011
-573,948	731,797	-0,032	-0,065
-572,934	-200,000	0,003	0,115
-571,919	394,981	0,035	-0,054
-570,904	258,411	0,038	0,048
-569,890	-131,392	-0,024	0,002
-568,875	203,833	0,025	-0,029
-567,861	8,731	0,033	-0,018
-566,846	-200,000	0,016	0,125
-565,831	800,000	0,035	-0,107
-564,817	-48,570	0,046	0,016
-563,802	-96,320	-0,084	-0,016
-562,788	-58,611	0,061	-0,020
-561,773	-39,214	0,099	0,038
-560,758	-200,000	0,008	0,157
-559,744	128,728	0,112	0,106
-558,729	-200,000	-0,002	-0,090
-557,715	401,562	0,043	-0,066
-556,700	71,095	-0,078	0,060
-555,685	800,000	0,010	0,026
-554,671	-10,919	0,105	0,051
-553,656	-61,760	0,094	0,029
-552,642	-4,220	0,014	-0,007
-551,627	-107,359	-0,074	-0,012
-550,612	225,108	-0,011	0,013
-549,598	696,308	-0,034	-0,066
-548,583	87,355	-0,083	-0,068
-547,569	214,116	0,082	-0,096
-546,554	-200,000	0,030	-0,104
-545,539	-200,000	0,007	0,148
-544,525	199,283	0,070	-0,079
-543,510	-200,000	0,045	0,159
-542,496	-147,057	-0,068	-0,004
-541,481	800,000	-0,025	0,054
-540,466	-59,119	0,135	0,043
-539,452	-106,443	0,096	-0,016
-538,437	463,619	0,051	0,084
-537,423	-200,000	0,004	0,097
-536,408	800,000	-0,015	-0,033
-535,393	152,698	-0,188	-0,190
-534,379	-59,912	0,014	0,004
-533,364	-32,115	0,052	-0,021
-532,350	-166,853	0,062	0,002
-531,335	58,951	0,027	-0,019
-530,321	800,000	0,027	-0,056
-529,306	800,000	0,051	-0,115
-528,291	-200,000	-0,029	0,102
-527,277	287,455	-0,054	-0,072
-526,262	15,694	-0,056	-0,033
-525,248	-6,602	-0,039	-0,020
-524,233	28,257	0,095	0,059
-523,218	-200,000	-0,024	0,156
-522,204	-200,000	-0,002	-0,062
-521,189	37,196	-0,093	-0,061
-520,175	-200,000	-0,020	-0,107
-519,160	0,160	0,100	-0,053
-518,145	320,709	0,066	0,092
-517,131	-134,568	0,057	0,005
-516,116	800,000	0,040	0,103
-515,102	-200,000	-0,033	0,152
-514,087	800,000	-0,058	-0,141
-513,072	49,091	-0,113	0,078
-512,058	-162,534	0,163	0,006
-511,043	-161,391	-0,103	-0,004
-510,029	800,000	0,033	0,070
-509,014	-33,220	-0,090	-0,036
-507,999	-164,659	0,069	-0,002
-506,985	785,655	-0,032	0,064
-505,970	37,163	-0,118	0,077
-504,956	454,969	0,063	-0,104
-503,941	800,000	-0,031	-0,095
-502,926	226,299	-0,037	-0,045
-501,912	-200,000	0,001	0,064
-500,897	-200,000	0,013	-0,055
-499,883	-72,443	-0,128	0,035
-498,868	-63,837	0,084	0,025
-497,853	219,691	0,043	0,051
-496,839	-82,877	-0,113	0,027
-495,824	91,276	0,013	-0,011
-494,810	-128,751	0,158	0,016
-493,795	277,007	0,076	0,100
-492,781	28,992	-0,103	0,064
-491,766	168,876	0,032	-0,033
-490,751	-94,172	-0,089	-0,018
-489,737	-200,000	0,009	0,033
-488,722	800,000	-0,026	0,063
-487,708	800,000	0,028	-0,067
-486,693	301,507	-0,031	0,042
-485,678	800,000	0,042	-0,113
-484,664	800,000	0,053	-0,151
-483,649	-42,307	-0,116	-0,043
-482,635	268,604	-0,041	-0,053
-481,620	617,133	0,068	-0,126
-480,605	133,629	-0,077	0,074
-479,591	-50,547	0,090	0,031
-478,576	-141,818	0,113	0,008
-477,562	-200,000	-0,039	-0,167
-476,547	149,760	0,034	-0,034
-475,532	151,821	0,029	-0,029
-474,518	-77,276	-0,090	-0,023
-473,503	-53,134	0,088	0,030
-472,489	800,000	-0,038	0,115
-471,474	-159,595	0,137	0,006
-470,459	-200,000	-0,007	-0,058
-469,445	-36,083	-0,046	0,018
-468,430	110,176	0,045	-0,040
-467,416	115,688	-0,047	0,042
-466,401	-200,000	-0,005	-0,058
-465,386	65,798	-0,097	0,072
-464,372	800,000	0,034	0,088
-463,357	192,911	-0,064	0,071
-462,343	-200,000	0,002	-0,102
-461,328	378,924	0,046	-0,070
-460,313	-200,000	-0,008	0,036
-459,299	-197,238	0,071	-0,000
-458,284	77,066	-0,037	0,029
-457,270	-73,797	0,030	-0,008
-456,255	-38,330	0,131	-0,051
-455,241	800,000	-0,036	0,086
-454,226	22,104	-0,109	0,066
-453,211	183,780	0,093	0,101
-452,197	-62,259	0,080	0,025
-451,182	301,236	0,049	0,067
-450,168	-200,000	0,005	0,118
-449,153	75,291	0,047	-0,036
-448,138	-99,683	-0,089	0,016
-447,124	800,000	-0,024	0,066
-446,109	68,438	-0,023	-0,017
-445,095	-147,881	0,048	0,003
-444,080	-131,630	-0,178	0,017
-443,065	-200,000	0,027	-0,131
-442,051	800,000	-0,035	0,108
-441,036	78,751	-0,050	-0,039
-440,022	800,000	0,044	-0,107
-439,007	-60,706	-0,118	0,037
-437,992	-77,091	0,123	-0,031
-436,978	800,000	-0,045	-0,125
-435,963	224,321	0,090	-0,107
-434,949	207,514	-0,030	-0,035
-433,934	-57,322	-0,059	0,019
-432,919	22,069	0,137	0,082
-431,905	-85,693	0,078	0,018
-430,890	-200,000	-0,007	0,102
-429,876	107,699	-0,068	0,059
-428,861	-10,137	0,040	0,019
-427,846	-200,000	0,012	0,110
-426,832	-147,679	-0,105	0,006
-425,817	478,114	-0,026	0,044
-424,803	74,108	0,011	-0,009
-423,788	-200,000	-0,016	-0,057
-422,773	-47,539	0,178	0,063
-421,759	296,837	-0,047	0,064
-420,744	-20,990	-0,147	0,066
-419,730	412,100	-0,107	0,168
-418,715	-126,822	-0,036	-0,004
-417,701	800,000	0,019	0,042
-416,686	-85,775	-0,053	-0,012
-415,671	-200,000	0,032	0,111
-414,657	150,277	0,101	0,101
-413,642	344,426	0,066	0,095
-412,628	-200,000	-0,003	0,013
-411,613	-200,000	-0,011	-0,061
-410,598	43,828	0,109	0,073
-409,584	138,650	0,110	-0,106
-408,569	-162,123	0,235	0,009
-407,555	-200,000	-0,017	0,109
-406,540	-70,570	0,086	0,024
-405,525	205,214	0,008	0,009
-404,511	459,051	-0,048	-0,078
-403,496	-200,000	-0,013	0,084
-402,482	220,572	-0,050	0,059
-401,467	38,176	-0,141	-0,092
-400,452	-200,000	-0,013	0,050
-399,438	-78,992	-0,084	-0,021
-398,423	-200,000	-0,006	0,054
-397,409	252,942	-0,068	0,086
-396,394	397,931	-0,043	-0,067
-395,379	230,184	0,040	0,049
-394,365	248,578	0,026	-0,032
-393,350	136,076	0,005	-0,005
-392,336	-109,956	-0,089	0,014
-391,321	-64,878	0,021	0,006
-390,306	800,000	0,018	0,041
-389,292	-200,000	0,020	-0,082
-388,277	514,525	-0,042	-0,073
-387,263	72,978	0,085	0,065
-386,248	167,104	-0,056	0,059
-385,233	-56,555	0,061	0,020
-384,219	-35,167	-0,144	-0,058
-383,204	800,000	-0,057	-0,121
-382,190	-200,000	-0,013	-0,270
-381,175	229,175	0,036	-0,043
-380,160	-43,755	0,099	-0,036
-379,146	800,000	-0,011	-0,036
-378,131	-200,000	-0,005	-0,057
-377,117	-200,000	0,021	0,119
-376,102	321,625	-0,013	0,019
-375,088	-200,000	-0,006	-0,039
-374,073	-7,263	-0,040	0,020
-373,058	22,909	0,133	-0,080
-372,044	22,687	0,103	-0,062
-371,029	121,684	-0,199	0,182
-370,015	-200,000	0,010	0,060
-369,000	197,094	-0,097	-0,108
-367,985	-61,310	-0,073	-0,022
-366,971	-57,219	0,136	-0,044
-365,956	536,204	0,043	-0,075
-364,942	-200,000	-0,002	0,133
-363,927	-26,651	-0,092	-0,039
-362,912	-5,816	0,125	0,063
-361,898	266,428	0,039	0,050
-360,883	427,902	-0,027	0,044
-359,869	-56,094	0,059	0,019
-358,854	-200,000	0,026	-0,086
-357,839	800,000	0,017	-0,055
-356,825	-200,000	-0,022	-0,079
-355,810	-87,863	0,030	-0,007
-354,796	34,628	-0,081	0,052
-353,781	-6,871	-0,096	0,048
-352,766	-64,999	-0,117	0,034
-351,752	164,508	-0,105	-0,109
-350,737	-57,956	-0,017	0,005
-349,723	-200,000	-0,040	0,158
-348,708	36,268	-0,119	0,077
-347,693	156,034	-0,044	-0,045
-346,679	-23,089	-0,040	0,018
-345,664	202,461	0,053	0,061
-344,650	800,000	-0,012	-0,029
-343,635	-87,258	-0,093	0,021
-342,620	-152,075	0,174	-0,009
-341,606	-76,579	0,008	-0,002
-340,591	-200,000	-0,001	0,016
-339,577	800,000	-0,043	0,123
-338,562	455,544	0,006	-0,010
-337,548	-116,826	0,069	-0,009
-336,533	38,665	0,095	-0,062
-335,518	67,828	-0,093	0,070
-334,504	-54,836	-0,122	-0,040
-333,489	-200,000	0,010	0,137
-332,475	-200,000	-0,013	-0,116
-331,460	800,000	-0,011	-0,022
-330,445	800,000	-0,046	-0,121
-329,431	43,720	-0,046	-0,031
-328,416	-128,842	-0,095	-0,010
-327,402	-33,969	0,029	-0,012
-326,387	-175,012	-0,158	0,003
-325,372	-105,540	0,088	-0,015
-324,358	-200,000	0,013	-0,058
-323,343	353,475	0,051	-0,075
-322,329	-97,155	-0,003	0,001
-321,314	37,412	-0,096	-0,062
-320,299	-46,998	0,022	-0,008
-319,285	355,296	-0,053	0,077
-318,270	-86,339	-0,056	0,013
-317,256	800,000	0,050	-0,120
-316,241	-200,000	0,034	-0,155
-315,226	354,221	0,047	0,068
-314,212	122,577	0,082	0,076
-313,197	-200,000	0,001	-0,059
-312,183	-200,000	0,008	-0,027
-311,168	-200,000	0,017	-0,061
-310,153	800,000	0,056	-0,119
-309,139	-139,078	0,051	0,004
-308,124	-200,000	-0,001	0,107
-307,110	-200,000	-0,033	-0,156
-306,095	-104,569	0,014	0,002
-305,080	-147,801	0,041	0,002
-304,066	109,879	0,114	0,100
-303,051	-56,746	-0,086	-0,028
-302,037	-200,000	0,027	0,131
-301,022	800,000	-0,047	0,135
-300,008	-36,088	0,114	0,045
-298,993	800,000	0,071	0,171
-297,978	800,000	0,012	0,036
-296,964	-200,000	-0,022	0,073
-295,949	-22,170	-0,065	0,029
-294,935	-200,000	0,018	0,062
-293,920	43,216	0,127	0,085
-292,905	-200,000	0,017	0,075
-291,891	67,992	0,019	0,014
-290,876	725,840	-0,035	-0,069
-289,862	153,184	0,122	-0,123
-288,847	-200,000	0,008	-0,033
-287,832	-44,531	0,107	0,039
-286,818	-173,066	-0,039	0,001
-285,803	800,000	0,030	-0,081
-284,789	8,646	0,132	0,072
-283,774	80,909	0,193	0,152
-282,759	309,544	0,031	0,042
-281,745	162,163	0,017	-0,017
-280,730	800,000	-0,024	0,074
-279,716	800,000	0,022	-0,051
-278,701	-200,000	-0,013	-0,089
-277,686	131,368	0,079	0,075
-276,672	416,808	0,057	0,090
-275,657	341,227	-0,028	-0,041
-274,643	21,618	-0,061	0,036
-273,628	346,256	0,043	0,061
-272,613	800,000	-0,025	-0,053
-271,599	-92,080	-0,040	0,008
-270,584	-10,831	0,049	0,023
-269,570	88,287	-0,148	0,120
-268,555	-200,000	0,007	-0,056
-267,540	-200,000	-0,009	0,048
-266,526	-127,243	0,046	-0,005
-265,511	614,148	-0,076	-0,140
-264,497	-38,755	-0,110	0,042
-263,482	645,600	0,066	0,123
-262,467	-34,230	-0,049	-0,020
-261,453	234,570	0,062	0,075
-260,438	74,582	-0,085	0,065
-259,424	745,910	0,038	-0,076
-258,409	83,854	0,156	-0,124
-257,395	208,413	0,039	0,045
-256,380	555,168	-0,053	0,094
-255,365	800,000	0,041	0,102
-254,351	-31,225	-0,069	-0,028
-253,336	-103,534	-0,137	0,023
-252,322	241,552	-0,048	-0,059
-251,307	76,639	-0,095	0,073
-250,292	-200,000	-0,005	-0,113
-249,278	-98,804	0,108	-0,020
-248,263	-200,000	-0,019	0,121
-247,249	-200,000	-0,047	-0,162
-246,234	502,447	0,060	-0,102
-245,219	565,438	0,059	-0,105
-244,205	-128,904	-0,103	-0,010
-243,190	74,367	-0,068	-0,052
-242,176	-86,561	0,036	-0,008
-241,161	800,000	0,017	0,038
-240,146	-151,798	-0,053	0,003
-239,132	254,782	-0,101	-0,126
-238,117	-37,469	-0,039	-0,015
-237,103	653,271	0,064	-0,120
-236,088	-48,131	0,010	0,003
-235,073	246,661	0,077	0,095
-234,059	-24,136	0,099	0,043
-233,044	-154,793	-0,045	-0,002
-232,030	29,439	-0,051	-0,032
-231,015	-111,306	0,093	-0,014
-230,000	-200,000	-0,043	-0,139
-228,986	250,861	0,006	0,007
-227,971	289,084	0,052	0,069
-226,957	-200,000	-0,007	0,114
-225,942	-17,055	0,044	-0,020
-224,927	-16,854	-0,101	0,047
-223,913	-139,180	-0,208	-0,016
-222,898	-0,594	-0,049	-0,025
-221,884	174,670	0,070	-0,074
-220,869	48,028	0,193	-0,131
-219,855	-200,000	-0,002	0,021
-218,840	800,000	0,033	0,102
-217,825	-61,839	-0,048	0,015
-216,811	154,180	-0,135	-0,136
-215,796	165,775	-0,026	-0,027
-214,782	-68,176	-0,180	-0,051
-213,767	-200,000	-0,014	-0,069
-212,752	-200,000	0,035	-0,187
-211,738	-116,985	0,052	-0,007
-210,723	471,223	-0,061	0,101
-209,709	800,000	-0,021	-0,047
-208,694	-200,000	-0,005	-0,125
-207,679	-200,000	-0,008	0,037
-206,665	-51,622	0,157	0,053
-205,650	-48,788	0,093	0,032
-204,636	-34,117	-0,058	-0,023
-203,621	-12,264	0,103	0,049
-202,606	-200,000	0,006	0,073
-201,592	1,378	-0,071	-0,037
-200,577	-123,742	0,124	-0,014
-199,563	139,339	0,020	-0,019
-198,548	-82,249	0,064	0,015
-197,533	-25,215	-0,152	0,065
-196,519	-200,000	0,002	0,072
-195,504	800,000	-0,088	-0,190
-194,490	300,081	0,042	-0,057
-193,475	-38,753	-0,074	-0,028
-192,460	-200,000	-0,026	-0,108
-191,446	-23,129	0,047	0,021
-190,431	-29,839	0,032	-0,013
-189,417	229,187	-0,032	-0,038
-188,402	240,179	0,091	-0,111
-187,387	800,000	-0,039	-0,085
-186,373	-173,529	0,097	0,002
-185,358	-200,000	-0,002	0,039
-184,344	568,472	0,051	0,092
-183,329	-200,000	-0,044	0,193
-182,315	-52,855	0,052	0,017
-181,300	-200,000	0,003	0,039
-180,285	191,804	0,051	0,056
-179,271	389,089	0,018	0,027
-178,256	-200,000	-0,001	0,016
-177,242	-95,105	-0,025	0,005
-176,227	-200,000	-0,022	0,109
-175,212	401,839	-0,019	0,029
-174,198	101,506	-0,084	-0,071
-173,183	135,576	-0,052	0,050
-172,169	-200,000	0,023	-0,141
-171,154	67,522	-0,123	-0,091
-170,139	229,630	-0,045	0,054
-169,125	-200,000	0,032	0,162
-168,110	517,287	-0,014	0,024
-167,096	163,406	0,083	-0,085
-166,081	-70,745	0,058	-0,016
-165,066	800,000	0,055	-0,127
-164,052	178,804	0,065	-0,070
-163,037	591,605	0,043	0,077
-162,023	278,862	0,119	0,156
-161,008	-200,000	0,000	0,281
-159,993	497,056	-0,052	0,088
-158,979	-2,670	0,058	-0,029
-157,964	-200,000	-0,016	-0,080
-156,950	-200,000	-0,018	0,000
-155,935	800,000	-0,096	-0,220
-154,920	705,385	0,047	-0,090
-153,906	-79,131	0,044	-0,011
-152,891	-96,215	-0,058	-0,011
-151,877	-200,000	-0,035	-0,118
-150,862	-142,980	0,017	-0,001
-149,847	499,254	0,016	-0,027
-148,833	496,842	-0,053	-0,090
-147,818	649,349	0,019	0,036
-146,804	271,817	-0,071	0,091
-145,789	-27,353	0,169	0,071
-144,775	387,906	-0,024	-0,036
-143,760	-109,330	-0,155	0,024
-142,745	39,417	0,124	0,081
-141,731	-72,507	-0,083	-0,022
-140,716	558,327	-0,022	-0,038
-139,702	497,695	-0,088	0,148
-138,687	42,014	-0,033	-0,021
-137,672	349,656	-0,014	0,020
-136,658	104,976	-0,062	-0,053
-135,643	-53,184	-0,062	0,021
-134,629	-93,550	0,060	-0,012
-133,614	800,000	-0,053	-0,124
-132,599	-200,000	0,016	-0,073
-131,585	800,000	0,058	0,120
-130,570	-200,000	0,010	-0,083
-129,556	-74,709	-0,108	-0,028
-128,541	112,012	0,041	-0,036
-127,526	-64,724	0,069	-0,020
-126,512	-92,636	0,044	-0,009
-125,497	55,633	-0,085	0,060
-124,483	-200,000	0,011	0,100
-123,468	800,000	-0,024	-0,075
-122,453	800,000	-0,017	-0,036
-121,439	-200,000	0,028	0,091
-120,424	-132,301	-0,022	0,002
-119,410	442,390	0,016	0,026
-118,395	-38,978	0,095	-0,036
-117,380	112,573	-0,055	0,049
-116,366	290,393	0,050	0,067
-115,351	-52,808	-0,071	-0,024
-114,337	58,849	-0,038	0,027
-113,322	4,509	0,088	-0,047
-112,307	310,031	0,072	0,099
-111,293	-51,996	0,103	-0,035
-110,278	51,158	0,104	0,072
-109,264	2,889	0,023	-0,012
-108,249	-200,000	-0,027	0,101
-107,234	-200,000	-0,005	0,060
-106,220	67,387	0,173	-0,128
-105,205	-8,362	0,120	0,059
-104,191	-200,000	-0,008	0,154
-103,176	-32,177	0,042	-0,017
-102,162	254,108	0,046	0,057
-101,147	-200,000	0,008	-0,098
-100,132	138,241	-0,098	-0,093
-99,118	-134,324	-0,103	-0,009
-98,103	68,661	-0,083	0,062
-97,089	-137,360	0,074	-0,006
-96,074	120,612	0,077	0,070
-95,059	136,112	0,073	0,069
-94,045	-107,916	-0,184	-0,029
-93,030	41,249	-0,068	-0,045
-92,016	-69,131	0,085	-0,024
-91,001	-10,582	0,100	-0,048
-89,986	-8,454	0,095	-0,046
-88,972	7,797	-0,104	-0,056
-87,957	-76,445	-0,144	0,037
-86,943	-200,000	0,031	-0,154
-85,928	-200,000	-0,009	-0,144
-84,913	-69,965	0,114	-0,031
-83,899	-38,936	-0,056	0,021
-82,884	107,702	-0,105	0,091
-81,870	-200,000	0,013	0,078
-80,855	800,000	-0,024	0,051
-79,840	138,918	-0,047	0,045
-78,826	-45,868	-0,083	-0,030
-77,811	-124,074	-0,071	-0,008
-76,797	112,931	-0,079	-0,070
-75,782	-200,000	0,006	0,102
-74,767	674,606	0,046	0,087
-73,753	25,353	0,039	0,023
-72,738	-43,898	-0,078	-0,028
-71,724	543,869	-0,108	-0,188
-70,709	800,000	0,033	-0,085
-69,694	-134,025	0,106	-0,009
-68,680	440,242	0,054	0,086
-67,665	800,000	0,038	-0,087
-66,651	-19,600	0,037	-0,017
-65,636	7,287	0,058	0,031
-64,622	-191,129	-0,115	-0,001
-63,607	95,672	0,026	-0,021
-62,592	184,035	-0,102	-0,110
-61,578	143,472	0,083	0,080
-60,563	-200,000	-0,010	0,041
-59,549	593,107	-0,014	0,025
-58,534	-109,704	-1,284	-0,194
-57,519	800,000	-0,691	-1,460
-56,505	-200,000	-1,043	-4,476
-55,490	56,624	0,536	-0,378
-54,476	800,000	5,064	11,917
-53,461	-200,000	13,584	253,635
-52,446	-200,000	690,094	2259,325
-51,432	590,395	1622,568	2916,331
-50,417	119,166	1635,112	1467,612
-49,403	73,157	1289,255	977,168
-48,388	38,049	1024,305	659,808
-47,373	24,327	982,008	587,423
-46,359	23,484	971,879	578,575
-45,344	22,592	967,260	572,886
-44,330	22,448	966,016	571,656
-43,315	22,433	964,433	570,648
-42,300	22,350	963,505	569,807
-41,286	22,350	962,541	569,215
-40,271	22,331	961,559	568,547
-39,257	22,345	960,677	568,052
-38,242	22,333	959,714	567,418
-37,227	22,265	958,931	566,714
-36,213	22,333	957,927	566,317
-35,198	22,301	956,990	565,637
-34,184	22,361	956,577	565,564
-33,169	22,324	955,594	564,844
-32,154	22,344	954,769	564,398
-31,140	22,386	953,804	563,939
-30,125	22,389	953,032	563,469
-29,111	22,309	952,265	562,736
-28,096	22,373	951,573	562,513
-27,082	22,418	950,538	562,021
-26,067	22,353	950,043	561,499
-25,052	22,355	949,393	561,098
-24,038	22,364	948,550	560,606
-23,023	22,319	948,010	560,121
-22,009	22,436	947,366	560,092
-20,994	22,373	946,806	559,539
-19,979	22,363	946,209	559,132
-18,965	22,398	945,481	558,790
-17,950	22,306	945,093	558,247
-16,936	22,339	944,174	557,786
-15,921	22,316	943,499	557,291
-14,906	22,253	942,990	556,768
-13,892	22,293	942,109	556,354
-12,877	22,218	941,542	555,758
-11,863	22,299	940,812	555,563
-10,848	22,277	940,269	555,150
-9,833	22,277	940,147	555,054
-8,819	22,251	939,601	554,628
-7,804	22,217	938,849	554,054
-6,790	22,242	938,132	553,688
-5,775	22,262	937,477	553,342
-4,760	22,287	936,872	553,045
-3,746	22,200	936,406	552,470
-2,731	22,141	935,606	551,790
-1,717	22,048	934,819	551,012
-0,702	22,108	934,248	550,843
0,313	21,832	933,458	550,337
1,327	25,099	931,553	559,440
2,342	34,787	796,067	503,878
3,356	32,777	451,668	282,834
4,371	1,652	294,027	153,036
5,386	-2,657	274,835	138,955
6,400	-4,244	269,009	134,524
7,415	-4,638	266,658	132,974
8,429	-4,627	265,455	132,372
9,444	-4,477	264,551	132,047
10,459	-4,571	264,016	131,682
11,473	-4,702	263,327	131,208
12,488	-4,615	262,800	131,012
13,502	-4,831	262,246	130,529
14,517	-4,771	261,830	130,364
15,531	-4,769	261,623	130,251
16,546	-4,505	261,160	130,247
17,561	-4,545	260,813	130,027
18,575	-4,495	260,443	129,875
19,590	-4,488	260,034	129,666
20,604	-4,708	259,857	129,369
21,619	-4,523	259,535	129,363
22,634	-4,790	259,206	128,949
23,648	-4,759	258,854	128,790
24,663	-4,732	258,560	128,657
25,677	-4,770	258,381	128,522
26,692	-4,627	258,120	128,508
27,707	-4,700	257,835	128,290
28,721	-4,828	257,658	128,077
29,736	-4,711	257,342	128,012
30,750	-4,788	257,105	127,815
31,765	-4,837	256,827	127,621
32,780	-4,744	256,540	127,550
33,794	-4,682	256,393	127,520
34,809	-4,753	256,084	127,292
35,823	-4,917	255,958	127,074
36,838	-4,835	255,590	126,952
37,853	-4,844	255,402	126,839
38,867	-4,903	255,109	126,630
39,882	-4,883	255,023	126,594
40,896	-4,740	254,816	126,605
41,911	-4,810	254,587	126,419
42,926	-4,743	254,291	126,319
43,940	-5,024	254,111	125,973
44,955	-4,880	253,837	125,951
45,969	-4,941	253,602	125,771
46,984	-5,079	253,281	125,480
47,999	-5,268	253,085	125,207
49,013	-5,346	252,872	125,023
50,028	-5,596	252,605	124,662
51,042	-5,718	252,340	124,414
52,057	-5,535	252,088	124,438
53,071	-5,547	251,867	124,307
54,086	-5,478	251,585	124,216
55,101	-5,203	251,569	124,435
56,115	-5,096	251,623	124,543
57,130	-4,962	251,462	124,568
58,144	-4,601	251,268	124,774
59,159	-4,650	251,087	124,630
60,174	-4,456	250,745	124,617
61,188	-4,403	250,622	124,590
62,203	-4,634	250,453	124,295
63,217	-4,752	250,178	124,047
64,232	-4,643	250,031	124,057
65,247	-4,798	249,792	123,794
66,261	-4,692	249,526	123,742
67,276	-4,914	249,316	123,437
68,290	-4,982	249,100	123,261
69,305	-5,086	248,756	122,991
70,320	-5,383	248,698	122,697
71,334	-4,955	248,527	122,967
72,349	-4,564	248,276	123,165
73,363	-4,525	248,330	123,214
74,378	-4,784	248,151	122,894
75,393	-4,739	247,764	122,730
76,407	-4,526	247,375	122,707
77,422	-4,732	247,336	122,502
78,436	-4,643	247,228	122,512
79,451	-4,612	246,955	122,392
80,466	-4,886	246,666	122,007
81,480	-5,188	246,479	121,648
82,495	-5,041	246,253	121,650
83,509	-4,987	246,165	121,641
84,524	-4,866	245,888	121,595
85,539	-5,094	245,689	121,294
86,553	-4,986	245,438	121,250
87,568	-5,067	245,358	121,132
88,582	-4,986	245,251	121,137
89,597	-4,928	244,919	121,010
90,611	-4,704	244,758	121,108
91,626	-4,800	244,740	121,007
92,641	-4,730	244,474	120,924
93,655	-4,786	244,390	120,824
94,670	-4,805	244,186	120,697
95,684	-4,848	244,014	120,565
96,699	-4,838	243,857	120,485
97,714	-4,857	243,438	120,252
98,728	-5,055	243,337	120,026
99,743	-5,248	243,167	119,771
100,757	-5,032	242,844	119,781
101,772	-4,998	242,832	119,793
102,787	-4,945	242,513	119,668
103,801	-5,091	242,414	119,488
104,816	-5,000	242,276	119,485
105,830	-4,784	242,179	119,605
106,845	-4,587	241,857	119,599
107,860	-4,761	241,649	119,342
108,874	-4,776	241,494	119,242
109,889	-4,815	241,279	119,093
110,903	-4,909	241,196	118,963
111,918	-4,945	240,867	118,761
112,933	-4,894	240,818	118,768
113,947	-4,865	240,688	118,717
114,962	-4,796	240,567	118,704
115,976	-4,819	240,391	118,587
116,991	-4,921	240,193	118,396
118,006	-4,848	239,996	118,347
119,020	-4,908	239,904	118,243
120,035	-4,776	239,776	118,277
121,049	-4,903	239,714	118,132
122,064	-4,787	239,500	118,110
123,079	-4,998	239,357	117,857
124,093	-4,976	238,920	117,650
125,108	-5,122	238,801	117,461
126,122	-5,256	238,560	117,223
127,137	-5,286	238,338	117,079
128,151	-5,101	238,122	117,112
129,166	-4,967	237,947	117,126
130,181	-5,183	237,928	116,930
131,195	-5,128	237,608	116,807
132,210	-4,961	237,605	116,930
133,224	-4,830	237,380	116,916
134,239	-4,803	237,245	116,860
135,254	-4,852	237,071	116,725
136,268	-4,911	236,749	116,508
137,283	-5,106	236,423	116,180
138,297	-5,306	236,405	115,999
139,312	-5,278	236,149	115,886
140,327	-5,054	236,126	116,045
141,341	-4,662	236,161	116,367
142,356	-4,267	235,972	116,582
143,370	-4,246	235,652	116,431
144,385	-4,412	235,555	116,238
145,400	-4,348	235,387	116,197
146,414	-4,423	235,256	116,061
147,429	-4,517	235,092	115,895
148,443	-4,456	234,923	115,850
149,458	-4,544	234,753	115,686
150,473	-4,591	234,696	115,609
151,487	-4,467	234,359	115,532
152,502	-4,517	234,299	115,453
153,516	-4,472	234,056	115,358
154,531	-4,383	233,878	115,331
155,546	-4,676	233,795	115,047
156,560	-4,623	233,619	114,992
157,575	-4,760	233,434	114,781
158,589	-4,734	233,314	114,733
159,604	-4,347	233,017	114,884
160,619	-4,316	233,059	114,919
161,633	-4,245	232,774	114,825
162,648	-4,418	232,707	114,645
163,662	-4,704	232,590	114,350
164,677	-4,452	232,311	114,402
165,692	-4,521	232,197	114,281
166,706	-4,583	232,149	114,198
167,721	-4,386	232,019	114,279
168,735	-4,431	231,789	114,121
169,750	-4,312	231,713	114,167
170,764	-4,572	231,452	113,824
171,779	-4,413	231,306	113,866
172,794	-4,294	231,256	113,925
173,808	-4,546	230,988	113,585
174,823	-5,149	230,528	112,876
175,837	-4,940	230,347	112,941
176,852	-4,818	230,435	113,070
177,867	-4,502	230,356	113,268
178,881	-4,424	230,153	113,219
179,896	-4,439	230,050	113,147
180,910	-4,337	229,957	113,170
181,925	-4,446	229,681	112,940
182,940	-4,488	229,637	112,876
183,954	-4,412	229,499	112,856
184,969	-4,252	229,282	112,864
185,983	-4,387	229,159	112,688
186,998	-4,295	229,031	112,688
188,013	-4,204	228,870	112,669
189,027	-4,205	228,631	112,541
190,042	-4,231	228,495	112,443
191,056	-4,301	228,310	112,288
192,071	-4,215	228,186	112,284
193,086	-4,498	228,145	112,034
194,100	-4,251	227,870	112,080
195,115	-4,629	227,589	111,640
196,129	-5,588	227,351	110,773
197,144	-2,022	228,412	114,044
198,159	2,295	229,498	117,931
199,173	4,341	230,050	119,794
200,188	4,500	229,848	119,802
201,202	4,648	229,583	119,767
202,217	4,565	229,640	119,722
203,232	4,568	229,514	119,648
204,246	4,911	229,379	119,832
205,261	4,697	229,303	119,616
206,275	5,057	229,213	119,837
207,290	4,991	229,117	119,725
208,304	5,182	228,823	119,708
209,319	4,965	228,695	119,463
210,334	4,700	228,489	119,141
211,348	4,563	228,205	118,877
212,363	4,296	227,995	118,551
213,377	4,083	227,844	118,298
214,392	3,959	227,637	118,085
215,407	4,274	227,514	118,253
216,421	4,233	227,510	118,208
217,436	4,045	227,160	117,872
218,450	4,061	226,881	117,730
219,465	3,825	226,770	117,481
220,480	4,176	226,711	117,708
221,494	3,889	226,601	117,421
222,509	4,063	226,477	117,479
223,523	4,121	226,347	117,446
224,538	3,952	226,091	117,174
225,553	4,112	225,956	117,215
226,567	4,257	225,961	117,317
227,582	4,445	225,839	117,387
228,596	4,306	225,684	117,190
229,611	3,872	225,481	116,744
230,626	3,905	225,382	116,708
231,640	4,086	225,113	116,696
232,655	4,283	225,040	116,797
233,669	4,649	224,998	117,041
234,684	4,799	224,847	117,066
235,699	4,464	224,759	116,756
236,713	4,328	224,477	116,497
237,728	4,208	224,192	116,248
238,742	3,860	224,108	115,932
239,757	4,104	223,936	116,016
240,772	3,890	223,880	115,816
241,786	4,038	223,758	115,853
242,801	4,300	223,560	115,937
243,815	4,283	223,524	115,896
244,830	4,505	223,288	115,930
245,844	4,173	223,021	115,532
246,859	4,093	223,077	115,491
247,874	4,453	222,945	115,682
248,888	4,505	222,619	115,541
249,903	4,126	222,683	115,280
250,917	3,993	222,403	115,026
251,932	4,181	222,282	115,094
252,947	4,149	222,130	114,980
253,961	4,147	221,758	114,776
254,976	4,078	221,741	114,705
255,990	4,166	221,730	114,756
257,005	4,238	221,654	114,759
258,020	4,463	221,538	114,856
259,034	4,527	221,432	114,839
260,049	4,447	221,218	114,658
261,063	4,306	221,080	114,472
262,078	4,321	220,988	114,425
263,093	4,372	220,844	114,378
264,107	4,259	220,692	114,206
265,122	4,464	220,520	114,258
266,136	4,591	220,321	114,239
267,151	4,605	220,110	114,130
268,166	4,162	220,031	113,752
269,180	3,970	219,791	113,476
270,195	3,761	219,730	113,279
271,209	3,922	219,547	113,294
272,224	4,362	219,358	113,510
273,239	4,210	219,275	113,345
274,253	4,162	219,005	113,161
275,268	4,103	218,808	113,005
276,282	3,861	218,699	112,761
277,297	3,928	218,608	112,754
278,312	3,934	218,455	112,669
279,326	4,082	218,333	112,704
280,341	3,933	218,350	112,594
281,355	4,096	218,303	112,678
282,370	4,153	218,068	112,589
283,384	3,917	217,819	112,278
284,399	3,968	217,653	112,220
285,414	3,957	217,539	112,144
286,428	3,976	217,449	112,101
287,443	4,307	217,277	112,243
288,457	4,236	217,192	112,137
289,472	3,940	217,176	111,904
290,487	3,635	216,742	111,449
291,501	3,581	216,521	111,286
292,516	3,756	216,377	111,329
293,530	3,879	216,438	111,440
294,545	3,750	216,403	111,318
295,560	3,883	216,189	111,294
296,574	3,899	216,146	111,273
297,589	4,021	215,891	111,221
298,603	4,299	215,858	111,394
299,618	4,173	215,582	111,152
300,633	4,127	215,443	111,036
301,647	4,518	215,477	111,325
302,662	4,528	215,358	111,262
303,676	4,286	215,199	110,995
304,691	4,289	214,911	110,839
305,706	4,310	214,871	110,824
306,720	4,398	214,654	110,765
307,735	4,152	214,463	110,480
308,749	3,853	214,458	110,253
309,764	4,238	214,410	110,495
310,779	4,451	214,245	110,553
311,793	4,282	214,106	110,350
312,808	4,134	213,921	110,139
313,822	4,159	213,754	110,061
314,837	4,038	213,660	109,917
315,852	3,901	213,492	109,723
316,866	3,947	213,397	109,696
317,881	4,316	213,147	109,821
318,895	4,113	213,118	109,652
319,910	4,192	212,792	109,530
320,925	3,924	212,695	109,281
321,939	3,787	212,518	109,083
322,954	3,851	212,233	108,972
323,968	4,203	212,348	109,271
324,983	4,412	212,290	109,380
325,997	4,176	212,145	109,128
327,012	4,018	212,019	108,942
328,027	4,204	211,769	108,935
329,041	4,395	211,914	109,135
330,056	4,681	211,677	109,205
331,070	4,206	211,397	108,716
332,085	3,807	211,218	108,333
333,100	3,977	211,173	108,419
334,114	4,428	210,962	108,619
335,129	4,198	210,971	108,452
336,143	3,991	210,532	108,071
337,158	4,183	210,495	108,178
338,173	4,006	210,451	108,021
339,187	3,865	210,310	107,840
340,202	3,639	210,149	107,590
341,216	3,693	209,920	107,501
342,231	3,721	209,899	107,500
343,246	3,876	209,871	107,585
344,260	3,882	209,717	107,500
345,275	4,148	209,415	107,521
346,289	4,177	209,327	107,486
347,304	4,134	209,302	107,435
348,319	4,031	209,188	107,295
349,333	4,178	209,044	107,314
350,348	4,169	208,894	107,221
351,362	4,325	208,773	107,257
352,377	4,173	208,670	107,090
353,392	4,075	208,570	106,961
354,406	4,230	208,430	106,987
355,421	193,600	1344,392	1432,060
356,435	154,465	1482,893	1432,180
