DTS Sentinel unit serial number:	SN410029Multiplexer serial number:	ORYXHardware model number:	OX2-SRSoftware version number:	ORYX F/W v4,00 Oryx Data Collector v3.7.2.0data status	okinstallation	B6 Nyhavnadifferential loss correction	single-endedforward channel	channel 2reverse channel	N/Adate	2023/12/09time	21:05:08forward acquisition time	300,00reverse acquisition time	0,00gamma	499,1914k internal	0,3128k external	0,3128temperature offset calibration	1,0000default loss term (dB/km)	0,3820temperature slope calibration	1,0000multiplexer offset coefficient	1,0000multiplexer slope coefficient	1,0000fibre end	0,00T internal ref (°C)	21,49T ext. ref 1 (°C)	5,39T ext. ref 2 (°C)	5,39length (m)	temperature (°C)	Stokes	anti-Stokes-744,400	407,625	0,016	0,025
-743,385	-40,715	-0,191	0,073
-742,371	87,343	0,048	-0,040
-741,356	58,354	-0,135	0,099
-740,342	-200,000	0,011	-0,067
-739,327	-22,254	-0,258	0,116
-738,312	-65,226	0,025	0,008
-737,298	6,833	-0,178	0,098
-736,283	674,784	0,029	-0,057
-735,269	-73,679	-0,404	0,109
-734,254	-19,098	0,128	-0,059
-733,239	-75,049	-0,478	-0,126
-732,225	-116,846	0,165	0,022
-731,210	-55,656	0,107	-0,035
-730,196	-67,084	0,071	-0,021
-729,181	-103,093	-0,075	-0,013
-728,167	800,000	-0,023	-0,069
-727,152	9,557	0,034	-0,019
-726,137	-200,000	0,012	-0,089
-725,123	795,759	-0,034	-0,071
-724,108	-132,673	-0,154	0,014
-723,094	-67,740	-0,121	0,035
-722,079	345,496	-0,071	-0,103
-721,064	-56,836	-0,068	0,022
-720,050	139,987	0,034	-0,033
-719,035	-109,872	-0,167	0,026
-718,021	-87,601	-0,141	-0,031
-717,006	439,398	0,021	0,033
-715,991	-200,000	0,017	-0,107
-714,977	39,306	-0,080	-0,053
-713,962	-100,309	-0,130	0,024
-712,948	-178,422	-0,019	-0,000
-711,933	-200,000	0,010	0,154
-710,918	-200,000	-0,002	-0,021
-709,904	576,899	-0,058	-0,106
-708,889	213,092	0,051	-0,060
-707,875	466,200	-0,024	0,040
-706,860	12,345	0,089	-0,051
-705,845	-200,000	0,004	-0,114
-704,831	52,293	0,066	0,047
-703,816	638,933	0,009	0,016
-702,802	800,000	0,063	-0,154
-701,787	-200,000	-0,057	-0,198
-700,772	455,308	0,009	0,015
-699,758	-81,924	-0,121	0,029
-698,743	800,000	-0,024	-0,062
-697,729	38,149	0,059	-0,039
-696,714	784,036	-0,006	0,013
-695,699	-105,673	-0,084	0,014
-694,685	-73,059	-0,032	0,009
-693,670	46,185	-0,207	-0,142
-692,656	-142,234	0,125	0,009
-691,641	-115,519	0,023	-0,003
-690,627	251,598	0,063	0,080
-689,612	328,401	0,055	-0,079
-688,597	-32,806	-0,039	0,016
-687,583	-74,951	-0,105	0,028
-686,568	161,606	0,029	-0,030
-685,554	-200,000	0,019	-0,124
-684,539	12,302	-0,098	0,056
-683,524	28,896	-0,110	-0,069
-682,510	161,875	0,095	-0,099
-681,495	-127,311	0,075	-0,008
-680,481	-162,224	-0,083	-0,003
-679,466	552,986	-0,027	0,049
-678,451	312,101	0,087	-0,121
-677,437	653,851	0,044	0,083
-676,422	-200,000	0,003	-0,073
-675,408	127,898	-0,090	-0,085
-674,393	381,091	0,062	0,095
-673,378	-200,000	0,005	0,068
-672,364	3,286	-0,078	0,042
-671,349	800,000	-0,068	-0,177
-670,335	575,131	0,038	0,069
-669,320	-200,000	-0,007	0,113
-668,305	-65,202	0,054	0,016
-667,291	-200,000	0,001	0,065
-666,276	800,000	-0,017	0,050
-665,262	-200,000	-0,008	-0,042
-664,247	62,987	0,096	-0,071
-663,232	-140,601	0,150	-0,011
-662,218	-20,964	0,025	0,011
-661,203	-200,000	0,026	-0,167
-660,189	-200,000	0,002	0,016
-659,174	800,000	0,052	-0,149
-658,159	445,084	-0,043	-0,070
-657,145	86,554	0,025	-0,021
-656,130	-80,034	-0,103	-0,025
-655,116	-200,000	0,009	0,040
-654,101	800,000	0,036	0,113
-653,086	800,000	-0,017	-0,052
-652,072	-0,602	-0,158	0,083
-651,057	426,910	-0,022	0,035
-650,043	800,000	-0,026	0,053
-649,028	-120,254	-0,014	-0,002
-648,014	800,000	0,035	-0,100
-646,999	-200,000	0,000	0,008
-645,984	-66,668	0,067	-0,020
-644,970	-11,858	0,056	-0,027
-643,955	800,000	0,031	-0,073
-642,941	42,531	0,043	-0,029
-641,926	-99,638	-0,127	0,023
-640,911	-133,770	0,105	0,010
-639,897	-141,455	0,073	-0,005
-638,882	188,404	-0,063	0,070
-637,868	20,113	-0,099	-0,059
-636,853	348,812	-0,035	-0,051
-635,838	-77,246	0,058	0,015
-634,824	2,146	-0,091	-0,049
-633,809	-200,000	-0,001	-0,124
-632,795	-3,045	0,091	-0,047
-631,780	100,289	-0,128	0,110
-630,765	20,350	-0,066	0,039
-629,751	-36,002	-0,130	-0,052
-628,736	-200,000	-0,026	-0,097
-627,722	151,206	0,058	-0,058
-626,707	233,987	0,010	0,012
-625,692	58,036	0,135	0,098
-624,678	332,242	0,032	-0,046
-623,663	481,270	-0,065	-0,109
-622,649	130,944	0,068	-0,065
-621,634	259,958	-0,099	-0,127
-620,619	211,592	-0,047	-0,055
-619,605	-200,000	0,018	0,070
-618,590	384,208	-0,049	0,075
-617,576	63,650	0,044	0,033
-616,561	-200,000	-0,014	0,123
-615,546	59,062	-0,069	-0,050
-614,532	523,631	-0,034	-0,059
-613,517	-95,367	0,103	0,020
-612,503	-86,347	-0,152	0,034
-611,488	-200,000	-0,007	-0,034
-610,474	800,000	-0,062	-0,130
-609,459	-106,382	0,066	-0,011
-608,444	-200,000	0,015	-0,062
-607,430	-83,958	-0,039	0,009
-606,415	-200,000	0,011	-0,076
-605,401	344,244	-0,053	-0,077
-604,386	-200,000	-0,007	0,052
-603,371	-200,000	0,008	-0,038
-602,357	233,933	0,117	-0,143
-601,342	769,896	-0,011	0,023
-600,328	-200,000	0,004	0,061
-599,313	-200,000	0,026	-0,152
-598,298	209,966	-0,104	-0,120
-597,284	196,968	0,026	0,030
-596,269	-200,000	0,017	0,139
-595,255	32,428	0,105	0,067
-594,240	490,511	-0,066	-0,112
-593,225	-21,346	-0,259	-0,117
-592,211	-200,000	-0,004	-0,039
-591,196	-114,179	0,107	-0,015
-590,182	222,314	-0,062	-0,074
-589,167	74,341	0,067	-0,052
-588,152	-112,695	-0,117	0,017
-587,138	455,454	-0,024	-0,039
-586,123	-81,849	-0,119	-0,029
-585,109	-65,521	-0,214	-0,063
-584,094	-61,937	-0,030	0,009
-583,079	-46,992	0,175	-0,063
-582,065	-33,966	0,085	-0,034
-581,050	-200,000	0,006	0,058
-580,036	346,228	0,028	-0,040
-579,021	18,551	-0,105	0,062
-578,006	124,284	0,054	0,050
-576,992	131,822	-0,073	-0,070
-575,977	-200,000	-0,003	0,026
-574,963	442,070	0,020	-0,032
-573,948	-86,393	0,064	-0,014
-572,934	-200,000	-0,005	0,069
-571,919	397,101	-0,004	0,006
-570,904	-200,000	0,006	-0,113
-569,890	-91,492	-0,158	-0,033
-568,875	-20,687	0,041	0,018
-567,861	-200,000	-0,004	0,055
-566,846	364,568	-0,053	-0,079
-565,831	62,813	0,115	0,085
-564,817	800,000	-0,012	0,029
-563,802	-117,069	0,016	-0,002
-562,788	-90,155	0,016	-0,003
-561,773	-25,335	0,083	-0,036
-560,758	-47,230	0,084	0,030
-559,744	-61,493	0,058	-0,018
-558,729	800,000	0,021	-0,056
-557,715	242,141	-0,054	-0,066
-556,700	-55,949	0,045	0,015
-555,685	80,255	-0,052	0,041
-554,671	-200,000	-0,003	-0,173
-553,656	800,000	-0,013	-0,028
-552,642	-156,515	0,031	0,001
-551,627	-11,516	-0,214	-0,104
-550,612	-66,669	-0,120	0,035
-549,598	210,241	0,070	-0,081
-548,583	303,354	0,027	-0,037
-547,569	-76,153	-0,118	0,031
-546,554	303,299	0,110	0,151
-545,539	23,242	0,075	-0,045
-544,525	786,520	-0,026	0,053
-543,510	81,027	-0,202	0,161
-542,496	-32,135	-0,091	0,037
-541,481	-20,286	0,101	-0,046
-540,466	100,421	-0,043	0,037
-539,452	66,427	0,213	-0,160
-538,437	-200,000	0,019	0,150
-537,423	800,000	-0,048	-0,118
-536,408	-200,000	0,003	0,037
-535,393	9,618	-0,136	0,076
-534,379	800,000	-0,036	-0,112
-533,364	73,498	0,003	0,003
-532,350	-200,000	0,000	-0,003
-531,335	159,188	-0,100	0,103
-530,321	-200,000	-0,013	-0,077
-529,306	-200,000	-0,029	-0,147
-528,291	-200,000	0,008	-0,184
-527,277	800,000	-0,059	-0,185
-526,262	560,505	-0,032	-0,057
-525,248	260,642	0,060	-0,076
-524,233	57,154	0,068	0,049
-523,218	800,000	-0,028	-0,086
-522,204	-87,224	0,212	0,047
-521,189	-30,749	0,047	-0,020
-520,175	-100,737	-0,065	-0,012
-519,160	31,683	0,116	-0,073
-518,145	-25,425	0,075	0,033
-517,131	-50,928	0,215	0,074
-516,116	119,715	0,142	0,130
-515,102	119,404	0,032	-0,030
-514,087	800,000	0,002	0,008
-513,072	800,000	-0,051	-0,130
-512,058	-200,000	0,029	-0,100
-511,043	-200,000	0,004	-0,085
-510,029	-80,969	0,044	0,011
-509,014	160,014	-0,012	0,012
-507,999	731,677	-0,025	0,049
-506,985	-123,281	-0,005	-0,001
-505,970	-68,826	-0,143	-0,040
-504,956	800,000	0,060	0,157
-503,941	159,769	-0,103	-0,106
-502,926	4,882	0,090	-0,049
-501,912	-200,000	0,002	0,013
-500,897	532,365	0,027	0,047
-499,883	800,000	-0,041	-0,114
-498,868	54,311	-0,064	0,046
-497,853	-125,061	-0,070	-0,008
-496,839	800,000	0,010	0,028
-495,824	54,207	0,065	-0,046
-494,810	269,841	0,083	0,108
-493,795	482,383	0,030	-0,050
-492,781	-77,301	-0,075	0,019
-491,766	-200,000	0,030	-0,113
-490,751	-200,000	0,010	0,105
-489,737	-41,627	-0,049	0,019
-488,722	-86,557	-0,058	-0,013
-487,708	-25,428	0,086	0,037
-486,693	-49,961	0,091	-0,032
-485,678	-25,250	-0,125	-0,054
-484,664	-97,803	0,096	-0,018
-483,649	298,636	-0,036	-0,049
-482,635	-128,180	0,022	0,002
-481,620	-200,000	0,008	0,184
-480,605	800,000	0,061	0,170
-479,591	800,000	-0,058	0,178
-478,576	92,702	-0,079	-0,066
-477,562	249,413	0,093	-0,117
-476,547	683,115	0,081	-0,157
-475,532	56,872	-0,132	-0,095
-474,518	-200,000	-0,003	-0,107
-473,503	-114,461	-0,171	0,024
-472,489	172,147	-0,100	0,106
-471,474	43,871	0,073	-0,049
-470,459	-200,000	-0,001	-0,007
-469,445	-131,098	-0,124	-0,012
-468,430	159,613	-0,122	0,125
-467,416	184,745	0,075	0,082
-466,401	-200,000	-0,015	-0,134
-465,386	-200,000	0,018	0,105
-464,372	159,857	0,094	0,097
-463,357	-48,865	0,095	0,033
-462,343	777,381	-0,037	-0,076
-461,328	22,014	0,039	-0,023
-460,313	800,000	0,026	-0,062
-459,299	-200,000	-0,016	-0,083
-458,284	-200,000	-0,032	-0,109
-457,270	750,247	0,013	0,025
-456,255	276,961	-0,042	0,055
-455,241	-35,324	0,046	-0,018
-454,226	152,545	-0,059	-0,059
-453,211	108,693	0,092	-0,081
-452,197	369,738	-0,046	0,068
-451,182	104,832	0,114	0,099
-450,168	75,341	-0,064	0,050
-449,153	440,451	0,018	-0,029
-448,138	27,281	-0,202	-0,124
-447,124	319,480	-0,078	-0,109
-446,109	-3,125	-0,100	-0,051
-445,095	-43,987	0,115	0,042
-444,080	-64,523	0,028	-0,008
-443,065	800,000	-0,047	0,121
-442,051	171,819	-0,083	-0,087
-441,036	2,104	-0,026	-0,014
-440,022	169,781	0,075	-0,078
-439,007	-200,000	-0,020	0,072
-437,992	279,886	0,102	0,134
-436,978	132,433	0,080	0,076
-435,963	-200,000	-0,021	0,086
-434,949	601,033	0,015	-0,028
-433,934	44,352	-0,041	0,028
-432,919	-73,223	0,098	-0,026
-431,905	-84,964	-0,096	0,022
-430,890	4,708	0,097	0,052
-429,876	-200,000	-0,012	-0,045
-428,861	769,349	-0,026	-0,053
-427,846	-1,830	0,048	-0,025
-426,832	-61,396	0,096	-0,029
-425,817	-45,790	0,037	-0,013
-424,803	87,346	-0,030	0,024
-423,788	-51,950	-0,164	0,056
-422,773	800,000	-0,024	0,073
-421,759	113,954	0,085	0,076
-420,744	127,922	0,020	-0,019
-419,730	800,000	0,041	0,127
-418,715	36,724	0,041	-0,027
-417,701	138,992	-0,044	0,043
-416,686	800,000	0,054	0,161
-415,671	-116,147	0,110	0,015
-414,657	-39,935	0,109	0,042
-413,642	312,251	0,044	-0,061
-412,628	-200,000	-0,004	0,064
-411,613	269,914	-0,037	-0,048
-410,598	-200,000	0,011	-0,111
-409,584	469,614	0,042	0,070
-408,569	-53,413	0,056	0,019
-407,555	-14,623	0,095	0,044
-406,540	-200,000	-0,005	0,121
-405,525	-73,132	-0,083	0,022
-404,511	-102,153	0,221	-0,039
-403,496	-200,000	-0,003	0,085
-402,482	101,496	0,051	0,044
-401,467	-31,467	-0,075	-0,031
-400,452	-158,067	-0,038	-0,002
-399,438	290,281	0,126	0,169
-398,423	-147,621	-0,119	0,007
-397,409	340,974	-0,103	-0,149
-396,394	-200,000	-0,023	-0,141
-395,379	388,934	0,021	-0,032
-394,365	276,481	0,070	0,091
-393,350	54,661	0,076	0,054
-392,336	-200,000	0,017	0,061
-391,321	-200,000	-0,003	-0,020
-390,306	661,958	-0,047	0,089
-389,292	-105,549	0,150	-0,025
-388,277	-118,621	-0,044	-0,006
-387,263	18,140	0,121	0,071
-386,248	-200,000	-0,007	0,153
-385,233	-181,422	0,108	0,002
-384,219	-25,851	-0,067	0,029
-383,204	165,946	0,033	-0,034
-382,190	-200,000	0,012	0,046
-381,175	18,279	0,085	0,050
-380,160	166,457	-0,041	0,042
-379,146	-127,981	-0,135	-0,014
-378,131	-200,000	0,025	0,180
-377,117	-33,659	0,058	-0,024
-376,102	-111,137	-0,088	-0,013
-375,088	-31,362	-0,137	-0,056
-374,073	11,810	-0,142	0,080
-373,058	88,757	0,084	-0,069
-372,044	-200,000	0,000	0,107
-371,029	171,666	0,066	0,069
-370,015	-18,131	0,037	-0,017
-369,000	-200,000	-0,012	-0,045
-367,985	-96,377	0,129	-0,025
-366,971	195,668	-0,027	-0,030
-365,956	274,071	0,097	-0,127
-364,942	-16,521	0,016	0,007
-363,927	-200,000	-0,001	-0,068
-362,912	65,954	-0,029	-0,021
-361,898	-95,405	0,163	0,032
-360,883	771,806	-0,074	-0,148
-359,869	0,025	0,112	-0,058
-358,854	-71,227	-0,093	0,025
-357,839	-23,895	0,054	-0,024
-356,825	270,777	0,014	-0,018
-355,810	-200,000	-0,017	-0,081
-354,796	-200,000	-0,003	-0,080
-353,781	-2,535	-0,076	-0,039
-352,766	4,039	0,028	-0,015
-351,752	-9,327	-0,087	0,042
-350,737	133,261	0,078	-0,074
-349,723	166,033	0,061	-0,063
-348,708	-99,530	0,070	0,013
-347,693	-85,242	-0,157	0,036
-346,679	133,528	0,083	-0,079
-345,664	15,448	0,013	0,007
-344,650	800,000	0,071	0,165
-343,635	-200,000	0,003	0,024
-342,620	-4,983	0,056	0,028
-341,606	-200,000	0,009	0,033
-340,591	-200,000	-0,009	-0,033
-339,577	-48,451	-0,112	-0,039
-338,562	227,004	-0,113	-0,135
-337,548	-200,000	0,007	-0,045
-336,533	-18,792	-0,032	-0,014
-335,518	94,382	-0,071	0,059
-334,504	800,000	0,012	0,029
-333,489	-43,601	0,147	-0,054
-332,475	-79,368	-0,154	0,038
-331,460	800,000	-0,059	-0,142
-330,445	229,687	-0,094	-0,113
-329,431	800,000	-0,058	0,148
-328,416	800,000	-0,085	0,234
-327,402	-67,495	-0,110	-0,031
-326,387	87,701	0,048	-0,039
-325,372	-114,372	-0,064	0,009
-324,358	-200,000	-0,002	-0,038
-323,343	800,000	0,037	-0,086
-322,329	-200,000	0,022	0,101
-321,314	-200,000	-0,009	0,036
-320,299	161,893	0,062	0,064
-319,285	-107,149	0,045	-0,007
-318,270	-45,805	-0,186	-0,067
-317,256	156,160	-0,035	-0,035
-316,241	407,645	-0,084	-0,131
-315,226	-122,225	0,061	-0,007
-314,212	-91,191	0,103	-0,021
-313,197	800,000	-0,058	0,171
-312,183	146,566	0,033	-0,033
-311,168	274,815	-0,003	-0,004
-310,153	-200,000	0,019	-0,082
-309,139	417,998	0,105	-0,165
-308,124	204,617	0,095	0,108
-307,110	800,000	0,034	0,087
-306,095	453,180	0,064	-0,103
-305,080	-200,000	-0,027	0,091
-304,066	-200,000	-0,016	-0,071
-303,051	60,201	-0,071	-0,051
-302,037	5,212	-0,091	-0,049
-301,022	5,541	0,119	0,064
-300,008	800,000	-0,016	-0,049
-298,993	451,657	-0,063	-0,102
-297,978	-200,000	0,006	0,032
-296,964	-65,773	-0,098	-0,029
-295,949	594,340	-0,060	0,110
-294,935	305,516	-0,051	0,069
-293,920	162,590	0,101	0,103
-292,905	-200,000	-0,008	0,112
-291,891	-200,000	0,023	0,191
-290,876	-200,000	-0,014	0,074
-289,862	-74,849	-0,057	-0,015
-288,847	800,000	-0,039	-0,123
-287,832	-65,701	0,114	-0,033
-286,818	800,000	-0,024	-0,064
-285,803	758,427	0,042	0,084
-284,789	800,000	0,021	-0,053
-283,774	-25,008	0,093	0,040
-282,759	-2,388	0,080	0,041
-281,745	800,000	-0,051	0,133
-280,730	-200,000	0,014	-0,111
-279,716	583,182	-0,094	-0,169
-278,701	-200,000	0,007	0,091
-277,686	-67,999	0,060	0,017
-276,672	-200,000	-0,002	0,181
-275,657	-89,535	0,054	-0,011
-274,643	-200,000	0,004	-0,033
-273,628	14,572	-0,056	0,032
-272,613	-26,294	-0,068	0,029
-271,599	800,000	-0,062	0,133
-270,584	-200,000	0,036	0,179
-269,570	72,504	0,048	-0,037
-268,555	-69,792	-0,185	-0,051
-267,540	-92,235	0,070	0,014
-266,526	800,000	-0,039	0,104
-265,511	251,342	0,024	-0,030
-264,497	298,759	-0,024	0,032
-263,482	-70,232	0,106	-0,029
-262,467	-200,000	-0,022	0,138
-261,453	362,348	-0,079	0,116
-260,438	262,076	0,022	0,028
-259,424	82,354	0,064	-0,051
-258,409	26,265	-0,057	-0,035
-257,395	524,179	0,075	0,129
-256,380	-83,069	0,112	0,026
-255,365	-200,000	-0,019	0,133
-254,351	800,000	0,045	-0,111
-253,336	800,000	-0,065	0,159
-252,322	-108,172	-0,073	-0,011
-251,307	-39,903	-0,072	-0,027
-250,292	800,000	-0,043	0,125
-249,278	53,652	0,072	0,050
-248,263	-200,000	-0,006	-0,046
-247,249	800,000	0,057	0,152
-246,234	800,000	0,085	-0,173
-245,219	736,810	-0,081	-0,160
-244,205	-128,357	-0,015	0,002
-243,190	800,000	0,024	-0,070
-242,176	-200,000	0,015	0,100
-241,161	-200,000	0,029	0,204
-240,146	529,471	0,088	-0,152
-239,132	-200,000	0,011	-0,147
-238,117	-78,597	0,036	0,009
-237,103	-89,287	-0,134	0,029
-236,088	800,000	-0,015	0,035
-235,073	463,553	-0,039	0,064
-234,059	90,731	0,108	0,088
-233,044	166,615	0,080	0,082
-232,030	800,000	-0,019	0,060
-231,015	-200,000	0,038	0,139
-230,000	107,565	-0,024	0,021
-228,986	-200,000	0,035	0,130
-227,971	-200,000	-0,018	-0,124
-226,957	-200,000	-0,011	0,096
-225,942	-200,000	0,016	0,123
-224,927	-170,074	-0,098	-0,002
-223,913	-137,436	-0,122	-0,010
-222,898	-25,492	-0,052	0,022
-221,884	331,814	-0,108	-0,152
-220,869	118,218	-0,063	0,057
-219,855	-178,917	0,027	0,000
-218,840	800,000	0,064	-0,132
-217,825	-154,025	-0,162	-0,008
-216,811	-200,000	0,015	-0,114
-215,796	-51,025	-0,102	0,035
-214,782	326,197	0,093	-0,130
-213,767	162,093	0,081	-0,083
-212,752	217,121	0,029	0,034
-211,738	-52,809	-0,078	0,026
-210,723	-36,848	0,114	-0,044
-209,709	-200,000	0,004	-0,055
-208,694	90,500	-0,072	0,059
-207,679	-200,000	-0,027	-0,115
-206,665	248,113	-0,031	-0,039
-205,650	13,016	0,074	-0,042
-204,636	248,349	-0,047	0,058
-203,621	-49,804	0,032	0,011
-202,606	190,888	-0,071	0,078
-201,592	-91,232	0,052	-0,011
-200,577	-34,110	-0,042	-0,017
-199,563	395,118	0,027	-0,041
-198,548	-10,684	0,076	-0,037
-197,533	-67,024	0,121	-0,035
-196,519	800,000	-0,039	0,097
-195,504	-68,663	-0,082	-0,023
-194,490	-103,790	-0,070	0,012
-193,475	99,576	-0,022	0,019
-192,460	-200,000	0,014	-0,095
-191,446	46,117	-0,161	0,108
-190,431	-166,036	0,106	0,003
-189,417	-50,262	0,043	0,015
-188,402	-200,000	-0,018	0,061
-187,387	40,056	-0,067	0,044
-186,373	20,068	0,072	0,042
-185,358	-200,000	0,002	0,108
-184,344	152,214	0,094	0,094
-183,329	432,316	0,025	0,040
-182,315	386,080	-0,096	0,145
-181,300	-200,000	0,008	0,097
-180,285	-200,000	0,009	-0,115
-179,271	-156,889	-0,089	0,004
-178,256	316,828	0,097	0,134
-177,242	800,000	0,038	-0,084
-176,227	800,000	0,065	0,132
-175,212	-186,982	-0,044	-0,000
-174,198	-200,000	0,028	0,113
-173,183	378,242	-0,064	0,096
-172,169	800,000	0,052	-0,120
-171,154	800,000	-0,014	-0,032
-170,139	-86,652	-0,059	-0,013
-169,125	141,799	0,142	0,137
-168,110	-144,742	0,133	-0,009
-167,096	83,160	0,089	-0,070
-166,081	221,530	-0,101	-0,118
-165,066	-200,000	-0,019	-0,099
-164,052	-200,000	0,000	0,084
-163,037	-200,000	0,005	-0,098
-162,023	-200,000	0,001	0,029
-161,008	572,320	0,055	0,097
-159,993	-200,000	-0,025	0,092
-158,979	103,932	0,067	-0,057
-157,964	800,000	-0,065	-0,165
-156,950	88,319	-0,068	0,055
-155,935	800,000	0,066	-0,144
-154,920	-31,054	0,054	-0,022
-153,906	240,543	-0,088	0,107
-152,891	408,591	-0,047	0,072
-151,877	-56,762	-0,095	0,030
-150,862	52,881	0,012	-0,008
-149,847	721,344	-0,066	0,129
-148,833	142,450	0,051	0,050
-147,818	-200,000	0,052	0,200
-146,804	-79,835	0,078	0,019
-145,789	191,935	-0,093	0,102
-144,775	321,833	-0,045	-0,062
-143,760	-177,289	0,104	-0,002
-142,745	-200,000	-0,010	-0,063
-141,731	800,000	0,017	-0,046
-140,716	-54,883	0,172	0,056
-139,702	296,770	0,119	0,159
-138,687	-107,836	-0,059	0,009
-137,672	800,000	-0,045	-0,140
-136,658	-200,000	-0,019	-0,086
-135,643	-200,000	0,008	0,057
-134,629	-200,000	0,012	-0,071
-133,614	-116,417	0,076	0,010
-132,599	-53,300	0,091	0,030
-131,585	-200,000	-0,017	-0,066
-130,570	800,000	0,014	-0,037
-129,556	-200,000	0,012	-0,074
-128,541	595,486	0,029	0,052
-127,526	120,785	0,053	-0,048
-126,512	-187,576	-0,023	0,000
-125,497	-175,854	-0,040	-0,001
-124,483	800,000	0,049	0,115
-123,468	509,530	0,024	0,040
-122,453	800,000	0,013	0,028
-121,439	13,955	0,038	-0,021
-120,424	800,000	-0,073	-0,155
-119,410	305,538	-0,049	-0,067
-118,395	300,721	0,021	0,028
-117,380	29,728	0,084	0,052
-116,366	-105,749	-0,090	-0,015
-115,351	22,562	-0,162	-0,096
-114,337	-200,000	-0,010	-0,130
-113,322	266,890	0,044	0,055
-112,307	193,452	-0,075	-0,082
-111,293	-200,000	-0,006	0,052
-110,278	-119,713	-0,066	0,008
-109,264	-200,000	-0,005	0,108
-108,249	98,122	-0,056	0,047
-107,234	-91,357	-0,091	-0,019
-106,220	-130,895	0,014	0,001
-105,205	800,000	0,026	0,069
-104,191	109,586	0,036	-0,031
-103,176	153,936	0,103	0,103
-102,162	-200,000	0,029	0,100
-101,147	-115,862	-0,146	0,020
-100,132	-200,000	0,044	-0,156
-99,118	161,274	0,069	-0,070
-98,103	72,754	-0,056	-0,042
-97,089	143,112	0,054	0,052
-96,074	-72,608	0,162	0,043
-95,059	188,750	-0,082	0,089
-94,045	800,000	-0,050	0,125
-93,030	497,088	-0,014	0,024
-92,016	-71,349	0,032	-0,009
-91,001	-200,000	0,008	-0,084
-89,986	2,289	-0,076	-0,040
-88,972	-50,315	0,080	-0,027
-87,957	-88,493	-0,057	-0,012
-86,943	-174,602	-0,075	0,002
-85,928	-200,000	0,002	-0,097
-84,913	-86,811	0,129	0,028
-83,899	800,000	0,017	-0,040
-82,884	355,073	0,022	0,032
-81,870	292,895	-0,041	-0,054
-80,855	-61,884	-0,054	-0,016
-79,840	800,000	0,019	-0,041
-78,826	-32,450	-0,046	-0,019
-77,811	36,106	-0,100	-0,063
-76,797	497,788	0,015	-0,025
-75,782	800,000	0,048	0,146
-74,767	-64,399	-0,060	0,018
-73,753	184,882	-0,049	0,052
-72,738	-170,474	-0,035	-0,001
-71,724	-200,000	-0,001	-0,027
-70,709	-80,225	-0,101	-0,024
-69,694	31,600	0,026	-0,016
-68,680	800,000	-0,045	0,102
-67,665	715,428	0,020	0,038
-66,651	-3,119	0,098	0,049
-65,636	-42,040	-0,079	0,029
-64,622	800,000	0,059	-0,137
-63,607	800,000	0,019	0,051
-62,592	-194,481	-0,096	-0,001
-61,578	186,897	0,078	0,085
-60,563	800,000	-0,037	0,098
-59,549	35,595	-0,144	0,091
-58,534	-117,552	-1,469	-0,190
-57,519	800,000	-0,644	-1,529
-56,505	-200,000	-0,970	-4,495
-55,490	-76,408	0,611	-0,155
-54,476	800,000	4,926	11,782
-53,461	-200,000	14,299	253,297
-52,446	800,000	696,518	2226,509
-51,432	564,962	1624,224	2863,220
-50,417	116,785	1630,487	1449,442
-49,403	73,315	1284,321	972,260
-48,388	37,412	1022,301	655,137
-47,373	23,553	980,757	583,027
-46,359	22,782	970,255	574,239
-45,344	21,705	966,019	568,199
-44,330	21,664	964,657	567,240
-43,315	21,521	962,986	565,769
-42,300	21,516	962,140	565,236
-41,286	21,554	961,153	564,756
-40,271	21,513	959,931	563,882
-39,257	21,469	959,081	563,220
-38,242	21,524	958,195	562,854
-37,227	21,464	957,311	562,117
-36,213	21,468	956,368	561,556
-35,198	21,424	955,574	560,925
-34,184	21,480	955,020	560,759
-33,169	21,500	954,067	560,240
-32,154	21,552	953,194	559,873
-31,140	21,602	952,023	559,324
-30,125	21,560	951,369	558,783
-29,111	21,533	950,673	558,263
-28,096	21,516	949,924	557,746
-27,082	21,513	949,358	557,385
-26,067	21,518	948,612	556,940
-25,052	21,513	947,976	556,527
-24,038	21,544	947,175	556,134
-23,023	21,550	946,556	555,770
-22,009	21,576	945,796	555,384
-20,994	21,518	945,409	554,948
-19,979	21,571	944,727	554,697
-18,965	21,609	943,977	554,354
-17,950	21,553	943,281	553,747
-16,936	21,470	942,668	553,101
-15,921	21,497	941,969	552,754
-14,906	21,420	941,137	552,000
-13,892	21,433	940,576	551,688
-12,877	21,401	940,101	551,285
-11,863	21,353	939,399	550,703
-10,848	21,409	938,840	550,529
-9,833	21,485	938,507	550,553
-8,819	21,475	937,825	550,099
-7,804	21,447	937,225	549,636
-6,790	21,433	936,419	549,099
-5,775	21,467	935,928	548,896
-4,760	21,395	935,380	548,324
-3,746	21,382	934,752	547,894
-2,731	21,298	934,066	547,206
-1,717	21,215	933,360	546,509
-0,702	21,237	932,563	546,089
0,313	21,043	931,893	545,913
1,327	24,076	930,154	554,360
2,342	33,408	793,791	497,862
3,356	31,086	450,788	279,215
4,371	0,774	294,615	152,170
5,386	-3,572	275,637	138,234
6,400	-4,955	269,830	134,023
7,415	-5,243	267,384	132,531
8,429	-5,083	266,190	132,074
9,444	-5,090	265,429	131,679
10,459	-5,098	264,677	131,286
11,473	-5,260	264,169	130,875
12,488	-4,942	263,510	130,826
13,502	-5,273	263,104	130,313
14,517	-5,118	262,544	130,164
15,531	-5,038	262,117	130,012
16,546	-4,971	261,792	129,900
17,561	-5,142	261,484	129,582
18,575	-5,121	261,158	129,427
19,590	-5,368	260,912	129,072
20,604	-5,215	260,586	129,037
21,619	-5,251	260,234	128,819
22,634	-5,182	259,889	128,698
23,648	-5,272	259,702	128,514
24,663	-5,418	259,344	128,195
25,677	-5,460	259,033	127,992
26,692	-5,111	258,901	128,226
27,707	-5,181	258,550	127,979
28,721	-5,321	258,272	127,706
29,736	-5,432	258,024	127,473
30,750	-5,307	257,781	127,452
31,765	-5,422	257,760	127,328
32,780	-5,459	257,252	127,033
33,794	-5,264	257,175	127,157
34,809	-5,305	256,876	126,962
35,823	-5,095	256,352	126,877
36,838	-5,520	256,350	126,489
37,853	-5,492	256,229	126,443
38,867	-5,337	255,858	126,385
39,882	-5,324	255,568	126,242
40,896	-5,433	255,424	126,064
41,911	-5,396	255,218	125,983
42,926	-5,370	254,915	125,845
43,940	-5,494	254,726	125,632
44,955	-5,335	254,483	125,640
45,969	-5,507	254,312	125,394
46,984	-5,572	254,031	125,188
47,999	-5,809	253,726	124,820
49,013	-5,816	253,453	124,668
50,028	-6,086	253,208	124,302
51,042	-6,226	253,072	124,102
52,057	-6,182	252,772	123,982
53,071	-6,068	252,588	123,980
54,086	-5,983	252,362	123,931
55,101	-5,849	252,252	123,982
56,115	-5,474	252,193	124,267
57,130	-5,369	252,095	124,298
58,144	-4,921	251,872	124,565
59,159	-5,182	251,641	124,214
60,174	-5,261	251,313	123,973
61,188	-5,048	251,172	124,076
62,203	-5,047	250,949	123,956
63,217	-5,323	250,771	123,619
64,232	-5,286	250,787	123,649
65,247	-5,180	250,318	123,497
66,261	-4,969	250,119	123,568
67,276	-5,416	249,866	123,050
68,290	-5,510	249,605	122,829
69,305	-5,729	249,300	122,481
70,320	-5,567	249,290	122,604
71,334	-5,381	249,117	122,667
72,349	-5,233	248,958	122,703
73,363	-5,071	248,883	122,794
74,378	-5,030	248,489	122,624
75,393	-5,124	248,266	122,423
76,407	-5,203	248,059	122,242
77,422	-5,195	247,999	122,209
78,436	-5,203	247,843	122,114
79,451	-5,205	247,511	121,938
80,466	-5,289	247,223	121,714
81,480	-5,489	247,040	121,444
82,495	-5,419	246,840	121,394
83,509	-5,403	246,672	121,314
84,524	-5,462	246,549	121,193
85,539	-5,611	246,259	120,914
86,553	-5,748	246,245	120,781
87,568	-5,503	245,874	120,794
88,582	-5,533	245,756	120,700
89,597	-5,415	245,565	120,695
90,611	-5,497	245,533	120,600
91,626	-5,598	245,408	120,442
92,641	-5,289	245,120	120,550
93,655	-5,440	244,834	120,272
94,670	-5,341	244,671	120,264
95,684	-5,564	244,525	119,995
96,699	-5,388	244,288	120,015
97,714	-5,524	244,225	119,859
98,728	-5,729	244,099	119,616
99,743	-5,724	243,666	119,397
100,757	-5,782	243,522	119,268
101,772	-5,776	243,364	119,185
102,787	-5,441	243,183	119,364
103,801	-5,477	242,825	119,148
104,816	-5,384	242,842	119,223
105,830	-5,416	242,753	119,142
106,845	-5,243	242,597	119,198
107,860	-5,395	242,384	118,957
108,874	-5,325	242,218	118,923
109,889	-5,324	241,888	118,751
110,903	-5,277	241,618	118,646
111,918	-5,409	241,595	118,516
112,933	-5,164	241,220	118,523
113,947	-5,458	241,256	118,288
114,962	-5,396	241,161	118,282
115,976	-5,414	240,895	118,126
116,991	-5,255	240,610	118,106
118,006	-5,244	240,545	118,073
119,020	-5,424	240,628	117,955
120,035	-5,251	240,139	117,847
121,049	-5,212	240,121	117,859
122,064	-5,258	239,942	117,724
123,079	-5,334	239,704	117,534
124,093	-5,230	239,387	117,453
125,108	-5,604	239,411	117,149
126,122	-5,825	239,110	116,811
127,137	-5,947	238,927	116,612
128,151	-5,572	238,753	116,822
129,166	-5,745	238,542	116,567
130,181	-5,568	238,173	116,520
131,195	-5,720	238,158	116,379
132,210	-5,391	237,951	116,534
133,224	-5,447	237,848	116,428
134,239	-5,451	237,667	116,326
135,254	-5,179	237,530	116,469
136,268	-5,344	237,325	116,224
137,283	-5,549	237,106	115,942
138,297	-5,662	236,963	115,770
139,312	-5,665	236,750	115,653
140,327	-5,469	236,559	115,707
141,341	-4,937	236,483	116,089
142,356	-4,990	236,496	116,041
143,370	-5,119	236,357	115,860
144,385	-4,845	236,127	115,957
145,400	-5,123	235,951	115,636
146,414	-4,915	235,624	115,633
147,429	-5,289	235,686	115,353
148,443	-5,111	235,492	115,390
149,458	-5,171	235,392	115,283
150,473	-5,165	235,192	115,180
151,487	-4,960	234,865	115,173
152,502	-5,103	234,667	114,951
153,516	-4,928	234,459	114,979
154,531	-4,971	234,354	114,883
155,546	-5,071	234,319	114,775
156,560	-5,127	233,931	114,531
157,575	-5,110	233,828	114,484
158,589	-5,076	233,688	114,432
159,604	-5,068	233,665	114,417
160,619	-4,812	233,378	114,470
161,633	-4,959	233,289	114,298
162,648	-5,061	233,194	114,161
163,662	-4,893	232,802	114,092
164,677	-5,070	232,810	113,946
165,692	-5,093	232,720	113,873
166,706	-4,988	232,624	113,899
167,721	-4,749	232,286	113,912
168,735	-4,886	232,168	113,737
169,750	-4,996	232,067	113,590
170,764	-4,985	231,901	113,507
171,779	-4,841	231,715	113,519
172,794	-4,875	231,675	113,463
173,808	-5,189	231,572	113,155
174,823	-5,547	231,187	112,676
175,837	-5,599	230,893	112,482
176,852	-5,287	230,911	112,726
177,867	-4,969	230,794	112,907
178,881	-4,797	230,705	112,989
179,896	-4,847	230,607	112,891
180,910	-4,649	230,289	112,880
181,925	-4,871	230,229	112,667
182,940	-5,021	230,138	112,495
183,954	-4,652	229,890	112,652
184,969	-4,817	229,787	112,463
185,983	-4,864	229,624	112,336
186,998	-4,976	229,713	112,283
188,013	-4,556	229,425	112,459
189,027	-4,800	229,148	112,123
190,042	-4,893	229,117	112,026
191,056	-4,896	228,852	111,884
192,071	-4,900	228,812	111,851
193,086	-4,767	228,523	111,803
194,100	-4,646	228,417	111,835
195,115	-5,094	228,080	111,314
196,129	-5,126	227,942	111,212
197,144	-2,285	228,999	113,921
198,159	1,902	229,953	117,640
199,173	3,976	230,409	119,475
200,188	3,931	230,536	119,495
201,202	3,925	230,274	119,344
202,217	4,075	230,189	119,405
203,232	4,451	229,967	119,571
204,246	4,279	229,946	119,416
205,261	4,544	229,678	119,471
206,275	4,793	229,761	119,696
207,290	4,638	229,627	119,496
208,304	4,824	229,314	119,466
209,319	4,657	229,161	119,247
210,334	4,476	228,952	118,988
211,348	4,445	228,701	118,824
212,363	4,033	228,483	118,383
213,377	3,766	228,267	118,055
214,392	3,576	228,161	117,843
215,407	3,890	228,089	118,038
216,421	4,063	227,865	118,043
217,436	3,690	227,599	117,610
218,450	3,577	227,404	117,411
219,465	3,497	227,223	117,246
220,480	3,532	227,096	117,197
221,494	3,562	227,113	117,218
222,509	3,506	227,053	117,134
223,523	3,673	226,888	117,166
224,538	3,789	226,544	117,066
225,553	3,831	226,403	117,015
226,567	3,859	226,284	116,964
227,582	3,751	226,338	116,899
228,596	4,283	226,148	117,196
229,611	3,683	225,939	116,621
230,626	3,795	225,696	116,570
231,640	3,547	225,577	116,311
232,655	4,069	225,462	116,636
233,669	4,596	225,401	116,994
234,684	4,579	225,301	116,918
235,699	4,174	225,142	116,519
236,713	4,084	224,935	116,334
237,728	3,786	224,775	116,016
238,742	3,594	224,577	115,758
239,757	3,717	224,387	115,742
240,772	3,785	224,223	115,699
241,786	3,589	224,212	115,535
242,801	4,044	224,014	115,765
243,815	4,173	224,071	115,881
244,830	3,981	223,874	115,624
245,844	3,812	223,628	115,360
246,859	3,939	223,390	115,323
247,874	4,126	223,356	115,435
248,888	3,825	223,206	115,122
249,903	3,767	222,991	114,957
250,917	3,680	222,937	114,854
251,932	3,695	222,584	114,673
252,947	3,695	222,593	114,667
253,961	3,656	222,427	114,542
254,976	3,737	222,311	114,533
255,990	4,107	222,142	114,711
257,005	3,998	221,994	114,544
258,020	3,990	221,791	114,423
259,034	3,929	221,859	114,402
260,049	4,171	221,636	114,457
261,063	4,022	221,397	114,212
262,078	4,104	221,338	114,233
263,093	4,169	221,304	114,254
264,107	4,090	221,081	114,069
265,122	4,306	220,904	114,128
266,136	4,390	220,781	114,116
267,151	4,209	220,577	113,867
268,166	3,910	220,499	113,596
269,180	3,648	220,187	113,232
270,195	3,644	219,988	113,116
271,209	3,689	219,950	113,119
272,224	3,988	219,772	113,238
273,239	3,792	219,797	113,097
274,253	3,597	219,660	112,872
275,268	3,466	219,482	112,675
276,282	3,468	219,190	112,516
277,297	3,617	218,941	112,488
278,312	3,700	218,910	112,522
279,326	3,660	218,811	112,432
280,341	3,888	218,627	112,495
281,355	3,697	218,606	112,334
282,370	3,770	218,461	112,303
283,384	3,566	218,166	111,992
284,399	3,560	217,984	111,884
285,414	3,522	217,933	111,820
286,428	3,839	217,858	112,003
287,443	3,955	217,840	112,069
288,457	3,872	217,714	111,933
289,472	3,930	217,280	111,742
290,487	3,281	217,125	111,181
291,501	3,277	216,979	111,094
292,516	3,327	216,975	111,118
293,530	3,488	216,849	111,161
294,545	3,529	216,655	111,080
295,560	3,602	216,612	111,102
296,574	3,458	216,586	110,974
297,589	3,732	216,285	111,008
298,603	3,677	216,192	110,911
299,618	3,676	216,106	110,856
300,633	3,782	216,111	110,926
301,647	4,156	216,008	111,132
302,662	4,184	215,776	111,023
303,676	3,987	215,658	110,810
304,691	3,911	215,454	110,641
305,706	4,153	215,345	110,749
306,720	4,147	215,151	110,635
307,735	3,719	215,001	110,241
308,749	3,719	214,812	110,134
309,764	3,729	214,743	110,097
310,779	4,177	214,653	110,361
311,793	4,117	214,477	110,218
312,808	4,040	214,227	110,025
313,822	3,802	214,092	109,776
314,837	3,730	214,028	109,681
315,852	3,539	213,859	109,449
316,866	3,688	213,710	109,469
317,881	3,917	213,694	109,615
318,895	3,693	213,437	109,313
319,910	3,779	213,318	109,304
320,925	3,432	213,025	108,898
321,939	3,348	212,966	108,798
322,954	3,479	212,735	108,763
323,968	3,734	212,681	108,907
324,983	3,953	212,690	109,057
325,997	3,963	212,586	109,001
327,012	3,979	212,324	108,868
328,027	4,039	212,343	108,911
329,041	4,373	212,202	109,064
330,056	4,434	212,072	109,032
331,070	3,961	211,776	108,536
332,085	3,495	211,574	108,094
333,100	3,601	211,628	108,187
334,114	3,758	211,415	108,179
335,129	3,882	211,181	108,136
336,143	3,556	211,096	107,854
337,158	3,619	210,944	107,811
338,173	3,752	210,920	107,883
339,187	3,335	210,707	107,472
340,202	3,424	210,381	107,358
341,216	3,347	210,386	107,297
342,231	3,624	210,146	107,359
343,246	3,650	210,093	107,341
344,260	3,644	210,087	107,324
345,275	3,637	210,021	107,275
346,289	3,990	209,860	107,430
347,304	4,017	209,773	107,395
348,319	3,642	209,630	107,051
349,333	3,505	209,507	106,883
350,348	3,711	209,319	106,920
351,362	3,983	209,257	107,069
352,377	4,129	209,086	107,073
353,392	3,717	208,945	106,705
354,406	3,816	208,858	106,720
355,421	195,711	1342,888	1434,697
356,435	156,255	1481,149	1434,808
