DTS Sentinel unit serial number:	SN410029Multiplexer serial number:	ORYXHardware model number:	OX2-SRSoftware version number:	ORYX F/W v4,00 Oryx Data Collector v3.7.2.0data status	okinstallation	B6 Nyhavnadifferential loss correction	single-endedforward channel	channel 2reverse channel	N/Adate	2023/12/10time	01:45:08forward acquisition time	300,00reverse acquisition time	0,00gamma	499,1914k internal	0,3126k external	0,3126temperature offset calibration	1,0000default loss term (dB/km)	0,3820temperature slope calibration	1,0000multiplexer offset coefficient	1,0000multiplexer slope coefficient	1,0000fibre end	0,00T internal ref (°C)	21,93T ext. ref 1 (°C)	5,68T ext. ref 2 (°C)	5,68length (m)	temperature (°C)	Stokes	anti-Stokes-744,400	-44,209	0,041	-0,015
-743,385	359,020	-0,201	0,300
-742,371	239,883	0,077	-0,096
-741,356	25,500	-0,102	0,063
-740,342	-164,227	0,100	-0,003
-739,327	358,496	-0,124	0,185
-738,312	-158,056	-0,065	-0,003
-737,298	-68,941	-0,236	-0,067
-736,283	800,000	-0,024	-0,075
-735,269	-67,275	-0,189	0,055
-734,254	-74,008	0,160	-0,043
-733,239	-153,270	-0,409	-0,021
-732,225	355,488	0,110	-0,163
-731,210	-200,000	0,002	-0,082
-730,196	-200,000	-0,002	0,011
-729,181	-200,000	0,017	-0,069
-728,167	-200,000	-0,012	-0,099
-727,152	292,021	-0,081	-0,110
-726,137	-200,000	-0,007	0,070
-725,123	21,012	-0,157	-0,095
-724,108	800,000	-0,073	-0,167
-723,094	44,925	-0,073	-0,050
-722,079	52,999	-0,073	0,052
-721,064	-44,251	-0,063	-0,023
-720,050	800,000	-0,027	-0,058
-719,035	552,929	-0,009	-0,017
-718,021	-200,000	-0,143	0,000
-717,006	99,710	-0,017	0,015
-715,991	320,095	-0,050	-0,071
-714,977	179,322	-0,028	-0,031
-713,962	-200,000	0,018	-0,160
-712,948	63,422	0,074	-0,055
-711,933	-40,249	-0,100	-0,039
-710,918	456,330	-0,055	0,091
-709,904	-38,927	-0,038	0,015
-708,889	149,967	-0,165	-0,167
-707,875	-76,773	-0,097	-0,025
-706,860	388,527	0,014	0,021
-705,845	-110,093	0,058	0,009
-704,831	-200,000	0,009	-0,088
-703,816	-200,000	0,005	0,022
-702,802	-60,860	-0,014	0,004
-701,787	570,438	-0,067	-0,121
-700,772	-200,000	0,019	-0,072
-699,758	-200,000	-0,029	-0,120
-698,743	-105,426	-0,047	0,008
-697,729	800,000	-0,008	-0,018
-696,714	219,713	0,017	0,020
-695,699	270,892	-0,127	-0,167
-694,685	-102,676	0,030	0,005
-693,670	596,254	0,075	-0,138
-692,656	800,000	-0,031	-0,075
-691,641	454,163	-0,031	0,052
-690,627	-77,811	0,002	-0,001
-689,612	173,448	-0,039	-0,042
-688,597	-70,354	-0,057	0,016
-687,583	-200,000	0,015	0,052
-686,568	800,000	-0,014	0,030
-685,554	-168,132	-0,088	-0,002
-684,539	250,650	0,058	-0,073
-683,524	18,544	-0,007	0,004
-682,510	-126,106	0,083	0,009
-681,495	-120,857	-0,193	0,024
-680,481	142,048	0,036	-0,035
-679,466	-145,650	-0,071	-0,005
-678,451	-200,000	-0,008	-0,033
-677,437	799,731	-0,030	0,062
-676,422	-200,000	-0,030	-0,144
-675,408	800,000	-0,008	0,022
-674,393	-74,351	0,069	-0,018
-673,378	-91,196	-0,076	0,016
-672,364	31,169	-0,044	-0,028
-671,349	261,652	-0,038	-0,049
-670,335	206,786	0,112	-0,130
-669,320	30,048	0,046	0,029
-668,305	-200,000	0,004	0,166
-667,291	-200,000	-0,002	-0,140
-666,276	-200,000	0,017	0,102
-665,262	-119,137	-0,104	-0,013
-664,247	-200,000	-0,004	-0,060
-663,232	38,245	-0,144	-0,095
-662,218	135,320	0,093	0,090
-661,203	59,108	0,070	-0,051
-660,189	-200,000	0,011	0,111
-659,174	-158,158	-0,121	0,005
-658,159	281,555	-0,051	-0,068
-657,145	42,824	-0,084	-0,056
-656,130	479,593	0,041	-0,069
-655,116	-129,008	0,161	0,017
-654,101	158,469	0,026	-0,026
-653,086	134,832	0,010	-0,009
-652,072	53,130	-0,038	0,027
-651,057	-200,000	0,011	-0,165
-650,043	-200,000	0,001	-0,134
-649,028	-65,143	0,106	0,032
-648,014	731,311	-0,021	0,042
-646,999	414,024	0,051	-0,080
-645,984	-200,000	0,009	0,102
-644,970	800,000	0,031	-0,096
-643,955	-200,000	0,008	-0,049
-642,941	14,536	-0,166	-0,096
-641,926	275,523	-0,047	0,062
-640,911	15,498	0,116	-0,067
-639,897	-74,412	0,088	-0,023
-638,882	-30,002	-0,225	-0,094
-637,868	-27,477	0,091	0,039
-636,853	800,000	0,083	-0,173
-635,838	-97,900	-0,113	0,021
-634,824	100,581	-0,028	-0,025
-633,809	800,000	0,057	-0,158
-632,795	454,604	0,038	-0,062
-631,780	44,598	-0,078	0,053
-630,765	800,000	-0,062	-0,131
-629,751	800,000	0,018	0,054
-628,736	681,260	0,025	-0,048
-627,722	-11,569	-0,102	-0,050
-626,707	-200,000	0,002	0,022
-625,692	-10,206	0,041	-0,020
-624,678	-4,516	-0,088	0,045
-623,663	-101,863	-0,071	0,013
-622,649	800,000	0,037	-0,080
-621,634	-200,000	-0,002	-0,162
-620,619	41,942	0,017	0,011
-619,605	103,419	-0,045	0,039
-618,590	-73,263	0,060	0,016
-617,576	-94,526	0,051	0,010
-616,561	-46,857	-0,057	0,021
-615,546	162,906	-0,080	0,083
-614,532	192,672	-0,023	-0,025
-613,517	53,189	-0,065	-0,046
-612,503	33,554	0,063	0,040
-611,488	29,781	0,118	0,074
-610,474	35,873	0,062	0,040
-609,459	4,552	-0,105	-0,057
-608,444	31,208	0,065	-0,041
-607,430	-200,000	0,004	-0,148
-606,415	-162,666	-0,064	-0,002
-605,401	200,733	0,057	-0,065
-604,386	-56,678	0,125	0,041
-603,371	19,223	-0,140	0,083
-602,357	19,831	-0,057	-0,034
-601,342	-115,437	0,046	-0,006
-600,328	129,881	-0,068	0,064
-599,313	-146,429	0,137	0,009
-598,298	121,362	-0,118	-0,109
-597,284	-200,000	-0,023	0,118
-596,269	12,084	-0,034	0,019
-595,255	-74,368	0,025	0,007
-594,240	612,438	0,091	0,168
-593,225	2,825	-0,090	-0,048
-592,211	-200,000	0,029	-0,142
-591,196	-200,000	0,016	-0,173
-590,182	-59,013	-0,061	-0,019
-589,167	800,000	-0,026	0,073
-588,152	184,395	0,084	0,093
-587,138	-2,027	0,033	0,017
-586,123	204,769	0,002	0,002
-585,109	58,710	-0,045	-0,033
-584,094	543,944	0,043	0,076
-583,079	43,307	-0,071	-0,048
-582,065	158,863	-0,053	-0,055
-581,050	433,653	-0,040	0,064
-580,036	46,218	0,097	0,066
-579,021	27,377	0,122	-0,076
-578,006	-125,492	0,076	-0,008
-576,992	-72,281	-0,132	0,036
-575,977	-200,000	-0,021	-0,142
-574,963	115,153	-0,119	-0,108
-573,948	800,000	-0,031	0,096
-572,934	-70,791	-0,055	0,015
-571,919	-102,452	-0,100	-0,018
-570,904	-200,000	-0,005	-0,127
-569,890	14,124	0,077	0,044
-568,875	-36,410	0,046	-0,018
-567,861	188,747	0,118	0,131
-566,846	382,138	0,088	0,134
-565,831	-200,000	-0,034	-0,119
-564,817	-200,000	-0,005	0,044
-563,802	-70,248	-0,027	0,008
-562,788	-15,671	0,079	-0,037
-561,773	65,989	-0,141	0,105
-560,758	-200,000	0,000	0,099
-559,744	205,774	-0,045	-0,052
-558,729	65,549	-0,118	-0,089
-557,715	-200,000	0,002	-0,014
-556,700	43,361	-0,043	-0,029
-555,685	-10,294	-0,022	-0,011
-554,671	-73,634	0,115	-0,031
-553,656	151,013	0,028	0,028
-552,642	590,936	-0,059	0,109
-551,627	-105,286	-0,087	-0,015
-550,612	-47,043	0,062	0,022
-549,598	216,383	-0,030	-0,035
-548,583	-200,000	0,000	-0,036
-547,569	278,607	0,064	0,084
-546,554	521,205	-0,066	-0,115
-545,539	62,489	-0,072	0,053
-544,525	280,070	-0,141	0,187
-543,510	293,937	0,067	-0,091
-542,496	800,000	-0,048	-0,155
-541,481	-97,201	-0,116	-0,022
-540,466	-35,967	-0,072	0,029
-539,452	-200,000	-0,010	0,155
-538,437	-41,573	-0,032	-0,012
-537,423	239,489	-0,072	-0,089
-536,408	800,000	-0,017	0,040
-535,393	192,463	0,055	0,062
-534,379	336,787	-0,016	-0,023
-533,364	56,214	0,061	0,043
-532,350	-200,000	-0,006	0,051
-531,335	-200,000	0,008	0,094
-530,321	-200,000	-0,036	0,199
-529,306	5,796	-0,031	-0,017
-528,291	95,860	-0,124	-0,105
-527,277	134,962	-0,018	0,017
-526,262	-200,000	0,011	-0,106
-525,248	-200,000	-0,006	0,035
-524,233	264,162	0,055	0,071
-523,218	-19,107	-0,011	0,005
-522,204	-200,000	0,030	-0,184
-521,189	800,000	0,057	-0,132
-520,175	-192,919	-0,089	-0,001
-519,160	-200,000	-0,007	0,113
-518,145	23,580	0,053	0,032
-517,131	83,599	-0,131	0,106
-516,116	-170,137	-0,145	-0,004
-515,102	385,884	-0,056	-0,085
-514,087	-200,000	0,014	-0,065
-513,072	800,000	0,023	0,064
-512,058	-18,205	0,052	0,024
-511,043	-43,301	-0,073	-0,027
-510,029	1,174	0,073	0,039
-509,014	-58,081	-0,104	0,033
-507,999	-200,000	-0,056	0,190
-506,985	624,093	-0,062	0,115
-505,970	21,614	-0,076	-0,045
-504,956	-154,193	0,033	0,002
-503,941	-76,647	-0,132	-0,034
-502,926	472,032	-0,022	0,036
-501,912	-69,878	0,160	-0,045
-500,897	800,000	-0,037	0,107
-499,883	-99,669	0,104	-0,019
-498,868	296,988	0,041	-0,055
-497,853	-55,657	0,146	0,048
-496,839	800,000	0,009	-0,019
-495,824	-200,000	0,003	-0,018
-494,810	162,121	0,140	0,144
-493,795	-200,000	0,019	0,077
-492,781	-92,492	-0,153	-0,031
-491,766	-126,401	0,031	-0,003
-490,751	-6,811	-0,112	-0,056
-489,737	-151,483	-0,074	0,004
-488,722	601,586	0,053	0,097
-487,708	529,263	-0,067	-0,118
-486,693	122,336	-0,079	0,073
-485,678	-200,000	-0,004	-0,089
-484,664	57,826	-0,110	0,079
-483,649	409,878	-0,060	-0,094
-482,635	178,508	0,117	0,126
-481,620	800,000	0,012	-0,038
-480,605	424,181	-0,031	0,049
-479,591	-48,329	0,039	0,014
-478,576	55,207	0,089	-0,063
-477,562	-200,000	-0,032	-0,186
-476,547	85,340	-0,097	-0,078
-475,532	156,350	-0,111	-0,113
-474,518	-200,000	-0,027	0,102
-473,503	-7,324	0,062	0,031
-472,489	-58,707	-0,024	0,008
-471,474	-87,897	0,095	-0,021
-470,459	444,348	0,091	-0,148
-469,445	315,573	0,021	-0,030
-468,430	-200,000	0,017	0,112
-467,416	-200,000	-0,024	-0,117
-466,401	-7,844	0,052	-0,026
-465,386	161,097	-0,031	0,032
-464,372	-16,174	0,039	-0,018
-463,357	-143,453	-0,050	-0,003
-462,343	-200,000	-0,033	-0,121
-461,328	170,981	0,020	-0,021
-460,313	-200,000	0,007	0,075
-459,299	742,140	0,057	-0,113
-458,284	160,189	0,030	-0,031
-457,270	-23,720	0,098	-0,043
-456,255	-62,911	-0,066	0,020
-455,241	-200,000	-0,014	-0,064
-454,226	-169,012	-0,056	-0,002
-453,211	108,721	-0,028	-0,025
-452,197	513,941	-0,058	-0,101
-451,182	-200,000	-0,001	-0,067
-450,168	53,586	0,080	0,056
-449,153	180,233	-0,059	0,064
-448,138	555,549	-0,036	0,064
-447,124	269,752	0,048	-0,062
-446,109	84,151	-0,048	-0,038
-445,095	-151,586	0,096	0,005
-444,080	-200,000	-0,012	-0,113
-443,065	-200,000	0,019	-0,069
-442,051	-200,000	0,025	0,112
-441,036	-200,000	-0,047	-0,201
-440,022	-83,108	-0,023	0,005
-439,007	-60,176	0,129	0,040
-437,992	36,990	0,100	0,065
-436,978	-106,403	-0,092	-0,015
-435,963	130,361	-0,132	0,125
-434,949	-200,000	-0,021	0,097
-433,934	188,002	-0,038	-0,042
-432,919	-200,000	-0,029	-0,117
-431,905	800,000	0,015	-0,045
-430,890	8,488	0,066	0,036
-429,876	135,102	-0,054	0,052
-428,861	-200,000	0,002	0,093
-427,846	-200,000	-0,007	-0,099
-426,832	800,000	0,031	0,082
-425,817	-28,942	0,065	0,027
-424,803	-200,000	0,021	0,102
-423,788	-12,465	0,076	-0,036
-422,773	85,835	0,064	0,052
-421,759	35,122	0,033	-0,021
-420,744	730,925	-0,024	-0,048
-419,730	453,236	0,034	0,056
-418,715	78,969	0,058	0,046
-417,701	174,233	0,058	0,062
-416,686	800,000	0,027	0,071
-415,671	-154,219	-0,055	-0,003
-414,657	631,147	0,044	0,083
-413,642	293,755	-0,056	-0,075
-412,628	127,232	-0,108	-0,100
-411,613	120,960	0,129	-0,118
-410,598	-200,000	-0,007	-0,124
-409,584	-152,349	-0,064	-0,003
-408,569	-143,322	0,069	-0,005
-407,555	-104,537	-0,036	0,006
-406,540	14,796	0,027	0,016
-405,525	-26,970	-0,006	-0,002
-404,511	335,147	-0,037	0,052
-403,496	-200,000	-0,019	-0,082
-402,482	10,161	0,070	0,039
-401,467	-200,000	0,005	0,057
-400,452	85,426	0,103	0,083
-399,438	-88,936	0,187	0,040
-398,423	148,331	0,069	-0,068
-397,409	-105,461	0,078	-0,013
-396,394	-200,000	0,018	0,079
-395,379	-22,812	0,024	-0,011
-394,365	-75,491	-0,092	0,024
-393,350	-200,000	-0,020	0,076
-392,336	57,694	-0,082	-0,059
-391,321	406,525	-0,091	-0,142
-390,306	-200,000	-0,020	-0,080
-389,292	-56,190	0,035	-0,011
-388,277	217,613	-0,082	0,096
-387,263	4,711	0,037	-0,020
-386,248	-200,000	-0,008	-0,066
-385,233	-200,000	0,003	0,127
-384,219	89,199	-0,106	0,087
-383,204	98,228	-0,091	-0,077
-382,190	121,171	0,056	0,051
-381,175	-200,000	0,012	0,141
-380,160	-13,884	0,098	-0,046
-379,146	18,384	0,051	0,030
-378,131	-34,634	0,116	0,046
-377,117	338,878	-0,035	0,051
-376,102	-200,000	-0,012	-0,053
-375,088	-172,700	0,139	-0,003
-374,073	-200,000	0,014	-0,125
-373,058	-161,045	0,089	-0,003
-372,044	-200,000	0,052	0,172
-371,029	-93,255	0,075	0,015
-370,015	800,000	-0,030	0,077
-369,000	-200,000	-0,002	0,067
-367,985	469,261	0,056	-0,092
-366,971	253,763	-0,065	-0,082
-365,956	437,854	0,010	-0,015
-364,942	89,486	0,107	0,088
-363,927	257,177	-0,051	-0,064
-362,912	-200,000	0,011	0,052
-361,898	384,938	0,039	-0,059
-360,883	-56,822	-0,072	0,023
-359,869	-200,000	-0,001	-0,030
-358,854	72,353	0,119	-0,091
-357,839	262,103	0,093	0,118
-356,825	-12,568	-0,070	0,033
-355,810	-200,000	0,020	0,099
-354,796	800,000	-0,021	-0,069
-353,781	-200,000	0,035	0,215
-352,766	28,923	-0,065	0,040
-351,752	-8,158	-0,061	0,030
-350,737	3,681	0,148	-0,079
-349,723	-142,819	0,054	-0,004
-348,708	510,048	0,072	0,122
-347,693	352,574	0,092	0,134
-346,679	565,607	0,014	-0,026
-345,664	24,773	-0,052	-0,032
-344,650	-106,138	-0,070	-0,011
-343,635	192,713	0,109	0,121
-342,620	-82,119	-0,047	0,011
-341,606	800,000	0,042	-0,095
-340,591	-200,000	0,012	0,042
-339,577	186,366	-0,095	-0,104
-338,562	19,926	0,054	-0,032
-337,548	-200,000	0,003	-0,067
-336,533	204,077	-0,008	0,009
-335,518	153,630	-0,031	-0,031
-334,504	-87,424	-0,063	-0,014
-333,489	9,520	0,089	0,049
-332,475	128,930	0,027	-0,025
-331,460	42,525	-0,067	-0,045
-330,445	-49,563	-0,055	0,019
-329,431	68,153	-0,079	0,059
-328,416	-200,000	0,011	0,085
-327,402	-200,000	-0,024	0,088
-326,387	546,082	0,085	-0,150
-325,372	-200,000	-0,005	-0,063
-324,358	-52,489	-0,042	0,014
-323,343	-76,382	0,120	-0,031
-322,329	-200,000	-0,026	0,093
-321,314	-10,581	0,060	0,029
-320,299	800,000	0,054	0,158
-319,285	-102,620	0,132	0,023
-318,270	-77,126	-0,084	-0,021
-317,256	83,080	0,027	-0,021
-316,241	230,438	0,041	-0,049
-315,226	115,306	0,022	0,020
-314,212	-200,000	0,035	-0,000
-313,197	-152,351	0,032	-0,002
-312,183	-200,000	0,014	0,048
-311,168	247,721	-0,031	0,038
-310,153	128,953	-0,047	-0,044
-309,139	-200,000	-0,014	-0,051
-308,124	-200,000	-0,001	-0,084
-307,110	800,000	0,032	-0,086
-306,095	-107,458	0,136	0,022
-305,080	140,862	0,089	0,087
-304,066	149,842	-0,075	0,075
-303,051	293,675	-0,022	0,030
-302,037	224,084	-0,048	-0,057
-301,022	49,685	0,060	0,042
-300,008	406,083	0,056	0,087
-298,993	397,661	0,078	0,119
-297,978	-36,413	0,105	-0,041
-296,964	-200,000	0,008	-0,053
-295,949	-200,000	0,043	-0,000
-294,935	449,330	0,063	0,101
-293,920	114,149	-0,032	-0,029
-292,905	80,645	0,094	0,074
-291,891	800,000	0,011	0,034
-290,876	563,384	-0,012	0,021
-289,862	510,032	-0,034	-0,058
-288,847	-112,462	-0,067	0,010
-287,832	21,558	-0,029	0,017
-286,818	-200,000	-0,016	-0,057
-285,803	-9,440	0,074	0,036
-284,789	-200,000	0,010	0,058
-283,774	102,806	0,087	-0,074
-282,759	-200,000	-0,002	0,106
-281,745	800,000	0,024	-0,052
-280,730	800,000	0,006	-0,017
-279,716	800,000	0,027	-0,079
-278,701	193,842	-0,057	-0,063
-277,686	800,000	-0,024	-0,069
-276,672	103,691	0,108	0,093
-275,657	-87,264	-0,053	0,012
-274,643	412,373	0,035	-0,055
-273,628	800,000	-0,024	0,051
-272,613	-200,000	-0,013	-0,042
-271,599	528,012	0,052	0,090
-270,584	85,185	0,080	0,064
-269,570	-200,000	-0,008	0,138
-268,555	40,428	0,105	0,069
-267,540	22,603	-0,115	0,069
-266,526	-80,521	-0,024	0,006
-265,511	-54,266	0,091	0,030
-264,497	800,000	0,040	-0,113
-263,482	-92,359	-0,090	0,018
-262,467	372,084	0,028	0,042
-261,453	-68,674	0,087	-0,025
-260,438	-200,000	0,006	0,071
-259,424	41,485	-0,171	-0,113
-258,409	-102,387	-0,080	-0,014
-257,395	129,957	-0,063	0,059
-256,380	-200,000	0,033	0,187
-255,365	-61,425	0,033	0,010
-254,351	24,779	-0,069	-0,042
-253,336	62,480	0,117	-0,085
-252,322	-200,000	-0,012	-0,078
-251,307	-200,000	0,016	-0,128
-250,292	373,928	0,009	-0,013
-249,278	-39,371	-0,071	0,027
-248,263	-200,000	-0,033	0,180
-247,249	-200,000	0,003	0,143
-246,234	-200,000	-0,007	0,043
-245,219	204,889	-0,098	-0,111
-244,205	55,568	-0,110	0,077
-243,190	-200,000	-0,015	0,115
-242,176	-200,000	0,015	0,052
-241,161	800,000	-0,027	0,070
-240,146	-187,849	-0,109	-0,001
-239,132	591,630	-0,047	0,085
-238,117	102,225	0,046	-0,039
-237,103	-200,000	-0,012	-0,154
-236,088	478,272	0,020	-0,032
-235,073	-200,000	0,007	-0,157
-234,059	-200,000	-0,002	0,033
-233,044	164,075	0,050	0,052
-232,030	-141,709	-0,119	0,009
-231,015	-200,000	-0,022	-0,103
-230,000	-64,044	-0,103	0,030
-228,986	800,000	-0,040	0,114
-227,971	279,418	-0,049	0,063
-226,957	-40,946	0,065	0,024
-225,942	-88,327	0,051	-0,011
-224,927	-129,237	-0,172	0,017
-223,913	800,000	0,033	-0,068
-222,898	197,017	-0,106	-0,118
-221,884	495,931	-0,089	-0,150
-220,869	54,806	0,120	0,085
-219,855	210,775	-0,056	0,065
-218,840	116,887	-0,085	0,076
-217,825	-140,489	0,112	0,008
-216,811	-200,000	0,004	-0,037
-215,796	800,000	0,027	-0,059
-214,782	11,542	-0,062	0,034
-213,767	-200,000	-0,044	0,212
-212,752	39,168	0,062	-0,041
-211,738	295,901	-0,040	0,053
-210,723	60,987	-0,028	0,021
-209,709	-137,508	-0,050	-0,004
-208,694	51,791	0,058	-0,040
-207,679	262,518	0,045	-0,057
-206,665	6,201	0,105	0,057
-205,650	94,431	0,108	0,090
-204,636	-74,015	0,056	-0,015
-203,621	-50,258	0,094	-0,032
-202,606	443,374	0,050	-0,080
-201,592	242,016	0,084	-0,102
-200,577	462,507	-0,092	-0,151
-199,563	87,777	-0,037	-0,030
-198,548	-122,507	0,072	0,008
-197,533	65,454	-0,105	0,077
-196,519	800,000	-0,003	0,008
-195,504	399,448	-0,050	-0,076
-194,490	-128,893	0,004	-0,000
-193,475	-200,000	-0,023	0,097
-192,460	-148,826	0,130	0,008
-191,446	50,085	-0,025	-0,017
-190,431	347,627	0,049	-0,070
-189,417	800,000	-0,017	-0,043
-188,402	205,895	-0,071	-0,081
-187,387	800,000	-0,046	-0,099
-186,373	178,455	0,067	-0,072
-185,358	75,747	-0,122	-0,094
-184,344	-146,732	0,022	0,001
-183,329	-72,525	-0,096	0,026
-182,315	-200,000	-0,001	0,024
-181,300	-73,510	0,068	-0,018
-180,285	-86,445	0,091	-0,020
-179,271	-93,650	-0,026	0,005
-178,256	694,493	-0,030	-0,058
-177,242	-200,000	-0,029	-0,098
-176,227	340,149	0,074	0,105
-175,212	-129,960	0,061	0,006
-174,198	-79,054	-0,109	-0,027
-173,183	64,677	-0,053	-0,039
-172,169	143,187	-0,084	-0,081
-171,154	-0,903	-0,036	0,018
-170,139	-157,677	0,124	0,005
-169,125	-176,069	0,117	-0,002
-168,110	800,000	-0,028	0,079
-167,096	-92,025	0,106	0,022
-166,081	-59,092	0,075	-0,023
-165,066	-53,268	-0,054	-0,018
-164,052	-123,035	-0,148	0,017
-163,037	117,217	0,070	0,063
-162,023	-200,000	-0,009	0,040
-161,008	283,323	-0,045	0,059
-159,993	-4,585	0,079	0,039
-158,979	800,000	-0,031	-0,084
-157,964	800,000	-0,040	-0,110
-156,950	47,734	-0,040	0,027
-155,935	-200,000	0,026	-0,110
-154,920	-200,000	-0,010	0,064
-153,906	226,777	-0,036	-0,043
-152,891	214,278	-0,093	-0,108
-151,877	164,618	0,042	-0,044
-150,862	-200,000	0,022	-0,098
-149,847	-111,284	0,099	-0,015
-148,833	800,000	0,031	0,075
-147,818	40,856	-0,129	0,085
-146,804	-200,000	0,028	0,108
-145,789	55,775	-0,060	-0,042
-144,775	397,346	-0,056	-0,085
-143,760	72,493	-0,146	0,110
-142,745	-126,604	0,032	0,003
-141,731	-118,304	0,156	0,020
-140,716	265,653	-0,007	-0,009
-139,702	-200,000	0,018	0,096
-138,687	-54,113	-0,039	-0,013
-137,672	503,942	-0,091	0,153
-136,658	14,658	0,096	-0,054
-135,643	278,642	-0,079	-0,103
-134,629	-69,540	0,083	0,023
-133,614	-200,000	0,033	-0,112
-132,599	-200,000	-0,010	0,053
-131,585	-160,494	-0,079	0,003
-130,570	734,816	0,022	-0,042
-129,556	-7,982	-0,093	-0,045
-128,541	13,593	0,040	0,022
-127,526	-17,124	-0,091	-0,041
-126,512	455,660	0,119	0,192
-125,497	-16,548	0,123	0,056
-124,483	-200,000	0,014	0,092
-123,468	800,000	-0,017	0,052
-122,453	-200,000	0,021	0,146
-121,439	463,342	-0,043	-0,070
-120,424	-200,000	-0,018	-0,172
-119,410	209,664	-0,039	0,045
-118,395	-59,030	0,079	0,025
-117,380	-200,000	0,022	-0,185
-116,366	800,000	-0,024	0,058
-115,351	242,016	0,081	-0,099
-114,337	523,185	0,052	-0,089
-113,322	-200,000	-0,034	-0,215
-112,307	-38,495	0,039	0,015
-111,293	-200,000	-0,033	0,115
-110,278	-58,133	0,089	0,028
-109,264	-43,175	0,113	0,041
-108,249	-103,795	-0,108	0,018
-107,234	800,000	0,027	-0,069
-106,220	645,661	-0,007	0,014
-105,205	448,232	-0,069	-0,110
-104,191	-200,000	0,011	0,082
-103,176	-200,000	-0,008	0,108
-102,162	244,414	0,079	-0,097
-101,147	295,021	-0,058	0,077
-100,132	450,355	-0,064	0,103
-99,118	-200,000	0,010	0,040
-98,103	-44,592	0,131	0,047
-97,089	-179,678	0,042	0,001
-96,074	-83,337	-0,099	0,023
-95,059	-200,000	0,023	-0,096
-94,045	800,000	0,020	-0,042
-93,030	57,891	-0,064	0,045
-92,016	601,556	-0,042	-0,076
-91,001	-117,104	0,098	-0,013
-89,986	173,556	0,106	0,111
-88,972	-113,247	0,076	-0,011
-87,957	800,000	-0,025	0,072
-86,943	312,240	-0,060	0,082
-85,928	-154,604	-0,094	-0,004
-84,913	800,000	0,035	0,081
-83,899	594,325	-0,053	0,096
-82,884	-86,555	-0,141	0,031
-81,870	621,806	0,026	-0,048
-80,855	279,158	-0,026	-0,034
-79,840	-200,000	0,011	-0,074
-78,826	50,283	0,048	0,033
-77,811	-200,000	-0,019	-0,167
-76,797	-88,163	0,028	0,006
-75,782	800,000	-0,041	-0,114
-74,767	96,677	0,090	0,075
-73,753	-200,000	-0,058	0,258
-72,738	800,000	0,008	0,020
-71,724	-200,000	-0,016	0,077
-70,709	92,028	-0,157	0,129
-69,694	-123,637	0,124	-0,014
-68,680	-83,330	-0,115	0,026
-67,665	-200,000	0,016	-0,082
-66,651	503,120	-0,041	0,069
-65,636	800,000	0,042	0,088
-64,622	52,516	0,081	0,056
-63,607	395,741	-0,103	-0,156
-62,592	-200,000	0,013	-0,109
-61,578	-91,265	0,114	-0,023
-60,563	800,000	-0,027	-0,064
-59,549	-112,826	-0,095	0,013
-58,534	-96,499	-1,369	-0,260
-57,519	587,727	-0,753	-1,351
-56,505	-200,000	-0,850	-4,460
-55,490	-70,412	0,633	-0,173
-54,476	800,000	4,998	11,759
-53,461	-200,000	13,996	253,203
-52,446	-200,000	693,229	2239,630
-51,432	574,796	1623,734	2884,774
-50,417	117,488	1633,134	1456,444
-49,403	72,357	1286,764	971,092
-48,388	37,505	1023,239	656,638
-47,373	23,950	981,289	585,181
-46,359	23,177	970,791	576,364
-45,344	22,136	966,653	570,487
-44,330	22,088	965,059	569,367
-43,315	22,019	963,706	568,322
-42,300	21,958	962,686	567,499
-41,286	21,981	961,623	566,924
-40,271	21,943	960,690	566,229
-39,257	21,964	959,779	565,738
-38,242	21,978	958,811	565,191
-37,227	21,962	957,864	564,556
-36,213	21,936	957,045	563,969
-35,198	21,884	956,231	563,299
-34,184	21,986	955,513	563,181
-33,169	21,899	954,772	562,441
-32,154	22,020	953,720	562,190
-31,140	21,970	952,876	561,509
-30,125	21,990	952,017	561,046
-29,111	21,908	951,315	560,347
-28,096	21,940	950,636	560,028
-27,082	22,019	949,840	559,790
-26,067	22,012	949,077	559,295
-25,052	21,999	948,338	558,795
-24,038	21,941	947,841	558,294
-23,023	21,977	947,204	558,012
-22,009	21,991	946,437	557,582
-20,994	22,042	945,660	557,266
-19,979	22,008	945,315	556,932
-18,965	21,927	944,754	556,322
-17,950	21,994	943,709	555,898
-16,936	21,886	943,352	555,322
-15,921	21,872	942,600	554,810
-14,906	21,894	941,895	554,443
-13,892	21,883	941,251	554,009
-12,877	21,903	940,549	553,637
-11,863	21,848	939,939	553,082
-10,848	21,844	939,444	552,756
-9,833	21,896	939,198	552,754
-8,819	21,927	938,465	552,397
-7,804	21,890	937,750	551,838
-6,790	21,861	937,181	551,389
-5,775	21,870	936,582	551,043
-4,760	21,770	936,037	550,384
-3,746	21,799	935,430	550,099
-2,731	21,703	934,657	549,320
-1,717	21,703	933,798	548,794
-0,702	21,691	933,132	548,340
0,313	21,485	932,600	548,209
1,327	24,562	930,676	556,693
2,342	34,080	794,646	500,622
3,356	31,940	450,742	280,722
4,371	1,201	293,609	152,216
5,386	-3,252	274,694	138,186
6,400	-4,749	268,901	133,873
7,415	-5,110	266,692	132,429
8,429	-4,859	265,360	131,985
9,444	-4,747	264,528	131,661
10,459	-4,780	263,849	131,282
11,473	-5,092	263,382	130,755
12,488	-4,939	262,865	130,625
13,502	-5,024	262,338	130,274
14,517	-5,059	261,901	130,014
15,531	-4,987	261,546	129,892
16,546	-4,798	261,150	129,854
17,561	-4,831	260,846	129,661
18,575	-4,947	260,645	129,446
19,590	-4,995	260,179	129,159
20,604	-4,936	259,810	129,017
21,619	-5,025	259,525	128,785
22,634	-4,974	259,107	128,611
23,648	-4,917	259,026	128,610
24,663	-5,111	258,833	128,330
25,677	-5,014	258,462	128,221
26,692	-4,938	258,108	128,102
27,707	-4,732	257,863	128,151
28,721	-5,144	257,701	127,694
29,736	-4,980	257,322	127,640
30,750	-5,031	257,187	127,517
31,765	-5,161	256,947	127,271
32,780	-5,083	256,775	127,244
33,794	-5,295	256,633	126,974
34,809	-5,033	256,230	126,995
35,823	-5,086	256,007	126,827
36,838	-5,270	255,780	126,541
37,853	-5,184	255,527	126,480
38,867	-4,978	255,264	126,520
39,882	-5,178	255,039	126,222
40,896	-4,830	254,674	126,334
41,911	-4,880	254,442	126,164
42,926	-5,101	254,312	125,895
43,940	-4,999	254,153	125,895
44,955	-4,995	253,876	125,749
45,969	-5,220	253,777	125,493
46,984	-5,294	253,320	125,192
47,999	-5,645	253,335	124,882
49,013	-5,590	252,947	124,728
50,028	-5,895	252,824	124,390
51,042	-5,728	252,630	124,429
52,057	-5,775	252,147	124,139
53,071	-5,784	252,014	124,055
54,086	-5,630	252,033	124,187
55,101	-5,592	251,763	124,075
56,115	-5,170	251,504	124,301
57,130	-4,897	251,379	124,464
58,144	-4,841	251,313	124,468
59,159	-4,829	251,178	124,401
60,174	-4,825	250,926	124,269
61,188	-5,096	250,671	123,898
62,203	-5,111	250,547	123,813
63,217	-4,993	250,193	123,728
64,232	-4,915	250,186	123,781
65,247	-4,824	249,861	123,687
66,261	-4,984	249,651	123,434
67,276	-5,228	249,473	123,127
68,290	-5,360	249,176	122,857
69,305	-5,334	248,835	122,699
70,320	-5,377	248,742	122,606
71,334	-5,093	248,498	122,716
72,349	-4,996	248,485	122,782
73,363	-4,807	248,209	122,796
74,378	-4,755	248,010	122,731
75,393	-5,092	248,019	122,438
76,407	-5,029	247,626	122,287
77,422	-4,992	247,258	122,125
78,436	-4,952	247,235	122,137
79,451	-4,711	247,034	122,230
80,466	-5,119	246,798	121,757
81,480	-5,110	246,557	121,635
82,495	-5,306	246,356	121,360
83,509	-5,179	246,244	121,401
84,524	-5,171	246,084	121,318
85,539	-5,351	245,802	121,017
86,553	-5,268	245,565	120,959
87,568	-5,207	245,472	120,953
88,582	-5,228	245,221	120,801
89,597	-5,053	244,982	120,820
90,611	-5,285	245,016	120,631
91,626	-5,222	244,812	120,573
92,641	-4,906	244,633	120,739
93,655	-5,088	244,325	120,423
94,670	-5,140	244,099	120,257
95,684	-5,161	243,960	120,161
96,699	-5,153	243,794	120,075
97,714	-5,051	243,549	120,029
98,728	-5,193	243,319	119,787
99,743	-5,228	243,167	119,672
100,757	-5,441	243,032	119,418
101,772	-5,432	242,982	119,390
102,787	-5,289	242,732	119,375
103,801	-5,294	242,472	119,233
104,816	-5,095	242,345	119,324
105,830	-5,016	242,275	119,345
106,845	-4,822	242,111	119,414
107,860	-4,985	241,844	119,137
108,874	-5,126	241,536	118,858
109,889	-5,123	241,400	118,783
110,903	-5,211	241,182	118,593
111,918	-5,300	241,057	118,448
112,933	-5,101	240,919	118,533
113,947	-4,807	240,639	118,626
114,962	-4,997	240,568	118,424
115,976	-5,039	240,342	118,268
116,991	-5,166	240,295	118,131
118,006	-5,256	240,014	117,908
119,020	-5,097	239,899	117,971
120,035	-4,972	239,684	117,957
121,049	-4,996	239,715	117,942
122,064	-4,915	239,382	117,835
123,079	-5,158	239,245	117,558
124,093	-5,221	239,096	117,422
125,108	-5,374	238,787	117,135
126,122	-5,550	238,701	116,940
127,137	-5,566	238,459	116,797
128,151	-5,328	238,237	116,872
129,166	-5,288	238,124	116,838
130,181	-5,424	238,071	116,691
131,195	-5,306	237,742	116,616
132,210	-5,264	237,564	116,552
133,224	-5,108	237,503	116,638
134,239	-5,138	237,366	116,536
135,254	-5,190	237,173	116,389
136,268	-5,034	236,905	116,373
137,283	-5,070	236,806	116,285
138,297	-5,439	236,365	115,760
139,312	-5,344	236,178	115,736
140,327	-5,321	236,201	115,755
141,341	-4,843	236,291	116,174
142,356	-4,844	235,906	115,973
143,370	-4,793	235,969	116,034
144,385	-4,770	235,673	115,897
145,400	-4,698	235,456	115,838
146,414	-4,819	235,365	115,686
147,429	-4,794	235,237	115,633
148,443	-4,886	234,911	115,388
149,458	-4,708	234,931	115,531
150,473	-4,980	234,808	115,243
151,487	-4,777	234,518	115,252
152,502	-4,823	234,342	115,119
153,516	-4,825	234,163	115,019
154,531	-4,765	233,994	114,973
155,546	-4,788	233,722	114,810
156,560	-4,800	233,682	114,772
157,575	-5,032	233,369	114,423
158,589	-4,826	233,198	114,492
159,604	-4,546	233,083	114,648
160,619	-4,639	232,936	114,491
161,633	-4,717	232,918	114,411
162,648	-4,713	232,688	114,291
163,662	-4,739	232,521	114,178
164,677	-4,631	232,303	114,146
165,692	-4,712	232,233	114,038
166,706	-4,740	232,217	113,997
167,721	-4,561	231,913	113,980
168,735	-4,702	231,963	113,882
169,750	-4,664	231,683	113,764
170,764	-4,777	231,667	113,658
171,779	-4,708	231,472	113,606
172,794	-4,692	231,351	113,549
173,808	-4,946	230,991	113,163
174,823	-5,253	230,720	112,779
175,837	-5,453	230,594	112,551
176,852	-5,121	230,552	112,781
177,867	-4,681	230,470	113,075
178,881	-4,586	230,203	113,009
179,896	-4,557	230,107	112,974
180,910	-4,651	229,899	112,788
181,925	-4,472	229,750	112,845
182,940	-4,704	229,707	112,632
183,954	-4,788	229,572	112,491
184,969	-4,787	229,418	112,406
185,983	-4,719	229,200	112,342
186,998	-4,682	229,181	112,352
188,013	-4,415	228,926	112,424
189,027	-4,433	228,584	112,233
190,042	-4,549	228,631	112,155
191,056	-4,630	228,413	111,975
192,071	-4,476	228,286	112,023
193,086	-4,843	228,195	111,684
194,100	-4,620	227,932	111,718
195,115	-4,898	227,666	111,362
196,129	-5,213	227,504	111,030
197,144	-2,420	228,174	113,508
198,159	1,190	229,401	116,911
199,173	3,825	229,964	119,234
200,188	4,255	229,886	119,516
201,202	3,935	229,731	119,177
202,217	4,294	229,674	119,414
203,232	4,309	229,564	119,359
204,246	4,588	229,399	119,478
205,261	4,630	229,197	119,394
206,275	4,662	229,282	119,452
207,290	4,713	228,987	119,328
208,304	4,584	228,897	119,170
209,319	4,544	228,637	118,993
210,334	4,485	228,642	118,940
211,348	4,171	228,315	118,517
212,363	4,059	228,128	118,325
213,377	3,605	227,813	117,802
214,392	3,744	227,793	117,887
215,407	3,812	227,507	117,781
216,421	3,815	227,545	117,793
217,436	3,823	227,130	117,574
218,450	3,707	226,960	117,386
219,465	3,678	226,667	117,202
220,480	3,638	226,683	117,170
221,494	3,491	226,684	117,047
222,509	3,684	226,555	117,117
223,523	3,432	226,345	116,806
224,538	3,460	226,177	116,731
225,553	3,621	225,927	116,714
226,567	3,744	225,954	116,811
227,582	3,990	225,903	116,961
228,596	4,179	225,731	117,005
229,611	3,743	225,558	116,574
230,626	3,696	225,199	116,342
231,640	3,526	225,105	116,154
232,655	3,793	225,045	116,316
233,669	4,323	225,002	116,684
234,684	4,403	224,965	116,715
235,699	3,949	224,757	116,254
236,713	3,681	224,539	115,928
237,728	3,822	224,166	115,832
238,742	3,750	224,017	115,690
239,757	3,856	223,981	115,741
240,772	3,574	223,910	115,482
241,786	3,850	223,504	115,469
242,801	3,933	223,502	115,520
243,815	4,009	223,525	115,579
244,830	4,288	223,455	115,742
245,844	3,848	223,156	115,247
246,859	3,975	222,976	115,238
247,874	4,088	222,816	115,230
248,888	4,046	222,713	115,135
249,903	3,977	222,501	114,964
250,917	3,959	222,396	114,886
251,932	3,912	222,153	114,715
252,947	3,735	222,082	114,536
253,961	3,671	222,035	114,454
254,976	3,703	221,723	114,307
255,990	3,932	221,773	114,493
257,005	3,907	221,623	114,387
258,020	3,906	221,603	114,365
259,034	4,381	221,375	114,590
260,049	4,089	221,151	114,248
261,063	3,918	221,144	114,106
262,078	4,070	220,997	114,134
263,093	4,064	220,811	114,023
264,107	4,366	220,677	114,167
265,122	4,241	220,493	113,969
266,136	4,389	220,326	113,982
267,151	4,350	220,234	113,895
268,166	4,057	219,960	113,528
269,180	3,665	219,751	113,121
270,195	3,807	219,621	113,148
271,209	3,730	219,466	113,002
272,224	3,844	219,281	112,980
273,239	4,054	219,339	113,154
274,253	3,800	219,012	112,789
275,268	3,718	218,964	112,695
276,282	3,524	218,734	112,424
277,297	3,532	218,576	112,338
278,312	3,493	218,421	112,220
279,326	3,823	218,386	112,433
280,341	3,757	218,287	112,324
281,355	3,826	218,193	112,317
282,370	3,956	217,986	112,295
283,384	3,642	217,796	111,958
284,399	3,801	217,506	111,915
285,414	3,400	217,507	111,612
286,428	3,617	217,513	111,764
287,443	3,784	217,399	111,817
288,457	3,884	217,281	111,819
289,472	3,877	216,909	111,613
290,487	3,336	216,631	111,067
291,501	3,091	216,562	110,844
292,516	3,470	216,436	111,045
293,530	3,474	216,265	110,950
294,545	3,354	216,295	110,868
295,560	3,662	216,313	111,091
296,574	4,098	216,171	111,323
297,589	3,928	215,906	111,054
298,603	3,837	215,772	110,909
299,618	3,960	215,689	110,946
300,633	3,834	215,561	110,779
301,647	4,191	215,405	110,946
302,662	4,219	215,208	110,855
303,676	3,745	215,224	110,512
304,691	3,837	215,152	110,532
305,706	4,145	214,854	110,590
306,720	4,189	214,702	110,533
307,735	3,749	214,487	110,098
308,749	3,704	214,386	110,004
309,764	3,950	214,197	110,073
310,779	4,270	214,240	110,314
311,793	4,091	214,015	110,061
312,808	3,891	213,855	109,825
313,822	3,801	213,743	109,694
314,837	3,967	213,485	109,670
315,852	3,475	213,475	109,304
316,866	3,903	213,259	109,489
317,881	4,056	213,211	109,564
318,895	4,102	213,135	109,547
319,910	3,886	212,886	109,256
320,925	3,661	212,614	108,947
321,939	3,308	212,427	108,591
322,954	3,403	212,386	108,628
323,968	3,991	212,291	108,987
324,983	4,013	212,305	108,999
325,997	4,214	212,238	109,098
327,012	3,820	211,996	108,685
328,027	3,856	211,866	108,634
329,041	4,089	211,800	108,755
330,056	4,397	211,716	108,920
331,070	3,782	211,365	108,296
332,085	3,589	211,195	108,063
333,100	3,623	211,133	108,045
334,114	3,950	211,073	108,235
335,129	3,826	210,795	107,996
336,143	3,803	210,780	107,962
337,158	3,867	210,473	107,841
338,173	3,848	210,350	107,755
339,187	3,688	210,329	107,622
340,202	3,603	210,055	107,413
341,216	3,298	210,058	107,192
342,231	3,609	209,987	107,363
343,246	3,788	209,686	107,325
344,260	3,658	209,586	107,174
345,275	3,528	209,440	106,998
346,289	3,821	209,442	107,194
347,304	3,936	209,288	107,186
348,319	3,833	209,101	107,009
349,333	3,669	209,030	106,848
350,348	3,836	208,923	106,901
351,362	3,880	208,821	106,870
352,377	3,961	208,722	106,866
353,392	4,245	208,487	106,932
354,406	3,895	208,309	106,589
355,421	194,578	1345,701	1435,280
356,435	155,270	1484,385	1435,387
