DTS Sentinel unit serial number:	SN410029Multiplexer serial number:	ORYXHardware model number:	OX2-SRSoftware version number:	ORYX F/W v4,00 Oryx Data Collector v3.7.2.0data status	okinstallation	B6 Nyhavnadifferential loss correction	single-endedforward channel	channel 2reverse channel	N/Adate	2023/12/11time	06:30:08forward acquisition time	300,00reverse acquisition time	0,00gamma	499,1914k internal	0,3126k external	0,3126temperature offset calibration	1,0000default loss term (dB/km)	0,3820temperature slope calibration	1,0000multiplexer offset coefficient	1,0000multiplexer slope coefficient	1,0000fibre end	0,00T internal ref (°C)	19,52T ext. ref 1 (°C)	2,65T ext. ref 2 (°C)	2,67length (m)	temperature (°C)	Stokes	anti-Stokes-744,400	515,992	-0,026	0,045
-743,385	-99,596	-0,178	-0,033
-742,371	-2,063	0,141	0,073
-741,356	800,000	-0,156	0,341
-740,342	800,000	0,008	0,020
-739,327	2,421	-0,350	0,188
-738,312	177,986	-0,015	0,017
-737,298	-16,585	-0,195	0,092
-736,283	88,338	0,100	0,083
-735,269	16,852	-0,148	0,087
-734,254	-136,700	0,046	-0,004
-733,239	-143,010	-0,432	-0,031
-732,225	117,188	0,165	0,151
-731,210	97,831	-0,088	-0,076
-730,196	800,000	0,022	-0,059
-729,181	800,000	0,112	-0,232
-728,167	109,240	0,098	-0,087
-727,152	-200,000	0,000	0,053
-726,137	-3,754	-0,125	-0,064
-725,123	181,992	-0,035	0,038
-724,108	-162,227	-0,054	-0,002
-723,094	-81,419	-0,132	-0,032
-722,079	-159,097	0,084	-0,003
-721,064	-108,784	0,122	0,019
-720,050	800,000	-0,066	-0,151
-719,035	-107,771	-0,053	0,008
-718,021	-117,171	0,154	-0,021
-717,006	-17,879	-0,163	-0,076
-715,991	-200,000	-0,014	-0,140
-714,977	-7,897	0,097	-0,049
-713,962	-200,000	-0,012	-0,146
-712,948	-200,000	-0,006	-0,039
-711,933	800,000	-0,072	-0,157
-710,918	-52,568	-0,086	-0,029
-709,904	21,449	-0,032	-0,019
-708,889	800,000	-0,044	-0,128
-707,875	173,325	0,039	0,041
-706,860	-200,000	0,008	0,038
-705,845	-200,000	0,025	-0,129
-704,831	-103,128	0,047	0,008
-703,816	32,918	0,115	-0,074
-702,802	442,636	-0,106	-0,173
-701,787	135,993	-0,081	-0,079
-700,772	-83,698	-0,175	0,041
-699,758	-200,000	0,028	-0,190
-698,743	681,470	0,029	-0,057
-697,729	191,755	-0,062	-0,069
-696,714	-71,127	0,045	-0,013
-695,699	-200,000	0,009	0,076
-694,685	-47,768	0,072	0,026
-693,670	15,379	-0,085	0,049
-692,656	49,076	0,087	0,061
-691,641	93,102	0,046	-0,039
-690,627	800,000	0,023	0,074
-689,612	440,610	0,099	-0,161
-688,597	-200,000	-0,009	0,086
-687,583	-200,000	-0,019	-0,183
-686,568	713,382	-0,087	-0,172
-685,554	-200,000	-0,028	-0,131
-684,539	209,636	-0,035	-0,041
-683,524	285,458	0,082	-0,110
-682,510	504,138	-0,062	0,108
-681,495	800,000	-0,049	-0,103
-680,481	-200,000	-0,014	-0,122
-679,466	-28,594	-0,034	-0,015
-678,451	-90,250	-0,002	0,000
-677,437	-35,738	-0,120	-0,048
-676,422	800,000	0,033	-0,104
-675,408	-95,053	0,069	0,014
-674,393	78,932	0,013	0,010
-673,378	800,000	0,056	-0,143
-672,364	194,303	-0,144	-0,162
-671,349	-200,000	0,001	-0,045
-670,335	-6,172	-0,055	0,028
-669,320	150,255	0,110	-0,110
-668,305	170,042	-0,093	0,099
-667,291	567,224	0,040	0,072
-666,276	-20,383	-0,047	0,022
-665,262	42,837	-0,172	-0,116
-664,247	87,037	0,094	-0,077
-663,232	145,829	-0,057	-0,057
-662,218	800,000	0,035	0,108
-661,203	52,955	0,071	0,051
-660,189	-200,000	0,014	0,053
-659,174	-146,440	0,005	-0,000
-658,159	148,818	-0,011	0,011
-657,145	-142,780	-0,166	0,012
-656,130	443,017	-0,054	-0,089
-655,116	140,708	0,044	0,043
-654,101	-98,035	-0,050	-0,009
-653,086	-106,911	0,051	-0,008
-652,072	698,545	0,037	-0,073
-651,057	371,483	-0,068	-0,103
-650,043	244,481	0,046	0,058
-649,028	800,000	0,062	-0,169
-648,014	-200,000	-0,006	0,065
-646,999	-200,000	0,015	0,054
-645,984	800,000	-0,035	0,075
-644,970	1,958	-0,107	-0,057
-643,955	148,318	-0,057	-0,057
-642,941	-200,000	-0,044	-0,211
-641,926	638,674	-0,060	-0,114
-640,911	-200,000	0,021	-0,071
-639,897	231,537	-0,036	0,044
-638,882	800,000	0,017	-0,040
-637,868	-48,420	0,037	0,013
-636,853	471,917	-0,118	-0,197
-635,838	-114,389	-0,096	-0,014
-634,824	706,099	-0,046	0,090
-633,809	562,008	-0,043	0,078
-632,795	-151,686	-0,002	0,000
-631,780	-131,525	0,075	0,007
-630,765	-13,164	0,089	-0,043
-629,751	800,000	0,020	-0,058
-628,736	-200,000	0,008	-0,156
-627,722	800,000	0,031	-0,068
-626,707	303,684	0,010	0,013
-625,692	-73,220	-0,106	0,029
-624,678	-80,284	0,070	0,017
-623,663	143,172	-0,078	0,077
-622,649	228,595	-0,042	-0,050
-621,634	-200,000	-0,001	-0,057
-620,619	-81,064	-0,084	-0,020
-619,605	800,000	0,022	0,047
-618,590	636,578	-0,053	0,101
-617,576	-124,974	-0,060	0,007
-616,561	-12,536	0,015	0,007
-615,546	-30,408	-0,115	-0,048
-614,532	800,000	0,057	-0,122
-613,517	167,968	-0,108	-0,114
-612,503	283,697	0,049	0,066
-611,488	-200,000	-0,018	0,144
-610,474	-200,000	-0,022	0,073
-609,459	146,163	0,089	-0,089
-608,444	316,579	-0,093	-0,131
-607,430	111,795	-0,085	0,076
-606,415	25,654	-0,053	0,033
-605,401	322,248	-0,047	0,066
-604,386	-196,418	-0,027	-0,000
-603,371	800,000	0,071	0,157
-602,357	-109,018	-0,032	0,005
-601,342	84,126	-0,020	0,016
-600,328	397,677	-0,124	-0,192
-599,313	-36,798	-0,046	-0,018
-598,298	475,779	0,087	-0,147
-597,284	-200,000	-0,013	0,054
-596,269	373,539	-0,006	0,009
-595,255	61,069	-0,022	-0,016
-594,240	-200,000	0,028	-0,172
-593,225	311,265	-0,063	-0,088
-592,211	61,529	-0,063	-0,046
-591,196	20,596	0,048	-0,029
-590,182	-121,095	0,019	0,002
-589,167	-110,215	0,032	-0,005
-588,152	-143,848	0,040	0,003
-587,138	-106,455	-0,104	-0,017
-586,123	-200,000	-0,027	-0,124
-585,109	33,669	-0,010	-0,007
-584,094	327,090	0,047	-0,067
-583,079	-3,568	-0,104	-0,053
-582,065	-49,816	0,150	0,053
-581,050	800,000	0,073	0,162
-580,036	800,000	-0,051	0,114
-579,021	-40,135	-0,142	-0,054
-578,006	800,000	-0,012	0,025
-576,992	611,178	0,060	-0,111
-575,977	4,479	-0,023	0,012
-574,963	130,515	0,051	0,048
-573,948	800,000	-0,036	-0,075
-572,934	196,702	-0,036	0,041
-571,919	-67,681	-0,176	-0,051
-570,904	508,463	-0,050	-0,086
-569,890	55,423	-0,011	-0,008
-568,875	245,932	-0,057	-0,071
-567,861	431,068	0,062	0,099
-566,846	-28,537	-0,073	0,031
-565,831	-200,000	-0,015	0,084
-564,817	125,326	-0,107	0,100
-563,802	800,000	0,006	0,012
-562,788	800,000	-0,021	0,065
-561,773	-200,000	0,000	0,077
-560,758	800,000	0,028	-0,062
-559,744	84,302	-0,037	-0,030
-558,729	140,605	-0,110	0,108
-557,715	421,027	-0,044	-0,069
-556,700	-10,616	0,111	-0,054
-555,685	-200,000	0,003	0,058
-554,671	-200,000	-0,011	0,082
-553,656	694,881	-0,017	0,033
-552,642	-200,000	0,013	-0,041
-551,627	7,723	-0,056	0,031
-550,612	-200,000	0,004	-0,079
-549,598	70,211	-0,040	0,031
-548,583	-200,000	-0,018	0,079
-547,569	191,456	-0,039	-0,044
-546,554	-200,000	0,012	-0,093
-545,539	800,000	-0,018	-0,060
-544,525	-200,000	0,004	0,064
-543,510	-79,505	-0,151	-0,037
-542,496	29,783	0,039	-0,024
-541,481	800,000	-0,031	-0,064
-540,466	266,109	-0,108	-0,140
-539,452	-200,000	0,005	0,064
-538,437	-110,488	0,113	0,017
-537,423	-200,000	-0,041	0,135
-536,408	26,690	0,036	0,022
-535,393	800,000	-0,054	0,175
-534,379	-200,000	-0,017	0,124
-533,364	-200,000	-0,021	-0,104
-532,350	297,087	-0,033	-0,045
-531,335	-200,000	-0,023	0,124
-530,321	359,933	0,067	-0,099
-529,306	371,295	-0,077	-0,116
-528,291	11,633	-0,094	-0,053
-527,277	-200,000	0,047	-0,181
-526,262	-200,000	-0,020	0,134
-525,248	101,097	-0,066	0,056
-524,233	-45,592	0,131	0,048
-523,218	-200,000	-0,012	0,178
-522,204	800,000	-0,061	0,138
-521,189	-108,574	-0,108	-0,017
-520,175	-200,000	-0,091	0,000
-519,160	-200,000	0,004	-0,105
-518,145	259,653	-0,062	0,080
-517,131	-200,000	-0,030	-0,137
-516,116	-79,037	-0,038	-0,009
-515,102	800,000	0,017	0,039
-514,087	-200,000	-0,010	-0,058
-513,072	660,444	-0,048	0,091
-512,058	110,804	0,102	0,091
-511,043	-200,000	-0,011	-0,139
-510,029	349,611	0,093	0,135
-509,014	147,054	0,013	0,013
-507,999	800,000	0,020	-0,057
-506,985	-200,000	-0,010	-0,069
-505,970	-68,064	-0,149	-0,043
-504,956	47,659	0,022	-0,015
-503,941	-52,402	-0,057	0,019
-502,926	-22,638	-0,026	0,012
-501,912	-9,614	-0,035	0,017
-500,897	348,224	0,072	-0,105
-499,883	-200,000	-0,019	-0,140
-498,868	151,750	0,040	0,040
-497,853	352,312	0,036	0,053
-496,839	95,523	-0,031	-0,026
-495,824	-144,778	0,057	0,004
-494,810	-200,000	0,007	0,104
-493,795	800,000	0,026	0,058
-492,781	-152,010	-0,123	-0,007
-491,766	-44,197	0,036	0,013
-490,751	800,000	0,059	-0,174
-489,737	672,804	0,035	-0,067
-488,722	-200,000	0,016	0,178
-487,708	207,318	0,136	-0,157
-486,693	58,055	-0,039	0,028
-485,678	168,046	-0,033	-0,034
-484,664	-200,000	0,002	0,028
-483,649	-200,000	0,003	0,058
-482,635	24,015	-0,067	-0,041
-481,620	-200,000	-0,007	0,094
-480,605	463,512	0,096	-0,159
-479,591	-200,000	-0,002	0,013
-478,576	-70,802	-0,108	-0,030
-477,562	-13,519	0,082	-0,039
-476,547	-200,000	-0,002	0,069
-475,532	206,015	0,076	0,088
-474,518	-48,024	0,049	0,017
-473,503	-14,718	0,072	0,034
-472,489	-117,857	0,153	0,020
-471,474	-200,000	-0,002	-0,020
-470,459	800,000	-0,040	0,084
-469,445	294,449	0,089	-0,120
-468,430	-139,463	0,085	-0,007
-467,416	-126,995	0,116	0,012
-466,401	122,743	0,099	0,091
-465,386	-200,000	-0,003	-0,148
-464,372	284,837	-0,134	-0,178
-463,357	-48,292	-0,047	0,016
-462,343	17,470	0,029	0,017
-461,328	302,079	-0,055	0,076
-460,313	-37,575	0,049	-0,019
-459,299	41,456	0,138	0,092
-458,284	-200,000	0,000	0,071
-457,270	-200,000	-0,037	-0,153
-456,255	-200,000	-0,031	-0,112
-455,241	-200,000	-0,003	-0,044
-454,226	547,840	-0,011	0,019
-453,211	9,469	0,131	0,073
-452,197	-104,362	0,106	0,018
-451,182	-127,251	0,119	0,013
-450,168	56,347	0,100	-0,072
-449,153	472,974	0,060	-0,100
-448,138	11,605	-0,092	-0,052
-447,124	-65,858	0,019	-0,006
-446,109	67,675	-0,057	0,043
-445,095	-76,882	0,155	0,040
-444,080	-38,299	-0,044	-0,017
-443,065	56,784	0,193	0,138
-442,051	85,819	0,021	0,017
-441,036	-47,030	-0,100	0,036
-440,022	209,627	-0,104	-0,120
-439,007	48,559	0,117	-0,081
-437,992	-75,396	0,095	-0,025
-436,978	-30,521	-0,090	0,037
-435,963	-200,000	-0,012	-0,062
-434,949	-200,000	-0,021	-0,125
-433,934	-200,000	0,011	-0,148
-432,919	89,737	-0,130	-0,106
-431,905	-200,000	0,013	-0,127
-430,890	777,074	0,048	0,097
-429,876	-105,689	0,091	-0,015
-428,861	304,135	-0,043	-0,059
-427,846	-200,000	0,001	0,037
-426,832	-200,000	0,023	-0,104
-425,817	-65,056	-0,133	-0,039
-424,803	-57,511	-0,072	0,023
-423,788	-198,885	-0,089	-0,000
-422,773	800,000	0,013	0,029
-421,759	791,393	0,029	0,060
-420,744	71,574	0,044	-0,034
-419,730	800,000	0,019	-0,047
-418,715	517,718	0,025	0,043
-417,701	-200,000	0,006	-0,027
-416,686	393,739	-0,021	0,033
-415,671	-200,000	0,005	0,050
-414,657	-200,000	-0,006	-0,022
-413,642	-48,690	0,108	0,038
-412,628	-26,966	-0,137	-0,058
-411,613	800,000	-0,060	-0,168
-410,598	800,000	0,030	0,077
-409,584	70,042	0,035	-0,026
-408,569	-200,000	-0,024	0,102
-407,555	110,775	0,137	-0,121
-406,540	3,978	-0,034	0,018
-405,525	-200,000	-0,007	0,136
-404,511	69,260	-0,043	0,033
-403,496	-200,000	0,007	-0,048
-402,482	-200,000	-0,025	0,205
-401,467	151,716	0,115	0,116
-400,452	-200,000	0,024	-0,162
-399,438	628,334	-0,034	0,063
-398,423	634,063	-0,034	-0,064
-397,409	-88,921	0,044	-0,010
-396,394	-43,456	-0,081	0,030
-395,379	527,871	0,074	0,129
-394,365	800,000	0,026	0,061
-393,350	-200,000	0,011	0,136
-392,336	-0,755	0,117	0,061
-391,321	-152,968	-0,103	0,005
-390,306	32,606	-0,123	0,078
-389,292	-127,494	0,097	-0,010
-388,277	73,775	-0,081	0,062
-387,263	-200,000	0,002	0,081
-386,248	219,063	-0,077	0,091
-385,233	800,000	0,056	0,162
-384,219	800,000	-0,040	0,091
-383,204	114,603	-0,047	-0,042
-382,190	-7,544	0,053	0,026
-381,175	619,974	-0,062	-0,115
-380,160	800,000	-0,063	0,163
-379,146	800,000	0,029	0,065
-378,131	-146,847	0,052	-0,003
-377,117	199,175	0,079	0,089
-376,102	51,551	0,028	-0,019
-375,088	641,385	0,020	-0,038
-374,073	-98,809	-0,064	-0,012
-373,058	542,235	0,110	0,194
-372,044	585,453	-0,043	0,078
-371,029	800,000	0,018	-0,040
-370,015	304,732	-0,085	-0,116
-369,000	800,000	0,037	0,100
-367,985	432,434	0,052	-0,082
-366,971	470,771	-0,065	-0,107
-365,956	-26,796	-0,130	-0,056
-364,942	74,497	-0,095	0,073
-363,927	385,531	-0,085	0,129
-362,912	298,363	0,017	0,023
-361,898	83,805	-0,056	-0,045
-360,883	-200,000	-0,032	-0,114
-359,869	-3,223	-0,070	0,036
-358,854	-57,965	-0,048	0,015
-357,839	-200,000	0,004	-0,074
-356,825	800,000	0,048	-0,131
-355,810	-136,006	0,120	0,010
-354,796	-52,902	-0,043	0,014
-353,781	-200,000	0,006	-0,167
-352,766	-200,000	-0,020	0,069
-351,752	-200,000	-0,039	-0,166
-350,737	109,764	0,073	0,064
-349,723	-93,684	0,094	0,019
-348,708	56,959	0,093	0,067
-347,693	-159,492	-0,148	-0,006
-346,679	-200,000	-0,012	-0,047
-345,664	58,168	-0,090	-0,064
-344,650	5,541	0,112	0,061
-343,635	-200,000	0,010	0,087
-342,620	-200,000	-0,020	0,076
-341,606	-137,295	-0,063	-0,005
-340,591	-200,000	0,022	0,092
-339,577	122,495	-0,021	0,020
-338,562	4,553	-0,101	-0,054
-337,548	5,340	-0,115	-0,062
-336,533	800,000	0,020	-0,063
-335,518	-154,589	0,088	0,004
-334,504	-65,156	0,070	-0,020
-333,489	-98,878	-0,114	0,021
-332,475	-171,882	0,107	-0,003
-331,460	800,000	0,031	-0,077
-330,445	135,304	-0,081	-0,077
-329,431	-200,000	-0,000	0,110
-328,416	-71,022	0,094	-0,026
-327,402	-200,000	0,015	-0,200
-326,387	-200,000	-0,022	-0,118
-325,372	195,994	-0,079	0,089
-324,358	-200,000	0,018	-0,162
-323,343	-10,777	-0,071	-0,034
-322,329	6,489	0,145	-0,079
-321,314	-69,780	-0,054	-0,015
-320,299	4,779	-0,085	0,046
-319,285	113,073	-0,081	0,072
-318,270	283,680	-0,017	0,022
-317,256	-200,000	0,010	0,047
-316,241	342,745	-0,065	0,093
-315,226	294,388	-0,087	-0,117
-314,212	-200,000	0,010	0,184
-313,197	-200,000	0,021	0,167
-312,183	-200,000	-0,014	0,054
-311,168	77,088	-0,047	-0,037
-310,153	-200,000	-0,013	0,049
-309,139	204,115	0,080	0,091
-308,124	226,758	0,061	0,073
-307,110	-41,485	0,111	-0,042
-306,095	-46,935	-0,053	0,019
-305,080	-8,973	0,037	0,018
-304,066	798,694	0,030	-0,061
-303,051	-200,000	0,001	-0,125
-302,037	50,001	0,053	-0,036
-301,022	-12,649	0,059	-0,028
-300,008	358,244	0,041	0,061
-298,993	-200,000	-0,004	-0,042
-297,978	327,428	0,055	0,077
-296,964	-131,958	0,074	0,007
-295,949	-200,000	0,008	0,061
-294,935	78,352	0,060	0,047
-293,920	-147,903	0,134	0,008
-292,905	-105,647	-0,103	0,017
-291,891	-200,000	-0,011	0,067
-290,876	36,069	0,120	-0,077
-289,862	258,222	-0,034	-0,042
-288,847	-53,250	-0,077	-0,026
-287,832	159,053	-0,029	-0,030
-286,818	-17,843	0,128	-0,059
-285,803	-50,797	0,122	0,042
-284,789	-181,275	0,108	0,002
-283,774	-200,000	0,007	0,035
-282,759	-125,552	0,101	-0,011
-281,745	-78,851	-0,085	0,021
-280,730	424,651	-0,020	0,031
-279,716	422,803	-0,029	0,045
-278,701	-136,258	0,132	-0,011
-277,686	800,000	0,022	0,048
-276,672	58,714	0,033	0,024
-275,657	68,901	-0,082	0,061
-274,643	172,719	0,027	-0,029
-273,628	800,000	-0,026	0,072
-272,613	-200,000	-0,003	-0,162
-271,599	-88,453	-0,110	0,024
-270,584	285,165	0,073	0,096
-269,570	-200,000	0,019	0,086
-268,555	177,959	-0,065	0,069
-267,540	-47,896	-0,092	-0,032
-266,526	-200,000	0,006	-0,044
-265,511	-2,080	-0,120	0,061
-264,497	2,887	0,060	-0,032
-263,482	-200,000	0,053	0,184
-262,467	-193,054	0,014	0,000
-261,453	800,000	-0,039	0,085
-260,438	-196,382	0,108	-0,001
-259,424	422,298	-0,040	-0,063
-258,409	-17,823	0,091	-0,041
-257,395	728,901	0,067	0,131
-256,380	-48,751	-0,032	0,011
-255,365	-57,981	-0,039	-0,012
-254,351	55,145	0,085	0,060
-253,336	-200,000	-0,013	-0,116
-252,322	90,610	-0,024	0,020
-251,307	-200,000	-0,003	-0,082
-250,292	49,600	0,069	-0,048
-249,278	508,586	-0,013	-0,023
-248,263	-200,000	0,016	0,094
-247,249	800,000	0,038	0,082
-246,234	58,386	-0,116	-0,083
-245,219	-104,546	0,061	0,010
-244,205	198,513	0,079	-0,088
-243,190	800,000	0,032	-0,092
-242,176	-18,290	0,056	0,025
-241,161	-143,991	0,078	0,005
-240,146	117,384	-0,056	0,050
-239,132	4,383	0,095	0,051
-238,117	45,143	0,069	0,046
-237,103	170,820	-0,057	-0,059
-236,088	-200,000	0,023	-0,096
-235,073	-5,300	0,032	0,016
-234,059	-137,100	0,153	0,013
-233,044	3,610	0,079	-0,042
-232,030	30,961	-0,195	-0,121
-231,015	-32,729	0,066	0,027
-230,000	524,880	-0,033	0,057
-228,986	-200,000	0,009	-0,118
-227,971	-200,000	0,026	-0,164
-226,957	93,487	0,017	0,014
-225,942	114,725	-0,054	-0,048
-224,927	-49,075	0,121	0,042
-223,913	800,000	-0,062	-0,149
-222,898	533,051	0,051	-0,089
-221,884	0,813	0,091	-0,048
-220,869	-200,000	-0,005	-0,051
-219,855	360,936	0,047	0,069
-218,840	551,710	-0,036	-0,064
-217,825	800,000	-0,066	-0,207
-216,811	800,000	0,023	0,049
-215,796	-102,242	-0,079	-0,014
-214,782	-14,513	0,065	-0,030
-213,767	-99,061	0,048	0,009
-212,752	-191,880	0,106	0,001
-211,738	39,893	0,050	0,033
-210,723	-200,000	-0,016	-0,068
-209,709	-131,846	0,077	-0,007
-208,694	800,000	-0,035	0,107
-207,679	-42,011	-0,071	-0,026
-206,665	177,536	-0,057	0,060
-205,650	-200,000	0,014	0,087
-204,636	800,000	-0,025	0,063
-203,621	-67,638	0,121	-0,034
-202,606	18,986	-0,122	-0,071
-201,592	-164,491	-0,060	0,002
-200,577	149,993	0,116	-0,115
-199,563	420,912	0,106	0,166
-198,548	-200,000	-0,020	0,096
-197,533	-128,675	-0,116	-0,012
-196,519	-200,000	0,003	0,222
-195,504	-174,196	-0,004	0,000
-194,490	-133,207	0,036	-0,003
-193,475	-200,000	0,030	-0,134
-192,460	-31,862	0,142	-0,058
-191,446	-200,000	0,017	-0,089
-190,431	222,297	0,102	0,120
-189,417	384,068	0,034	0,052
-188,402	-200,000	0,016	0,116
-187,387	361,091	-0,019	-0,028
-186,373	-200,000	-0,006	-0,078
-185,358	-71,276	0,054	-0,015
-184,344	-200,000	0,005	0,057
-183,329	800,000	0,086	0,210
-182,315	800,000	-0,055	0,149
-181,300	182,919	0,076	-0,081
-180,285	-61,261	-0,100	-0,030
-179,271	481,789	-0,076	-0,126
-178,256	-110,947	0,093	-0,014
-177,242	10,862	-0,110	0,061
-176,227	-47,527	-0,066	0,023
-175,212	663,470	-0,047	-0,088
-174,198	-94,773	-0,081	0,016
-173,183	-114,596	-0,101	0,014
-172,169	-72,202	-0,032	-0,009
-171,154	11,942	0,041	0,023
-170,139	-200,000	0,105	-0,000
-169,125	800,000	0,034	0,092
-168,110	9,993	-0,036	0,020
-167,096	-200,000	0,040	0,139
-166,081	1,182	-0,085	-0,044
-165,066	180,321	0,035	-0,038
-164,052	7,044	-0,236	0,128
-163,037	46,766	0,021	-0,014
-162,023	-107,189	-0,054	0,009
-161,008	43,200	-0,110	0,073
-159,993	-95,974	0,045	0,009
-158,979	-85,879	0,152	0,034
-157,964	709,053	0,037	-0,072
-156,950	-98,991	0,084	0,015
-155,935	-200,000	0,009	0,074
-154,920	42,287	0,101	0,067
-153,906	197,572	0,046	0,051
-152,891	245,808	0,066	0,081
-151,877	-104,130	0,209	-0,035
-150,862	-58,421	-0,053	-0,017
-149,847	306,811	-0,054	-0,074
-148,833	-1,547	0,125	0,064
-147,818	126,735	-0,045	0,042
-146,804	30,104	0,081	0,050
-145,789	-200,000	-0,010	-0,061
-144,775	30,188	0,051	-0,032
-143,760	-3,456	-0,106	-0,054
-142,745	8,089	-0,130	-0,071
-141,731	-200,000	0,022	-0,120
-140,716	-12,054	0,044	-0,021
-139,702	-1,780	-0,053	0,027
-138,687	703,643	-0,046	0,089
-137,672	253,916	-0,085	0,106
-136,658	800,000	-0,023	-0,073
-135,643	78,559	0,108	-0,084
-134,629	-137,464	-0,115	0,009
-133,614	-200,000	0,029	0,120
-132,599	187,474	-0,013	0,014
-131,585	-188,329	0,148	-0,001
-130,570	-120,685	0,012	0,001
-129,556	-98,519	-0,135	0,025
-128,541	136,900	-0,027	0,026
-127,526	800,000	0,030	0,074
-126,512	411,011	0,021	0,033
-125,497	-200,000	0,028	0,158
-124,483	364,436	0,041	-0,060
-123,468	800,000	0,039	0,122
-122,453	-164,541	-0,171	0,006
-121,439	4,340	-0,075	0,040
-120,424	-1,887	-0,043	0,022
-119,410	-41,645	0,175	-0,065
-118,395	-13,168	0,148	0,069
-117,380	-120,764	0,034	0,004
-116,366	800,000	0,014	-0,031
-115,351	155,900	-0,037	-0,037
-114,337	72,174	0,058	0,044
-113,322	199,051	0,045	-0,050
-112,307	-200,000	0,023	-0,096
-111,293	-111,292	0,085	-0,013
-110,278	58,861	-0,157	0,112
-109,264	-101,154	0,075	0,013
-108,249	-148,151	-0,123	0,007
-107,234	727,456	0,055	-0,108
-106,220	353,004	-0,030	0,044
-105,205	800,000	-0,043	0,087
-104,191	800,000	-0,032	-0,094
-103,176	377,057	-0,058	0,087
-102,162	-18,723	-0,118	0,053
-101,147	-200,000	-0,006	-0,082
-100,132	-98,675	0,025	0,005
-99,118	39,867	0,008	-0,005
-98,103	-200,000	0,035	0,118
-97,089	800,000	0,068	0,151
-96,074	-49,575	-0,072	-0,025
-95,059	5,120	0,008	-0,004
-94,045	-56,565	-0,089	-0,028
-93,030	100,103	-0,067	0,056
-92,016	156,062	-0,123	-0,123
-91,001	142,531	-0,063	0,061
-89,986	800,000	0,082	0,224
-88,972	800,000	-0,070	0,202
-87,957	242,639	-0,090	-0,110
-86,943	-99,097	-0,062	-0,011
-85,928	61,239	0,028	-0,020
-84,913	800,000	-0,045	-0,118
-83,899	800,000	0,041	0,099
-82,884	-200,000	0,006	0,075
-81,870	64,871	-0,067	0,049
-80,855	773,464	-0,020	0,040
-79,840	-200,000	-0,009	-0,152
-78,826	658,488	0,095	-0,178
-77,811	24,251	-0,064	-0,039
-76,797	-55,760	-0,188	0,061
-75,782	250,330	-0,072	-0,089
-74,767	-200,000	0,004	-0,046
-73,753	-148,278	-0,044	0,003
-72,738	158,724	-0,010	-0,010
-71,724	-200,000	-0,007	-0,142
-70,709	51,740	0,049	0,033
-69,694	-200,000	-0,078	-0,000
-68,680	-200,000	-0,018	0,101
-67,665	-167,467	0,147	-0,004
-66,651	349,466	0,059	0,084
-65,636	711,598	0,079	0,153
-64,622	168,139	-0,032	-0,033
-63,607	-180,872	-0,046	0,001
-62,592	107,339	0,076	0,065
-61,578	-138,303	0,099	0,008
-60,563	-3,251	0,058	-0,029
-59,549	800,000	-0,047	0,129
-58,534	-46,355	-1,700	-0,602
-57,519	800,000	-0,590	-1,394
-56,505	-200,000	-1,124	-4,718
-55,490	-49,008	0,653	-0,226
-54,476	800,000	5,212	12,215
-53,461	-200,000	15,218	271,121
-52,446	-200,000	695,195	2247,359
-51,432	578,823	1615,598	2877,968
-50,417	121,231	1625,750	1467,372
-49,403	81,973	1283,540	1007,187
-48,388	37,532	1024,533	657,479
-47,373	22,273	985,412	581,991
-46,359	21,302	974,351	572,235
-45,344	19,773	970,248	564,783
-44,330	19,833	968,852	564,146
-43,315	19,579	967,420	562,458
-42,300	19,592	966,112	561,716
-41,286	19,592	965,251	561,193
-40,271	19,570	964,323	560,560
-39,257	19,549	963,599	560,051
-38,242	19,583	962,733	559,634
-37,227	19,586	961,749	559,050
-36,213	19,548	960,997	558,466
-35,198	19,500	959,902	557,653
-34,184	19,593	959,385	557,631
-33,169	19,500	958,388	556,730
-32,154	19,626	957,240	556,448
-31,140	19,598	956,478	555,892
-30,125	19,613	955,793	555,523
-29,111	19,605	954,900	554,955
-28,096	19,555	954,514	554,548
-27,082	19,498	953,765	553,904
-26,067	19,592	952,978	553,729
-25,052	19,576	952,109	553,151
-24,038	19,577	951,267	552,643
-23,023	19,515	950,861	552,187
-22,009	19,554	950,161	551,884
-20,994	19,592	949,395	551,537
-19,979	19,554	948,952	551,137
-18,965	19,550	948,246	550,692
-17,950	19,511	947,682	550,216
-16,936	19,482	947,006	549,710
-15,921	19,478	946,297	549,265
-14,906	19,407	945,706	548,670
-13,892	19,431	945,117	548,386
-12,877	19,373	944,505	547,822
-11,863	19,401	943,677	547,409
-10,848	19,458	943,144	547,260
-9,833	19,516	942,788	547,217
-8,819	19,525	942,091	546,821
-7,804	19,482	941,361	546,237
-6,790	19,458	940,968	545,911
-5,775	19,515	940,208	545,632
-4,760	19,536	939,495	545,263
-3,746	19,405	938,924	544,491
-2,731	19,255	938,190	543,571
-1,717	19,234	937,675	543,181
-0,702	19,263	936,878	542,791
0,313	19,048	936,494	542,707
1,327	22,270	934,639	551,769
2,342	31,779	794,154	494,156
3,356	29,037	448,823	275,134
4,371	-1,659	293,971	149,493
5,386	-5,851	275,154	135,934
6,400	-7,449	269,583	131,683
7,415	-7,696	267,217	130,288
8,429	-7,438	266,006	129,923
9,444	-7,393	265,119	129,520
10,459	-7,475	264,553	129,157
11,473	-7,470	263,902	128,831
12,488	-7,366	263,436	128,687
13,502	-7,472	262,984	128,358
14,517	-7,486	262,601	128,148
15,531	-7,210	262,214	128,196
16,546	-7,074	261,924	128,166
17,561	-7,134	261,534	127,910
18,575	-7,156	261,291	127,761
19,590	-7,202	260,844	127,489
20,604	-7,146	260,641	127,428
21,619	-7,240	260,281	127,157
22,634	-7,140	259,915	127,056
23,648	-7,229	259,584	126,804
24,663	-7,034	259,305	126,830
25,677	-7,130	259,177	126,670
26,692	-7,199	258,895	126,459
27,707	-7,111	258,499	126,334
28,721	-7,244	258,224	126,069
29,736	-7,074	258,105	126,151
30,750	-7,222	257,883	125,900
31,765	-7,280	257,605	125,702
32,780	-7,193	257,370	125,653
33,794	-7,153	257,235	125,611
34,809	-7,358	256,917	125,263
35,823	-7,054	256,633	125,382
36,838	-7,260	256,470	125,109
37,853	-7,150	256,166	125,047
38,867	-7,267	255,920	124,813
39,882	-7,243	255,853	124,790
40,896	-7,415	255,564	124,487
41,911	-7,280	255,280	124,456
42,926	-7,372	255,052	124,253
43,940	-7,462	254,948	124,113
44,955	-7,377	254,543	123,978
45,969	-7,501	254,459	123,818
46,984	-7,602	254,230	123,607
47,999	-7,726	253,912	123,333
49,013	-7,983	253,624	122,958
50,028	-7,953	253,367	122,848
51,042	-7,940	253,227	122,781
52,057	-8,038	252,883	122,518
53,071	-7,951	252,780	122,533
54,086	-8,043	252,645	122,377
55,101	-7,728	252,402	122,522
56,115	-7,498	252,335	122,678
57,130	-7,356	252,137	122,694
58,144	-7,278	252,107	122,735
59,159	-6,934	251,684	122,816
60,174	-7,253	251,557	122,468
61,188	-7,259	251,402	122,375
62,203	-7,005	251,155	122,464
63,217	-7,254	251,040	122,183
64,232	-7,281	250,672	121,969
65,247	-7,169	250,628	122,033
66,261	-7,164	250,316	121,875
67,276	-7,427	250,113	121,539
68,290	-7,642	249,874	121,227
69,305	-7,516	249,392	121,091
70,320	-7,757	249,520	120,935
71,334	-7,414	249,255	121,090
72,349	-7,350	249,206	121,111
73,363	-7,266	248,961	121,052
74,378	-7,298	248,780	120,926
75,393	-7,189	248,506	120,875
76,407	-7,114	248,330	120,843
77,422	-7,272	248,168	120,619
78,436	-7,227	247,929	120,529
79,451	-7,417	247,623	120,209
80,466	-7,237	247,405	120,245
81,480	-7,462	247,297	119,991
82,495	-7,334	246,933	119,912
83,509	-7,534	246,967	119,749
84,524	-7,280	246,591	119,770
85,539	-7,608	246,376	119,378
86,553	-7,734	246,221	119,186
87,568	-7,351	246,094	119,437
88,582	-7,448	245,997	119,298
89,597	-7,661	245,805	119,014
90,611	-7,448	245,680	119,123
91,626	-7,402	245,528	119,076
92,641	-7,343	245,342	119,026
93,655	-7,178	245,052	119,013
94,670	-7,279	244,818	118,804
95,684	-7,472	244,658	118,553
96,699	-7,462	244,472	118,462
97,714	-7,388	244,383	118,469
98,728	-7,522	244,153	118,235
99,743	-7,660	243,925	118,000
100,757	-7,660	243,838	117,946
101,772	-7,622	243,537	117,822
102,787	-7,655	243,335	117,686
103,801	-7,562	243,236	117,705
104,816	-7,462	243,159	117,741
105,830	-7,263	242,884	117,763
106,845	-7,357	242,693	117,582
107,860	-7,177	242,504	117,629
108,874	-7,390	242,354	117,369
109,889	-7,229	241,952	117,297
110,903	-7,307	241,723	117,111
111,918	-7,564	241,681	116,868
112,933	-7,430	241,576	116,918
113,947	-7,432	241,431	116,836
114,962	-7,458	241,285	116,733
115,976	-7,458	241,170	116,667
116,991	-7,203	240,794	116,684
118,006	-7,273	240,665	116,554
119,020	-7,453	240,706	116,415
120,035	-7,278	240,456	116,428
121,049	-7,183	240,307	116,424
122,064	-7,281	240,272	116,316
123,079	-7,186	239,875	116,191
124,093	-7,558	239,787	115,833
125,108	-7,441	239,480	115,770
126,122	-7,569	239,306	115,571
127,137	-7,628	239,099	115,412
128,151	-7,867	239,052	115,184
129,166	-7,555	238,783	115,299
130,181	-7,643	238,657	115,156
131,195	-7,708	238,272	114,907
132,210	-7,388	238,232	115,138
133,224	-7,442	238,071	115,006
134,239	-7,295	237,886	115,026
135,254	-7,283	237,705	114,938
136,268	-7,648	237,496	114,530
137,283	-7,729	237,337	114,378
138,297	-7,723	237,135	114,275
139,312	-7,800	236,978	114,127
140,327	-7,369	236,748	114,355
141,341	-6,990	236,770	114,661
142,356	-7,306	236,817	114,419
143,370	-7,085	236,426	114,397
144,385	-6,896	236,298	114,478
145,400	-7,023	236,127	114,282
146,414	-7,051	236,008	114,192
147,429	-7,234	235,813	113,941
148,443	-6,946	235,546	114,033
149,458	-7,222	235,488	113,773
150,473	-7,164	235,192	113,666
151,487	-7,251	235,121	113,552
152,502	-7,237	234,876	113,435
153,516	-7,008	234,610	113,479
154,531	-7,082	234,546	113,378
155,546	-7,176	234,586	113,313
156,560	-7,207	234,236	113,109
157,575	-7,263	234,003	112,942
158,589	-7,163	233,838	112,932
159,604	-6,955	233,685	113,014
160,619	-7,095	233,717	112,907
161,633	-7,030	233,491	112,840
162,648	-7,235	233,332	112,590
163,662	-7,093	233,224	112,641
164,677	-7,280	232,963	112,356
165,692	-6,983	232,757	112,482
166,706	-6,886	232,619	112,482
167,721	-6,924	232,512	112,391
168,735	-6,740	232,375	112,460
169,750	-7,059	232,312	112,167
170,764	-7,347	232,095	111,824
171,779	-6,857	231,950	112,132
172,794	-7,049	231,883	111,937
173,808	-7,151	231,715	111,766
174,823	-7,634	231,233	111,144
175,837	-7,615	231,050	111,060
176,852	-7,473	231,138	111,205
177,867	-7,257	231,004	111,300
178,881	-7,023	230,794	111,373
179,896	-7,094	230,706	111,265
180,910	-7,020	230,479	111,203
181,925	-6,977	230,203	111,094
182,940	-7,139	230,237	110,973
183,954	-7,009	230,007	110,954
184,969	-7,005	230,053	110,970
185,983	-6,901	229,874	110,955
186,998	-6,777	229,465	110,844
188,013	-6,826	229,423	110,776
189,027	-6,977	229,307	110,592
190,042	-6,833	229,136	110,612
191,056	-6,886	228,941	110,467
192,071	-6,998	228,669	110,239
193,086	-6,878	228,537	110,258
194,100	-7,008	228,289	110,028
195,115	-7,341	227,913	109,579
196,129	-7,837	227,900	109,180
197,144	-3,600	229,196	113,086
198,159	0,975	230,708	117,395
199,173	4,001	231,490	120,148
200,188	4,711	231,245	120,563
201,202	4,464	231,234	120,354
202,217	4,708	231,080	120,453
203,232	4,853	230,972	120,499
204,246	4,757	230,933	120,393
205,261	4,833	230,640	120,289
206,275	5,158	230,595	120,507
207,290	4,914	230,437	120,225
208,304	4,919	230,341	120,168
209,319	5,013	230,000	120,052
210,334	4,824	229,891	119,838
211,348	4,660	229,751	119,627
212,363	4,200	229,546	119,154
213,377	3,953	229,156	118,751
214,392	4,011	229,106	118,759
215,407	3,938	228,842	118,555
216,421	4,078	228,799	118,630
217,436	4,112	228,526	118,504
218,450	3,879	228,435	118,268
219,465	3,879	228,289	118,181
220,480	3,697	228,218	117,993
221,494	4,117	227,895	118,139
222,509	4,039	227,831	118,035
223,523	4,131	227,732	118,043
224,538	3,879	227,625	117,785
225,553	4,126	227,405	117,849
226,567	4,090	227,337	117,776
227,582	4,380	227,303	117,970
228,596	4,531	227,068	117,953
229,611	4,380	226,799	117,687
230,626	4,081	226,649	117,371
231,640	4,053	226,608	117,318
232,655	4,434	226,381	117,480
233,669	4,690	226,481	117,716
234,684	4,670	226,336	117,616
235,699	4,403	226,108	117,283
236,713	4,282	225,929	117,088
237,728	4,151	225,651	116,834
238,742	3,969	225,432	116,572
239,757	4,103	225,235	116,562
240,772	3,976	225,219	116,447
241,786	4,145	225,118	116,512
242,801	4,343	224,982	116,581
243,815	4,741	224,852	116,804
244,830	4,649	224,730	116,661
245,844	4,372	224,587	116,367
246,859	4,203	224,514	116,192
247,874	4,250	224,358	116,136
248,888	4,499	224,079	116,169
249,903	4,297	223,969	115,949
250,917	4,090	223,865	115,729
251,932	4,141	223,565	115,603
252,947	3,881	223,436	115,330
253,961	4,027	223,370	115,395
254,976	4,136	223,107	115,330
255,990	4,386	223,045	115,475
257,005	4,220	222,968	115,301
258,020	4,214	222,993	115,299
259,034	4,647	222,917	115,574
260,049	4,288	222,689	115,177
261,063	4,261	222,366	114,979
262,078	4,456	222,374	115,119
263,093	4,438	222,180	114,994
264,107	4,382	222,057	114,879
265,122	4,491	221,962	114,901
266,136	4,541	221,966	114,930
267,151	4,492	221,614	114,701
268,166	4,224	221,217	114,286
269,180	4,025	221,126	114,082
270,195	4,214	221,034	114,164
271,209	4,147	220,885	114,028
272,224	4,150	220,830	113,991
273,239	4,338	220,581	113,991
274,253	4,328	220,343	113,851
275,268	3,911	220,150	113,433
276,282	3,852	220,083	113,345
277,297	3,798	219,959	113,231
278,312	3,946	219,958	113,330
279,326	4,110	219,910	113,415
280,341	4,395	219,709	113,511
281,355	4,176	219,476	113,220
282,370	3,960	219,364	112,994
283,384	4,127	219,086	112,963
284,399	3,967	219,005	112,793
285,414	3,941	218,914	112,718
286,428	4,143	218,752	112,772
287,443	4,310	218,724	112,870
288,457	4,329	218,541	112,779
289,472	4,250	218,328	112,602
290,487	3,794	218,069	112,125
291,501	3,691	217,952	111,980
292,516	4,061	217,681	112,101
293,530	3,914	217,780	112,034
294,545	3,904	217,601	111,925
295,560	3,904	217,530	111,878
296,574	4,167	217,308	111,945
297,589	4,012	217,297	111,817
298,603	4,290	217,039	111,876
299,618	4,237	216,980	111,797
300,633	4,026	216,894	111,590
301,647	4,402	216,806	111,807
302,662	4,403	216,657	111,721
303,676	4,442	216,469	111,642
304,691	4,374	216,369	111,531
305,706	4,362	216,281	111,468
306,720	4,279	216,091	111,299
307,735	3,976	215,958	111,003
308,749	3,838	215,788	110,806
309,764	4,366	215,605	111,083
310,779	4,481	215,476	111,089
311,793	4,351	215,445	110,969
312,808	4,314	215,271	110,843
313,822	4,192	215,100	110,658
314,837	3,975	214,912	110,395
315,852	4,069	214,756	110,373
316,866	4,130	214,707	110,382
317,881	4,215	214,461	110,306
318,895	4,292	214,386	110,313
319,910	4,217	214,178	110,142
320,925	4,062	213,895	109,876
321,939	3,741	213,675	109,524
322,954	3,862	213,735	109,632
323,968	4,138	213,845	109,876
324,983	4,149	213,778	109,839
325,997	4,400	213,627	109,931
327,012	4,198	213,292	109,605
328,027	4,173	213,080	109,468
329,041	4,414	213,125	109,653
330,056	4,537	212,976	109,653
331,070	4,022	212,608	109,089
332,085	3,807	212,475	108,860
333,100	4,103	212,336	108,988
334,114	4,491	212,396	109,283
335,129	4,165	212,210	108,947
336,143	3,773	212,047	108,577
337,158	3,989	211,948	108,669
338,173	3,923	211,792	108,534
339,187	4,006	211,602	108,485
340,202	3,764	211,361	108,181
341,216	3,725	211,211	108,067
342,231	4,014	211,237	108,274
343,246	3,858	211,105	108,087
344,260	3,910	210,961	108,040
345,275	3,914	210,956	108,031
346,289	4,232	210,721	108,124
347,304	4,178	210,604	108,016
348,319	4,013	210,468	107,821
349,333	4,010	210,326	107,737
350,348	4,391	210,235	107,947
351,362	4,481	210,023	107,892
352,377	4,231	209,980	107,685
353,392	4,151	209,788	107,521
354,406	4,113	209,814	107,498
355,421	193,409	1343,316	1428,738
356,435	154,353	1481,465	1428,813
