DTS Sentinel unit serial number:	SN410029Multiplexer serial number:	ORYXHardware model number:	OX2-SRSoftware version number:	ORYX F/W v4,00 Oryx Data Collector v3.7.2.0data status	okinstallation	B6 Nyhavnadifferential loss correction	single-endedforward channel	channel 2reverse channel	N/Adate	2023/12/10time	02:30:08forward acquisition time	300,00reverse acquisition time	0,00gamma	499,1914k internal	0,3125k external	0,3125temperature offset calibration	1,0000default loss term (dB/km)	0,3820temperature slope calibration	1,0000multiplexer offset coefficient	1,0000multiplexer slope coefficient	1,0000fibre end	0,00T internal ref (°C)	21,94T ext. ref 1 (°C)	5,76T ext. ref 2 (°C)	5,74length (m)	temperature (°C)	Stokes	anti-Stokes-744,400	101,545	0,068	-0,059
-743,385	56,341	-0,228	0,165
-742,371	-101,164	0,189	-0,034
-741,356	97,658	-0,187	0,160
-740,342	-45,313	-0,160	-0,059
-739,327	441,173	-0,155	0,254
-738,312	-51,818	0,052	0,018
-737,298	-158,240	-0,348	-0,015
-736,283	-25,120	0,245	0,108
-735,269	-85,920	-0,157	0,036
-734,254	54,643	-0,088	0,063
-733,239	-181,777	-0,537	0,007
-732,225	-31,099	0,092	-0,038
-731,210	798,663	-0,035	0,073
-730,196	9,151	-0,117	-0,065
-729,181	557,790	0,027	-0,048
-728,167	543,347	-0,018	-0,032
-727,152	-200,000	-0,002	-0,071
-726,137	-90,876	0,136	-0,029
-725,123	800,000	-0,057	-0,168
-724,108	800,000	-0,050	-0,143
-723,094	800,000	-0,028	-0,071
-722,079	-200,000	0,002	0,015
-721,064	83,487	-0,118	-0,096
-720,050	216,723	-0,094	0,112
-719,035	49,865	0,142	-0,100
-718,021	249,425	-0,061	-0,077
-717,006	-96,751	-0,096	-0,019
-715,991	36,808	-0,187	-0,122
-714,977	121,355	-0,032	0,030
-713,962	-150,610	-0,074	0,004
-712,948	241,491	0,062	0,077
-711,933	145,674	-0,034	0,034
-710,918	-200,000	-0,016	0,074
-709,904	-58,918	-0,028	-0,009
-708,889	8,093	-0,116	0,065
-707,875	101,479	-0,120	-0,104
-706,860	-200,000	-0,016	0,100
-705,845	17,642	-0,140	-0,083
-704,831	-40,816	0,096	0,037
-703,816	126,142	0,052	0,049
-702,802	208,338	0,018	0,021
-701,787	-86,225	-0,067	-0,015
-700,772	-37,589	-0,105	0,041
-699,758	321,403	0,061	-0,086
-698,743	-200,000	0,004	-0,103
-697,729	36,099	-0,011	0,007
-696,714	800,000	-0,056	0,125
-695,699	216,775	-0,032	0,038
-694,685	-200,000	0,007	-0,038
-693,670	98,503	0,062	-0,053
-692,656	271,551	0,046	0,060
-691,641	-200,000	-0,007	-0,092
-690,627	800,000	-0,031	-0,071
-689,612	-51,058	0,063	0,022
-688,597	-138,122	-0,132	-0,011
-687,583	403,671	-0,095	-0,150
-686,568	196,691	0,031	-0,035
-685,554	800,000	0,037	-0,110
-684,539	-200,000	-0,004	0,084
-683,524	-200,000	-0,002	-0,032
-682,510	-21,158	-0,136	0,062
-681,495	-200,000	-0,001	0,174
-680,481	800,000	-0,017	0,051
-679,466	-114,295	-0,103	0,015
-678,451	443,707	-0,039	-0,064
-677,437	-63,615	0,074	-0,022
-676,422	800,000	0,044	0,098
-675,408	180,280	-0,115	0,126
-674,393	-122,342	-0,138	0,017
-673,378	800,000	0,022	-0,062
-672,364	-200,000	0,011	-0,038
-671,349	-200,000	-0,019	-0,081
-670,335	-200,000	-0,013	0,042
-669,320	-200,000	-0,006	0,047
-668,305	52,889	-0,005	-0,004
-667,291	-111,925	-0,048	0,007
-666,276	-200,000	0,019	-0,064
-665,262	41,925	-0,203	-0,137
-664,247	-200,000	-0,025	-0,139
-663,232	800,000	0,017	-0,051
-662,218	-200,000	-0,004	-0,102
-661,203	800,000	0,027	0,075
-660,189	146,622	-0,118	0,118
-659,174	409,005	-0,073	-0,115
-658,159	-13,963	-0,056	-0,027
-657,145	-89,242	-0,135	-0,029
-656,130	-200,000	-0,007	-0,119
-655,116	-200,000	-0,014	0,088
-654,101	800,000	0,046	0,104
-653,086	537,605	-0,038	-0,068
-652,072	-200,000	-0,015	-0,072
-651,057	-81,399	-0,041	-0,010
-650,043	-200,000	-0,005	-0,162
-649,028	162,030	-0,054	-0,056
-648,014	-136,755	0,081	-0,007
-646,999	800,000	0,036	0,087
-645,984	-81,959	0,082	-0,020
-644,970	3,394	0,075	0,041
-643,955	-125,185	0,046	0,005
-642,941	-129,104	0,085	0,009
-641,926	-200,000	-0,023	-0,094
-640,911	-22,425	0,090	0,040
-639,897	800,000	0,062	-0,130
-638,882	70,587	-0,025	-0,019
-637,868	72,020	-0,083	0,064
-636,853	-40,735	-0,090	0,034
-635,838	478,149	-0,099	-0,167
-634,824	30,881	-0,055	0,035
-633,809	800,000	0,025	-0,052
-632,795	-19,717	-0,025	0,012
-631,780	-39,048	0,058	0,023
-630,765	12,998	-0,046	0,026
-629,751	489,030	0,037	-0,063
-628,736	-190,052	-0,073	0,001
-627,722	163,846	-0,072	0,076
-626,707	-118,960	-0,034	-0,004
-625,692	-200,000	0,036	-0,151
-624,678	-200,000	-0,004	0,015
-623,663	191,198	-0,064	-0,071
-622,649	800,000	0,042	0,097
-621,634	-200,000	-0,026	-0,173
-620,619	-46,955	-0,113	-0,041
-619,605	-200,000	-0,003	-0,100
-618,590	-200,000	0,002	0,088
-617,576	105,145	0,081	0,070
-616,561	-124,584	-0,084	0,010
-615,546	-200,000	0,008	0,077
-614,532	-200,000	-0,036	-0,140
-613,517	-143,736	-0,098	-0,007
-612,503	111,628	-0,070	0,063
-611,488	-200,000	-0,007	0,172
-610,474	-200,000	-0,030	0,126
-609,459	-73,974	0,024	-0,006
-608,444	2,840	-0,074	0,040
-607,430	800,000	-0,081	-0,184
-606,415	-200,000	-0,030	-0,168
-605,401	-119,659	-0,111	-0,014
-604,386	-200,000	-0,006	0,074
-603,371	-200,000	-0,023	0,000
-602,357	121,662	-0,078	0,072
-601,342	62,726	-0,052	-0,038
-600,328	307,960	-0,024	-0,033
-599,313	800,000	-0,020	0,042
-598,298	800,000	0,019	-0,051
-597,284	208,723	0,077	-0,089
-596,269	800,000	-0,055	0,146
-595,255	-76,177	0,043	-0,011
-594,240	-186,854	-0,102	0,001
-593,225	61,470	-0,068	-0,050
-592,211	125,724	0,062	0,058
-591,196	20,968	-0,065	0,039
-590,182	118,716	0,071	0,065
-589,167	-10,232	-0,063	-0,031
-588,152	560,847	-0,060	-0,107
-587,138	-54,848	-0,102	-0,034
-586,123	-165,797	0,033	-0,001
-585,109	-98,437	0,034	-0,006
-584,094	-200,000	-0,041	-0,136
-583,079	800,000	0,034	0,091
-582,065	-24,826	-0,036	0,016
-581,050	800,000	-0,013	0,038
-580,036	-200,000	-0,005	0,121
-579,021	-78,382	-0,201	0,051
-578,006	-70,455	-0,093	-0,026
-576,992	-116,555	-0,056	0,007
-575,977	18,664	-0,051	-0,030
-574,963	800,000	0,040	0,111
-573,948	800,000	0,024	-0,067
-572,934	596,091	0,057	0,104
-571,919	-95,336	-0,108	0,021
-570,904	315,331	0,096	-0,134
-569,890	340,110	0,083	-0,120
-568,875	-79,010	0,034	0,008
-567,861	-62,826	0,117	-0,036
-566,846	288,794	0,059	-0,079
-565,831	75,604	-0,087	-0,068
-564,817	800,000	0,024	0,064
-563,802	-200,000	0,002	0,100
-562,788	93,866	-0,091	-0,076
-561,773	3,479	0,109	-0,058
-560,758	4,701	-0,069	-0,037
-559,744	91,160	-0,080	0,067
-558,729	22,333	-0,066	0,040
-557,715	520,507	-0,080	-0,139
-556,700	-200,000	-0,052	-0,211
-555,685	139,843	-0,081	0,079
-554,671	-41,460	0,022	-0,008
-553,656	-58,018	0,150	0,048
-552,642	116,381	0,081	-0,073
-551,627	-52,995	-0,061	0,021
-550,612	-200,000	-0,009	0,044
-549,598	142,551	-0,090	-0,089
-548,583	118,499	0,053	-0,049
-547,569	64,616	0,036	-0,027
-546,554	5,172	0,189	0,103
-545,539	633,399	-0,008	0,015
-544,525	800,000	0,035	-0,085
-543,510	20,679	0,069	0,041
-542,496	-200,000	0,019	0,100
-541,481	-134,845	-0,067	-0,006
-540,466	-128,278	-0,065	0,007
-539,452	800,000	0,016	-0,043
-538,437	-5,397	0,149	0,076
-537,423	771,903	-0,023	0,046
-536,408	-118,904	-0,230	0,030
-535,393	-200,000	-0,027	0,144
-534,379	415,192	-0,056	-0,089
-533,364	-200,000	0,035	-0,125
-532,350	59,709	0,055	0,040
-531,335	67,974	-0,040	-0,030
-530,321	-200,000	0,016	0,093
-529,306	-137,918	0,190	0,015
-528,291	-29,900	0,101	-0,042
-527,277	800,000	0,021	-0,062
-526,262	-74,497	0,128	-0,034
-525,248	427,628	-0,020	-0,031
-524,233	800,000	-0,039	0,087
-523,218	203,634	-0,050	-0,057
-522,204	800,000	-0,106	0,237
-521,189	173,359	-0,048	0,051
-520,175	284,758	0,058	-0,077
-519,160	-200,000	-0,001	-0,045
-518,145	-200,000	0,027	-0,108
-517,131	156,579	0,110	0,112
-516,116	14,919	0,077	-0,045
-515,102	-21,046	-0,100	-0,045
-514,087	149,092	0,019	-0,019
-513,072	-94,226	-0,105	0,021
-512,058	-200,000	0,012	0,073
-511,043	-43,773	-0,117	0,043
-510,029	411,461	-0,084	0,132
-509,014	-200,000	0,036	-0,144
-507,999	800,000	0,026	0,054
-506,985	197,454	-0,103	-0,116
-505,970	134,038	-0,091	-0,087
-504,956	87,681	-0,020	-0,016
-503,941	158,389	0,011	0,012
-502,926	-159,696	0,198	-0,008
-501,912	72,782	-0,185	0,142
-500,897	-120,265	0,110	-0,014
-499,883	-200,000	0,020	-0,132
-498,868	-89,357	-0,103	0,022
-497,853	-200,000	-0,012	-0,066
-496,839	-200,000	-0,018	-0,063
-495,824	800,000	0,040	0,102
-494,810	-200,000	0,002	-0,021
-493,795	92,177	0,059	0,049
-492,781	-171,741	-0,139	-0,003
-491,766	-200,000	0,020	-0,118
-490,751	-8,246	0,173	-0,086
-489,737	55,705	0,068	0,049
-488,722	-200,000	0,001	-0,026
-487,708	442,682	0,034	0,055
-486,693	543,183	0,028	0,050
-485,678	98,818	0,008	0,006
-484,664	800,000	0,024	0,073
-483,649	42,483	-0,018	-0,012
-482,635	206,709	0,031	-0,036
-481,620	800,000	0,046	0,126
-480,605	189,787	-0,015	-0,017
-479,591	-200,000	0,009	0,253
-478,576	800,000	-0,049	-0,135
-477,562	-138,174	-0,156	0,013
-476,547	-200,000	-0,013	-0,069
-475,532	168,224	-0,030	0,032
-474,518	-51,591	-0,063	0,022
-473,503	632,224	0,028	0,052
-472,489	178,522	0,044	0,047
-471,474	499,002	-0,024	-0,041
-470,459	84,310	0,047	-0,038
-469,445	-182,403	-0,103	-0,001
-468,430	327,399	-0,051	-0,073
-467,416	532,327	-0,046	0,080
-466,401	-30,813	0,109	0,045
-465,386	110,532	-0,106	-0,094
-464,372	108,913	0,028	0,025
-463,357	-200,000	-0,003	0,018
-462,343	-200,000	-0,010	0,104
-461,328	25,904	0,081	0,050
-460,313	298,102	-0,072	-0,098
-459,299	7,398	0,041	-0,023
-458,284	-200,000	-0,019	-0,069
-457,270	800,000	0,028	-0,081
-456,255	61,209	0,048	-0,035
-455,241	-121,543	-0,049	-0,006
-454,226	95,830	0,050	-0,042
-453,211	316,397	0,032	-0,044
-452,197	-200,000	-0,005	0,068
-451,182	94,697	0,068	-0,057
-450,168	204,596	0,094	-0,107
-449,153	-80,742	-0,101	-0,024
-448,138	-200,000	-0,026	-0,225
-447,124	206,589	0,020	0,023
-446,109	133,945	0,076	-0,072
-445,095	19,645	-0,012	0,007
-444,080	-200,000	-0,016	0,209
-443,065	-66,505	0,090	0,026
-442,051	-57,724	0,081	0,026
-441,036	-115,267	-0,184	0,025
-440,022	-167,137	0,020	0,001
-439,007	-0,072	0,060	0,031
-437,992	800,000	0,015	0,042
-436,978	-122,551	-0,164	0,019
-435,963	22,441	-0,136	0,082
-434,949	-83,552	0,051	-0,012
-433,934	-122,327	0,094	0,011
-432,919	282,968	-0,048	0,064
-431,905	800,000	-0,032	-0,104
-430,890	234,823	0,076	0,093
-429,876	-200,000	-0,001	0,043
-428,861	16,222	-0,015	0,009
-427,846	50,592	-0,017	-0,012
-426,832	62,822	-0,055	-0,041
-425,817	173,245	-0,117	-0,125
-424,803	-38,092	0,138	0,054
-423,788	636,691	0,065	0,122
-422,773	-200,000	0,003	-0,014
-421,759	-120,906	-0,105	0,013
-420,744	140,074	-0,131	0,127
-419,730	800,000	-0,047	-0,147
-418,715	-157,185	-0,046	-0,002
-417,701	-11,271	-0,126	-0,061
-416,686	39,853	-0,116	0,076
-415,671	-141,526	0,153	0,011
-414,657	-115,937	-0,008	0,001
-413,642	398,597	-0,096	0,149
-412,628	-61,262	0,194	0,060
-411,613	-35,629	-0,071	0,028
-410,598	-200,000	-0,009	0,073
-409,584	357,340	0,097	0,143
-408,569	-45,362	0,144	0,052
-407,555	26,827	0,091	0,056
-406,540	-4,723	0,015	-0,008
-405,525	264,921	-0,021	0,027
-404,511	-28,285	0,090	-0,038
-403,496	28,222	-0,143	0,089
-402,482	157,098	0,110	0,112
-401,467	106,048	0,115	0,100
-400,452	83,891	-0,020	0,016
-399,438	411,947	-0,012	0,019
-398,423	160,337	0,077	0,079
-397,409	375,713	0,056	0,084
-396,394	-144,310	0,081	-0,005
-395,379	-96,976	-0,077	-0,015
-394,365	-200,000	-0,014	-0,071
-393,350	-61,824	-0,121	-0,037
-392,336	-155,876	0,072	-0,003
-391,321	159,066	0,057	-0,058
-390,306	209,026	-0,054	-0,062
-389,292	-15,711	-0,141	-0,066
-388,277	-200,000	0,034	0,149
-387,263	-91,072	-0,105	0,022
-386,248	-92,613	0,182	0,037
-385,233	-8,197	-0,086	0,042
-384,219	-124,068	0,048	0,005
-383,204	355,527	-0,082	0,121
-382,190	-58,388	0,038	0,012
-381,175	112,734	-0,147	0,131
-380,160	-200,000	-0,003	0,033
-379,146	-200,000	0,015	0,052
-378,131	-33,394	0,188	0,076
-377,117	314,089	-0,052	-0,072
-376,102	-37,253	0,037	0,014
-375,088	800,000	-0,036	-0,104
-374,073	83,557	0,116	0,093
-373,058	-156,107	-0,065	-0,003
-372,044	-2,798	0,056	0,029
-371,029	-200,000	-0,004	0,081
-370,015	-5,233	-0,019	-0,009
-369,000	-200,000	0,001	-0,064
-367,985	800,000	0,045	-0,115
-366,971	-70,774	0,123	-0,034
-365,956	-23,408	-0,032	0,014
-364,942	-83,354	0,096	-0,023
-363,927	597,679	-0,072	0,131
-362,912	24,792	0,045	0,027
-361,898	800,000	0,010	-0,026
-360,883	44,381	0,054	-0,036
-359,869	800,000	-0,054	-0,133
-358,854	77,337	-0,009	0,007
-357,839	-200,000	-0,007	0,026
-356,825	166,828	0,041	-0,042
-355,810	98,447	0,046	-0,039
-354,796	108,064	-0,049	-0,043
-353,781	21,388	-0,044	-0,026
-352,766	-200,000	-0,019	0,100
-351,752	222,198	-0,037	0,043
-350,737	266,006	0,053	-0,068
-349,723	-153,270	0,098	-0,005
-348,708	-200,000	0,011	-0,076
-347,693	-200,000	-0,021	-0,135
-346,679	-200,000	0,021	0,091
-345,664	505,086	-0,044	0,074
-344,650	800,000	0,027	0,066
-343,635	172,261	0,062	-0,065
-342,620	67,488	0,081	-0,060
-341,606	-94,385	0,135	0,027
-340,591	104,719	-0,036	0,031
-339,577	-15,878	-0,132	-0,061
-338,562	196,036	0,045	-0,050
-337,548	-200,000	-0,003	-0,042
-336,533	-177,074	0,093	0,002
-335,518	4,972	-0,019	-0,010
-334,504	185,081	0,034	-0,037
-333,489	637,675	-0,059	-0,111
-332,475	267,571	-0,062	-0,080
-331,460	800,000	-0,020	0,054
-330,445	64,768	0,114	-0,084
-329,431	88,985	-0,030	-0,024
-328,416	-92,011	-0,092	0,019
-327,402	-129,489	0,084	0,008
-326,387	136,054	-0,070	0,067
-325,372	-200,000	-0,000	0,017
-324,358	262,498	0,039	-0,050
-323,343	-1,704	-0,065	0,034
-322,329	506,504	0,060	-0,102
-321,314	-200,000	0,015	0,071
-320,299	-200,000	0,003	0,116
-319,285	185,635	-0,048	0,053
-318,270	593,901	-0,089	-0,162
-317,256	800,000	-0,058	-0,130
-316,241	-200,000	0,116	0,000
-315,226	-200,000	-0,021	-0,091
-314,212	-81,263	-0,100	0,024
-313,197	337,986	0,064	-0,091
-312,183	-200,000	0,011	0,059
-311,168	-107,735	-0,153	-0,024
-310,153	-12,491	0,084	-0,040
-309,139	340,734	0,079	-0,113
-308,124	145,683	0,092	0,090
-307,110	-21,937	0,075	-0,033
-306,095	-46,072	0,069	-0,025
-305,080	-200,000	0,001	-0,076
-304,066	-200,000	0,022	-0,077
-303,051	-69,139	-0,050	-0,014
-302,037	-200,000	0,020	-0,123
-301,022	-115,576	-0,040	-0,005
-300,008	-58,861	-0,038	0,012
-298,993	608,093	0,066	-0,121
-297,978	301,621	-0,045	0,061
-296,964	406,046	-0,051	0,079
-295,949	800,000	0,020	0,050
-294,935	-200,000	-0,001	-0,092
-293,920	-138,443	0,021	0,002
-292,905	800,000	-0,051	-0,159
-291,891	800,000	0,054	0,123
-290,876	75,833	0,127	0,098
-289,862	-200,000	0,027	-0,139
-288,847	416,267	-0,032	0,051
-287,832	41,793	-0,080	-0,053
-286,818	7,927	-0,040	-0,022
-285,803	-50,070	0,166	-0,057
-284,789	-200,000	0,032	0,109
-283,774	32,121	0,055	0,034
-282,759	285,486	0,006	-0,008
-281,745	-37,701	-0,121	0,047
-280,730	-70,904	-0,044	-0,012
-279,716	-30,785	0,138	0,057
-278,701	187,806	-0,071	-0,077
-277,686	33,674	0,019	0,012
-276,672	800,000	0,074	0,158
-275,657	-149,970	0,061	0,003
-274,643	21,316	-0,029	-0,017
-273,628	-85,590	-0,116	-0,026
-272,613	-106,388	0,185	0,030
-271,599	169,452	0,009	0,009
-270,584	55,520	-0,113	-0,080
-269,570	-200,000	-0,007	-0,073
-268,555	-62,497	0,058	-0,018
-267,540	-53,202	-0,117	0,039
-266,526	23,803	0,040	-0,024
-265,511	56,172	0,048	-0,034
-264,497	310,694	0,048	0,066
-263,482	259,897	0,073	0,093
-262,467	800,000	-0,036	0,088
-261,453	14,100	-0,058	0,033
-260,438	-10,223	0,024	-0,012
-259,424	180,605	0,024	-0,026
-258,409	38,426	0,126	0,082
-257,395	52,563	-0,056	-0,039
-256,380	-64,457	0,172	-0,051
-255,365	800,000	-0,029	0,090
-254,351	-119,629	-0,084	0,011
-253,336	-200,000	-0,041	0,138
-252,322	-200,000	-0,005	-0,029
-251,307	19,449	0,050	0,030
-250,292	118,549	-0,037	-0,033
-249,278	234,455	0,105	0,126
-248,263	332,796	0,098	0,139
-247,249	200,439	0,035	-0,040
-246,234	19,074	-0,166	0,097
-245,219	77,503	-0,062	0,048
-244,205	64,718	0,124	-0,091
-243,190	221,064	0,052	0,061
-242,176	589,691	0,057	-0,103
-241,161	800,000	-0,011	-0,035
-240,146	-47,778	-0,048	0,017
-239,132	-60,588	-0,159	-0,049
-238,117	-200,000	0,004	-0,064
-237,103	-82,388	-0,168	0,040
-236,088	-12,586	0,143	0,068
-235,073	-41,938	0,105	0,039
-234,059	144,805	-0,069	0,067
-233,044	-134,019	0,073	-0,007
-232,030	-200,000	0,022	0,151
-231,015	334,352	0,024	-0,034
-230,000	-100,562	-0,110	-0,020
-228,986	347,849	-0,015	0,022
-227,971	607,828	0,031	0,057
-226,957	1,435	0,095	0,050
-225,942	-200,000	-0,003	-0,134
-224,927	-200,000	-0,001	0,028
-223,913	-157,097	-0,115	0,005
-222,898	206,063	-0,040	0,046
-221,884	-200,000	-0,004	0,076
-220,869	800,000	-0,054	0,120
-219,855	70,307	-0,037	0,028
-218,840	-71,426	0,094	-0,026
-217,825	755,707	0,039	-0,076
-216,811	252,631	-0,055	0,068
-215,796	243,236	-0,034	0,042
-214,782	-200,000	-0,006	0,074
-213,767	800,000	-0,020	0,057
-212,752	-200,000	0,038	0,185
-211,738	121,036	-0,043	0,039
-210,723	-200,000	-0,004	0,035
-209,709	25,210	-0,074	-0,045
-208,694	-153,491	0,090	-0,004
-207,679	273,084	-0,071	0,092
-206,665	-200,000	0,015	0,053
-205,650	87,498	0,037	0,030
-204,636	33,833	0,106	0,067
-203,621	-78,050	-0,064	-0,016
-202,606	-106,125	0,032	0,005
-201,592	-132,959	-0,146	-0,013
-200,577	-129,969	0,053	0,005
-199,563	99,700	0,085	-0,072
-198,548	359,826	0,062	0,091
-197,533	800,000	0,018	0,041
-196,519	-200,000	0,001	0,085
-195,504	800,000	0,012	0,025
-194,490	-200,000	-0,025	-0,107
-193,475	-57,484	-0,008	0,002
-192,460	325,313	0,082	-0,114
-191,446	355,039	-0,079	-0,116
-190,431	-101,196	0,099	-0,017
-189,417	800,000	0,030	-0,090
-188,402	410,435	-0,001	-0,002
-187,387	-200,000	0,008	-0,027
-186,373	800,000	0,052	-0,132
-185,358	-24,650	-0,087	-0,038
-184,344	248,195	0,031	0,038
-183,329	-30,399	-0,095	0,039
-182,315	478,961	0,094	-0,156
-181,300	-200,000	-0,023	-0,089
-180,285	789,738	-0,056	-0,112
-179,271	19,322	-0,133	-0,077
-178,256	-200,000	-0,004	-0,122
-177,242	-108,832	-0,113	0,017
-176,227	379,240	0,039	0,059
-175,212	174,601	0,068	0,072
-174,198	96,949	-0,044	-0,037
-173,183	-200,000	-0,004	-0,063
-172,169	800,000	-0,042	-0,103
-171,154	265,572	-0,038	-0,049
-170,139	800,000	0,047	-0,124
-169,125	-200,000	-0,006	-0,199
-168,110	56,437	0,047	0,033
-167,096	77,801	0,037	0,029
-166,081	358,252	0,045	-0,065
-165,066	-24,445	0,053	0,023
-164,052	0,649	-0,052	-0,027
-163,037	-200,000	0,032	0,123
-162,023	-200,000	-0,002	0,038
-161,008	-10,316	-0,088	0,042
-159,993	-200,000	0,013	-0,044
-158,979	23,417	0,086	-0,052
-157,964	504,660	-0,053	0,089
-156,950	9,408	-0,070	0,039
-155,935	-115,234	0,026	-0,004
-154,920	-162,976	0,035	0,001
-153,906	-49,424	0,127	-0,044
-152,891	207,750	0,052	-0,059
-151,877	-200,000	0,002	0,055
-150,862	-200,000	0,002	0,127
-149,847	800,000	-0,034	0,074
-148,833	-200,000	0,009	0,106
-147,818	6,337	0,132	0,071
-146,804	70,361	-0,012	0,009
-145,789	-1,145	-0,138	0,071
-144,775	204,735	0,035	-0,040
-143,760	-85,995	-0,270	-0,060
-142,745	-17,940	-0,067	-0,031
-141,731	800,000	0,038	0,098
-140,716	-103,047	-0,052	0,009
-139,702	-58,276	0,045	0,014
-138,687	28,836	0,178	-0,109
-137,672	34,522	0,124	0,079
-136,658	358,416	-0,051	-0,074
-135,643	-70,689	-0,093	0,025
-134,629	42,175	0,038	0,025
-133,614	-200,000	-0,008	0,112
-132,599	-131,481	0,096	-0,009
-131,585	743,166	0,019	0,037
-130,570	171,631	-0,019	0,020
-129,556	-200,000	0,010	-0,068
-128,541	69,128	0,095	0,071
-127,526	-106,503	0,067	-0,011
-126,512	-84,234	0,212	-0,048
-125,497	759,351	0,059	-0,117
-124,483	-4,525	0,047	-0,023
-123,468	67,031	-0,024	0,018
-122,453	21,308	0,129	-0,076
-121,439	555,155	-0,031	0,055
-120,424	169,532	-0,052	0,054
-119,410	-4,803	0,108	0,054
-118,395	47,572	-0,075	-0,051
-117,380	547,272	-0,039	0,068
-116,366	800,000	-0,046	-0,105
-115,351	246,000	0,104	-0,128
-114,337	-82,634	-0,037	-0,009
-113,322	-97,813	0,010	-0,002
-112,307	-200,000	-0,035	0,127
-111,293	60,567	0,129	0,093
-110,278	88,802	0,116	0,094
-109,264	-164,422	-0,038	-0,001
-108,249	-200,000	0,024	-0,095
-107,234	-49,646	-0,135	-0,046
-106,220	-200,000	0,005	-0,024
-105,205	-133,352	-0,127	-0,012
-104,191	315,449	-0,029	-0,040
-103,176	-200,000	-0,013	0,049
-102,162	-200,000	-0,004	0,036
-101,147	-82,174	0,115	0,027
-100,132	-200,000	-0,023	-0,121
-99,118	-200,000	0,021	-0,109
-98,103	-200,000	-0,011	-0,061
-97,089	160,823	0,040	0,041
-96,074	542,399	0,112	0,194
-95,059	800,000	-0,016	0,049
-94,045	-75,236	0,065	-0,017
-93,030	129,904	0,037	0,034
-92,016	-200,000	-0,038	-0,155
-91,001	800,000	0,007	0,014
-89,986	-186,003	0,045	0,000
-88,972	-23,872	0,080	0,035
-87,957	758,831	-0,018	-0,035
-86,943	605,640	0,019	0,034
-85,928	240,159	-0,091	-0,111
-84,913	-79,215	-0,040	0,010
-83,899	-200,000	-0,011	-0,040
-82,884	-200,000	-0,012	0,095
-81,870	-200,000	-0,023	0,086
-80,855	-200,000	0,016	0,081
-79,840	-200,000	0,003	-0,033
-78,826	467,617	0,034	0,056
-77,811	364,056	-0,047	-0,069
-76,797	-89,105	0,059	-0,013
-75,782	-200,000	-0,017	-0,056
-74,767	122,036	0,105	0,095
-73,753	800,000	0,040	-0,105
-72,738	-112,027	0,079	-0,011
-71,724	800,000	0,028	0,058
-70,709	274,473	0,015	-0,019
-69,694	255,220	0,020	0,025
-68,680	-200,000	-0,010	-0,116
-67,665	800,000	0,018	0,049
-66,651	-200,000	0,003	-0,064
-65,636	-15,834	-0,096	0,044
-64,622	151,513	0,127	0,125
-63,607	-54,663	0,093	-0,030
-62,592	-126,576	0,125	0,013
-61,578	-46,673	-0,118	-0,042
-60,563	263,386	-0,082	0,103
-59,549	544,422	-0,028	0,049
-58,534	-123,082	-1,430	-0,164
-57,519	796,440	-0,703	-1,412
-56,505	-200,000	-1,008	-4,429
-55,490	-77,296	0,583	-0,146
-54,476	800,000	5,053	11,743
-53,461	-200,000	13,872	253,247
-52,446	-200,000	693,179	2240,488
-51,432	575,172	1623,687	2885,994
-50,417	117,579	1633,190	1457,205
-49,403	72,344	1287,032	971,426
-48,388	37,527	1023,380	656,931
-47,373	23,908	981,325	585,175
-46,359	23,163	970,795	576,432
-45,344	22,173	966,421	570,580
-44,330	22,128	965,161	569,666
-43,315	21,949	963,853	568,290
-42,300	21,965	962,570	567,561
-41,286	21,980	961,675	567,061
-40,271	21,957	960,771	566,431
-39,257	22,000	959,822	565,987
-38,242	21,877	959,079	565,130
-37,227	21,973	957,935	564,743
-36,213	21,973	956,927	564,126
-35,198	21,886	956,367	563,494
-34,184	21,926	955,807	563,270
-33,169	21,885	954,809	562,526
-32,154	22,029	953,858	562,409
-31,140	22,066	952,812	561,887
-30,125	22,000	952,092	561,230
-29,111	21,968	951,318	560,649
-28,096	22,037	950,553	560,397
-27,082	22,022	949,875	559,927
-26,067	22,075	949,148	559,646
-25,052	21,966	948,478	558,877
-24,038	21,927	948,041	558,474
-23,023	21,995	947,098	558,116
-22,009	22,050	946,399	557,855
-20,994	22,009	945,911	557,416
-19,979	21,969	945,337	556,926
-18,965	22,074	944,639	556,830
-17,950	21,960	944,124	556,140
-16,936	21,891	943,249	555,383
-15,921	21,904	942,579	555,006
-14,906	21,874	941,864	554,467
-13,892	21,823	941,491	554,064
-12,877	21,868	940,634	553,683
-11,863	21,797	940,245	553,206
-10,848	21,801	939,570	552,799
-9,833	21,955	939,026	552,944
-8,819	21,884	938,589	552,441
-7,804	21,840	937,893	551,871
-6,790	21,804	937,358	551,419
-5,775	21,915	936,519	551,256
-4,760	21,887	936,016	550,848
-3,746	21,880	935,133	550,285
-2,731	21,761	934,528	549,533
-1,717	21,650	933,938	548,812
-0,702	21,676	933,182	548,430
0,313	21,477	932,647	548,315
1,327	24,675	930,412	556,994
2,342	34,151	794,776	500,989
3,356	31,916	450,966	280,879
4,371	1,211	293,781	152,345
5,386	-3,420	275,030	138,223
6,400	-4,788	269,272	134,046
7,415	-5,095	267,001	132,621
8,429	-4,545	265,658	132,447
9,444	-4,850	264,966	131,811
10,459	-4,753	264,210	131,512
11,473	-4,887	263,648	131,098
12,488	-4,900	263,186	130,845
13,502	-5,116	262,610	130,351
14,517	-5,244	262,378	130,109
15,531	-4,908	261,778	130,102
16,546	-4,696	261,344	130,066
17,561	-4,951	261,023	129,666
18,575	-4,960	260,731	129,500
19,590	-5,082	260,463	129,247
20,604	-4,833	260,164	129,310
21,619	-4,983	259,790	128,978
22,634	-4,952	259,515	128,859
23,648	-5,020	259,091	128,575
24,663	-4,901	258,917	128,584
25,677	-5,001	258,731	128,391
26,692	-5,058	258,375	128,152
27,707	-4,974	258,190	128,123
28,721	-5,067	257,826	127,849
29,736	-5,087	257,694	127,754
30,750	-5,206	257,319	127,451
31,765	-5,180	257,252	127,430
32,780	-4,957	256,869	127,426
33,794	-5,007	256,669	127,272
34,809	-4,969	256,476	127,198
35,823	-5,152	256,277	126,927
36,838	-5,081	256,005	126,843
37,853	-5,062	255,809	126,751
38,867	-5,323	255,657	126,435
39,882	-5,016	255,216	126,475
40,896	-4,972	255,086	126,438
41,911	-4,907	254,696	126,291
42,926	-4,971	254,489	126,121
43,940	-5,384	254,481	125,743
44,955	-5,273	254,164	125,673
45,969	-5,088	253,921	125,703
46,984	-5,567	253,812	125,220
47,999	-5,685	253,542	124,972
49,013	-5,818	253,207	124,680
50,028	-5,812	252,934	124,540
51,042	-6,082	252,738	124,198
52,057	-5,683	252,438	124,386
53,071	-5,719	252,213	124,233
54,086	-5,685	252,103	124,197
55,101	-5,690	252,045	124,153
56,115	-5,343	251,828	124,335
57,130	-5,162	251,734	124,434
58,144	-4,888	251,560	124,574
59,159	-4,753	251,332	124,567
60,174	-4,839	251,038	124,336
61,188	-4,863	250,926	124,248
62,203	-5,027	250,674	123,971
63,217	-4,960	250,363	123,864
64,232	-5,029	250,387	123,805
65,247	-4,794	250,037	123,824
66,261	-5,182	249,957	123,440
67,276	-5,149	249,625	123,292
68,290	-5,159	249,312	123,119
69,305	-5,304	249,085	122,872
70,320	-5,351	249,069	122,813
71,334	-5,084	248,852	122,923
72,349	-4,869	248,729	123,035
73,363	-4,957	248,457	122,814
74,378	-4,965	248,257	122,697
75,393	-5,074	248,045	122,489
76,407	-5,091	247,910	122,397
77,422	-4,921	247,687	122,420
78,436	-4,859	247,447	122,343
79,451	-4,916	247,274	122,199
80,466	-5,098	246,888	121,843
81,480	-4,996	246,626	121,789
82,495	-5,314	246,724	121,557
83,509	-5,051	246,356	121,588
84,524	-5,147	246,240	121,438
85,539	-5,188	245,943	121,246
86,553	-5,298	245,829	121,087
87,568	-5,124	245,648	121,133
88,582	-5,176	245,507	121,010
89,597	-5,253	245,363	120,863
90,611	-5,117	245,088	120,831
91,626	-4,955	245,018	120,921
92,641	-5,055	244,956	120,796
93,655	-4,941	244,554	120,682
94,670	-5,022	244,305	120,481
95,684	-5,182	244,308	120,338
96,699	-4,987	243,950	120,313
97,714	-5,146	243,695	120,044
98,728	-5,183	243,641	119,977
99,743	-5,279	243,386	119,760
100,757	-5,532	243,192	119,444
101,772	-5,382	242,969	119,448
102,787	-5,193	242,947	119,584
103,801	-5,278	242,652	119,358
104,816	-5,129	242,565	119,428
105,830	-5,013	242,419	119,441
106,845	-4,896	242,212	119,425
107,860	-4,941	242,008	119,277
108,874	-5,117	241,864	119,050
109,889	-5,106	241,597	118,917
110,903	-5,053	241,464	118,885
111,918	-5,171	241,252	118,672
112,933	-5,160	241,158	118,625
113,947	-5,042	240,913	118,591
114,962	-5,007	240,792	118,550
115,976	-4,949	240,576	118,480
116,991	-5,150	240,392	118,214
118,006	-5,045	240,246	118,218
119,020	-5,186	240,342	118,139
120,035	-5,035	240,088	118,127
121,049	-4,843	239,700	118,083
122,064	-5,039	239,783	117,952
123,079	-5,169	239,367	117,631
124,093	-5,121	239,162	117,559
125,108	-5,336	239,006	117,297
126,122	-5,455	238,794	117,085
127,137	-5,652	238,669	116,853
128,151	-5,404	238,374	116,900
129,166	-5,304	238,394	116,981
130,181	-5,148	238,098	116,952
131,195	-5,253	237,794	116,707
132,210	-5,092	237,859	116,859
133,224	-5,018	237,817	116,888
134,239	-4,848	237,516	116,868
135,254	-5,105	237,582	116,681
136,268	-5,030	237,190	116,538
137,283	-5,146	236,861	116,272
138,297	-5,435	236,647	115,924
139,312	-5,505	236,416	115,745
140,327	-5,138	236,562	116,102
141,341	-4,926	236,468	116,216
142,356	-4,909	236,322	116,147
143,370	-4,725	236,172	116,212
144,385	-4,811	236,037	116,065
145,400	-4,615	235,724	116,059
146,414	-4,867	235,552	115,761
147,429	-4,834	235,456	115,731
148,443	-5,026	235,357	115,518
149,458	-4,854	235,133	115,535
150,473	-4,816	234,952	115,466
151,487	-4,934	234,896	115,334
152,502	-4,957	234,588	115,154
153,516	-4,544	234,331	115,347
154,531	-4,801	234,169	115,053
155,546	-4,939	234,049	114,873
156,560	-4,810	233,930	114,907
157,575	-4,886	233,681	114,714
158,589	-5,097	233,499	114,447
159,604	-4,647	233,407	114,749
160,619	-4,627	233,198	114,652
161,633	-4,781	233,114	114,478
162,648	-4,788	233,003	114,408
163,662	-4,594	232,952	114,527
164,677	-4,683	232,591	114,269
165,692	-4,757	232,425	114,118
166,706	-4,692	232,376	114,135
167,721	-4,516	232,137	114,147
168,735	-4,706	232,035	113,936
169,750	-4,576	231,882	113,953
170,764	-4,711	231,616	113,707
171,779	-4,617	231,590	113,758
172,794	-4,645	231,550	113,706
173,808	-4,740	231,136	113,417
174,823	-5,254	230,932	112,904
175,837	-5,225	230,641	112,774
176,852	-4,966	230,719	113,005
177,867	-4,777	230,620	113,096
178,881	-4,732	230,427	113,025
179,896	-4,662	230,299	113,008
180,910	-4,608	230,103	112,943
181,925	-4,652	229,967	112,832
182,940	-4,764	229,949	112,726
183,954	-4,505	229,724	112,808
184,969	-4,674	229,683	112,646
185,983	-4,380	229,317	112,685
186,998	-4,311	229,371	112,756
188,013	-4,288	229,124	112,642
189,027	-4,448	228,958	112,426
190,042	-4,525	228,798	112,278
191,056	-4,470	228,478	112,153
192,071	-4,574	228,553	112,099
193,086	-4,466	228,300	112,049
194,100	-4,483	228,075	111,915
195,115	-4,731	227,820	111,588
196,129	-5,191	227,543	111,088
197,144	-2,882	228,335	113,252
198,159	0,967	229,586	116,855
199,173	3,568	230,177	119,167
200,188	3,971	230,157	119,459
201,202	4,087	229,865	119,387
202,217	4,006	229,838	119,299
203,232	4,376	229,714	119,511
204,246	4,563	229,533	119,551
205,261	4,610	229,410	119,513
206,275	4,509	229,511	119,476
207,290	4,743	229,251	119,511
208,304	4,600	229,003	119,261
209,319	4,663	228,859	119,224
210,334	4,598	228,621	119,039
211,348	4,245	228,545	118,717
212,363	3,975	228,216	118,328
213,377	3,564	227,987	117,883
214,392	3,833	227,878	118,023
215,407	3,963	227,761	118,051
216,421	3,924	227,650	117,953
217,436	3,742	227,340	117,642
218,450	3,536	227,183	117,393
219,465	3,543	227,049	117,319
220,480	3,580	226,903	117,261
221,494	3,408	226,909	117,122
222,509	3,754	226,664	117,249
223,523	3,738	226,487	117,136
224,538	3,656	226,315	116,973
225,553	3,811	226,141	116,991
226,567	3,950	226,181	117,107
227,582	3,974	226,104	117,075
228,596	4,208	225,877	117,125
229,611	3,999	225,515	116,769
230,626	3,846	225,374	116,568
231,640	3,623	225,259	116,330
232,655	3,862	225,354	116,550
233,669	4,375	225,193	116,845
234,684	4,676	224,948	116,935
235,699	4,157	224,873	116,493
236,713	3,913	224,632	116,173
237,728	3,797	224,379	115,945
238,742	3,697	224,290	115,813
239,757	3,805	224,096	115,784
240,772	3,834	223,911	115,700
241,786	3,611	223,903	115,518
242,801	3,791	223,799	115,589
243,815	4,101	223,809	115,817
244,830	4,239	223,582	115,792
245,844	4,001	223,296	115,456
246,859	3,858	223,161	115,269
247,874	3,983	223,209	115,377
248,888	4,117	222,991	115,354
249,903	4,085	222,687	115,163
250,917	3,836	222,670	114,958
251,932	3,932	222,360	114,859
252,947	3,790	222,095	114,606
253,961	3,756	222,015	114,529
254,976	3,831	221,970	114,552
255,990	4,147	221,884	114,732
257,005	4,108	221,790	114,645
258,020	4,001	221,744	114,531
259,034	4,308	221,588	114,668
260,049	4,211	221,391	114,484
261,063	4,035	221,149	114,218
262,078	4,209	221,116	114,320
263,093	4,239	220,964	114,253
264,107	4,163	220,741	114,072
265,122	4,055	220,732	113,977
266,136	4,192	220,656	114,029
267,151	4,295	220,429	113,978
268,166	3,808	220,277	113,529
269,180	3,886	219,888	113,375
270,195	3,733	219,833	113,225
271,209	3,647	219,664	113,064
272,224	3,781	219,588	113,114
273,239	3,817	219,546	113,108
274,253	3,663	219,307	112,862
275,268	3,736	218,959	112,726
276,282	3,539	218,990	112,588
277,297	3,497	218,735	112,416
278,312	3,496	218,641	112,357
279,326	3,349	218,740	112,289
280,341	3,905	218,315	112,468
281,355	3,620	218,358	112,272
282,370	3,720	218,147	112,226
283,384	3,489	217,895	111,918
284,399	3,523	217,681	111,823
285,414	3,664	217,544	111,845
286,428	3,761	217,616	111,943
287,443	3,862	217,599	111,998
288,457	4,065	217,392	112,029
289,472	3,948	217,225	111,848
290,487	3,182	216,902	111,116
291,501	3,078	216,762	110,958
292,516	3,318	216,742	111,112
293,530	3,169	216,558	110,900
294,545	3,239	216,361	110,840
295,560	3,690	216,344	111,148
296,574	4,023	216,189	111,300
297,589	3,681	216,131	111,013
298,603	3,874	215,963	111,055
299,618	3,718	215,880	110,890
300,633	3,849	215,767	110,917
301,647	4,040	215,635	110,977
302,662	4,018	215,557	110,911
303,676	3,894	215,387	110,725
304,691	4,033	215,202	110,719
305,706	4,264	214,980	110,762
306,720	3,948	214,934	110,501
307,735	3,838	214,620	110,251
308,749	3,586	214,593	110,046
309,764	3,997	214,368	110,215
310,779	4,047	214,401	110,258
311,793	3,933	214,214	110,071
312,808	4,014	214,063	110,041
313,822	3,920	213,956	109,909
314,837	3,871	213,791	109,780
315,852	3,568	213,764	109,540
316,866	3,460	213,549	109,343
317,881	3,940	213,287	109,541
318,895	3,840	213,251	109,442
319,910	3,910	213,035	109,370
320,925	3,409	212,865	108,917
321,939	3,336	212,554	108,697
322,954	3,258	212,641	108,676
323,968	3,723	212,601	108,976
324,983	3,961	212,492	109,079
325,997	3,870	212,463	108,990
327,012	3,752	212,288	108,807
328,027	3,875	212,047	108,761
329,041	4,038	211,948	108,816
330,056	4,124	212,018	108,903
331,070	3,810	211,778	108,548
332,085	3,486	211,546	108,190
333,100	3,619	211,205	108,100
334,114	3,804	211,189	108,212
335,129	3,892	211,079	108,209
336,143	3,811	210,845	108,022
337,158	3,572	210,841	107,842
338,173	3,809	210,632	107,892
339,187	3,531	210,583	107,663
340,202	3,730	210,355	107,676
341,216	3,364	210,163	107,312
342,231	3,637	210,101	107,461
343,246	3,540	209,909	107,285
344,260	3,623	209,849	107,303
345,275	3,526	209,814	107,208
346,289	4,005	209,754	107,503
347,304	4,052	209,427	107,359
348,319	3,892	209,312	107,179
349,333	3,665	209,101	106,903
350,348	3,965	209,000	107,051
351,362	4,130	208,964	107,137
352,377	4,043	208,811	106,989
353,392	3,950	208,673	106,843
354,406	3,772	208,607	106,677
355,421	193,250	1344,179	1429,582
356,435	154,175	1482,623	1429,684
