DTS Sentinel unit serial number:	SN410029Multiplexer serial number:	ORYXHardware model number:	OX2-SRSoftware version number:	ORYX F/W v4,00 Oryx Data Collector v3.7.2.0data status	okinstallation	B6 Nyhavnadifferential loss correction	single-endedforward channel	channel 2reverse channel	N/Adate	2023/12/10time	12:30:08forward acquisition time	300,00reverse acquisition time	0,00gamma	499,1914k internal	0,3123k external	0,3123temperature offset calibration	1,0000default loss term (dB/km)	0,3820temperature slope calibration	1,0000multiplexer offset coefficient	1,0000multiplexer slope coefficient	1,0000fibre end	0,00T internal ref (°C)	22,79T ext. ref 1 (°C)	6,64T ext. ref 2 (°C)	6,67length (m)	temperature (°C)	Stokes	anti-Stokes-744,400	800,000	0,052	-0,123
-743,385	2,050	-0,175	0,094
-742,371	-200,000	0,028	0,109
-741,356	-6,265	-0,226	0,115
-740,342	-200,000	0,010	0,048
-739,327	-82,760	-0,175	0,042
-738,312	63,823	-0,135	-0,101
-737,298	-184,015	-0,208	-0,003
-736,283	-200,000	0,007	-0,143
-735,269	176,530	-0,189	0,205
-734,254	624,096	0,062	-0,117
-733,239	-65,772	-0,436	-0,129
-732,225	-200,000	0,140	0,000
-731,210	-109,762	-0,093	-0,014
-730,196	548,549	-0,046	0,082
-729,181	59,371	-0,089	0,065
-728,167	800,000	-0,032	0,069
-727,152	-37,809	-0,028	0,011
-726,137	800,000	-0,052	-0,150
-725,123	800,000	0,010	0,032
-724,108	-200,000	-0,002	-0,142
-723,094	-85,007	0,038	0,009
-722,079	800,000	-0,019	-0,049
-721,064	146,945	-0,045	0,045
-720,050	-148,994	-0,068	0,004
-719,035	63,500	0,073	0,054
-718,021	390,424	0,077	0,119
-717,006	-64,660	-0,093	-0,028
-715,991	-97,725	0,078	0,015
-714,977	-200,000	-0,025	-0,201
-713,962	81,518	-0,064	0,051
-712,948	-4,000	0,032	-0,016
-711,933	-51,711	0,053	-0,018
-710,918	62,983	-0,101	-0,075
-709,904	800,000	-0,086	-0,214
-708,889	33,603	0,101	-0,065
-707,875	45,559	-0,022	0,015
-706,860	-46,545	0,075	-0,027
-705,845	17,247	-0,066	0,039
-704,831	-115,490	0,018	0,003
-703,816	-32,910	-0,050	-0,021
-702,802	-200,000	-0,017	-0,074
-701,787	217,308	-0,079	-0,094
-700,772	400,289	-0,019	-0,029
-699,758	61,873	-0,005	-0,003
-698,743	-100,629	-0,066	-0,012
-697,729	612,583	0,042	0,078
-696,714	-136,122	0,144	-0,012
-695,699	469,781	-0,030	-0,051
-694,685	800,000	-0,088	-0,209
-693,670	-200,000	-0,023	-0,105
-692,656	800,000	-0,055	0,126
-691,641	93,703	-0,062	-0,052
-690,627	137,576	-0,038	0,037
-689,612	141,030	0,096	0,094
-688,597	-161,700	0,045	-0,002
-687,583	-84,292	-0,067	-0,016
-686,568	-200,000	0,006	-0,095
-685,554	242,492	0,100	-0,125
-684,539	108,575	-0,044	-0,039
-683,524	148,091	0,028	-0,028
-682,510	28,816	-0,139	-0,088
-681,495	290,061	0,061	-0,083
-680,481	-87,685	-0,047	-0,011
-679,466	-96,801	-0,066	-0,013
-678,451	146,291	-0,105	-0,105
-677,437	503,977	0,028	0,048
-676,422	-3,490	-0,137	0,071
-675,408	32,313	0,066	0,043
-674,393	-200,000	0,022	0,077
-673,378	139,687	-0,058	-0,057
-672,364	154,844	0,005	-0,005
-671,349	71,720	-0,033	-0,025
-670,335	257,969	-0,031	0,040
-669,320	-200,000	-0,021	-0,078
-668,305	-117,979	0,173	0,023
-667,291	800,000	-0,062	-0,153
-666,276	-180,797	-0,129	0,002
-665,262	-200,000	-0,007	0,114
-664,247	-114,591	-0,135	0,019
-663,232	362,859	-0,034	0,051
-662,218	-144,864	0,036	0,002
-661,203	10,559	0,119	-0,067
-660,189	458,859	0,068	0,113
-659,174	800,000	-0,043	-0,089
-658,159	-89,197	-0,159	-0,034
-657,145	-200,000	-0,024	-0,163
-656,130	23,516	0,029	0,018
-655,116	800,000	0,018	-0,051
-654,101	-142,390	0,128	0,009
-653,086	-200,000	0,011	0,131
-652,072	116,020	0,036	-0,032
-651,057	800,000	0,055	-0,121
-650,043	800,000	-0,029	-0,082
-649,028	44,205	-0,055	0,038
-648,014	-27,191	-0,115	0,050
-646,999	-200,000	0,003	0,058
-645,984	17,046	-0,048	-0,028
-644,970	142,500	-0,065	0,064
-643,955	-9,878	-0,034	-0,017
-642,941	-200,000	-0,046	-0,237
-641,926	350,064	-0,105	-0,155
-640,911	507,907	0,078	-0,134
-639,897	-200,000	-0,007	0,039
-638,882	422,191	-0,027	-0,043
-637,868	109,835	-0,044	-0,039
-636,853	-43,761	0,083	0,031
-635,838	-7,251	-0,189	-0,095
-634,824	157,380	-0,054	-0,056
-633,809	-55,144	0,066	0,022
-632,795	31,495	-0,096	0,061
-631,780	-200,000	0,017	0,097
-630,765	300,623	0,097	0,133
-629,751	-32,178	-0,093	-0,039
-628,736	-200,000	0,010	-0,049
-627,722	-200,000	0,020	-0,198
-626,707	-30,725	0,046	-0,019
-625,692	-200,000	0,016	0,216
-624,678	-4,297	-0,120	0,061
-623,663	800,000	0,030	0,076
-622,649	-200,000	-0,000	0,046
-621,634	-74,791	0,047	0,012
-620,619	108,539	-0,046	-0,041
-619,605	195,675	-0,062	0,071
-618,590	276,801	-0,094	0,125
-617,576	-173,417	0,199	-0,004
-616,561	544,375	0,031	-0,056
-615,546	156,232	-0,120	-0,123
-614,532	-55,552	-0,167	0,055
-613,517	319,886	-0,092	-0,130
-612,503	53,342	-0,115	-0,082
-611,488	381,920	0,036	-0,055
-610,474	-98,480	-0,017	0,003
-609,459	-113,162	-0,073	-0,011
-608,444	103,349	-0,064	-0,056
-607,430	-200,000	0,027	-0,105
-606,415	522,035	0,040	0,070
-605,401	-200,000	-0,007	-0,138
-604,386	-200,000	0,005	-0,063
-603,371	129,150	0,040	-0,038
-602,357	-64,371	-0,216	-0,065
-601,342	-200,000	-0,005	0,140
-600,328	-148,397	-0,085	0,005
-599,313	56,289	-0,138	-0,099
-598,298	-139,629	0,126	0,010
-597,284	800,000	0,015	0,048
-596,269	97,461	0,052	-0,044
-595,255	539,028	-0,025	0,045
-594,240	-200,000	-0,032	-0,106
-593,225	-200,000	-0,013	-0,117
-592,211	-133,849	0,146	-0,013
-591,196	-105,256	0,063	0,011
-590,182	149,186	0,060	0,060
-589,167	-58,924	-0,066	-0,021
-588,152	-19,948	0,107	0,049
-587,138	183,634	-0,036	0,039
-586,123	-176,535	-0,121	0,002
-585,109	-2,685	-0,090	0,046
-584,094	-175,916	0,190	0,004
-583,079	523,829	-0,042	0,073
-582,065	450,207	-0,034	0,056
-581,050	129,577	-0,062	-0,058
-580,036	-200,000	0,026	-0,091
-579,021	-200,000	0,026	-0,178
-578,006	-74,922	0,068	-0,018
-576,992	800,000	-0,010	0,022
-575,977	-27,777	-0,114	0,049
-574,963	800,000	-0,060	-0,176
-573,948	800,000	0,028	0,079
-572,934	-138,965	0,065	-0,005
-571,919	35,049	-0,064	-0,042
-570,904	-200,000	-0,009	-0,035
-569,890	-200,000	0,003	0,043
-568,875	-64,220	0,136	-0,041
-567,861	-27,606	0,137	0,059
-566,846	92,785	0,091	0,076
-565,831	800,000	0,080	0,179
-564,817	-200,000	0,007	0,184
-563,802	-110,083	-0,126	-0,019
-562,788	180,167	-0,043	-0,047
-561,773	170,981	0,083	-0,089
-560,758	125,035	0,056	0,052
-559,744	75,881	-0,088	-0,068
-558,729	-110,728	0,046	0,007
-557,715	-58,566	-0,159	-0,051
-556,700	162,074	-0,071	0,074
-555,685	37,762	-0,136	0,089
-554,671	-106,019	0,038	-0,006
-553,656	275,954	-0,042	0,056
-552,642	-200,000	0,000	0,144
-551,627	356,366	0,047	-0,070
-550,612	218,156	0,098	-0,116
-549,598	-200,000	-0,009	0,071
-548,583	-76,857	-0,031	0,008
-547,569	237,975	0,054	-0,066
-546,554	-200,000	-0,026	-0,126
-545,539	40,653	-0,054	-0,036
-544,525	800,000	0,026	-0,067
-543,510	-200,000	-0,009	-0,069
-542,496	-42,450	-0,081	-0,030
-541,481	-200,000	0,012	-0,055
-540,466	5,421	0,063	-0,034
-539,452	-200,000	-0,018	0,112
-538,437	222,023	0,094	0,112
-537,423	48,100	-0,028	-0,019
-536,408	800,000	-0,037	-0,102
-535,393	800,000	-0,073	-0,210
-534,379	23,533	-0,069	-0,042
-533,364	-200,000	0,057	-0,282
-532,350	306,952	0,049	-0,068
-531,335	-140,254	0,065	0,005
-530,321	142,984	-0,061	-0,060
-529,306	-46,230	-0,064	0,023
-528,291	800,000	-0,039	0,081
-527,277	9,660	-0,131	-0,073
-526,262	-181,408	-0,150	0,002
-525,248	-200,000	-0,014	-0,045
-524,233	-116,915	-0,034	0,005
-523,218	800,000	0,087	0,188
-522,204	-46,674	-0,055	0,020
-521,189	103,333	-0,018	-0,015
-520,175	-200,000	-0,003	-0,102
-519,160	-84,489	0,119	-0,028
-518,145	121,113	-0,101	-0,093
-517,131	46,527	-0,093	-0,064
-516,116	800,000	0,016	0,041
-515,102	100,766	0,132	0,113
-514,087	-84,646	-0,116	0,027
-513,072	222,288	-0,101	-0,121
-512,058	800,000	-0,040	-0,087
-511,043	-119,635	0,037	0,005
-510,029	-200,000	-0,025	-0,091
-509,014	800,000	0,066	0,139
-507,999	800,000	0,021	0,067
-506,985	-200,000	-0,011	0,147
-505,970	-104,653	-0,055	-0,009
-504,956	512,123	-0,037	-0,063
-503,941	368,166	-0,082	-0,123
-502,926	86,867	-0,034	0,028
-501,912	-200,000	0,002	-0,034
-500,897	-142,895	0,095	0,007
-499,883	-16,474	0,074	-0,035
-498,868	-200,000	0,002	-0,049
-497,853	-69,268	-0,057	-0,016
-496,839	-7,511	-0,070	-0,035
-495,824	800,000	-0,056	-0,175
-494,810	39,989	-0,028	-0,019
-493,795	289,751	0,051	0,069
-492,781	202,035	0,037	-0,042
-491,766	-123,218	-0,132	0,015
-490,751	248,197	-0,040	-0,050
-489,737	31,342	-0,101	0,064
-488,722	800,000	0,054	-0,115
-487,708	-62,888	0,048	-0,015
-486,693	-200,000	0,027	0,119
-485,678	-9,440	0,132	-0,065
-484,664	-200,000	-0,024	-0,099
-483,649	-200,000	-0,003	0,036
-482,635	-78,568	-0,204	0,051
-481,620	327,852	0,054	0,077
-480,605	-16,886	0,170	0,079
-479,591	342,332	-0,054	0,077
-478,576	-200,000	0,003	0,119
-477,562	315,544	0,019	-0,026
-476,547	146,858	-0,055	-0,055
-475,532	-200,000	0,022	-0,194
-474,518	800,000	0,031	0,100
-473,503	600,954	0,016	-0,030
-472,489	81,077	0,074	0,059
-471,474	679,573	0,011	0,020
-470,459	31,853	0,016	0,010
-469,445	-200,000	0,002	0,100
-468,430	-92,602	0,096	0,020
-467,416	800,000	0,030	0,062
-466,401	0,078	-0,081	0,043
-465,386	116,465	-0,078	0,070
-464,372	536,945	0,077	-0,135
-463,357	800,000	-0,016	0,048
-462,343	402,519	-0,053	0,082
-461,328	800,000	-0,017	0,053
-460,313	-65,349	-0,089	-0,026
-459,299	-6,904	0,148	0,074
-458,284	138,922	-0,144	-0,139
-457,270	68,256	0,085	0,064
-456,255	94,378	-0,097	0,081
-455,241	419,811	0,041	0,066
-454,226	-125,018	-0,083	-0,009
-453,211	70,779	-0,102	-0,078
-452,197	-200,000	0,004	-0,026
-451,182	-23,928	0,100	0,044
-450,168	-200,000	-0,019	0,167
-449,153	113,062	0,095	0,085
-448,138	96,201	0,037	-0,031
-447,124	100,171	0,039	-0,034
-446,109	-200,000	0,000	-0,087
-445,095	257,522	0,046	0,058
-444,080	-200,000	0,009	0,047
-443,065	117,916	0,067	-0,060
-442,051	531,735	-0,084	-0,146
-441,036	-200,000	-0,016	-0,131
-440,022	-21,666	-0,093	-0,042
-439,007	10,027	-0,088	0,049
-437,992	-109,194	0,049	0,008
-436,978	-41,291	0,146	-0,055
-435,963	800,000	-0,058	-0,122
-434,949	757,560	0,023	-0,046
-433,934	15,716	-0,052	-0,030
-432,919	800,000	0,029	-0,072
-431,905	-200,000	0,014	-0,095
-430,890	305,380	-0,100	-0,137
-429,876	-21,901	0,206	0,092
-428,861	380,244	0,027	0,041
-427,846	800,000	-0,030	-0,064
-426,832	-89,014	-0,031	0,007
-425,817	-200,000	0,016	-0,143
-424,803	373,684	-0,081	-0,121
-423,788	-177,700	0,068	0,001
-422,773	-200,000	-0,005	0,030
-421,759	168,708	-0,084	0,088
-420,744	-93,708	-0,143	0,029
-419,730	800,000	-0,032	-0,077
-418,715	-200,000	-0,003	0,055
-417,701	47,695	0,067	0,046
-416,686	-17,378	-0,029	-0,014
-415,671	49,682	-0,163	0,113
-414,657	365,999	-0,031	0,046
-413,642	800,000	-0,058	-0,167
-412,628	209,687	-0,075	-0,086
-411,613	15,437	-0,114	-0,065
-410,598	-63,683	0,082	0,025
-409,584	-200,000	0,000	0,049
-408,569	-200,000	-0,011	-0,060
-407,555	66,924	0,033	-0,025
-406,540	-200,000	0,033	-0,121
-405,525	-200,000	-0,006	-0,074
-404,511	32,501	-0,149	0,094
-403,496	366,321	-0,071	-0,105
-402,482	-200,000	-0,006	-0,057
-401,467	-74,892	-0,042	-0,011
-400,452	51,362	0,139	0,097
-399,438	-159,790	0,076	0,003
-398,423	800,000	0,048	-0,124
-397,409	-200,000	0,020	0,096
-396,394	-72,995	0,116	0,031
-395,379	-182,085	0,136	-0,002
-394,365	157,518	-0,023	0,023
-393,350	-200,000	0,001	0,026
-392,336	724,568	0,052	0,101
-391,321	-200,000	0,009	-0,148
-390,306	-200,000	-0,002	0,154
-389,292	-200,000	-0,016	0,070
-388,277	68,815	-0,084	-0,063
-387,263	-101,957	0,082	-0,014
-386,248	-200,000	0,013	0,134
-385,233	-76,024	0,123	-0,032
-384,219	-176,010	0,043	0,001
-383,204	32,726	0,023	0,014
-382,190	800,000	0,015	-0,033
-381,175	-116,829	-0,082	0,011
-380,160	-33,835	0,096	0,039
-379,146	-200,000	0,062	0,000
-378,131	8,803	-0,023	0,013
-377,117	-46,878	0,081	0,029
-376,102	-200,000	0,000	0,004
-375,088	-51,195	-0,032	0,011
-374,073	-200,000	-0,025	-0,081
-373,058	-12,114	0,070	-0,034
-372,044	-55,150	0,023	-0,008
-371,029	-200,000	-0,005	0,025
-370,015	-200,000	0,005	0,020
-369,000	-121,651	-0,137	0,017
-367,985	143,948	-0,022	0,022
-366,971	-200,000	0,005	0,094
-365,956	108,542	0,052	0,045
-364,942	-200,000	0,038	0,178
-363,927	-97,942	0,152	0,029
-362,912	23,596	-0,091	0,055
-361,898	-147,274	0,071	-0,004
-360,883	-200,000	-0,004	0,101
-359,869	54,859	0,052	-0,037
-358,854	52,900	-0,016	-0,011
-357,839	-200,000	-0,037	0,160
-356,825	-200,000	0,002	-0,098
-355,810	-200,000	0,023	0,170
-354,796	263,387	0,043	0,055
-353,781	-200,000	0,009	0,052
-352,766	800,000	0,060	0,132
-351,752	51,479	0,111	0,077
-350,737	61,096	-0,030	-0,022
-349,723	-25,046	-0,103	0,044
-348,708	114,278	0,073	-0,065
-347,693	200,650	-0,026	0,029
-346,679	-7,965	-0,095	-0,047
-345,664	-154,353	-0,028	-0,001
-344,650	800,000	0,042	-0,127
-343,635	-67,133	0,115	0,033
-342,620	-31,850	0,167	0,068
-341,606	71,815	-0,023	0,017
-340,591	800,000	-0,037	0,108
-339,577	-122,627	-0,083	0,010
-338,562	324,951	-0,010	0,015
-337,548	-58,016	0,041	-0,013
-336,533	127,215	0,069	0,064
-335,518	-200,000	-0,041	0,236
-334,504	-106,343	0,203	0,033
-333,489	800,000	-0,025	0,056
-332,475	216,147	0,022	0,025
-331,460	213,808	-0,104	0,121
-330,445	52,612	0,138	-0,096
-329,431	800,000	0,015	-0,032
-328,416	-200,000	0,012	0,106
-327,402	-48,346	-0,068	-0,024
-326,387	491,446	-0,080	0,134
-325,372	363,866	-0,065	-0,096
-324,358	-121,974	-0,022	-0,003
-323,343	747,575	-0,015	-0,029
-322,329	-200,000	-0,007	0,047
-321,314	55,927	-0,025	-0,018
-320,299	-200,000	0,008	0,051
-319,285	-200,000	0,001	-0,029
-318,270	-27,519	-0,072	-0,030
-317,256	-112,057	0,034	0,005
-316,241	800,000	0,027	-0,059
-315,226	-51,684	0,044	-0,015
-314,212	171,894	0,053	0,056
-313,197	-200,000	0,007	-0,033
-312,183	202,006	0,034	-0,038
-311,168	-139,364	-0,047	-0,004
-310,153	800,000	0,011	0,030
-309,139	800,000	-0,033	-0,100
-308,124	43,366	0,043	-0,029
-307,110	-25,152	0,187	0,081
-306,095	433,645	-0,040	0,063
-305,080	-95,258	0,050	0,010
-304,066	-26,112	0,065	-0,028
-303,051	-106,668	-0,132	0,021
-302,037	800,000	0,034	-0,087
-301,022	-200,000	0,022	0,148
-300,008	-200,000	-0,005	0,030
-298,993	181,634	0,015	0,017
-297,978	-32,619	-0,082	0,033
-296,964	800,000	0,060	0,130
-295,949	800,000	-0,017	-0,054
-294,935	-200,000	0,022	-0,167
-293,920	-65,432	0,042	-0,012
-292,905	-15,526	-0,109	-0,051
-291,891	-200,000	0,004	0,081
-290,876	-200,000	-0,008	0,065
-289,862	-200,000	0,030	0,116
-288,847	-200,000	0,025	-0,118
-287,832	184,486	-0,190	-0,207
-286,818	800,000	-0,050	-0,106
-285,803	63,308	0,077	0,056
-284,789	86,383	0,168	0,136
-283,774	-200,000	0,005	0,086
-282,759	-200,000	-0,016	0,058
-281,745	-101,990	-0,107	-0,019
-280,730	70,941	-0,072	-0,055
-279,716	-97,389	-0,104	-0,020
-278,701	-84,090	0,087	0,020
-277,686	377,249	-0,068	-0,102
-276,672	409,274	0,057	-0,088
-275,657	551,511	-0,038	0,067
-274,643	369,572	0,023	0,034
-273,628	469,748	-0,026	-0,042
-272,613	-200,000	0,013	0,109
-271,599	157,291	-0,042	-0,042
-270,584	-11,796	0,109	-0,052
-269,570	-25,437	-0,041	0,018
-268,555	800,000	0,025	0,069
-267,540	-42,452	-0,082	-0,030
-266,526	-200,000	0,043	-0,153
-265,511	8,933	0,061	0,033
-264,497	-143,697	0,012	-0,001
-263,482	800,000	0,063	0,139
-262,467	800,000	0,047	-0,130
-261,453	-200,000	0,020	-0,108
-260,438	82,398	-0,054	-0,043
-259,424	-184,878	0,039	-0,000
-258,409	306,005	0,068	-0,093
-257,395	49,373	-0,166	0,114
-256,380	-200,000	-0,012	-0,054
-255,365	-200,000	0,025	0,087
-254,351	-139,281	0,072	0,006
-253,336	-200,000	-0,001	-0,022
-252,322	-58,245	0,014	0,004
-251,307	800,000	-0,015	-0,048
-250,292	395,618	0,034	0,052
-249,278	-127,180	0,143	-0,015
-248,263	31,939	-0,072	0,046
-247,249	-107,709	0,185	-0,029
-246,234	-200,000	0,029	0,246
-245,219	-37,626	-0,034	0,013
-244,205	-133,919	-0,127	-0,011
-243,190	-90,890	0,161	0,034
-242,176	-140,998	0,106	-0,008
-241,161	193,837	0,054	0,060
-240,146	129,281	-0,052	0,049
-239,132	800,000	-0,009	0,021
-238,117	-118,342	-0,077	0,010
-237,103	417,421	0,098	-0,153
-236,088	800,000	0,034	0,087
-235,073	286,988	0,040	-0,053
-234,059	143,061	0,065	0,064
-233,044	-198,746	0,135	0,001
-232,030	-19,339	-0,093	-0,042
-231,015	800,000	0,013	-0,028
-230,000	28,824	0,047	-0,029
-228,986	-200,000	0,014	-0,057
-227,971	11,921	0,093	0,052
-226,957	-200,000	0,016	0,071
-225,942	800,000	0,036	0,076
-224,927	-200,000	-0,005	-0,074
-223,913	-200,000	-0,001	-0,015
-222,898	28,157	0,065	0,040
-221,884	-70,633	-0,077	-0,021
-220,869	207,502	0,032	0,036
-219,855	343,219	0,043	0,061
-218,840	-136,828	-0,085	0,007
-217,825	-130,851	0,049	-0,005
-216,811	-89,147	-0,202	-0,043
-215,796	11,098	0,047	-0,026
-214,782	800,000	0,024	0,058
-213,767	800,000	0,040	0,086
-212,752	86,236	0,066	0,053
-211,738	-200,000	-0,025	0,132
-210,723	36,616	-0,049	-0,032
-209,709	481,989	-0,064	-0,107
-208,694	281,655	0,048	-0,063
-207,679	758,771	0,042	0,083
-206,665	-103,270	-0,143	0,024
-205,650	800,000	-0,043	0,104
-204,636	-23,570	-0,032	-0,014
-203,621	168,272	0,057	0,060
-202,606	-200,000	-0,010	0,047
-201,592	-200,000	0,015	-0,154
-200,577	-200,000	-0,000	-0,047
-199,563	265,265	-0,069	-0,088
-198,548	-86,499	-0,081	0,018
-197,533	-200,000	-0,004	0,049
-196,519	453,017	0,028	-0,045
-195,504	-98,521	0,070	0,013
-194,490	165,563	0,073	-0,075
-193,475	22,333	-0,062	-0,037
-192,460	111,381	-0,059	0,052
-191,446	-39,255	-0,120	0,046
-190,431	254,979	0,048	-0,061
-189,417	50,828	0,030	-0,021
-188,402	-200,000	0,009	0,108
-187,387	800,000	-0,029	-0,068
-186,373	100,242	0,083	-0,071
-185,358	-200,000	-0,014	0,096
-184,344	-200,000	0,056	0,226
-183,329	523,060	0,060	-0,102
-182,315	800,000	0,037	0,082
-181,300	800,000	-0,035	0,076
-180,285	72,692	-0,043	-0,033
-179,271	-58,475	0,103	-0,032
-178,256	-187,917	0,071	-0,001
-177,242	-200,000	-0,002	0,009
-176,227	243,518	-0,025	0,031
-175,212	312,471	0,032	0,043
-174,198	-151,185	0,121	-0,006
-173,183	800,000	0,019	-0,039
-172,169	-200,000	0,021	-0,074
-171,154	-3,931	0,053	0,027
-170,139	6,958	0,062	-0,034
-169,125	61,229	-0,049	-0,035
-168,110	153,151	0,056	0,056
-167,096	-160,526	0,018	-0,001
-166,081	-62,713	0,036	-0,011
-165,066	-200,000	-0,014	-0,091
-164,052	800,000	-0,024	-0,076
-163,037	598,379	-0,050	-0,091
-162,023	543,694	-0,057	0,100
-161,008	-54,979	0,039	0,013
-159,993	213,042	0,101	0,117
-158,979	130,798	0,053	-0,049
-157,964	-43,930	-0,107	-0,039
-156,950	694,125	0,027	0,052
-155,935	-200,000	0,016	-0,055
-154,920	-200,000	-0,020	0,096
-153,906	-200,000	0,002	0,081
-152,891	14,553	0,043	-0,024
-151,877	-164,267	-0,036	0,001
-150,862	800,000	-0,028	-0,083
-149,847	800,000	-0,062	-0,127
-148,833	322,380	0,033	-0,046
-147,818	42,159	-0,017	0,012
-146,804	-59,193	0,195	0,061
-145,789	96,900	-0,063	0,053
-144,775	800,000	-0,061	0,155
-143,760	44,841	-0,090	0,060
-142,745	491,281	0,039	0,065
-141,731	501,545	0,037	0,062
-140,716	106,488	0,039	0,034
-139,702	718,361	-0,059	0,114
-138,687	-108,888	0,063	-0,010
-137,672	-58,280	0,016	0,005
-136,658	633,664	-0,083	-0,153
-135,643	-200,000	0,006	0,029
-134,629	-51,799	0,087	-0,029
-133,614	-19,936	-0,049	-0,022
-132,599	-200,000	-0,020	-0,097
-131,585	-32,261	0,072	-0,029
-130,570	457,288	0,010	-0,016
-129,556	554,578	0,053	-0,093
-128,541	-200,000	-0,011	-0,092
-127,526	121,341	0,052	-0,047
-126,512	-55,690	0,093	-0,030
-125,497	707,500	-0,042	-0,081
-124,483	-200,000	-0,004	0,033
-123,468	64,702	-0,018	0,013
-122,453	800,000	0,012	-0,034
-121,439	56,277	-0,153	-0,108
-120,424	800,000	0,049	0,117
-119,410	-95,231	-0,028	-0,006
-118,395	-142,249	-0,058	-0,004
-117,380	-148,196	0,088	-0,005
-116,366	-200,000	-0,036	-0,188
-115,351	-113,883	0,073	0,010
-114,337	-200,000	-0,000	-0,134
-113,322	-200,000	0,008	0,040
-112,307	-200,000	0,045	0,155
-111,293	800,000	0,072	0,147
-110,278	56,799	-0,063	-0,044
-109,264	800,000	-0,036	-0,101
-108,249	134,450	0,087	0,082
-107,234	-128,524	0,053	-0,005
-106,220	-171,609	-0,085	0,002
-105,205	477,447	0,084	-0,139
-104,191	-8,482	0,047	-0,023
-103,176	-126,092	0,012	-0,001
-102,162	-9,274	-0,107	0,052
-101,147	-200,000	0,034	-0,118
-100,132	250,667	-0,037	-0,045
-99,118	-200,000	0,007	-0,048
-98,103	-85,845	0,083	0,019
-97,089	-200,000	-0,010	-0,056
-96,074	800,000	-0,078	0,165
-95,059	88,237	-0,037	0,030
-94,045	17,922	-0,039	0,023
-93,030	-29,132	-0,093	0,038
-92,016	-200,000	0,005	0,091
-91,001	68,184	-0,061	0,045
-89,986	212,456	0,029	-0,034
-88,972	-189,651	0,121	-0,001
-87,957	-200,000	0,010	0,216
-86,943	-67,279	0,048	0,013
-85,928	-157,730	0,087	-0,004
-84,913	800,000	-0,040	-0,111
-83,899	-92,482	-0,111	-0,022
-82,884	113,421	0,102	-0,090
-81,870	353,969	0,136	0,197
-80,855	-65,592	0,030	-0,009
-79,840	-200,000	-0,005	0,036
-78,826	189,083	-0,081	-0,089
-77,811	-30,695	-0,171	0,070
-76,797	-200,000	-0,004	0,061
-75,782	-122,829	0,041	-0,005
-74,767	800,000	0,046	0,109
-73,753	200,370	0,072	0,081
-72,738	679,975	0,041	0,078
-71,724	-200,000	0,000	-0,075
-70,709	-200,000	-0,019	0,068
-69,694	424,617	-0,018	0,028
-68,680	-200,000	-0,156	0,000
-67,665	124,784	-0,063	0,058
-66,651	303,430	0,042	-0,057
-65,636	23,621	0,050	-0,030
-64,622	-62,740	-0,103	0,031
-63,607	800,000	0,022	-0,060
-62,592	-85,461	-0,057	-0,013
-61,578	-126,096	0,127	0,014
-60,563	-200,000	0,005	0,100
-59,549	800,000	-0,065	0,141
-58,534	-148,976	-1,374	0,079
-57,519	431,387	-0,874	-1,379
-56,505	-200,000	-0,971	-4,324
-55,490	92,870	0,576	-0,472
-54,476	800,000	4,933	11,925
-53,461	-200,000	13,243	253,235
-52,446	-200,000	688,802	2274,770
-51,432	599,273	1623,632	2935,107
-50,417	121,265	1637,490	1479,554
-49,403	73,389	1291,623	979,789
-48,388	38,553	1026,202	662,667
-47,373	24,698	983,390	589,409
-46,359	23,994	972,971	580,831
-45,344	23,042	968,980	575,310
-44,330	22,921	967,649	574,102
-43,315	22,843	966,134	572,924
-42,300	22,798	965,222	572,216
-41,286	22,814	964,290	571,691
-40,271	22,790	963,158	570,921
-39,257	22,771	962,429	570,402
-38,242	22,821	961,296	569,870
-37,227	22,822	960,569	569,421
-36,213	22,742	959,719	568,636
-35,198	22,702	959,034	568,076
-34,184	22,799	958,323	567,949
-33,169	22,821	957,170	567,313
-32,154	22,813	956,363	566,788
-31,140	22,843	955,432	566,309
-30,125	22,802	954,723	565,735
-29,111	22,851	953,879	565,370
-28,096	22,857	953,116	564,913
-27,082	22,824	952,564	564,459
-26,067	22,817	951,773	563,945
-25,052	22,843	950,964	563,527
-24,038	22,799	950,415	563,038
-23,023	22,911	949,574	562,875
-22,009	22,866	949,081	562,419
-20,994	22,857	948,397	561,960
-19,979	22,866	947,866	561,653
-18,965	22,817	947,248	561,108
-17,950	22,820	946,790	560,824
-16,936	22,783	945,896	560,153
-15,921	22,835	945,082	559,816
-14,906	22,687	944,552	559,006
-13,892	22,725	943,871	558,703
-12,877	22,703	943,233	558,232
-11,863	22,655	942,510	557,631
-10,848	22,695	942,036	557,454
-9,833	22,856	941,377	557,555
-8,819	22,772	941,045	557,069
-7,804	22,710	940,330	556,426
-6,790	22,757	939,825	556,255
-5,775	22,799	939,075	555,921
-4,760	22,699	938,607	555,307
-3,746	22,682	937,894	554,809
-2,731	22,590	937,204	554,086
-1,717	22,513	936,502	553,407
-0,702	22,440	935,864	552,776
0,313	22,363	935,197	552,977
1,327	25,574	933,089	561,788
2,342	35,434	797,877	506,683
3,356	33,712	451,922	284,370
4,371	2,148	293,213	153,096
5,386	-2,074	273,850	138,991
6,400	-3,569	267,994	134,625
7,415	-4,326	265,608	132,720
8,429	-3,874	264,302	132,468
9,444	-3,845	263,452	132,057
10,459	-4,091	262,875	131,532
11,473	-4,129	262,247	131,172
12,488	-4,092	261,739	130,940
13,502	-4,133	261,103	130,573
14,517	-4,269	260,785	130,280
15,531	-4,198	260,425	130,153
16,546	-4,181	260,143	130,015
17,561	-4,063	259,554	129,815
18,575	-3,982	259,343	129,770
19,590	-4,041	259,046	129,557
20,604	-3,890	258,673	129,494
21,619	-4,092	258,408	129,170
22,634	-4,241	258,174	128,909
23,648	-4,144	257,865	128,829
24,663	-4,128	257,588	128,694
25,677	-4,069	257,290	128,585
26,692	-4,230	257,145	128,359
27,707	-4,164	256,618	128,143
28,721	-4,229	256,517	128,023
29,736	-4,286	256,259	127,833
30,750	-4,303	255,941	127,648
31,765	-4,151	255,850	127,725
32,780	-4,301	255,499	127,406
33,794	-4,294	255,293	127,299
34,809	-4,396	255,113	127,108
35,823	-4,225	254,875	127,128
36,838	-4,124	254,539	127,038
37,853	-4,362	254,320	126,709
38,867	-4,292	254,204	126,701
39,882	-4,334	253,922	126,512
40,896	-4,310	253,761	126,441
41,911	-4,168	253,377	126,363
42,926	-4,351	253,367	126,187
43,940	-4,310	252,962	126,010
44,955	-4,554	252,833	125,722
45,969	-4,345	252,431	125,692
46,984	-4,588	252,275	125,393
47,999	-4,787	252,070	125,107
49,013	-4,908	251,719	124,817
50,028	-5,112	251,580	124,561
51,042	-5,083	251,270	124,421
52,057	-5,288	251,108	124,153
53,071	-5,131	250,924	124,186
54,086	-4,911	250,741	124,274
55,101	-4,880	250,592	124,216
56,115	-4,617	250,360	124,316
57,130	-4,358	250,361	124,528
58,144	-4,010	250,180	124,727
59,159	-4,073	249,964	124,554
60,174	-4,014	249,753	124,488
61,188	-4,141	249,537	124,261
62,203	-3,962	249,290	124,279
63,217	-4,160	249,141	124,024
64,232	-4,130	248,811	123,875
65,247	-4,124	248,731	123,829
66,261	-4,189	248,533	123,664
67,276	-4,514	248,234	123,228
68,290	-4,465	247,914	123,099
69,305	-4,550	247,735	122,927
70,320	-4,871	247,668	122,610
71,334	-4,505	247,460	122,807
72,349	-4,112	247,225	123,013
73,363	-4,055	247,127	123,002
74,378	-4,042	246,903	122,890
75,393	-4,281	246,681	122,566
76,407	-4,162	246,475	122,554
77,422	-4,184	246,221	122,398
78,436	-4,103	246,237	122,463
79,451	-4,051	246,006	122,382
80,466	-4,161	245,599	122,075
81,480	-4,344	245,428	121,825
82,495	-4,389	245,253	121,689
83,509	-4,449	245,112	121,558
84,524	-4,271	244,831	121,557
85,539	-4,560	244,641	121,210
86,553	-4,538	244,414	121,106
87,568	-4,520	244,361	121,083
88,582	-4,506	244,216	121,012
89,597	-4,569	243,911	120,798
90,611	-4,394	243,763	120,860
91,626	-4,282	243,717	120,920
92,641	-4,329	243,563	120,794
93,655	-4,404	243,288	120,584
94,670	-4,367	243,017	120,469
95,684	-4,362	242,931	120,420
96,699	-4,328	242,790	120,368
97,714	-4,320	242,380	120,160
98,728	-4,397	242,266	120,029
99,743	-4,628	242,080	119,735
100,757	-4,483	241,820	119,716
101,772	-4,484	241,606	119,598
102,787	-4,356	241,603	119,692
103,801	-4,568	241,460	119,436
104,816	-4,355	241,192	119,468
105,830	-4,051	241,050	119,638
106,845	-4,190	240,901	119,439
107,860	-4,507	240,919	119,176
108,874	-4,525	240,670	119,027
109,889	-4,209	240,180	119,034
110,903	-3,994	240,112	119,166
111,918	-4,366	239,983	118,786
112,933	-4,440	239,864	118,656
113,947	-4,253	239,642	118,689
114,962	-4,350	239,524	118,540
115,976	-4,299	239,381	118,500
116,991	-4,232	239,143	118,427
118,006	-4,323	239,074	118,307
119,020	-4,317	238,914	118,223
120,035	-4,298	238,889	118,216
121,049	-4,142	238,532	118,155
122,064	-4,257	238,560	118,065
123,079	-4,203	238,188	117,915
124,093	-4,310	238,016	117,732
125,108	-4,481	237,704	117,428
126,122	-4,583	237,399	117,185
127,137	-4,954	237,439	116,893
128,151	-4,770	237,270	116,948
129,166	-4,551	237,204	117,083
130,181	-4,607	236,939	116,896
131,195	-4,566	236,528	116,716
132,210	-4,402	236,623	116,885
133,224	-4,209	236,422	116,931
134,239	-4,191	236,324	116,887
135,254	-4,307	236,136	116,690
136,268	-4,356	235,772	116,460
137,283	-4,522	235,474	116,169
138,297	-4,640	235,310	115,983
139,312	-4,797	235,228	115,806
140,327	-4,502	235,222	116,030
141,341	-4,173	235,170	116,258
142,356	-3,903	234,992	116,376
143,370	-3,877	234,874	116,328
144,385	-3,914	234,755	116,229
145,400	-3,930	234,449	116,054
146,414	-3,770	234,313	116,105
147,429	-3,957	234,312	115,944
148,443	-3,896	233,992	115,824
149,458	-3,876	233,748	115,709
150,473	-4,031	233,707	115,554
151,487	-3,911	233,414	115,495
152,502	-4,117	233,404	115,316
153,516	-3,924	233,197	115,356
154,531	-3,981	232,994	115,200
155,546	-3,991	232,784	115,079
156,560	-4,038	232,647	114,964
157,575	-4,262	232,376	114,642
158,589	-4,095	232,252	114,703
159,604	-3,857	232,146	114,828
160,619	-3,774	232,012	114,818
161,633	-3,780	231,754	114,675
162,648	-3,774	231,717	114,651
163,662	-3,908	231,558	114,456
164,677	-4,055	231,356	114,231
165,692	-4,011	231,378	114,266
166,706	-4,034	231,086	114,093
167,721	-3,742	230,890	114,216
168,735	-3,888	230,818	114,055
169,750	-3,816	230,756	114,071
170,764	-4,112	230,661	113,782
171,779	-3,889	230,354	113,795
172,794	-3,796	230,235	113,799
173,808	-4,032	230,004	113,490
174,823	-4,339	229,481	112,982
175,837	-4,696	229,566	112,735
176,852	-4,253	229,496	113,036
177,867	-3,779	229,472	113,384
178,881	-4,115	229,345	113,050
179,896	-3,863	229,168	113,148
180,910	-3,892	228,981	113,023
181,925	-3,845	228,901	113,011
182,940	-3,748	228,784	113,018
183,954	-3,633	228,522	112,968
184,969	-3,862	228,438	112,738
185,983	-3,713	228,175	112,714
186,998	-3,753	228,063	112,618
188,013	-3,491	227,829	112,695
189,027	-3,775	227,831	112,466
190,042	-3,716	227,588	112,382
191,056	-3,754	227,407	112,253
192,071	-3,758	227,299	112,187
193,086	-3,618	227,049	112,161
194,100	-3,542	226,937	112,154
195,115	-4,048	226,669	111,622
196,129	-4,620	226,400	111,040
197,144	-1,423	227,329	113,951
198,159	2,328	228,462	117,410
199,173	4,191	228,729	118,976
200,188	4,043	228,717	118,845
201,202	4,046	228,649	118,801
202,217	4,330	228,382	118,870
203,232	4,733	228,335	119,146
204,246	4,632	228,261	119,019
205,261	4,815	228,033	119,030
206,275	5,071	227,951	119,173
207,290	4,842	227,914	118,968
208,304	4,851	227,706	118,855
209,319	4,826	227,446	118,690
210,334	4,977	227,225	118,680
211,348	4,705	227,131	118,412
212,363	4,208	226,862	117,881
213,377	3,928	226,706	117,576
214,392	3,815	226,553	117,399
215,407	4,000	226,476	117,490
216,421	4,270	226,277	117,583
217,436	4,005	226,115	117,285
218,450	3,972	225,867	117,121
219,465	3,783	225,637	116,849
220,480	3,983	225,687	117,016
221,494	3,821	225,457	116,763
222,509	4,082	225,217	116,826
223,523	3,869	225,128	116,608
224,538	3,990	225,047	116,647
225,553	3,960	224,873	116,523
226,567	4,223	224,751	116,649
227,582	4,390	224,725	116,752
228,596	4,401	224,693	116,733
229,611	4,084	224,382	116,321
230,626	4,119	224,017	116,148
231,640	3,867	223,928	115,902
232,655	4,248	223,901	116,165
233,669	4,481	223,927	116,343
234,684	4,494	223,693	116,222
235,699	4,327	223,544	116,008
236,713	4,193	223,403	115,824
237,728	4,111	223,144	115,617
238,742	3,937	223,022	115,414
239,757	4,157	222,672	115,387
240,772	4,127	222,550	115,291
241,786	3,845	222,546	115,068
242,801	4,062	222,458	115,175
243,815	4,296	222,400	115,309
244,830	4,560	222,244	115,415
245,844	4,308	222,040	115,111
246,859	4,086	221,861	114,841
247,874	4,302	221,829	114,976
248,888	4,430	221,564	114,924
249,903	4,158	221,437	114,645
250,917	4,074	221,219	114,460
251,932	3,973	221,160	114,345
252,947	4,224	220,903	114,387
253,961	3,888	220,701	114,024
254,976	3,902	220,650	113,998
255,990	4,074	220,686	114,133
257,005	4,305	220,442	114,168
258,020	4,142	220,455	114,044
259,034	4,472	220,190	114,140
260,049	4,293	220,104	113,953
261,063	4,337	219,897	113,869
262,078	4,529	219,669	113,882
263,093	4,686	219,651	113,978
264,107	4,402	219,621	113,743
265,122	4,304	219,410	113,551
266,136	4,566	219,276	113,665
267,151	4,641	219,114	113,626
268,166	4,055	218,888	113,068
269,180	3,933	218,605	112,823
270,195	4,042	218,489	112,832
271,209	3,852	218,383	112,628
272,224	3,867	218,424	112,650
273,239	3,968	218,192	112,595
274,253	4,132	217,978	112,594
275,268	3,833	217,756	112,251
276,282	3,866	217,680	112,225
277,297	3,777	217,421	112,017
278,312	3,953	217,358	112,103
279,326	3,797	217,298	111,949
280,341	3,952	217,155	111,978
281,355	4,081	217,082	112,024
282,370	4,336	216,773	112,040
283,384	3,992	216,736	111,761
284,399	3,616	216,551	111,383
285,414	3,655	216,337	111,291
286,428	3,976	216,364	111,528
287,443	4,328	216,315	111,748
288,457	4,200	216,098	111,533
289,472	3,966	215,992	111,299
290,487	3,582	215,538	110,778
291,501	3,572	215,485	110,733
292,516	3,852	215,346	110,854
293,530	3,705	215,395	110,764
294,545	3,923	215,221	110,821
295,560	3,939	215,046	110,732
296,574	3,973	214,977	110,712
297,589	3,927	214,826	110,591
298,603	4,186	214,635	110,669
299,618	4,281	214,492	110,654
300,633	3,990	214,457	110,417
301,647	4,083	214,371	110,429
302,662	4,440	214,172	110,573
303,676	4,292	214,048	110,393
304,691	4,232	213,991	110,310
305,706	4,365	213,667	110,229
306,720	4,434	213,548	110,207
307,735	4,063	213,459	109,886
308,749	3,887	213,320	109,680
309,764	4,040	213,236	109,736
310,779	4,436	213,134	109,955
311,793	4,285	212,961	109,749
312,808	4,349	212,690	109,645
313,822	4,116	212,600	109,423
314,837	4,144	212,348	109,304
315,852	4,005	212,305	109,173
316,866	3,883	212,158	109,002
317,881	4,218	212,198	109,249
318,895	4,395	212,034	109,281
319,910	4,137	211,821	108,979
320,925	3,759	211,590	108,583
321,939	3,585	211,383	108,344
322,954	3,632	211,264	108,307
323,968	3,726	211,268	108,365
324,983	4,150	211,196	108,618
325,997	4,467	211,005	108,733
327,012	4,383	210,890	108,605
328,027	4,272	210,688	108,413
329,041	4,391	210,813	108,552
330,056	4,653	210,598	108,615
331,070	4,420	210,283	108,280
332,085	4,003	210,077	107,872
333,100	4,096	209,911	107,842
334,114	4,178	209,851	107,859
335,129	3,924	209,783	107,636
336,143	3,802	209,709	107,504
337,158	4,045	209,572	107,594
338,173	4,100	209,407	107,538
339,187	3,756	209,233	107,199
340,202	3,833	209,084	107,166
341,216	3,816	208,881	107,042
342,231	3,880	208,788	107,029
343,246	3,716	208,687	106,854
344,260	3,892	208,468	106,854
345,275	3,869	208,498	106,844
346,289	4,168	208,345	106,963
347,304	4,145	208,243	106,886
348,319	3,909	208,163	106,671
349,333	4,084	207,830	106,612
350,348	3,944	207,819	106,500
351,362	4,320	207,747	106,714
352,377	4,123	207,655	106,521
353,392	4,107	207,369	106,354
354,406	3,940	207,369	106,229
355,421	193,916	1345,905	1434,539
356,435	154,693	1484,726	1434,671
