DTS Sentinel unit serial number:	SN410029Multiplexer serial number:	ORYXHardware model number:	OX2-SRSoftware version number:	ORYX F/W v4,00 Oryx Data Collector v3.7.2.0data status	okinstallation	B6 Nyhavnadifferential loss correction	single-endedforward channel	channel 2reverse channel	N/Adate	2023/12/09time	10:50:08forward acquisition time	300,00reverse acquisition time	0,00gamma	499,1914k internal	0,3139k external	0,3139temperature offset calibration	1,0000default loss term (dB/km)	0,3820temperature slope calibration	1,0000multiplexer offset coefficient	1,0000multiplexer slope coefficient	1,0000fibre end	0,00T internal ref (°C)	18,63T ext. ref 1 (°C)	2,44T ext. ref 2 (°C)	2,44length (m)	temperature (°C)	Stokes	anti-Stokes-744,400	-24,284	0,030	0,013
-743,385	-58,885	-0,296	0,094
-742,371	-32,419	0,057	-0,023
-741,356	48,560	-0,189	0,131
-740,342	-89,548	0,116	0,025
-739,327	-85,034	-0,311	0,072
-738,312	-200,000	0,024	-0,086
-737,298	-5,936	-0,296	0,150
-736,283	-142,431	0,056	-0,004
-735,269	-178,178	-0,236	0,004
-734,254	-82,278	0,093	-0,022
-733,239	-180,468	-0,471	0,007
-732,225	-65,990	0,192	0,056
-731,210	133,172	0,040	0,039
-730,196	-100,060	0,141	0,026
-729,181	156,849	0,057	0,059
-728,167	-200,000	0,009	0,045
-727,152	1,035	-0,055	0,029
-726,137	800,000	-0,073	-0,215
-725,123	-39,303	-0,159	-0,061
-724,108	-97,856	0,165	-0,031
-723,094	-200,000	0,046	-0,213
-722,079	-200,000	0,026	-0,185
-721,064	-54,218	-0,027	-0,009
-720,050	-200,000	-0,020	-0,112
-719,035	-2,723	0,074	0,038
-718,021	97,373	-0,080	-0,068
-717,006	-200,000	-0,004	-0,076
-715,991	767,880	-0,018	-0,036
-714,977	119,143	-0,081	-0,074
-713,962	50,464	-0,072	-0,050
-712,948	467,497	-0,002	-0,003
-711,933	-200,000	0,008	-0,040
-710,918	-200,000	0,018	0,160
-709,904	56,647	-0,106	0,076
-708,889	800,000	0,041	0,114
-707,875	17,366	0,085	-0,050
-706,860	-200,000	0,010	-0,094
-705,845	800,000	0,008	0,022
-704,831	56,588	-0,100	0,072
-703,816	-200,000	0,011	-0,062
-702,802	192,007	0,040	0,044
-701,787	-105,648	-0,156	-0,026
-700,772	130,199	-0,020	-0,019
-699,758	-200,000	-0,021	-0,154
-698,743	-200,000	0,010	0,161
-697,729	56,386	0,085	0,061
-696,714	-17,737	-0,086	-0,040
-695,699	-32,336	0,056	-0,023
-694,685	-200,000	-0,019	-0,088
-693,670	24,731	0,131	0,080
-692,656	-200,000	-0,033	-0,129
-691,641	-3,147	0,073	0,037
-690,627	-70,333	0,075	-0,021
-689,612	111,896	-0,084	-0,075
-688,597	-134,624	-0,126	-0,011
-687,583	-32,455	-0,107	-0,044
-686,568	160,290	-0,068	-0,070
-685,554	-143,572	0,141	-0,010
-684,539	488,849	-0,058	0,098
-683,524	800,000	-0,017	0,043
-682,510	800,000	-0,061	0,141
-681,495	-123,120	-0,363	-0,043
-680,481	28,863	0,025	-0,016
-679,466	800,000	0,038	-0,094
-678,451	378,708	0,143	-0,218
-677,437	303,590	0,018	-0,024
-676,422	-200,000	0,004	-0,080
-675,408	-157,069	0,087	-0,004
-674,393	-127,137	-0,105	-0,011
-673,378	-200,000	-0,006	-0,115
-672,364	200,393	-0,139	-0,158
-671,349	-200,000	-0,031	-0,181
-670,335	-21,164	-0,122	0,055
-669,320	-142,124	0,037	-0,003
-668,305	317,948	0,154	-0,216
-667,291	-200,000	-0,020	-0,091
-666,276	121,746	-0,041	-0,038
-665,262	19,535	-0,077	-0,046
-664,247	-170,314	-0,122	-0,003
-663,232	7,692	0,036	-0,020
-662,218	-47,367	0,090	0,032
-661,203	-63,982	-0,166	0,050
-660,189	-200,000	-0,005	0,035
-659,174	62,330	-0,141	-0,104
-658,159	21,592	-0,144	0,087
-657,145	105,165	-0,047	-0,041
-656,130	281,198	-0,026	-0,034
-655,116	52,642	0,082	0,058
-654,101	-200,000	-0,021	0,108
-653,086	-154,085	-0,082	0,004
-652,072	275,751	-0,076	-0,100
-651,057	572,789	-0,037	-0,066
-650,043	148,748	0,076	-0,076
-649,028	44,047	-0,113	-0,077
-648,014	389,818	-0,088	0,135
-646,999	250,110	-0,035	-0,044
-645,984	269,733	-0,098	-0,127
-644,970	-106,140	0,126	-0,021
-643,955	-168,104	-0,152	-0,004
-642,941	-65,369	-0,076	-0,022
-641,926	-108,489	0,122	0,019
-640,911	-200,000	0,021	-0,075
-639,897	2,083	-0,052	0,028
-638,882	-142,288	0,032	0,002
-637,868	243,547	-0,066	0,082
-636,853	-1,037	0,061	0,032
-635,838	-90,166	-0,047	0,010
-634,824	-200,000	-0,004	0,040
-633,809	170,202	-0,034	0,036
-632,795	800,000	0,051	-0,119
-631,780	6,657	-0,030	0,017
-630,765	800,000	-0,057	-0,138
-629,751	-200,000	0,049	-0,187
-628,736	192,214	-0,044	0,049
-627,722	707,516	-0,014	-0,028
-626,707	-25,727	-0,068	-0,029
-625,692	-200,000	-0,008	0,153
-624,678	-79,727	-0,100	0,025
-623,663	-119,436	0,073	-0,009
-622,649	-200,000	-0,007	-0,064
-621,634	-96,471	0,076	-0,015
-620,619	-126,594	-0,134	0,015
-619,605	-140,032	0,107	-0,008
-618,590	800,000	-0,029	-0,072
-617,576	-155,100	0,033	0,002
-616,561	-200,000	-0,037	-0,125
-615,546	-200,000	0,004	-0,056
-614,532	-9,594	0,097	0,048
-613,517	-145,609	0,017	0,001
-612,503	23,612	-0,098	0,060
-611,488	-5,797	0,064	-0,032
-610,474	-144,892	-0,092	-0,006
-609,459	-69,521	-0,044	-0,012
-608,444	800,000	0,045	0,120
-607,430	-200,000	-0,014	-0,098
-606,415	-43,342	-0,075	-0,028
-605,401	-127,149	0,051	0,005
-604,386	211,889	0,081	0,094
-603,371	-69,903	0,121	0,034
-602,357	-44,403	-0,070	-0,026
-601,342	-40,828	-0,166	0,063
-600,328	-66,584	-0,093	-0,027
-599,313	146,969	0,063	-0,062
-598,298	-200,000	-0,022	0,075
-597,284	-28,319	0,045	0,019
-596,269	-40,056	0,078	0,030
-595,255	-92,503	-0,129	-0,027
-594,240	-78,381	0,137	-0,034
-593,225	156,474	-0,021	-0,022
-592,211	-200,000	0,012	-0,173
-591,196	14,787	-0,138	0,079
-590,182	-200,000	0,047	0,196
-589,167	47,311	0,049	-0,034
-588,152	-48,289	-0,066	-0,023
-587,138	358,216	-0,017	0,025
-586,123	800,000	0,008	0,022
-585,109	800,000	-0,038	0,095
-584,094	95,309	0,069	-0,058
-583,079	58,716	0,051	0,037
-582,065	20,735	-0,083	0,049
-581,050	6,640	0,061	0,033
-580,036	540,225	0,057	0,100
-579,021	45,672	0,068	0,046
-578,006	200,620	0,020	-0,023
-576,992	-75,681	-0,024	-0,006
-575,977	-200,000	-0,002	0,122
-574,963	86,076	0,137	0,111
-573,948	800,000	-0,024	0,073
-572,934	-200,000	0,005	-0,086
-571,919	224,539	-0,099	-0,118
-570,904	227,995	0,095	-0,114
-569,890	5,196	-0,126	-0,068
-568,875	8,825	0,100	0,055
-567,861	-61,604	-0,094	-0,029
-566,846	800,000	0,013	-0,033
-565,831	44,211	-0,117	0,079
-564,817	-105,393	0,097	-0,016
-563,802	30,809	-0,080	-0,050
-562,788	-48,428	0,054	-0,019
-561,773	2,541	0,022	-0,012
-560,758	-122,883	0,056	-0,007
-559,744	-119,762	0,033	0,004
-558,729	309,678	0,055	0,076
-557,715	-200,000	0,021	-0,154
-556,700	-200,000	-0,002	-0,023
-555,685	-162,183	-0,023	-0,001
-554,671	92,255	-0,152	-0,126
-553,656	198,636	0,100	0,113
-552,642	393,917	-0,052	-0,079
-551,627	-118,207	0,117	0,015
-550,612	568,737	0,043	-0,077
-549,598	160,271	-0,082	-0,085
-548,583	-89,561	0,053	-0,011
-547,569	353,945	-0,067	0,098
-546,554	-200,000	0,012	0,155
-545,539	-61,366	0,108	-0,033
-544,525	-200,000	-0,001	0,108
-543,510	-90,782	0,088	-0,019
-542,496	-200,000	0,005	0,084
-541,481	-24,615	-0,076	-0,033
-540,466	301,317	0,010	-0,013
-539,452	-200,000	0,014	0,084
-538,437	-13,835	0,080	-0,038
-537,423	-164,638	-0,075	-0,002
-536,408	-200,000	-0,017	-0,064
-535,393	-106,872	-0,027	0,004
-534,379	-10,439	-0,090	-0,044
-533,364	-113,236	0,066	-0,009
-532,350	299,945	0,051	-0,069
-531,335	779,887	0,024	0,048
-530,321	183,001	-0,081	0,088
-529,306	-200,000	-0,018	0,075
-528,291	680,973	0,028	-0,053
-527,277	800,000	-0,035	-0,087
-526,262	61,331	0,087	-0,064
-525,248	25,417	0,086	0,053
-524,233	288,781	-0,140	0,188
-523,218	229,099	0,044	-0,053
-522,204	-200,000	0,016	0,139
-521,189	145,606	0,127	0,126
-520,175	-2,956	-0,081	0,042
-519,160	252,784	-0,028	-0,035
-518,145	-154,384	-0,041	0,002
-517,131	30,456	0,098	0,061
-516,116	581,084	-0,035	-0,063
-515,102	158,237	-0,052	-0,053
-514,087	705,037	-0,030	-0,058
-513,072	-7,309	-0,068	-0,034
-512,058	-30,532	-0,058	0,024
-511,043	-200,000	0,024	0,084
-510,029	-19,109	-0,041	-0,019
-509,014	82,390	0,037	0,030
-507,999	800,000	0,015	0,045
-506,985	-200,000	-0,022	0,078
-505,970	-17,314	-0,139	0,064
-504,956	204,221	0,079	-0,090
-503,941	294,228	0,051	0,069
-502,926	-106,042	0,124	-0,020
-501,912	42,538	0,100	0,066
-500,897	-54,808	-0,091	-0,030
-499,883	25,982	0,112	-0,069
-498,868	-200,000	0,005	0,046
-497,853	-115,930	-0,155	-0,021
-496,839	-92,390	0,041	-0,008
-495,824	116,033	0,048	-0,043
-494,810	60,323	0,157	0,114
-493,795	729,101	-0,040	0,078
-492,781	47,417	-0,072	-0,049
-491,766	-200,000	0,015	0,082
-490,751	-82,201	-0,086	0,020
-489,737	2,577	-0,020	-0,011
-488,722	-200,000	-0,037	-0,135
-487,708	800,000	0,038	0,080
-486,693	123,849	0,059	-0,055
-485,678	-200,000	-0,015	-0,104
-484,664	-200,000	0,007	-0,069
-483,649	26,502	-0,082	-0,050
-482,635	800,000	-0,022	-0,054
-481,620	-139,498	0,170	-0,013
-480,605	-11,167	-0,078	-0,037
-479,591	-44,229	0,162	-0,059
-478,576	107,573	0,178	-0,156
-477,562	800,000	0,028	-0,061
-476,547	-102,200	0,129	0,023
-475,532	459,251	0,038	0,063
-474,518	-119,690	0,093	-0,012
-473,503	-9,968	0,037	0,018
-472,489	-200,000	-0,012	0,129
-471,474	800,000	0,043	0,088
-470,459	234,331	-0,032	0,039
-469,445	423,173	0,029	0,046
-468,430	-200,000	0,009	-0,045
-467,416	-16,290	0,140	0,065
-466,401	800,000	0,036	-0,095
-465,386	-200,000	-0,016	-0,087
-464,372	800,000	-0,011	-0,027
-463,357	703,431	0,026	0,050
-462,343	800,000	-0,013	-0,039
-461,328	71,785	0,094	-0,072
-460,313	-148,065	0,079	-0,005
-459,299	-13,112	-0,037	0,018
-458,284	77,837	0,046	0,036
-457,270	-200,000	-0,019	-0,073
-456,255	226,312	0,066	-0,079
-455,241	173,857	-0,056	0,060
-454,226	222,663	-0,074	0,088
-453,211	349,285	0,036	-0,052
-452,197	120,461	0,093	0,085
-451,182	-153,739	-0,065	-0,003
-450,168	-200,000	0,020	0,066
-449,153	-200,000	0,013	0,053
-448,138	-79,523	-0,067	-0,016
-447,124	-46,481	-0,034	-0,012
-446,109	279,228	0,016	0,021
-445,095	204,648	-0,073	0,083
-444,080	-38,191	0,064	-0,025
-443,065	649,566	-0,026	0,049
-442,051	148,825	0,037	0,037
-441,036	90,207	0,054	-0,044
-440,022	-200,000	-0,019	-0,080
-439,007	-81,601	-0,018	-0,004
-437,992	565,978	0,045	0,080
-436,978	24,786	0,067	-0,041
-435,963	-78,832	-0,102	0,025
-434,949	138,544	-0,073	-0,070
-433,934	15,526	0,075	0,043
-432,919	157,486	-0,090	-0,092
-431,905	-50,724	0,022	0,008
-430,890	382,144	-0,087	0,132
-429,876	-112,682	0,139	0,020
-428,861	12,710	0,094	-0,053
-427,846	-200,000	0,025	0,187
-426,832	-100,705	-0,129	0,023
-425,817	800,000	0,041	-0,109
-424,803	-181,796	-0,123	-0,002
-423,788	800,000	-0,015	0,035
-422,773	-200,000	-0,001	0,097
-421,759	800,000	-0,042	-0,092
-420,744	-104,253	0,066	0,011
-419,730	209,191	-0,028	0,032
-418,715	248,761	-0,074	-0,092
-417,701	324,436	-0,032	0,044
-416,686	92,410	-0,065	-0,054
-415,671	530,503	0,068	0,117
-414,657	81,201	-0,036	0,029
-413,642	800,000	-0,023	0,068
-412,628	800,000	0,058	0,158
-411,613	337,369	-0,061	0,087
-410,598	-85,604	0,024	0,005
-409,584	-200,000	0,000	0,040
-408,569	79,543	0,020	-0,016
-407,555	265,016	0,021	0,027
-406,540	204,257	0,101	-0,114
-405,525	238,008	-0,041	-0,050
-404,511	179,795	-0,050	0,054
-403,496	223,099	-0,054	0,064
-402,482	800,000	-0,042	0,133
-401,467	-200,000	0,002	-0,049
-400,452	-9,607	0,138	0,067
-399,438	-22,348	0,039	-0,017
-398,423	137,133	0,064	-0,061
-397,409	800,000	0,016	-0,042
-396,394	-111,191	0,051	0,007
-395,379	800,000	0,037	-0,095
-394,365	800,000	-0,043	-0,134
-393,350	-200,000	-0,028	0,176
-392,336	-200,000	0,044	0,161
-391,321	104,045	-0,070	-0,060
-390,306	-200,000	0,032	0,155
-389,292	-50,209	-0,099	0,034
-388,277	-54,057	0,044	0,015
-387,263	17,848	0,049	-0,029
-386,248	129,576	0,134	0,125
-385,233	144,498	0,038	0,037
-384,219	-42,771	0,071	-0,026
-383,204	800,000	0,060	-0,131
-382,190	297,424	0,064	0,086
-381,175	603,289	-0,040	0,074
-380,160	-200,000	0,009	-0,055
-379,146	482,540	0,051	0,085
-378,131	-183,687	0,092	0,001
-377,117	-17,987	-0,067	0,030
-376,102	4,185	-0,027	0,014
-375,088	-200,000	0,028	0,115
-374,073	-107,781	0,061	-0,010
-373,058	-200,000	0,009	-0,069
-372,044	-200,000	-0,003	-0,011
-371,029	800,000	-0,032	0,071
-370,015	-94,248	0,080	-0,016
-369,000	800,000	-0,061	-0,169
-367,985	235,653	-0,114	-0,138
-366,971	150,417	0,122	-0,121
-365,956	-36,143	-0,100	-0,039
-364,942	-71,014	0,057	0,015
-363,927	-200,000	0,027	0,160
-362,912	-141,939	-0,119	0,009
-361,898	-200,000	0,011	-0,044
-360,883	-200,000	-0,018	0,114
-359,869	-137,072	-0,035	0,003
-358,854	78,480	0,102	0,080
-357,839	-200,000	0,016	-0,110
-356,825	204,562	-0,018	-0,020
-355,810	309,422	0,065	0,089
-354,796	-121,937	0,135	0,016
-353,781	-200,000	0,000	0,045
-352,766	800,000	-0,054	-0,122
-351,752	198,997	-0,026	-0,029
-350,737	-200,000	-0,023	-0,079
-349,723	8,323	0,049	0,027
-348,708	800,000	0,036	0,110
-347,693	-68,461	-0,123	-0,035
-346,679	10,732	-0,082	-0,046
-345,664	-124,923	0,031	0,003
-344,650	24,398	-0,058	0,035
-343,635	34,813	0,116	-0,074
-342,620	-1,297	0,091	0,047
-341,606	110,436	0,109	0,096
-340,591	-45,596	-0,093	0,034
-339,577	-200,000	0,020	0,164
-338,562	411,808	-0,075	0,117
-337,548	-170,906	-0,068	0,002
-336,533	-200,000	0,026	0,095
-335,518	-200,000	-0,007	-0,027
-334,504	-58,083	-0,137	0,043
-333,489	32,601	-0,023	-0,015
-332,475	22,091	0,059	0,035
-331,460	-200,000	-0,033	-0,117
-330,445	0,938	0,120	0,062
-329,431	-112,767	0,138	-0,020
-328,416	163,241	0,042	-0,043
-327,402	184,965	-0,097	0,105
-326,387	408,932	0,107	-0,166
-325,372	-200,000	0,016	0,081
-324,358	604,474	-0,018	-0,032
-323,343	78,294	-0,075	-0,058
-322,329	-32,681	-0,073	0,030
-321,314	-127,715	0,123	0,013
-320,299	-60,509	0,078	0,024
-319,285	-200,000	-0,020	-0,141
-318,270	-200,000	-0,013	-0,083
-317,256	-154,742	-0,117	0,006
-316,241	-200,000	0,009	-0,076
-315,226	-200,000	0,013	0,155
-314,212	-55,338	0,123	-0,040
-313,197	457,741	0,025	-0,041
-312,183	133,968	-0,116	-0,109
-311,168	180,339	-0,064	0,069
-310,153	70,256	-0,076	-0,057
-309,139	-61,492	-0,032	0,010
-308,124	68,192	-0,145	-0,108
-307,110	475,825	-0,011	-0,018
-306,095	-28,945	0,144	0,060
-305,080	-200,000	0,002	-0,089
-304,066	-200,000	0,018	0,070
-303,051	269,476	0,031	-0,039
-302,037	-200,000	0,023	-0,117
-301,022	63,359	-0,083	0,060
-300,008	519,313	-0,032	0,056
-298,993	-200,000	0,036	-0,172
-297,978	-61,084	-0,084	0,026
-296,964	-104,268	-0,182	0,030
-295,949	-6,402	-0,043	0,021
-294,935	-97,498	0,063	-0,012
-293,920	-85,638	0,047	0,011
-292,905	-65,370	0,102	0,030
-291,891	800,000	0,025	-0,068
-290,876	-200,000	0,003	0,097
-289,862	303,149	-0,023	0,031
-288,847	207,328	0,085	0,097
-287,832	44,010	-0,051	0,034
-286,818	22,237	-0,121	-0,072
-285,803	800,000	0,035	0,081
-284,789	98,127	0,049	0,041
-283,774	185,059	-0,060	0,065
-282,759	-200,000	0,016	0,068
-281,745	-124,711	0,150	-0,017
-280,730	231,298	-0,082	-0,098
-279,716	-101,643	0,040	-0,007
-278,701	299,551	-0,027	-0,037
-277,686	800,000	-0,030	0,063
-276,672	245,059	-0,091	-0,111
-275,657	-77,877	-0,025	-0,006
-274,643	153,544	-0,133	-0,132
-273,628	45,263	0,085	-0,057
-272,613	113,681	-0,097	-0,086
-271,599	267,776	-0,055	0,070
-270,584	44,508	0,029	0,020
-269,570	-3,763	0,119	-0,060
-268,555	75,212	-0,028	-0,021
-267,540	-117,332	-0,062	-0,008
-266,526	-200,000	0,023	-0,116
-265,511	-200,000	0,013	0,115
-264,497	628,297	0,044	-0,082
-263,482	66,709	-0,155	0,115
-262,467	-200,000	-0,009	0,097
-261,453	-200,000	-0,048	-0,242
-260,438	22,212	0,165	-0,098
-259,424	57,657	-0,082	-0,058
-258,409	-60,453	-0,101	0,031
-257,395	578,733	-0,077	-0,138
-256,380	-150,025	0,026	-0,001
-255,365	119,638	-0,109	0,098
-254,351	-200,000	0,005	0,088
-253,336	168,139	-0,106	0,109
-252,322	175,530	-0,059	-0,062
-251,307	800,000	0,025	-0,063
-250,292	-45,352	-0,024	0,009
-249,278	-200,000	0,002	-0,044
-248,263	-135,835	-0,012	-0,001
-247,249	-177,939	0,067	-0,001
-246,234	800,000	0,052	-0,108
-245,219	-200,000	-0,005	0,022
-244,205	800,000	0,038	-0,080
-243,190	-121,239	-0,100	-0,012
-242,176	399,656	-0,102	-0,156
-241,161	702,076	0,045	0,086
-240,146	-200,000	-0,012	0,103
-239,132	-200,000	-0,022	0,077
-238,117	-136,505	-0,055	0,005
-237,103	-200,000	0,043	-0,149
-236,088	30,725	-0,110	-0,068
-235,073	4,163	0,047	-0,025
-234,059	-46,954	0,094	-0,033
-233,044	-101,841	-0,098	0,017
-232,030	125,920	0,087	0,080
-231,015	800,000	0,026	-0,078
-230,000	-200,000	-0,010	-0,047
-228,986	726,817	0,065	0,127
-227,971	564,127	0,080	0,142
-226,957	-200,000	0,003	0,041
-225,942	350,675	0,077	0,111
-224,927	-200,000	-0,003	-0,101
-223,913	-200,000	0,015	-0,124
-222,898	-200,000	0,003	-0,023
-221,884	7,181	-0,114	-0,062
-220,869	-50,994	0,110	0,037
-219,855	57,046	-0,049	0,035
-218,840	-55,970	0,080	-0,026
-217,825	-89,634	0,067	-0,014
-216,811	-200,000	-0,005	-0,071
-215,796	-14,332	-0,087	-0,041
-214,782	634,330	0,069	-0,127
-213,767	800,000	0,028	-0,062
-212,752	-200,000	-0,003	-0,014
-211,738	35,158	-0,021	0,013
-210,723	-84,755	0,114	-0,026
-209,709	89,041	-0,107	-0,087
-208,694	-200,000	0,018	0,075
-207,679	-200,000	-0,035	-0,140
-206,665	393,685	0,066	0,100
-205,650	-127,347	0,087	-0,009
-204,636	-200,000	0,024	0,148
-203,621	231,554	0,048	0,057
-202,606	-186,765	0,060	-0,001
-201,592	538,801	-0,031	-0,053
-200,577	800,000	-0,020	-0,052
-199,563	-136,874	-0,082	0,007
-198,548	-200,000	-0,023	0,092
-197,533	-1,443	0,090	0,046
-196,519	800,000	-0,006	-0,013
-195,504	430,406	-0,068	-0,108
-194,490	-120,865	-0,108	0,013
-193,475	550,987	0,045	-0,079
-192,460	-200,000	-0,003	0,033
-191,446	2,187	0,062	-0,032
-190,431	324,857	-0,040	-0,056
-189,417	157,237	-0,015	-0,015
-188,402	-200,000	0,005	0,030
-187,387	-49,943	-0,088	0,030
-186,373	121,782	0,080	-0,072
-185,358	-141,185	-0,076	0,006
-184,344	78,737	0,085	-0,066
-183,329	800,000	0,042	0,105
-182,315	-200,000	-0,000	0,124
-181,300	-8,599	-0,053	0,026
-180,285	111,093	0,071	-0,062
-179,271	800,000	-0,062	-0,130
-178,256	328,049	-0,047	-0,066
-177,242	-200,000	0,004	-0,139
-176,227	62,943	-0,057	0,041
-175,212	-200,000	0,019	-0,089
-174,198	-110,603	-0,080	0,012
-173,183	174,855	-0,047	0,050
-172,169	151,847	-0,093	-0,092
-171,154	800,000	0,032	0,080
-170,139	-15,219	-0,064	-0,030
-169,125	-61,608	-0,069	0,021
-168,110	123,527	0,039	-0,036
-167,096	156,445	-0,021	0,021
-166,081	-115,256	-0,094	-0,013
-165,066	63,492	-0,033	-0,024
-164,052	-56,970	-0,074	0,023
-163,037	180,544	-0,129	0,138
-162,023	-155,001	0,089	0,004
-161,008	800,000	-0,014	-0,034
-159,993	201,487	-0,079	-0,089
-158,979	262,201	0,088	0,111
-157,964	-44,006	-0,169	-0,061
-156,950	75,801	0,042	0,032
-155,935	226,968	0,034	0,040
-154,920	-200,000	0,016	0,077
-153,906	776,155	0,051	0,101
-152,891	199,168	-0,033	-0,037
-151,877	246,586	-0,056	-0,068
-150,862	185,120	0,052	-0,056
-149,847	-107,828	0,050	-0,008
-148,833	-200,000	0,009	0,101
-147,818	-200,000	0,006	0,056
-146,804	-200,000	-0,017	0,058
-145,789	-200,000	0,012	0,189
-144,775	126,754	0,095	0,087
-143,760	-42,635	-0,188	-0,069
-142,745	323,645	0,095	-0,132
-141,731	-200,000	0,017	0,074
-140,716	-156,086	0,078	-0,004
-139,702	70,638	0,071	0,053
-138,687	104,533	0,131	-0,112
-137,672	-61,963	-0,069	-0,021
-136,658	-87,337	-0,184	-0,040
-135,643	73,871	0,083	-0,063
-134,629	340,859	-0,105	-0,149
-133,614	-200,000	0,034	-0,141
-132,599	-91,153	0,107	-0,022
-131,585	103,550	0,046	0,039
-130,570	59,188	-0,123	-0,088
-129,556	-23,178	0,073	-0,032
-128,541	800,000	-0,073	-0,160
-127,526	167,978	0,084	0,086
-126,512	-20,813	-0,057	0,025
-125,497	800,000	0,014	-0,041
-124,483	277,398	0,094	0,122
-123,468	583,584	0,024	0,043
-122,453	-200,000	-0,018	0,064
-121,439	800,000	0,026	0,077
-120,424	-200,000	0,018	0,094
-119,410	-37,035	-0,025	-0,010
-118,395	616,459	0,037	-0,067
-117,380	1,892	0,070	0,037
-116,366	-168,076	-0,006	-0,000
-115,351	-131,143	0,056	-0,005
-114,337	-3,971	0,085	-0,043
-113,322	-200,000	-0,030	0,117
-112,307	271,579	0,033	0,042
-111,293	224,538	-0,030	-0,035
-110,278	-67,730	0,053	-0,015
-109,264	135,545	0,085	0,080
-108,249	336,264	-0,078	0,110
-107,234	296,703	0,021	-0,028
-106,220	-33,641	0,061	0,024
-105,205	20,024	-0,040	-0,023
-104,191	-99,627	-0,102	0,018
-103,176	133,459	0,027	0,025
-102,162	-28,340	-0,071	0,030
-101,147	-200,000	-0,003	0,155
-100,132	301,411	-0,058	-0,077
-99,118	800,000	-0,028	0,075
-98,103	168,515	-0,105	0,108
-97,089	321,291	0,024	0,033
-96,074	-31,729	0,144	0,058
-95,059	19,110	-0,035	-0,020
-94,045	74,252	0,050	0,038
-93,030	-147,452	0,150	-0,009
-92,016	800,000	-0,105	-0,220
-91,001	7,142	0,101	-0,054
-89,986	-200,000	0,023	0,113
-88,972	-200,000	-0,003	0,015
-87,957	76,577	-0,094	0,072
-86,943	-200,000	-0,004	-0,084
-85,928	800,000	0,047	0,134
-84,913	-75,429	-0,089	-0,023
-83,899	624,874	-0,060	-0,109
-82,884	-200,000	0,051	0,177
-81,870	-200,000	-0,002	-0,012
-80,855	800,000	-0,028	-0,071
-79,840	800,000	0,058	-0,172
-78,826	800,000	-0,055	-0,150
-77,811	101,332	-0,034	-0,028
-76,797	-164,451	-0,082	0,003
-75,782	800,000	0,004	-0,012
-74,767	108,749	0,075	0,065
-73,753	53,442	0,051	0,036
-72,738	177,293	0,053	0,056
-71,724	-200,000	-0,017	-0,076
-70,709	444,935	-0,057	-0,090
-69,694	539,038	0,053	-0,091
-68,680	800,000	-0,062	0,138
-67,665	-200,000	-0,034	0,123
-66,651	-63,163	-0,069	0,020
-65,636	-107,689	0,078	0,012
-64,622	117,867	-0,041	0,037
-63,607	-17,075	-0,122	-0,055
-62,592	571,033	0,050	0,088
-61,578	-19,875	-0,080	-0,036
-60,563	2,990	0,074	0,039
-59,549	-200,000	-0,023	-0,112
-58,534	-28,805	-1,788	-0,739
-57,519	800,000	-0,454	-1,219
-56,505	-200,000	-1,158	-4,845
-55,490	-134,494	0,560	-0,049
-54,476	800,000	5,207	12,203
-53,461	-200,000	15,790	277,572
-52,446	-200,000	701,975	2246,212
-51,432	564,143	1618,478	2842,143
-50,417	121,288	1623,283	1459,515
-49,403	81,427	1283,715	1001,099
-48,388	36,785	1027,675	654,303
-47,373	21,580	989,862	579,955
-46,359	20,539	978,280	569,715
-45,344	18,921	974,118	561,952
-44,330	18,990	972,865	561,434
-43,315	18,747	971,191	559,650
-42,300	18,706	970,037	558,828
-41,286	18,663	969,046	558,093
-40,271	18,669	968,095	557,544
-39,257	18,655	967,351	557,047
-38,242	18,688	966,408	556,589
-37,227	18,631	965,961	556,126
-36,213	18,666	964,910	555,613
-35,198	18,651	964,124	555,087
-34,184	18,689	963,252	554,688
-33,169	18,639	962,385	554,003
-32,154	18,653	961,459	553,494
-31,140	18,694	960,637	553,134
-30,125	18,783	959,721	552,870
-29,111	18,698	959,096	552,215
-28,096	18,680	958,518	551,800
-27,082	18,631	957,801	551,208
-26,067	18,639	957,037	550,772
-25,052	18,675	956,197	550,384
-24,038	18,691	955,286	549,888
-23,023	18,670	954,756	549,494
-22,009	18,777	954,109	549,445
-20,994	18,713	953,608	548,929
-19,979	18,647	953,033	548,365
-18,965	18,670	952,300	547,994
-17,950	18,666	951,856	547,705
-16,936	18,612	951,117	547,084
-15,921	18,622	950,454	546,714
-14,906	18,515	949,776	545,958
-13,892	18,612	948,806	545,689
-12,877	18,575	948,305	545,260
-11,863	18,551	947,686	544,807
-10,848	18,546	947,141	544,455
-9,833	18,560	946,905	544,342
-8,819	18,599	946,150	544,011
-7,804	18,536	945,492	543,413
-6,790	18,493	944,967	542,950
-5,775	18,606	944,315	542,914
-4,760	18,565	943,723	542,421
-3,746	18,540	943,022	541,919
-2,731	18,351	942,295	540,879
-1,717	18,404	941,397	540,511
-0,702	18,361	940,922	540,080
0,313	18,224	940,187	540,038
1,327	21,185	938,665	548,490
2,342	30,279	796,099	489,396
3,356	27,418	449,302	271,889
4,371	-2,092	295,112	149,030
5,386	-6,320	276,731	135,717
6,400	-7,606	270,860	131,627
7,415	-7,913	268,491	130,181
8,429	-7,727	267,217	129,723
9,444	-7,752	266,244	129,217
10,459	-7,911	265,761	128,825
11,473	-7,777	265,058	128,595
12,488	-7,960	264,586	128,188
13,502	-8,089	264,028	127,789
14,517	-7,975	263,475	127,613
15,531	-8,224	263,281	127,282
16,546	-7,980	262,771	127,245
17,561	-8,242	262,534	126,883
18,575	-8,122	262,266	126,850
19,590	-8,169	261,736	126,540
20,604	-7,913	261,472	126,631
21,619	-8,062	261,049	126,282
22,634	-8,096	260,833	126,135
23,648	-8,122	260,447	125,914
24,663	-8,273	260,359	125,725
25,677	-8,000	259,985	125,777
26,692	-8,218	259,841	125,502
27,707	-8,047	259,476	125,467
28,721	-8,001	259,350	125,435
29,736	-8,122	258,943	125,119
30,750	-8,152	258,620	124,926
31,765	-8,043	258,408	124,909
32,780	-8,406	258,347	124,547
33,794	-8,325	258,181	124,527
34,809	-8,280	257,757	124,351
35,823	-8,354	257,450	124,126
36,838	-8,239	257,245	124,118
37,853	-8,276	257,104	124,007
38,867	-8,527	256,915	123,683
39,882	-8,378	256,592	123,648
40,896	-8,330	256,372	123,573
41,911	-8,064	255,969	123,601
42,926	-8,287	255,945	123,383
43,940	-8,427	255,740	123,151
44,955	-8,534	255,525	122,942
45,969	-8,474	255,192	122,824
46,984	-8,682	254,963	122,521
47,999	-8,937	254,629	122,126
49,013	-8,997	254,331	121,920
50,028	-9,144	254,098	121,669
51,042	-9,158	253,756	121,483
52,057	-9,291	253,781	121,368
53,071	-8,976	253,571	121,530
54,086	-9,034	253,422	121,398
55,101	-8,892	253,211	121,410
56,115	-8,731	253,118	121,493
57,130	-8,019	253,017	122,052
58,144	-8,024	252,964	122,011
59,159	-8,017	252,552	121,807
60,174	-7,916	252,318	121,771
61,188	-8,050	252,215	121,594
62,203	-8,154	252,036	121,408
63,217	-8,107	251,799	121,322
64,232	-8,075	251,565	121,227
65,247	-8,134	251,486	121,127
66,261	-8,204	251,080	120,861
67,276	-8,374	250,744	120,542
68,290	-8,605	250,552	120,241
69,305	-8,866	250,334	119,902
70,320	-8,590	250,156	120,043
71,334	-8,501	250,080	120,071
72,349	-8,079	250,030	120,398
73,363	-8,047	249,734	120,272
74,378	-7,923	249,682	120,342
75,393	-8,268	249,418	119,910
76,407	-8,121	249,140	119,891
77,422	-8,097	248,902	119,786
78,436	-8,145	248,687	119,631
79,451	-8,179	248,595	119,547
80,466	-8,340	248,255	119,236
81,480	-8,554	248,072	118,957
82,495	-8,543	247,884	118,864
83,509	-8,374	247,717	118,917
84,524	-8,484	247,446	118,683
85,539	-8,489	247,235	118,568
86,553	-8,666	247,159	118,371
87,568	-8,472	246,788	118,347
88,582	-8,356	246,644	118,365
89,597	-8,648	246,543	118,059
90,611	-8,382	246,427	118,218
91,626	-8,176	246,232	118,286
92,641	-8,190	246,054	118,179
93,655	-8,100	245,740	118,093
94,670	-8,447	245,671	117,758
95,684	-8,319	245,378	117,714
96,699	-8,596	245,261	117,416
97,714	-8,518	245,016	117,353
98,728	-8,605	244,821	117,176
99,743	-8,748	244,664	116,972
100,757	-8,850	244,447	116,773
101,772	-8,627	244,159	116,810
102,787	-8,450	244,167	116,951
103,801	-8,434	243,988	116,868
104,816	-8,418	243,841	116,801
105,830	-8,181	243,574	116,860
106,845	-8,143	243,604	116,895
107,860	-8,131	243,271	116,734
108,874	-8,324	243,053	116,460
109,889	-8,375	242,786	116,279
110,903	-8,510	242,639	116,087
111,918	-8,419	242,417	116,045
112,933	-8,400	242,364	116,026
113,947	-8,143	242,009	116,057
114,962	-8,446	241,999	115,792
115,976	-8,041	241,665	115,956
116,991	-8,262	241,597	115,731
118,006	-8,261	241,533	115,691
119,020	-8,359	241,352	115,513
120,035	-8,300	241,322	115,537
121,049	-8,088	240,955	115,525
122,064	-8,096	240,801	115,434
123,079	-7,962	240,620	115,446
124,093	-8,199	240,409	115,141
125,108	-8,419	240,202	114,852
126,122	-8,699	239,954	114,494
127,137	-9,057	239,778	114,108
128,151	-8,861	239,697	114,219
129,166	-8,529	239,524	114,397
130,181	-8,680	239,191	114,105
131,195	-8,767	239,058	113,961
132,210	-8,423	238,944	114,175
133,224	-8,422	238,842	114,117
134,239	-8,307	238,700	114,133
135,254	-8,416	238,432	113,906
136,268	-8,233	238,303	113,983
137,283	-8,723	238,003	113,432
138,297	-8,580	237,772	113,428
139,312	-8,732	237,644	113,234
140,327	-8,502	237,690	113,432
141,341	-7,926	237,506	113,799
142,356	-7,873	237,414	113,787
143,370	-7,792	237,262	113,770
144,385	-7,774	237,098	113,695
145,400	-7,882	236,894	113,500
146,414	-7,881	236,753	113,424
147,429	-8,157	236,629	113,132
148,443	-7,950	236,345	113,152
149,458	-8,082	236,251	112,992
150,473	-7,826	235,931	113,033
151,487	-8,105	235,833	112,753
152,502	-7,960	235,696	112,794
153,516	-7,824	235,472	112,785
154,531	-7,890	235,400	112,688
155,546	-7,910	235,191	112,561
156,560	-8,191	235,120	112,293
157,575	-8,251	234,803	112,084
158,589	-8,148	234,620	112,068
159,604	-7,898	234,513	112,207
160,619	-7,908	234,449	112,158
161,633	-7,940	234,303	112,053
162,648	-7,904	234,181	112,013
163,662	-7,850	233,820	111,873
164,677	-8,232	233,758	111,531
165,692	-8,102	233,498	111,500
166,706	-7,835	233,341	111,626
167,721	-7,783	233,414	111,692
168,735	-7,761	233,198	111,596
169,750	-7,778	232,955	111,457
170,764	-7,730	232,822	111,421
171,779	-7,625	232,704	111,438
172,794	-7,896	232,452	111,093
173,808	-8,169	232,371	110,829
174,823	-8,530	232,021	110,369
175,837	-8,576	231,778	110,207
176,852	-8,230	231,836	110,496
177,867	-8,096	231,787	110,569
178,881	-7,999	231,693	110,591
179,896	-7,741	231,451	110,667
180,910	-7,652	231,309	110,659
181,925	-7,938	231,244	110,395
182,940	-7,720	230,877	110,380
183,954	-7,708	230,870	110,376
184,969	-7,960	230,688	110,082
185,983	-7,859	230,722	110,168
186,998	-7,535	230,350	110,233
188,013	-7,762	230,192	109,970
189,027	-7,686	229,918	109,889
190,042	-7,597	229,879	109,930
191,056	-7,820	229,916	109,764
192,071	-7,727	229,605	109,678
193,086	-7,559	229,394	109,698
194,100	-7,720	229,378	109,555
195,115	-7,707	228,994	109,372
196,129	-7,715	228,948	109,334
197,144	-3,233	230,431	113,523
198,159	1,621	231,913	118,037
199,173	3,285	232,172	119,458
200,188	3,379	232,169	119,519
201,202	3,616	232,097	119,656
202,217	3,703	231,952	119,638
203,232	4,055	231,825	119,837
204,246	4,101	231,645	119,768
205,261	4,240	231,558	119,821
206,275	4,252	231,550	119,815
207,290	4,354	231,443	119,828
208,304	4,115	231,229	119,521
209,319	4,336	230,937	119,531
210,334	4,470	230,718	119,510
211,348	4,006	230,445	119,000
212,363	3,695	230,339	118,694
213,377	3,497	230,092	118,404
214,392	3,238	230,052	118,172
215,407	3,694	229,724	118,345
216,421	3,491	229,742	118,187
217,436	3,400	229,451	117,956
218,450	3,122	229,316	117,663
219,465	3,155	229,130	117,583
220,480	3,176	228,985	117,514
221,494	3,226	228,920	117,508
222,509	3,477	228,785	117,621
223,523	3,423	228,653	117,501
224,538	3,300	228,438	117,286
225,553	3,461	228,394	117,376
226,567	3,491	228,252	117,316
227,582	3,575	228,222	117,354
228,596	3,774	227,905	117,333
229,611	3,460	227,835	117,046
230,626	3,215	227,612	116,735
231,640	3,288	227,461	116,702
232,655	3,713	227,381	116,975
233,669	3,940	227,311	117,101
234,684	4,045	227,285	117,157
235,699	3,897	227,046	116,911
236,713	3,673	226,725	116,565
237,728	3,433	226,536	116,275
238,742	3,056	226,374	115,896
239,757	3,529	226,178	116,144
240,772	3,569	226,006	116,076
241,786	3,562	225,895	116,003
242,801	3,651	225,871	116,047
243,815	4,007	225,782	116,260
244,830	3,557	225,620	115,827
245,844	3,593	225,377	115,719
246,859	3,500	225,293	115,595
247,874	3,713	225,030	115,610
248,888	3,896	225,014	115,729
249,903	3,646	224,817	115,430
250,917	3,545	224,696	115,282
251,932	3,365	224,580	115,077
252,947	3,651	224,273	115,123
253,961	3,342	224,066	114,775
254,976	3,265	223,978	114,663
255,990	3,583	224,062	114,933
257,005	3,875	223,882	115,049
258,020	3,736	223,722	114,853
259,034	3,824	223,674	114,884
260,049	3,710	223,465	114,681
261,063	3,861	223,278	114,688
262,078	3,838	223,222	114,632
263,093	3,633	223,072	114,392
264,107	3,705	222,984	114,390
265,122	3,665	222,776	114,243
266,136	3,873	222,701	114,349
267,151	3,925	222,418	114,233
268,166	3,638	222,178	113,886
269,180	3,102	222,052	113,413
270,195	3,416	221,786	113,500
271,209	3,227	221,759	113,336
272,224	3,467	221,692	113,470
273,239	3,567	221,537	113,454
274,253	3,591	221,236	113,308
275,268	3,521	221,010	113,130
276,282	3,163	221,037	112,870
277,297	3,106	220,765	112,679
278,312	3,428	220,701	112,873
279,326	3,294	220,605	112,715
280,341	3,439	220,650	112,835
281,355	3,539	220,319	112,730
282,370	3,502	220,134	112,598
283,384	3,381	219,805	112,331
284,399	3,122	219,716	112,085
285,414	3,190	219,666	112,099
286,428	3,483	219,619	112,280
287,443	3,548	219,521	112,268
288,457	3,520	219,363	112,156
289,472	3,459	219,209	112,023
290,487	3,115	218,835	111,570
291,501	3,006	218,751	111,439
292,516	3,066	218,630	111,411
293,530	2,978	218,517	111,279
294,545	3,128	218,401	111,320
295,560	3,310	218,340	111,410
296,574	3,662	218,118	111,544
297,589	3,249	218,040	111,194
298,603	3,376	218,004	111,257
299,618	3,672	217,743	111,329
300,633	3,474	217,751	111,180
301,647	3,639	217,577	111,200
302,662	3,574	217,538	111,123
303,676	3,719	217,225	111,059
304,691	3,696	217,188	111,013
305,706	3,748	217,030	110,960
306,720	3,687	216,819	110,798
307,735	3,416	216,708	110,536
308,749	3,357	216,501	110,378
309,764	3,458	216,433	110,407
310,779	3,483	216,404	110,400
311,793	3,843	216,236	110,563
312,808	3,821	216,057	110,446
313,822	3,594	215,910	110,197
314,837	3,243	215,922	109,942
315,852	3,073	215,641	109,667
316,866	3,346	215,570	109,817
317,881	3,749	215,506	110,064
318,895	3,753	215,283	109,943
319,910	3,562	215,049	109,677
320,925	3,351	214,894	109,438
321,939	3,030	214,693	109,096
322,954	2,997	214,591	109,011
323,968	3,398	214,614	109,299
324,983	3,997	214,214	109,511
325,997	3,545	214,434	109,292
327,012	3,643	214,073	109,168
328,027	3,374	214,095	108,979
329,041	3,897	214,073	109,329
330,056	3,904	213,902	109,237
331,070	3,575	213,591	108,835
332,085	3,246	213,395	108,492
333,100	3,262	213,270	108,431
334,114	3,327	213,223	108,444
335,129	3,304	212,980	108,294
336,143	3,301	212,723	108,151
337,158	3,357	212,856	108,249
338,173	3,492	212,534	108,171
339,187	3,206	212,429	107,906
340,202	3,136	212,234	107,748
341,216	3,140	212,069	107,657
342,231	3,284	211,943	107,686
343,246	3,321	211,847	107,653
344,260	3,181	211,855	107,549
345,275	3,597	211,643	107,724
346,289	3,578	211,499	107,628
347,304	3,425	211,441	107,481
348,319	3,405	211,153	107,311
349,333	3,509	211,079	107,336
350,348	3,672	211,072	107,437
351,362	3,402	210,896	107,149
352,377	3,643	210,726	107,222
353,392	3,534	210,575	107,060
354,406	3,369	210,579	106,937
355,421	195,906	1341,961	1429,670
356,435	156,471	1479,841	1429,707
