DTS Sentinel unit serial number:	SN410029Multiplexer serial number:	ORYXHardware model number:	OX2-SRSoftware version number:	ORYX F/W v4,00 Oryx Data Collector v3.7.2.0data status	okinstallation	B6 Nyhavnadifferential loss correction	single-endedforward channel	channel 2reverse channel	N/Adate	2023/12/09time	05:55:08forward acquisition time	300,00reverse acquisition time	0,00gamma	499,1914k internal	0,3142k external	0,3142temperature offset calibration	1,0000default loss term (dB/km)	0,3820temperature slope calibration	1,0000multiplexer offset coefficient	1,0000multiplexer slope coefficient	1,0000fibre end	0,00T internal ref (°C)	18,20T ext. ref 1 (°C)	2,34T ext. ref 2 (°C)	2,37length (m)	temperature (°C)	Stokes	anti-Stokes-744,400	-56,215	0,181	0,059
-743,385	-140,562	-0,232	0,018
-742,371	-200,000	0,001	0,180
-741,356	8,056	-0,274	0,152
-740,342	42,962	0,216	0,146
-739,327	-136,265	-0,246	0,021
-738,312	-120,724	0,041	0,005
-737,298	-89,466	-0,350	0,076
-736,283	-200,000	0,010	0,032
-735,269	-53,174	-0,211	0,071
-734,254	-200,000	-0,015	0,117
-733,239	-25,393	-0,476	-0,208
-732,225	-200,000	-0,009	0,065
-731,210	208,623	-0,055	0,064
-730,196	-200,000	-0,017	-0,057
-729,181	26,953	-0,103	-0,064
-728,167	220,813	-0,104	-0,124
-727,152	414,780	-0,124	-0,196
-726,137	119,791	-0,003	0,003
-725,123	-38,152	-0,208	0,081
-724,108	-200,000	-0,017	-0,075
-723,094	-200,000	-0,005	0,022
-722,079	800,000	0,031	0,098
-721,064	-45,154	-0,101	-0,037
-720,050	124,150	0,064	0,059
-719,035	387,398	-0,108	0,165
-718,021	234,315	0,024	0,029
-717,006	31,688	-0,133	-0,085
-715,991	49,636	-0,126	-0,088
-714,977	22,678	-0,151	-0,091
-713,962	-200,000	0,009	0,065
-712,948	-112,561	0,118	-0,017
-711,933	-107,933	0,079	0,013
-710,918	-110,265	-0,076	-0,012
-709,904	-198,586	-0,019	0,000
-708,889	15,726	-0,174	-0,101
-707,875	213,846	-0,092	0,108
-706,860	-200,000	-0,022	0,110
-705,845	436,678	0,064	0,104
-704,831	800,000	-0,067	0,142
-703,816	-200,000	0,009	0,072
-702,802	-122,381	-0,119	-0,014
-701,787	348,955	0,043	0,063
-700,772	52,921	-0,121	-0,085
-699,758	177,814	0,064	0,069
-698,743	-200,000	0,000	-0,066
-697,729	352,679	0,071	0,105
-696,714	77,087	-0,062	0,049
-695,699	800,000	-0,024	0,062
-694,685	-72,175	-0,139	0,038
-693,670	185,579	-0,073	-0,080
-692,656	-200,000	0,021	-0,070
-691,641	-200,000	0,004	0,085
-690,627	102,746	-0,075	0,065
-689,612	800,000	0,030	0,062
-688,597	-200,000	0,016	-0,079
-687,583	-57,320	-0,167	-0,054
-686,568	256,150	0,064	0,081
-685,554	256,116	-0,023	0,029
-684,539	-200,000	-0,018	0,092
-683,524	-200,000	-0,022	0,245
-682,510	800,000	0,027	-0,087
-681,495	261,520	0,093	0,119
-680,481	378,761	-0,080	-0,121
-679,466	-20,307	-0,057	0,026
-678,451	3,112	-0,160	-0,086
-677,437	-200,000	-0,049	0,183
-676,422	431,395	0,039	0,063
-675,408	42,567	0,164	0,110
-674,393	111,090	-0,120	-0,107
-673,378	-200,000	-0,020	-0,178
-672,364	108,272	0,045	0,039
-671,349	394,504	-0,091	-0,141
-670,335	800,000	-0,024	-0,063
-669,320	800,000	-0,055	0,161
-668,305	-200,000	0,007	-0,107
-667,291	-8,290	-0,118	0,058
-666,276	-200,000	0,029	0,116
-665,262	-200,000	-0,005	0,096
-664,247	-200,000	0,000	0,113
-663,232	88,243	-0,073	0,060
-662,218	-102,513	-0,051	0,009
-661,203	-129,922	-0,118	0,012
-660,189	-31,910	-0,099	-0,041
-659,174	-71,851	0,056	0,015
-658,159	91,177	-0,069	0,057
-657,145	32,402	-0,099	-0,063
-656,130	182,237	-0,083	-0,091
-655,116	309,080	0,046	0,064
-654,101	-175,797	0,062	0,001
-653,086	-147,305	0,154	0,010
-652,072	-200,000	0,001	0,094
-651,057	274,562	-0,098	-0,128
-650,043	-123,080	0,039	0,005
-649,028	800,000	0,009	0,023
-648,014	129,076	0,086	0,081
-646,999	-140,759	-0,152	-0,011
-645,984	538,153	0,069	-0,122
-644,970	-200,000	-0,017	-0,125
-643,955	-26,689	-0,081	0,035
-642,941	251,023	-0,164	0,207
-641,926	-112,326	0,063	-0,009
-640,911	800,000	0,037	-0,091
-639,897	309,988	0,056	-0,077
-638,882	-200,000	0,014	0,050
-637,868	783,708	0,054	-0,110
-636,853	196,284	-0,080	-0,089
-635,838	85,646	0,054	0,044
-634,824	-80,188	0,186	-0,046
-633,809	-200,000	-0,014	0,184
-632,795	168,027	-0,099	0,104
-631,780	121,295	0,017	-0,016
-630,765	-28,250	-0,121	-0,051
-629,751	-118,289	-0,206	-0,027
-628,736	-200,000	0,024	-0,118
-627,722	-200,000	0,003	-0,097
-626,707	-135,885	-0,029	-0,002
-625,692	-84,445	0,031	0,007
-624,678	-36,555	-0,062	0,025
-623,663	-200,000	-0,013	-0,146
-622,649	170,924	-0,024	-0,026
-621,634	60,543	0,073	-0,053
-620,619	-97,684	-0,039	-0,007
-619,605	-200,000	-0,006	0,025
-618,590	800,000	0,028	0,059
-617,576	800,000	-0,034	-0,098
-616,561	-122,782	-0,067	0,008
-615,546	315,924	-0,033	0,046
-614,532	800,000	0,021	0,056
-613,517	205,925	0,050	-0,058
-612,503	-69,811	-0,221	0,062
-611,488	-200,000	0,006	0,021
-610,474	-155,922	0,085	0,004
-609,459	165,936	0,120	0,125
-608,444	-57,624	-0,075	-0,024
-607,430	665,169	0,065	-0,124
-606,415	-91,857	-0,070	0,015
-605,401	665,398	-0,055	0,105
-604,386	354,224	0,008	0,011
-603,371	183,195	0,031	-0,034
-602,357	-88,165	0,131	-0,029
-601,342	118,447	0,120	-0,109
-600,328	289,489	-0,087	-0,117
-599,313	800,000	-0,034	-0,080
-598,298	274,553	0,073	-0,096
-597,284	-166,829	0,113	0,003
-596,269	286,426	-0,061	-0,081
-595,255	180,547	-0,022	-0,024
-594,240	-90,837	0,040	0,008
-593,225	195,001	0,050	-0,056
-592,211	92,097	0,127	-0,106
-591,196	-200,000	-0,000	0,050
-590,182	-93,158	-0,027	-0,005
-589,167	-200,000	-0,034	0,142
-588,152	-200,000	0,007	-0,031
-587,138	237,332	0,048	0,059
-586,123	-140,293	-0,086	-0,007
-585,109	165,317	-0,070	-0,073
-584,094	800,000	-0,035	0,107
-583,079	-200,000	-0,014	0,073
-582,065	-124,873	0,089	-0,010
-581,050	168,712	-0,071	-0,074
-580,036	314,529	0,013	-0,018
-579,021	9,864	-0,088	0,049
-578,006	38,720	-0,088	0,058
-576,992	-182,604	0,058	0,001
-575,977	-53,033	0,074	0,025
-574,963	-200,000	0,019	0,142
-573,948	-111,887	0,098	0,014
-572,934	-200,000	0,002	0,086
-571,919	-200,000	-0,007	-0,050
-570,904	-1,247	-0,089	-0,046
-569,890	16,927	0,150	0,087
-568,875	458,427	-0,013	0,021
-567,861	800,000	-0,014	0,041
-566,846	800,000	-0,012	-0,026
-565,831	405,555	-0,009	-0,014
-564,817	494,801	-0,051	-0,087
-563,802	800,000	0,027	-0,083
-562,788	23,432	0,065	-0,039
-561,773	595,256	-0,023	0,041
-560,758	-117,800	0,060	0,008
-559,744	2,047	0,061	-0,032
-558,729	-97,624	0,011	0,002
-557,715	117,862	0,030	0,027
-556,700	-118,715	-0,041	-0,005
-555,685	486,515	0,108	-0,182
-554,671	154,058	-0,045	-0,046
-553,656	26,862	0,049	0,030
-552,642	106,933	-0,081	0,071
-551,627	-149,044	0,147	0,009
-550,612	-68,859	-0,107	0,030
-549,598	110,192	-0,077	-0,068
-548,583	-11,165	0,028	0,014
-547,569	712,045	-0,046	-0,089
-546,554	-200,000	0,021	0,068
-545,539	380,177	-0,038	-0,057
-544,525	-200,000	-0,006	-0,052
-543,510	-200,000	-0,012	0,062
-542,496	1,135	-0,056	-0,029
-541,481	-200,000	-0,010	-0,077
-540,466	-200,000	0,005	-0,058
-539,452	-200,000	-0,015	0,117
-538,437	136,546	-0,005	0,005
-537,423	155,314	-0,085	0,086
-536,408	-200,000	0,000	-0,077
-535,393	-3,828	-0,094	-0,048
-534,379	-200,000	-0,006	-0,054
-533,364	800,000	0,024	0,063
-532,350	16,802	-0,153	-0,089
-531,335	571,155	0,016	0,028
-530,321	677,472	0,052	0,100
-529,306	-60,483	-0,131	0,041
-528,291	-200,000	0,001	-0,059
-527,277	-117,245	0,145	-0,019
-526,262	-25,997	-0,127	0,055
-525,248	-200,000	0,017	-0,089
-524,233	295,416	0,060	-0,081
-523,218	800,000	-0,026	0,057
-522,204	208,384	0,027	0,031
-521,189	398,261	0,039	0,060
-520,175	560,211	0,031	0,055
-519,160	-177,154	-0,101	-0,002
-518,145	-78,815	0,076	-0,019
-517,131	601,533	0,015	-0,027
-516,116	-103,198	-0,063	0,011
-515,102	-200,000	-0,004	0,106
-514,087	363,337	-0,057	-0,084
-513,072	800,000	-0,020	-0,051
-512,058	800,000	0,065	-0,161
-511,043	-68,914	0,145	0,041
-510,029	-36,966	0,010	0,004
-509,014	800,000	-0,017	-0,053
-507,999	-6,820	-0,083	0,041
-506,985	43,928	-0,066	-0,044
-505,970	-200,000	-0,001	0,058
-504,956	201,445	-0,060	-0,068
-503,941	-200,000	0,022	-0,093
-502,926	436,841	0,110	-0,176
-501,912	62,105	-0,004	-0,003
-500,897	322,528	0,048	0,067
-499,883	-13,351	0,133	-0,063
-498,868	173,544	0,010	-0,010
-497,853	-200,000	-0,008	0,070
-496,839	-200,000	-0,024	-0,088
-495,824	-200,000	-0,007	0,084
-494,810	-76,637	0,029	0,007
-493,795	-146,842	0,036	0,002
-492,781	188,028	-0,018	0,020
-491,766	-200,000	0,004	-0,116
-490,751	-200,000	-0,023	-0,129
-489,737	-200,000	0,003	-0,082
-488,722	289,741	0,024	-0,032
-487,708	800,000	0,015	-0,045
-486,693	800,000	0,029	0,060
-485,678	-85,061	-0,100	0,023
-484,664	156,464	0,043	-0,044
-483,649	616,738	-0,055	-0,101
-482,635	-200,000	0,000	0,018
-481,620	163,753	0,052	0,054
-480,605	187,571	-0,122	0,134
-479,591	37,101	0,098	-0,064
-478,576	800,000	-0,035	-0,077
-477,562	-134,573	0,128	0,011
-476,547	-18,967	-0,167	-0,076
-475,532	-49,994	0,143	0,049
-474,518	528,061	-0,018	0,032
-473,503	-40,708	0,115	-0,044
-472,489	800,000	0,055	-0,142
-471,474	457,071	-0,063	-0,103
-470,459	274,929	-0,054	-0,071
-469,445	-200,000	0,001	-0,122
-468,430	-7,415	0,018	0,009
-467,416	800,000	-0,018	0,038
-466,401	-39,576	0,129	0,049
-465,386	-200,000	-0,019	0,237
-464,372	233,568	-0,053	-0,065
-463,357	-176,782	-0,018	0,000
-462,343	145,915	0,091	0,089
-461,328	40,767	-0,125	-0,082
-460,313	73,614	-0,067	-0,051
-459,299	767,011	0,048	0,096
-458,284	250,523	0,053	0,066
-457,270	-200,000	-0,016	0,180
-456,255	-116,429	0,026	-0,004
-455,241	-200,000	0,024	-0,085
-454,226	-200,000	-0,001	0,044
-453,211	59,623	0,052	0,038
-452,197	89,463	0,049	-0,040
-451,182	-200,000	0,022	0,101
-450,168	1,532	-0,038	0,020
-449,153	-34,921	-0,072	-0,029
-448,138	66,134	-0,059	-0,044
-447,124	800,000	-0,016	-0,052
-446,109	-200,000	-0,022	0,124
-445,095	800,000	0,016	0,046
-444,080	-13,151	0,162	-0,077
-443,065	28,186	0,035	0,021
-442,051	800,000	-0,054	-0,114
-441,036	800,000	-0,055	0,173
-440,022	426,672	-0,070	0,110
-439,007	800,000	-0,033	0,093
-437,992	315,553	0,029	-0,041
-436,978	535,492	0,034	0,059
-435,963	507,706	0,042	-0,071
-434,949	348,003	0,009	0,013
-433,934	-116,790	-0,082	-0,011
-432,919	-89,619	0,037	0,008
-431,905	42,308	0,163	-0,108
-430,890	800,000	0,029	-0,089
-429,876	168,620	0,105	0,110
-428,861	-114,428	0,057	0,008
-427,846	179,700	-0,044	-0,048
-426,832	305,722	-0,016	-0,022
-425,817	800,000	-0,020	0,054
-424,803	800,000	0,020	0,049
-423,788	-200,000	-0,018	0,088
-422,773	-200,000	-0,009	0,052
-421,759	-126,442	0,084	-0,009
-420,744	313,602	0,032	-0,045
-419,730	332,726	-0,098	-0,138
-418,715	800,000	0,017	0,039
-417,701	169,153	0,031	0,033
-416,686	-200,000	-0,008	0,063
-415,671	-119,409	0,136	-0,017
-414,657	222,574	-0,063	0,074
-413,642	-82,334	-0,096	0,023
-412,628	148,074	0,128	-0,127
-411,613	16,080	-0,060	-0,034
-410,598	800,000	-0,040	-0,110
-409,584	7,273	-0,053	-0,029
-408,569	-23,164	0,096	0,042
-407,555	-200,000	0,015	0,166
-406,540	-200,000	-0,005	-0,116
-405,525	118,903	-0,072	0,065
-404,511	-200,000	-0,001	0,044
-403,496	-200,000	-0,029	-0,131
-402,482	74,979	-0,021	0,016
-401,467	-44,953	-0,116	0,042
-400,452	157,429	0,077	0,078
-399,438	-200,000	0,002	-0,014
-398,423	602,520	-0,023	0,043
-397,409	800,000	-0,059	0,160
-396,394	-200,000	-0,007	0,039
-395,379	35,170	0,013	0,008
-394,365	-76,745	0,025	-0,006
-393,350	25,451	0,055	-0,034
-392,336	800,000	0,036	0,081
-391,321	245,697	-0,075	-0,093
-390,306	52,018	0,105	-0,073
-389,292	-200,000	-0,027	-0,090
-388,277	23,328	0,054	-0,033
-387,263	-73,715	0,019	0,005
-386,248	135,249	-0,174	0,165
-385,233	-22,917	0,049	-0,022
-384,219	800,000	-0,013	-0,032
-383,204	-200,000	0,011	0,091
-382,190	-200,000	-0,012	0,097
-381,175	800,000	-0,007	-0,015
-380,160	-20,406	0,121	0,054
-379,146	-186,977	0,036	0,000
-378,131	127,163	0,060	0,056
-377,117	47,850	-0,040	-0,027
-376,102	-49,634	-0,021	0,007
-375,088	264,144	0,034	-0,044
-374,073	800,000	-0,019	-0,052
-373,058	-6,815	0,052	-0,026
-372,044	14,893	-0,067	0,038
-371,029	9,444	-0,032	0,017
-370,015	-18,576	0,145	0,066
-369,000	-90,147	-0,046	-0,010
-367,985	735,632	-0,050	-0,098
-366,971	690,149	-0,007	0,013
-365,956	508,406	0,043	0,073
-364,942	-72,385	0,163	0,044
-363,927	-200,000	-0,042	-0,000
-362,912	38,537	0,034	0,022
-361,898	-200,000	-0,029	-0,102
-360,883	198,525	-0,048	-0,054
-359,869	-28,347	-0,097	-0,040
-358,854	-200,000	-0,038	-0,157
-357,839	249,195	0,011	-0,013
-356,825	-165,736	0,102	0,003
-355,810	-145,281	-0,036	-0,002
-354,796	-119,297	0,050	-0,006
-353,781	-43,517	-0,067	0,025
-352,766	-200,000	-0,005	-0,030
-351,752	-68,230	-0,058	-0,016
-350,737	-28,144	-0,095	-0,040
-349,723	800,000	0,026	0,069
-348,708	-23,372	0,032	-0,014
-347,693	-26,487	-0,066	-0,028
-346,679	4,129	-0,082	0,044
-345,664	64,153	-0,058	-0,043
-344,650	800,000	0,031	0,073
-343,635	-41,671	-0,039	0,015
-342,620	-7,508	-0,041	-0,020
-341,606	-200,000	-0,040	0,162
-340,591	-180,541	-0,079	-0,001
-339,577	-200,000	-0,034	-0,132
-338,562	800,000	-0,023	0,050
-337,548	-200,000	0,001	-0,008
-336,533	-200,000	0,007	0,114
-335,518	-200,000	-0,032	0,190
-334,504	800,000	0,056	-0,136
-333,489	-85,278	-0,174	-0,039
-332,475	-99,737	-0,204	-0,037
-331,460	-60,953	-0,148	-0,045
-330,445	800,000	0,007	-0,021
-329,431	-75,448	-0,057	0,015
-328,416	-89,867	-0,088	-0,019
-327,402	-200,000	0,042	0,143
-326,387	-200,000	0,015	0,094
-325,372	-139,414	-0,049	0,004
-324,358	-14,431	-0,206	-0,096
-323,343	-77,194	0,100	0,025
-322,329	25,612	-0,063	-0,038
-321,314	800,000	0,038	0,091
-320,299	-200,000	-0,003	0,124
-319,285	-200,000	-0,009	0,103
-318,270	-57,967	-0,077	-0,024
-317,256	-59,701	-0,152	-0,047
-316,241	-93,157	0,050	-0,010
-315,226	-194,329	0,095	0,001
-314,212	-90,915	0,099	-0,021
-313,197	-197,185	0,047	-0,000
-312,183	-71,573	0,185	0,050
-311,168	4,535	0,089	0,047
-310,153	800,000	-0,019	-0,058
-309,139	-200,000	-0,003	-0,096
-308,124	-12,481	-0,040	-0,019
-307,110	347,537	0,084	0,121
-306,095	191,282	0,119	0,131
-305,080	800,000	-0,013	0,037
-304,066	440,441	0,031	0,049
-303,051	-42,783	-0,138	0,051
-302,037	177,675	-0,060	-0,064
-301,022	800,000	0,043	0,096
-300,008	-200,000	0,043	0,160
-298,993	-85,713	-0,144	0,032
-297,978	-136,566	0,101	-0,008
-296,964	31,121	-0,087	-0,054
-295,949	297,126	-0,116	-0,155
-294,935	449,339	-0,036	-0,057
-293,920	800,000	0,038	-0,085
-292,905	-142,589	-0,120	0,008
-291,891	227,504	0,026	0,030
-290,876	-200,000	-0,023	-0,102
-289,862	173,063	-0,040	0,042
-288,847	223,721	-0,063	-0,075
-287,832	80,762	-0,100	0,079
-286,818	-5,912	0,060	-0,030
-285,803	271,815	-0,035	0,045
-284,789	-58,785	0,146	-0,046
-283,774	246,608	-0,074	-0,091
-282,759	331,227	0,072	-0,101
-281,745	-52,505	0,080	0,027
-280,730	348,432	0,059	0,086
-279,716	41,286	-0,129	0,085
-278,701	142,172	0,050	0,049
-277,686	-87,262	0,192	-0,042
-276,672	-200,000	-0,001	-0,010
-275,657	-200,000	0,005	0,165
-274,643	-64,789	-0,052	0,015
-273,628	393,588	0,032	-0,048
-272,613	194,206	0,057	0,063
-271,599	-13,961	-0,056	0,026
-270,584	800,000	-0,017	-0,048
-269,570	800,000	0,038	0,089
-268,555	-128,918	0,044	0,004
-267,540	-101,471	-0,146	0,026
-266,526	-200,000	0,038	-0,143
-265,511	-113,621	0,041	0,006
-264,497	-200,000	-0,032	-0,000
-263,482	32,147	-0,020	-0,013
-262,467	120,840	-0,059	0,053
-261,453	23,283	-0,067	0,040
-260,438	137,234	-0,095	-0,091
-259,424	-200,000	0,027	0,093
-258,409	-200,000	-0,006	-0,043
-257,395	-13,008	0,062	-0,029
-256,380	800,000	-0,032	-0,091
-255,365	56,636	0,161	-0,114
-254,351	-8,707	0,078	-0,038
-253,336	-180,201	-0,154	0,002
-252,322	-10,610	-0,018	0,009
-251,307	57,084	0,066	0,047
-250,292	-200,000	-0,003	-0,092
-249,278	-200,000	0,013	-0,091
-248,263	-34,111	0,100	-0,040
-247,249	800,000	0,063	0,200
-246,234	-200,000	0,009	0,120
-245,219	-131,219	0,076	-0,007
-244,205	-44,507	0,112	-0,041
-243,190	-200,000	0,005	-0,106
-242,176	19,748	0,142	0,083
-241,161	800,000	0,023	0,066
-240,146	800,000	0,035	-0,078
-239,132	-200,000	0,005	0,057
-238,117	-200,000	0,005	-0,019
-237,103	757,486	0,045	-0,089
-236,088	-142,853	0,026	0,002
-235,073	800,000	0,024	0,077
-234,059	563,478	0,023	-0,041
-233,044	800,000	0,019	-0,045
-232,030	-200,000	0,031	0,104
-231,015	-63,617	0,102	0,030
-230,000	800,000	-0,011	0,022
-228,986	-98,518	0,092	0,017
-227,971	-200,000	-0,034	-0,116
-226,957	-200,000	-0,027	0,121
-225,942	-200,000	-0,009	-0,091
-224,927	-200,000	-0,004	-0,131
-223,913	-150,313	-0,067	0,004
-222,898	-114,504	0,032	0,004
-221,884	-200,000	-0,009	0,072
-220,869	800,000	0,039	-0,089
-219,855	-200,000	0,005	0,199
-218,840	573,417	-0,046	0,082
-217,825	800,000	-0,057	-0,126
-216,811	800,000	0,031	0,097
-215,796	234,263	-0,062	-0,074
-214,782	163,708	0,060	-0,062
-213,767	480,460	-0,070	-0,116
-212,752	800,000	-0,027	0,075
-211,738	-200,000	0,032	0,146
-210,723	70,139	0,051	0,038
-209,709	64,298	0,107	0,078
-208,694	800,000	0,015	0,047
-207,679	-57,505	-0,117	0,037
-206,665	655,931	-0,054	-0,102
-205,650	800,000	-0,027	-0,083
-204,636	394,664	0,049	0,075
-203,621	444,629	-0,021	-0,033
-202,606	-200,000	-0,002	0,023
-201,592	-200,000	0,002	-0,090
-200,577	800,000	-0,035	-0,082
-199,563	-11,661	0,107	0,051
-198,548	2,190	0,056	0,029
-197,533	372,938	-0,079	0,117
-196,519	-147,163	0,066	0,004
-195,504	-200,000	-0,010	0,125
-194,490	-3,425	-0,100	-0,050
-193,475	-200,000	0,009	-0,082
-192,460	-200,000	0,007	-0,042
-191,446	-168,551	0,072	-0,002
-190,431	800,000	-0,015	0,036
-189,417	249,381	-0,020	0,025
-188,402	-200,000	-0,017	-0,158
-187,387	26,184	-0,037	-0,022
-186,373	321,197	0,030	-0,042
-185,358	-22,522	0,065	-0,028
-184,344	-68,688	0,057	0,016
-183,329	365,020	-0,064	-0,094
-182,315	178,050	-0,090	0,095
-181,300	-80,186	0,020	0,005
-180,285	368,093	-0,041	-0,061
-179,271	-123,402	-0,116	0,013
-178,256	-40,594	-0,108	0,040
-177,242	-7,024	0,124	-0,061
-176,227	-164,699	0,103	-0,003
-175,212	800,000	0,030	0,066
-174,198	21,969	0,063	0,037
-173,183	800,000	-0,051	-0,137
-172,169	-61,050	0,123	-0,037
-171,154	-61,970	-0,041	0,012
-170,139	428,103	0,058	0,090
-169,125	-136,460	0,114	-0,009
-168,110	-200,000	0,038	0,146
-167,096	-200,000	-0,004	0,012
-166,081	-93,308	-0,125	-0,025
-165,066	-200,000	-0,041	-0,219
-164,052	-0,996	-0,048	-0,025
-163,037	-200,000	0,013	0,056
-162,023	3,506	-0,053	0,028
-161,008	700,659	-0,033	-0,063
-159,993	-45,124	0,078	0,028
-158,979	-200,000	0,026	0,177
-157,964	800,000	-0,038	0,106
-156,950	256,916	-0,026	-0,032
-155,935	125,947	0,061	0,056
-154,920	356,837	-0,041	0,059
-153,906	-200,000	0,035	0,149
-152,891	385,015	-0,059	0,088
-151,877	-200,000	0,007	-0,034
-150,862	20,608	-0,093	-0,054
-149,847	-89,810	-0,116	0,024
-148,833	99,606	0,080	0,067
-147,818	-118,103	-0,072	0,009
-146,804	-200,000	0,017	0,102
-145,789	724,697	-0,064	0,125
-144,775	800,000	-0,031	0,097
-143,760	-200,000	0,005	-0,033
-142,745	665,767	0,080	0,151
-141,731	174,505	0,141	-0,148
-140,716	-176,004	-0,052	-0,001
-139,702	-200,000	-0,028	0,091
-138,687	48,195	0,130	0,088
-137,672	-78,966	0,039	0,010
-136,658	800,000	-0,027	-0,076
-135,643	800,000	0,012	0,025
-134,629	-200,000	0,002	-0,044
-133,614	-200,000	-0,026	0,099
-132,599	43,856	0,131	0,086
-131,585	-116,600	-0,165	0,022
-130,570	728,094	0,051	-0,098
-129,556	785,159	0,030	-0,060
-128,541	-200,000	-0,009	-0,090
-127,526	-145,826	0,105	-0,007
-126,512	180,892	0,059	0,063
-125,497	-16,646	0,069	-0,031
-124,483	25,288	0,040	0,024
-123,468	51,665	0,049	-0,034
-122,453	283,043	0,047	-0,061
-121,439	-126,176	0,088	0,009
-120,424	800,000	0,046	-0,122
-119,410	-200,000	-0,003	0,073
-118,395	-200,000	-0,027	0,090
-117,380	291,096	-0,056	0,073
-116,366	-200,000	-0,015	0,115
-115,351	-200,000	0,020	0,157
-114,337	4,788	-0,127	-0,067
-113,322	800,000	0,034	0,069
-112,307	120,480	-0,045	0,041
-111,293	-45,528	0,146	0,052
-110,278	100,428	0,077	-0,065
-109,264	800,000	-0,045	0,114
-108,249	-53,781	-0,001	-0,000
-107,234	336,558	-0,095	-0,133
-106,220	83,714	-0,076	0,060
-105,205	-54,685	0,072	-0,024
-104,191	-187,626	-0,047	0,000
-103,176	-200,000	0,008	0,029
-102,162	800,000	0,058	0,128
-101,147	695,018	-0,035	-0,066
-100,132	-200,000	0,004	-0,064
-99,118	83,220	0,028	0,022
-98,103	-23,507	0,043	0,018
-97,089	-200,000	0,048	0,158
-96,074	800,000	0,035	0,089
-95,059	581,563	0,049	-0,088
-94,045	-200,000	0,002	0,031
-93,030	-155,544	0,055	0,003
-92,016	150,696	-0,054	0,053
-91,001	311,249	-0,073	-0,098
-89,986	69,763	0,086	0,064
-88,972	32,711	0,102	0,064
-87,957	-127,261	-0,059	-0,006
-86,943	787,812	0,040	-0,080
-85,928	800,000	-0,048	-0,140
-84,913	595,904	-0,047	-0,084
-83,899	45,558	-0,123	-0,082
-82,884	29,259	0,077	0,047
-81,870	-200,000	0,001	0,011
-80,855	316,648	-0,035	-0,048
-79,840	-200,000	-0,013	-0,107
-78,826	800,000	-0,066	-0,153
-77,811	-200,000	-0,011	-0,113
-76,797	-200,000	-0,011	0,083
-75,782	302,229	-0,015	0,021
-74,767	-34,432	-0,062	-0,024
-73,753	468,381	-0,077	0,125
-72,738	38,059	0,015	0,010
-71,724	-19,249	-0,087	0,039
-70,709	-13,517	-0,050	-0,023
-69,694	-124,477	-0,044	0,005
-68,680	-31,419	0,068	0,027
-67,665	800,000	-0,014	0,029
-66,651	-22,607	0,039	0,017
-65,636	147,400	-0,097	-0,094
-64,622	160,802	-0,034	0,034
-63,607	-200,000	-0,001	-0,039
-62,592	-39,288	0,061	0,023
-61,578	-200,000	-0,006	-0,087
-60,563	338,377	0,037	0,053
-59,549	151,903	-0,123	0,121
-58,534	-7,890	-1,653	-0,802
-57,519	800,000	-0,411	-1,092
-56,505	-200,000	-1,128	-4,888
-55,490	-144,637	0,666	-0,044
-54,476	800,000	5,260	12,197
-53,461	-200,000	16,107	279,455
-52,446	-200,000	704,705	2245,128
-51,432	562,280	1619,939	2837,945
-50,417	122,757	1622,705	1464,323
-49,403	84,032	1283,803	1010,438
-48,388	37,074	1028,901	655,377
-47,373	21,365	991,156	579,387
-46,359	20,281	979,687	569,086
-45,344	18,480	975,571	560,750
-44,330	18,631	974,302	560,493
-43,315	18,290	972,595	558,371
-42,300	18,295	971,508	557,740
-41,286	18,226	970,749	557,056
-40,271	18,251	969,526	556,414
-39,257	18,228	968,869	555,939
-38,242	18,209	968,007	555,361
-37,227	18,175	967,413	554,888
-36,213	18,247	966,349	554,490
-35,198	18,167	965,535	553,741
-34,184	18,230	964,474	553,317
-33,169	18,245	963,906	553,016
-32,154	18,271	963,024	552,573
-31,140	18,229	961,995	551,825
-30,125	18,291	961,340	551,628
-29,111	18,270	960,562	551,093
-28,096	18,250	960,069	550,721
-27,082	18,258	959,181	550,217
-26,067	18,258	958,345	549,716
-25,052	18,208	957,616	549,115
-24,038	18,261	956,790	548,790
-23,023	18,210	956,149	548,237
-22,009	18,270	955,450	548,005
-20,994	18,248	955,012	547,664
-19,979	18,243	954,245	547,183
-18,965	18,231	953,661	546,789
-17,950	18,243	953,147	546,510
-16,936	18,203	952,397	545,930
-15,921	18,160	951,683	545,361
-14,906	18,150	950,984	544,910
-13,892	18,143	950,310	544,479
-12,877	18,130	949,713	544,072
-11,863	18,053	949,153	543,484
-10,848	18,068	948,896	543,364
-9,833	18,207	948,020	543,284
-8,819	18,178	947,486	542,866
-7,804	18,065	946,920	542,157
-6,790	18,109	946,388	541,973
-5,775	18,134	945,658	541,611
-4,760	18,174	945,114	541,406
-3,746	18,115	944,625	540,918
-2,731	17,947	943,833	539,908
-1,717	17,878	943,043	539,214
-0,702	17,922	942,329	538,926
0,313	17,722	941,823	538,815
1,327	20,936	940,146	547,990
2,342	30,087	796,927	488,882
3,356	27,294	449,680	271,646
4,371	-2,356	295,939	149,023
5,386	-6,414	277,168	135,699
6,400	-7,531	271,326	131,786
7,415	-8,146	269,340	130,241
8,429	-7,919	267,795	129,691
9,444	-7,931	266,863	129,216
10,459	-7,971	266,227	128,860
11,473	-8,188	265,673	128,383
12,488	-8,231	265,114	128,062
13,502	-8,385	264,601	127,663
14,517	-8,360	264,240	127,500
15,531	-8,373	263,843	127,285
16,546	-8,280	263,294	127,093
17,561	-8,412	263,018	126,830
18,575	-8,126	262,624	126,887
19,590	-8,466	262,289	126,407
20,604	-8,471	262,099	126,300
21,619	-8,347	261,550	126,135
22,634	-8,562	261,400	125,858
23,648	-8,352	261,031	125,857
24,663	-8,335	260,816	125,758
25,677	-8,329	260,463	125,582
26,692	-8,549	260,376	125,332
27,707	-8,330	260,023	125,347
28,721	-8,563	259,812	125,026
29,736	-8,504	259,518	124,926
30,750	-8,635	259,127	124,610
31,765	-8,546	259,014	124,624
32,780	-8,470	258,708	124,532
33,794	-8,397	258,431	124,453
34,809	-8,529	258,294	124,259
35,823	-8,530	258,130	124,168
36,838	-8,715	257,763	123,817
37,853	-8,625	257,567	123,791
38,867	-8,601	257,280	123,663
39,882	-8,565	256,971	123,535
40,896	-8,514	256,859	123,516
41,911	-8,619	256,683	123,328
42,926	-8,802	256,378	123,009
43,940	-8,655	256,132	123,009
44,955	-8,930	256,019	122,703
45,969	-8,792	255,604	122,614
46,984	-9,115	255,580	122,308
47,999	-9,356	255,172	121,891
49,013	-9,224	254,836	121,836
50,028	-9,440	254,566	121,507
51,042	-9,478	254,289	121,331
52,057	-9,558	254,204	121,210
53,071	-9,366	254,001	121,269
54,086	-9,146	253,762	121,336
55,101	-9,390	253,748	121,106
56,115	-8,863	253,463	121,417
57,130	-8,496	253,347	121,669
58,144	-8,096	253,194	121,930
59,159	-8,050	253,166	121,946
60,174	-8,040	252,720	121,730
61,188	-8,203	252,670	121,553
62,203	-8,499	252,367	121,141
63,217	-8,536	252,173	121,006
64,232	-8,446	252,059	121,018
65,247	-8,248	251,741	121,025
66,261	-8,298	251,546	120,877
67,276	-8,719	251,198	120,337
68,290	-8,867	251,040	120,124
69,305	-8,981	250,738	119,871
70,320	-9,010	250,618	119,779
71,334	-8,465	250,509	120,182
72,349	-8,192	250,388	120,347
73,363	-8,254	250,229	120,207
74,378	-8,413	250,069	119,983
75,393	-8,476	249,690	119,737
76,407	-8,602	249,574	119,563
77,422	-8,629	249,303	119,400
78,436	-8,575	249,125	119,350
79,451	-8,405	248,748	119,303
80,466	-8,616	248,733	119,105
81,480	-8,755	248,511	118,871
82,495	-8,797	248,337	118,742
83,509	-8,466	247,994	118,847
84,524	-8,832	247,852	118,459
85,539	-8,886	247,584	118,275
86,553	-9,094	247,465	118,031
87,568	-8,873	247,294	118,126
88,582	-8,843	247,080	118,039
89,597	-8,919	246,936	117,896
90,611	-8,734	246,864	118,006
91,626	-8,597	246,656	118,011
92,641	-8,592	246,547	117,953
93,655	-8,760	246,223	117,646
94,670	-8,841	246,106	117,512
95,684	-8,657	245,733	117,477
96,699	-8,802	245,592	117,278
97,714	-8,741	245,333	117,195
98,728	-8,908	245,115	116,941
99,743	-8,829	244,969	116,927
100,757	-9,062	244,736	116,611
101,772	-8,794	244,645	116,781
102,787	-8,771	244,421	116,683
103,801	-8,750	244,339	116,651
104,816	-8,638	244,133	116,635
105,830	-8,725	244,208	116,587
106,845	-8,790	244,007	116,427
107,860	-8,669	243,692	116,367
108,874	-8,760	243,424	116,153
109,889	-8,780	243,264	116,050
110,903	-8,714	243,032	115,984
111,918	-8,649	242,841	115,936
112,933	-8,843	242,732	115,713
113,947	-8,665	242,423	115,703
114,962	-8,577	242,492	115,798
115,976	-8,777	242,188	115,477
116,991	-8,770	242,150	115,454
118,006	-8,649	241,899	115,425
119,020	-8,477	241,841	115,528
120,035	-8,508	241,643	115,398
121,049	-8,246	241,441	115,506
122,064	-8,512	241,210	115,167
123,079	-8,581	241,046	115,022
124,093	-8,664	240,819	114,836
125,108	-8,569	240,459	114,731
126,122	-9,248	240,485	114,178
127,137	-9,090	240,159	114,142
128,151	-8,926	240,028	114,204
129,166	-8,971	239,835	114,064
130,181	-8,927	239,597	113,977
131,195	-8,831	239,388	113,945
132,210	-8,794	239,233	113,891
133,224	-8,736	239,238	113,931
134,239	-8,659	238,903	113,824
135,254	-8,594	238,904	113,867
136,268	-8,752	238,624	113,595
137,283	-9,220	238,471	113,133
138,297	-9,216	238,210	113,003
139,312	-8,907	237,769	113,033
140,327	-8,828	237,912	113,155
141,341	-8,176	237,796	113,616
142,356	-8,195	237,757	113,572
143,370	-8,153	237,607	113,524
144,385	-8,291	237,474	113,339
145,400	-7,930	237,194	113,486
146,414	-7,984	237,021	113,350
147,429	-8,273	236,796	113,000
148,443	-8,248	236,643	112,937
149,458	-8,078	236,474	112,982
150,473	-8,148	236,388	112,876
151,487	-8,229	236,327	112,770
152,502	-8,126	236,138	112,753
153,516	-8,181	235,909	112,590
154,531	-8,026	235,618	112,565
155,546	-8,244	235,387	112,270
156,560	-8,743	235,482	111,907
157,575	-8,376	235,069	111,994
158,589	-8,315	234,863	111,934
159,604	-8,101	234,891	112,107
160,619	-7,960	234,735	112,135
161,633	-8,020	234,541	111,985
162,648	-7,949	234,487	112,005
163,662	-8,272	234,335	111,667
164,677	-8,379	234,015	111,419
165,692	-8,378	233,850	111,332
166,706	-8,001	233,866	111,628
167,721	-7,974	233,781	111,599
168,735	-7,810	233,599	111,632
169,750	-8,056	233,308	111,288
170,764	-8,018	233,214	111,263
171,779	-8,031	233,158	111,217
172,794	-8,206	232,979	110,984
173,808	-8,256	232,791	110,845
174,823	-8,813	232,313	110,168
175,837	-8,926	232,219	110,025
176,852	-8,424	232,301	110,450
177,867	-7,889	232,018	110,725
178,881	-8,102	231,987	110,533
179,896	-8,143	231,893	110,446
180,910	-7,971	231,498	110,383
181,925	-8,107	231,411	110,226
182,940	-7,973	231,345	110,289
183,954	-8,200	231,275	110,068
184,969	-7,930	231,099	110,186
185,983	-7,894	231,006	110,160
186,998	-7,839	230,809	110,099
188,013	-7,778	230,550	110,013
189,027	-8,032	230,501	109,782
190,042	-7,973	230,366	109,754
191,056	-8,036	230,190	109,611
192,071	-7,938	230,091	109,630
193,086	-7,649	229,836	109,724
194,100	-7,818	229,688	109,512
195,115	-7,895	229,452	109,330
196,129	-7,992	229,351	109,197
197,144	-4,077	230,538	112,800
198,159	0,236	231,971	116,862
199,173	3,317	232,765	119,662
200,188	3,636	232,670	119,852
201,202	3,673	232,574	119,821
202,217	3,816	232,383	119,823
203,232	3,937	232,227	119,825
204,246	4,219	232,067	119,952
205,261	4,107	232,122	119,883
206,275	4,281	231,869	119,876
207,290	4,223	231,890	119,832
208,304	4,326	231,557	119,729
209,319	4,099	231,385	119,453
210,334	4,278	231,164	119,467
211,348	4,157	230,986	119,271
212,363	3,487	230,784	118,638
213,377	3,201	230,546	118,284
214,392	3,272	230,404	118,255
215,407	3,392	230,384	118,326
216,421	3,489	230,189	118,291
217,436	3,302	230,025	118,052
218,450	2,948	229,800	117,654
219,465	3,089	229,498	117,597
220,480	3,452	229,453	117,842
221,494	3,268	229,313	117,619
222,509	3,388	229,229	117,657
223,523	3,197	228,984	117,374
224,538	3,273	228,887	117,372
225,553	3,401	228,716	117,373
226,567	3,474	228,694	117,406
227,582	3,796	228,603	117,596
228,596	3,646	228,582	117,460
229,611	3,739	228,224	117,336
230,626	3,280	228,089	116,906
231,640	3,370	227,888	116,861
232,655	3,491	227,955	116,977
233,669	4,105	227,820	117,366
234,684	4,020	227,681	117,219
235,699	3,968	227,372	117,010
236,713	3,437	227,307	116,563
237,728	3,286	227,287	116,426
238,742	3,287	226,776	116,155
239,757	3,503	226,604	116,221
240,772	3,348	226,522	116,051
241,786	3,283	226,351	115,904
242,801	3,643	226,403	116,192
243,815	3,606	226,407	116,156
244,830	3,707	226,055	116,042
245,844	3,737	225,784	115,915
246,859	3,648	225,709	115,799
247,874	3,706	225,637	115,795
248,888	3,748	225,404	115,697
249,903	3,588	225,391	115,559
250,917	3,656	225,076	115,439
251,932	3,804	224,735	115,364
252,947	3,229	224,776	114,944
253,961	3,451	224,634	115,027
254,976	3,310	224,461	114,823
255,990	3,670	224,307	115,003
257,005	3,601	224,202	114,888
258,020	3,459	224,242	114,792
259,034	3,991	224,101	115,107
260,049	3,691	223,816	114,726
261,063	3,723	223,716	114,689
262,078	3,736	223,552	114,604
263,093	3,818	223,491	114,624
264,107	3,621	223,354	114,397
265,122	3,616	223,272	114,341
266,136	3,905	223,195	114,506
267,151	3,978	222,941	114,420
268,166	3,458	222,646	113,872
269,180	3,014	222,502	113,459
270,195	3,290	222,366	113,584
271,209	3,241	222,228	113,467
272,224	3,402	222,161	113,542
273,239	3,786	221,901	113,684
274,253	3,456	221,705	113,329
275,268	3,253	221,614	113,122
276,282	3,116	221,405	112,905
277,297	3,237	221,234	112,896
278,312	3,034	221,203	112,720
279,326	3,262	221,149	112,851
280,341	3,225	220,964	112,720
281,355	3,508	220,852	112,861
282,370	3,643	220,562	112,801
283,384	3,231	220,422	112,418
284,399	3,113	220,102	112,158
285,414	3,198	220,231	112,275
286,428	3,470	220,083	112,389
287,443	3,635	220,057	112,487
288,457	3,569	219,810	112,303
289,472	3,642	219,592	112,234
290,487	2,823	219,427	111,542
291,501	2,824	219,295	111,465
292,516	3,213	219,141	111,661
293,530	3,199	218,994	111,566
294,545	3,036	219,062	111,471
295,560	3,455	218,816	111,642
296,574	3,398	218,687	111,525
297,589	3,327	218,517	111,376
298,603	3,590	218,267	111,430
299,618	3,331	218,284	111,241
300,633	3,467	218,173	111,273
301,647	3,618	218,136	111,353
302,662	3,750	217,911	111,325
303,676	3,740	217,669	111,183
304,691	3,877	217,593	111,234
305,706	3,789	217,469	111,097
306,720	3,661	217,348	110,933
307,735	3,501	217,168	110,716
308,749	3,523	216,971	110,621
309,764	3,692	216,952	110,723
310,779	3,679	216,788	110,620
311,793	3,487	216,527	110,340
312,808	3,863	216,387	110,529
313,822	3,481	216,368	110,234
314,837	3,478	216,023	110,047
315,852	3,144	215,988	109,779
316,866	3,226	215,962	109,816
317,881	3,418	215,872	109,898
318,895	3,892	215,632	110,105
319,910	3,563	215,422	109,752
320,925	3,387	215,209	109,508
321,939	3,294	215,142	109,398
322,954	3,320	214,987	109,328
323,968	3,513	215,083	109,505
324,983	3,649	215,002	109,551
325,997	3,781	214,802	109,534
327,012	3,440	214,506	109,130
328,027	3,412	214,525	109,110
329,041	3,811	214,432	109,337
330,056	3,847	214,333	109,302
331,070	3,522	213,906	108,844
332,085	3,116	213,838	108,512
333,100	3,336	213,757	108,617
334,114	3,359	213,686	108,587
335,129	3,502	213,551	108,610
336,143	3,462	213,186	108,387
337,158	3,288	213,255	108,289
338,173	3,280	213,048	108,169
339,187	3,107	212,882	107,953
340,202	3,114	212,725	107,868
341,216	3,171	212,474	107,772
342,231	3,187	212,495	107,784
343,246	3,248	212,255	107,696
344,260	3,404	212,184	107,759
345,275	3,298	212,156	107,661
346,289	3,562	211,881	107,698
347,304	3,625	211,855	107,719
348,319	3,421	211,700	107,488
349,333	3,314	211,612	107,358
350,348	3,545	211,544	107,476
351,362	3,647	211,384	107,456
352,377	3,322	211,332	107,193
353,392	3,463	211,027	107,127
354,406	3,508	210,936	107,103
355,421	193,982	1343,385	1423,430
356,435	154,861	1481,382	1423,458
