DTS Sentinel unit serial number:	SN410029Multiplexer serial number:	ORYXHardware model number:	OX2-SRSoftware version number:	ORYX F/W v4,00 Oryx Data Collector v3.7.2.0data status	okinstallation	B6 Nyhavnadifferential loss correction	single-endedforward channel	channel 2reverse channel	N/Adate	2023/12/09time	04:25:08forward acquisition time	300,00reverse acquisition time	0,00gamma	499,1914k internal	0,3148k external	0,3148temperature offset calibration	1,0000default loss term (dB/km)	0,3820temperature slope calibration	1,0000multiplexer offset coefficient	1,0000multiplexer slope coefficient	1,0000fibre end	0,00T internal ref (°C)	17,01T ext. ref 1 (°C)	1,57T ext. ref 2 (°C)	1,58length (m)	temperature (°C)	Stokes	anti-Stokes-744,400	-13,253	0,066	0,031
-743,385	-142,112	-0,316	0,023
-742,371	-172,362	0,141	0,003
-741,356	-187,832	-0,251	0,002
-740,342	586,226	0,030	-0,055
-739,327	-105,750	-0,198	-0,033
-738,312	-61,991	-0,047	0,014
-737,298	-73,486	-0,281	0,075
-736,283	194,980	0,109	-0,123
-735,269	-81,148	-0,299	0,073
-734,254	-9,052	0,142	0,070
-733,239	-12,267	-0,399	-0,192
-732,225	-132,111	0,163	-0,015
-731,210	348,135	-0,020	0,029
-730,196	-105,419	-0,020	0,003
-729,181	467,583	0,040	-0,066
-728,167	800,000	0,035	-0,100
-727,152	-200,000	-0,016	-0,149
-726,137	800,000	0,010	0,029
-725,123	165,098	-0,054	0,056
-724,108	-200,000	0,021	-0,078
-723,094	133,390	-0,201	-0,192
-722,079	-79,413	-0,124	-0,031
-721,064	800,000	0,049	0,125
-720,050	-138,022	-0,192	0,016
-719,035	-200,000	-0,027	-0,112
-718,021	38,489	0,187	-0,123
-717,006	319,918	0,019	-0,026
-715,991	800,000	-0,013	-0,031
-714,977	-200,000	0,000	0,086
-713,962	-200,000	-0,016	-0,078
-712,948	45,982	-0,096	-0,065
-711,933	-127,747	-0,085	-0,009
-710,918	-200,000	0,006	-0,151
-709,904	-48,603	-0,154	0,054
-708,889	251,833	0,118	0,149
-707,875	444,241	0,079	-0,129
-706,860	-57,043	0,014	0,005
-705,845	667,977	-0,065	-0,125
-704,831	541,587	0,056	0,098
-703,816	187,463	0,033	0,037
-702,802	-152,049	-0,186	-0,010
-701,787	800,000	-0,021	-0,049
-700,772	-88,726	0,092	-0,020
-699,758	-200,000	-0,002	0,127
-698,743	-150,695	-0,033	0,002
-697,729	396,955	-0,020	-0,032
-696,714	0,640	0,023	0,012
-695,699	-103,863	-0,169	-0,029
-694,685	-200,000	0,008	-0,071
-693,670	193,459	-0,073	-0,082
-692,656	487,113	0,028	-0,048
-691,641	800,000	0,073	0,166
-690,627	-200,000	-0,013	0,130
-689,612	182,820	-0,059	0,064
-688,597	180,550	-0,058	0,063
-687,583	-136,904	0,090	-0,008
-686,568	389,756	0,068	-0,104
-685,554	-76,014	-0,053	0,014
-684,539	-200,000	-0,011	0,148
-683,524	-200,000	-0,014	0,214
-682,510	-72,995	0,010	0,003
-681,495	-122,331	0,045	0,005
-680,481	-8,457	-0,123	-0,061
-679,466	-31,178	-0,031	0,013
-678,451	-200,000	-0,026	0,093
-677,437	-200,000	0,006	0,034
-676,422	99,302	0,024	-0,021
-675,408	-126,772	-0,082	-0,009
-674,393	-85,456	-0,095	-0,022
-673,378	-11,559	-0,120	-0,058
-672,364	-200,000	-0,010	-0,038
-671,349	-200,000	-0,028	-0,173
-670,335	116,778	0,100	-0,091
-669,320	21,213	0,108	-0,065
-668,305	101,938	-0,039	-0,034
-667,291	-200,000	-0,026	0,000
-666,276	-200,000	-0,016	-0,098
-665,262	289,603	-0,092	-0,123
-664,247	-200,000	-0,023	-0,078
-663,232	-200,000	0,051	0,187
-662,218	-200,000	-0,023	0,213
-661,203	-186,356	-0,198	-0,002
-660,189	-127,311	-0,023	-0,002
-659,174	-200,000	0,002	-0,064
-658,159	59,156	-0,062	0,045
-657,145	-110,797	-0,158	-0,024
-656,130	-72,964	0,029	-0,008
-655,116	304,180	0,081	0,110
-654,101	-142,068	0,115	0,008
-653,086	253,865	-0,082	-0,104
-652,072	404,235	-0,052	-0,081
-651,057	147,746	0,042	-0,042
-650,043	-139,530	0,057	0,004
-649,028	0,560	0,063	-0,033
-648,014	-200,000	-0,005	0,060
-646,999	-194,057	-0,074	0,000
-645,984	299,439	-0,044	0,060
-644,970	-67,977	0,106	0,030
-643,955	-200,000	0,039	-0,159
-642,941	-67,956	0,143	0,041
-641,926	800,000	-0,057	0,136
-640,911	-200,000	-0,005	0,052
-639,897	97,390	-0,079	-0,067
-638,882	52,595	-0,073	-0,051
-637,868	-167,210	-0,111	-0,003
-636,853	346,005	0,070	0,102
-635,838	-113,718	-0,068	0,010
-634,824	86,136	-0,102	-0,082
-633,809	203,990	-0,072	0,083
-632,795	-67,469	0,087	-0,025
-631,780	-9,008	-0,037	0,018
-630,765	800,000	0,032	0,070
-629,751	-200,000	-0,012	-0,084
-628,736	-79,978	-0,287	-0,070
-627,722	101,669	0,096	0,083
-626,707	27,793	0,056	-0,034
-625,692	376,296	0,073	0,110
-624,678	384,707	-0,052	-0,078
-623,663	-74,827	-0,158	0,041
-622,649	54,827	-0,056	0,040
-621,634	788,032	-0,063	-0,129
-620,619	-200,000	-0,024	-0,203
-619,605	-86,495	0,097	0,022
-618,590	-200,000	0,034	0,118
-617,576	368,540	0,010	0,016
-616,561	-121,730	-0,046	-0,005
-615,546	15,357	0,088	0,051
-614,532	-60,241	-0,107	-0,033
-613,517	112,539	0,097	-0,086
-612,503	319,950	-0,099	-0,138
-611,488	-200,000	-0,021	0,081
-610,474	140,389	-0,040	0,039
-609,459	-20,805	0,123	0,055
-608,444	800,000	-0,006	-0,017
-607,430	-200,000	-0,031	-0,132
-606,415	716,926	0,039	0,076
-605,401	680,426	-0,056	0,108
-604,386	-103,645	0,135	-0,023
-603,371	18,834	0,207	0,122
-602,357	20,490	-0,066	0,039
-601,342	-184,616	0,095	-0,001
-600,328	800,000	0,061	-0,184
-599,313	-40,703	0,131	0,050
-598,298	47,125	0,048	-0,033
-597,284	-12,502	-0,036	-0,017
-596,269	163,959	0,047	0,048
-595,255	-152,763	0,122	0,006
-594,240	297,767	0,066	-0,089
-593,225	800,000	0,067	-0,170
-592,211	237,216	-0,147	-0,179
-591,196	-200,000	0,003	-0,079
-590,182	-200,000	0,015	-0,064
-589,167	518,927	-0,082	0,143
-588,152	236,520	0,070	0,085
-587,138	720,191	0,015	0,028
-586,123	800,000	-0,050	-0,104
-585,109	93,327	-0,034	0,029
-584,094	-62,957	-0,130	0,039
-583,079	-81,668	0,010	-0,002
-582,065	391,978	-0,049	-0,075
-581,050	-71,776	0,096	0,026
-580,036	-200,000	0,012	0,095
-579,021	-200,000	-0,008	-0,154
-578,006	244,914	-0,021	-0,026
-576,992	-200,000	0,017	-0,113
-575,977	86,951	0,028	-0,022
-574,963	265,834	0,062	-0,080
-573,948	24,921	-0,112	0,068
-572,934	123,125	-0,064	-0,059
-571,919	-200,000	-0,002	-0,073
-570,904	541,750	-0,093	-0,163
-569,890	-24,682	-0,114	-0,050
-568,875	515,718	0,047	0,082
-567,861	-70,744	-0,050	-0,014
-566,846	800,000	-0,025	0,070
-565,831	-200,000	-0,034	-0,121
-564,817	197,308	-0,035	0,039
-563,802	104,064	-0,091	-0,079
-562,788	35,723	0,052	-0,033
-561,773	106,515	0,085	0,074
-560,758	26,392	0,057	0,035
-559,744	-160,006	-0,143	0,006
-558,729	32,387	-0,072	0,046
-557,715	800,000	-0,022	-0,052
-556,700	546,640	0,073	-0,128
-555,685	-17,825	-0,073	-0,034
-554,671	769,257	0,068	0,137
-553,656	-200,000	0,044	0,160
-552,642	774,595	0,060	0,120
-551,627	206,627	-0,024	-0,028
-550,612	-37,041	-0,041	-0,016
-549,598	-142,524	0,036	-0,003
-548,583	488,642	0,097	0,163
-547,569	-200,000	-0,011	0,056
-546,554	-54,974	0,111	-0,036
-545,539	661,732	0,069	0,130
-544,525	-200,000	0,012	0,046
-543,510	123,598	-0,069	-0,064
-542,496	232,467	0,032	-0,038
-541,481	-71,771	-0,101	0,027
-540,466	-200,000	0,001	-0,058
-539,452	800,000	0,049	-0,135
-538,437	-200,000	-0,011	-0,038
-537,423	-155,056	0,062	0,003
-536,408	59,580	0,067	-0,049
-535,393	-200,000	0,022	-0,087
-534,379	-62,405	0,093	-0,028
-533,364	61,896	-0,087	-0,063
-532,350	-200,000	-0,031	-0,230
-531,335	-200,000	-0,010	0,134
-530,321	-77,762	0,083	0,021
-529,306	-24,587	0,133	-0,058
-528,291	184,833	0,060	0,066
-527,277	-167,762	-0,064	-0,002
-526,262	610,718	-0,029	0,054
-525,248	458,627	0,047	0,076
-524,233	47,882	0,065	0,044
-523,218	364,554	-0,040	0,059
-522,204	-200,000	-0,001	-0,122
-521,189	-200,000	0,022	-0,087
-520,175	49,119	-0,104	-0,072
-519,160	559,338	-0,036	-0,064
-518,145	-200,000	0,012	-0,155
-517,131	257,146	0,098	-0,123
-516,116	-21,819	0,108	0,048
-515,102	-128,942	-0,226	-0,023
-514,087	525,142	-0,043	-0,074
-513,072	800,000	-0,021	-0,048
-512,058	158,994	0,058	0,059
-511,043	-200,000	-0,041	-0,160
-510,029	450,204	0,083	0,135
-509,014	64,115	-0,052	-0,039
-507,999	-20,123	0,120	-0,054
-506,985	741,868	-0,042	-0,083
-505,970	18,855	-0,109	0,064
-504,956	103,981	0,048	0,041
-503,941	113,768	-0,013	0,011
-502,926	-41,720	-0,075	0,028
-501,912	-9,373	0,150	0,073
-500,897	7,667	-0,160	0,087
-499,883	-124,828	0,083	0,009
-498,868	-200,000	-0,017	-0,129
-497,853	188,215	0,050	0,055
-496,839	191,421	-0,035	-0,039
-495,824	800,000	0,020	-0,050
-494,810	231,530	0,009	0,011
-493,795	800,000	-0,028	0,086
-492,781	128,618	0,043	0,040
-491,766	-21,374	-0,045	0,020
-490,751	-20,329	-0,035	-0,016
-489,737	-200,000	0,002	0,030
-488,722	800,000	0,014	0,044
-487,708	-0,962	-0,065	0,034
-486,693	147,258	0,042	-0,042
-485,678	-139,820	-0,049	0,004
-484,664	-200,000	-0,018	-0,093
-483,649	320,777	-0,120	-0,168
-482,635	77,695	0,062	0,048
-481,620	97,107	-0,124	0,104
-480,605	385,651	0,032	0,049
-479,591	-31,039	-0,077	0,032
-478,576	442,674	-0,048	0,077
-477,562	395,798	-0,099	-0,152
-476,547	29,347	-0,143	-0,089
-475,532	800,000	0,039	-0,102
-474,518	-34,938	0,072	0,029
-473,503	-37,985	0,092	-0,035
-472,489	800,000	0,024	0,071
-471,474	800,000	-0,042	-0,096
-470,459	103,170	0,104	-0,089
-469,445	-88,379	-0,125	-0,027
-468,430	-200,000	-0,005	-0,057
-467,416	530,212	-0,048	0,084
-466,401	-16,013	0,137	-0,064
-465,386	-190,660	-0,012	0,000
-464,372	-10,673	0,056	-0,027
-463,357	207,676	-0,033	0,038
-462,343	123,868	0,080	-0,074
-461,328	800,000	-0,040	-0,103
-460,313	107,181	-0,058	-0,051
-459,299	110,986	-0,075	-0,066
-458,284	-200,000	0,019	-0,130
-457,270	-200,000	-0,018	0,081
-456,255	-6,596	-0,084	-0,042
-455,241	100,470	0,087	0,074
-454,226	800,000	-0,030	-0,064
-453,211	629,181	-0,057	-0,107
-452,197	-89,781	0,118	-0,025
-451,182	-59,614	0,113	-0,035
-450,168	-12,803	-0,084	0,040
-449,153	52,393	-0,077	-0,054
-448,138	165,789	-0,090	-0,093
-447,124	383,845	0,072	-0,109
-446,109	-200,000	-0,004	-0,036
-445,095	-200,000	0,027	0,134
-444,080	5,892	-0,099	-0,053
-443,065	-148,067	-0,084	-0,005
-442,051	352,373	0,104	-0,151
-441,036	-200,000	0,002	-0,129
-440,022	-18,996	-0,029	0,013
-439,007	36,580	-0,125	-0,080
-437,992	220,050	0,065	-0,077
-436,978	169,743	0,077	0,081
-435,963	800,000	-0,035	0,108
-434,949	61,937	-0,084	-0,061
-433,934	167,260	0,080	-0,083
-432,919	36,255	0,066	0,043
-431,905	-43,269	0,048	0,018
-430,890	30,192	0,182	0,113
-429,876	800,000	-0,041	0,123
-428,861	294,755	0,043	0,057
-427,846	535,925	-0,041	-0,072
-426,832	72,101	0,093	-0,071
-425,817	-39,636	0,118	-0,045
-424,803	157,204	0,053	0,054
-423,788	-200,000	-0,003	0,149
-422,773	800,000	0,049	0,131
-421,759	103,101	0,006	-0,005
-420,744	800,000	0,015	0,033
-419,730	59,908	0,126	0,091
-418,715	-141,010	-0,015	-0,001
-417,701	-82,837	0,027	0,006
-416,686	-200,000	0,027	0,096
-415,671	-200,000	0,009	0,190
-414,657	598,098	0,051	0,093
-413,642	270,929	0,029	0,037
-412,628	800,000	-0,029	0,090
-411,613	-146,145	-0,072	-0,005
-410,598	800,000	0,056	-0,121
-409,584	-200,000	0,003	-0,038
-408,569	30,464	0,012	0,007
-407,555	46,294	0,113	0,076
-406,540	9,128	-0,147	0,081
-405,525	-200,000	-0,011	0,058
-404,511	800,000	0,055	-0,144
-403,496	-200,000	-0,026	-0,091
-402,482	800,000	0,022	0,072
-401,467	800,000	-0,024	0,065
-400,452	-126,519	0,061	0,007
-399,438	-22,821	0,070	-0,031
-398,423	-77,233	-0,143	-0,036
-397,409	64,625	0,072	-0,053
-396,394	502,183	-0,068	0,115
-395,379	-64,721	-0,157	-0,046
-394,365	800,000	-0,005	-0,012
-393,350	-200,000	0,017	0,106
-392,336	-200,000	-0,006	0,093
-391,321	-79,067	-0,084	0,021
-390,306	5,031	-0,148	-0,079
-389,292	800,000	0,028	0,058
-388,277	58,882	-0,091	-0,065
-387,263	-139,799	0,038	-0,003
-386,248	800,000	-0,024	0,059
-385,233	232,641	-0,098	-0,118
-384,219	397,160	-0,038	-0,058
-383,204	-47,586	-0,196	0,069
-382,190	-200,000	0,034	-0,138
-381,175	404,825	0,002	-0,004
-380,160	153,310	-0,065	0,064
-379,146	-128,117	-0,024	-0,002
-378,131	-36,736	-0,009	-0,004
-377,117	82,377	-0,049	0,039
-376,102	-200,000	0,001	0,035
-375,088	-200,000	-0,018	0,090
-374,073	-29,669	-0,084	-0,035
-373,058	322,345	-0,071	-0,099
-372,044	-83,388	0,092	-0,021
-371,029	-200,000	-0,006	0,166
-370,015	800,000	0,053	-0,136
-369,000	800,000	-0,077	0,183
-367,985	174,997	0,034	-0,036
-366,971	-41,838	0,108	0,040
-365,956	-200,000	0,005	0,051
-364,942	-75,028	0,087	0,022
-363,927	-200,000	-0,017	0,063
-362,912	-107,357	0,105	0,017
-361,898	323,577	-0,059	0,082
-360,883	-74,991	-0,100	0,026
-359,869	-200,000	0,000	0,115
-358,854	36,011	-0,075	-0,048
-357,839	687,256	0,038	0,073
-356,825	-25,991	0,094	0,040
-355,810	250,814	-0,028	0,035
-354,796	-200,000	-0,011	-0,125
-353,781	-18,645	-0,180	-0,081
-352,766	-200,000	0,003	-0,106
-351,752	-200,000	0,004	0,030
-350,737	800,000	0,061	0,143
-349,723	-76,176	-0,121	0,031
-348,708	-77,611	-0,047	0,012
-347,693	297,285	-0,010	-0,013
-346,679	59,139	0,149	0,107
-345,664	-43,669	-0,082	0,030
-344,650	-3,122	-0,176	-0,089
-343,635	-200,000	0,008	0,032
-342,620	468,118	-0,055	0,091
-341,606	-200,000	0,028	0,107
-340,591	212,967	-0,042	-0,048
-339,577	-67,059	0,054	0,016
-338,562	187,678	-0,095	0,103
-337,548	391,292	-0,032	0,049
-336,533	-0,392	0,201	0,104
-335,518	800,000	-0,071	0,164
-334,504	-10,694	0,121	-0,058
-333,489	347,640	-0,035	-0,051
-332,475	340,721	-0,047	-0,067
-331,460	-200,000	-0,007	-0,062
-330,445	-40,189	-0,045	-0,017
-329,431	44,492	-0,102	-0,068
-328,416	-200,000	-0,022	0,150
-327,402	725,935	0,021	0,041
-326,387	800,000	-0,021	-0,054
-325,372	56,002	-0,105	-0,074
-324,358	800,000	0,076	-0,168
-323,343	597,543	-0,014	-0,026
-322,329	-71,086	0,118	-0,032
-321,314	-200,000	0,004	-0,047
-320,299	-82,237	-0,071	0,017
-319,285	800,000	-0,032	0,069
-318,270	800,000	-0,046	0,113
-317,256	-200,000	-0,032	-0,121
-316,241	236,803	0,021	-0,026
-315,226	37,352	0,152	0,098
-314,212	-19,702	0,054	0,024
-313,197	6,894	-0,038	0,020
-312,183	187,366	0,025	-0,027
-311,168	-110,425	-0,097	0,015
-310,153	341,854	-0,034	-0,048
-309,139	99,523	0,095	0,080
-308,124	-200,000	-0,003	0,112
-307,110	800,000	-0,013	0,034
-306,095	800,000	0,034	0,089
-305,080	-200,000	0,000	0,247
-304,066	769,141	0,025	0,049
-303,051	-95,655	-0,061	0,012
-302,037	-36,092	-0,055	-0,022
-301,022	-200,000	-0,003	-0,039
-300,008	-200,000	-0,016	0,130
-298,993	245,026	0,035	-0,043
-297,978	798,704	-0,044	0,088
-296,964	-102,263	-0,099	-0,017
-295,949	-200,000	-0,009	-0,053
-294,935	559,166	0,054	0,095
-293,920	50,611	0,098	0,067
-292,905	-200,000	-0,003	-0,039
-291,891	115,897	-0,041	-0,036
-290,876	24,188	0,115	-0,069
-289,862	163,144	0,008	-0,008
-288,847	115,389	-0,057	-0,051
-287,832	-193,441	-0,054	0,000
-286,818	161,931	-0,091	-0,093
-285,803	227,962	0,129	0,152
-284,789	172,022	0,092	0,096
-283,774	279,198	0,101	0,132
-282,759	27,747	-0,064	-0,039
-281,745	-147,863	-0,109	0,006
-280,730	-108,113	0,182	-0,028
-279,716	800,000	0,034	0,098
-278,701	-200,000	0,009	0,078
-277,686	-75,593	-0,065	-0,017
-276,672	-200,000	-0,027	0,148
-275,657	-200,000	0,005	-0,040
-274,643	-200,000	0,003	-0,120
-273,628	-83,884	0,047	-0,011
-272,613	-200,000	-0,011	-0,073
-271,599	-200,000	0,003	0,023
-270,584	-36,522	-0,012	0,005
-269,570	-200,000	-0,009	0,251
-268,555	800,000	-0,060	-0,165
-267,540	335,345	-0,039	-0,055
-266,526	462,188	-0,039	-0,064
-265,511	163,401	-0,072	-0,073
-264,497	-200,000	0,017	0,075
-263,482	-200,000	0,008	0,054
-262,467	570,513	-0,074	0,131
-261,453	101,387	0,140	-0,118
-260,438	-200,000	-0,023	-0,142
-259,424	-200,000	0,029	0,134
-258,409	-163,962	-0,195	0,006
-257,395	-2,515	0,080	0,041
-256,380	-126,845	0,119	-0,013
-255,365	-200,000	0,026	0,110
-254,351	-200,000	0,011	0,082
-253,336	-185,053	0,040	0,000
-252,322	151,341	-0,100	0,099
-251,307	-200,000	0,046	-0,169
-250,292	-120,039	0,108	0,013
-249,278	283,604	-0,059	0,077
-248,263	-85,997	0,103	-0,023
-247,249	152,629	0,083	-0,082
-246,234	536,608	-0,031	0,053
-245,219	-200,000	0,005	-0,017
-244,205	351,859	0,081	-0,117
-243,190	-79,698	0,138	0,033
-242,176	800,000	0,041	-0,108
-241,161	605,008	0,055	0,101
-240,146	-129,883	0,066	0,006
-239,132	800,000	0,020	-0,048
-238,117	-54,189	-0,094	-0,031
-237,103	-1,842	-0,060	0,031
-236,088	253,346	-0,072	-0,089
-235,073	-104,434	-0,134	0,022
-234,059	800,000	0,065	-0,144
-233,044	27,475	0,086	0,052
-232,030	-171,405	0,036	0,001
-231,015	-152,888	-0,210	-0,011
-230,000	-13,863	-0,051	-0,024
-228,986	297,690	0,079	-0,105
-227,971	223,332	-0,041	0,047
-226,957	-200,000	-0,020	-0,066
-225,942	-68,126	0,115	-0,032
-224,927	7,282	0,053	0,029
-223,913	-27,384	0,021	0,009
-222,898	-167,780	-0,073	-0,002
-221,884	-124,145	-0,189	-0,021
-220,869	16,293	-0,094	0,054
-219,855	-200,000	-0,001	0,011
-218,840	53,926	0,007	0,005
-217,825	-200,000	-0,012	0,110
-216,811	-77,333	0,095	0,024
-215,796	-200,000	-0,007	0,054
-214,782	-200,000	0,007	-0,074
-213,767	59,092	0,124	0,088
-212,752	-182,972	0,078	0,001
-211,738	339,733	0,042	0,059
-210,723	800,000	0,017	0,048
-209,709	242,120	-0,063	0,077
-208,694	333,385	-0,045	0,063
-207,679	713,040	0,049	-0,094
-206,665	-18,870	-0,074	0,033
-205,650	-74,046	0,115	-0,030
-204,636	28,681	0,052	0,032
-203,621	800,000	-0,026	0,079
-202,606	-100,385	0,057	-0,010
-201,592	800,000	-0,065	-0,173
-200,577	522,142	-0,081	0,138
-199,563	-110,619	-0,042	-0,006
-198,548	-200,000	0,002	-0,026
-197,533	-90,340	-0,110	0,023
-196,519	-200,000	0,008	0,112
-195,504	158,964	0,028	-0,029
-194,490	-165,886	0,085	0,003
-193,475	252,880	-0,051	0,063
-192,460	68,264	-0,083	0,061
-191,446	-13,247	0,199	-0,093
-190,431	-200,000	-0,002	0,010
-189,417	152,658	-0,018	0,018
-188,402	-147,346	0,070	-0,004
-187,387	800,000	-0,036	-0,111
-186,373	-71,518	-0,072	0,019
-185,358	-60,456	0,022	0,007
-184,344	-200,000	-0,000	-0,039
-183,329	384,750	-0,043	0,064
-182,315	800,000	-0,031	0,082
-181,300	453,746	0,045	-0,073
-180,285	-200,000	-0,004	0,098
-179,271	-200,000	0,015	-0,063
-178,256	-126,128	0,068	-0,007
-177,242	0,533	-0,044	-0,023
-176,227	800,000	0,016	0,045
-175,212	91,276	0,116	0,094
-174,198	800,000	-0,040	-0,128
-173,183	-200,000	-0,027	-0,086
-172,169	325,502	0,055	-0,076
-171,154	800,000	-0,042	-0,126
-170,139	91,873	0,033	-0,027
-169,125	673,743	-0,033	-0,062
-168,110	24,409	0,153	0,091
-167,096	800,000	0,018	0,051
-166,081	649,243	-0,070	-0,131
-165,066	318,387	-0,056	-0,077
-164,052	800,000	-0,005	0,014
-163,037	-177,109	-0,066	0,001
-162,023	-140,533	0,145	0,011
-161,008	189,813	0,047	0,051
-159,993	-171,390	0,101	0,002
-158,979	280,935	-0,018	0,023
-157,964	-200,000	0,018	-0,087
-156,950	800,000	-0,040	0,084
-155,935	47,720	0,111	-0,075
-154,920	327,533	0,052	-0,072
-153,906	-141,897	0,147	-0,010
-152,891	295,829	0,046	0,061
-151,877	800,000	0,033	-0,095
-150,862	-28,909	0,083	-0,034
-149,847	-200,000	0,001	0,010
-148,833	-38,845	0,077	0,029
-147,818	126,326	0,037	0,034
-146,804	800,000	0,026	-0,073
-145,789	800,000	0,071	0,206
-144,775	69,356	0,091	-0,067
-143,760	-200,000	-0,027	-0,114
-142,745	-64,238	0,095	-0,028
-141,731	614,318	0,050	-0,091
-140,716	-200,000	0,023	-0,096
-139,702	173,416	0,080	0,083
-138,687	-100,579	0,028	0,005
-137,672	800,000	0,020	-0,056
-136,658	-200,000	-0,014	-0,063
-135,643	-150,346	0,047	-0,003
-134,629	800,000	-0,055	0,121
-133,614	-45,953	-0,084	-0,030
-132,599	38,982	0,085	-0,055
-131,585	-199,132	-0,085	-0,000
-130,570	800,000	0,047	-0,113
-129,556	-132,300	-0,025	0,002
-128,541	800,000	0,042	0,124
-127,526	-59,839	-0,083	0,025
-126,512	-97,891	0,064	-0,012
-125,497	-66,303	0,136	0,039
-124,483	554,730	-0,077	-0,135
-123,468	-71,401	0,064	-0,017
-122,453	-86,478	-0,004	-0,001
-121,439	647,833	0,060	-0,112
-120,424	-112,218	-0,119	-0,017
-119,410	-171,444	0,074	0,002
-118,395	38,978	0,044	0,029
-117,380	12,541	-0,061	0,034
-116,366	118,567	0,068	0,060
-115,351	751,865	0,025	-0,049
-114,337	800,000	-0,070	-0,206
-113,322	800,000	-0,043	-0,095
-112,307	-145,792	0,148	0,009
-111,293	-88,911	-0,045	-0,009
-110,278	-42,138	-0,023	-0,009
-109,264	32,078	0,017	0,010
-108,249	800,000	-0,016	0,041
-107,234	-200,000	-0,028	-0,150
-106,220	333,575	-0,025	0,035
-105,205	-200,000	-0,008	-0,028
-104,191	800,000	-0,051	-0,107
-103,176	800,000	-0,037	-0,091
-102,162	800,000	0,030	0,080
-101,147	-19,556	0,035	-0,015
-100,132	3,038	0,038	-0,020
-99,118	-119,394	0,107	0,013
-98,103	-200,000	-0,001	0,072
-97,089	800,000	-0,058	0,136
-96,074	-200,000	0,011	-0,122
-95,059	120,857	0,023	-0,021
-94,045	-10,813	0,073	-0,035
-93,030	800,000	0,015	-0,040
-92,016	-7,885	0,039	-0,019
-91,001	800,000	0,058	0,133
-89,986	-200,000	-0,019	0,136
-88,972	-102,667	0,030	0,005
-87,957	-200,000	0,024	-0,114
-86,943	-200,000	-0,020	0,069
-85,928	-200,000	-0,014	-0,131
-84,913	800,000	-0,051	-0,150
-83,899	800,000	-0,018	-0,043
-82,884	-200,000	0,006	0,117
-81,870	750,892	0,040	0,078
-80,855	148,497	-0,081	0,079
-79,840	57,799	0,101	-0,071
-78,826	-200,000	0,024	-0,083
-77,811	91,031	-0,033	-0,027
-76,797	131,184	0,053	0,049
-75,782	-48,072	0,022	-0,008
-74,767	14,258	0,049	0,028
-73,753	506,553	0,079	-0,132
-72,738	-200,000	0,031	0,165
-71,724	800,000	0,049	-0,150
-70,709	-200,000	0,019	-0,147
-69,694	-200,000	0,051	-0,188
-68,680	320,562	0,096	0,131
-67,665	-41,173	-0,087	-0,032
-66,651	-200,000	-0,009	0,069
-65,636	-6,705	-0,084	0,041
-64,622	-70,359	-0,123	-0,033
-63,607	800,000	0,044	-0,091
-62,592	800,000	0,060	-0,177
-61,578	-200,000	0,007	0,051
-60,563	529,446	0,063	-0,108
-59,549	-41,000	-0,102	0,038
-58,534	25,943	-1,731	-1,037
-57,519	-200,000	-0,210	-1,076
-56,505	-200,000	-1,221	-4,810
-55,490	-63,800	0,721	0,211
-54,476	800,000	5,359	12,270
-53,461	-200,000	16,783	273,847
-52,446	800,000	714,293	2199,664
-51,432	538,527	1627,282	2796,214
-50,417	114,508	1623,125	1423,288
-49,403	76,659	1284,359	979,718
-48,388	34,103	1031,464	645,670
-47,373	20,590	994,050	577,416
-46,359	19,374	982,604	566,728
-45,344	17,313	978,298	557,430
-44,330	17,510	976,824	557,218
-43,315	17,106	975,075	554,868
-42,300	17,035	974,169	554,098
-41,286	17,057	973,442	553,737
-40,271	17,078	972,265	553,113
-39,257	17,085	971,551	552,708
-38,242	17,073	970,739	552,183
-37,227	17,105	969,797	551,731
-36,213	17,040	969,167	551,139
-35,198	17,076	968,121	550,638
-34,184	17,069	967,359	550,161
-33,169	17,075	966,371	549,598
-32,154	17,096	965,427	549,107
-31,140	17,058	964,524	548,446
-30,125	17,138	963,745	548,243
-29,111	17,084	962,995	547,618
-28,096	17,112	962,272	547,277
-27,082	17,049	961,807	546,787
-26,067	17,041	960,864	546,202
-25,052	17,052	960,228	545,857
-24,038	17,057	959,399	545,378
-23,023	16,947	958,864	544,697
-22,009	17,020	958,104	544,480
-20,994	17,086	957,569	544,367
-19,979	17,043	956,814	543,778
-18,965	17,045	956,283	543,462
-17,950	17,018	955,679	543,007
-16,936	17,004	954,841	542,466
-15,921	16,971	954,163	541,952
-14,906	16,938	953,396	541,392
-13,892	16,900	952,944	540,989
-12,877	16,859	952,234	540,435
-11,863	16,848	951,842	540,154
-10,848	16,980	950,873	540,008
-9,833	17,008	950,470	539,846
-8,819	16,940	949,857	539,259
-7,804	16,960	949,298	538,984
-6,790	16,906	948,675	538,435
-5,775	16,896	948,168	538,094
-4,760	17,006	947,434	538,009
-3,746	16,907	946,892	537,365
-2,731	16,768	946,100	536,450
-1,717	16,761	945,281	535,941
-0,702	16,766	944,844	535,688
0,313	16,570	944,161	535,488
1,327	19,823	942,419	544,775
2,342	29,021	797,405	485,442
3,356	26,197	449,009	269,096
4,371	-3,098	295,824	147,938
5,386	-6,999	277,097	134,857
6,400	-8,186	271,448	130,992
7,415	-8,665	269,138	129,422
8,429	-8,361	267,628	128,964
9,444	-8,912	266,951	128,122
10,459	-8,675	266,067	127,902
11,473	-9,075	265,463	127,237
12,488	-9,141	265,066	126,975
13,502	-9,222	264,169	126,460
14,517	-9,181	263,951	126,382
15,531	-9,375	263,441	125,951
16,546	-9,517	263,136	125,666
17,561	-9,650	262,689	125,321
18,575	-9,455	262,471	125,382
19,590	-9,633	262,126	125,046
20,604	-9,493	261,779	124,995
21,619	-9,669	261,298	124,596
22,634	-9,446	260,772	124,534
23,648	-9,723	260,741	124,260
24,663	-9,769	260,511	124,099
25,677	-9,669	260,183	124,020
26,692	-9,661	260,061	123,958
27,707	-9,469	259,675	123,934
28,721	-9,651	259,458	123,657
29,736	-9,841	259,243	123,376
30,750	-9,731	258,992	123,342
31,765	-9,568	258,531	123,257
32,780	-9,676	258,437	123,104
33,794	-9,557	258,111	123,044
34,809	-9,735	257,861	122,757
35,823	-9,868	257,735	122,568
36,838	-9,773	257,431	122,497
37,853	-9,748	257,070	122,335
38,867	-9,798	257,017	122,256
39,882	-9,854	256,954	122,166
40,896	-9,948	256,607	121,907
41,911	-9,824	256,250	121,835
42,926	-10,014	256,080	121,577
43,940	-9,918	255,793	121,514
44,955	-9,904	255,576	121,412
45,969	-10,022	255,291	121,163
46,984	-10,432	255,028	120,670
47,999	-10,626	254,778	120,371
49,013	-10,611	254,440	120,214
50,028	-10,661	254,271	120,080
51,042	-10,750	253,989	119,859
52,057	-10,809	253,887	119,749
53,071	-10,576	253,528	119,771
54,086	-10,625	253,398	119,657
55,101	-10,411	253,239	119,756
56,115	-10,080	253,047	119,941
57,130	-9,657	252,999	120,273
58,144	-9,307	253,049	120,589
59,159	-9,275	252,724	120,451
60,174	-9,328	252,381	120,231
61,188	-9,479	252,352	120,076
62,203	-9,658	252,013	119,750
63,217	-9,835	251,934	119,549
64,232	-9,427	251,483	119,675
65,247	-9,517	251,508	119,599
66,261	-9,549	251,265	119,445
67,276	-9,931	250,939	118,953
68,290	-10,149	250,550	118,571
69,305	-10,358	250,557	118,385
70,320	-10,154	250,057	118,313
71,334	-9,746	250,141	118,690
72,349	-9,504	250,070	118,852
73,363	-9,110	249,760	119,030
74,378	-9,552	249,599	118,566
75,393	-9,684	249,401	118,349
76,407	-9,717	249,148	118,191
77,422	-9,725	248,964	118,086
78,436	-9,515	248,861	118,205
79,451	-9,463	248,554	118,093
80,466	-9,738	248,359	117,756
81,480	-10,204	248,105	117,231
82,495	-9,987	247,874	117,295
83,509	-10,012	247,678	117,170
84,524	-9,983	247,401	117,054
85,539	-10,234	247,235	116,754
86,553	-10,246	247,050	116,646
87,568	-10,131	246,803	116,615
88,582	-9,946	246,719	116,721
89,597	-10,067	246,521	116,515
90,611	-10,007	246,506	116,548
91,626	-9,612	246,263	116,754
92,641	-9,595	246,125	116,692
93,655	-9,942	245,846	116,259
94,670	-10,074	245,633	116,037
95,684	-10,011	245,599	116,064
96,699	-9,647	245,201	116,170
97,714	-9,982	245,062	115,813
98,728	-10,072	244,845	115,626
99,743	-10,210	244,419	115,299
100,757	-10,137	244,292	115,290
101,772	-10,074	244,230	115,303
102,787	-9,950	244,037	115,304
103,801	-9,900	243,952	115,295
104,816	-9,865	243,750	115,219
105,830	-9,751	243,606	115,235
106,845	-9,483	243,422	115,359
107,860	-9,422	243,272	115,328
108,874	-9,671	243,033	114,999
109,889	-9,699	242,771	114,842
110,903	-9,771	242,539	114,662
111,918	-9,799	242,449	114,587
112,933	-9,705	242,401	114,631
113,947	-9,710	242,132	114,489
114,962	-9,595	242,042	114,532
115,976	-9,606	241,861	114,427
116,991	-9,763	241,612	114,169
118,006	-9,601	241,416	114,200
119,020	-9,793	241,387	114,018
120,035	-9,623	241,250	114,083
121,049	-9,671	241,081	113,954
122,064	-9,636	240,923	113,897
123,079	-9,776	240,692	113,664
124,093	-9,933	240,495	113,432
125,108	-9,996	240,241	113,250
126,122	-10,179	239,871	112,917
127,137	-10,240	239,620	112,739
128,151	-10,225	239,485	112,677
129,166	-10,128	239,589	112,796
130,181	-10,150	239,212	112,590
131,195	-10,159	239,035	112,489
132,210	-9,822	238,964	112,719
133,224	-9,612	238,811	112,807
134,239	-9,686	238,664	112,668
135,254	-9,628	238,503	112,629
136,268	-9,752	238,091	112,324
137,283	-10,178	237,927	111,893
138,297	-10,340	237,652	111,623
139,312	-10,297	237,521	111,586
140,327	-9,844	237,558	111,959
141,341	-9,341	237,488	112,321
142,356	-9,544	237,519	112,162
143,370	-9,227	237,090	112,204
144,385	-9,233	237,166	112,225
145,400	-9,030	236,835	112,222
146,414	-9,170	236,636	112,005
147,429	-9,386	236,489	111,752
148,443	-9,305	236,253	111,696
149,458	-9,321	236,147	111,623
150,473	-9,101	236,047	111,741
151,487	-9,293	235,747	111,437
152,502	-9,246	235,661	111,423
153,516	-9,340	235,445	111,237
154,531	-9,159	235,305	111,304
155,546	-9,192	235,094	111,168
156,560	-9,438	235,000	110,918
157,575	-9,552	234,752	110,700
158,589	-9,520	234,683	110,684
159,604	-9,362	234,509	110,717
160,619	-9,051	234,183	110,800
161,633	-8,968	234,109	110,821
162,648	-9,149	234,060	110,644
163,662	-9,375	233,839	110,351
164,677	-9,253	233,594	110,322
165,692	-9,107	233,430	110,350
166,706	-9,058	233,371	110,351
167,721	-9,066	233,223	110,265
168,735	-8,996	233,142	110,272
169,750	-9,122	233,104	110,145
170,764	-9,076	232,913	110,081
171,779	-9,282	232,658	109,789
172,794	-8,960	232,475	109,946
173,808	-9,163	232,287	109,687
174,823	-9,983	231,968	108,884
175,837	-10,178	231,646	108,570
176,852	-9,367	231,704	109,223
177,867	-9,180	231,684	109,350
178,881	-9,281	231,733	109,285
179,896	-9,180	231,471	109,230
180,910	-9,287	231,284	109,049
181,925	-8,953	231,079	109,204
182,940	-9,057	230,992	109,071
183,954	-9,043	230,733	108,950
184,969	-9,063	230,696	108,907
185,983	-8,863	230,412	108,920
186,998	-8,959	230,252	108,759
188,013	-9,023	230,134	108,644
189,027	-9,004	230,116	108,641
190,042	-9,029	229,917	108,518
191,056	-8,899	229,688	108,500
192,071	-8,804	229,501	108,476
193,086	-8,743	229,521	108,523
194,100	-8,461	229,318	108,636
195,115	-8,429	229,280	108,633
196,129	-8,209	229,328	108,817
197,144	-4,011	230,582	112,664
198,159	0,170	231,758	116,488
199,173	3,020	232,535	119,091
200,188	3,657	232,464	119,540
201,202	3,560	232,482	119,464
202,217	3,660	232,272	119,423
203,232	3,749	232,166	119,426
204,246	3,768	232,089	119,391
205,261	3,884	231,934	119,391
206,275	4,002	231,891	119,450
207,290	4,265	231,564	119,474
208,304	4,240	231,505	119,414
209,319	4,201	231,219	119,226
210,334	4,048	231,063	119,016
211,348	3,937	230,785	118,777
212,363	3,478	230,483	118,257
213,377	3,155	230,421	117,966
214,392	3,131	230,219	117,833
215,407	3,420	230,083	117,976
216,421	3,535	230,001	118,011
217,436	3,218	229,829	117,669
218,450	3,126	229,646	117,494
219,465	2,987	229,334	117,217
220,480	3,156	229,245	117,291
221,494	2,858	229,198	117,028
222,509	3,289	229,122	117,309
223,523	3,391	228,838	117,231
224,538	3,150	228,806	117,020
225,553	3,281	228,620	117,014
226,567	3,304	228,572	116,997
227,582	3,517	228,436	117,080
228,596	3,677	228,240	117,091
229,611	3,382	227,931	116,697
230,626	3,042	227,713	116,316
231,640	3,243	227,585	116,393
232,655	3,633	227,514	116,643
233,669	3,800	227,719	116,865
234,684	3,726	227,410	116,640
235,699	3,672	227,254	116,508
236,713	3,193	227,084	116,047
237,728	3,198	226,782	115,887
238,742	3,070	226,651	115,713
239,757	3,250	226,478	115,750
240,772	3,296	226,392	115,731
241,786	3,075	226,330	115,521
242,801	3,284	226,215	115,610
243,815	3,601	226,049	115,754
244,830	3,726	225,997	115,811
245,844	3,347	225,659	115,343
246,859	3,444	225,573	115,361
247,874	3,511	225,355	115,290
248,888	3,710	225,385	115,445
249,903	3,358	225,108	115,029
250,917	3,287	224,894	114,855
251,932	3,181	224,765	114,700
252,947	3,105	224,695	114,597
253,961	3,343	224,307	114,567
254,976	3,379	224,221	114,540
255,990	3,418	224,326	114,612
257,005	3,681	224,055	114,660
258,020	3,338	224,034	114,383
259,034	3,514	224,028	114,501
260,049	3,533	223,723	114,349
261,063	3,462	223,580	114,213
262,078	3,710	223,475	114,334
263,093	3,623	223,364	114,202
264,107	3,659	223,134	114,101
265,122	3,563	223,112	114,008
266,136	3,610	223,019	113,985
267,151	3,862	222,716	114,007
268,166	3,361	222,395	113,462
269,180	3,039	222,284	113,156
270,195	3,472	222,010	113,327
271,209	3,284	222,017	113,182
272,224	3,244	221,900	113,083
273,239	3,179	221,923	113,036
274,253	3,366	221,612	113,005
275,268	3,052	221,379	112,645
276,282	3,202	221,123	112,616
277,297	3,087	220,998	112,457
278,312	3,073	221,037	112,457
279,326	3,282	220,879	112,519
280,341	3,031	220,931	112,352
281,355	3,454	220,500	112,433
282,370	3,193	220,563	112,263
283,384	3,123	220,152	111,993
284,399	3,032	220,088	111,884
285,414	2,967	219,897	111,729
286,428	3,247	219,837	111,893
287,443	3,334	219,957	112,008
288,457	3,566	219,617	111,994
289,472	3,354	219,320	111,678
290,487	2,762	219,281	111,216
291,501	2,994	219,103	111,285
292,516	3,008	218,862	111,163
293,530	2,806	218,917	111,034
294,545	2,724	218,751	110,881
295,560	3,076	218,679	111,090
296,574	3,398	218,494	111,220
297,589	3,442	218,306	111,147
298,603	3,386	218,254	111,070
299,618	3,213	218,219	110,917
300,633	3,019	218,122	110,716
301,647	3,455	217,903	110,911
302,662	3,564	217,741	110,898
303,676	3,678	217,520	110,858
304,691	3,361	217,444	110,580
305,706	3,470	217,291	110,571
306,720	3,427	217,281	110,525
307,735	3,138	217,050	110,189
308,749	2,974	216,798	109,933
309,764	3,234	216,778	110,101
310,779	3,542	216,513	110,178
311,793	3,569	216,491	110,176
312,808	3,303	216,374	109,916
313,822	3,281	216,192	109,798
314,837	3,263	216,090	109,723
315,852	3,202	215,817	109,531
316,866	3,152	215,717	109,435
317,881	3,361	215,544	109,487
318,895	3,231	215,485	109,354
319,910	3,156	215,375	109,235
320,925	3,394	215,255	109,334
321,939	3,047	215,040	108,968
322,954	3,228	214,975	109,054
323,968	3,133	214,929	108,953
324,983	3,380	214,700	109,003
325,997	3,525	214,539	109,015
327,012	3,357	214,469	108,850
328,027	3,410	214,304	108,795
329,041	3,616	214,273	108,915
330,056	3,424	214,176	108,720
331,070	3,346	213,863	108,497
332,085	2,782	213,578	107,942
333,100	2,878	213,585	108,004
334,114	3,314	213,399	108,209
335,129	3,449	213,340	108,265
336,143	3,321	213,086	108,036
337,158	3,074	213,028	107,823
338,173	3,254	212,956	107,904
339,187	3,205	212,710	107,735
340,202	2,834	212,604	107,411
341,216	2,929	212,423	107,377
342,231	3,302	212,178	107,505
343,246	2,874	212,275	107,244
344,260	2,948	212,112	107,204
345,275	3,378	211,950	107,414
346,289	3,488	211,802	107,406
347,304	3,458	211,716	107,332
348,319	3,191	211,644	107,099
349,333	3,093	211,488	106,942
350,348	3,171	211,289	106,886
351,362	3,531	211,137	107,052
352,377	3,678	211,072	107,111
353,392	3,304	210,943	106,776
354,406	3,472	210,824	106,823
355,421	195,774	1340,398	1423,441
356,435	156,376	1478,030	1423,455
