DTS Sentinel unit serial number:	SN410029Multiplexer serial number:	ORYXHardware model number:	OX2-SRSoftware version number:	ORYX F/W v4,00 Oryx Data Collector v3.7.2.0data status	okinstallation	B6 Nyhavnadifferential loss correction	single-endedforward channel	channel 2reverse channel	N/Adate	2023/12/09time	12:20:08forward acquisition time	300,00reverse acquisition time	0,00gamma	499,1914k internal	0,3138k external	0,3138temperature offset calibration	1,0000default loss term (dB/km)	0,3820temperature slope calibration	1,0000multiplexer offset coefficient	1,0000multiplexer slope coefficient	1,0000fibre end	0,00T internal ref (°C)	19,25T ext. ref 1 (°C)	3,81T ext. ref 2 (°C)	3,80length (m)	temperature (°C)	Stokes	anti-Stokes-744,400	789,556	0,015	0,031
-743,385	29,937	-0,206	0,130
-742,371	-139,642	0,059	0,005
-741,356	-63,967	-0,274	0,083
-740,342	-11,998	0,148	-0,072
-739,327	81,538	-0,231	0,185
-738,312	800,000	0,016	-0,044
-737,298	-81,584	-0,282	-0,068
-736,283	115,055	0,036	-0,032
-735,269	13,916	-0,114	-0,065
-734,254	800,000	0,043	-0,116
-733,239	-36,627	-0,401	-0,159
-732,225	95,257	0,056	0,047
-731,210	800,000	0,021	0,045
-730,196	214,620	-0,064	-0,075
-729,181	-13,322	-0,116	-0,056
-728,167	327,233	0,015	0,021
-727,152	-116,276	-0,037	-0,005
-726,137	33,975	-0,184	0,119
-725,123	-200,000	-0,002	0,021
-724,108	260,189	-0,104	0,134
-723,094	-200,000	-0,034	-0,114
-722,079	-93,972	-0,219	-0,044
-721,064	618,733	-0,017	0,032
-720,050	800,000	-0,026	-0,069
-719,035	157,597	0,044	-0,045
-718,021	-200,000	0,008	0,066
-717,006	362,555	0,054	0,080
-715,991	800,000	-0,017	0,041
-714,977	-150,152	-0,148	-0,008
-713,962	182,528	0,076	0,083
-712,948	-29,202	0,051	-0,021
-711,933	800,000	-0,030	0,065
-710,918	-77,929	-0,063	0,016
-709,904	800,000	0,027	-0,064
-708,889	431,332	-0,027	-0,044
-707,875	-128,770	0,009	-0,001
-706,860	132,926	-0,002	0,002
-705,845	168,804	-0,078	0,083
-704,831	-26,475	-0,105	0,045
-703,816	-103,426	-0,128	-0,022
-702,802	301,259	-0,089	-0,122
-701,787	-200,000	-0,017	-0,072
-700,772	144,652	-0,064	-0,064
-699,758	96,611	0,083	0,070
-698,743	-78,318	0,103	-0,026
-697,729	-94,801	0,013	-0,003
-696,714	-200,000	0,000	0,014
-695,699	-200,000	0,002	-0,112
-694,685	-200,000	-0,004	0,061
-693,670	-18,532	-0,052	-0,024
-692,656	800,000	0,024	-0,054
-691,641	143,376	0,060	0,059
-690,627	800,000	0,006	-0,019
-689,612	-97,955	-0,083	-0,016
-688,597	261,331	0,050	0,064
-687,583	-56,246	-0,106	0,035
-686,568	-200,000	-0,003	-0,182
-685,554	384,778	-0,134	-0,204
-684,539	264,192	-0,120	-0,155
-683,524	-200,000	0,005	0,089
-682,510	-200,000	-0,016	0,101
-681,495	44,490	0,040	-0,027
-680,481	498,619	0,068	-0,117
-679,466	-73,529	0,089	0,024
-678,451	139,297	-0,116	-0,113
-677,437	196,770	-0,085	0,097
-676,422	-128,171	-0,041	-0,004
-675,408	-158,009	-0,068	0,003
-674,393	301,689	-0,034	-0,046
-673,378	-75,429	-0,045	-0,012
-672,364	800,000	-0,024	-0,069
-671,349	402,823	-0,031	-0,049
-670,335	335,927	-0,075	0,108
-669,320	-97,727	0,128	-0,024
-668,305	73,352	-0,050	0,038
-667,291	649,592	-0,030	-0,058
-666,276	-124,672	-0,076	-0,009
-665,262	800,000	-0,025	0,054
-664,247	800,000	-0,063	-0,135
-663,232	-17,656	0,087	-0,040
-662,218	-5,760	-0,051	0,026
-661,203	-123,251	-0,089	0,010
-660,189	-96,725	-0,029	-0,006
-659,174	190,875	-0,154	-0,172
-658,159	-200,000	0,003	-0,070
-657,145	104,847	-0,073	0,063
-656,130	-200,000	-0,018	0,060
-655,116	502,273	-0,035	-0,061
-654,101	-200,000	0,018	0,078
-653,086	422,646	-0,038	-0,060
-652,072	164,719	-0,084	-0,088
-651,057	-200,000	0,007	-0,034
-650,043	-200,000	0,027	-0,137
-649,028	-73,595	-0,038	-0,010
-648,014	-136,456	0,160	-0,014
-646,999	-18,944	0,081	0,037
-645,984	-105,058	-0,107	-0,018
-644,970	-200,000	0,031	0,142
-643,955	292,473	-0,069	-0,093
-642,941	-24,474	0,016	0,007
-641,926	-200,000	-0,003	0,109
-640,911	-200,000	-0,017	0,075
-639,897	-4,233	0,036	-0,018
-638,882	-200,000	0,015	0,112
-637,868	-200,000	-0,023	0,120
-636,853	800,000	-0,010	-0,032
-635,838	-200,000	-0,013	-0,126
-634,824	303,578	-0,064	0,088
-633,809	-200,000	0,008	-0,066
-632,795	8,921	-0,096	0,053
-631,780	-103,508	-0,090	0,015
-630,765	-10,792	0,052	-0,026
-629,751	800,000	-0,002	0,006
-628,736	342,017	-0,036	-0,052
-627,722	34,531	-0,074	-0,048
-626,707	-200,000	0,015	0,066
-625,692	542,789	0,044	0,077
-624,678	-200,000	0,001	-0,104
-623,663	636,771	0,015	-0,027
-622,649	191,136	-0,086	0,095
-621,634	800,000	-0,040	-0,086
-620,619	-65,051	0,090	0,027
-619,605	-200,000	0,008	0,045
-618,590	-200,000	0,000	-0,080
-617,576	-106,012	0,030	0,005
-616,561	800,000	-0,103	-0,212
-615,546	800,000	-0,014	0,038
-614,532	800,000	-0,025	-0,072
-613,517	-40,054	0,039	-0,015
-612,503	264,441	0,045	0,058
-611,488	800,000	-0,025	0,066
-610,474	-200,000	0,002	0,124
-609,459	-200,000	0,020	0,092
-608,444	131,593	-0,097	0,092
-607,430	741,230	-0,070	-0,140
-606,415	-200,000	-0,041	-0,157
-605,401	-171,661	0,016	-0,000
-604,386	169,301	0,092	0,097
-603,371	-200,000	-0,006	0,129
-602,357	-200,000	-0,032	0,214
-601,342	-8,701	0,061	0,030
-600,328	223,311	-0,096	-0,114
-599,313	197,843	-0,087	-0,099
-598,298	-200,000	-0,005	-0,107
-597,284	-22,629	0,149	0,066
-596,269	800,000	0,033	-0,084
-595,255	-200,000	-0,019	-0,063
-594,240	106,750	0,040	0,035
-593,225	-116,357	-0,118	-0,016
-592,211	-88,876	0,088	0,019
-591,196	-70,801	0,050	-0,014
-590,182	344,842	-0,051	-0,075
-589,167	-165,958	-0,100	0,003
-588,152	29,724	0,123	-0,077
-587,138	42,617	0,057	0,038
-586,123	206,055	-0,084	-0,097
-585,109	495,782	0,055	-0,094
-584,094	-200,000	0,013	-0,068
-583,079	-200,000	0,009	-0,049
-582,065	283,996	0,115	0,153
-581,050	800,000	-0,025	-0,079
-580,036	-149,072	-0,031	0,002
-579,021	42,669	-0,040	0,027
-578,006	225,078	-0,062	-0,075
-576,992	-157,237	0,068	0,003
-575,977	-200,000	0,021	-0,102
-574,963	-136,665	0,106	0,009
-573,948	-110,754	0,109	-0,016
-572,934	-26,162	-0,134	-0,058
-571,919	105,449	-0,114	-0,100
-570,904	665,975	-0,016	-0,031
-569,890	434,952	-0,075	-0,121
-568,875	-200,000	-0,011	0,054
-567,861	-200,000	-0,016	0,081
-566,846	-74,852	0,110	-0,029
-565,831	800,000	-0,020	-0,057
-564,817	64,108	-0,115	-0,085
-563,802	-200,000	-0,028	-0,120
-562,788	800,000	0,017	-0,051
-561,773	-88,920	0,053	-0,011
-560,758	18,285	0,079	-0,046
-559,744	118,873	0,062	0,057
-558,729	800,000	0,062	0,147
-557,715	164,341	0,088	-0,091
-556,700	93,765	-0,087	-0,072
-555,685	116,485	-0,050	-0,045
-554,671	425,898	-0,019	0,030
-553,656	-81,471	0,149	-0,036
-552,642	49,230	0,056	0,039
-551,627	-200,000	-0,007	-0,044
-550,612	356,993	-0,096	-0,141
-549,598	579,406	-0,030	-0,054
-548,583	520,772	-0,067	-0,115
-547,569	-134,055	-0,128	-0,011
-546,554	-200,000	-0,029	0,153
-545,539	-31,652	-0,118	-0,049
-544,525	85,201	0,077	-0,062
-543,510	17,061	0,080	-0,046
-542,496	28,954	-0,094	0,058
-541,481	-2,186	-0,079	-0,041
-540,466	-104,381	0,063	0,011
-539,452	156,049	0,106	0,107
-538,437	386,144	-0,020	-0,030
-537,423	46,328	-0,046	0,032
-536,408	-88,874	-0,053	0,011
-535,393	506,019	-0,075	-0,128
-534,379	-72,221	-0,072	-0,019
-533,364	71,471	0,095	0,073
-532,350	195,453	-0,081	-0,091
-531,335	-200,000	-0,019	0,073
-530,321	331,147	0,048	0,069
-529,306	224,276	0,103	-0,123
-528,291	800,000	-0,088	0,200
-527,277	391,608	-0,043	0,066
-526,262	-128,191	0,075	0,008
-525,248	443,345	0,060	0,098
-524,233	-109,967	0,055	-0,008
-523,218	331,966	-0,040	0,057
-522,204	-200,000	-0,011	0,086
-521,189	-158,364	0,056	0,002
-520,175	588,321	-0,028	-0,051
-519,160	87,496	-0,021	0,017
-518,145	-200,000	-0,033	0,146
-517,131	107,609	0,057	0,050
-516,116	78,989	-0,078	0,061
-515,102	70,726	0,040	-0,030
-514,087	-55,808	-0,063	-0,020
-513,072	514,845	0,068	-0,117
-512,058	443,378	0,036	-0,058
-511,043	-41,166	0,061	-0,023
-510,029	-200,000	0,020	0,119
-509,014	739,082	-0,058	-0,116
-507,999	-200,000	0,002	-0,023
-506,985	-96,323	-0,080	0,015
-505,970	-200,000	-0,036	-0,148
-504,956	12,876	-0,027	-0,015
-503,941	-40,295	-0,052	0,020
-502,926	29,501	-0,026	0,016
-501,912	37,145	0,137	-0,089
-500,897	-200,000	-0,032	0,157
-499,883	22,700	-0,025	-0,015
-498,868	-42,073	-0,099	0,037
-497,853	54,306	-0,046	-0,032
-496,839	72,353	-0,112	0,086
-495,824	137,253	0,056	0,054
-494,810	378,734	0,050	-0,076
-493,795	-200,000	-0,003	-0,111
-492,781	262,339	-0,026	-0,033
-491,766	40,198	0,013	-0,009
-490,751	-45,975	0,096	0,035
-489,737	800,000	-0,019	-0,048
-488,722	-17,332	0,152	-0,070
-487,708	-1,042	0,050	0,026
-486,693	-200,000	0,012	0,191
-485,678	800,000	-0,039	0,088
-484,664	-37,110	-0,199	0,078
-483,649	-200,000	0,020	-0,116
-482,635	-94,830	0,068	-0,013
-481,620	-61,677	0,111	0,034
-480,605	161,610	-0,017	0,017
-479,591	-111,724	-0,044	-0,006
-478,576	-57,120	0,144	0,046
-477,562	-104,564	-0,090	-0,015
-476,547	-200,000	0,002	-0,030
-475,532	-200,000	0,011	-0,096
-474,518	-200,000	-0,013	-0,090
-473,503	-65,369	0,157	-0,046
-472,489	800,000	0,020	0,057
-471,474	156,364	-0,056	-0,057
-470,459	-35,323	0,080	0,032
-469,445	-115,263	-0,107	0,015
-468,430	-142,869	0,069	-0,005
-467,416	-200,000	-0,006	0,114
-466,401	44,887	-0,106	-0,071
-465,386	-102,479	0,075	0,013
-464,372	41,744	0,099	0,066
-463,357	-0,013	-0,089	0,046
-462,343	-105,471	0,126	-0,021
-461,328	-80,795	-0,073	-0,018
-460,313	129,972	0,100	-0,094
-459,299	-102,591	0,104	-0,018
-458,284	-102,054	0,091	-0,016
-457,270	800,000	-0,060	0,149
-456,255	800,000	-0,046	0,104
-455,241	-16,699	-0,156	-0,072
-454,226	-147,361	-0,051	0,003
-453,211	-200,000	-0,009	0,065
-452,197	-200,000	0,017	-0,061
-451,182	56,634	0,184	-0,131
-450,168	-62,985	0,041	-0,012
-449,153	438,737	-0,069	0,110
-448,138	103,986	-0,160	-0,138
-447,124	800,000	0,020	-0,062
-446,109	800,000	-0,025	-0,052
-445,095	88,534	0,059	0,048
-444,080	-200,000	0,027	0,090
-443,065	-200,000	0,005	0,116
-442,051	-62,878	0,057	0,017
-441,036	-200,000	-0,001	-0,166
-440,022	-98,181	0,064	0,012
-439,007	-200,000	-0,008	0,055
-437,992	472,637	-0,026	0,043
-436,978	223,362	0,071	0,085
-435,963	49,091	0,013	-0,009
-434,949	174,237	0,068	0,072
-433,934	-200,000	0,000	0,037
-432,919	-28,966	0,058	0,024
-431,905	-123,128	-0,056	-0,007
-430,890	-200,000	0,031	0,161
-429,876	-37,025	-0,025	-0,010
-428,861	800,000	0,043	0,131
-427,846	210,071	0,022	0,025
-426,832	800,000	-0,009	-0,029
-425,817	-142,324	0,032	-0,002
-424,803	800,000	-0,036	0,090
-423,788	-200,000	0,018	0,148
-422,773	-200,000	0,000	0,100
-421,759	434,725	0,057	0,092
-420,744	-63,897	-0,056	-0,017
-419,730	555,431	0,032	0,056
-418,715	-200,000	0,031	-0,174
-417,701	-200,000	0,026	-0,090
-416,686	-200,000	-0,015	-0,072
-415,671	20,174	0,091	-0,054
-414,657	-138,033	0,066	0,005
-413,642	800,000	0,026	-0,074
-412,628	800,000	-0,083	0,180
-411,613	47,057	0,076	0,051
-410,598	-102,460	-0,108	0,019
-409,584	800,000	-0,010	-0,031
-408,569	800,000	0,047	0,121
-407,555	-107,263	-0,179	0,029
-406,540	771,817	-0,015	0,029
-405,525	643,218	-0,018	0,034
-404,511	-200,000	-0,021	-0,072
-403,496	-200,000	0,004	0,061
-402,482	68,011	-0,063	-0,047
-401,467	-8,139	0,012	0,006
-400,452	453,426	0,036	0,058
-399,438	-36,739	0,032	0,013
-398,423	-200,000	-0,009	-0,080
-397,409	-1,950	0,050	0,026
-396,394	-200,000	0,013	-0,064
-395,379	800,000	0,082	0,187
-394,365	47,044	0,062	-0,042
-393,350	-200,000	0,001	-0,012
-392,336	-46,252	0,064	0,023
-391,321	-52,357	0,073	-0,024
-390,306	-8,806	-0,079	-0,039
-389,292	118,278	-0,022	-0,020
-388,277	-34,969	-0,018	-0,007
-387,263	-200,000	0,005	0,041
-386,248	-62,666	0,089	0,027
-385,233	800,000	-0,023	0,074
-384,219	-44,371	-0,101	0,037
-383,204	-62,067	-0,108	-0,033
-382,190	-22,684	0,113	-0,050
-381,175	-179,024	-0,055	-0,001
-380,160	-200,000	-0,033	-0,108
-379,146	-200,000	0,001	0,124
-378,131	7,231	0,167	0,091
-377,117	-53,606	-0,038	0,013
-376,102	84,988	-0,132	-0,106
-375,088	521,251	-0,075	0,129
-374,073	-19,893	-0,077	-0,035
-373,058	-32,652	0,118	-0,048
-372,044	-122,010	-0,079	0,009
-371,029	-200,000	0,008	0,086
-370,015	35,521	-0,061	0,039
-369,000	-56,494	0,167	0,054
-367,985	32,628	0,010	-0,006
-366,971	-40,356	-0,187	0,071
-365,956	-200,000	-0,015	0,095
-364,942	-200,000	-0,024	0,095
-363,927	-200,000	0,015	0,078
-362,912	201,019	-0,062	0,070
-361,898	272,752	-0,080	-0,103
-360,883	-61,467	0,009	-0,003
-359,869	211,871	0,056	0,065
-358,854	7,746	-0,022	-0,012
-357,839	-200,000	-0,026	0,158
-356,825	13,165	0,019	-0,011
-355,810	614,511	0,047	-0,087
-354,796	130,354	0,069	0,065
-353,781	-200,000	-0,003	0,035
-352,766	-200,000	0,008	-0,028
-351,752	-34,386	-0,056	0,022
-350,737	384,308	0,021	-0,032
-349,723	-43,265	0,168	-0,062
-348,708	-200,000	-0,002	-0,135
-347,693	800,000	0,033	-0,091
-346,679	-125,405	-0,095	0,010
-345,664	-61,001	0,055	0,017
-344,650	800,000	-0,023	-0,058
-343,635	-60,473	0,104	0,032
-342,620	211,453	-0,049	0,056
-341,606	-88,906	0,060	0,013
-340,591	148,921	0,076	-0,075
-339,577	75,450	-0,117	-0,090
-338,562	-200,000	-0,017	-0,246
-337,548	-24,614	0,076	-0,033
-336,533	-200,000	-0,007	0,043
-335,518	25,916	0,079	-0,048
-334,504	484,931	-0,026	-0,043
-333,489	105,286	-0,084	0,073
-332,475	-200,000	0,026	0,116
-331,460	174,116	0,056	-0,059
-330,445	-200,000	0,020	0,081
-329,431	251,991	-0,038	-0,047
-328,416	210,213	0,102	0,117
-327,402	290,768	0,069	0,092
-326,387	-200,000	0,001	0,102
-325,372	-200,000	0,014	-0,197
-324,358	553,355	-0,048	0,084
-323,343	-163,298	-0,024	-0,001
-322,329	541,860	0,023	-0,040
-321,314	-85,730	0,018	-0,004
-320,299	-31,858	-0,077	-0,031
-319,285	47,140	0,113	-0,076
-318,270	800,000	-0,033	-0,082
-317,256	-200,000	0,009	0,036
-316,241	419,637	-0,044	-0,069
-315,226	349,078	-0,100	0,144
-314,212	-11,034	0,143	0,069
-313,197	-185,495	-0,085	0,001
-312,183	-110,029	-0,054	0,008
-311,168	646,572	-0,021	0,040
-310,153	45,302	-0,085	-0,057
-309,139	-200,000	0,000	-0,015
-308,124	-200,000	-0,002	-0,029
-307,110	800,000	-0,057	0,138
-306,095	-5,817	0,090	0,045
-305,080	800,000	0,073	0,210
-304,066	-41,552	0,104	0,039
-303,051	-41,939	-0,061	-0,023
-302,037	-68,240	-0,094	-0,026
-301,022	-105,863	-0,044	-0,007
-300,008	-101,296	0,046	-0,008
-298,993	-9,899	0,118	-0,057
-297,978	392,312	0,050	0,076
-296,964	20,817	-0,057	0,034
-295,949	114,069	0,038	-0,033
-294,935	-200,000	0,019	0,086
-293,920	20,943	-0,066	0,039
-292,905	376,704	0,074	0,111
-291,891	-200,000	-0,006	-0,054
-290,876	-142,268	0,066	0,005
-289,862	-200,000	-0,019	0,079
-288,847	171,259	-0,137	-0,144
-287,832	135,491	-0,033	0,031
-286,818	433,444	0,052	-0,083
-285,803	-200,000	0,000	0,071
-284,789	800,000	0,021	0,063
-283,774	800,000	0,047	-0,151
-282,759	-200,000	0,003	-0,035
-281,745	259,629	-0,058	-0,074
-280,730	36,445	-0,069	-0,044
-279,716	-145,861	-0,077	-0,005
-278,701	224,495	-0,076	0,090
-277,686	800,000	-0,029	0,065
-276,672	800,000	-0,013	-0,036
-275,657	-200,000	0,003	-0,072
-274,643	-150,370	0,050	-0,003
-273,628	-23,900	-0,184	-0,080
-272,613	-200,000	-0,026	-0,141
-271,599	800,000	-0,034	0,073
-270,584	-5,967	0,159	-0,079
-269,570	800,000	-0,058	0,144
-268,555	550,069	0,048	-0,084
-267,540	295,122	0,049	0,065
-266,526	-200,000	0,024	-0,134
-265,511	800,000	-0,014	-0,037
-264,497	-65,755	0,040	0,012
-263,482	457,302	-0,051	0,083
-262,467	-200,000	0,016	0,073
-261,453	800,000	-0,052	-0,106
-260,438	-200,000	0,019	0,064
-259,424	0,701	0,135	0,070
-258,409	-7,155	-0,166	-0,081
-257,395	-200,000	0,025	-0,080
-256,380	340,897	0,066	0,095
-255,365	-200,000	-0,009	0,063
-254,351	800,000	0,011	-0,024
-253,336	408,232	0,069	0,107
-252,322	-20,501	-0,110	0,049
-251,307	677,837	-0,044	-0,084
-250,292	-200,000	-0,112	0,000
-249,278	246,698	0,087	0,106
-248,263	-82,395	-0,069	0,016
-247,249	-200,000	0,030	-0,097
-246,234	-114,152	-0,135	-0,019
-245,219	92,492	0,105	-0,086
-244,205	241,500	-0,022	0,027
-243,190	75,509	-0,047	-0,036
-242,176	119,927	-0,050	-0,045
-241,161	421,775	0,078	-0,123
-240,146	-15,787	-0,095	0,044
-239,132	-200,000	0,005	0,030
-238,117	113,756	0,112	-0,099
-237,103	159,874	-0,091	-0,092
-236,088	-76,039	0,044	0,011
-235,073	131,199	0,068	-0,064
-234,059	-176,367	-0,009	0,000
-233,044	-33,145	0,110	0,044
-232,030	-77,420	-0,206	0,052
-231,015	-200,000	-0,007	-0,074
-230,000	-124,814	-0,051	-0,006
-228,986	90,228	0,064	-0,052
-227,971	-72,144	0,043	-0,012
-226,957	-200,000	0,007	-0,052
-225,942	-79,490	0,072	0,018
-224,927	288,692	-0,058	-0,076
-223,913	792,079	-0,057	-0,115
-222,898	-151,636	-0,148	-0,008
-221,884	-200,000	0,028	-0,219
-220,869	800,000	0,007	0,019
-219,855	-182,200	0,150	0,002
-218,840	419,984	0,018	0,029
-217,825	-200,000	0,017	-0,056
-216,811	-93,033	-0,100	0,020
-215,796	609,185	-0,015	-0,028
-214,782	192,695	-0,062	-0,068
-213,767	-66,286	-0,066	0,019
-212,752	-170,330	-0,118	-0,003
-211,738	61,018	0,038	-0,027
-210,723	487,108	-0,022	0,036
-209,709	221,823	-0,090	-0,106
-208,694	19,524	-0,185	-0,108
-207,679	-107,059	0,049	-0,008
-206,665	3,686	0,142	0,075
-205,650	220,157	0,054	0,063
-204,636	114,250	0,039	-0,035
-203,621	58,812	0,040	0,028
-202,606	-39,906	-0,091	0,034
-201,592	-200,000	-0,022	-0,158
-200,577	179,629	-0,053	-0,056
-199,563	181,264	0,058	-0,062
-198,548	-15,070	0,058	-0,027
-197,533	120,811	-0,050	0,045
-196,519	-79,570	0,091	-0,022
-195,504	800,000	-0,012	-0,029
-194,490	545,546	0,029	-0,050
-193,475	292,468	0,102	0,136
-192,460	35,219	-0,027	0,017
-191,446	800,000	0,023	0,050
-190,431	-80,770	-0,029	-0,007
-189,417	-200,000	-0,019	-0,103
-188,402	-36,833	0,046	-0,018
-187,387	-200,000	0,007	-0,029
-186,373	-104,385	0,056	0,009
-185,358	-127,784	-0,008	0,001
-184,344	62,888	0,064	0,047
-183,329	-4,534	0,101	0,051
-182,315	-59,763	-0,110	0,034
-181,300	-33,780	-0,038	-0,015
-180,285	63,990	-0,094	-0,069
-179,271	-200,000	0,015	-0,116
-178,256	390,377	-0,088	-0,132
-177,242	800,000	-0,018	0,047
-176,227	592,983	0,069	0,125
-175,212	-97,090	0,031	-0,006
-174,198	-107,556	0,031	-0,005
-173,183	653,506	0,027	-0,050
-172,169	143,321	-0,050	0,048
-171,154	-167,732	0,052	-0,001
-170,139	637,557	-0,038	-0,071
-169,125	-133,381	-0,076	-0,007
-168,110	126,469	0,078	0,071
-167,096	-72,287	0,169	0,045
-166,081	398,316	-0,015	0,023
-165,066	374,351	-0,090	0,134
-164,052	260,132	0,033	-0,041
-163,037	800,000	-0,051	0,113
-162,023	51,871	-0,053	0,037
-161,008	800,000	0,054	0,127
-159,993	800,000	-0,026	0,063
-158,979	-60,867	0,056	0,017
-157,964	443,735	0,056	-0,090
-156,950	-200,000	0,012	0,060
-155,935	-200,000	0,027	-0,109
-154,920	120,928	0,118	0,106
-153,906	43,689	-0,094	0,062
-152,891	-152,471	0,022	-0,001
-151,877	-139,201	-0,080	-0,006
-150,862	55,732	-0,043	0,030
-149,847	188,301	-0,033	-0,036
-148,833	-200,000	0,001	0,070
-147,818	-9,617	0,047	-0,023
-146,804	-163,824	0,196	-0,007
-145,789	-200,000	0,008	0,109
-144,775	-200,000	0,001	-0,055
-143,760	800,000	-0,039	-0,108
-142,745	-200,000	0,001	-0,167
-141,731	182,053	0,038	0,041
-140,716	-57,598	0,047	-0,015
-139,702	-130,777	-0,109	-0,010
-138,687	87,082	-0,095	0,076
-137,672	135,473	-0,150	0,142
-136,658	71,846	0,064	0,048
-135,643	-97,726	-0,057	-0,011
-134,629	685,896	-0,037	0,071
-133,614	0,085	-0,123	0,063
-132,599	800,000	0,031	0,064
-131,585	-61,142	-0,200	0,061
-130,570	699,743	-0,033	-0,064
-129,556	-128,995	-0,077	0,008
-128,541	340,375	0,064	0,091
-127,526	-200,000	0,002	-0,035
-126,512	800,000	0,051	-0,135
-125,497	-200,000	0,017	0,170
-124,483	130,060	-0,111	-0,103
-123,468	-113,814	0,067	-0,009
-122,453	474,376	-0,072	-0,119
-121,439	-95,913	-0,070	0,013
-120,424	64,626	-0,077	-0,056
-119,410	390,847	0,050	-0,076
-118,395	379,001	-0,074	0,111
-117,380	343,213	-0,030	0,043
-116,366	29,304	-0,061	-0,038
-115,351	-78,701	0,050	-0,012
-114,337	-22,858	-0,095	0,041
-113,322	-200,000	0,032	0,153
-112,307	-83,510	-0,057	-0,013
-111,293	-200,000	0,002	0,114
-110,278	135,904	-0,087	0,082
-109,264	-200,000	-0,021	0,172
-108,249	689,971	0,023	-0,044
-107,234	-200,000	0,022	-0,118
-106,220	-122,419	-0,043	-0,005
-105,205	-200,000	-0,007	0,079
-104,191	-19,692	0,084	0,038
-103,176	-200,000	0,001	0,004
-102,162	-200,000	-0,009	-0,035
-101,147	-50,044	0,086	-0,029
-100,132	-70,075	-0,061	0,017
-99,118	-87,751	0,055	-0,012
-98,103	-200,000	0,017	0,163
-97,089	800,000	0,011	0,026
-96,074	-19,370	-0,011	-0,005
-95,059	310,933	-0,078	0,106
-94,045	20,023	-0,041	0,024
-93,030	800,000	0,085	0,220
-92,016	-200,000	0,005	0,098
-91,001	34,404	0,103	-0,065
-89,986	-200,000	0,012	0,195
-88,972	-12,237	0,203	0,096
-87,957	-24,975	-0,116	-0,050
-86,943	216,250	0,037	-0,042
-85,928	646,214	-0,058	-0,108
-84,913	-64,901	-0,067	-0,019
-83,899	29,008	0,053	-0,032
-82,884	800,000	0,084	0,186
-81,870	130,727	0,080	-0,075
-80,855	129,889	0,048	-0,044
-79,840	-40,420	-0,044	0,016
-78,826	-200,000	0,013	-0,109
-77,811	72,833	-0,060	-0,045
-76,797	219,157	-0,041	0,047
-75,782	-200,000	0,021	-0,140
-74,767	243,907	-0,029	-0,035
-73,753	509,337	-0,021	-0,036
-72,738	168,722	0,105	0,109
-71,724	99,497	-0,087	0,073
-70,709	800,000	-0,093	-0,187
-69,694	96,864	-0,056	0,046
-68,680	-200,000	-0,019	-0,066
-67,665	32,086	0,152	-0,095
-66,651	-39,337	0,047	0,018
-65,636	758,223	0,078	0,154
-64,622	-81,849	-0,157	0,037
-63,607	800,000	-0,070	-0,151
-62,592	43,280	0,029	-0,019
-61,578	117,229	-0,079	-0,070
-60,563	-200,000	0,021	-0,140
-59,549	306,949	-0,095	0,128
-58,534	-49,602	-1,613	-0,551
-57,519	800,000	-0,536	-1,252
-56,505	-200,000	-0,982	-4,665
-55,490	-90,643	0,581	-0,120
-54,476	800,000	5,215	12,195
-53,461	-200,000	15,278	265,463
-52,446	800,000	697,803	2200,817
-51,432	548,771	1617,667	2809,626
-50,417	119,004	1626,197	1451,608
-49,403	78,837	1284,584	991,596
-48,388	36,758	1026,070	653,285
-47,373	21,974	986,875	579,598
-46,359	20,985	975,973	569,921
-45,344	19,534	971,606	562,596
-44,330	19,572	970,291	561,935
-43,315	19,318	968,753	560,194
-42,300	19,283	967,838	559,527
-41,286	19,248	966,859	558,824
-40,271	19,253	965,900	558,264
-39,257	19,313	964,964	557,897
-38,242	19,280	964,183	557,315
-37,227	19,337	963,395	557,024
-36,213	19,316	962,329	556,318
-35,198	19,242	961,728	555,706
-34,184	19,256	960,974	555,296
-33,169	19,221	959,904	554,543
-32,154	19,336	958,901	554,312
-31,140	19,319	958,100	553,774
-30,125	19,282	957,457	553,259
-29,111	19,319	956,449	552,775
-28,096	19,266	956,062	552,357
-27,082	19,300	955,210	551,952
-26,067	19,296	954,498	551,505
-25,052	19,322	953,569	551,032
-24,038	19,267	953,078	550,548
-23,023	19,267	952,432	550,155
-22,009	19,300	951,611	549,763
-20,994	19,304	951,111	549,466
-19,979	19,336	950,382	549,125
-18,965	19,296	949,797	548,637
-17,950	19,308	949,188	548,302
-16,936	19,188	948,555	547,532
-15,921	19,192	947,907	547,149
-14,906	19,165	947,249	546,661
-13,892	19,227	946,454	546,379
-12,877	19,146	945,999	545,836
-11,863	19,119	945,268	545,307
-10,848	19,109	944,805	544,986
-9,833	19,217	944,402	545,074
-8,819	19,240	943,860	544,814
-7,804	19,212	943,111	544,271
-6,790	19,170	942,480	543,751
-5,775	19,197	942,022	543,553
-4,760	19,172	941,384	543,084
-3,746	19,191	940,626	542,684
-2,731	19,006	939,918	541,668
-1,717	18,949	939,138	541,017
-0,702	18,990	938,482	540,747
0,313	18,768	937,995	540,580
1,327	21,989	936,091	549,597
2,342	31,218	795,569	491,629
3,356	28,733	450,616	274,704
4,371	-0,766	296,144	150,921
5,386	-4,906	277,330	137,379
6,400	-6,145	271,910	133,524
7,415	-6,508	269,551	132,017
8,429	-6,697	268,393	131,264
9,444	-6,533	267,266	130,852
10,459	-6,605	266,744	130,518
11,473	-6,813	266,077	129,990
12,488	-6,914	265,699	129,701
13,502	-7,182	264,992	129,101
14,517	-7,201	264,486	128,826
15,531	-7,275	264,196	128,605
16,546	-7,367	263,794	128,315
17,561	-7,315	263,261	128,091
18,575	-7,373	263,080	127,939
19,590	-7,446	262,722	127,688
20,604	-7,058	262,399	127,870
21,619	-7,327	262,077	127,459
22,634	-7,427	261,654	127,152
23,648	-7,362	261,382	127,067
24,663	-7,465	261,164	126,858
25,677	-7,344	260,881	126,817
26,692	-7,420	260,650	126,625
27,707	-7,242	260,308	126,607
28,721	-7,501	260,077	126,252
29,736	-7,464	259,748	126,113
30,750	-7,522	259,573	125,966
31,765	-7,457	259,366	125,912
32,780	-7,546	259,110	125,697
33,794	-7,474	258,825	125,612
34,809	-7,502	258,632	125,483
35,823	-7,424	258,195	125,328
36,838	-7,636	258,079	125,073
37,853	-7,632	257,914	124,985
38,867	-7,490	257,607	124,951
39,882	-7,840	257,549	124,602
40,896	-7,640	257,234	124,615
41,911	-7,723	256,919	124,379
42,926	-7,587	256,659	124,361
43,940	-7,605	256,439	124,228
44,955	-7,750	256,268	124,007
45,969	-7,787	256,034	123,849
46,984	-7,994	255,836	123,562
47,999	-8,227	255,487	123,178
49,013	-8,163	255,100	123,036
50,028	-8,357	255,005	122,810
51,042	-8,421	254,710	122,601
52,057	-8,445	254,454	122,446
53,071	-8,467	254,381	122,380
54,086	-8,225	254,178	122,482
55,101	-8,205	254,003	122,405
56,115	-7,903	253,841	122,578
57,130	-7,389	253,889	123,038
58,144	-7,205	253,639	123,066
59,159	-7,108	253,495	123,069
60,174	-6,958	253,129	123,010
61,188	-7,250	253,046	122,706
62,203	-7,403	252,814	122,450
63,217	-7,508	252,562	122,226
64,232	-7,350	252,361	122,255
65,247	-7,011	252,121	122,420
66,261	-7,233	252,062	122,188
67,276	-7,624	251,595	121,615
68,290	-7,853	251,400	121,313
69,305	-7,921	251,075	121,087
70,320	-7,885	251,013	121,077
71,334	-7,696	250,975	121,210
72,349	-7,238	250,916	121,564
73,363	-7,214	250,551	121,397
74,378	-7,390	250,347	121,136
75,393	-7,296	250,145	121,108
76,407	-7,402	250,025	120,949
77,422	-7,608	249,799	120,653
78,436	-7,363	249,620	120,765
79,451	-7,295	249,319	120,666
80,466	-7,422	248,890	120,340
81,480	-7,709	248,707	119,997
82,495	-7,706	248,674	119,973
83,509	-7,685	248,453	119,873
84,524	-7,864	248,262	119,618
85,539	-7,914	247,916	119,398
86,553	-7,859	247,897	119,425
87,568	-7,681	247,571	119,409
88,582	-7,530	247,459	119,471
89,597	-7,709	247,150	119,160
90,611	-7,662	247,231	119,228
91,626	-7,573	247,088	119,224
92,641	-7,503	246,755	119,111
93,655	-7,464	246,550	119,035
94,670	-7,610	246,247	118,755
95,684	-7,582	246,140	118,717
96,699	-7,490	245,981	118,706
97,714	-7,568	245,679	118,485
98,728	-7,661	245,572	118,345
99,743	-7,715	245,449	118,229
100,757	-7,898	245,162	117,927
101,772	-7,660	244,898	117,989
102,787	-7,774	244,798	117,835
103,801	-7,691	244,803	117,896
104,816	-7,424	244,461	117,944
105,830	-7,371	244,381	117,939
106,845	-7,502	244,207	117,735
107,860	-7,385	243,940	117,694
108,874	-7,512	243,810	117,514
109,889	-7,611	243,636	117,338
110,903	-7,394	243,320	117,356
111,918	-7,671	243,294	117,102
112,933	-7,352	243,123	117,275
113,947	-7,388	242,953	117,151
114,962	-7,289	242,794	117,147
115,976	-7,481	242,658	116,912
116,991	-7,561	242,340	116,682
118,006	-7,670	242,197	116,513
119,020	-7,605	242,126	116,522
120,035	-7,383	241,915	116,593
121,049	-7,284	241,683	116,553
122,064	-7,268	241,642	116,536
123,079	-7,402	241,360	116,279
124,093	-7,437	241,197	116,161
125,108	-7,609	241,001	115,915
126,122	-7,804	240,755	115,627
127,137	-7,986	240,513	115,351
128,151	-7,761	240,396	115,469
129,166	-7,552	240,280	115,574
130,181	-7,808	240,065	115,251
131,195	-7,825	239,665	115,035
132,210	-7,684	239,751	115,181
133,224	-7,333	239,497	115,335
134,239	-7,127	239,398	115,445
135,254	-7,466	239,379	115,149
136,268	-7,558	238,947	114,856
137,283	-7,749	238,817	114,628
138,297	-8,083	238,620	114,252
139,312	-7,828	238,273	114,282
140,327	-7,625	238,372	114,485
141,341	-7,021	238,402	114,978
142,356	-6,896	238,050	114,900
143,370	-6,970	238,031	114,820
144,385	-7,111	237,949	114,656
145,400	-6,977	237,674	114,622
146,414	-6,894	237,425	114,558
147,429	-6,951	237,260	114,423
148,443	-6,839	237,107	114,429
149,458	-7,317	236,898	113,933
150,473	-7,167	236,831	114,011
151,487	-7,008	236,602	114,019
152,502	-7,159	236,429	113,804
153,516	-7,246	236,310	113,667
154,531	-7,197	235,959	113,527
155,546	-7,216	235,904	113,475
156,560	-7,161	235,750	113,435
157,575	-7,273	235,465	113,198
158,589	-7,220	235,388	113,193
159,604	-6,877	235,234	113,383
160,619	-6,992	235,052	113,194
161,633	-7,002	234,943	113,123
162,648	-7,039	234,713	112,973
163,662	-7,072	234,700	112,930
164,677	-7,135	234,326	112,690
165,692	-7,010	234,355	112,794
166,706	-6,838	234,209	112,850
167,721	-6,775	233,941	112,760
168,735	-7,012	233,914	112,549
169,750	-6,914	233,711	112,519
170,764	-7,021	233,593	112,368
171,779	-6,768	233,382	112,457
172,794	-6,913	233,295	112,290
173,808	-7,082	233,023	112,015
174,823	-7,558	232,664	111,457
175,837	-7,639	232,520	111,314
176,852	-7,132	232,508	111,698
177,867	-7,055	232,487	111,739
178,881	-7,034	232,337	111,674
179,896	-6,833	232,179	111,746
180,910	-6,948	231,963	111,542
181,925	-6,983	231,890	111,468
182,940	-6,981	231,621	111,331
183,954	-6,698	231,543	111,505
184,969	-7,037	231,394	111,158
185,983	-6,852	231,316	111,256
186,998	-6,969	231,136	111,068
188,013	-6,671	230,993	111,222
189,027	-6,690	230,825	111,117
190,042	-6,721	230,605	110,977
191,056	-6,709	230,433	110,894
192,071	-6,548	230,397	110,991
193,086	-6,668	230,248	110,816
194,100	-6,442	230,093	110,908
195,115	-6,208	230,009	111,039
196,129	-5,968	230,068	111,245
197,144	-2,227	231,186	114,696
198,159	1,858	232,210	118,391
199,173	3,577	232,570	119,908
200,188	3,467	232,612	119,833
201,202	3,701	232,426	119,909
202,217	3,626	232,335	119,793
203,232	4,135	232,193	120,106
204,246	4,004	232,089	119,940
205,261	4,096	232,083	119,997
206,275	4,241	231,832	119,970
207,290	4,470	231,651	120,043
208,304	4,261	231,685	119,888
209,319	4,320	231,333	119,741
210,334	4,241	231,216	119,609
211,348	4,122	230,956	119,371
212,363	3,662	230,679	118,861
213,377	3,469	230,503	118,611
214,392	3,398	230,249	118,414
215,407	3,554	230,263	118,531
216,421	3,463	230,010	118,320
217,436	3,285	229,875	118,103
218,450	3,445	229,601	118,076
219,465	3,341	229,476	117,920
220,480	3,252	229,400	117,802
221,494	3,291	229,350	117,796
222,509	3,425	229,105	117,763
223,523	3,454	229,099	117,771
224,538	3,497	228,746	117,612
225,553	3,364	228,718	117,486
226,567	3,748	228,500	117,657
227,582	3,889	228,491	117,750
228,596	3,997	228,474	117,813
229,611	3,461	228,197	117,250
230,626	3,265	227,973	116,975
231,640	3,395	227,913	117,033
232,655	3,597	227,730	117,083
233,669	3,946	227,880	117,416
234,684	4,247	227,463	117,420
235,699	3,872	227,323	117,052
236,713	3,649	227,131	116,773
237,728	3,302	227,095	116,480
238,742	3,494	226,608	116,365
239,757	3,485	226,622	116,355
240,772	3,509	226,327	116,211
241,786	3,383	226,246	116,064
242,801	3,643	226,238	116,247
243,815	4,041	226,116	116,475
244,830	4,042	226,035	116,424
245,844	3,582	225,689	115,888
246,859	3,526	225,571	115,774
247,874	3,725	225,475	115,865
248,888	3,665	225,418	115,780
249,903	3,639	225,115	115,594
250,917	3,281	225,182	115,348
251,932	3,517	224,948	115,396
252,947	3,428	224,748	115,217
253,961	3,386	224,527	115,061
254,976	3,566	224,435	115,139
255,990	3,648	224,387	115,166
257,005	3,894	224,190	115,239
258,020	3,794	224,244	115,181
259,034	3,770	224,030	115,043
260,049	4,040	223,768	115,100
261,063	3,770	223,626	114,815
262,078	3,923	223,503	114,856
263,093	4,140	223,317	114,912
264,107	3,832	223,223	114,624
265,122	3,739	223,057	114,459
266,136	3,765	223,118	114,500
267,151	4,098	222,812	114,580
268,166	3,654	222,531	114,095
269,180	3,252	222,386	113,712
270,195	3,233	222,344	113,667
271,209	3,380	222,154	113,668
272,224	3,382	222,118	113,641
273,239	3,447	222,039	113,639
274,253	3,539	221,632	113,488
275,268	3,198	221,461	113,139
276,282	3,158	221,368	113,051
277,297	3,376	221,200	113,117
278,312	3,286	221,209	113,045
279,326	3,544	221,027	113,132
280,341	3,642	220,767	113,061
281,355	3,453	220,924	112,992
282,370	3,492	220,538	112,813
283,384	3,147	220,361	112,459
284,399	3,182	220,201	112,393
285,414	3,091	220,153	112,292
286,428	3,564	219,990	112,546
287,443	3,603	219,875	112,506
288,457	3,547	219,807	112,419
289,472	3,420	219,583	112,202
290,487	3,227	219,356	111,935
291,501	2,968	219,212	111,661
292,516	3,268	219,069	111,798
293,530	3,378	218,862	111,762
294,545	3,202	218,846	111,616
295,560	3,460	218,747	111,744
296,574	3,672	218,597	111,812
297,589	3,500	218,433	111,593
298,603	3,468	218,320	111,502
299,618	3,474	218,138	111,403
300,633	3,447	218,215	111,412
301,647	3,606	218,160	111,490
302,662	3,626	217,868	111,346
303,676	3,654	217,685	111,262
304,691	3,700	217,541	111,213
305,706	3,877	217,373	111,245
306,720	3,733	217,314	111,100
307,735	3,368	216,985	110,659
308,749	3,170	216,880	110,452
309,764	3,470	216,964	110,701
310,779	4,069	216,816	111,049
311,793	3,581	216,676	110,615
312,808	3,629	216,436	110,517
313,822	3,547	216,219	110,338
314,837	3,444	216,095	110,191
315,852	3,355	215,859	109,997
316,866	3,447	215,856	110,051
317,881	3,758	215,823	110,248
318,895	3,724	215,625	110,112
319,910	3,439	215,406	109,786
320,925	3,209	215,185	109,500
321,939	2,977	215,048	109,254
322,954	2,845	214,913	109,082
323,968	3,473	214,860	109,493
324,983	3,711	214,774	109,610
325,997	3,782	214,621	109,573
327,012	3,531	214,730	109,440
328,027	3,727	214,354	109,378
329,041	3,806	214,282	109,387
330,056	3,859	214,223	109,385
331,070	3,492	214,040	109,021
332,085	3,364	213,712	108,754
333,100	3,562	213,527	108,790
334,114	3,616	213,479	108,794
335,129	3,774	213,321	108,816
336,143	3,585	213,095	108,557
337,158	3,473	213,073	108,457
338,173	3,421	213,047	108,397
339,187	3,545	212,767	108,333
340,202	3,320	212,468	108,012
341,216	3,222	212,377	107,887
342,231	3,188	212,419	107,875
343,246	3,168	212,248	107,764
344,260	3,343	212,051	107,778
345,275	3,307	212,036	107,736
346,289	3,466	211,922	107,780
347,304	3,822	211,890	108,004
348,319	3,473	211,616	107,610
349,333	3,599	211,545	107,653
350,348	3,497	211,384	107,489
351,362	3,594	211,390	107,551
352,377	3,836	211,084	107,555
353,392	3,387	210,953	107,165
354,406	3,625	210,896	107,293
355,421	195,636	1342,174	1429,228
356,435	156,254	1480,050	1429,277
