DTS Sentinel unit serial number:	SN410029Multiplexer serial number:	ORYXHardware model number:	OX2-SRSoftware version number:	ORYX F/W v4,00 Oryx Data Collector v3.7.2.0data status	okinstallation	B6 Nyhavnadifferential loss correction	single-endedforward channel	channel 2reverse channel	N/Adate	2023/12/11time	03:45:08forward acquisition time	300,00reverse acquisition time	0,00gamma	499,1914k internal	0,3125k external	0,3125temperature offset calibration	1,0000default loss term (dB/km)	0,3820temperature slope calibration	1,0000multiplexer offset coefficient	1,0000multiplexer slope coefficient	1,0000fibre end	0,00T internal ref (°C)	21,01T ext. ref 1 (°C)	3,72T ext. ref 2 (°C)	3,74length (m)	temperature (°C)	Stokes	anti-Stokes-744,400	174,525	-0,027	-0,029
-743,385	-156,721	-0,277	0,013
-742,371	-200,000	-0,007	0,029
-741,356	201,043	-0,123	0,141
-740,342	-200,000	-0,004	0,053
-739,327	-52,481	-0,211	0,072
-738,312	-200,000	-0,006	0,043
-737,298	-107,556	-0,207	0,033
-736,283	249,295	0,115	0,145
-735,269	-116,676	-0,133	-0,018
-734,254	49,340	-0,021	0,015
-733,239	-121,985	-0,323	-0,039
-732,225	383,115	0,021	-0,033
-731,210	33,306	-0,080	0,052
-730,196	-200,000	0,029	-0,122
-729,181	87,313	0,052	0,043
-728,167	-112,280	-0,047	0,007
-727,152	-65,808	0,045	-0,013
-726,137	356,698	-0,111	-0,165
-725,123	42,885	-0,053	0,036
-724,108	-200,000	0,013	-0,092
-723,094	76,603	0,036	-0,028
-722,079	71,628	-0,110	-0,085
-721,064	476,307	0,033	-0,056
-720,050	53,985	0,062	-0,045
-719,035	800,000	0,014	-0,039
-718,021	-35,570	-0,070	0,028
-717,006	585,097	0,074	-0,135
-715,991	800,000	0,013	-0,027
-714,977	-131,999	-0,021	0,002
-713,962	397,859	-0,049	0,076
-712,948	157,181	0,047	-0,048
-711,933	800,000	-0,060	-0,168
-710,918	214,716	0,084	-0,099
-709,904	502,213	-0,057	-0,099
-708,889	317,870	-0,178	-0,251
-707,875	-160,269	-0,184	-0,007
-706,860	-110,909	0,046	0,007
-705,845	-25,671	0,133	0,058
-704,831	128,807	0,104	0,098
-703,816	-38,447	-0,036	-0,014
-702,802	-200,000	0,004	-0,019
-701,787	428,175	0,017	-0,028
-700,772	179,164	-0,063	0,068
-699,758	406,517	-0,100	0,158
-698,743	110,665	0,053	0,048
-697,729	-83,468	0,055	-0,013
-696,714	-99,854	-0,104	0,019
-695,699	608,997	-0,025	0,047
-694,685	221,471	0,066	-0,079
-693,670	-200,000	-0,000	-0,188
-692,656	-145,173	0,047	-0,003
-691,641	-38,300	0,036	-0,014
-690,627	359,482	0,029	0,043
-689,612	6,531	0,055	-0,030
-688,597	800,000	-0,018	-0,049
-687,583	289,774	-0,072	0,098
-686,568	112,268	-0,062	-0,055
-685,554	220,584	-0,060	-0,072
-684,539	368,140	-0,013	-0,019
-683,524	-143,405	0,118	0,008
-682,510	-200,000	-0,029	-0,118
-681,495	-71,848	-0,084	0,023
-680,481	-76,490	-0,121	0,031
-679,466	800,000	0,005	-0,012
-678,451	-86,333	0,059	0,013
-677,437	506,881	-0,077	-0,133
-676,422	290,800	-0,023	0,031
-675,408	-39,735	0,067	0,026
-674,393	-144,116	-0,118	-0,008
-673,378	336,051	-0,067	-0,097
-672,364	126,278	-0,106	-0,100
-671,349	-50,893	-0,063	-0,022
-670,335	-200,000	0,024	-0,115
-669,320	-200,000	-0,016	-0,099
-668,305	232,596	0,098	0,120
-667,291	-61,157	-0,098	0,031
-666,276	125,314	-0,075	-0,070
-665,262	-200,000	0,015	-0,118
-664,247	62,800	0,045	0,033
-663,232	-62,432	-0,046	-0,014
-662,218	32,198	-0,047	-0,030
-661,203	-147,338	-0,138	-0,009
-660,189	-200,000	0,007	0,027
-659,174	800,000	0,057	-0,140
-658,159	800,000	0,033	-0,085
-657,145	718,753	-0,052	-0,103
-656,130	142,379	0,046	-0,046
-655,116	-200,000	-0,008	0,036
-654,101	-35,924	0,108	-0,043
-653,086	-53,772	-0,104	-0,035
-652,072	800,000	0,027	0,073
-651,057	726,197	-0,095	-0,189
-650,043	-200,000	-0,002	0,022
-649,028	-125,985	-0,056	-0,006
-648,014	800,000	-0,055	-0,177
-646,999	-158,123	-0,198	-0,008
-645,984	255,042	0,083	0,106
-644,970	180,569	-0,040	0,044
-643,955	-200,000	-0,007	-0,045
-642,941	800,000	-0,050	-0,129
-641,926	-122,511	0,076	-0,009
-640,911	359,540	-0,026	0,039
-639,897	636,094	0,083	0,158
-638,882	35,065	0,078	0,051
-637,868	-200,000	-0,001	-0,018
-636,853	-96,160	-0,163	-0,032
-635,838	-34,034	-0,117	0,048
-634,824	-79,992	-0,063	-0,015
-633,809	-200,000	0,007	0,234
-632,795	-154,636	-0,057	0,003
-631,780	-43,365	-0,038	-0,014
-630,765	516,008	0,063	0,109
-629,751	-16,498	-0,120	-0,056
-628,736	-200,000	-0,030	-0,148
-627,722	800,000	-0,009	0,025
-626,707	83,741	-0,067	-0,055
-625,692	14,044	0,034	-0,020
-624,678	185,232	0,078	0,086
-623,663	-200,000	-0,008	-0,076
-622,649	395,464	-0,022	-0,034
-621,634	-81,166	-0,056	-0,014
-620,619	-57,465	-0,062	0,020
-619,605	-200,000	0,011	-0,075
-618,590	37,678	0,063	0,042
-617,576	-200,000	-0,017	-0,123
-616,561	400,991	-0,018	-0,029
-615,546	-200,000	-0,005	-0,208
-614,532	-182,751	-0,094	-0,001
-613,517	-200,000	0,005	0,067
-612,503	800,000	0,013	-0,036
-611,488	246,608	0,044	-0,055
-610,474	800,000	0,039	-0,107
-609,459	-200,000	-0,011	0,077
-608,444	-200,000	-0,019	-0,074
-607,430	176,961	-0,025	-0,027
-606,415	143,271	-0,062	-0,061
-605,401	-200,000	-0,009	-0,036
-604,386	142,080	0,037	-0,036
-603,371	58,556	-0,012	0,009
-602,357	-200,000	0,012	-0,114
-601,342	-161,448	0,145	-0,005
-600,328	114,226	-0,060	-0,054
-599,313	-91,842	0,113	0,024
-598,298	13,259	-0,141	-0,081
-597,284	-40,847	-0,067	0,026
-596,269	-132,338	0,144	-0,014
-595,255	-200,000	-0,002	-0,055
-594,240	-142,204	0,067	0,005
-593,225	3,445	-0,065	0,035
-592,211	-85,015	-0,094	-0,022
-591,196	-200,000	-0,012	-0,122
-590,182	-200,000	0,015	0,148
-589,167	-78,314	0,079	-0,020
-588,152	-83,254	0,133	0,031
-587,138	800,000	0,066	0,160
-586,123	-39,807	0,029	-0,011
-585,109	390,410	-0,028	0,043
-584,094	-25,524	0,021	0,009
-583,079	200,865	0,076	0,087
-582,065	-164,159	-0,021	0,001
-581,050	-200,000	-0,003	-0,060
-580,036	-120,406	-0,066	0,008
-579,021	-200,000	-0,009	0,165
-578,006	-200,000	0,011	-0,067
-576,992	-200,000	-0,004	0,026
-575,977	-115,644	0,069	-0,010
-574,963	532,511	-0,023	-0,040
-573,948	143,071	-0,095	0,094
-572,934	-57,410	-0,058	0,019
-571,919	-53,357	-0,056	-0,019
-570,904	237,386	-0,036	-0,044
-569,890	32,551	-0,100	-0,064
-568,875	192,154	0,070	-0,078
-567,861	19,890	-0,135	0,080
-566,846	-200,000	0,013	0,096
-565,831	244,831	-0,018	-0,023
-564,817	-27,040	0,050	-0,021
-563,802	-200,000	-0,019	-0,075
-562,788	-200,000	0,004	0,030
-561,773	281,498	0,034	0,046
-560,758	800,000	-0,009	-0,028
-559,744	157,543	0,040	-0,041
-558,729	-200,000	-0,002	0,062
-557,715	-163,247	-0,094	-0,003
-556,700	800,000	0,045	-0,139
-555,685	780,851	-0,030	-0,061
-554,671	-200,000	-0,002	0,015
-553,656	-9,966	-0,056	-0,027
-552,642	-46,130	-0,037	0,013
-551,627	-200,000	-0,008	-0,048
-550,612	800,000	0,010	-0,028
-549,598	-200,000	-0,003	0,030
-548,583	-200,000	0,009	-0,067
-547,569	800,000	0,013	-0,040
-546,554	96,883	-0,009	0,007
-545,539	53,908	0,022	-0,015
-544,525	-200,000	-0,015	-0,112
-543,510	-145,584	0,049	0,003
-542,496	79,351	-0,067	-0,053
-541,481	-102,085	0,039	0,007
-540,466	157,538	0,072	-0,074
-539,452	7,925	0,085	0,047
-538,437	-34,460	-0,059	0,024
-537,423	629,340	0,064	0,121
-536,408	-200,000	0,022	-0,112
-535,393	-200,000	-0,001	-0,038
-534,379	2,452	0,056	0,030
-533,364	416,712	0,055	0,087
-532,350	43,683	-0,033	0,022
-531,335	189,409	-0,067	-0,074
-530,321	-68,018	0,125	-0,036
-529,306	-98,749	-0,123	0,023
-528,291	-185,000	-0,075	0,001
-527,277	-200,000	-0,028	-0,101
-526,262	-200,000	-0,011	-0,051
-525,248	394,911	0,086	-0,133
-524,233	-200,000	-0,074	0,000
-523,218	199,682	0,048	-0,054
-522,204	140,968	-0,099	0,097
-521,189	144,347	-0,029	-0,029
-520,175	208,988	-0,119	0,138
-519,160	-135,482	0,046	-0,004
-518,145	-38,557	0,040	-0,015
-517,131	23,336	0,025	0,015
-516,116	232,070	-0,060	-0,072
-515,102	-3,869	-0,032	0,016
-514,087	-200,000	-0,026	-0,101
-513,072	800,000	0,017	-0,053
-512,058	64,493	-0,072	-0,054
-511,043	-200,000	-0,003	0,060
-510,029	-47,956	0,132	-0,047
-509,014	-200,000	-0,024	0,131
-507,999	73,383	0,057	-0,044
-506,985	-104,640	-0,177	-0,030
-505,970	-69,353	-0,174	-0,049
-504,956	292,423	-0,046	-0,062
-503,941	-2,376	0,032	-0,016
-502,926	86,898	0,064	-0,053
-501,912	-49,020	0,083	0,029
-500,897	800,000	-0,031	-0,084
-499,883	154,305	0,046	0,046
-498,868	-6,739	-0,122	-0,061
-497,853	-119,328	0,179	0,023
-496,839	-200,000	0,015	0,103
-495,824	214,242	0,018	-0,022
-494,810	214,384	0,066	-0,077
-493,795	20,765	-0,085	0,051
-492,781	800,000	0,027	-0,080
-491,766	38,553	-0,088	-0,058
-490,751	-200,000	-0,014	-0,101
-489,737	132,508	0,062	-0,059
-488,722	43,871	0,073	0,050
-487,708	127,601	0,071	0,067
-486,693	-0,586	-0,018	0,010
-485,678	679,307	0,030	-0,058
-484,664	99,142	-0,084	0,072
-483,649	255,828	0,028	0,035
-482,635	-200,000	-0,015	-0,064
-481,620	310,319	-0,016	-0,022
-480,605	-30,568	-0,069	-0,029
-479,591	-43,967	0,168	-0,062
-478,576	-127,937	0,095	0,010
-477,562	-5,099	-0,113	0,057
-476,547	800,000	0,018	0,045
-475,532	-40,229	0,095	-0,036
-474,518	-46,628	-0,040	0,014
-473,503	271,366	0,038	0,050
-472,489	-200,000	-0,004	-0,076
-471,474	32,926	0,058	0,037
-470,459	258,674	0,024	0,031
-469,445	-104,773	-0,122	-0,021
-468,430	-200,000	-0,014	0,067
-467,416	-130,313	0,208	-0,021
-466,401	25,219	0,236	0,144
-465,386	300,874	0,019	-0,026
-464,372	-200,000	-0,014	0,103
-463,357	-39,884	0,082	0,031
-462,343	-200,000	0,006	-0,060
-461,328	485,045	-0,055	0,093
-460,313	-200,000	0,005	0,113
-459,299	-200,000	-0,015	0,100
-458,284	-107,437	0,137	-0,022
-457,270	21,238	-0,068	-0,040
-456,255	-200,000	0,014	0,066
-455,241	-38,788	-0,037	-0,014
-454,226	-200,000	-0,010	0,056
-453,211	-182,791	0,057	0,001
-452,197	-140,998	0,104	0,008
-451,182	45,892	0,144	0,098
-450,168	-200,000	0,005	0,242
-449,153	273,738	0,063	-0,082
-448,138	800,000	-0,008	-0,027
-447,124	-100,816	-0,024	0,004
-446,109	-72,335	0,071	-0,019
-445,095	800,000	0,019	0,048
-444,080	8,175	0,041	-0,022
-443,065	78,228	0,038	-0,030
-442,051	-77,594	-0,088	-0,022
-441,036	187,265	-0,057	-0,062
-440,022	-120,458	-0,043	-0,005
-439,007	-67,602	0,135	0,039
-437,992	-200,000	0,009	0,089
-436,978	341,420	0,118	0,170
-435,963	144,883	-0,144	0,141
-434,949	-200,000	-0,007	0,024
-433,934	-200,000	0,001	-0,044
-432,919	9,588	0,124	-0,069
-431,905	-31,895	-0,130	-0,053
-430,890	800,000	0,061	0,168
-429,876	-83,912	0,220	0,051
-428,861	-108,716	0,089	-0,014
-427,846	-20,467	0,105	0,047
-426,832	-75,946	0,120	-0,031
-425,817	-5,465	-0,092	-0,046
-424,803	-200,000	-0,016	-0,089
-423,788	-200,000	0,001	-0,066
-422,773	-139,949	0,072	-0,006
-421,759	-200,000	0,010	0,050
-420,744	-17,453	0,107	-0,049
-419,730	-200,000	-0,008	-0,120
-418,715	218,134	-0,029	0,034
-417,701	800,000	0,055	0,173
-416,686	469,468	0,047	-0,079
-415,671	-12,938	0,128	0,061
-414,657	800,000	0,047	0,128
-413,642	-32,017	0,064	-0,026
-412,628	429,769	0,006	-0,009
-411,613	-200,000	0,014	-0,068
-410,598	-200,000	-0,013	-0,100
-409,584	-92,931	-0,141	-0,029
-408,569	-200,000	0,002	-0,007
-407,555	205,833	0,080	0,092
-406,540	83,556	-0,115	0,092
-405,525	-47,412	-0,090	0,032
-404,511	-136,708	-0,115	-0,010
-403,496	167,158	0,064	-0,066
-402,482	520,933	0,091	0,157
-401,467	800,000	0,080	0,176
-400,452	104,723	-0,061	-0,053
-399,438	-200,000	0,015	0,055
-398,423	-106,649	0,038	-0,006
-397,409	301,631	-0,079	0,107
-396,394	800,000	-0,023	-0,059
-395,379	-47,734	0,055	-0,019
-394,365	263,637	0,043	-0,055
-393,350	283,990	-0,061	-0,081
-392,336	-200,000	-0,018	0,091
-391,321	-189,936	0,071	-0,001
-390,306	-200,000	0,041	-0,136
-389,292	-0,523	-0,134	0,070
-388,277	-23,811	-0,082	0,036
-387,263	19,211	0,031	0,018
-386,248	332,300	0,075	0,106
-385,233	-84,929	-0,069	0,016
-384,219	28,021	-0,051	-0,031
-383,204	84,801	-0,050	-0,040
-382,190	-200,000	0,023	-0,084
-381,175	131,598	-0,052	0,049
-380,160	-200,000	0,009	0,081
-379,146	-200,000	-0,012	0,194
-378,131	92,390	0,037	0,030
-377,117	800,000	-0,011	0,033
-376,102	70,514	0,047	0,035
-375,088	53,450	-0,038	-0,027
-374,073	-17,860	-0,124	-0,057
-373,058	-149,612	0,062	0,004
-372,044	-29,285	-0,116	0,049
-371,029	114,504	-0,086	0,077
-370,015	80,724	0,065	0,052
-369,000	-200,000	-0,024	-0,084
-367,985	156,213	-0,039	0,040
-366,971	-200,000	-0,037	-0,182
-365,956	800,000	0,027	0,065
-364,942	800,000	0,020	0,062
-363,927	-200,000	-0,006	0,101
-362,912	-54,914	-0,093	-0,030
-361,898	772,807	-0,033	-0,067
-360,883	-200,000	0,055	-0,178
-359,869	800,000	0,042	-0,089
-358,854	258,476	0,054	0,069
-357,839	-200,000	-0,009	-0,066
-356,825	-58,187	-0,120	0,038
-355,810	-47,754	-0,121	0,043
-354,796	502,712	-0,048	-0,082
-353,781	782,458	-0,081	-0,164
-352,766	-200,000	0,010	-0,093
-351,752	120,365	0,086	-0,079
-350,737	99,788	0,052	-0,044
-349,723	102,651	0,189	-0,162
-348,708	97,856	-0,087	-0,073
-347,693	200,189	-0,108	-0,122
-346,679	-42,417	0,031	-0,012
-345,664	-200,000	-0,001	-0,018
-344,650	800,000	-0,027	-0,076
-343,635	-19,797	0,043	0,019
-342,620	-78,458	0,015	0,004
-341,606	27,092	-0,068	0,042
-340,591	-0,203	0,052	0,027
-339,577	-7,359	-0,028	-0,014
-338,562	-106,303	0,139	-0,023
-337,548	-1,701	0,100	-0,051
-336,533	800,000	0,039	0,092
-335,518	-80,907	-0,070	0,017
-334,504	-46,447	0,108	0,039
-333,489	666,223	-0,063	-0,120
-332,475	-200,000	-0,010	-0,129
-331,460	55,591	-0,066	-0,047
-330,445	504,946	-0,028	-0,048
-329,431	-35,395	-0,093	-0,037
-328,416	800,000	0,016	0,040
-327,402	69,270	0,033	0,025
-326,387	-19,570	-0,048	0,022
-325,372	221,001	0,031	-0,036
-324,358	-157,991	-0,182	-0,008
-323,343	24,645	-0,105	-0,064
-322,329	800,000	-0,014	-0,030
-321,314	-107,106	-0,084	-0,014
-320,299	104,649	0,051	-0,044
-319,285	800,000	0,008	-0,022
-318,270	-200,000	0,009	-0,036
-317,256	-190,412	-0,207	0,002
-316,241	111,456	0,117	-0,103
-315,226	-200,000	-0,040	-0,183
-314,212	530,115	-0,101	0,175
-313,197	-200,000	0,031	0,100
-312,183	-200,000	-0,035	0,171
-311,168	3,317	0,114	0,060
-310,153	-174,254	-0,035	0,001
-309,139	-39,712	-0,067	-0,026
-308,124	-33,524	0,073	0,029
-307,110	-200,000	-0,017	0,162
-306,095	160,460	0,044	-0,045
-305,080	-200,000	-0,002	-0,010
-304,066	-200,000	-0,011	-0,050
-303,051	28,111	0,114	-0,070
-302,037	-103,270	-0,044	0,008
-301,022	229,378	0,088	-0,106
-300,008	113,883	0,102	0,090
-298,993	-200,000	0,000	0,189
-297,978	-14,122	-0,050	-0,024
-296,964	107,933	0,141	0,123
-295,949	80,868	-0,051	0,040
-294,935	-54,197	-0,086	0,028
-293,920	-85,286	0,189	-0,043
-292,905	389,670	-0,038	-0,058
-291,891	800,000	-0,009	0,019
-290,876	-200,000	-0,021	0,151
-289,862	73,785	-0,058	-0,044
-288,847	-59,704	-0,117	-0,037
-287,832	-25,147	0,138	0,060
-286,818	26,710	0,015	0,009
-285,803	500,463	-0,032	-0,054
-284,789	324,406	-0,008	-0,011
-283,774	232,587	-0,029	0,035
-282,759	139,960	0,052	-0,050
-281,745	244,221	0,025	-0,031
-280,730	26,636	-0,086	-0,052
-279,716	-52,472	0,117	-0,039
-278,701	464,895	-0,048	0,078
-277,686	-104,036	0,042	-0,007
-276,672	103,049	-0,089	-0,076
-275,657	-200,000	0,028	0,091
-274,643	564,868	-0,039	-0,069
-273,628	114,226	-0,089	-0,079
-272,613	11,675	0,023	-0,013
-271,599	-1,221	0,085	-0,044
-270,584	-61,137	0,102	0,031
-269,570	-200,000	-0,018	0,106
-268,555	15,072	0,046	-0,026
-267,540	-200,000	0,028	0,110
-266,526	-56,735	0,014	0,005
-265,511	-200,000	0,001	-0,058
-264,497	30,291	-0,044	-0,027
-263,482	-116,144	-0,029	0,004
-262,467	-200,000	0,021	0,072
-261,453	-200,000	0,020	0,087
-260,438	89,361	-0,045	0,037
-259,424	800,000	-0,056	-0,116
-258,409	-37,810	-0,102	0,040
-257,395	-200,000	-0,012	-0,045
-256,380	-37,025	-0,094	0,036
-255,365	192,466	-0,048	0,053
-254,351	15,197	-0,128	0,073
-253,336	-75,779	-0,087	-0,022
-252,322	82,104	0,055	0,044
-251,307	-200,000	-0,014	-0,164
-250,292	-39,465	-0,074	-0,028
-249,278	-7,775	0,071	0,035
-248,263	120,050	0,075	0,068
-247,249	130,809	0,056	0,053
-246,234	800,000	0,037	0,087
-245,219	-144,710	0,060	0,004
-244,205	-16,719	0,068	-0,031
-243,190	765,599	0,081	-0,161
-242,176	-147,252	0,070	0,004
-241,161	800,000	-0,027	0,070
-240,146	-119,555	0,045	-0,006
-239,132	-14,322	-0,072	0,034
-238,117	-23,571	-0,036	-0,016
-237,103	-68,847	-0,081	0,023
-236,088	495,369	0,065	0,110
-235,073	-200,000	0,024	-0,088
-234,059	-134,660	0,072	-0,006
-233,044	800,000	0,044	0,110
-232,030	265,675	-0,047	-0,059
-231,015	556,207	0,100	-0,177
-230,000	-200,000	-0,010	-0,065
-228,986	-200,000	0,020	-0,220
-227,971	-200,000	0,010	0,035
-226,957	113,041	0,071	0,063
-225,942	609,265	-0,029	0,054
-224,927	-64,327	0,140	-0,041
-223,913	800,000	0,013	0,028
-222,898	-132,127	-0,072	0,007
-221,884	421,894	-0,066	-0,104
-220,869	79,992	0,079	-0,062
-219,855	328,958	0,066	0,093
-218,840	-32,813	0,064	0,026
-217,825	-145,588	0,030	0,002
-216,811	331,963	-0,038	-0,054
-215,796	201,216	-0,081	-0,092
-214,782	47,971	0,091	-0,062
-213,767	-69,630	-0,102	0,028
-212,752	576,161	0,072	0,128
-211,738	174,213	-0,070	-0,074
-210,723	-200,000	0,011	0,055
-209,709	-159,752	-0,041	0,002
-208,694	78,302	-0,155	-0,121
-207,679	-200,000	0,007	-0,029
-206,665	800,000	0,025	-0,077
-205,650	5,708	0,055	0,030
-204,636	-200,000	0,029	0,106
-203,621	-100,950	-0,104	0,018
-202,606	46,207	-0,036	-0,024
-201,592	23,694	-0,073	0,044
-200,577	-200,000	0,012	0,048
-199,563	231,155	-0,028	0,034
-198,548	182,279	0,018	0,019
-197,533	44,064	-0,075	-0,050
-196,519	-3,305	-0,082	-0,042
-195,504	-200,000	0,006	-0,075
-194,490	-8,755	-0,054	0,026
-193,475	141,458	0,017	0,016
-192,460	-200,000	-0,018	0,144
-191,446	800,000	0,012	-0,031
-190,431	800,000	-0,005	-0,012
-189,417	-48,906	0,108	0,037
-188,402	800,000	-0,066	0,135
-187,387	-200,000	0,013	-0,050
-186,373	470,656	-0,020	0,033
-185,358	800,000	0,015	-0,033
-184,344	-200,000	0,005	-0,066
-183,329	-200,000	0,018	0,160
-182,315	672,358	-0,036	-0,068
-181,300	-92,014	-0,181	-0,037
-180,285	-139,418	0,078	0,006
-179,271	-121,836	-0,099	-0,012
-178,256	-184,494	-0,022	-0,000
-177,242	-81,407	0,072	-0,017
-176,227	334,491	0,054	0,076
-175,212	-200,000	-0,000	0,049
-174,198	294,563	0,033	0,045
-173,183	-40,068	-0,083	-0,031
-172,169	83,229	0,105	-0,083
-171,154	-59,053	0,032	0,010
-170,139	800,000	0,067	0,148
-169,125	-200,000	-0,005	0,151
-168,110	-200,000	-0,021	0,160
-167,096	452,507	0,081	0,131
-166,081	-200,000	0,019	0,119
-165,066	800,000	-0,065	0,139
-164,052	-200,000	0,006	-0,100
-163,037	800,000	-0,025	0,081
-162,023	-105,433	0,020	-0,003
-161,008	-33,646	-0,040	-0,016
-159,993	-200,000	-0,024	-0,097
-158,979	-200,000	-0,003	-0,138
-157,964	-200,000	-0,008	0,034
-156,950	18,456	0,085	0,049
-155,935	-200,000	-0,001	0,046
-154,920	94,295	-0,045	0,037
-153,906	-200,000	0,012	0,084
-152,891	5,736	-0,083	0,045
-151,877	3,741	-0,090	-0,048
-150,862	-147,023	-0,040	0,002
-149,847	-145,553	-0,066	-0,004
-148,833	-5,906	0,126	0,063
-147,818	-200,000	-0,008	0,045
-146,804	120,138	-0,090	-0,081
-145,789	51,219	0,012	-0,009
-144,775	-0,021	0,059	-0,030
-143,760	-200,000	-0,025	-0,115
-142,745	15,415	-0,049	-0,028
-141,731	253,492	-0,093	0,116
-140,716	294,448	0,062	-0,083
-139,702	77,740	0,179	0,139
-138,687	437,602	-0,070	0,112
-137,672	-57,661	-0,030	-0,010
-136,658	-70,339	-0,040	0,011
-135,643	226,102	-0,083	0,098
-134,629	-200,000	0,013	0,180
-133,614	71,269	0,038	0,029
-132,599	-92,406	0,117	-0,024
-131,585	-124,236	-0,091	0,010
-130,570	42,542	-0,080	0,053
-129,556	-200,000	0,004	-0,126
-128,541	-200,000	0,011	-0,041
-127,526	800,000	0,044	-0,108
-126,512	8,326	0,021	-0,011
-125,497	-200,000	0,006	0,025
-124,483	-200,000	0,011	0,050
-123,468	800,000	-0,049	-0,123
-122,453	177,372	-0,032	0,034
-121,439	83,281	-0,080	-0,063
-120,424	83,189	-0,073	0,058
-119,410	-20,227	0,022	0,010
-118,395	315,888	-0,043	0,059
-117,380	800,000	0,041	-0,085
-116,366	-118,846	-0,055	-0,007
-115,351	800,000	-0,034	-0,096
-114,337	124,512	-0,129	-0,118
-113,322	51,268	0,131	-0,090
-112,307	220,834	0,081	0,094
-111,293	-200,000	-0,008	0,074
-110,278	-200,000	-0,011	0,204
-109,264	800,000	0,032	0,087
-108,249	445,796	0,051	-0,082
-107,234	-100,172	-0,091	0,016
-106,220	426,190	-0,033	-0,052
-105,205	106,443	0,116	0,100
-104,191	117,341	-0,058	0,052
-103,176	-106,984	0,064	-0,010
-102,162	-35,725	0,120	0,047
-101,147	-200,000	-0,013	-0,045
-100,132	146,377	-0,017	-0,016
-99,118	-66,338	0,026	-0,008
-98,103	-200,000	-0,001	-0,106
-97,089	-200,000	0,024	0,153
-96,074	46,411	-0,041	-0,027
-95,059	-18,043	0,087	0,040
-94,045	-102,351	-0,086	-0,015
-93,030	-150,613	-0,126	0,007
-92,016	59,926	0,047	-0,034
-91,001	-200,000	-0,028	-0,145
-89,986	-92,312	0,121	0,025
-88,972	-200,000	-0,017	-0,071
-87,957	-66,574	-0,051	-0,015
-86,943	-115,405	-0,132	-0,018
-85,928	517,813	-0,010	-0,017
-84,913	276,769	0,011	0,014
-83,899	-67,878	-0,027	0,008
-82,884	800,000	0,075	-0,214
-81,870	-37,516	0,162	0,063
-80,855	800,000	0,026	0,073
-79,840	18,306	-0,014	0,008
-78,826	14,124	-0,107	0,060
-77,811	-200,000	0,016	-0,105
-76,797	-73,794	-0,068	-0,018
-75,782	-75,840	0,059	-0,015
-74,767	800,000	0,028	0,059
-73,753	112,770	0,010	0,009
-72,738	-114,266	-0,180	-0,025
-71,724	53,248	-0,113	0,078
-70,709	800,000	0,027	0,075
-69,694	800,000	0,022	0,050
-68,680	787,827	-0,053	0,107
-67,665	139,341	0,118	-0,113
-66,651	251,792	0,052	0,064
-65,636	44,015	-0,017	0,011
-64,622	800,000	-0,060	-0,137
-63,607	-200,000	0,005	-0,073
-62,592	-200,000	0,014	-0,060
-61,578	29,951	-0,059	0,036
-60,563	-163,416	0,046	-0,002
-59,549	206,311	0,056	0,063
-58,534	-113,562	-1,497	-0,210
-57,519	435,495	-0,855	-1,353
-56,505	-200,000	-0,913	-4,537
-55,490	-141,988	0,607	-0,043
-54,476	800,000	5,090	11,798
-53,461	-200,000	14,633	264,358
-52,446	-200,000	696,278	2272,647
-51,432	589,334	1622,372	2911,931
-50,417	120,395	1631,233	1468,964
-49,403	77,866	1284,756	992,099
-48,388	38,017	1022,828	658,302
-47,373	23,317	982,180	583,780
-46,359	22,442	971,548	574,567
-45,344	21,253	967,331	568,161
-44,330	21,238	966,010	567,313
-43,315	21,090	964,421	565,876
-42,300	21,045	963,418	565,119
-41,286	21,100	962,414	564,685
-40,271	21,078	961,413	564,003
-39,257	21,069	960,337	563,321
-38,242	21,098	959,559	562,938
-37,227	21,071	958,721	562,337
-36,213	20,951	957,834	561,406
-35,198	21,034	956,882	561,093
-34,184	21,069	956,049	560,695
-33,169	20,924	955,414	559,832
-32,154	21,098	954,304	559,720
-31,140	21,059	953,520	559,114
-30,125	21,085	952,791	558,748
-29,111	21,065	952,027	558,212
-28,096	21,095	951,277	557,848
-27,082	21,062	950,594	557,318
-26,067	21,093	949,631	556,830
-25,052	21,047	949,049	556,321
-24,038	21,025	948,258	555,764
-23,023	21,009	947,820	555,433
-22,009	21,086	947,126	555,254
-20,994	21,076	946,483	554,821
-19,979	21,022	946,068	554,383
-18,965	21,114	945,071	554,070
-17,950	21,043	944,636	553,568
-16,936	20,976	944,034	552,979
-15,921	20,926	943,269	552,350
-14,906	20,879	942,650	551,814
-13,892	20,866	942,199	551,488
-12,877	20,941	941,387	551,230
-11,863	20,892	940,879	550,755
-10,848	20,907	940,283	550,431
-9,833	21,031	939,796	550,517
-8,819	21,039	939,195	550,169
-7,804	20,981	938,562	549,591
-6,790	20,916	937,877	548,963
-5,775	20,934	937,484	548,768
-4,760	20,907	936,817	548,271
-3,746	20,916	936,357	548,008
-2,731	20,791	935,446	547,057
-1,717	20,773	934,652	546,516
-0,702	20,746	934,212	546,153
0,313	20,570	933,391	545,942
1,327	23,556	931,511	554,189
2,342	32,827	794,467	497,333
3,356	30,180	451,102	278,372
4,371	-0,365	295,161	151,475
5,386	-4,849	276,342	137,533
6,400	-6,241	270,456	133,292
7,415	-6,797	268,190	131,648
8,429	-6,572	267,153	131,335
9,444	-6,530	266,330	130,957
10,459	-6,199	265,521	130,852
11,473	-6,179	264,880	130,542
12,488	-6,342	264,432	130,161
13,502	-6,388	263,861	129,826
14,517	-6,212	263,381	129,739
15,531	-6,072	263,310	129,819
16,546	-5,970	262,814	129,656
17,561	-5,935	262,409	129,476
18,575	-5,935	262,176	129,350
19,590	-6,110	261,697	128,944
20,604	-5,937	261,555	129,018
21,619	-5,786	261,118	128,927
22,634	-6,224	260,919	128,424
23,648	-6,175	260,542	128,270
24,663	-6,009	260,307	128,293
25,677	-5,903	260,094	128,271
26,692	-5,921	259,770	128,083
27,707	-6,046	259,726	127,939
28,721	-6,146	259,231	127,594
29,736	-5,945	258,994	127,645
30,750	-6,179	258,733	127,297
31,765	-5,974	258,458	127,333
32,780	-6,161	258,222	127,038
33,794	-6,018	257,946	127,019
34,809	-5,957	257,738	126,959
35,823	-6,113	257,415	126,650
36,838	-6,148	257,477	126,639
37,853	-5,950	257,040	126,588
38,867	-6,348	257,080	126,243
39,882	-6,042	256,740	126,336
40,896	-6,155	256,493	126,103
41,911	-6,009	256,235	126,094
42,926	-6,253	255,999	125,752
43,940	-6,363	255,826	125,559
44,955	-6,147	255,456	125,556
45,969	-6,183	255,283	125,428
46,984	-6,433	255,124	125,119
47,999	-6,500	254,746	124,864
49,013	-6,640	254,527	124,622
50,028	-6,704	254,265	124,427
51,042	-6,725	253,864	124,202
52,057	-6,861	253,823	124,052
53,071	-6,863	253,729	123,993
54,086	-6,977	253,711	123,873
55,101	-6,653	253,360	123,973
56,115	-6,529	253,185	123,984
57,130	-6,199	253,023	124,181
58,144	-5,921	252,841	124,322
59,159	-6,079	252,779	124,144
60,174	-5,975	252,433	124,053
61,188	-5,993	252,152	123,889
62,203	-5,932	251,987	123,849
63,217	-6,058	251,937	123,705
64,232	-6,070	251,511	123,473
65,247	-6,065	251,355	123,391
66,261	-6,067	251,053	123,230
67,276	-6,284	251,034	123,022
68,290	-6,419	250,688	122,725
69,305	-6,526	250,234	122,400
70,320	-6,398	250,141	122,454
71,334	-6,296	250,109	122,514
72,349	-5,848	250,037	122,853
73,363	-6,069	249,814	122,543
74,378	-6,043	249,565	122,433
75,393	-6,075	249,289	122,258
76,407	-5,969	249,053	122,223
77,422	-6,054	248,978	122,102
78,436	-6,147	248,702	121,877
79,451	-6,277	248,479	121,645
80,466	-6,217	248,381	121,638
81,480	-6,330	248,009	121,349
82,495	-6,466	247,932	121,185
83,509	-6,301	247,668	121,184
84,524	-6,250	247,495	121,132
85,539	-6,353	247,329	120,954
86,553	-6,473	247,105	120,732
87,568	-6,453	246,870	120,623
88,582	-6,373	246,784	120,637
89,597	-6,272	246,504	120,575
90,611	-6,122	246,339	120,611
91,626	-6,074	246,179	120,562
92,641	-6,276	246,001	120,294
93,655	-6,097	245,818	120,344
94,670	-6,196	245,501	120,095
95,684	-6,246	245,428	120,006
96,699	-6,287	245,346	119,921
97,714	-6,352	245,113	119,742
98,728	-6,466	244,877	119,521
99,743	-6,518	244,764	119,411
100,757	-6,378	244,486	119,382
101,772	-6,210	244,231	119,387
102,787	-6,459	243,998	119,055
103,801	-6,399	244,069	119,129
104,816	-6,272	243,908	119,146
105,830	-6,335	243,749	119,006
106,845	-6,019	243,425	119,100
107,860	-6,408	243,398	118,752
108,874	-6,540	243,176	118,523
109,889	-6,266	242,762	118,538
110,903	-6,353	242,767	118,458
111,918	-6,559	242,504	118,148
112,933	-6,317	242,370	118,273
113,947	-6,306	242,159	118,168
114,962	-6,238	242,067	118,169
115,976	-6,286	242,044	118,107
116,991	-6,113	241,656	118,051
118,006	-6,207	241,510	117,891
119,020	-6,260	241,357	117,763
120,035	-6,335	241,415	117,718
121,049	-6,176	241,121	117,696
122,064	-6,209	240,874	117,538
123,079	-6,225	240,596	117,378
124,093	-6,359	240,528	117,225
125,108	-6,381	240,268	117,069
126,122	-6,606	240,086	116,785
127,137	-6,561	239,882	116,713
128,151	-6,569	239,747	116,630
129,166	-6,499	239,471	116,542
130,181	-6,615	239,377	116,392
131,195	-6,485	239,185	116,394
132,210	-6,350	238,923	116,366
133,224	-6,191	238,727	116,390
134,239	-6,396	238,657	116,178
135,254	-6,243	238,520	116,226
136,268	-6,388	238,250	115,966
137,283	-6,570	238,131	115,750
138,297	-6,737	237,866	115,475
139,312	-6,529	237,719	115,562
140,327	-6,461	237,517	115,509
141,341	-5,939	237,445	115,886
142,356	-6,164	237,382	115,664
143,370	-6,031	237,319	115,730
144,385	-5,772	237,034	115,790
145,400	-5,687	236,822	115,745
146,414	-5,764	236,586	115,557
147,429	-5,937	236,543	115,387
148,443	-5,960	236,260	115,219
149,458	-6,016	236,218	115,143
150,473	-5,987	235,915	115,009
151,487	-6,224	235,791	114,747
152,502	-6,145	235,708	114,760
153,516	-5,861	235,593	114,923
154,531	-5,932	235,402	114,762
155,546	-6,082	235,058	114,463
156,560	-5,913	234,926	114,525
157,575	-6,161	234,715	114,213
158,589	-6,006	234,486	114,215
159,604	-5,832	234,329	114,268
160,619	-5,930	234,325	114,177
161,633	-5,799	234,200	114,211
162,648	-5,895	234,042	114,047
163,662	-5,885	233,821	113,937
164,677	-6,221	233,814	113,656
165,692	-6,002	233,536	113,685
166,706	-5,820	233,458	113,781
167,721	-5,846	233,325	113,686
168,735	-5,812	233,257	113,669
169,750	-5,943	232,998	113,430
170,764	-6,002	232,780	113,266
171,779	-6,179	232,626	113,041
172,794	-5,924	232,564	113,202
173,808	-6,180	232,222	112,824
174,823	-6,524	232,062	112,464
175,837	-6,505	231,754	112,320
176,852	-6,243	231,800	112,539
177,867	-6,047	231,662	112,617
178,881	-5,906	231,525	112,651
179,896	-5,818	231,324	112,612
180,910	-5,994	231,117	112,363
181,925	-5,834	230,873	112,361
182,940	-5,808	230,899	112,383
183,954	-6,005	230,850	112,194
184,969	-5,890	230,673	112,189
185,983	-5,711	230,655	112,310
186,998	-5,662	230,280	112,156
188,013	-5,460	230,199	112,265
189,027	-5,774	230,016	111,920
190,042	-5,630	229,791	111,913
191,056	-5,703	229,554	111,730
192,071	-5,760	229,549	111,674
193,086	-6,147	229,430	111,304
194,100	-6,115	229,134	111,176
195,115	-6,674	228,551	110,449
196,129	-7,843	228,323	109,422
197,144	-3,968	229,510	113,001
198,159	0,944	230,906	117,519
199,173	4,236	231,784	120,533
200,188	4,595	231,714	120,766
201,202	4,680	231,589	120,757
202,217	4,713	231,360	120,653
203,232	4,926	231,351	120,803
204,246	5,010	231,265	120,812
205,261	5,108	231,059	120,771
206,275	5,300	231,006	120,882
207,290	5,065	230,813	120,587
208,304	5,047	230,782	120,546
209,319	5,064	230,453	120,377
210,334	4,998	230,189	120,177
211,348	4,660	230,031	119,822
212,363	4,355	229,851	119,481
213,377	4,160	229,710	119,246
214,392	4,121	229,379	119,034
215,407	4,234	229,231	119,033
216,421	4,182	229,226	118,980
217,436	4,098	229,090	118,834
218,450	4,071	228,738	118,620
219,465	3,879	228,588	118,384
220,480	4,076	228,456	118,457
221,494	4,030	228,365	118,364
222,509	4,163	228,158	118,348
223,523	3,961	228,129	118,167
224,538	3,952	228,027	118,097
225,553	4,126	227,814	118,109
226,567	4,205	227,704	118,103
227,582	4,636	227,691	118,416
228,596	4,530	227,536	118,243
229,611	4,306	227,257	117,916
230,626	4,171	227,027	117,683
231,640	4,052	226,912	117,523
232,655	4,527	226,817	117,825
233,669	4,793	226,680	117,946
234,684	4,882	226,680	118,003
235,699	4,776	226,527	117,832
236,713	4,035	226,276	117,127
237,728	4,112	226,112	117,091
238,742	4,207	225,749	116,964
239,757	4,037	225,765	116,834
240,772	4,099	225,635	116,803
241,786	4,106	225,387	116,669
242,801	4,575	225,313	116,976
243,815	4,487	225,344	116,915
244,830	4,617	225,040	116,845
245,844	4,376	224,837	116,547
246,859	4,522	224,635	116,542
247,874	4,497	224,698	116,546
248,888	4,685	224,459	116,552
249,903	4,232	224,291	116,114
250,917	4,079	224,205	115,944
251,932	4,396	224,066	116,100
252,947	4,038	223,842	115,705
253,961	4,136	223,686	115,687
254,976	4,180	223,519	115,624
255,990	4,292	223,488	115,681
257,005	4,441	223,307	115,690
258,020	4,378	223,174	115,563
259,034	4,378	223,172	115,551
260,049	4,502	222,859	115,472
261,063	4,370	222,775	115,319
262,078	4,428	222,684	115,305
263,093	4,595	222,544	115,347
264,107	4,459	222,293	115,105
265,122	4,592	222,115	115,102
266,136	4,514	221,998	114,973
267,151	4,850	221,895	115,159
268,166	4,551	221,625	114,787
269,180	4,021	221,315	114,223
270,195	4,160	221,342	114,330
271,209	3,925	221,285	114,116
272,224	4,282	221,102	114,276
273,239	4,072	221,020	114,068
274,253	4,234	220,718	114,021
275,268	4,171	220,464	113,833
276,282	4,005	220,360	113,647
277,297	4,025	220,380	113,662
278,312	4,027	220,150	113,535
279,326	4,092	220,140	113,567
280,341	4,075	220,019	113,482
281,355	4,248	219,840	113,507
282,370	4,123	219,678	113,321
283,384	4,088	219,459	113,172
284,399	3,932	219,221	112,925
285,414	3,820	219,264	112,855
286,428	4,201	219,232	113,108
287,443	4,460	218,907	113,121
288,457	4,487	218,827	113,088
289,472	4,190	218,802	112,848
290,487	3,814	218,472	112,393
291,501	3,804	218,328	112,302
292,516	3,894	218,248	112,316
293,530	4,154	218,078	112,408
294,545	3,857	217,944	112,112
295,560	4,086	217,910	112,252
296,574	4,276	217,664	112,254
297,589	4,240	217,500	112,133
298,603	4,196	217,635	112,160
299,618	4,169	217,381	112,000
300,633	4,163	217,313	111,951
301,647	4,343	217,229	112,028
302,662	4,348	217,037	111,923
303,676	4,387	216,923	111,882
304,691	4,484	216,613	111,782
305,706	4,596	216,475	111,783
306,720	4,418	216,428	111,619
307,735	4,082	216,105	111,200
308,749	4,052	216,008	111,119
309,764	4,431	215,883	111,317
310,779	4,418	215,909	111,312
311,793	4,276	215,795	111,141
312,808	4,334	215,593	111,069
313,822	4,314	215,400	110,945
314,837	4,074	215,263	110,692
315,852	4,185	214,966	110,609
316,866	4,175	214,844	110,529
317,881	4,402	214,862	110,691
318,895	4,333	214,669	110,533
319,910	4,389	214,422	110,436
320,925	4,082	214,192	110,088
321,939	3,824	214,101	109,847
322,954	3,920	214,024	109,866
323,968	4,256	214,100	110,136
324,983	4,279	213,890	110,034
325,997	4,395	213,785	110,053
327,012	4,332	213,544	109,875
328,027	4,357	213,395	109,806
329,041	4,645	213,405	110,006
330,056	4,679	213,429	110,033
331,070	4,114	213,215	109,511
332,085	3,734	212,998	109,120
333,100	3,942	212,617	109,062
334,114	4,033	212,607	109,111
335,129	4,172	212,476	109,134
336,143	4,369	212,326	109,187
337,158	4,067	212,240	108,918
338,173	4,113	212,120	108,880
339,187	4,164	211,776	108,729
340,202	3,614	211,683	108,284
341,216	3,666	211,607	108,272
342,231	4,109	211,535	108,538
343,246	3,911	211,339	108,288
344,260	4,077	211,168	108,307
345,275	4,094	211,234	108,344
346,289	4,110	211,123	108,289
347,304	4,398	210,870	108,352
348,319	4,140	210,788	108,118
349,333	4,256	210,650	108,119
350,348	4,126	210,617	108,001
351,362	4,639	210,410	108,245
352,377	4,416	210,377	108,062
353,392	4,371	210,094	107,876
354,406	4,357	209,986	107,801
355,421	193,490	1345,570	1431,983
356,435	154,413	1484,005	1432,078
