DTS Sentinel unit serial number:	SN410029Multiplexer serial number:	ORYXHardware model number:	OX2-SRSoftware version number:	ORYX F/W v4,00 Oryx Data Collector v3.7.2.0data status	okinstallation	B6 Nyhavnadifferential loss correction	single-endedforward channel	channel 2reverse channel	N/Adate	2023/12/09time	10:25:08forward acquisition time	300,00reverse acquisition time	0,00gamma	499,1914k internal	0,3139k external	0,3139temperature offset calibration	1,0000default loss term (dB/km)	0,3820temperature slope calibration	1,0000multiplexer offset coefficient	1,0000multiplexer slope coefficient	1,0000fibre end	0,00T internal ref (°C)	18,56T ext. ref 1 (°C)	2,30T ext. ref 2 (°C)	2,30length (m)	temperature (°C)	Stokes	anti-Stokes-744,400	-200,000	-0,003	-0,075
-743,385	-92,933	-0,209	0,043
-742,371	397,779	0,075	-0,116
-741,356	258,950	-0,130	0,166
-740,342	511,082	-0,026	-0,045
-739,327	-153,305	-0,276	-0,014
-738,312	304,512	0,051	-0,070
-737,298	93,296	-0,236	0,198
-736,283	-14,037	-0,005	-0,002
-735,269	237,104	-0,149	0,184
-734,254	231,813	0,036	0,044
-733,239	-130,430	-0,465	-0,046
-732,225	13,986	0,136	0,078
-731,210	800,000	0,030	0,067
-730,196	180,202	0,025	-0,028
-729,181	800,000	-0,019	-0,039
-728,167	-106,522	-0,166	-0,027
-727,152	-76,814	0,107	-0,028
-726,137	-200,000	-0,045	0,170
-725,123	-18,534	-0,128	0,059
-724,108	800,000	-0,037	-0,084
-723,094	291,479	-0,071	-0,095
-722,079	-140,176	-0,087	0,007
-721,064	222,583	-0,062	-0,075
-720,050	27,280	0,232	-0,144
-719,035	179,417	0,067	-0,073
-718,021	90,869	-0,128	-0,106
-717,006	73,444	-0,134	-0,104
-715,991	207,123	-0,120	-0,139
-714,977	-200,000	-0,010	0,032
-713,962	515,793	-0,056	0,098
-712,948	20,111	-0,072	-0,043
-711,933	-129,318	-0,099	-0,010
-710,918	-200,000	0,017	-0,148
-709,904	-72,189	-0,055	0,015
-708,889	86,363	-0,022	-0,018
-707,875	800,000	0,052	-0,126
-706,860	-132,181	-0,171	-0,016
-705,845	-200,000	-0,014	-0,128
-704,831	153,934	-0,140	-0,142
-703,816	343,078	-0,042	-0,061
-702,802	556,225	-0,071	-0,126
-701,787	641,484	0,060	-0,113
-700,772	-58,737	0,107	0,034
-699,758	227,310	0,052	-0,063
-698,743	800,000	-0,029	0,091
-697,729	800,000	0,037	0,113
-696,714	800,000	0,010	-0,027
-695,699	-200,000	-0,008	0,041
-694,685	103,309	0,095	-0,083
-693,670	170,342	-0,045	-0,048
-692,656	-2,568	0,041	-0,021
-691,641	31,895	0,105	-0,067
-690,627	163,270	0,174	0,181
-689,612	-200,000	-0,006	0,056
-688,597	-112,365	0,087	-0,013
-687,583	-121,253	-0,163	-0,020
-686,568	-200,000	0,014	-0,063
-685,554	98,726	-0,141	-0,120
-684,539	-200,000	-0,018	0,181
-683,524	-113,239	0,123	0,018
-682,510	49,952	0,063	-0,044
-681,495	-200,000	-0,001	-0,055
-680,481	-200,000	-0,031	0,110
-679,466	324,886	-0,004	-0,005
-678,451	-200,000	-0,006	0,074
-677,437	243,220	-0,051	0,064
-676,422	-200,000	-0,003	0,074
-675,408	70,486	-0,015	0,011
-674,393	-36,426	-0,063	-0,025
-673,378	800,000	0,030	0,082
-672,364	-45,743	-0,179	-0,065
-671,349	-104,192	-0,112	0,019
-670,335	-192,234	-0,064	-0,000
-669,320	761,963	0,018	-0,035
-668,305	8,899	-0,037	0,021
-667,291	800,000	-0,022	-0,053
-666,276	588,451	0,032	0,059
-665,262	24,403	-0,073	-0,044
-664,247	605,403	0,076	-0,140
-663,232	800,000	0,048	0,123
-662,218	-200,000	0,025	-0,115
-661,203	769,967	-0,020	-0,041
-660,189	90,092	0,041	-0,034
-659,174	800,000	0,022	-0,054
-658,159	460,868	-0,085	-0,140
-657,145	800,000	-0,048	-0,110
-656,130	-200,000	0,010	-0,073
-655,116	117,428	0,062	0,056
-654,101	-108,299	0,067	-0,011
-653,086	-93,658	-0,146	-0,029
-652,072	72,488	-0,019	-0,015
-651,057	55,648	-0,091	-0,065
-650,043	-200,000	-0,026	-0,135
-649,028	114,815	0,079	-0,071
-648,014	-144,319	0,108	-0,007
-646,999	-16,926	0,064	-0,030
-645,984	-45,728	-0,073	0,026
-644,970	459,697	-0,079	-0,131
-643,955	1,253	0,051	0,027
-642,941	-200,000	0,001	-0,019
-641,926	800,000	0,002	-0,006
-640,911	-200,000	0,023	-0,084
-639,897	-195,540	-0,040	0,000
-638,882	-118,037	-0,102	-0,013
-637,868	77,251	0,077	-0,060
-636,853	800,000	-0,017	-0,047
-635,838	-170,109	0,084	0,002
-634,824	54,436	0,061	-0,044
-633,809	95,124	-0,068	-0,057
-632,795	389,925	0,061	0,094
-631,780	-200,000	-0,008	0,074
-630,765	127,025	-0,086	-0,081
-629,751	-200,000	0,015	-0,088
-628,736	-1,531	-0,046	-0,024
-627,722	-130,069	-0,115	-0,011
-626,707	222,978	-0,054	0,065
-625,692	-200,000	-0,013	0,048
-624,678	-200,000	0,019	0,081
-623,663	219,805	-0,157	-0,186
-622,649	513,997	0,062	0,107
-621,634	-51,897	0,024	-0,008
-620,619	-200,000	0,017	-0,176
-619,605	800,000	-0,031	-0,071
-618,590	720,301	0,066	-0,131
-617,576	-200,000	-0,016	0,067
-616,561	427,583	-0,108	0,173
-615,546	-97,044	-0,171	-0,033
-614,532	-97,497	0,090	0,017
-613,517	800,000	0,012	-0,033
-612,503	-100,359	-0,085	0,015
-611,488	-2,411	-0,100	0,052
-610,474	10,152	0,075	0,042
-609,459	-49,429	-0,100	-0,035
-608,444	363,162	-0,070	-0,104
-607,430	406,216	0,013	0,020
-606,415	486,199	-0,039	0,066
-605,401	40,837	0,113	0,075
-604,386	15,470	0,017	0,010
-603,371	372,868	-0,070	0,106
-602,357	-46,032	0,024	0,009
-601,342	485,058	-0,042	0,071
-600,328	800,000	-0,040	-0,102
-599,313	-200,000	0,003	-0,010
-598,298	800,000	0,010	0,031
-597,284	71,600	0,060	0,046
-596,269	-161,843	0,023	-0,001
-595,255	-18,959	-0,047	-0,021
-594,240	13,908	-0,063	-0,036
-593,225	635,233	0,070	-0,131
-592,211	168,375	-0,062	-0,065
-591,196	515,485	-0,058	-0,100
-590,182	578,127	0,121	0,218
-589,167	-35,526	0,040	-0,016
-588,152	800,000	-0,014	-0,031
-587,138	-145,833	-0,067	0,004
-586,123	-171,433	-0,134	-0,003
-585,109	84,533	-0,020	0,016
-584,094	-24,926	-0,080	-0,035
-583,079	503,515	-0,041	0,070
-582,065	800,000	-0,074	-0,155
-581,050	397,322	-0,024	-0,037
-580,036	151,723	0,041	0,042
-579,021	41,166	-0,069	0,046
-578,006	106,458	-0,089	-0,078
-576,992	156,001	-0,083	-0,084
-575,977	800,000	-0,007	0,014
-574,963	244,910	-0,068	-0,085
-573,948	30,758	-0,075	-0,047
-572,934	58,656	0,050	-0,036
-571,919	37,334	-0,107	-0,070
-570,904	-200,000	0,017	-0,072
-569,890	540,684	-0,067	-0,118
-568,875	129,832	0,085	-0,081
-567,861	-200,000	-0,024	-0,149
-566,846	800,000	-0,012	-0,025
-565,831	-12,923	-0,050	-0,024
-564,817	-200,000	-0,003	0,112
-563,802	-200,000	-0,025	-0,136
-562,788	-200,000	-0,000	-0,112
-561,773	-200,000	-0,026	-0,102
-560,758	-138,548	0,047	0,004
-559,744	800,000	-0,049	0,117
-558,729	-200,000	-0,001	0,084
-557,715	90,486	0,034	-0,028
-556,700	-200,000	0,027	-0,133
-555,685	-200,000	-0,003	-0,111
-554,671	-200,000	0,040	0,143
-553,656	526,911	-0,063	0,110
-552,642	-46,384	0,163	-0,059
-551,627	-200,000	-0,031	0,110
-550,612	-200,000	-0,002	-0,054
-549,598	-67,605	0,060	0,017
-548,583	78,264	-0,051	0,040
-547,569	-97,037	-0,124	-0,024
-546,554	-200,000	-0,001	-0,006
-545,539	-200,000	0,001	-0,123
-544,525	477,185	-0,005	-0,008
-543,510	624,554	0,079	-0,148
-542,496	717,053	-0,074	-0,145
-541,481	-200,000	-0,005	-0,064
-540,466	-200,000	-0,041	-0,137
-539,452	-200,000	-0,001	0,094
-538,437	67,517	0,124	0,093
-537,423	-121,079	-0,036	0,004
-536,408	551,933	0,063	0,111
-535,393	19,433	-0,076	0,045
-534,379	68,700	-0,059	0,044
-533,364	-116,507	0,104	-0,014
-532,350	-15,585	0,013	0,006
-531,335	-200,000	0,002	-0,026
-530,321	103,489	-0,037	0,032
-529,306	575,373	0,042	-0,076
-528,291	-50,958	0,077	-0,026
-527,277	-185,350	-0,127	-0,001
-526,262	800,000	0,059	-0,125
-525,248	349,615	-0,090	0,131
-524,233	143,884	0,077	0,076
-523,218	-16,701	0,071	0,033
-522,204	-200,000	-0,011	-0,071
-521,189	-200,000	-0,008	-0,119
-520,175	-100,501	0,106	-0,019
-519,160	-137,591	-0,095	-0,008
-518,145	-12,103	0,208	-0,100
-517,131	101,823	0,119	-0,102
-516,116	-200,000	0,010	-0,083
-515,102	-3,265	-0,151	0,077
-514,087	160,550	0,046	0,047
-513,072	-200,000	-0,018	-0,099
-512,058	-33,547	-0,103	0,041
-511,043	-200,000	0,009	0,053
-510,029	91,795	0,089	0,073
-509,014	-200,000	-0,018	0,111
-507,999	-35,260	-0,078	-0,031
-506,985	129,538	0,091	0,085
-505,970	693,614	-0,122	0,237
-504,956	800,000	0,036	0,082
-503,941	-29,885	0,009	-0,004
-502,926	30,288	-0,134	0,084
-501,912	298,018	-0,086	0,117
-500,897	-200,000	0,044	0,213
-499,883	25,068	-0,101	-0,061
-498,868	414,946	0,089	-0,139
-497,853	800,000	-0,071	0,157
-496,839	800,000	0,005	-0,010
-495,824	168,979	-0,021	0,022
-494,810	-200,000	-0,004	0,080
-493,795	-200,000	0,028	-0,160
-492,781	-103,982	-0,078	0,013
-491,766	-200,000	0,014	0,105
-490,751	76,831	0,158	-0,123
-489,737	572,888	0,002	0,004
-488,722	800,000	0,072	0,152
-487,708	-127,179	0,115	-0,012
-486,693	-200,000	-0,010	0,196
-485,678	800,000	0,013	0,033
-484,664	37,035	-0,124	-0,080
-483,649	-39,879	0,110	-0,042
-482,635	-200,000	0,009	-0,136
-481,620	687,817	-0,056	-0,109
-480,605	800,000	0,032	0,095
-479,591	-109,609	0,032	-0,005
-478,576	-75,163	0,066	-0,017
-477,562	-158,924	-0,042	-0,002
-476,547	121,217	-0,064	-0,058
-475,532	-42,879	-0,076	-0,028
-474,518	100,082	0,072	0,062
-473,503	389,906	-0,049	0,075
-472,489	642,380	0,102	0,192
-471,474	800,000	0,016	-0,034
-470,459	389,767	-0,091	-0,139
-469,445	-83,129	-0,163	0,038
-468,430	260,093	0,038	-0,049
-467,416	-79,903	0,053	-0,013
-466,401	135,776	-0,065	-0,063
-465,386	110,362	0,084	-0,074
-464,372	-66,199	-0,070	0,020
-463,357	401,186	0,054	0,083
-462,343	123,242	-0,045	-0,042
-461,328	94,375	0,102	0,085
-460,313	-34,820	0,122	0,049
-459,299	-200,000	0,004	0,054
-458,284	-200,000	0,007	0,151
-457,270	358,709	-0,085	0,125
-456,255	697,965	-0,039	-0,075
-455,241	217,367	-0,045	-0,052
-454,226	-200,000	-0,008	-0,065
-453,211	140,043	0,098	0,095
-452,197	-200,000	0,023	0,086
-451,182	-110,702	0,110	-0,016
-450,168	-200,000	-0,007	-0,142
-449,153	-57,431	-0,149	-0,048
-448,138	-92,879	-0,011	0,002
-447,124	-84,119	0,122	-0,028
-446,109	-200,000	-0,002	0,032
-445,095	310,518	0,027	0,037
-444,080	-200,000	-0,028	0,131
-443,065	-59,139	0,149	0,047
-442,051	-200,000	-0,001	0,047
-441,036	-9,552	-0,176	-0,086
-440,022	295,465	-0,116	-0,155
-439,007	-200,000	0,008	-0,118
-437,992	26,969	0,149	-0,091
-436,978	301,558	0,064	0,087
-435,963	524,128	0,031	0,053
-434,949	438,796	-0,056	0,089
-433,934	-200,000	-0,000	-0,017
-432,919	-72,229	-0,034	-0,009
-431,905	177,072	0,029	0,031
-430,890	800,000	0,006	0,018
-429,876	71,101	0,106	-0,081
-428,861	-22,569	0,052	0,023
-427,846	800,000	0,022	-0,053
-426,832	-95,666	-0,127	-0,025
-425,817	93,656	0,060	-0,049
-424,803	21,970	-0,147	0,087
-423,788	556,779	-0,048	0,085
-422,773	-31,355	0,117	-0,048
-421,759	7,391	-0,021	-0,012
-420,744	300,534	-0,057	0,077
-419,730	-200,000	-0,009	0,100
-418,715	-200,000	0,021	0,110
-417,701	471,070	0,063	0,105
-416,686	800,000	-0,036	-0,116
-415,671	-12,353	0,115	-0,055
-414,657	800,000	-0,011	0,031
-413,642	41,698	0,085	-0,056
-412,628	800,000	0,078	-0,175
-411,613	72,460	-0,094	-0,071
-410,598	36,697	0,075	-0,048
-409,584	27,280	-0,107	-0,066
-408,569	683,253	0,041	-0,079
-407,555	-54,046	0,098	0,032
-406,540	501,913	-0,042	-0,071
-405,525	-89,772	0,109	-0,023
-404,511	-156,583	-0,097	-0,004
-403,496	-56,723	-0,065	0,021
-402,482	-82,650	0,058	0,014
-401,467	-200,000	0,025	0,176
-400,452	-200,000	0,042	0,249
-399,438	468,797	-0,030	0,049
-398,423	-93,820	-0,038	0,008
-397,409	195,367	-0,043	-0,048
-396,394	-200,000	-0,013	-0,091
-395,379	423,798	0,078	0,123
-394,365	-151,283	0,008	0,000
-393,350	105,113	0,078	0,067
-392,336	336,611	-0,094	-0,133
-391,321	-32,328	0,089	-0,036
-390,306	386,265	-0,061	0,093
-389,292	-9,313	-0,057	-0,028
-388,277	23,309	-0,058	0,035
-387,263	4,165	0,079	-0,042
-386,248	267,074	-0,073	0,094
-385,233	97,981	-0,092	0,077
-384,219	-200,000	0,004	-0,061
-383,204	356,419	0,025	-0,036
-382,190	-30,518	-0,095	0,039
-381,175	-51,083	0,111	-0,038
-380,160	-131,284	0,033	0,003
-379,146	-200,000	0,005	0,061
-378,131	800,000	-0,032	0,099
-377,117	442,575	-0,019	-0,030
-376,102	212,150	-0,051	-0,059
-375,088	-200,000	-0,030	-0,127
-374,073	23,867	0,072	0,043
-373,058	214,020	0,048	0,055
-372,044	-46,504	0,067	-0,024
-371,029	-200,000	-0,014	-0,083
-370,015	201,903	-0,071	0,080
-369,000	-200,000	-0,023	0,110
-367,985	-200,000	-0,006	-0,085
-366,971	800,000	-0,051	0,110
-365,956	-67,218	0,143	0,041
-364,942	610,223	0,086	0,157
-363,927	-200,000	0,009	0,069
-362,912	166,157	-0,074	0,076
-361,898	-200,000	0,004	-0,143
-360,883	187,595	0,087	0,095
-359,869	-82,244	-0,042	0,010
-358,854	-63,090	-0,079	0,024
-357,839	45,262	0,119	0,080
-356,825	480,223	0,062	0,102
-355,810	800,000	-0,010	0,025
-354,796	-50,925	-0,028	-0,009
-353,781	-22,867	-0,120	-0,053
-352,766	800,000	0,006	0,018
-351,752	-60,702	-0,110	-0,034
-350,737	126,201	0,041	-0,038
-349,723	-200,000	0,004	0,106
-348,708	53,175	0,198	0,139
-347,693	-118,651	-0,091	0,012
-346,679	-200,000	0,036	-0,153
-345,664	255,217	0,059	0,074
-344,650	287,913	-0,048	0,064
-343,635	17,783	0,072	-0,042
-342,620	513,793	0,028	0,048
-341,606	-200,000	0,009	-0,057
-340,591	-115,466	0,064	0,009
-339,577	-200,000	-0,003	-0,064
-338,562	107,393	-0,067	-0,058
-337,548	258,783	0,023	0,029
-336,533	-38,440	0,076	-0,029
-335,518	-115,641	0,126	-0,017
-334,504	-200,000	0,019	0,094
-333,489	6,690	0,054	0,029
-332,475	14,393	-0,097	-0,055
-331,460	-11,014	-0,095	0,046
-330,445	-200,000	0,003	-0,129
-329,431	-4,207	0,083	-0,042
-328,416	-108,893	0,049	0,008
-327,402	-200,000	0,021	-0,074
-326,387	-200,000	0,007	-0,028
-325,372	-100,531	-0,066	0,012
-324,358	-156,531	0,027	0,001
-323,343	106,698	-0,072	-0,063
-322,329	-17,200	0,032	0,015
-321,314	800,000	0,077	0,219
-320,299	-200,000	-0,021	0,137
-319,285	-200,000	0,029	0,109
-318,270	-15,203	-0,117	0,054
-317,256	160,421	-0,021	0,022
-316,241	800,000	0,013	0,037
-315,226	301,640	0,021	-0,028
-314,212	-86,889	0,130	0,029
-313,197	-107,074	0,159	-0,025
-312,183	649,994	0,046	-0,086
-311,168	-166,679	-0,186	0,006
-310,153	76,797	-0,037	0,029
-309,139	247,131	0,028	-0,034
-308,124	79,786	0,038	-0,030
-307,110	76,662	0,035	0,027
-306,095	-200,000	0,040	0,167
-305,080	8,438	0,018	-0,010
-304,066	-27,454	0,052	0,022
-303,051	-84,701	0,063	0,014
-302,037	-92,787	-0,085	0,017
-301,022	0,365	0,047	0,024
-300,008	800,000	0,044	-0,091
-298,993	531,261	-0,011	0,020
-297,978	66,360	0,056	0,041
-296,964	-82,557	-0,116	0,027
-295,949	764,980	-0,058	-0,115
-294,935	800,000	0,019	0,049
-293,920	-200,000	0,001	0,156
-292,905	610,493	0,032	-0,059
-291,891	74,319	-0,083	0,064
-290,876	800,000	0,023	0,056
-289,862	-24,565	0,160	-0,069
-288,847	800,000	-0,047	-0,124
-287,832	800,000	0,020	-0,042
-286,818	51,635	-0,094	-0,065
-285,803	61,242	0,080	-0,058
-284,789	-135,583	0,130	0,011
-283,774	-49,477	0,090	-0,031
-282,759	345,705	-0,033	-0,048
-281,745	800,000	0,096	-0,196
-280,730	-200,000	-0,036	-0,124
-279,716	584,295	-0,004	-0,007
-278,701	62,406	-0,023	0,017
-277,686	-25,518	-0,053	-0,023
-276,672	-15,039	0,029	0,013
-275,657	757,734	-0,038	0,074
-274,643	-30,563	-0,047	0,019
-273,628	-176,213	0,023	-0,000
-272,613	-200,000	0,005	0,098
-271,599	65,030	-0,055	0,040
-270,584	248,107	0,030	-0,037
-269,570	800,000	0,059	0,133
-268,555	-200,000	-0,023	-0,074
-267,540	519,093	0,051	-0,087
-266,526	102,654	0,080	0,068
-265,511	800,000	-0,062	0,163
-264,497	-200,000	0,010	0,038
-263,482	800,000	-0,031	-0,096
-262,467	66,490	0,034	-0,025
-261,453	476,384	-0,017	-0,027
-260,438	-98,422	-0,071	0,013
-259,424	-200,000	-0,002	0,061
-258,409	800,000	0,084	-0,217
-257,395	-200,000	0,016	-0,100
-256,380	368,765	0,037	0,054
-255,365	541,168	0,020	0,034
-254,351	-107,886	0,100	-0,016
-253,336	577,873	-0,066	0,117
-252,322	312,467	0,084	-0,115
-251,307	443,239	-0,019	-0,030
-250,292	800,000	0,042	0,094
-249,278	178,094	0,041	0,044
-248,263	-200,000	0,005	0,145
-247,249	84,223	0,051	-0,041
-246,234	800,000	-0,099	-0,267
-245,219	280,556	-0,027	0,035
-244,205	83,444	-0,129	-0,102
-243,190	-200,000	0,001	-0,026
-242,176	800,000	0,005	-0,011
-241,161	800,000	-0,004	0,008
-240,146	-200,000	-0,008	-0,063
-239,132	53,009	0,085	0,059
-238,117	-97,968	0,104	-0,019
-237,103	332,714	-0,026	-0,036
-236,088	-200,000	-0,008	-0,031
-235,073	-200,000	0,006	-0,082
-234,059	242,329	0,101	0,123
-233,044	-200,000	-0,020	0,218
-232,030	292,866	-0,043	0,057
-231,015	-97,916	-0,120	-0,022
-230,000	800,000	-0,040	-0,095
-228,986	245,589	-0,040	-0,049
-227,971	176,872	-0,038	0,040
-226,957	51,805	0,091	0,063
-225,942	611,822	0,045	0,083
-224,927	-75,907	-0,062	0,016
-223,913	88,217	-0,065	0,053
-222,898	159,408	-0,038	-0,038
-221,884	-200,000	-0,006	-0,049
-220,869	-122,542	0,090	-0,010
-219,855	-155,572	-0,064	-0,003
-218,840	37,226	0,022	-0,014
-217,825	102,039	-0,063	0,053
-216,811	189,570	-0,092	-0,100
-215,796	-103,514	0,026	-0,004
-214,782	-62,573	0,038	-0,011
-213,767	406,723	-0,037	-0,058
-212,752	-200,000	-0,003	0,040
-211,738	-200,000	0,022	0,081
-210,723	43,444	0,056	0,037
-209,709	800,000	0,039	0,103
-208,694	-99,626	0,008	-0,002
-207,679	23,886	0,082	0,049
-206,665	800,000	0,054	0,147
-205,650	800,000	-0,023	-0,064
-204,636	39,841	-0,060	-0,039
-203,621	-136,841	-0,105	0,009
-202,606	19,208	-0,119	-0,069
-201,592	800,000	-0,028	-0,086
-200,577	42,398	0,082	-0,054
-199,563	2,110	-0,078	-0,041
-198,548	-200,000	-0,028	0,162
-197,533	520,508	-0,006	0,011
-196,519	-200,000	0,001	0,065
-195,504	800,000	0,069	0,147
-194,490	-52,594	-0,030	-0,010
-193,475	225,622	-0,017	-0,021
-192,460	-65,746	0,077	0,022
-191,446	455,933	-0,041	0,066
-190,431	-200,000	0,009	-0,059
-189,417	272,477	0,020	-0,026
-188,402	-45,643	-0,060	0,021
-187,387	-200,000	0,020	0,117
-186,373	-200,000	-0,097	-0,000
-185,358	800,000	0,041	0,088
-184,344	-105,854	0,082	0,013
-183,329	-79,678	0,069	-0,017
-182,315	-200,000	0,004	0,136
-181,300	-200,000	-0,016	0,069
-180,285	122,136	-0,165	-0,150
-179,271	-115,862	-0,110	0,015
-178,256	36,607	0,065	-0,042
-177,242	-136,968	0,132	-0,011
-176,227	-200,000	0,015	-0,067
-175,212	-56,140	-0,068	-0,022
-174,198	-200,000	0,042	-0,137
-173,183	800,000	-0,027	-0,067
-172,169	-50,145	0,067	0,023
-171,154	-200,000	-0,007	-0,074
-170,139	-91,987	0,073	0,015
-169,125	174,066	0,036	0,038
-168,110	-24,243	-0,013	0,006
-167,096	-14,693	0,124	0,058
-166,081	-39,885	-0,139	-0,052
-165,066	344,323	-0,122	0,174
-164,052	-47,596	0,047	-0,016
-163,037	-200,000	-0,006	-0,068
-162,023	-158,965	-0,099	0,004
-161,008	84,483	0,128	0,102
-159,993	-200,000	0,005	-0,060
-158,979	228,762	0,101	-0,120
-157,964	29,333	-0,101	-0,062
-156,950	75,113	0,067	-0,051
-155,935	116,985	-0,120	-0,107
-154,920	-200,000	0,034	-0,122
-153,906	-200,000	0,002	0,057
-152,891	24,510	-0,101	-0,060
-151,877	800,000	0,022	-0,062
-150,862	120,455	0,033	-0,030
-149,847	100,765	-0,057	0,048
-148,833	54,852	0,069	-0,048
-147,818	800,000	0,027	0,071
-146,804	619,745	0,057	0,104
-145,789	-174,370	-0,121	-0,002
-144,775	295,251	-0,130	-0,173
-143,760	-14,776	0,059	0,027
-142,745	-200,000	0,002	-0,041
-141,731	306,559	0,072	-0,097
-140,716	446,141	0,045	0,071
-139,702	-20,137	0,043	0,019
-138,687	452,788	-0,053	0,085
-137,672	-200,000	0,008	-0,028
-136,658	-114,974	-0,140	-0,019
-135,643	-200,000	-0,007	-0,071
-134,629	-200,000	0,009	-0,139
-133,614	800,000	-0,022	0,059
-132,599	183,723	0,036	-0,039
-131,585	367,559	0,068	0,099
-130,570	397,783	-0,028	-0,043
-129,556	-13,637	-0,067	0,031
-128,541	-200,000	0,010	0,052
-127,526	107,771	-0,058	0,050
-126,512	800,000	0,052	-0,109
-125,497	-52,203	0,053	-0,018
-124,483	-139,239	-0,098	-0,008
-123,468	-58,725	0,109	0,034
-122,453	-91,940	-0,126	0,026
-121,439	298,001	0,074	0,099
-120,424	-200,000	-0,009	-0,143
-119,410	-137,363	-0,028	-0,002
-118,395	800,000	-0,031	-0,092
-117,380	-116,968	-0,060	0,008
-116,366	10,839	-0,047	-0,026
-115,351	-166,085	-0,118	0,004
-114,337	-196,349	-0,134	0,001
-113,322	66,995	0,055	-0,040
-112,307	350,603	-0,080	0,115
-111,293	-200,000	-0,015	0,197
-110,278	16,691	-0,098	0,056
-109,264	118,117	0,057	0,051
-108,249	800,000	-0,014	-0,040
-107,234	-36,253	0,141	0,055
-106,220	-146,676	-0,115	0,007
-105,205	587,596	-0,076	0,136
-104,191	-200,000	-0,032	0,105
-103,176	181,741	-0,053	0,056
-102,162	83,695	-0,082	-0,064
-101,147	-200,000	-0,110	0,000
-100,132	25,666	-0,119	-0,071
-99,118	-200,000	-0,026	0,094
-98,103	-80,376	0,074	-0,018
-97,089	-196,193	-0,090	0,000
-96,074	74,813	0,067	-0,051
-95,059	-79,651	-0,123	0,030
-94,045	-200,000	-0,018	0,178
-93,030	214,318	0,056	-0,064
-92,016	-32,415	-0,121	-0,048
-91,001	156,827	0,085	-0,085
-89,986	-200,000	0,010	0,058
-88,972	-200,000	-0,013	0,078
-87,957	32,038	-0,118	0,073
-86,943	-15,857	0,029	0,013
-85,928	-26,581	-0,143	0,060
-84,913	-99,963	0,063	-0,011
-83,899	120,868	-0,105	0,094
-82,884	516,822	-0,088	-0,150
-81,870	-51,393	-0,052	-0,017
-80,855	35,108	0,058	-0,037
-79,840	-153,132	-0,037	0,002
-78,826	-200,000	-0,013	-0,055
-77,811	-114,791	-0,112	-0,015
-76,797	-200,000	-0,008	-0,133
-75,782	7,406	-0,066	0,035
-74,767	554,117	0,031	0,054
-73,753	-144,441	-0,049	-0,003
-72,738	800,000	0,047	0,109
-71,724	18,306	-0,079	-0,046
-70,709	-122,489	-0,185	-0,021
-69,694	-86,235	0,086	0,019
-68,680	-113,176	0,211	-0,030
-67,665	-200,000	0,003	0,095
-66,651	-200,000	0,011	-0,041
-65,636	344,600	0,019	0,027
-64,622	-200,000	-0,013	-0,045
-63,607	800,000	0,063	-0,154
-62,592	-61,649	-0,165	0,050
-61,578	-200,000	-0,004	-0,012
-60,563	-171,287	0,050	0,001
-59,549	-0,207	0,069	0,035
-58,534	-16,452	-1,640	-0,748
-57,519	534,467	-0,612	-1,052
-56,505	-200,000	-1,137	-4,700
-55,490	-173,376	0,696	-0,015
-54,476	800,000	5,222	12,385
-53,461	-200,000	15,789	277,817
-52,446	-200,000	702,254	2248,188
-51,432	565,250	1618,837	2844,575
-50,417	121,646	1623,125	1460,825
-49,403	82,112	1283,914	1003,819
-48,388	36,849	1027,943	654,590
-47,373	21,567	989,884	579,835
-46,359	20,494	978,779	569,771
-45,344	18,798	974,586	561,731
-44,330	18,919	973,106	561,253
-43,315	18,638	971,444	559,353
-42,300	18,661	970,294	558,742
-41,286	18,598	969,505	558,059
-40,271	18,631	968,373	557,495
-39,257	18,671	967,679	557,204
-38,242	18,611	966,884	556,529
-37,227	18,560	966,114	555,896
-36,213	18,565	965,186	555,355
-35,198	18,617	964,193	554,933
-34,184	18,618	963,614	554,581
-33,169	18,556	962,690	553,825
-32,154	18,598	961,729	553,387
-31,140	18,576	961,044	552,899
-30,125	18,597	960,256	552,491
-29,111	18,619	959,490	552,100
-28,096	18,581	958,950	551,644
-27,082	18,593	958,201	551,230
-26,067	18,605	957,383	550,776
-25,052	18,655	956,380	550,341
-24,038	18,595	955,853	549,821
-23,023	18,597	955,067	549,352
-22,009	18,639	954,248	548,996
-20,994	18,665	953,793	548,796
-19,979	18,616	953,274	548,318
-18,965	18,533	952,741	547,721
-17,950	18,624	952,064	547,605
-16,936	18,542	951,349	546,910
-15,921	18,506	950,867	546,493
-14,906	18,453	949,862	545,724
-13,892	18,407	949,290	545,227
-12,877	18,407	948,773	544,910
-11,863	18,357	948,132	544,360
-10,848	18,441	947,504	544,245
-9,833	18,572	947,032	544,371
-8,819	18,600	946,216	543,969
-7,804	18,449	945,904	543,287
-6,790	18,475	945,248	542,971
-5,775	18,561	944,385	542,727
-4,760	18,488	943,952	542,226
-3,746	18,434	943,295	541,653
-2,731	18,373	942,530	540,998
-1,717	18,335	941,833	540,458
-0,702	18,351	941,122	540,079
0,313	18,084	940,551	539,719
1,327	21,167	938,973	548,526
2,342	30,188	796,316	489,213
3,356	27,392	449,303	271,810
4,371	-2,232	295,010	148,814
5,386	-6,470	276,391	135,386
6,400	-7,629	270,512	131,416
7,415	-7,995	268,137	129,914
8,429	-7,894	266,804	129,350
9,444	-7,997	266,011	128,859
10,459	-7,909	265,438	128,651
11,473	-8,069	264,637	128,105
12,488	-8,174	264,316	127,843
13,502	-8,317	263,859	127,481
14,517	-8,204	263,111	127,211
15,531	-8,099	262,799	127,143
16,546	-8,240	262,476	126,848
17,561	-8,267	262,131	126,646
18,575	-8,067	261,726	126,618
19,590	-8,142	261,386	126,376
20,604	-8,076	261,092	126,282
21,619	-8,409	260,773	125,817
22,634	-8,093	260,520	125,967
23,648	-8,359	260,192	125,559
24,663	-8,158	259,907	125,590
25,677	-8,214	259,698	125,428
26,692	-8,320	259,529	125,240
27,707	-8,141	259,143	125,203
28,721	-8,495	258,828	124,725
29,736	-8,443	258,710	124,703
30,750	-8,352	258,277	124,564
31,765	-8,464	258,291	124,460
32,780	-8,390	257,898	124,325
33,794	-8,180	257,658	124,384
34,809	-8,276	257,394	124,161
35,823	-8,306	257,256	124,056
36,838	-8,535	256,966	123,704
37,853	-8,423	256,875	123,747
38,867	-8,368	256,426	123,568
39,882	-8,400	256,240	123,440
40,896	-8,501	256,081	123,264
41,911	-8,292	255,723	123,264
42,926	-8,373	255,522	123,085
43,940	-8,410	255,330	122,948
44,955	-8,665	255,177	122,641
45,969	-8,583	254,801	122,521
46,984	-8,836	254,487	122,139
47,999	-9,133	254,343	121,800
49,013	-9,109	254,149	121,716
50,028	-9,269	253,804	121,401
51,042	-9,262	253,611	121,304
52,057	-9,339	253,201	121,030
53,071	-9,397	253,239	120,988
54,086	-9,127	252,781	120,992
55,101	-9,052	252,929	121,117
56,115	-8,671	252,652	121,303
57,130	-8,389	252,591	121,507
58,144	-8,085	252,378	121,657
59,159	-8,200	252,369	121,542
60,174	-8,120	251,924	121,386
61,188	-8,040	251,875	121,420
62,203	-8,200	251,583	121,131
63,217	-8,491	251,505	120,832
64,232	-8,398	251,143	120,728
65,247	-8,302	251,014	120,737
66,261	-8,150	250,686	120,699
67,276	-8,517	250,431	120,250
68,290	-8,714	250,271	119,995
69,305	-8,793	249,898	119,738
70,320	-8,719	249,845	119,765
71,334	-8,439	249,633	119,892
72,349	-8,190	249,569	120,063
73,363	-8,091	249,253	119,985
74,378	-8,046	249,090	119,934
75,393	-8,256	248,811	119,610
76,407	-8,230	248,653	119,545
77,422	-8,123	248,510	119,557
78,436	-8,007	248,237	119,513
79,451	-8,101	248,032	119,324
80,466	-8,375	247,870	119,004
81,480	-8,466	247,563	118,768
82,495	-8,826	247,354	118,353
83,509	-8,781	247,301	118,355
84,524	-8,519	246,997	118,421
85,539	-8,810	246,793	118,066
86,553	-8,769	246,592	117,994
87,568	-8,627	246,348	117,987
88,582	-8,485	246,255	118,051
89,597	-8,791	246,215	117,764
90,611	-8,461	246,000	117,927
91,626	-8,355	245,809	117,915
92,641	-8,357	245,780	117,889
93,655	-8,398	245,369	117,646
94,670	-8,481	245,040	117,409
95,684	-8,551	244,969	117,306
96,699	-8,503	244,753	117,233
97,714	-8,653	244,591	117,019
98,728	-8,769	244,514	116,875
99,743	-8,810	244,128	116,646
100,757	-8,923	243,935	116,449
101,772	-8,642	243,719	116,569
102,787	-8,745	243,710	116,469
103,801	-8,604	243,590	116,518
104,816	-8,475	243,493	116,569
105,830	-8,384	243,268	116,526
106,845	-8,170	242,983	116,556
107,860	-8,334	242,826	116,335
108,874	-8,545	242,673	116,077
109,889	-8,756	242,434	115,778
110,903	-8,525	242,101	115,799
111,918	-8,465	241,958	115,770
112,933	-8,630	242,045	115,665
113,947	-8,518	241,800	115,630
114,962	-8,329	241,590	115,675
115,976	-8,469	241,488	115,500
116,991	-8,354	241,198	115,446
118,006	-8,617	241,182	115,212
119,020	-8,240	240,975	115,412
120,035	-8,334	240,873	115,276
121,049	-8,390	240,683	115,129
122,064	-8,335	240,507	115,080
123,079	-8,303	240,202	114,950
124,093	-8,501	239,978	114,670
125,108	-8,611	239,666	114,422
126,122	-9,003	239,596	114,058
127,137	-8,838	239,346	114,063
128,151	-8,748	239,236	114,074
129,166	-8,693	239,131	114,058
130,181	-8,944	238,829	113,700
131,195	-8,789	238,659	113,734
132,210	-8,669	238,647	113,816
133,224	-8,484	238,298	113,790
134,239	-8,361	238,147	113,807
135,254	-8,387	238,152	113,778
136,268	-8,566	237,962	113,533
137,283	-8,721	237,583	113,216
138,297	-8,930	237,450	112,974
139,312	-8,658	237,078	113,007
140,327	-8,435	237,064	113,169
141,341	-8,207	237,166	113,392
142,356	-7,884	236,984	113,555
143,370	-8,117	236,841	113,289
144,385	-8,004	236,620	113,264
145,400	-7,928	236,362	113,191
146,414	-8,003	236,346	113,114
147,429	-8,296	236,136	112,767
148,443	-8,173	235,968	112,776
149,458	-8,136	235,774	112,703
150,473	-7,978	235,589	112,731
151,487	-8,178	235,415	112,477
152,502	-8,203	235,326	112,405
153,516	-8,220	235,142	112,293
154,531	-8,103	234,865	112,244
155,546	-7,998	234,595	112,189
156,560	-8,296	234,571	111,930
157,575	-8,343	234,378	111,791
158,589	-8,217	234,188	111,790
159,604	-8,048	234,227	111,933
160,619	-7,816	233,939	111,970
161,633	-7,989	233,896	111,802
162,648	-8,001	233,697	111,688
163,662	-7,905	233,511	111,664
164,677	-8,201	233,250	111,296
165,692	-8,012	233,220	111,421
166,706	-8,165	233,077	111,222
167,721	-8,033	232,999	111,279
168,735	-7,761	232,552	111,270
169,750	-7,755	232,534	111,256
170,764	-8,110	232,482	110,941
171,779	-8,159	232,327	110,819
172,794	-7,821	232,083	110,959
173,808	-7,873	231,938	110,838
174,823	-8,580	231,565	110,096
175,837	-8,707	231,373	109,895
176,852	-8,487	231,478	110,108
177,867	-7,829	231,300	110,529
178,881	-8,123	231,204	110,243
179,896	-7,860	231,032	110,357
180,910	-7,922	230,853	110,212
181,925	-8,146	230,759	109,983
182,940	-7,887	230,598	110,099
183,954	-7,771	230,426	110,097
184,969	-7,898	230,305	109,931
185,983	-7,913	230,210	109,864
186,998	-7,846	230,027	109,819
188,013	-7,835	229,876	109,746
189,027	-7,805	229,717	109,683
190,042	-7,743	229,602	109,667
191,056	-7,785	229,433	109,544
192,071	-7,593	229,295	109,617
193,086	-7,677	229,002	109,402
194,100	-7,958	228,882	109,118
195,115	-7,958	228,744	109,042
196,129	-8,338	228,511	108,627
197,144	-3,740	229,848	112,825
198,159	1,463	231,516	117,694
199,173	3,234	231,902	119,261
200,188	3,407	231,796	119,331
201,202	3,535	231,487	119,260
202,217	3,841	231,443	119,465
203,232	4,062	231,400	119,604
204,246	4,038	231,363	119,555
205,261	3,928	231,112	119,329
206,275	4,196	231,115	119,528
207,290	4,495	230,831	119,602
208,304	4,330	230,808	119,452
209,319	4,400	230,647	119,412
210,334	4,231	230,306	119,094
211,348	3,788	230,127	118,650
212,363	3,620	229,861	118,372
213,377	3,435	229,759	118,166
214,392	3,302	229,532	117,937
215,407	3,511	229,419	118,028
216,421	3,704	229,307	118,109
217,436	3,341	229,179	117,754
218,450	3,266	228,874	117,529
219,465	3,176	228,680	117,350
220,480	3,162	228,606	117,290
221,494	3,276	228,452	117,288
222,509	3,489	228,328	117,377
223,523	3,415	228,203	117,246
224,538	3,305	228,014	117,054
225,553	3,476	227,971	117,152
226,567	3,502	227,826	117,087
227,582	3,755	227,791	117,252
228,596	3,829	227,723	117,263
229,611	3,397	227,461	116,788
230,626	3,208	227,083	116,440
231,640	3,271	226,862	116,364
232,655	3,678	226,910	116,688
233,669	3,862	226,919	116,821
234,684	3,998	226,869	116,889
235,699	3,809	226,539	116,565
236,713	3,754	226,285	116,383
237,728	3,504	226,225	116,152
238,742	3,449	225,881	115,923
239,757	3,315	225,846	115,794
240,772	3,324	225,642	115,685
241,786	3,492	225,553	115,756
242,801	3,607	225,487	115,799
243,815	3,942	225,466	116,031
244,830	3,850	225,298	115,864
245,844	3,323	225,121	115,367
246,859	3,573	224,870	115,415
247,874	3,596	224,734	115,352
248,888	3,808	224,514	115,389
249,903	3,557	224,453	115,158
250,917	3,459	224,327	115,010
251,932	3,219	224,258	114,784
252,947	3,344	223,925	114,697
253,961	3,230	223,862	114,570
254,976	3,444	223,734	114,653
255,990	3,529	223,512	114,593
257,005	3,506	223,431	114,525
258,020	3,943	223,250	114,748
259,034	3,993	223,188	114,742
260,049	3,882	223,116	114,612
261,063	3,615	222,840	114,262
262,078	3,839	222,650	114,321
263,093	3,871	222,599	114,309
264,107	3,688	222,494	114,108
265,122	3,968	222,284	114,198
266,136	4,016	222,228	114,195
267,151	3,985	222,100	114,096
268,166	3,472	221,756	113,529
269,180	3,410	221,515	113,350
270,195	3,335	221,406	113,229
271,209	3,314	221,288	113,143
272,224	3,577	221,326	113,347
273,239	3,502	221,224	113,228
274,253	3,317	220,946	112,939
275,268	3,251	220,750	112,781
276,282	3,058	220,543	112,523
277,297	3,170	220,409	112,527
278,312	3,177	220,299	112,466
279,326	3,442	220,101	112,549
280,341	3,291	220,242	112,500
281,355	3,574	220,041	112,595
282,370	3,285	219,807	112,253
283,384	3,317	219,591	112,157
284,399	2,998	219,361	111,796
285,414	3,044	219,253	111,765
286,428	3,607	219,200	112,139
287,443	3,664	219,176	112,158
288,457	3,379	218,997	111,849
289,472	3,563	218,697	111,820
290,487	3,210	218,540	111,473
291,501	2,917	218,361	111,158
292,516	3,242	218,255	111,331
293,530	3,369	218,181	111,375
294,545	3,159	218,095	111,169
295,560	3,338	217,892	111,185
296,574	3,477	217,861	111,260
297,589	3,360	217,750	111,109
298,603	3,751	217,624	111,318
299,618	3,724	217,388	111,168
300,633	3,707	217,311	111,106
301,647	3,826	217,164	111,107
302,662	3,825	217,082	111,055
303,676	3,737	216,977	110,927
304,691	3,618	216,898	110,791
305,706	3,888	216,641	110,845
306,720	3,541	216,608	110,567
307,735	3,332	216,371	110,287
308,749	3,336	216,047	110,115
309,764	3,327	215,991	110,070
310,779	3,509	215,853	110,120
311,793	3,747	215,805	110,257
312,808	4,001	215,537	110,292
313,822	3,583	215,504	109,966
314,837	3,404	215,403	109,776
315,852	3,224	215,168	109,518
316,866	3,463	215,005	109,596
317,881	3,697	215,022	109,762
318,895	3,837	214,785	109,731
319,910	3,342	214,507	109,227
320,925	3,358	214,376	109,162
321,939	2,966	214,319	108,843
322,954	3,010	214,179	108,794
323,968	3,486	214,234	109,151
324,983	3,560	214,053	109,102
325,997	3,618	214,009	109,111
327,012	3,436	213,809	108,870
328,027	3,364	213,651	108,728
329,041	3,767	213,606	108,982
330,056	3,786	213,569	108,967
331,070	3,442	213,250	108,551
332,085	3,080	213,040	108,178
333,100	3,401	212,857	108,302
334,114	3,627	212,779	108,413
335,129	3,701	212,525	108,326
336,143	3,521	212,339	108,094
337,158	3,386	212,345	107,993
338,173	3,553	212,205	108,029
339,187	3,279	212,068	107,758
340,202	3,349	211,736	107,628
341,216	3,148	211,624	107,421
342,231	3,370	211,635	107,572
343,246	3,187	211,556	107,394
344,260	3,272	211,353	107,342
345,275	3,317	211,280	107,326
346,289	3,424	211,185	107,343
347,304	3,671	211,068	107,447
348,319	3,467	210,967	107,244
349,333	3,539	210,769	107,184
350,348	3,360	210,727	107,027
351,362	3,590	210,571	107,099
352,377	3,635	210,409	107,039
353,392	3,411	210,238	106,786
354,406	3,472	210,135	106,766
355,421	195,487	1341,831	1427,952
356,435	156,110	1479,745	1427,997
