DTS Sentinel unit serial number:	SN410029Multiplexer serial number:	ORYXHardware model number:	OX2-SRSoftware version number:	ORYX F/W v4,00 Oryx Data Collector v3.7.2.0data status	okinstallation	B6 Nyhavnadifferential loss correction	single-endedforward channel	channel 2reverse channel	N/Adate	2023/12/10time	04:20:08forward acquisition time	300,00reverse acquisition time	0,00gamma	499,1914k internal	0,3125k external	0,3125temperature offset calibration	1,0000default loss term (dB/km)	0,3820temperature slope calibration	1,0000multiplexer offset coefficient	1,0000multiplexer slope coefficient	1,0000fibre end	0,00T internal ref (°C)	22,16T ext. ref 1 (°C)	6,20T ext. ref 2 (°C)	6,17length (m)	temperature (°C)	Stokes	anti-Stokes-744,400	173,175	-0,072	0,078
-743,385	372,361	-0,120	0,183
-742,371	57,438	0,023	0,017
-741,356	43,600	-0,176	0,120
-740,342	82,264	0,148	-0,119
-739,327	-45,473	-0,281	0,103
-738,312	35,380	0,080	-0,052
-737,298	-161,055	-0,131	0,005
-736,283	-200,000	0,003	-0,088
-735,269	-112,641	-0,246	-0,036
-734,254	-200,000	0,016	0,127
-733,239	-75,035	-0,493	-0,130
-732,225	-12,552	0,098	-0,048
-731,210	-200,000	-0,012	0,055
-730,196	-121,200	0,081	0,010
-729,181	-200,000	-0,017	0,083
-728,167	437,484	0,035	0,057
-727,152	210,926	-0,051	0,059
-726,137	760,812	-0,073	-0,147
-725,123	800,000	-0,043	-0,095
-724,108	73,808	-0,093	-0,073
-723,094	232,989	-0,136	-0,166
-722,079	445,449	-0,041	-0,068
-721,064	100,747	0,068	-0,059
-720,050	211,420	-0,053	0,062
-719,035	282,071	0,141	0,188
-718,021	799,205	-0,048	-0,099
-717,006	-158,026	-0,172	0,007
-715,991	363,113	-0,056	-0,084
-714,977	-113,506	0,087	-0,013
-713,962	92,916	-0,008	0,007
-712,948	119,842	0,033	-0,031
-711,933	578,396	0,060	-0,109
-710,918	1,079	0,095	-0,051
-709,904	-3,046	-0,123	-0,064
-708,889	101,584	-0,140	0,121
-707,875	-200,000	0,001	-0,146
-706,860	800,000	-0,049	-0,150
-705,845	503,506	-0,029	0,050
-704,831	800,000	0,027	0,080
-703,816	29,686	0,080	0,051
-702,802	800,000	0,024	-0,066
-701,787	614,033	0,074	-0,138
-700,772	246,103	0,102	-0,128
-699,758	800,000	-0,049	-0,159
-698,743	-170,185	-0,086	-0,002
-697,729	15,540	0,016	0,009
-696,714	800,000	-0,069	0,183
-695,699	436,663	-0,027	-0,044
-694,685	-200,000	-0,009	-0,050
-693,670	-101,425	-0,101	-0,018
-692,656	800,000	0,054	0,162
-691,641	100,213	-0,059	-0,051
-690,627	800,000	-0,033	0,100
-689,612	-200,000	0,019	0,117
-688,597	561,617	0,109	0,197
-687,583	-200,000	0,001	0,024
-686,568	-121,040	0,086	0,011
-685,554	-72,729	0,072	-0,019
-684,539	577,892	0,035	-0,065
-683,524	-157,786	0,086	-0,004
-682,510	-200,000	0,009	0,030
-681,495	-200,000	0,008	0,048
-680,481	-50,826	-0,092	0,032
-679,466	5,877	0,024	0,013
-678,451	-13,279	-0,163	-0,078
-677,437	55,829	-0,053	0,038
-676,422	800,000	0,029	-0,093
-675,408	174,987	-0,097	0,105
-674,393	-75,661	0,031	-0,008
-673,378	79,618	-0,023	-0,019
-672,364	213,681	0,009	0,011
-671,349	-160,704	-0,068	0,003
-670,335	40,163	-0,066	-0,044
-669,320	-200,000	0,029	-0,104
-668,305	-179,926	0,094	0,001
-667,291	-73,413	-0,051	-0,014
-666,276	-142,928	0,062	-0,004
-665,262	170,962	-0,079	-0,085
-664,247	-129,885	0,132	0,013
-663,232	51,629	0,108	-0,076
-662,218	-159,163	-0,054	0,002
-661,203	302,429	-0,060	-0,083
-660,189	39,611	0,118	0,079
-659,174	-37,336	-0,086	-0,034
-658,159	-97,119	-0,054	0,010
-657,145	-20,257	-0,030	0,014
-656,130	-98,114	-0,017	-0,003
-655,116	455,963	0,088	-0,145
-654,101	800,000	-0,046	-0,103
-653,086	261,133	0,108	0,140
-652,072	-37,622	-0,017	-0,007
-651,057	100,228	-0,077	-0,066
-650,043	800,000	-0,062	-0,135
-649,028	800,000	-0,044	-0,139
-648,014	-73,554	0,090	-0,024
-646,999	-41,982	0,046	-0,017
-645,984	94,616	-0,019	-0,016
-644,970	-83,769	-0,020	-0,005
-643,955	-200,000	0,014	-0,072
-642,941	-24,349	-0,079	-0,035
-641,926	298,639	-0,093	0,127
-640,911	23,011	0,064	0,039
-639,897	800,000	0,024	0,074
-638,882	219,705	0,003	-0,003
-637,868	261,542	0,026	-0,033
-636,853	-97,224	-0,106	-0,020
-635,838	-200,000	-0,006	0,067
-634,824	412,084	-0,061	-0,096
-633,809	219,365	0,086	0,102
-632,795	511,954	-0,037	0,063
-631,780	47,658	-0,055	0,038
-630,765	-200,000	0,020	-0,111
-629,751	-144,083	-0,021	0,001
-628,736	-171,179	0,152	-0,004
-627,722	-81,533	-0,069	0,017
-626,707	-144,110	0,102	-0,007
-625,692	-200,000	-0,008	-0,104
-624,678	800,000	-0,032	0,086
-623,663	800,000	0,017	0,048
-622,649	-54,204	-0,076	-0,026
-621,634	-200,000	0,009	-0,090
-620,619	106,972	0,063	-0,056
-619,605	532,822	-0,052	-0,091
-618,590	-200,000	0,002	-0,122
-617,576	-28,455	0,052	0,022
-616,561	422,810	-0,028	-0,045
-615,546	-60,373	0,047	-0,015
-614,532	-98,397	0,046	0,009
-613,517	-81,064	-0,048	-0,012
-612,503	7,053	-0,018	-0,010
-611,488	-61,606	0,090	0,028
-610,474	-200,000	-0,046	0,175
-609,459	-71,684	0,078	0,021
-608,444	800,000	0,011	-0,027
-607,430	-33,917	-0,085	-0,035
-606,415	195,262	-0,066	-0,074
-605,401	-200,000	-0,001	0,028
-604,386	800,000	-0,043	0,127
-603,371	169,696	0,087	0,092
-602,357	-10,626	-0,090	0,044
-601,342	487,090	-0,024	-0,041
-600,328	246,533	-0,077	-0,097
-599,313	-78,832	0,038	0,009
-598,298	800,000	0,020	0,063
-597,284	-200,000	0,001	-0,054
-596,269	-5,132	0,057	0,029
-595,255	-200,000	-0,037	0,144
-594,240	-96,593	0,044	0,008
-593,225	-50,042	-0,123	-0,043
-592,211	191,266	-0,039	0,044
-591,196	-125,096	0,100	0,011
-590,182	512,544	0,023	-0,041
-589,167	-102,809	-0,102	0,018
-588,152	-116,269	0,121	-0,016
-587,138	-200,000	0,043	-0,193
-586,123	-200,000	0,018	-0,130
-585,109	0,368	0,067	-0,035
-584,094	4,827	-0,176	-0,095
-583,079	-200,000	-0,002	-0,049
-582,065	558,546	0,054	0,098
-581,050	54,978	0,071	0,051
-580,036	800,000	-0,020	0,048
-579,021	-200,000	0,022	-0,081
-578,006	280,077	-0,062	-0,083
-576,992	59,051	-0,126	0,091
-575,977	616,423	-0,060	-0,113
-574,963	117,566	0,183	0,167
-573,948	-200,000	0,002	0,065
-572,934	140,863	0,079	0,077
-571,919	-200,000	-0,032	-0,125
-570,904	100,308	-0,098	0,084
-569,890	19,046	-0,024	0,014
-568,875	-200,000	0,033	0,174
-567,861	44,871	0,093	-0,063
-566,846	-3,832	-0,139	0,071
-565,831	-83,008	-0,050	0,012
-564,817	-162,130	-0,111	0,004
-563,802	-168,444	0,076	0,002
-562,788	327,212	0,042	-0,060
-561,773	72,917	0,139	-0,107
-560,758	-200,000	0,006	0,069
-559,744	-200,000	0,017	0,069
-558,729	-200,000	-0,001	0,093
-557,715	-200,000	-0,023	-0,228
-556,700	-200,000	0,023	-0,190
-555,685	800,000	-0,032	-0,090
-554,671	-37,944	-0,088	0,034
-553,656	-60,411	0,147	0,046
-552,642	-200,000	0,003	-0,052
-551,627	-200,000	-0,001	-0,084
-550,612	-200,000	0,016	-0,150
-549,598	58,723	-0,038	-0,028
-548,583	-148,699	-0,198	0,012
-547,569	341,667	0,026	0,038
-546,554	-200,000	-0,011	0,052
-545,539	-152,095	0,058	0,003
-544,525	297,836	0,111	0,152
-543,510	-200,000	-0,007	-0,025
-542,496	-103,904	-0,051	-0,009
-541,481	-200,000	-0,006	-0,030
-540,466	425,591	0,070	0,112
-539,452	28,465	-0,100	0,062
-538,437	291,737	-0,001	-0,002
-537,423	-200,000	0,030	-0,114
-536,408	62,848	-0,101	0,074
-535,393	-200,000	0,005	-0,197
-534,379	-200,000	0,029	-0,106
-533,364	151,031	-0,044	-0,044
-532,350	356,539	-0,081	-0,119
-531,335	-73,567	0,065	-0,017
-530,321	-17,666	0,125	-0,058
-529,306	-200,000	0,008	-0,027
-528,291	-200,000	0,037	-0,165
-527,277	-15,571	-0,143	-0,067
-526,262	-56,058	-0,076	0,025
-525,248	192,469	-0,063	0,071
-524,233	-103,463	0,035	-0,006
-523,218	397,168	-0,063	0,097
-522,204	-200,000	-0,008	-0,064
-521,189	-93,779	-0,079	-0,016
-520,175	-200,000	0,001	0,048
-519,160	-139,733	0,031	-0,002
-518,145	229,341	-0,095	-0,114
-517,131	-92,617	0,141	-0,029
-516,116	26,901	-0,114	-0,071
-515,102	86,917	0,135	-0,110
-514,087	393,899	0,055	-0,084
-513,072	254,660	0,079	0,101
-512,058	760,940	-0,048	-0,096
-511,043	198,639	0,046	-0,052
-510,029	-200,000	0,013	0,118
-509,014	-200,000	0,011	0,088
-507,999	-37,741	-0,119	0,047
-506,985	77,284	0,023	0,018
-505,970	-31,040	-0,043	-0,018
-504,956	356,290	0,018	-0,026
-503,941	-86,675	0,081	-0,018
-502,926	800,000	0,013	0,029
-501,912	-200,000	-0,003	0,065
-500,897	-146,297	-0,055	-0,004
-499,883	-200,000	-0,022	-0,107
-498,868	-200,000	-0,017	0,112
-497,853	-121,070	-0,169	-0,021
-496,839	-12,162	0,076	0,037
-495,824	800,000	0,023	0,072
-494,810	164,358	-0,070	0,073
-493,795	-200,000	0,015	0,237
-492,781	-15,851	0,106	-0,050
-491,766	64,484	-0,119	0,088
-490,751	-86,266	-0,051	-0,011
-489,737	537,823	0,063	0,112
-488,722	-114,186	0,057	0,008
-487,708	800,000	-0,048	0,112
-486,693	-37,806	0,077	0,030
-485,678	79,829	-0,070	0,055
-484,664	73,731	-0,071	-0,055
-483,649	40,316	-0,149	-0,099
-482,635	100,058	0,026	-0,022
-481,620	100,710	0,043	-0,037
-480,605	86,111	-0,068	-0,055
-479,591	-166,484	0,209	-0,006
-478,576	-200,000	-0,023	0,091
-477,562	624,593	-0,037	-0,069
-476,547	-18,960	0,020	-0,009
-475,532	-200,000	-0,007	-0,039
-474,518	66,872	0,036	0,027
-473,503	-200,000	-0,008	-0,028
-472,489	-110,356	-0,057	-0,009
-471,474	757,601	-0,045	0,090
-470,459	625,230	0,052	-0,097
-469,445	800,000	0,016	-0,038
-468,430	-200,000	0,014	-0,105
-467,416	-200,000	0,002	-0,007
-466,401	800,000	0,032	0,095
-465,386	-3,556	-0,041	-0,021
-464,372	93,452	-0,045	-0,038
-463,357	-117,412	-0,027	-0,004
-462,343	57,420	0,012	-0,009
-461,328	103,007	0,031	-0,026
-460,313	-200,000	0,016	0,120
-459,299	-55,234	0,163	-0,054
-458,284	-120,805	0,041	0,005
-457,270	167,959	-0,094	-0,099
-456,255	602,774	-0,028	-0,051
-455,241	800,000	-0,061	-0,158
-454,226	10,298	-0,016	0,009
-453,211	-151,894	0,013	0,001
-452,197	240,695	0,035	-0,044
-451,182	145,987	0,109	0,107
-450,168	-134,425	0,089	-0,008
-449,153	116,470	-0,011	0,010
-448,138	-200,000	-0,025	-0,091
-447,124	800,000	-0,026	-0,074
-446,109	600,166	0,093	-0,171
-445,095	121,329	-0,069	-0,064
-444,080	276,179	0,029	-0,038
-443,065	69,573	0,051	0,038
-442,051	-200,000	0,001	-0,057
-441,036	18,577	0,044	0,026
-440,022	81,155	0,076	-0,061
-439,007	689,859	0,062	-0,120
-437,992	-187,149	-0,094	-0,001
-436,978	100,654	0,125	0,107
-435,963	11,986	0,154	0,087
-434,949	775,927	0,027	-0,055
-433,934	213,672	0,070	-0,082
-432,919	183,720	0,036	-0,040
-431,905	-151,715	-0,035	-0,002
-430,890	-100,112	0,056	0,010
-429,876	-38,885	0,067	-0,026
-428,861	124,196	0,053	0,049
-427,846	-83,427	0,063	-0,015
-426,832	51,542	-0,120	-0,084
-425,817	-85,893	-0,107	-0,024
-424,803	18,723	-0,044	-0,026
-423,788	297,508	-0,018	-0,024
-422,773	-200,000	-0,008	-0,031
-421,759	800,000	0,031	0,089
-420,744	41,301	-0,024	0,016
-419,730	175,668	-0,089	0,096
-418,715	83,174	-0,095	-0,076
-417,701	477,478	0,037	-0,062
-416,686	-87,630	0,122	0,027
-415,671	-146,697	0,056	0,004
-414,657	800,000	0,035	0,110
-413,642	356,877	-0,021	-0,031
-412,628	13,509	0,146	-0,083
-411,613	-200,000	0,004	0,018
-410,598	-200,000	-0,002	-0,011
-409,584	-200,000	0,008	0,084
-408,569	194,020	-0,042	-0,047
-407,555	-161,055	-0,110	0,004
-406,540	45,674	-0,038	0,026
-405,525	-121,743	-0,063	0,008
-404,511	53,568	0,035	0,025
-403,496	-200,000	0,018	-0,163
-402,482	-200,000	-0,007	0,085
-401,467	301,819	-0,051	0,069
-400,452	-102,426	0,044	0,008
-399,438	4,430	0,071	0,038
-398,423	520,355	-0,030	-0,051
-397,409	800,000	-0,017	-0,054
-396,394	-200,000	0,012	0,056
-395,379	223,380	0,074	-0,087
-394,365	288,294	0,023	-0,030
-393,350	-31,981	-0,103	-0,042
-392,336	-200,000	0,011	0,042
-391,321	-86,097	0,043	-0,010
-390,306	136,866	-0,025	-0,024
-389,292	800,000	0,043	0,102
-388,277	-32,696	-0,119	-0,049
-387,263	220,838	0,057	-0,067
-386,248	286,553	-0,058	0,077
-385,233	-5,882	0,119	0,059
-384,219	800,000	-0,031	-0,065
-383,204	-79,437	-0,125	0,031
-382,190	62,071	-0,027	-0,019
-381,175	-95,129	0,086	-0,017
-380,160	353,559	-0,024	-0,036
-379,146	253,842	0,065	0,082
-378,131	623,285	0,031	0,058
-377,117	89,643	0,077	0,063
-376,102	359,198	0,033	-0,049
-375,088	49,196	-0,016	0,011
-374,073	-78,833	-0,048	-0,012
-373,058	800,000	0,013	0,028
-372,044	-107,710	0,093	-0,015
-371,029	-82,620	0,086	0,020
-370,015	-133,285	-0,093	0,008
-369,000	-200,000	0,031	-0,103
-367,985	9,996	0,037	0,021
-366,971	800,000	-0,044	0,108
-365,956	347,878	0,018	-0,025
-364,942	-120,993	0,055	-0,007
-363,927	378,865	0,062	0,093
-362,912	211,211	0,054	-0,063
-361,898	79,558	-0,030	0,024
-360,883	-65,868	-0,066	-0,019
-359,869	800,000	-0,028	-0,073
-358,854	602,996	-0,046	0,084
-357,839	-64,428	-0,038	0,011
-356,825	291,390	0,167	0,224
-355,810	68,399	-0,106	-0,079
-354,796	524,205	-0,034	-0,059
-353,781	-200,000	0,011	0,051
-352,766	-200,000	-0,048	0,227
-351,752	-72,746	0,073	-0,020
-350,737	-200,000	0,004	0,176
-349,723	-200,000	-0,007	-0,069
-348,708	-200,000	0,033	0,159
-347,693	-47,719	-0,047	0,017
-346,679	107,830	-0,121	-0,106
-345,664	166,229	-0,040	-0,042
-344,650	-200,000	-0,009	0,093
-343,635	249,672	0,025	0,031
-342,620	629,227	-0,029	-0,054
-341,606	87,243	0,080	0,065
-340,591	335,596	-0,003	0,005
-339,577	175,617	-0,080	-0,085
-338,562	232,901	-0,072	-0,086
-337,548	-142,545	0,049	-0,004
-336,533	383,517	0,050	-0,075
-335,518	-200,000	-0,024	0,095
-334,504	195,185	0,012	0,013
-333,489	800,000	0,064	-0,202
-332,475	84,954	-0,142	0,114
-331,460	-166,390	0,038	0,001
-330,445	-200,000	-0,014	0,060
-329,431	800,000	0,012	0,028
-328,416	-85,821	0,172	0,039
-327,402	211,504	-0,098	0,113
-326,387	-57,279	-0,113	0,036
-325,372	-200,000	-0,020	0,122
-324,358	205,527	-0,059	-0,068
-323,343	-200,000	-0,003	-0,019
-322,329	800,000	-0,014	0,030
-321,314	-200,000	-0,006	0,154
-320,299	31,700	0,020	0,013
-319,285	567,644	0,047	0,084
-318,270	-200,000	0,029	-0,101
-317,256	-13,552	-0,141	-0,067
-316,241	75,680	0,073	-0,056
-315,226	47,852	0,079	-0,054
-314,212	144,537	-0,060	0,059
-313,197	800,000	0,047	0,126
-312,183	-200,000	-0,013	-0,082
-311,168	-42,383	-0,092	0,034
-310,153	800,000	-0,023	-0,061
-309,139	-200,000	-0,009	0,143
-308,124	-200,000	0,013	-0,065
-307,110	-106,868	0,121	-0,019
-306,095	800,000	0,069	0,183
-305,080	-78,805	0,163	0,040
-304,066	643,588	-0,014	-0,026
-303,051	-116,563	-0,084	-0,011
-302,037	41,543	-0,095	-0,063
-301,022	-200,000	-0,003	0,218
-300,008	-200,000	0,004	0,099
-298,993	399,322	0,027	0,041
-297,978	-200,000	-0,026	0,143
-296,964	800,000	-0,037	0,092
-295,949	105,835	0,067	0,058
-294,935	412,101	-0,023	-0,036
-293,920	-102,494	-0,048	0,008
-292,905	126,089	0,061	-0,056
-291,891	102,979	0,053	0,046
-290,876	-200,000	0,020	0,155
-289,862	-39,482	-0,093	-0,035
-288,847	800,000	0,035	-0,098
-287,832	800,000	0,013	-0,033
-286,818	-200,000	0,010	0,042
-285,803	-200,000	0,001	-0,046
-284,789	330,879	-0,029	0,042
-283,774	1,959	-0,100	-0,053
-282,759	800,000	0,033	-0,070
-281,745	-200,000	-0,030	-0,125
-280,730	-136,108	-0,100	-0,008
-279,716	24,659	0,081	-0,049
-278,701	119,828	-0,121	-0,110
-277,686	185,371	-0,041	0,045
-276,672	-200,000	-0,007	-0,046
-275,657	37,295	-0,194	-0,126
-274,643	800,000	0,047	-0,111
-273,628	140,217	-0,061	-0,059
-272,613	-14,174	0,038	0,018
-271,599	-200,000	0,007	-0,026
-270,584	-99,322	0,089	-0,016
-269,570	-144,402	0,035	0,002
-268,555	-200,000	-0,005	0,025
-267,540	-76,509	-0,074	-0,019
-266,526	-26,470	0,089	-0,038
-265,511	800,000	-0,007	-0,013
-264,497	800,000	0,029	-0,077
-263,482	23,724	0,066	0,039
-262,467	-119,773	0,178	-0,022
-261,453	-71,239	-0,124	-0,034
-260,438	800,000	-0,017	-0,050
-259,424	25,452	0,097	0,059
-258,409	800,000	-0,039	-0,082
-257,395	-200,000	0,044	0,171
-256,380	394,407	-0,070	0,107
-255,365	-54,892	0,027	0,009
-254,351	-62,160	-0,050	0,015
-253,336	-102,476	-0,085	0,015
-252,322	800,000	0,032	0,074
-251,307	366,540	-0,027	0,039
-250,292	500,199	0,040	0,068
-249,278	-125,230	-0,010	0,001
-248,263	223,192	0,094	0,111
-247,249	58,599	0,163	0,117
-246,234	37,130	-0,180	0,116
-245,219	-186,544	-0,133	-0,001
-244,205	-96,611	0,079	0,015
-243,190	-200,000	0,009	0,106
-242,176	-200,000	0,013	0,095
-241,161	-102,148	0,074	0,013
-240,146	-200,000	-0,002	-0,024
-239,132	-200,000	0,002	0,052
-238,117	800,000	-0,029	-0,092
-237,103	-117,572	-0,033	0,004
-236,088	618,577	0,035	-0,065
-235,073	-200,000	-0,010	0,100
-234,059	800,000	0,034	0,091
-233,044	23,271	-0,015	0,009
-232,030	800,000	-0,014	-0,028
-231,015	547,666	0,057	-0,100
-230,000	800,000	-0,057	-0,127
-228,986	-144,108	-0,026	0,002
-227,971	-200,000	0,015	-0,098
-226,957	349,244	-0,031	-0,045
-225,942	436,193	-0,042	-0,066
-224,927	-187,490	-0,108	-0,001
-223,913	7,566	-0,102	0,056
-222,898	-200,000	0,025	0,103
-221,884	108,705	-0,131	0,114
-220,869	-200,000	0,010	0,067
-219,855	48,159	0,109	0,074
-218,840	-150,526	0,042	-0,002
-217,825	-4,414	0,087	-0,044
-216,811	65,515	0,066	-0,048
-215,796	66,508	0,054	0,040
-214,782	243,758	0,040	-0,050
-213,767	-142,069	-0,123	-0,009
-212,752	-119,552	-0,185	0,023
-211,738	-200,000	0,008	0,054
-210,723	800,000	-0,015	-0,039
-209,709	-75,214	0,093	0,024
-208,694	800,000	-0,011	-0,027
-207,679	-200,000	-0,044	-0,145
-206,665	-200,000	0,032	-0,227
-205,650	-15,350	0,111	0,052
-204,636	-200,000	0,030	0,222
-203,621	331,708	-0,079	0,111
-202,606	-200,000	-0,009	0,077
-201,592	-63,513	-0,160	-0,048
-200,577	-200,000	0,012	0,092
-199,563	-200,000	-0,015	-0,109
-198,548	-20,604	0,076	-0,034
-197,533	800,000	-0,019	-0,042
-196,519	308,123	-0,048	-0,065
-195,504	800,000	-0,032	-0,097
-194,490	120,488	-0,034	0,031
-193,475	209,130	-0,067	-0,076
-192,460	-24,305	-0,090	0,039
-191,446	256,853	-0,046	0,058
-190,431	143,431	0,061	-0,059
-189,417	800,000	0,034	0,090
-188,402	119,337	-0,088	-0,079
-187,387	692,458	0,075	-0,144
-186,373	-200,000	-0,001	-0,048
-185,358	-200,000	-0,006	-0,085
-184,344	-50,920	0,065	0,022
-183,329	-13,008	0,096	0,045
-182,315	-24,957	-0,052	-0,022
-181,300	54,274	-0,031	0,022
-180,285	800,000	0,084	0,172
-179,271	204,733	-0,130	-0,147
-178,256	53,564	-0,140	0,098
-177,242	9,803	0,103	0,057
-176,227	-3,769	0,028	0,014
-175,212	4,623	0,068	0,036
-174,198	350,047	-0,075	0,108
-173,183	-66,610	-0,120	0,035
-172,169	-51,150	-0,119	0,040
-171,154	-40,138	0,113	0,043
-170,139	423,633	0,056	0,088
-169,125	70,579	0,110	-0,082
-168,110	-160,222	-0,077	0,003
-167,096	98,096	0,049	-0,041
-166,081	-200,000	0,003	0,105
-165,066	-10,318	0,035	0,017
-164,052	711,859	0,045	-0,087
-163,037	-78,068	-0,060	0,015
-162,023	370,267	0,101	0,149
-161,008	142,495	0,102	-0,099
-159,993	-29,987	0,088	-0,036
-158,979	102,655	0,087	-0,074
-157,964	800,000	-0,064	-0,151
-156,950	-54,887	-0,012	-0,004
-155,935	-200,000	0,009	0,064
-154,920	57,983	0,037	0,026
-153,906	625,995	-0,029	0,054
-152,891	-200,000	0,028	-0,094
-151,877	800,000	-0,058	-0,160
-150,862	386,919	0,038	0,058
-149,847	246,769	-0,003	-0,004
-148,833	-200,000	-0,027	-0,105
-147,818	43,331	-0,095	0,063
-146,804	800,000	0,028	0,085
-145,789	241,570	0,146	0,178
-144,775	800,000	-0,024	0,056
-143,760	-1,552	-0,133	-0,068
-142,745	-144,203	-0,091	0,006
-141,731	119,687	0,069	0,063
-140,716	214,091	-0,124	0,143
-139,702	-124,942	0,094	-0,010
-138,687	137,891	0,069	0,066
-137,672	8,742	-0,105	-0,057
-136,658	-81,819	0,082	-0,019
-135,643	323,506	-0,027	0,038
-134,629	298,268	-0,057	0,077
-133,614	-76,628	0,110	0,028
-132,599	143,456	-0,043	-0,041
-131,585	-159,288	-0,071	-0,003
-130,570	336,269	-0,045	0,064
-129,556	-165,009	-0,100	0,003
-128,541	407,948	-0,038	-0,058
-127,526	105,419	-0,053	-0,045
-126,512	115,697	0,086	0,076
-125,497	393,564	-0,050	-0,077
-124,483	800,000	0,019	-0,057
-123,468	-105,411	-0,087	-0,014
-122,453	254,132	-0,047	-0,058
-121,439	359,525	-0,023	-0,033
-120,424	314,623	-0,023	0,031
-119,410	-200,000	-0,006	0,036
-118,395	-120,527	-0,080	0,010
-117,380	231,524	0,032	-0,038
-116,366	-200,000	-0,011	-0,042
-115,351	369,787	-0,073	0,107
-114,337	-62,713	-0,074	-0,022
-113,322	-200,000	0,007	-0,097
-112,307	30,000	0,173	0,107
-111,293	6,601	0,145	0,078
-110,278	800,000	-0,041	0,112
-109,264	33,634	-0,094	0,059
-108,249	-22,793	-0,057	0,025
-107,234	-28,507	-0,089	0,037
-106,220	206,019	0,017	0,019
-105,205	-82,434	0,114	0,027
-104,191	237,766	0,027	-0,033
-103,176	-200,000	-0,016	0,162
-102,162	173,390	-0,101	-0,106
-101,147	261,143	-0,040	-0,050
-100,132	128,845	-0,150	0,139
-99,118	-86,824	-0,085	-0,019
-98,103	-200,000	-0,043	0,139
-97,089	-200,000	0,009	0,068
-96,074	-200,000	0,003	0,108
-95,059	-200,000	0,021	0,072
-94,045	-54,780	-0,051	-0,017
-93,030	-5,173	0,067	0,033
-92,016	-200,000	-0,003	-0,123
-91,001	-105,528	0,082	-0,013
-89,986	168,770	0,093	0,097
-88,972	387,472	-0,049	0,074
-87,957	103,899	0,091	0,078
-86,943	215,983	0,119	-0,137
-85,928	13,514	-0,129	0,073
-84,913	-116,360	-0,050	0,007
-83,899	118,634	0,107	-0,096
-82,884	-200,000	-0,007	0,064
-81,870	-200,000	-0,027	-0,121
-80,855	431,195	-0,022	0,035
-79,840	54,003	0,072	0,050
-78,826	47,453	0,045	0,030
-77,811	800,000	0,041	-0,118
-76,797	800,000	-0,049	-0,109
-75,782	-77,820	0,049	0,012
-74,767	-200,000	-0,027	0,099
-73,753	295,756	-0,086	0,114
-72,738	478,128	0,065	-0,107
-71,724	158,085	-0,061	0,061
-70,709	164,662	-0,059	0,060
-69,694	-200,000	0,007	0,024
-68,680	-200,000	-0,008	-0,057
-67,665	-200,000	-0,015	0,098
-66,651	123,086	-0,026	-0,023
-65,636	526,591	-0,028	-0,048
-64,622	-91,326	0,102	0,021
-63,607	-200,000	-0,040	-0,153
-62,592	197,340	-0,030	0,033
-61,578	95,473	-0,028	0,023
-60,563	29,160	-0,041	-0,025
-59,549	-200,000	0,026	0,082
-58,534	-136,623	-1,335	-0,110
-57,519	474,485	-0,916	-1,505
-56,505	-200,000	-0,973	-4,544
-55,490	-77,955	0,625	-0,155
-54,476	800,000	4,968	11,792
-53,461	-200,000	13,707	252,868
-52,446	-200,000	690,309	2246,024
-51,432	581,955	1622,156	2896,668
-50,417	118,447	1633,912	1461,938
-49,403	72,485	1287,924	972,643
-48,388	37,758	1023,606	657,839
-47,373	24,180	981,368	586,080
-46,359	23,428	970,953	577,374
-45,344	22,333	966,805	571,312
-44,330	22,361	965,145	570,397
-43,315	22,242	963,682	569,122
-42,300	22,179	962,668	568,299
-41,286	22,184	961,905	567,842
-40,271	22,110	960,976	567,029
-39,257	22,167	959,858	566,530
-38,242	22,209	958,814	566,029
-37,227	22,175	958,181	565,524
-36,213	22,164	957,234	564,906
-35,198	22,111	956,451	564,252
-34,184	22,135	955,985	564,030
-33,169	22,134	954,863	563,344
-32,154	22,188	954,012	562,992
-31,140	22,186	953,162	562,462
-30,125	22,227	952,232	562,024
-29,111	22,235	951,368	561,517
-28,096	22,210	950,725	561,034
-27,082	22,164	950,162	560,531
-26,067	22,236	949,267	560,212
-25,052	22,213	948,556	559,698
-24,038	22,212	947,856	559,257
-23,023	22,268	947,103	558,971
-22,009	22,249	946,662	558,627
-20,994	22,227	945,916	558,095
-19,979	22,271	945,381	557,897
-18,965	22,226	944,793	557,385
-17,950	22,161	944,267	556,845
-16,936	22,107	943,469	556,182
-15,921	22,146	942,647	555,799
-14,906	22,127	941,879	555,265
-13,892	22,114	941,429	554,934
-12,877	22,091	940,847	554,497
-11,863	22,052	940,196	553,967
-10,848	22,038	939,789	553,661
-9,833	22,149	939,236	553,667
-8,819	22,196	938,512	553,366
-7,804	22,137	937,761	552,714
-6,790	22,080	937,370	552,280
-5,775	22,082	936,795	551,927
-4,760	22,113	936,076	551,581
-3,746	22,113	935,366	551,140
-2,731	21,932	934,867	550,251
-1,717	21,862	934,159	549,592
-0,702	21,849	933,533	549,161
0,313	21,722	932,542	549,007
1,327	24,827	930,765	557,663
2,342	34,446	795,465	502,190
3,356	32,357	451,146	281,647
4,371	1,552	293,602	152,592
5,386	-2,996	274,664	138,436
6,400	-4,271	268,999	134,386
7,415	-4,674	266,607	132,808
8,429	-4,259	265,202	132,476
9,444	-4,302	264,565	132,107
10,459	-4,321	263,893	131,742
11,473	-4,381	263,277	131,369
12,488	-4,582	262,837	130,955
13,502	-4,638	262,210	130,580
14,517	-4,639	261,798	130,363
15,531	-4,725	261,437	130,094
16,546	-4,538	261,055	130,060
17,561	-4,637	260,723	129,794
18,575	-4,465	260,279	129,716
19,590	-4,779	259,974	129,271
20,604	-4,425	259,700	129,440
21,619	-4,630	259,329	129,061
22,634	-4,721	259,045	128,827
23,648	-4,665	258,716	128,701
24,663	-4,457	258,424	128,730
25,677	-4,655	258,334	128,497
26,692	-4,691	257,934	128,255
27,707	-4,627	257,743	128,205
28,721	-4,765	257,443	127,922
29,736	-4,847	257,217	127,726
30,750	-4,938	256,922	127,488
31,765	-4,722	256,652	127,534
32,780	-4,613	256,547	127,566
33,794	-4,691	256,217	127,322
34,809	-4,734	255,980	127,154
35,823	-4,761	255,748	127,004
36,838	-4,739	255,549	126,914
37,853	-4,687	255,355	126,852
38,867	-4,773	255,076	126,626
39,882	-4,912	254,853	126,383
40,896	-4,991	254,654	126,204
41,911	-4,886	254,432	126,173
42,926	-4,956	254,122	125,947
43,940	-4,984	254,002	125,853
44,955	-4,758	253,770	125,924
45,969	-5,078	253,623	125,560
46,984	-5,121	253,188	125,297
47,999	-5,275	252,979	125,048
49,013	-5,162	252,583	124,939
50,028	-5,343	252,351	124,656
51,042	-5,603	252,249	124,369
52,057	-5,638	251,920	124,166
53,071	-5,615	251,930	124,179
54,086	-5,243	251,651	124,352
55,101	-5,454	251,478	124,074
56,115	-4,985	251,358	124,409
57,130	-4,655	251,320	124,663
58,144	-4,470	251,051	124,679
59,159	-4,623	250,776	124,399
60,174	-4,636	250,691	124,334
61,188	-4,751	250,478	124,119
62,203	-4,789	250,381	124,027
63,217	-4,826	250,053	123,822
64,232	-4,699	249,796	123,792
65,247	-4,750	249,639	123,659
66,261	-4,641	249,360	123,604
67,276	-4,940	249,320	123,317
68,290	-5,019	248,991	123,076
69,305	-4,861	248,636	123,025
70,320	-5,152	248,554	122,725
71,334	-4,738	248,370	122,976
72,349	-4,676	248,243	122,954
73,363	-4,574	247,800	122,811
74,378	-4,571	247,725	122,765
75,393	-4,596	247,587	122,664
76,407	-4,731	247,380	122,437
77,422	-4,693	247,201	122,369
78,436	-4,700	247,148	122,326
79,451	-4,603	246,763	122,207
80,466	-4,789	246,544	121,930
81,480	-5,110	246,356	121,555
82,495	-5,147	246,297	121,484
83,509	-4,673	245,975	121,714
84,524	-4,918	245,840	121,430
85,539	-4,936	245,538	121,255
86,553	-5,075	245,367	121,043
87,568	-4,960	245,223	121,057
88,582	-4,766	244,878	121,039
89,597	-5,002	244,830	120,807
90,611	-4,790	244,746	120,932
91,626	-4,827	244,616	120,826
92,641	-4,863	244,498	120,727
93,655	-4,891	244,281	120,586
94,670	-4,822	243,944	120,466
95,684	-4,755	243,833	120,457
96,699	-4,812	243,662	120,314
97,714	-4,946	243,355	120,040
98,728	-5,022	243,202	119,891
99,743	-5,078	242,894	119,682
100,757	-5,053	242,777	119,634
101,772	-5,027	242,559	119,537
102,787	-5,102	242,545	119,457
103,801	-4,845	242,241	119,510
104,816	-4,702	242,007	119,502
105,830	-4,859	241,998	119,357
106,845	-4,784	241,921	119,371
107,860	-4,754	241,660	119,257
108,874	-4,760	241,412	119,118
109,889	-4,801	241,008	118,875
110,903	-4,958	240,982	118,721
111,918	-4,792	240,891	118,803
112,933	-4,759	240,672	118,712
113,947	-4,654	240,523	118,714
114,962	-4,603	240,369	118,669
115,976	-4,832	240,114	118,345
116,991	-4,822	239,943	118,258
118,006	-4,915	239,858	118,129
119,020	-4,667	239,743	118,265
120,035	-4,723	239,613	118,145
121,049	-4,816	239,579	118,041
122,064	-4,698	239,296	117,988
123,079	-4,888	239,059	117,706
124,093	-4,838	238,816	117,616
125,108	-5,036	238,587	117,331
126,122	-5,176	238,416	117,122
127,137	-5,074	238,223	117,101
128,151	-5,227	238,036	116,874
129,166	-5,050	237,853	116,917
130,181	-5,028	237,595	116,798
131,195	-5,199	237,413	116,559
132,210	-4,868	237,380	116,801
133,224	-4,699	237,260	116,868
134,239	-4,895	237,253	116,696
135,254	-4,572	236,940	116,792
136,268	-5,123	236,838	116,287
137,283	-5,117	236,422	116,077
138,297	-5,123	236,142	115,925
139,312	-5,079	235,993	115,876
140,327	-4,932	235,990	115,983
141,341	-4,345	236,035	116,466
142,356	-4,445	235,940	116,329
143,370	-4,529	235,605	116,086
144,385	-4,468	235,507	116,077
145,400	-4,390	235,352	116,053
146,414	-4,455	235,034	115,833
147,429	-4,482	234,895	115,733
148,443	-4,521	234,819	115,653
149,458	-4,372	234,652	115,680
150,473	-4,528	234,610	115,524
151,487	-4,336	234,208	115,469
152,502	-4,534	234,146	115,271
153,516	-4,626	234,158	115,193
154,531	-4,410	233,708	115,133
155,546	-4,441	233,574	115,032
156,560	-4,676	233,430	114,764
157,575	-4,360	233,257	114,920
158,589	-4,544	232,968	114,621
159,604	-4,388	232,872	114,688
160,619	-4,219	232,817	114,784
161,633	-4,354	232,618	114,569
162,648	-4,292	232,459	114,529
163,662	-4,304	232,295	114,429
164,677	-4,489	232,239	114,245
165,692	-4,410	232,044	114,202
166,706	-4,394	231,823	114,095
167,721	-4,268	231,739	114,143
168,735	-4,416	231,568	113,932
169,750	-4,352	231,487	113,932
170,764	-4,435	231,269	113,749
171,779	-4,495	231,121	113,620
172,794	-4,244	231,143	113,817
173,808	-4,358	230,796	113,547
174,823	-4,808	230,427	113,002
175,837	-5,183	230,354	112,663
176,852	-4,760	230,372	112,993
177,867	-4,238	230,093	113,254
178,881	-4,225	230,002	113,209
179,896	-4,306	229,991	113,131
180,910	-4,425	229,790	112,929
181,925	-4,566	229,659	112,744
182,940	-4,172	229,469	112,948
183,954	-4,232	229,304	112,810
184,969	-4,369	229,267	112,675
185,983	-4,148	229,043	112,727
186,998	-4,210	228,871	112,584
188,013	-4,298	228,731	112,437
189,027	-4,299	228,563	112,344
190,042	-4,322	228,455	112,263
191,056	-4,259	228,135	112,144
192,071	-4,219	228,132	112,164
193,086	-4,221	227,878	112,027
194,100	-4,105	227,723	112,031
195,115	-4,680	227,437	111,436
196,129	-4,955	227,246	111,120
197,144	-2,849	227,824	113,021
198,159	0,689	228,909	116,290
199,173	3,678	229,736	119,020
200,188	4,353	229,759	119,544
201,202	4,272	229,536	119,355
202,217	4,510	229,351	119,432
203,232	4,435	229,315	119,345
204,246	4,649	228,982	119,326
205,261	4,595	228,934	119,249
206,275	4,581	228,874	119,196
207,290	4,666	228,786	119,205
208,304	4,652	228,521	119,046
209,319	4,855	228,233	119,041
210,334	4,793	228,119	118,923
211,348	4,519	227,985	118,633
212,363	4,055	227,660	118,097
213,377	3,879	227,502	117,869
214,392	3,723	227,454	117,714
215,407	3,859	227,326	117,742
216,421	3,997	227,085	117,712
217,436	3,914	226,928	117,557
218,450	3,789	226,733	117,350
219,465	3,497	226,638	117,067
220,480	3,613	226,574	117,112
221,494	3,579	226,494	117,035
222,509	3,946	226,184	117,144
223,523	3,758	226,048	116,920
224,538	3,648	225,788	116,691
225,553	3,687	225,701	116,665
226,567	4,078	225,671	116,936
227,582	4,265	225,547	117,003
228,596	4,210	225,420	116,886
229,611	3,986	225,144	116,563
230,626	3,652	224,952	116,200
231,640	3,729	224,786	116,162
232,655	4,098	224,760	116,418
233,669	4,443	224,856	116,718
234,684	4,513	224,609	116,632
235,699	4,388	224,469	116,455
236,713	4,188	224,261	116,185
237,728	3,889	223,902	115,764
238,742	3,730	223,798	115,580
239,757	3,783	223,662	115,539
240,772	3,687	223,544	115,396
241,786	3,709	223,502	115,381
242,801	4,081	223,362	115,578
243,815	4,386	223,167	115,695
244,830	4,490	223,114	115,735
245,844	4,188	222,834	115,353
246,859	3,865	222,688	115,025
247,874	4,089	222,612	115,143
248,888	4,289	222,397	115,172
249,903	3,895	222,329	114,831
250,917	3,992	222,089	114,770
251,932	3,759	222,023	114,552
252,947	3,927	221,676	114,488
253,961	3,833	221,533	114,334
254,976	3,525	221,537	114,097
255,990	4,072	221,493	114,471
257,005	4,195	221,280	114,442
258,020	4,077	221,145	114,274
259,034	4,390	221,127	114,487
260,049	4,107	220,847	114,122
261,063	4,195	220,732	114,118
262,078	4,125	220,785	114,083
263,093	4,215	220,538	114,012
264,107	4,121	220,450	113,887
265,122	4,409	220,190	113,954
266,136	4,322	220,097	113,832
267,151	4,638	219,965	113,987
268,166	4,060	219,609	113,366
269,180	3,596	219,446	112,930
270,195	3,785	219,214	112,940
271,209	3,707	219,195	112,863
272,224	3,835	219,031	112,863
273,239	4,026	218,872	112,911
274,253	3,969	218,795	112,819
275,268	3,644	218,733	112,538
276,282	3,463	218,529	112,291
277,297	3,644	218,144	112,216
278,312	3,736	218,193	112,298
279,326	3,935	217,968	112,318
280,341	4,041	218,025	112,414
281,355	3,905	217,964	112,274
282,370	3,728	217,721	112,009
283,384	3,579	217,544	111,800
284,399	3,477	217,347	111,614
285,414	3,480	217,288	111,577
286,428	3,705	217,170	111,670
287,443	4,108	217,017	111,874
288,457	3,867	216,905	111,631
289,472	3,934	216,632	111,529
290,487	3,362	216,392	110,981
291,501	3,220	216,231	110,786
292,516	3,311	216,229	110,841
293,530	3,525	216,108	110,924
294,545	3,429	215,924	110,750
295,560	3,674	215,848	110,878
296,574	3,753	215,740	110,870
297,589	3,945	215,531	110,891
298,603	3,982	215,463	110,873
299,618	3,763	215,544	110,747
300,633	4,018	215,245	110,767
301,647	4,207	215,195	110,867
302,662	4,436	215,015	110,929
303,676	4,166	214,819	110,624
304,691	4,153	214,668	110,527
305,706	4,179	214,658	110,531
306,720	4,310	214,418	110,491
307,735	4,108	214,144	110,196
308,749	3,704	214,122	109,886
309,764	4,002	213,859	109,954
310,779	4,151	213,966	110,106
311,793	4,095	213,825	109,983
312,808	3,889	213,639	109,730
313,822	4,132	213,609	109,878
314,837	3,804	213,267	109,459
315,852	3,729	213,137	109,329
316,866	3,688	213,156	109,300
317,881	4,083	212,936	109,459
318,895	4,018	212,696	109,279
319,910	3,819	212,623	109,091
320,925	3,262	212,430	108,587
321,939	3,613	212,284	108,751
322,954	3,783	212,082	108,758
323,968	4,019	212,183	108,968
324,983	4,166	211,940	108,938
325,997	4,178	211,798	108,863
327,012	4,088	211,688	108,733
328,027	3,854	211,467	108,444
329,041	4,120	211,457	108,618
330,056	4,438	211,400	108,803
331,070	3,868	211,151	108,264
332,085	3,726	210,913	108,032
333,100	3,553	210,770	107,828
334,114	3,734	210,722	107,921
335,129	4,120	210,535	108,086
336,143	3,813	210,409	107,796
337,158	3,572	210,333	107,579
338,173	3,874	210,131	107,678
339,187	3,647	210,033	107,459
340,202	3,537	209,830	107,269
341,216	3,498	209,724	107,177
342,231	3,656	209,579	107,204
343,246	3,517	209,459	107,036
344,260	3,572	209,315	106,992
345,275	3,648	209,256	107,005
346,289	3,878	209,092	107,071
347,304	4,160	208,949	107,185
348,319	3,878	208,776	106,890
349,333	3,916	208,633	106,834
350,348	3,891	208,531	106,756
351,362	4,373	208,382	107,004
352,377	4,005	208,552	106,826
353,392	3,956	208,288	106,647
354,406	3,751	208,122	106,411
355,421	194,683	1344,250	1434,303
356,435	155,365	1482,773	1434,424
