DTS Sentinel unit serial number:	SN410029Multiplexer serial number:	ORYXHardware model number:	OX2-SRSoftware version number:	ORYX F/W v4,00 Oryx Data Collector v3.7.2.0data status	okinstallation	B6 Nyhavnadifferential loss correction	single-endedforward channel	channel 2reverse channel	N/Adate	2023/12/09time	18:50:08forward acquisition time	300,00reverse acquisition time	0,00gamma	499,1914k internal	0,3130k external	0,3130temperature offset calibration	1,0000default loss term (dB/km)	0,3820temperature slope calibration	1,0000multiplexer offset coefficient	1,0000multiplexer slope coefficient	1,0000fibre end	0,00T internal ref (°C)	21,06T ext. ref 1 (°C)	4,74T ext. ref 2 (°C)	4,72length (m)	temperature (°C)	Stokes	anti-Stokes-744,400	-200,000	-0,018	-0,079
-743,385	-50,386	-0,339	0,118
-742,371	11,135	0,068	-0,039
-741,356	-114,866	-0,366	0,051
-740,342	-200,000	-0,032	0,107
-739,327	145,039	-0,238	0,237
-738,312	800,000	0,022	-0,064
-737,298	-112,933	-0,195	0,028
-736,283	137,683	0,084	-0,082
-735,269	-139,148	-0,216	0,017
-734,254	-140,382	0,065	-0,005
-733,239	-115,284	-0,421	-0,058
-732,225	-200,000	-0,007	-0,044
-731,210	91,208	0,075	0,063
-730,196	-200,000	-0,010	-0,080
-729,181	-200,000	0,023	0,096
-728,167	-79,620	-0,068	-0,017
-727,152	84,605	-0,106	-0,086
-726,137	-10,936	-0,136	0,067
-725,123	-22,050	0,049	0,022
-724,108	-166,596	-0,217	-0,007
-723,094	-200,000	-0,017	-0,072
-722,079	-60,215	-0,034	0,011
-721,064	228,272	0,071	-0,087
-720,050	-91,876	0,017	0,004
-719,035	-78,534	-0,170	-0,043
-718,021	-172,934	-0,082	0,002
-717,006	-200,000	-0,005	-0,136
-715,991	-200,000	-0,075	-0,258
-714,977	800,000	-0,033	-0,083
-713,962	599,077	0,085	-0,157
-712,948	800,000	-0,026	0,057
-711,933	187,759	-0,093	0,103
-710,918	32,106	0,041	-0,027
-709,904	-200,000	-0,013	0,160
-708,889	729,655	-0,042	-0,085
-707,875	59,529	-0,076	0,056
-706,860	-83,907	0,033	-0,008
-705,845	-200,000	0,011	0,111
-704,831	800,000	0,009	-0,018
-703,816	-37,708	0,113	-0,044
-702,802	800,000	0,012	-0,032
-701,787	-35,873	-0,145	-0,058
-700,772	800,000	0,020	-0,050
-699,758	33,347	-0,124	-0,080
-698,743	430,025	-0,006	-0,010
-697,729	-51,159	-0,024	0,008
-696,714	325,553	-0,062	0,088
-695,699	-200,000	-0,006	-0,115
-694,685	162,282	-0,027	-0,028
-693,670	800,000	0,037	-0,110
-692,656	800,000	-0,009	-0,020
-691,641	-93,811	0,059	0,012
-690,627	6,264	-0,089	0,049
-689,612	-100,170	-0,142	-0,026
-688,597	-155,952	-0,164	0,008
-687,583	139,332	-0,093	0,091
-686,568	425,954	-0,083	-0,133
-685,554	-64,767	-0,153	0,046
-684,539	10,255	-0,027	-0,015
-683,524	424,213	0,095	0,152
-682,510	308,306	-0,089	0,123
-681,495	39,184	-0,075	0,050
-680,481	-21,625	-0,162	0,073
-679,466	800,000	-0,009	0,024
-678,451	-3,314	0,043	0,022
-677,437	38,668	0,082	-0,054
-676,422	2,989	0,036	0,019
-675,408	-77,376	0,052	-0,013
-674,393	-52,612	-0,022	-0,008
-673,378	-200,000	-0,019	-0,146
-672,364	800,000	0,041	-0,101
-671,349	-52,243	-0,141	-0,048
-670,335	-200,000	0,086	-0,000
-669,320	258,395	0,042	-0,054
-668,305	221,074	-0,126	0,150
-667,291	30,822	-0,019	0,012
-666,276	75,166	-0,114	-0,089
-665,262	-77,729	0,055	-0,014
-664,247	406,855	-0,069	-0,108
-663,232	420,735	0,041	0,065
-662,218	-100,347	-0,109	0,020
-661,203	-200,000	-0,005	0,063
-660,189	-34,889	-0,067	0,027
-659,174	-102,416	0,077	0,014
-658,159	-116,118	-0,128	-0,017
-657,145	713,003	0,040	-0,079
-656,130	155,093	-0,083	-0,084
-655,116	-200,000	-0,035	-0,124
-654,101	78,349	-0,068	-0,054
-653,086	367,985	-0,054	0,081
-652,072	-200,000	0,003	-0,109
-651,057	132,593	-0,082	-0,078
-650,043	-123,688	-0,117	-0,014
-649,028	309,707	0,026	-0,036
-648,014	-200,000	-0,025	-0,104
-646,999	66,736	-0,047	0,036
-645,984	800,000	-0,045	-0,123
-644,970	-140,278	-0,037	0,003
-643,955	55,495	-0,074	-0,053
-642,941	-200,000	-0,001	-0,010
-641,926	110,112	-0,057	0,051
-640,911	165,293	-0,052	-0,054
-639,897	-88,183	-0,013	0,003
-638,882	127,976	0,108	0,102
-637,868	-200,000	-0,024	0,101
-636,853	10,666	-0,100	-0,056
-635,838	800,000	-0,040	-0,117
-634,824	4,653	-0,130	-0,070
-633,809	-200,000	0,011	0,085
-632,795	376,421	0,085	0,129
-631,780	132,150	-0,053	0,050
-630,765	52,122	-0,162	-0,114
-629,751	582,026	0,036	0,065
-628,736	12,474	0,056	0,032
-627,722	-200,000	-0,021	-0,071
-626,707	800,000	-0,084	-0,174
-625,692	387,882	-0,006	-0,009
-624,678	204,057	0,061	-0,070
-623,663	616,430	0,014	-0,026
-622,649	252,742	-0,066	-0,083
-621,634	800,000	0,003	-0,011
-620,619	-0,738	0,112	-0,058
-619,605	11,049	-0,029	-0,017
-618,590	-200,000	0,005	-0,025
-617,576	-200,000	0,009	0,111
-616,561	-200,000	-0,033	0,107
-615,546	-200,000	0,038	-0,138
-614,532	42,963	0,054	-0,037
-613,517	-166,802	-0,110	0,003
-612,503	-200,000	0,007	0,092
-611,488	100,568	-0,067	0,058
-610,474	-200,000	0,022	0,146
-609,459	-45,421	0,053	0,019
-608,444	-64,618	-0,181	-0,054
-607,430	382,128	0,104	-0,158
-606,415	-129,894	-0,052	-0,005
-605,401	-6,713	-0,098	-0,049
-604,386	-132,394	-0,055	0,005
-603,371	-200,000	-0,012	-0,053
-602,357	-94,685	0,052	-0,010
-601,342	458,688	-0,054	0,089
-600,328	562,839	0,030	-0,054
-599,313	-104,684	-0,073	0,012
-598,298	51,347	-0,030	-0,021
-597,284	699,854	0,068	0,133
-596,269	-142,374	0,186	-0,013
-595,255	222,905	0,013	-0,015
-594,240	20,998	-0,110	0,066
-593,225	800,000	0,033	-0,088
-592,211	136,286	0,068	-0,065
-591,196	21,917	0,071	-0,043
-590,182	-48,345	-0,009	-0,003
-589,167	331,942	-0,019	-0,027
-588,152	130,538	0,059	0,056
-587,138	-200,000	0,009	-0,048
-586,123	70,335	-0,041	-0,031
-585,109	195,047	0,010	0,011
-584,094	-200,000	-0,001	-0,045
-583,079	-103,403	0,161	0,028
-582,065	292,795	0,018	0,025
-581,050	-102,689	0,107	-0,019
-580,036	-200,000	0,029	0,158
-579,021	60,564	-0,048	0,035
-578,006	-200,000	-0,015	0,106
-576,992	-200,000	-0,013	0,078
-575,977	-200,000	0,009	-0,078
-574,963	104,144	0,056	-0,048
-573,948	-200,000	0,005	0,070
-572,934	153,775	-0,094	-0,095
-571,919	139,417	-0,023	0,023
-570,904	49,817	-0,157	-0,109
-569,890	195,062	-0,053	-0,060
-568,875	304,001	-0,036	-0,050
-567,861	-12,609	-0,039	-0,019
-566,846	800,000	0,029	-0,061
-565,831	150,855	-0,061	-0,061
-564,817	-200,000	-0,002	-0,029
-563,802	800,000	0,049	0,134
-562,788	385,927	-0,074	-0,114
-561,773	336,375	0,036	0,052
-560,758	-200,000	0,009	-0,056
-559,744	-125,956	0,070	-0,008
-558,729	393,534	0,050	0,077
-557,715	800,000	0,033	-0,102
-556,700	197,387	0,054	0,061
-555,685	383,446	0,055	0,084
-554,671	60,917	0,070	0,051
-553,656	-40,062	-0,034	-0,013
-552,642	88,202	0,114	-0,093
-551,627	-99,411	0,137	0,025
-550,612	-94,837	0,097	-0,019
-549,598	800,000	-0,065	-0,175
-548,583	-69,604	-0,073	0,020
-547,569	-122,411	0,097	0,011
-546,554	27,976	-0,057	0,035
-545,539	41,578	-0,114	0,076
-544,525	-200,000	-0,019	0,185
-543,510	-45,903	-0,004	-0,001
-542,496	-92,678	-0,149	-0,030
-541,481	59,540	-0,080	-0,058
-540,466	-153,806	0,047	-0,002
-539,452	392,949	-0,050	0,078
-538,437	-69,420	0,125	-0,035
-537,423	212,152	-0,046	0,054
-536,408	800,000	-0,045	0,108
-535,393	331,341	-0,037	0,052
-534,379	800,000	-0,070	-0,163
-533,364	-200,000	-0,003	-0,011
-532,350	-200,000	0,037	0,220
-531,335	-31,890	-0,044	0,018
-530,321	-7,066	0,048	0,024
-529,306	-47,606	0,064	-0,023
-528,291	-64,793	-0,075	-0,022
-527,277	-200,000	-0,004	-0,099
-526,262	-9,541	0,049	0,024
-525,248	-71,519	0,049	0,013
-524,233	-200,000	0,011	0,089
-523,218	212,952	0,022	-0,026
-522,204	-33,221	-0,068	-0,027
-521,189	800,000	0,022	0,069
-520,175	-74,736	-0,038	0,010
-519,160	-99,916	-0,040	-0,007
-518,145	-55,948	0,082	-0,027
-517,131	421,111	-0,032	0,050
-516,116	-200,000	0,010	0,065
-515,102	-38,900	-0,067	0,026
-514,087	-116,548	0,095	-0,013
-513,072	-48,116	-0,173	0,061
-512,058	-32,027	-0,079	0,032
-511,043	678,277	-0,041	0,078
-510,029	-65,671	-0,145	0,042
-509,014	-84,846	-0,114	-0,026
-507,999	-53,402	0,119	0,040
-506,985	-132,413	0,067	0,006
-505,970	-132,590	-0,135	-0,013
-504,956	19,009	-0,037	0,022
-503,941	-200,000	-0,003	0,062
-502,926	-88,910	0,098	0,021
-501,912	-109,400	-0,089	0,014
-500,897	-2,608	-0,028	0,015
-499,883	-38,088	-0,025	-0,010
-498,868	-200,000	0,016	0,066
-497,853	-200,000	0,013	-0,120
-496,839	800,000	0,011	0,032
-495,824	158,087	-0,076	0,078
-494,810	-13,855	0,039	-0,018
-493,795	-37,325	0,029	0,012
-492,781	645,123	0,038	-0,071
-491,766	322,524	-0,069	-0,098
-490,751	76,113	-0,104	0,081
-489,737	78,418	0,034	-0,026
-488,722	800,000	-0,060	0,130
-487,708	-200,000	-0,019	0,080
-486,693	-112,429	-0,070	0,010
-485,678	668,872	0,075	-0,143
-484,664	-200,000	0,020	-0,169
-483,649	43,040	-0,090	-0,061
-482,635	-38,897	0,032	0,012
-481,620	-200,000	0,002	0,134
-480,605	800,000	0,034	0,101
-479,591	-200,000	0,015	0,139
-478,576	-200,000	0,003	-0,044
-477,562	800,000	-0,036	-0,084
-476,547	76,594	-0,101	0,079
-475,532	143,545	-0,070	0,069
-474,518	53,758	0,048	0,034
-473,503	79,457	0,047	0,037
-472,489	367,235	0,035	-0,052
-471,474	254,537	-0,053	0,067
-470,459	-163,588	-0,020	0,001
-469,445	619,882	-0,081	-0,150
-468,430	-200,000	-0,158	0,000
-467,416	-200,000	0,021	0,185
-466,401	96,286	0,091	0,076
-465,386	179,628	-0,024	0,026
-464,372	148,790	0,038	0,038
-463,357	-74,638	0,029	-0,008
-462,343	-200,000	0,009	0,044
-461,328	-175,872	-0,065	-0,001
-460,313	137,878	0,088	-0,085
-459,299	800,000	0,038	-0,080
-458,284	-200,000	-0,002	0,119
-457,270	-200,000	-0,012	0,075
-456,255	-17,616	0,069	-0,032
-455,241	141,614	-0,070	0,068
-454,226	-200,000	0,033	-0,149
-453,211	-169,054	-0,183	0,005
-452,197	-45,382	-0,098	-0,036
-451,182	-60,293	-0,051	-0,016
-450,168	127,763	0,094	0,088
-449,153	411,602	0,042	0,065
-448,138	-117,151	-0,187	0,025
-447,124	-96,109	0,045	0,009
-446,109	-40,349	-0,055	0,021
-445,095	-151,446	-0,138	0,007
-444,080	56,892	0,092	0,066
-443,065	-55,549	0,093	0,030
-442,051	-66,542	-0,059	-0,017
-441,036	436,607	0,022	0,036
-440,022	-200,000	0,039	-0,151
-439,007	800,000	-0,025	-0,074
-437,992	-188,437	-0,063	0,001
-436,978	117,774	0,064	-0,058
-435,963	117,146	-0,079	0,071
-434,949	-200,000	0,011	-0,050
-433,934	800,000	0,011	-0,033
-432,919	-200,000	0,035	-0,159
-431,905	-200,000	-0,003	-0,090
-430,890	16,194	0,076	0,044
-429,876	-130,621	-0,110	-0,011
-428,861	-21,177	-0,044	0,020
-427,846	26,021	0,043	-0,027
-426,832	111,098	-0,079	0,070
-425,817	-200,000	0,057	-0,208
-424,803	-85,135	-0,098	-0,022
-423,788	-200,000	0,012	-0,080
-422,773	171,043	0,059	0,062
-421,759	-5,724	0,089	0,045
-420,744	-200,000	-0,025	-0,082
-419,730	121,533	-0,053	-0,048
-418,715	348,521	-0,016	0,023
-417,701	-16,256	-0,060	0,028
-416,686	-18,885	-0,033	-0,015
-415,671	97,536	0,102	0,086
-414,657	185,471	0,043	0,047
-413,642	-200,000	0,017	0,067
-412,628	-65,028	0,061	0,018
-411,613	346,175	-0,043	-0,062
-410,598	-200,000	-0,009	0,032
-409,584	-166,024	0,127	0,004
-408,569	271,355	0,059	-0,077
-407,555	262,056	0,067	0,086
-406,540	160,577	-0,049	-0,050
-405,525	800,000	-0,039	-0,088
-404,511	-19,043	-0,082	-0,037
-403,496	-148,305	0,025	-0,001
-402,482	-98,276	0,033	-0,006
-401,467	360,528	0,078	0,114
-400,452	242,877	0,067	0,083
-399,438	-48,037	-0,075	0,026
-398,423	-122,437	0,047	-0,006
-397,409	-44,502	0,031	0,011
-396,394	-45,435	0,082	0,030
-395,379	-200,000	-0,005	0,129
-394,365	-81,124	0,110	0,027
-393,350	358,936	0,026	-0,038
-392,336	60,223	0,045	-0,033
-391,321	32,167	0,084	-0,053
-390,306	280,590	-0,038	-0,050
-389,292	-47,675	-0,046	-0,016
-388,277	244,115	-0,025	-0,031
-387,263	-200,000	-0,004	-0,070
-386,248	800,000	0,024	0,065
-385,233	214,639	-0,036	-0,042
-384,219	-200,000	0,013	-0,046
-383,204	800,000	-0,063	-0,197
-382,190	173,387	-0,040	-0,042
-381,175	498,163	0,063	0,107
-380,160	-200,000	0,007	-0,039
-379,146	1,439	-0,005	0,003
-378,131	-200,000	0,034	0,113
-377,117	165,509	-0,034	-0,035
-376,102	-96,086	0,127	-0,025
-375,088	42,678	-0,096	-0,064
-374,073	83,459	-0,114	-0,091
-373,058	-200,000	-0,027	0,088
-372,044	160,717	-0,025	0,025
-371,029	4,747	-0,049	0,026
-370,015	800,000	0,032	-0,067
-369,000	82,417	-0,108	-0,086
-367,985	-41,551	-0,037	-0,014
-366,971	800,000	-0,042	-0,086
-365,956	360,753	0,039	0,057
-364,942	-34,077	0,067	0,027
-363,927	66,428	0,032	-0,024
-362,912	23,699	0,119	0,071
-361,898	800,000	-0,030	-0,096
-360,883	-65,649	-0,099	-0,029
-359,869	-2,008	-0,106	-0,054
-358,854	70,358	0,046	0,035
-357,839	61,208	0,049	-0,036
-356,825	-1,003	0,102	0,053
-355,810	800,000	-0,031	0,096
-354,796	209,653	-0,021	0,024
-353,781	800,000	-0,058	-0,163
-352,766	-67,658	-0,114	-0,032
-351,752	-200,000	-0,028	-0,109
-350,737	-26,262	0,053	0,023
-349,723	-200,000	-0,011	0,043
-348,708	-30,684	0,072	0,030
-347,693	-200,000	-0,007	-0,126
-346,679	685,363	-0,022	0,042
-345,664	423,674	-0,103	-0,163
-344,650	-200,000	0,001	-0,129
-343,635	329,341	-0,080	0,112
-342,620	-115,842	0,141	0,019
-341,606	42,170	0,044	0,029
-340,591	152,150	0,041	-0,041
-339,577	14,447	-0,118	0,067
-338,562	-32,379	0,056	-0,023
-337,548	12,238	-0,149	-0,084
-336,533	-4,383	0,125	0,063
-335,518	800,000	0,027	0,082
-334,504	-95,844	0,037	-0,007
-333,489	63,034	0,072	0,053
-332,475	108,443	-0,077	-0,067
-331,460	1,187	0,091	-0,047
-330,445	-21,139	-0,139	0,062
-329,431	-23,166	-0,032	0,014
-328,416	580,239	0,048	-0,087
-327,402	-56,595	0,064	-0,021
-326,387	-80,897	-0,173	-0,042
-325,372	-8,462	0,119	0,058
-324,358	550,960	0,044	0,078
-323,343	627,156	-0,031	0,057
-322,329	132,674	-0,041	-0,039
-321,314	320,844	0,085	0,118
-320,299	800,000	0,043	0,098
-319,285	27,872	0,097	0,060
-318,270	250,978	0,076	0,094
-317,256	-74,878	-0,091	0,024
-316,241	-65,985	-0,077	-0,022
-315,226	81,004	0,083	-0,065
-314,212	-200,000	0,003	0,088
-313,197	15,007	0,077	0,044
-312,183	800,000	0,017	-0,045
-311,168	-41,202	-0,096	0,036
-310,153	50,939	-0,094	-0,065
-309,139	250,989	-0,038	-0,047
-308,124	34,327	-0,140	0,089
-307,110	113,042	0,137	0,122
-306,095	-200,000	0,028	0,146
-305,080	-96,992	-0,090	-0,017
-304,066	543,317	0,062	-0,109
-303,051	-165,437	-0,108	-0,003
-302,037	14,559	0,054	-0,031
-301,022	800,000	-0,038	-0,117
-300,008	-200,000	0,026	0,102
-298,993	-200,000	0,015	0,118
-297,978	54,902	0,135	0,095
-296,964	249,318	0,050	-0,062
-295,949	327,019	0,139	-0,195
-294,935	212,367	-0,059	-0,068
-293,920	-6,417	0,103	0,051
-292,905	-77,091	0,045	-0,011
-291,891	-123,779	-0,051	0,006
-290,876	695,672	0,093	0,179
-289,862	-200,000	0,015	-0,099
-288,847	-71,360	0,182	0,049
-287,832	313,500	0,026	-0,035
-286,818	83,208	-0,070	-0,055
-285,803	732,010	-0,047	0,092
-284,789	-89,829	-0,078	0,016
-283,774	-120,799	-0,112	-0,014
-282,759	-80,070	-0,063	-0,015
-281,745	371,022	0,059	-0,087
-280,730	299,438	0,038	-0,052
-279,716	-20,815	0,122	-0,055
-278,701	249,622	-0,012	-0,015
-277,686	306,121	-0,018	0,024
-276,672	-120,893	0,104	0,013
-275,657	189,093	-0,037	-0,041
-274,643	800,000	0,022	-0,061
-273,628	-200,000	-0,011	0,158
-272,613	-200,000	0,004	0,128
-271,599	26,968	0,104	-0,064
-270,584	-35,873	-0,081	0,032
-269,570	-200,000	-0,001	0,066
-268,555	156,548	-0,055	-0,055
-267,540	-174,831	0,055	0,001
-266,526	-200,000	-0,000	-0,045
-265,511	-200,000	-0,015	-0,146
-264,497	-65,354	0,109	-0,032
-263,482	-200,000	-0,004	0,127
-262,467	800,000	0,010	-0,027
-261,453	484,274	0,058	0,097
-260,438	-200,000	-0,006	0,054
-259,424	-22,372	-0,121	-0,053
-258,409	213,460	-0,144	-0,167
-257,395	-182,807	-0,032	-0,000
-256,380	-53,319	0,123	0,041
-255,365	-61,598	-0,064	-0,020
-254,351	-200,000	0,011	-0,078
-253,336	-200,000	-0,003	0,016
-252,322	230,189	-0,014	0,017
-251,307	8,581	-0,054	-0,029
-250,292	580,341	-0,072	0,130
-249,278	-47,434	0,158	-0,056
-248,263	97,759	-0,056	0,047
-247,249	-93,265	0,079	-0,016
-246,234	-200,000	0,063	-0,000
-245,219	-200,000	-0,024	-0,107
-244,205	800,000	-0,017	-0,052
-243,190	135,340	0,105	0,100
-242,176	-200,000	0,013	-0,083
-241,161	-200,000	0,002	-0,095
-240,146	-3,215	0,016	-0,008
-239,132	-168,411	0,052	0,001
-238,117	45,657	-0,104	-0,070
-237,103	800,000	-0,049	-0,139
-236,088	76,273	0,119	-0,092
-235,073	232,017	-0,046	0,056
-234,059	-104,898	0,129	-0,021
-233,044	27,155	0,138	0,084
-232,030	234,858	0,033	0,040
-231,015	-200,000	0,025	-0,092
-230,000	800,000	-0,006	0,013
-228,986	-48,031	0,008	0,003
-227,971	220,464	0,018	0,021
-226,957	128,265	-0,096	-0,089
-225,942	-67,879	0,124	0,035
-224,927	68,844	-0,057	-0,043
-223,913	-57,197	-0,036	-0,012
-222,898	-200,000	0,012	0,049
-221,884	-107,054	-0,083	0,013
-220,869	22,523	0,036	-0,022
-219,855	-200,000	0,017	0,097
-218,840	-106,446	0,068	-0,011
-217,825	-200,000	0,014	0,061
-216,811	-121,881	-0,185	-0,022
-215,796	-32,800	0,057	-0,023
-214,782	293,274	-0,029	0,038
-213,767	-149,627	0,150	0,008
-212,752	278,767	-0,063	0,082
-211,738	-152,037	0,121	-0,006
-210,723	-200,000	0,013	0,071
-209,709	800,000	0,045	-0,101
-208,694	-200,000	-0,019	-0,093
-207,679	-200,000	0,008	0,045
-206,665	-89,683	0,117	0,025
-205,650	-200,000	-0,017	-0,105
-204,636	96,063	0,031	0,026
-203,621	-51,551	-0,020	0,007
-202,606	219,702	0,053	-0,062
-201,592	98,697	-0,109	0,091
-200,577	-54,263	-0,111	0,037
-199,563	127,043	-0,056	0,051
-198,548	410,401	-0,080	0,124
-197,533	104,848	0,122	0,105
-196,519	446,399	-0,036	-0,057
-195,504	-200,000	-0,003	0,064
-194,490	-22,665	0,033	-0,015
-193,475	-200,000	-0,007	-0,031
-192,460	94,129	0,090	0,074
-191,446	314,481	-0,058	0,079
-190,431	-200,000	0,006	0,152
-189,417	-65,185	0,149	-0,043
-188,402	800,000	-0,021	0,059
-187,387	-146,980	-0,055	-0,003
-186,373	-108,635	-0,091	-0,014
-185,358	-136,764	-0,045	-0,004
-184,344	102,855	0,113	-0,096
-183,329	-107,093	0,021	0,003
-182,315	-93,788	0,047	0,009
-181,300	13,215	0,077	0,043
-180,285	800,000	-0,027	-0,062
-179,271	-200,000	-0,012	-0,074
-178,256	-73,348	-0,168	0,044
-177,242	-31,276	-0,056	-0,023
-176,227	169,655	0,040	-0,041
-175,212	-200,000	0,031	0,197
-174,198	-200,000	-0,046	-0,165
-173,183	80,732	0,069	0,054
-172,169	800,000	-0,028	-0,071
-171,154	202,737	0,081	-0,091
-170,139	440,059	0,056	-0,090
-169,125	32,533	0,034	-0,022
-168,110	98,878	0,126	0,106
-167,096	166,015	0,073	-0,075
-166,081	111,156	-0,046	0,040
-165,066	800,000	-0,032	-0,068
-164,052	425,435	0,060	-0,094
-163,037	77,701	-0,066	-0,051
-162,023	-200,000	-0,001	-0,010
-161,008	55,188	0,077	0,054
-159,993	-200,000	0,010	0,066
-158,979	-200,000	-0,006	0,027
-157,964	566,197	0,045	-0,079
-156,950	58,802	0,025	0,018
-155,935	511,692	0,089	0,151
-154,920	-200,000	0,006	0,110
-153,906	800,000	-0,008	-0,023
-152,891	-89,226	-0,059	0,013
-151,877	86,432	0,074	0,059
-150,862	800,000	0,048	-0,125
-149,847	-200,000	-0,003	-0,038
-148,833	800,000	0,033	0,104
-147,818	238,949	0,044	0,054
-146,804	144,487	0,095	0,092
-145,789	-4,883	0,084	0,042
-144,775	-29,779	-0,051	0,021
-143,760	-200,000	0,014	-0,074
-142,745	-93,276	-0,193	0,038
-141,731	21,729	-0,055	0,033
-140,716	-200,000	0,006	-0,070
-139,702	-200,000	-0,010	0,090
-138,687	-180,347	-0,070	0,001
-137,672	62,341	0,095	-0,069
-136,658	-157,192	0,056	-0,002
-135,643	-149,358	0,059	0,003
-134,629	-200,000	0,002	-0,019
-133,614	-71,435	-0,109	0,029
-132,599	-200,000	0,001	0,096
-131,585	-182,028	0,098	0,001
-130,570	23,679	-0,128	-0,076
-129,556	667,140	-0,074	-0,139
-128,541	381,734	0,135	-0,202
-127,526	647,162	0,043	-0,080
-126,512	63,160	-0,144	-0,105
-125,497	-67,472	0,112	-0,032
-124,483	589,183	-0,049	0,087
-123,468	280,538	0,027	0,035
-122,453	246,860	-0,076	-0,094
-121,439	658,537	-0,048	-0,090
-120,424	-19,334	-0,063	0,028
-119,410	-146,046	0,125	0,008
-118,395	-200,000	0,006	-0,051
-117,380	800,000	0,007	-0,018
-116,366	795,256	-0,032	-0,065
-115,351	-114,028	-0,170	0,024
-114,337	-142,427	-0,074	-0,005
-113,322	-200,000	0,010	0,071
-112,307	-200,000	-0,015	-0,056
-111,293	800,000	-0,054	0,154
-110,278	-91,254	0,193	-0,040
-109,264	36,235	0,056	-0,036
-108,249	-42,626	-0,183	0,067
-107,234	-148,567	0,084	0,005
-106,220	800,000	-0,016	-0,045
-105,205	-40,576	0,129	0,048
-104,191	525,171	0,061	0,105
-103,176	470,274	0,029	0,047
-102,162	-77,143	0,157	0,039
-101,147	69,934	-0,097	-0,072
-100,132	-113,085	-0,131	-0,019
-99,118	-200,000	-0,024	-0,167
-98,103	457,566	-0,029	-0,048
-97,089	12,602	0,145	-0,081
-96,074	-0,263	-0,100	-0,051
-95,059	-192,120	-0,099	0,001
-94,045	38,687	0,034	0,022
-93,030	-200,000	-0,032	-0,165
-92,016	556,409	-0,027	-0,048
-91,001	800,000	0,067	0,168
-89,986	29,515	0,044	-0,027
-88,972	32,784	0,096	0,060
-87,957	226,238	-0,038	-0,045
-86,943	672,058	0,062	-0,116
-85,928	264,754	-0,043	0,054
-84,913	-39,107	0,027	-0,010
-83,899	378,515	-0,040	-0,059
-82,884	-120,179	0,099	-0,012
-81,870	800,000	0,021	0,068
-80,855	-200,000	0,003	0,047
-79,840	800,000	-0,042	0,129
-78,826	50,268	-0,044	0,030
-77,811	210,086	-0,074	0,085
-76,797	800,000	0,031	0,070
-75,782	-138,082	-0,059	0,005
-74,767	800,000	-0,077	0,161
-73,753	-200,000	-0,007	0,068
-72,738	-200,000	0,007	-0,120
-71,724	322,022	-0,035	0,049
-70,709	116,711	0,044	0,040
-69,694	465,955	-0,009	-0,014
-68,680	-200,000	0,013	0,055
-67,665	-172,024	0,073	0,002
-66,651	94,657	0,114	0,094
-65,636	-91,751	0,040	0,008
-64,622	-32,152	-0,013	-0,005
-63,607	-200,000	-0,030	-0,240
-62,592	-104,307	0,077	0,013
-61,578	7,348	-0,077	0,041
-60,563	69,225	-0,033	0,025
-59,549	-142,572	-0,084	0,006
-58,534	-83,548	-1,423	-0,327
-57,519	568,509	-0,734	-1,297
-56,505	-200,000	-1,067	-4,581
-55,490	-55,315	0,692	-0,224
-54,476	800,000	5,081	11,742
-53,461	-200,000	14,469	258,538
-52,446	-200,000	696,130	2234,616
-51,432	566,125	1621,929	2860,068
-50,417	117,613	1630,096	1452,287
-49,403	74,686	1283,876	976,957
-48,388	37,449	1022,272	654,906
-47,373	23,205	981,590	582,072
-46,359	22,453	970,749	573,159
-45,344	21,246	966,621	566,762
-44,330	21,219	965,172	565,802
-43,315	21,118	963,633	564,549
-42,300	21,127	962,703	564,012
-41,286	21,142	961,491	563,327
-40,271	21,056	960,536	562,468
-39,257	21,060	959,783	562,016
-38,242	21,094	958,721	561,483
-37,227	21,099	957,901	560,995
-36,213	21,015	957,141	560,257
-35,198	21,095	955,925	559,782
-34,184	21,076	955,455	559,423
-33,169	21,029	954,495	558,687
-32,154	21,086	953,700	558,385
-31,140	21,164	952,711	558,031
-30,125	21,120	951,994	557,449
-29,111	21,092	951,404	556,991
-28,096	21,139	950,437	556,553
-27,082	21,082	949,821	555,988
-26,067	21,093	949,066	555,560
-25,052	21,090	948,300	555,081
-24,038	21,146	947,734	554,904
-23,023	21,053	947,188	554,266
-22,009	21,152	946,302	554,041
-20,994	21,112	945,777	553,584
-19,979	21,131	945,050	553,198
-18,965	21,057	944,658	552,711
-17,950	21,141	944,043	552,596
-16,936	21,013	943,344	551,758
-15,921	21,061	942,457	551,370
-14,906	20,989	941,849	550,763
-13,892	20,994	941,331	550,455
-12,877	20,963	940,666	549,945
-11,863	20,931	940,142	549,516
-10,848	21,012	939,509	549,382
-9,833	21,054	939,297	549,367
-8,819	21,027	938,523	548,807
-7,804	21,006	937,857	548,332
-6,790	21,013	937,237	547,967
-5,775	20,982	936,808	547,599
-4,760	21,026	935,840	547,150
-3,746	20,938	935,537	546,672
-2,731	20,809	934,716	545,765
-1,717	20,805	933,870	545,235
-0,702	20,782	933,263	544,787
0,313	20,652	932,632	544,833
1,327	23,657	930,846	553,175
2,342	33,080	793,862	496,784
3,356	30,604	450,634	278,251
4,371	0,028	294,479	151,266
5,386	-4,098	275,445	137,567
6,400	-5,498	269,901	133,485
7,415	-6,017	267,641	131,876
8,429	-5,646	266,331	131,560
9,444	-5,542	265,444	131,206
10,459	-5,646	264,991	130,875
11,473	-5,672	264,176	130,436
12,488	-5,762	263,795	130,155
13,502	-5,923	263,306	129,756
14,517	-5,916	262,748	129,476
15,531	-5,816	262,432	129,399
16,546	-5,668	261,890	129,254
17,561	-5,678	261,648	129,114
18,575	-5,618	261,420	129,044
19,590	-5,623	260,966	128,804
20,604	-5,822	260,915	128,589
21,619	-5,953	260,464	128,237
22,634	-5,836	260,153	128,178
23,648	-5,750	259,620	127,980
24,663	-5,795	259,410	127,825
25,677	-5,789	259,250	127,740
26,692	-5,834	258,969	127,551
27,707	-5,708	258,827	127,581
28,721	-5,731	258,354	127,316
29,736	-5,798	258,136	127,138
30,750	-5,865	257,949	126,975
31,765	-5,825	257,671	126,862
32,780	-5,800	257,489	126,784
33,794	-5,936	257,391	126,604
34,809	-5,711	256,919	126,559
35,823	-5,657	256,765	126,520
36,838	-5,921	256,530	126,160
37,853	-5,900	256,227	126,018
38,867	-5,934	255,998	125,864
39,882	-5,774	255,789	125,891
40,896	-5,848	255,492	125,668
41,911	-5,912	255,500	125,605
42,926	-5,979	255,156	125,366
43,940	-5,927	254,822	125,236
44,955	-6,091	254,874	125,107
45,969	-6,149	254,549	124,886
46,984	-6,101	254,172	124,731
47,999	-6,127	254,005	124,615
49,013	-6,555	253,832	124,146
50,028	-6,335	253,494	124,162
51,042	-6,550	253,288	123,863
52,057	-6,539	252,945	123,693
53,071	-6,463	252,669	123,613
54,086	-6,456	252,710	123,628
55,101	-6,348	252,447	123,583
56,115	-6,125	252,141	123,614
57,130	-5,978	252,311	123,813
58,144	-5,597	252,009	123,984
59,159	-5,700	251,831	123,796
60,174	-5,777	251,566	123,589
61,188	-5,743	251,387	123,519
62,203	-5,688	251,365	123,545
63,217	-5,722	251,021	123,335
64,232	-5,749	250,823	123,204
65,247	-5,842	250,653	123,029
66,261	-5,827	250,343	122,879
67,276	-5,627	250,075	122,908
68,290	-6,058	249,889	122,437
69,305	-6,232	249,594	122,132
70,320	-6,136	249,433	122,124
71,334	-5,777	249,189	122,301
72,349	-5,698	249,225	122,375
73,363	-5,663	249,004	122,285
74,378	-5,608	248,677	122,161
75,393	-5,698	248,396	121,935
76,407	-5,560	248,344	122,017
77,422	-5,885	248,242	121,679
78,436	-5,881	248,007	121,557
79,451	-5,745	247,767	121,543
80,466	-5,864	247,399	121,251
81,480	-5,951	247,221	121,079
82,495	-5,999	247,111	120,974
83,509	-5,965	246,829	120,854
84,524	-5,974	246,574	120,711
85,539	-6,174	246,416	120,454
86,553	-6,022	246,272	120,501
87,568	-6,164	246,225	120,348
88,582	-5,959	246,013	120,406
89,597	-6,082	245,758	120,167
90,611	-5,723	245,518	120,341
91,626	-5,916	245,501	120,159
92,641	-5,874	245,185	120,030
93,655	-5,975	245,015	119,850
94,670	-6,046	244,887	119,718
95,684	-5,970	244,689	119,674
96,699	-5,957	244,483	119,574
97,714	-5,782	244,138	119,540
98,728	-6,249	244,156	119,148
99,743	-6,196	243,896	119,055
100,757	-6,231	243,660	118,900
101,772	-6,083	243,491	118,930
102,787	-5,877	243,264	118,980
103,801	-6,043	243,095	118,749
104,816	-5,933	243,029	118,798
105,830	-5,835	242,858	118,784
106,845	-5,852	242,586	118,627
107,860	-5,835	242,524	118,600
108,874	-5,893	242,384	118,473
109,889	-5,971	242,011	118,216
110,903	-5,919	241,910	118,199
111,918	-5,899	241,617	118,061
112,933	-5,632	241,431	118,180
113,947	-5,969	241,427	117,889
114,962	-5,843	241,366	117,953
115,976	-5,950	241,089	117,719
116,991	-5,878	241,012	117,731
118,006	-5,843	240,673	117,583
119,020	-5,831	240,625	117,560
120,035	-5,653	240,373	117,571
121,049	-5,740	240,396	117,501
122,064	-5,726	240,140	117,377
123,079	-5,852	239,791	117,093
124,093	-6,025	239,710	116,902
125,108	-6,129	239,516	116,711
126,122	-6,247	239,241	116,470
127,137	-6,277	239,122	116,378
128,151	-6,236	238,857	116,272
129,166	-6,230	238,868	116,271
130,181	-6,232	238,564	116,111
131,195	-6,260	238,387	115,992
132,210	-6,138	238,219	115,999
133,224	-5,987	238,182	116,093
134,239	-5,898	237,975	116,055
135,254	-5,817	237,766	116,008
136,268	-6,035	237,638	115,759
137,283	-6,251	237,315	115,417
138,297	-6,303	237,049	115,234
139,312	-6,330	236,974	115,166
140,327	-6,028	236,799	115,314
141,341	-5,530	236,808	115,710
142,356	-5,507	236,674	115,653
143,370	-5,625	236,540	115,482
144,385	-5,430	236,280	115,502
145,400	-5,622	236,041	115,221
146,414	-5,520	236,033	115,289
147,429	-5,499	235,638	115,102
148,443	-5,566	235,442	114,942
149,458	-5,732	235,460	114,808
150,473	-5,620	235,287	114,803
151,487	-5,664	234,958	114,596
152,502	-5,676	235,050	114,621
153,516	-5,781	234,891	114,450
154,531	-5,546	234,615	114,493
155,546	-5,574	234,408	114,360
156,560	-5,758	234,419	114,208
157,575	-5,821	234,079	113,982
158,589	-5,608	233,886	114,048
159,604	-5,501	233,773	114,067
160,619	-5,481	233,512	113,946
161,633	-5,357	233,464	114,010
162,648	-5,480	233,343	113,843
163,662	-5,390	233,212	113,841
164,677	-5,516	232,965	113,610
165,692	-5,599	232,887	113,496
166,706	-5,150	232,622	113,712
167,721	-5,550	232,617	113,383
168,735	-5,700	232,498	113,197
169,750	-5,618	232,297	113,153
170,764	-5,651	232,063	113,004
171,779	-5,582	231,999	113,016
172,794	-5,671	231,902	112,889
173,808	-5,688	231,539	112,689
174,823	-5,982	231,262	112,313
175,837	-6,103	231,092	112,126
176,852	-5,961	231,143	112,251
177,867	-5,637	231,055	112,453
178,881	-5,436	230,943	112,546
179,896	-5,525	230,771	112,382
180,910	-5,393	230,372	112,282
181,925	-5,500	230,445	112,223
182,940	-5,582	230,248	112,053
183,954	-5,442	230,158	112,109
184,969	-5,432	230,074	112,065
185,983	-5,408	229,710	111,897
186,998	-5,246	229,710	112,013
188,013	-5,227	229,427	111,880
189,027	-5,241	229,293	111,794
190,042	-5,427	229,188	111,588
191,056	-5,284	228,996	111,596
192,071	-5,480	228,936	111,405
193,086	-5,408	228,723	111,346
194,100	-5,438	228,472	111,191
195,115	-5,508	228,091	110,942
196,129	-6,080	228,047	110,469
197,144	-3,213	229,029	113,158
198,159	1,314	230,339	117,320
199,173	3,780	230,735	119,430
200,188	3,868	230,752	119,497
201,202	3,905	230,753	119,515
202,217	4,285	230,389	119,611
203,232	4,167	230,338	119,482
204,246	4,324	230,262	119,554
205,261	4,141	230,223	119,381
206,275	4,635	229,907	119,589
207,290	4,702	229,915	119,634
208,304	4,522	229,602	119,322
209,319	4,359	229,533	119,150
210,334	4,432	229,295	119,071
211,348	4,176	229,055	118,739
212,363	3,896	228,763	118,362
213,377	3,415	228,637	117,916
214,392	3,532	228,460	117,904
215,407	3,684	228,244	117,898
216,421	3,834	228,199	117,979
217,436	3,509	228,153	117,696
218,450	3,510	227,748	117,477
219,465	3,522	227,474	117,334
220,480	3,617	227,431	117,375
221,494	3,502	227,342	117,230
222,509	3,799	227,258	117,404
223,523	3,729	227,148	117,283
224,538	3,453	226,922	116,945
225,553	3,816	226,766	117,131
226,567	3,632	226,795	116,995
227,582	3,839	226,647	117,066
228,596	4,014	226,498	117,112
229,611	3,645	226,283	116,710
230,626	3,490	226,163	116,520
231,640	3,440	225,889	116,330
232,655	3,784	225,844	116,558
233,669	4,508	225,832	117,090
234,684	4,597	225,530	116,990
235,699	4,021	225,628	116,595
236,713	3,850	225,359	116,316
237,728	3,684	225,080	116,036
238,742	3,703	224,822	115,907
239,757	3,637	224,775	115,822
240,772	3,438	224,528	115,535
241,786	3,733	224,533	115,750
242,801	3,821	224,326	115,698
243,815	4,368	224,106	115,986
244,830	4,023	224,212	115,771
245,844	3,756	223,967	115,434
246,859	3,742	223,706	115,278
247,874	3,772	223,659	115,267
248,888	4,012	223,541	115,376
249,903	3,743	223,296	115,037
250,917	3,709	223,092	114,896
251,932	3,685	223,035	114,839
252,947	3,614	222,849	114,680
253,961	3,717	222,622	114,630
254,976	3,711	222,555	114,580
255,990	3,900	222,439	114,652
257,005	3,819	222,368	114,544
258,020	3,974	222,328	114,629
259,034	4,154	222,133	114,652
260,049	3,977	222,007	114,445
261,063	4,017	221,646	114,279
262,078	4,048	221,695	114,317
263,093	3,984	221,550	114,184
264,107	4,076	221,282	114,104
265,122	4,080	221,187	114,048
266,136	4,435	221,141	114,277
267,151	4,251	220,859	113,985
268,166	3,766	220,795	113,583
269,180	3,471	220,418	113,162
270,195	3,487	220,389	113,148
271,209	3,644	220,181	113,148
272,224	3,793	220,189	113,251
273,239	3,845	220,009	113,187
274,253	3,746	219,741	112,966
275,268	3,418	219,564	112,624
276,282	3,417	219,536	112,599
277,297	3,522	219,271	112,530
278,312	3,561	219,258	112,542
279,326	3,785	219,066	112,597
280,341	3,736	218,969	112,501
281,355	3,936	218,885	112,595
282,370	3,775	218,755	112,400
283,384	3,409	218,612	112,048
284,399	3,329	218,359	111,851
285,414	3,446	218,282	111,887
286,428	3,595	218,155	111,921
287,443	3,714	218,126	111,982
288,457	3,938	217,976	112,058
289,472	3,738	217,664	111,742
290,487	3,404	217,593	111,453
291,501	3,101	217,321	111,084
292,516	3,263	217,245	111,152
293,530	3,337	217,049	111,096
294,545	3,156	216,994	110,927
295,560	3,516	216,934	111,147
296,574	3,705	216,882	111,247
297,589	3,683	216,602	111,078
298,603	3,861	216,581	111,186
299,618	3,708	216,336	110,940
300,633	3,823	216,222	110,955
301,647	3,642	216,072	110,738
302,662	3,659	216,020	110,713
303,676	3,931	215,910	110,843
304,691	4,077	215,786	110,874
305,706	4,125	215,606	110,806
306,720	4,098	215,501	110,723
307,735	3,526	215,372	110,236
308,749	3,332	215,180	109,988
309,764	3,872	214,900	110,223
310,779	4,061	214,936	110,367
311,793	3,891	214,672	110,099
312,808	3,890	214,644	110,075
313,822	3,868	214,609	110,031
314,837	3,549	214,163	109,566
315,852	3,488	214,150	109,505
316,866	3,681	214,034	109,574
317,881	4,079	213,960	109,810
318,895	3,939	213,664	109,549
319,910	3,828	213,520	109,386
320,925	3,563	213,310	109,080
321,939	3,128	213,256	108,733
322,954	3,321	213,115	108,789
323,968	3,648	213,091	109,000
324,983	3,618	213,019	108,932
325,997	4,006	212,870	109,121
327,012	3,753	212,806	108,899
328,027	3,986	212,681	108,990
329,041	4,055	212,582	108,978
330,056	4,119	212,440	108,941
331,070	3,537	212,301	108,449
332,085	3,206	211,995	108,050
333,100	3,418	211,910	108,146
334,114	3,832	211,808	108,376
335,129	3,828	211,744	108,331
336,143	3,814	211,466	108,169
337,158	3,562	211,436	107,967
338,173	3,605	211,186	107,860
339,187	3,617	211,071	107,801
340,202	3,445	210,816	107,540
341,216	3,242	210,699	107,328
342,231	3,454	210,564	107,398
343,246	3,482	210,395	107,322
344,260	3,557	210,344	107,339
345,275	3,709	210,239	107,382
346,289	3,620	210,116	107,247
347,304	3,804	210,044	107,329
348,319	3,874	209,624	107,154
349,333	3,773	209,684	107,105
350,348	3,618	209,563	106,925
351,362	3,810	209,491	107,013
352,377	3,850	209,466	107,019
353,392	3,643	209,257	106,758
354,406	3,425	209,224	106,581
355,421	194,210	1344,059	1430,313
356,435	155,001	1482,394	1430,401
