DTS Sentinel unit serial number:	SN410029Multiplexer serial number:	ORYXHardware model number:	OX2-SRSoftware version number:	ORYX F/W v4,00 Oryx Data Collector v3.7.2.0data status	okinstallation	B6 Nyhavnadifferential loss correction	single-endedforward channel	channel 2reverse channel	N/Adate	2023/12/11time	02:00:08forward acquisition time	300,00reverse acquisition time	0,00gamma	499,1914k internal	0,3122k external	0,3122temperature offset calibration	1,0000default loss term (dB/km)	0,3820temperature slope calibration	1,0000multiplexer offset coefficient	1,0000multiplexer slope coefficient	1,0000fibre end	0,00T internal ref (°C)	21,94T ext. ref 1 (°C)	4,98T ext. ref 2 (°C)	5,03length (m)	temperature (°C)	Stokes	anti-Stokes-744,400	95,243	0,070	0,059
-743,385	-138,808	-0,184	0,015
-742,371	-182,119	0,143	0,002
-741,356	26,134	-0,256	0,159
-740,342	-18,044	-0,010	0,005
-739,327	-113,514	-0,230	0,033
-738,312	-126,844	0,043	0,005
-737,298	-147,921	-0,164	0,010
-736,283	707,919	0,028	0,055
-735,269	26,254	-0,224	0,139
-734,254	526,884	0,041	-0,073
-733,239	49,759	-0,285	-0,200
-732,225	-104,593	0,110	-0,019
-731,210	24,536	0,051	0,031
-730,196	-200,000	0,030	0,157
-729,181	-200,000	-0,009	0,041
-728,167	448,561	-0,019	0,031
-727,152	-83,972	0,066	0,016
-726,137	-58,162	-0,041	-0,013
-725,123	-200,000	0,009	0,036
-724,108	-9,160	-0,092	-0,046
-723,094	164,692	-0,119	-0,125
-722,079	71,923	-0,211	-0,164
-721,064	-65,241	0,120	-0,036
-720,050	30,509	-0,085	-0,054
-719,035	385,224	-0,073	-0,112
-718,021	211,145	-0,091	-0,107
-717,006	800,000	0,034	0,107
-715,991	53,567	-0,098	-0,070
-714,977	275,756	0,029	-0,038
-713,962	800,000	0,049	-0,120
-712,948	26,280	0,006	0,004
-711,933	-200,000	0,001	0,099
-710,918	66,780	-0,077	-0,059
-709,904	-59,199	-0,056	0,018
-708,889	-91,485	-0,093	-0,020
-707,875	183,185	-0,043	-0,047
-706,860	306,413	0,096	-0,133
-705,845	-3,322	0,069	-0,036
-704,831	-200,000	-0,032	0,143
-703,816	-82,261	-0,043	0,010
-702,802	123,123	-0,045	0,042
-701,787	800,000	0,030	-0,086
-700,772	110,900	0,107	-0,095
-699,758	-31,391	-0,091	0,038
-698,743	-141,774	0,135	0,010
-697,729	49,063	-0,075	0,052
-696,714	282,054	-0,067	0,089
-695,699	-77,347	0,021	-0,005
-694,685	-152,551	-0,084	0,004
-693,670	-16,294	-0,067	0,031
-692,656	426,476	-0,083	-0,133
-691,641	-105,953	0,137	0,023
-690,627	71,353	0,092	0,071
-689,612	89,635	-0,050	0,041
-688,597	-89,657	-0,145	-0,031
-687,583	-89,813	0,074	-0,016
-686,568	-200,000	0,015	0,075
-685,554	89,305	-0,123	-0,102
-684,539	12,940	-0,066	-0,038
-683,524	800,000	0,042	0,092
-682,510	458,240	-0,061	0,102
-681,495	24,489	0,020	0,012
-680,481	-109,892	-0,064	0,010
-679,466	-94,010	-0,151	-0,031
-678,451	76,387	0,069	-0,055
-677,437	-200,000	-0,011	0,065
-676,422	800,000	0,091	0,190
-675,408	595,252	0,041	0,077
-674,393	-200,000	-0,011	0,040
-673,378	800,000	-0,024	-0,075
-672,364	-200,000	0,022	0,076
-671,349	-144,760	-0,125	0,008
-670,335	-22,184	0,071	0,032
-669,320	-26,739	-0,110	-0,048
-668,305	-102,769	0,094	0,017
-667,291	151,826	0,105	-0,106
-666,276	800,000	0,051	-0,112
-665,262	208,152	-0,020	-0,023
-664,247	-125,846	-0,118	0,013
-663,232	481,931	0,033	-0,055
-662,218	-18,743	0,042	0,019
-661,203	800,000	0,034	-0,085
-660,189	-200,000	-0,018	-0,064
-659,174	-39,484	-0,143	0,055
-658,159	177,966	-0,088	-0,095
-657,145	121,922	-0,077	-0,071
-656,130	-130,122	0,107	0,011
-655,116	-200,000	-0,006	0,047
-654,101	-5,257	0,017	0,009
-653,086	-200,000	0,011	-0,063
-652,072	153,842	-0,131	-0,133
-651,057	-114,879	-0,100	-0,014
-650,043	-200,000	-0,018	-0,103
-649,028	1,038	-0,051	0,027
-648,014	-200,000	-0,003	0,015
-646,999	148,053	-0,090	-0,090
-645,984	-173,305	0,141	0,003
-644,970	-200,000	0,005	-0,078
-643,955	22,472	-0,045	-0,028
-642,941	8,355	-0,119	0,067
-641,926	-200,000	-0,037	-0,128
-640,911	64,834	-0,012	-0,009
-639,897	800,000	-0,035	0,077
-638,882	-161,098	-0,090	-0,003
-637,868	91,506	-0,068	-0,057
-636,853	800,000	-0,062	-0,150
-635,838	209,768	-0,049	-0,058
-634,824	800,000	0,052	-0,120
-633,809	-200,000	0,014	-0,064
-632,795	-200,000	-0,014	0,053
-631,780	785,346	-0,024	-0,049
-630,765	60,198	0,045	-0,033
-629,751	-200,000	-0,009	0,072
-628,736	-116,896	-0,133	-0,018
-627,722	94,190	-0,040	-0,034
-626,707	48,624	0,094	0,065
-625,692	124,235	0,058	0,054
-624,678	274,460	0,106	-0,140
-623,663	435,204	-0,002	-0,004
-622,649	58,857	-0,040	-0,029
-621,634	381,956	-0,128	-0,195
-620,619	-200,000	-0,007	-0,088
-619,605	79,889	-0,023	-0,019
-618,590	-200,000	0,041	0,000
-617,576	-83,573	0,138	0,032
-616,561	117,008	0,033	0,030
-615,546	60,903	-0,032	0,024
-614,532	-17,994	0,026	-0,012
-613,517	-200,000	-0,012	-0,042
-612,503	800,000	-0,032	0,104
-611,488	800,000	-0,052	0,160
-610,474	-200,000	0,005	0,084
-609,459	-108,537	-0,118	-0,019
-608,444	-121,333	-0,042	-0,005
-607,430	-24,727	-0,048	-0,021
-606,415	-6,008	-0,091	-0,046
-605,401	228,314	-0,036	0,043
-604,386	-200,000	-0,010	0,072
-603,371	-76,308	0,113	-0,029
-602,357	-1,576	0,080	0,042
-601,342	800,000	0,036	0,095
-600,328	-33,400	-0,099	0,040
-599,313	554,763	-0,062	-0,111
-598,298	-200,000	0,004	0,080
-597,284	800,000	0,014	0,033
-596,269	800,000	0,028	-0,091
-595,255	800,000	-0,036	-0,106
-594,240	-127,710	-0,102	0,011
-593,225	800,000	0,055	-0,125
-592,211	-200,000	-0,191	-0,000
-591,196	630,577	-0,027	0,051
-590,182	-200,000	0,032	0,155
-589,167	-86,451	0,091	0,020
-588,152	-200,000	-0,024	0,143
-587,138	332,982	0,073	-0,105
-586,123	-200,000	-0,024	-0,080
-585,109	258,033	-0,008	-0,010
-584,094	-200,000	0,005	-0,070
-583,079	-200,000	0,011	-0,039
-582,065	617,138	0,039	0,074
-581,050	193,468	0,020	-0,022
-580,036	800,000	-0,068	-0,161
-579,021	800,000	0,045	-0,113
-578,006	87,641	-0,086	-0,071
-576,992	-200,000	-0,007	0,073
-575,977	-200,000	0,006	-0,109
-574,963	13,351	0,102	0,059
-573,948	-96,097	0,139	-0,027
-572,934	-22,336	0,093	0,041
-571,919	-200,000	0,019	-0,111
-570,904	22,162	0,138	-0,083
-569,890	23,249	-0,089	-0,054
-568,875	-200,000	-0,001	0,089
-567,861	362,893	-0,063	0,094
-566,846	-129,866	-0,015	-0,002
-565,831	56,326	-0,088	0,063
-564,817	10,710	0,094	0,053
-563,802	-48,030	0,076	0,027
-562,788	-26,427	-0,050	-0,022
-561,773	116,607	0,055	-0,050
-560,758	-18,650	0,053	-0,024
-559,744	482,888	-0,077	0,131
-558,729	161,199	0,052	-0,054
-557,715	-200,000	-0,039	-0,134
-556,700	264,732	-0,063	-0,081
-555,685	-200,000	0,003	-0,023
-554,671	1,412	-0,045	0,024
-553,656	-57,634	0,068	-0,022
-552,642	77,635	0,145	0,114
-551,627	-153,183	0,150	-0,008
-550,612	-200,000	0,002	0,014
-549,598	95,197	-0,099	-0,083
-548,583	12,575	0,080	-0,045
-547,569	-112,293	0,071	0,010
-546,554	-51,485	0,058	-0,020
-545,539	-200,000	-0,014	0,158
-544,525	6,133	0,024	-0,013
-543,510	68,649	-0,037	0,028
-542,496	39,456	0,030	0,020
-541,481	800,000	-0,061	-0,156
-540,466	161,915	-0,037	0,039
-539,452	-200,000	0,006	0,047
-538,437	-104,348	-0,071	0,012
-537,423	743,372	0,033	0,066
-536,408	800,000	-0,032	-0,086
-535,393	214,495	-0,100	-0,118
-534,379	-14,426	-0,012	-0,006
-533,364	47,477	0,043	0,030
-532,350	630,013	0,037	0,070
-531,335	95,046	-0,126	0,106
-530,321	786,312	0,071	0,145
-529,306	107,806	-0,076	0,067
-528,291	-200,000	-0,039	-0,158
-527,277	-5,341	-0,071	-0,036
-526,262	-200,000	0,015	-0,140
-525,248	40,489	0,068	-0,045
-524,233	511,717	0,015	0,025
-523,218	178,809	0,108	0,117
-522,204	-200,000	0,005	0,102
-521,189	631,856	0,070	-0,131
-520,175	-200,000	0,014	-0,098
-519,160	60,735	0,029	0,021
-518,145	332,256	-0,051	0,073
-517,131	-102,326	0,122	0,021
-516,116	210,361	0,060	0,070
-515,102	800,000	-0,081	0,225
-514,087	-37,030	-0,085	0,034
-513,072	800,000	-0,025	-0,078
-512,058	-148,068	-0,075	-0,005
-511,043	19,392	0,095	-0,056
-510,029	-200,000	0,035	0,157
-509,014	-200,000	-0,036	0,133
-507,999	-39,534	0,115	0,044
-506,985	800,000	-0,032	-0,089
-505,970	154,399	0,038	-0,039
-504,956	396,450	0,057	0,088
-503,941	180,643	0,069	0,075
-502,926	424,423	0,046	-0,074
-501,912	252,002	0,038	0,048
-500,897	-200,000	0,017	0,062
-499,883	356,849	0,032	0,047
-498,868	550,330	-0,078	-0,139
-497,853	800,000	-0,057	-0,160
-496,839	-25,949	-0,010	0,004
-495,824	-200,000	0,019	-0,068
-494,810	-108,853	0,034	-0,005
-493,795	-155,910	-0,039	0,002
-492,781	-35,711	0,148	0,059
-491,766	37,491	-0,101	-0,066
-490,751	-181,819	-0,124	-0,002
-489,737	-200,000	0,032	-0,169
-488,722	384,909	0,065	-0,099
-487,708	-200,000	0,054	0,182
-486,693	136,241	-0,034	0,032
-485,678	542,216	0,024	-0,043
-484,664	774,551	0,033	-0,067
-483,649	-200,000	0,000	-0,039
-482,635	800,000	0,021	0,047
-481,620	-200,000	0,005	0,120
-480,605	-200,000	-0,023	0,100
-479,591	-127,382	-0,087	0,009
-478,576	-63,585	0,039	0,012
-477,562	67,496	-0,046	-0,035
-476,547	-148,905	-0,055	-0,003
-475,532	-80,576	-0,016	0,004
-474,518	144,806	-0,104	-0,103
-473,503	-20,273	0,085	0,039
-472,489	-38,320	0,094	-0,037
-471,474	27,653	-0,032	0,020
-470,459	-112,138	0,087	0,013
-469,445	-82,426	-0,107	-0,025
-468,430	800,000	0,019	0,055
-467,416	-200,000	-0,002	-0,029
-466,401	376,750	0,027	0,041
-465,386	-200,000	0,014	-0,049
-464,372	39,206	0,103	-0,068
-463,357	377,902	-0,039	-0,059
-462,343	-200,000	-0,007	-0,182
-461,328	22,916	-0,175	-0,106
-460,313	115,070	0,143	0,128
-459,299	-200,000	-0,028	0,143
-458,284	587,263	-0,102	-0,186
-457,270	-200,000	0,016	0,051
-456,255	800,000	0,040	-0,113
-455,241	393,947	-0,024	-0,037
-454,226	-8,947	-0,088	-0,043
-453,211	800,000	-0,055	-0,119
-452,197	635,640	0,047	-0,089
-451,182	-200,000	0,018	0,098
-450,168	121,990	-0,031	-0,028
-449,153	50,811	-0,077	-0,054
-448,138	800,000	0,001	-0,004
-447,124	15,992	-0,030	0,017
-446,109	583,248	-0,048	-0,087
-445,095	191,459	-0,089	-0,099
-444,080	464,572	0,031	0,052
-443,065	50,615	0,095	0,066
-442,051	-7,773	-0,092	-0,046
-441,036	127,382	-0,069	-0,064
-440,022	155,502	0,098	0,100
-439,007	281,628	-0,048	-0,063
-437,992	19,570	-0,093	0,055
-436,978	-8,737	0,023	0,011
-435,963	-200,000	-0,000	-0,047
-434,949	-200,000	-0,033	-0,139
-433,934	725,484	0,035	-0,069
-432,919	-200,000	-0,009	-0,073
-431,905	-200,000	-0,035	-0,148
-430,890	-200,000	0,035	-0,166
-429,876	-200,000	0,015	-0,070
-428,861	67,099	0,054	0,040
-427,846	133,103	0,023	-0,022
-426,832	88,541	0,065	0,053
-425,817	495,617	-0,050	0,084
-424,803	-93,233	-0,159	-0,032
-423,788	-200,000	0,003	-0,087
-422,773	-200,000	-0,004	-0,045
-421,759	48,775	-0,063	-0,044
-420,744	-200,000	0,049	-0,167
-419,730	-140,763	-0,074	0,006
-418,715	800,000	-0,066	-0,150
-417,701	137,452	-0,056	-0,054
-416,686	800,000	0,043	0,089
-415,671	800,000	-0,014	0,029
-414,657	103,434	0,031	0,027
-413,642	-200,000	0,005	0,127
-412,628	800,000	0,023	0,071
-411,613	-40,244	-0,078	-0,030
-410,598	-200,000	0,025	-0,131
-409,584	-81,492	0,116	0,028
-408,569	386,769	0,040	-0,061
-407,555	-56,515	0,092	0,030
-406,540	781,410	-0,094	0,190
-405,525	332,111	0,048	-0,068
-404,511	211,334	-0,056	-0,065
-403,496	110,198	-0,140	-0,123
-402,482	101,784	-0,027	0,023
-401,467	800,000	0,047	0,136
-400,452	-9,043	-0,031	0,015
-399,438	76,986	0,097	0,075
-398,423	-200,000	-0,022	0,139
-397,409	-138,216	0,017	-0,001
-396,394	198,462	0,047	0,053
-395,379	34,072	0,099	0,063
-394,365	323,140	-0,099	-0,139
-393,350	-200,000	0,019	-0,143
-392,336	204,607	0,030	0,035
-391,321	407,458	0,018	-0,028
-390,306	-200,000	0,016	-0,102
-389,292	551,387	0,073	-0,130
-388,277	800,000	-0,086	0,204
-387,263	-200,000	-0,019	-0,165
-386,248	764,989	-0,025	0,051
-385,233	368,835	0,102	0,152
-384,219	-57,653	-0,168	0,054
-383,204	33,247	0,133	-0,085
-382,190	800,000	-0,040	-0,092
-381,175	-64,339	-0,159	0,047
-380,160	111,037	0,050	0,044
-379,146	29,914	-0,077	0,048
-378,131	275,743	0,045	-0,059
-377,117	145,932	-0,069	-0,068
-376,102	508,297	0,070	0,119
-375,088	-200,000	-0,020	-0,134
-374,073	-112,667	-0,119	0,017
-373,058	-200,000	0,032	0,148
-372,044	-191,818	-0,136	0,001
-371,029	-55,958	0,110	0,036
-370,015	-121,073	0,164	0,020
-369,000	800,000	-0,038	-0,079
-367,985	1,152	0,158	-0,083
-366,971	500,837	-0,022	0,038
-365,956	-133,703	-0,080	0,007
-364,942	-26,512	-0,027	-0,012
-363,927	122,777	-0,024	0,022
-362,912	800,000	0,013	-0,034
-361,898	800,000	-0,026	-0,077
-360,883	322,493	-0,065	-0,091
-359,869	-143,465	0,026	0,002
-358,854	62,622	0,010	-0,008
-357,839	-177,853	0,070	-0,001
-356,825	-139,331	0,013	0,001
-355,810	249,096	0,067	0,083
-354,796	-200,000	0,025	0,105
-353,781	800,000	-0,014	0,029
-352,766	-200,000	0,009	-0,079
-351,752	-200,000	0,014	-0,076
-350,737	-23,830	-0,050	0,022
-349,723	5,216	0,170	-0,092
-348,708	-200,000	-0,009	0,043
-347,693	-32,526	0,137	0,056
-346,679	623,837	-0,037	-0,069
-345,664	203,098	0,031	-0,035
-344,650	-37,123	-0,100	0,039
-343,635	-52,105	0,223	0,075
-342,620	1,450	0,015	-0,008
-341,606	134,663	-0,030	0,029
-340,591	31,585	-0,063	-0,040
-339,577	397,903	0,020	-0,030
-338,562	-45,765	-0,064	-0,023
-337,548	156,297	-0,049	-0,050
-336,533	-200,000	-0,019	0,067
-335,518	-200,000	0,018	0,183
-334,504	51,492	-0,146	0,102
-333,489	-200,000	-0,008	-0,071
-332,475	573,677	0,028	-0,050
-331,460	705,277	-0,035	-0,069
-330,445	-200,000	0,008	-0,042
-329,431	-5,065	0,124	-0,063
-328,416	800,000	0,020	-0,065
-327,402	-53,510	0,062	0,021
-326,387	153,803	0,033	0,033
-325,372	800,000	0,059	-0,131
-324,358	795,465	-0,035	0,071
-323,343	389,560	-0,057	-0,087
-322,329	800,000	0,026	0,058
-321,314	-200,000	-0,006	0,059
-320,299	8,503	0,162	-0,089
-319,285	14,266	-0,029	0,017
-318,270	800,000	-0,030	-0,073
-317,256	-109,357	-0,111	-0,017
-316,241	-200,000	0,002	-0,050
-315,226	180,495	-0,081	0,087
-314,212	138,510	0,051	-0,049
-313,197	694,336	-0,071	0,137
-312,183	-33,120	-0,033	-0,013
-311,168	-77,530	-0,030	-0,008
-310,153	-97,969	0,170	-0,032
-309,139	-200,000	-0,024	0,084
-308,124	-200,000	0,017	0,113
-307,110	294,484	0,098	0,132
-306,095	51,376	0,052	0,036
-305,080	192,820	0,031	0,034
-304,066	217,866	-0,047	0,055
-303,051	10,003	-0,122	-0,068
-302,037	-7,022	0,111	-0,055
-301,022	-200,000	0,009	-0,039
-300,008	800,000	-0,049	-0,110
-298,993	130,397	0,082	0,077
-297,978	-24,914	-0,102	0,044
-296,964	377,484	-0,038	0,057
-295,949	-74,728	0,041	-0,011
-294,935	-200,000	0,005	0,087
-293,920	17,415	0,167	0,097
-292,905	800,000	0,080	0,201
-291,891	-200,000	-0,018	-0,178
-290,876	-53,979	0,051	-0,017
-289,862	800,000	-0,030	-0,064
-288,847	-33,432	0,063	-0,025
-287,832	-200,000	-0,009	0,075
-286,818	200,893	0,011	0,012
-285,803	-200,000	-0,019	0,070
-284,789	127,968	-0,030	0,028
-283,774	800,000	0,015	0,046
-282,759	-125,144	0,133	-0,015
-281,745	800,000	-0,034	-0,090
-280,730	7,906	-0,111	-0,061
-279,716	-200,000	0,012	0,117
-278,701	800,000	0,018	-0,041
-277,686	-147,670	0,055	-0,003
-276,672	23,513	0,207	-0,124
-275,657	-4,975	-0,067	-0,033
-274,643	-200,000	0,015	-0,113
-273,628	-23,916	0,035	-0,015
-272,613	115,252	0,108	-0,096
-271,599	404,783	0,083	0,129
-270,584	-32,134	0,093	0,038
-269,570	800,000	-0,016	0,039
-268,555	-200,000	0,031	-0,120
-267,540	176,980	-0,044	-0,047
-266,526	-32,400	0,059	0,024
-265,511	-200,000	-0,006	0,144
-264,497	-200,000	0,013	0,138
-263,482	25,290	0,064	-0,039
-262,467	69,800	-0,061	0,046
-261,453	800,000	0,062	0,197
-260,438	-135,306	-0,074	0,006
-259,424	0,060	-0,108	0,056
-258,409	-200,000	-0,015	0,074
-257,395	12,619	0,028	-0,016
-256,380	87,162	0,102	0,082
-255,365	91,019	0,050	0,041
-254,351	-124,805	-0,079	-0,009
-253,336	169,409	0,004	0,005
-252,322	-4,117	-0,067	-0,034
-251,307	97,872	-0,049	-0,041
-250,292	-22,698	-0,026	0,012
-249,278	7,870	0,045	-0,024
-248,263	800,000	0,005	0,012
-247,249	118,872	-0,105	0,095
-246,234	515,064	0,073	0,125
-245,219	800,000	-0,023	-0,048
-244,205	-38,590	-0,106	0,041
-243,190	-71,358	0,064	0,017
-242,176	-200,000	0,035	0,131
-241,161	-200,000	0,006	0,105
-240,146	697,437	0,083	0,161
-239,132	-105,097	-0,110	0,018
-238,117	-200,000	-0,002	-0,019
-237,103	-127,594	0,101	0,011
-236,088	-200,000	-0,027	-0,087
-235,073	-149,062	-0,065	-0,004
-234,059	102,116	0,091	0,077
-233,044	513,040	0,029	0,049
-232,030	691,016	-0,062	0,119
-231,015	800,000	0,058	-0,175
-230,000	200,816	-0,012	-0,014
-228,986	527,605	-0,017	-0,029
-227,971	-200,000	0,021	0,101
-226,957	-4,471	0,131	0,066
-225,942	445,528	-0,051	0,083
-224,927	441,276	-0,091	0,147
-223,913	800,000	-0,051	-0,153
-222,898	-6,867	-0,026	0,013
-221,884	-184,371	0,073	0,001
-220,869	800,000	0,008	0,021
-219,855	-78,094	-0,027	-0,007
-218,840	-200,000	-0,015	0,071
-217,825	-113,592	-0,057	0,008
-216,811	-200,000	-0,017	0,112
-215,796	14,630	-0,036	0,020
-214,782	134,510	-0,047	-0,045
-213,767	62,273	-0,040	-0,029
-212,752	800,000	0,029	0,078
-211,738	800,000	0,063	0,165
-210,723	-169,146	0,101	-0,003
-209,709	544,150	-0,048	0,084
-208,694	-200,000	-0,006	0,067
-207,679	94,313	-0,079	-0,066
-206,665	-10,111	0,090	0,044
-205,650	-99,268	0,109	-0,020
-204,636	-200,000	-0,012	0,041
-203,621	1,032	0,068	0,036
-202,606	-112,404	0,028	-0,004
-201,592	-100,228	-0,058	-0,010
-200,577	24,228	-0,135	-0,081
-199,563	-44,667	-0,106	-0,039
-198,548	354,355	0,037	-0,054
-197,533	57,896	0,028	0,020
-196,519	-78,679	-0,033	0,008
-195,504	800,000	0,023	0,071
-194,490	-143,979	0,094	-0,006
-193,475	-61,152	0,025	0,008
-192,460	800,000	0,002	0,007
-191,446	-200,000	0,011	-0,068
-190,431	18,597	0,147	0,086
-189,417	148,155	0,066	0,065
-188,402	315,316	-0,026	0,036
-187,387	-155,350	-0,044	0,002
-186,373	-123,066	0,119	0,014
-185,358	-98,999	-0,124	-0,023
-184,344	303,826	0,061	0,083
-183,329	-169,962	-0,147	0,004
-182,315	180,547	0,104	0,111
-181,300	52,053	-0,172	-0,120
-180,285	222,269	-0,025	0,030
-179,271	-61,375	-0,198	0,060
-178,256	98,261	-0,051	0,043
-177,242	104,471	-0,166	-0,142
-176,227	-10,541	0,080	0,039
-175,212	184,710	0,065	-0,070
-174,198	800,000	0,031	0,088
-173,183	-45,745	-0,145	-0,052
-172,169	97,624	-0,047	0,039
-171,154	14,745	-0,090	-0,051
-170,139	-69,786	-0,171	-0,047
-169,125	800,000	0,094	0,223
-168,110	-38,989	-0,089	0,034
-167,096	-200,000	0,035	-0,174
-166,081	186,112	-0,036	-0,039
-165,066	-200,000	0,019	-0,084
-164,052	-200,000	0,025	-0,089
-163,037	157,204	0,015	-0,015
-162,023	258,768	-0,024	0,030
-161,008	157,681	0,053	0,053
-159,993	50,792	0,040	-0,028
-158,979	800,000	-0,023	0,057
-157,964	-200,000	-0,002	-0,057
-156,950	-167,569	0,092	-0,003
-155,935	-17,561	0,110	0,050
-154,920	408,321	0,022	-0,033
-153,906	55,013	-0,160	0,113
-152,891	-200,000	-0,003	0,110
-151,877	131,252	0,007	0,007
-150,862	546,910	-0,025	-0,045
-149,847	14,751	-0,030	-0,017
-148,833	-200,000	0,007	-0,129
-147,818	-97,987	0,046	-0,009
-146,804	800,000	-0,038	0,094
-145,789	-142,715	0,098	-0,007
-144,775	-200,000	0,007	-0,034
-143,760	288,080	0,011	0,015
-142,745	370,255	0,011	0,016
-141,731	2,563	-0,081	-0,043
-140,716	-78,134	0,084	-0,021
-139,702	81,994	0,055	0,044
-138,687	-62,945	-0,071	0,021
-137,672	-175,684	0,119	0,002
-136,658	431,172	-0,054	-0,086
-135,643	508,484	-0,050	-0,086
-134,629	565,175	-0,039	0,068
-133,614	-157,704	0,137	-0,006
-132,599	-200,000	-0,002	0,101
-131,585	312,153	0,082	0,112
-130,570	-50,962	-0,200	0,068
-129,556	-200,000	0,008	0,067
-128,541	11,290	0,091	0,051
-127,526	-35,673	0,024	0,009
-126,512	-0,298	-0,074	0,038
-125,497	98,747	0,081	-0,068
-124,483	800,000	0,031	-0,096
-123,468	800,000	0,011	-0,030
-122,453	-127,204	-0,152	-0,016
-121,439	268,767	0,026	-0,033
-120,424	-200,000	0,032	0,124
-119,410	54,468	-0,054	0,038
-118,395	404,480	0,058	-0,089
-117,380	41,997	-0,041	-0,027
-116,366	-91,484	-0,125	-0,026
-115,351	78,236	0,125	-0,097
-114,337	-68,689	-0,033	0,009
-113,322	140,612	0,126	0,121
-112,307	-32,393	0,122	-0,049
-111,293	-200,000	-0,000	0,049
-110,278	-200,000	0,003	0,145
-109,264	-200,000	-0,020	0,079
-108,249	74,632	-0,055	0,042
-107,234	-170,590	-0,061	-0,001
-106,220	-200,000	0,028	0,130
-105,205	195,191	-0,077	-0,085
-104,191	732,507	-0,036	-0,070
-103,176	-108,848	0,026	0,004
-102,162	800,000	0,029	-0,073
-101,147	-200,000	0,016	0,056
-100,132	800,000	0,047	0,117
-99,118	616,656	-0,071	0,130
-98,103	-138,674	-0,207	-0,016
-97,089	-45,127	0,132	-0,048
-96,074	-17,006	0,153	-0,070
-95,059	789,733	-0,040	-0,080
-94,045	16,948	-0,037	-0,021
-93,030	0,861	-0,159	-0,082
-92,016	-200,000	0,007	-0,063
-91,001	-90,298	0,073	0,015
-89,986	-200,000	0,026	0,132
-88,972	800,000	0,052	0,154
-87,957	-149,115	-0,221	-0,013
-86,943	70,071	0,054	-0,040
-85,928	202,656	-0,027	-0,030
-84,913	281,385	0,065	-0,085
-83,899	499,980	-0,037	-0,063
-82,884	340,180	0,061	-0,087
-81,870	-68,854	-0,002	-0,001
-80,855	175,134	-0,132	0,139
-79,840	52,751	0,114	0,079
-78,826	-62,702	0,052	0,015
-77,811	-200,000	0,008	0,049
-76,797	176,035	-0,051	-0,054
-75,782	63,399	0,046	0,034
-74,767	333,569	0,072	0,101
-73,753	174,225	-0,029	0,031
-72,738	800,000	0,031	0,082
-71,724	-34,676	-0,108	-0,043
-70,709	800,000	0,020	0,056
-69,694	574,022	-0,098	-0,174
-68,680	102,771	0,079	-0,067
-67,665	38,426	0,082	0,053
-66,651	-200,000	-0,009	-0,041
-65,636	-11,718	0,051	-0,024
-64,622	56,427	0,055	0,039
-63,607	-67,750	0,154	0,043
-62,592	-2,383	-0,101	0,051
-61,578	-200,000	0,003	0,080
-60,563	-93,159	-0,120	0,024
-59,549	-200,000	0,005	0,101
-58,534	-164,728	-1,517	-0,049
-57,519	567,098	-0,750	-1,327
-56,505	-200,000	-0,792	-4,297
-55,490	36,186	0,512	-0,327
-54,476	800,000	5,039	11,930
-53,461	-200,000	14,152	254,921
-52,446	-200,000	694,600	2253,367
-51,432	582,463	1625,230	2905,665
-50,417	117,930	1633,694	1460,536
-49,403	73,344	1287,917	976,967
-48,388	37,668	1024,257	658,518
-47,373	23,992	982,506	586,641
-46,359	23,190	971,953	577,686
-45,344	22,140	967,687	571,693
-44,330	22,146	966,169	570,794
-43,315	21,992	964,893	569,514
-42,300	21,978	963,850	568,829
-41,286	21,990	962,685	568,158
-40,271	21,909	961,952	567,442
-39,257	21,957	960,944	566,978
-38,242	21,954	959,918	566,342
-37,227	21,885	959,243	565,698
-36,213	21,952	958,148	565,248
-35,198	21,922	957,342	564,650
-34,184	21,972	956,642	564,376
-33,169	21,955	955,692	563,740
-32,154	22,019	954,790	563,392
-31,140	21,983	953,982	562,777
-30,125	21,995	953,198	562,330
-29,111	21,954	952,405	561,709
-28,096	22,008	951,603	561,386
-27,082	22,068	950,898	561,140
-26,067	22,031	950,198	560,589
-25,052	21,993	949,447	559,999
-24,038	21,950	948,900	559,519
-23,023	21,923	948,371	559,098
-22,009	22,052	947,533	558,994
-20,994	21,999	946,782	558,360
-19,979	21,994	946,229	557,995
-18,965	21,984	945,660	557,604
-17,950	21,952	945,103	557,153
-16,936	21,961	944,435	556,766
-15,921	21,976	943,538	556,261
-14,906	21,867	942,968	555,557
-13,892	21,901	942,297	555,246
-12,877	21,868	941,595	554,705
-11,863	21,802	940,959	554,099
-10,848	21,816	940,707	553,973
-9,833	21,959	940,054	554,021
-8,819	21,912	939,387	553,459
-7,804	21,827	938,892	552,875
-6,790	21,780	938,464	552,451
-5,775	21,854	937,611	552,162
-4,760	21,882	936,998	551,867
-3,746	21,862	936,334	551,390
-2,731	21,693	935,718	550,473
-1,717	21,649	935,017	549,898
-0,702	21,687	934,327	549,592
0,313	21,493	933,744	549,465
1,327	24,642	931,623	558,077
2,342	34,235	795,721	502,224
3,356	32,135	450,991	281,458
4,371	0,923	293,340	151,952
5,386	-3,611	274,296	137,787
6,400	-5,252	268,432	133,309
7,415	-5,973	266,142	131,497
8,429	-5,254	264,835	131,497
9,444	-5,311	264,162	131,099
10,459	-5,392	263,461	130,666
11,473	-5,555	262,874	130,215
12,488	-5,349	262,436	130,173
13,502	-5,324	261,624	129,781
14,517	-5,295	261,428	129,699
15,531	-5,082	261,096	129,715
16,546	-5,106	260,805	129,537
17,561	-5,269	260,537	129,246
18,575	-5,172	260,155	129,132
19,590	-5,149	259,731	128,930
20,604	-5,311	259,609	128,713
21,619	-5,075	259,145	128,682
22,634	-5,182	258,806	128,407
23,648	-5,103	258,429	128,280
24,663	-5,309	258,206	127,974
25,677	-5,062	258,026	128,093
26,692	-5,343	257,748	127,694
27,707	-5,391	257,512	127,523
28,721	-5,214	257,257	127,542
29,736	-5,117	256,949	127,464
30,750	-5,362	256,684	127,104
31,765	-5,132	256,434	127,173
32,780	-5,323	256,382	126,967
33,794	-5,223	255,998	126,854
34,809	-5,074	255,791	126,871
35,823	-5,246	255,569	126,598
36,838	-5,079	255,136	126,518
37,853	-5,354	255,170	126,283
38,867	-5,276	254,866	126,189
39,882	-5,153	254,777	126,243
40,896	-5,185	254,448	126,040
41,911	-5,291	254,142	125,784
42,926	-5,226	253,883	125,701
43,940	-5,497	253,859	125,442
44,955	-5,323	253,524	125,417
45,969	-5,370	253,327	125,268
46,984	-5,565	253,091	124,970
47,999	-5,751	252,962	124,733
49,013	-5,807	252,467	124,429
50,028	-5,866	252,209	124,240
51,042	-5,862	251,926	124,092
52,057	-5,940	251,754	123,929
53,071	-5,984	251,559	123,783
54,086	-5,792	251,495	123,907
55,101	-5,748	251,273	123,825
56,115	-5,523	251,253	123,999
57,130	-5,381	251,110	124,040
58,144	-5,198	251,097	124,181
59,159	-5,087	250,717	124,077
60,174	-5,102	250,455	123,923
61,188	-5,171	250,295	123,774
62,203	-5,085	250,053	123,717
63,217	-5,289	249,801	123,406
64,232	-5,178	249,517	123,350
65,247	-5,187	249,330	123,239
66,261	-5,268	249,203	123,096
67,276	-5,354	248,868	122,846
68,290	-5,469	248,638	122,623
69,305	-5,823	248,549	122,266
70,320	-5,524	248,215	122,346
71,334	-5,391	248,158	122,419
72,349	-5,202	248,149	122,566
73,363	-4,944	247,844	122,624
74,378	-4,957	247,550	122,456
75,393	-5,018	247,400	122,319
76,407	-5,302	247,322	122,029
77,422	-5,275	246,954	121,859
78,436	-5,074	246,877	121,981
79,451	-5,167	246,682	121,795
80,466	-5,233	246,278	121,528
81,480	-5,374	246,012	121,267
82,495	-5,295	245,858	121,247
83,509	-5,389	245,757	121,108
84,524	-5,363	245,477	120,980
85,539	-5,414	245,294	120,837
86,553	-5,460	245,187	120,734
87,568	-5,580	245,057	120,559
88,582	-5,435	244,916	120,600
89,597	-5,436	244,576	120,421
90,611	-5,135	244,458	120,605
91,626	-5,340	244,364	120,376
92,641	-5,149	244,277	120,483
93,655	-5,095	243,989	120,375
94,670	-5,402	243,866	120,047
95,684	-5,326	243,484	119,911
96,699	-5,222	243,470	119,981
97,714	-5,584	243,260	119,565
98,728	-5,497	243,036	119,517
99,743	-5,614	242,755	119,270
100,757	-5,678	242,682	119,171
101,772	-5,417	242,320	119,199
102,787	-5,614	242,408	119,068
103,801	-5,631	242,152	118,917
104,816	-5,489	242,056	118,977
105,830	-5,249	241,881	119,079
106,845	-5,448	241,770	118,849
107,860	-5,387	241,466	118,740
108,874	-5,479	241,212	118,528
109,889	-5,331	240,991	118,531
110,903	-5,677	240,890	118,186
111,918	-5,437	240,600	118,231
112,933	-5,415	240,655	118,265
113,947	-5,477	240,310	118,034
114,962	-5,287	240,300	118,174
115,976	-5,440	240,128	117,954
116,991	-5,160	239,823	118,024
118,006	-5,378	239,674	117,761
119,020	-5,303	239,520	117,736
120,035	-5,391	239,483	117,635
121,049	-5,230	239,196	117,616
122,064	-5,307	239,170	117,529
123,079	-5,466	239,015	117,313
124,093	-5,347	238,705	117,248
125,108	-5,608	238,459	116,903
126,122	-5,496	238,226	116,870
127,137	-5,627	238,127	116,704
128,151	-5,638	237,911	116,579
129,166	-5,378	237,784	116,718
130,181	-5,482	237,513	116,490
131,195	-5,476	237,356	116,407
132,210	-5,407	237,326	116,438
133,224	-5,420	237,119	116,316
134,239	-5,422	236,976	116,234
135,254	-5,446	236,829	116,132
136,268	-5,519	236,641	115,970
137,283	-5,648	236,216	115,647
138,297	-5,701	235,995	115,486
139,312	-5,613	235,985	115,542
140,327	-5,629	235,992	115,522
141,341	-5,177	235,828	115,795
142,356	-5,177	235,812	115,777
143,370	-5,049	235,457	115,696
144,385	-4,928	235,409	115,759
145,400	-4,786	235,073	115,698
146,414	-4,903	234,963	115,539
147,429	-4,988	234,877	115,418
148,443	-5,040	234,578	115,219
149,458	-5,130	234,538	115,117
150,473	-5,057	234,184	114,992
151,487	-5,179	234,197	114,891
152,502	-5,150	234,071	114,841
153,516	-4,875	233,799	114,917
154,531	-5,024	233,555	114,668
155,546	-5,042	233,394	114,565
156,560	-5,233	233,418	114,414
157,575	-5,076	233,016	114,332
158,589	-5,179	233,010	114,236
159,604	-5,198	232,964	114,189
160,619	-4,852	232,479	114,215
161,633	-4,905	232,662	114,252
162,648	-4,782	232,444	114,233
163,662	-5,049	232,275	113,928
164,677	-4,971	231,932	113,812
165,692	-4,989	231,840	113,743
166,706	-4,856	231,682	113,759
167,721	-4,897	231,698	113,724
168,735	-4,746	231,505	113,739
169,750	-5,013	231,242	113,389
170,764	-5,242	231,173	113,166
171,779	-4,994	230,864	113,199
172,794	-4,968	230,910	113,232
173,808	-5,229	230,790	112,958
174,823	-5,691	230,421	112,404
175,837	-5,464	230,110	112,421
176,852	-5,327	230,167	112,546
177,867	-5,237	230,129	112,588
178,881	-5,028	230,036	112,696
179,896	-5,055	229,858	112,577
180,910	-4,918	229,762	112,627
181,925	-4,954	229,491	112,456
182,940	-4,938	229,259	112,345
183,954	-5,034	229,019	112,143
184,969	-4,560	228,911	112,449
185,983	-4,606	228,701	112,300
186,998	-4,749	228,739	112,197
188,013	-4,654	228,528	112,157
189,027	-4,853	228,548	112,003
190,042	-4,605	228,212	112,021
191,056	-4,701	228,046	111,855
192,071	-4,947	227,933	111,599
193,086	-4,963	227,653	111,439
194,100	-5,139	227,561	111,248
195,115	-5,578	227,047	110,649
196,129	-6,516	226,674	109,734
197,144	-3,183	227,851	112,873
198,159	1,433	229,287	117,160
199,173	4,278	229,803	119,623
200,188	4,552	229,766	119,806
201,202	4,269	229,613	119,496
202,217	4,681	229,370	119,678
203,232	4,929	229,405	119,877
204,246	4,985	229,185	119,795
205,261	5,057	229,145	119,819
206,275	4,887	229,169	119,689
207,290	4,925	228,857	119,544
208,304	5,046	228,609	119,497
209,319	5,073	228,669	119,540
210,334	4,847	228,246	119,134
211,348	4,756	228,032	118,942
212,363	4,478	227,906	118,652
213,377	3,946	227,706	118,128
214,392	4,023	227,535	118,088
215,407	4,163	227,486	118,160
216,421	4,193	227,237	118,043
217,436	4,160	227,096	117,933
218,450	3,968	226,917	117,683
219,465	3,844	226,793	117,514
220,480	4,172	226,633	117,671
221,494	3,915	226,427	117,358
222,509	4,039	226,483	117,471
223,523	4,188	226,177	117,415
224,538	3,981	226,036	117,174
225,553	3,887	226,018	117,082
226,567	4,408	225,811	117,361
227,582	4,371	225,787	117,310
228,596	4,266	225,631	117,138
229,611	4,358	225,327	117,040
230,626	4,006	225,309	116,753
231,640	3,896	224,957	116,477
232,655	4,245	224,964	116,735
233,669	4,764	224,830	117,047
234,684	4,801	224,769	117,033
235,699	4,695	224,443	116,773
236,713	4,227	224,373	116,372
237,728	4,302	224,062	116,258
238,742	4,123	223,844	115,999
239,757	4,009	223,829	115,896
240,772	4,144	223,599	115,868
241,786	4,125	223,575	115,831
242,801	4,303	223,327	115,826
243,815	4,642	223,312	116,062
244,830	4,337	223,196	115,763
245,844	4,346	222,977	115,645
246,859	4,321	222,835	115,542
247,874	4,328	222,704	115,470
248,888	4,441	222,582	115,480
249,903	4,174	222,452	115,203
250,917	4,273	222,235	115,154
251,932	4,177	222,057	114,980
252,947	4,293	221,837	114,943
253,961	4,052	221,862	114,766
254,976	4,024	221,685	114,643
255,990	4,353	221,624	114,846
257,005	4,478	221,378	114,802
258,020	4,476	221,255	114,726
259,034	4,420	221,362	114,730
260,049	4,438	221,049	114,571
261,063	4,187	220,907	114,300
262,078	4,360	220,791	114,358
263,093	4,582	220,734	114,484
264,107	4,323	220,576	114,199
265,122	4,318	220,307	114,046
266,136	4,574	220,336	114,240
267,151	4,786	220,014	114,220
268,166	4,287	219,867	113,765
269,180	3,999	219,706	113,460
270,195	4,071	219,411	113,350
271,209	4,093	219,353	113,326
272,224	3,897	219,324	113,157
273,239	4,165	219,298	113,330
274,253	4,200	219,014	113,199
275,268	4,000	218,858	112,962
276,282	3,925	218,688	112,809
277,297	3,671	218,557	112,545
278,312	3,962	218,248	112,589
279,326	4,030	218,280	112,645
280,341	4,357	218,127	112,795
281,355	3,949	218,039	112,441
282,370	4,398	217,780	112,626
283,384	4,185	217,617	112,376
284,399	3,871	217,648	112,153
285,414	3,911	217,371	112,029
286,428	4,173	217,269	112,158
287,443	4,364	217,248	112,275
288,457	4,199	217,051	112,044
289,472	4,182	216,888	111,937
290,487	3,871	216,479	111,491
291,501	3,662	216,522	111,351
292,516	3,893	216,377	111,434
293,530	3,906	216,321	111,405
294,545	3,935	216,156	111,331
295,560	3,912	215,983	111,215
296,574	4,196	215,764	111,298
297,589	4,204	215,714	111,267
298,603	4,362	215,570	111,297
299,618	4,416	215,439	111,258
300,633	4,141	215,291	110,974
301,647	4,403	215,261	111,138
302,662	4,324	215,122	110,999
303,676	4,438	215,027	111,022
304,691	4,327	214,851	110,842
305,706	4,482	214,778	110,906
306,720	4,538	214,507	110,796
307,735	4,321	214,314	110,531
308,749	4,189	214,215	110,376
309,764	4,187	214,180	110,346
310,779	4,470	214,094	110,495
311,793	4,307	213,898	110,267
312,808	4,451	213,743	110,280
313,822	4,340	213,471	110,051
314,837	4,117	213,467	109,880
315,852	3,890	213,359	109,652
316,866	4,067	213,264	109,720
317,881	4,101	213,092	109,646
318,895	4,494	212,857	109,795
319,910	4,585	212,714	109,775
320,925	3,939	212,518	109,207
321,939	3,648	212,405	108,932
322,954	3,688	212,370	108,933
323,968	4,198	212,189	109,192
324,983	4,104	212,284	109,164
325,997	4,301	212,037	109,167
327,012	4,595	211,782	109,234
328,027	4,293	211,717	108,977
329,041	4,599	211,663	109,156
330,056	4,522	211,579	109,048
331,070	3,992	211,342	108,542
332,085	3,978	211,154	108,427
333,100	3,911	210,987	108,284
334,114	4,256	210,822	108,432
335,129	4,132	210,604	108,223
336,143	3,953	210,551	108,060
337,158	3,723	210,539	107,883
338,173	3,822	210,238	107,789
339,187	3,803	210,136	107,714
340,202	3,844	209,811	107,566
341,216	3,979	209,738	107,614
342,231	4,043	209,716	107,637
343,246	3,904	209,689	107,517
344,260	4,087	209,539	107,558
345,275	4,042	209,453	107,473
346,289	4,295	209,322	107,573
347,304	4,209	209,203	107,442
348,319	4,545	208,937	107,530
349,333	3,964	208,954	107,124
350,348	4,140	208,802	107,160
351,362	4,341	208,761	107,268
352,377	4,204	208,555	107,058
353,392	4,060	208,462	106,901
354,406	4,103	208,349	106,863
355,421	194,822	1343,738	1435,447
356,435	155,489	1482,173	1435,565
