DTS Sentinel unit serial number:	SN410029Multiplexer serial number:	ORYXHardware model number:	OX2-SRSoftware version number:	ORYX F/W v4,00 Oryx Data Collector v3.7.2.0data status	okinstallation	B6 Nyhavnadifferential loss correction	single-endedforward channel	channel 2reverse channel	N/Adate	2023/12/10time	16:40:08forward acquisition time	300,00reverse acquisition time	0,00gamma	499,1914k internal	0,3122k external	0,3122temperature offset calibration	1,0000default loss term (dB/km)	0,3820temperature slope calibration	1,0000multiplexer offset coefficient	1,0000multiplexer slope coefficient	1,0000fibre end	0,00T internal ref (°C)	22,38T ext. ref 1 (°C)	6,16T ext. ref 2 (°C)	6,18length (m)	temperature (°C)	Stokes	anti-Stokes-744,400	800,000	0,064	-0,137
-743,385	-84,785	-0,288	0,067
-742,371	226,722	0,051	-0,062
-741,356	-143,850	-0,173	0,012
-740,342	118,652	-0,064	0,059
-739,327	145,935	-0,127	0,127
-738,312	-15,727	0,110	-0,052
-737,298	-8,807	-0,214	0,107
-736,283	-4,055	0,107	0,055
-735,269	-74,012	-0,249	0,067
-734,254	225,104	0,042	0,051
-733,239	-125,070	-0,475	-0,054
-732,225	203,643	0,063	-0,073
-731,210	-200,000	-0,021	0,205
-730,196	-200,000	-0,041	-0,135
-729,181	69,526	-0,027	0,021
-728,167	800,000	0,005	-0,013
-727,152	-200,000	-0,007	-0,030
-726,137	-200,000	-0,007	-0,059
-725,123	800,000	-0,094	-0,198
-724,108	176,181	-0,046	-0,049
-723,094	-200,000	0,011	-0,053
-722,079	-200,000	-0,098	0,000
-721,064	-200,000	0,010	0,040
-720,050	201,650	-0,089	0,102
-719,035	-114,635	-0,082	-0,012
-718,021	-200,000	-0,023	-0,113
-717,006	-138,973	-0,114	0,009
-715,991	-75,474	-0,086	0,023
-714,977	800,000	0,060	0,151
-713,962	136,962	0,049	-0,047
-712,948	54,176	0,119	0,085
-711,933	32,575	-0,102	0,066
-710,918	25,554	0,098	-0,060
-709,904	537,803	0,026	0,046
-708,889	481,555	-0,045	-0,076
-707,875	39,817	-0,056	-0,037
-706,860	116,295	0,018	0,016
-705,845	317,026	-0,024	-0,034
-704,831	-200,000	0,020	-0,097
-703,816	-200,000	0,016	-0,074
-702,802	190,409	0,112	-0,126
-701,787	-200,000	-0,004	-0,018
-700,772	800,000	-0,049	-0,144
-699,758	-99,100	-0,065	-0,012
-698,743	164,107	0,052	-0,054
-697,729	13,544	-0,085	0,049
-696,714	800,000	-0,016	-0,047
-695,699	72,959	-0,091	-0,071
-694,685	394,528	-0,086	0,134
-693,670	-31,306	-0,179	-0,075
-692,656	-200,000	0,002	-0,065
-691,641	405,520	-0,016	0,025
-690,627	-200,000	-0,004	0,140
-689,612	-136,007	-0,039	0,003
-688,597	800,000	0,044	-0,138
-687,583	-163,773	0,137	-0,005
-686,568	58,723	0,063	0,046
-685,554	302,426	0,031	0,043
-684,539	-22,144	0,025	-0,011
-683,524	-131,686	-0,071	-0,007
-682,510	-200,000	-0,006	-0,066
-681,495	200,215	0,092	-0,106
-680,481	37,190	0,045	-0,029
-679,466	29,980	-0,112	-0,071
-678,451	800,000	0,036	-0,114
-677,437	146,186	-0,080	0,080
-676,422	628,971	-0,036	-0,067
-675,408	-65,678	0,033	0,010
-674,393	62,793	-0,059	0,044
-673,378	-103,777	-0,086	-0,015
-672,364	743,525	-0,032	0,064
-671,349	-200,000	-0,021	-0,095
-670,335	-52,058	-0,134	0,046
-669,320	102,247	0,081	0,071
-668,305	-200,000	-0,025	0,134
-667,291	-74,985	-0,157	0,041
-666,276	-103,681	-0,093	-0,016
-665,262	-32,756	-0,126	-0,052
-664,247	-200,000	-0,025	-0,104
-663,232	800,000	0,034	-0,074
-662,218	177,398	0,059	0,063
-661,203	-25,203	-0,128	-0,056
-660,189	-89,451	-0,071	0,015
-659,174	-157,042	-0,130	0,006
-658,159	703,583	-0,071	-0,140
-657,145	42,216	-0,088	-0,059
-656,130	-20,436	0,055	0,025
-655,116	-21,130	-0,064	-0,029
-654,101	131,299	0,073	0,070
-653,086	-133,532	-0,146	0,013
-652,072	-46,006	-0,102	0,037
-651,057	237,926	-0,115	-0,142
-650,043	-62,134	-0,057	0,017
-649,028	311,426	0,061	0,086
-648,014	-101,658	0,162	0,029
-646,999	176,815	-0,053	0,057
-645,984	89,031	0,056	-0,046
-644,970	100,064	-0,083	0,072
-643,955	187,887	0,063	0,070
-642,941	177,149	-0,101	-0,109
-641,926	-200,000	0,018	-0,068
-640,911	-200,000	-0,014	-0,046
-639,897	-46,929	0,026	0,009
-638,882	-200,000	0,014	0,111
-637,868	-140,207	-0,030	-0,002
-636,853	154,400	-0,021	0,022
-635,838	559,706	-0,042	-0,075
-634,824	-200,000	-0,026	-0,129
-633,809	444,034	0,025	-0,041
-632,795	201,815	0,041	-0,047
-631,780	-200,000	-0,011	0,142
-630,765	366,687	-0,037	-0,056
-629,751	-79,756	-0,057	0,014
-628,736	-200,000	0,017	-0,124
-627,722	304,858	-0,101	-0,140
-626,707	-85,524	-0,134	0,031
-625,692	-155,634	0,010	-0,000
-624,678	-200,000	-0,024	0,118
-623,663	56,746	-0,091	-0,066
-622,649	800,000	-0,031	-0,070
-621,634	800,000	-0,019	-0,047
-620,619	400,602	0,047	-0,073
-619,605	63,448	0,116	0,087
-618,590	-200,000	0,027	0,099
-617,576	329,515	0,063	0,090
-616,561	253,817	-0,019	0,024
-615,546	297,649	0,058	0,079
-614,532	-200,000	-0,038	-0,144
-613,517	-151,208	-0,130	0,007
-612,503	49,063	-0,038	-0,026
-611,488	-145,599	0,015	0,001
-610,474	55,559	-0,064	0,046
-609,459	44,204	0,024	-0,017
-608,444	105,408	-0,011	0,010
-607,430	569,031	0,029	-0,052
-606,415	-200,000	-0,046	-0,157
-605,401	-109,704	0,057	-0,009
-604,386	800,000	0,060	0,123
-603,371	800,000	0,010	0,031
-602,357	800,000	-0,045	-0,102
-601,342	-124,864	-0,094	-0,011
-600,328	107,678	0,055	-0,049
-599,313	800,000	0,037	-0,088
-598,298	-107,985	0,055	-0,009
-597,284	552,012	-0,065	-0,116
-596,269	393,186	0,047	0,073
-595,255	19,439	-0,077	0,046
-594,240	-200,000	-0,009	-0,088
-593,225	-200,000	-0,010	-0,043
-592,211	-137,651	-0,074	0,006
-591,196	369,017	0,038	-0,058
-590,182	800,000	0,025	0,054
-589,167	181,327	-0,124	0,135
-588,152	146,398	0,023	-0,023
-587,138	316,109	-0,049	-0,069
-586,123	800,000	-0,018	-0,046
-585,109	-126,195	-0,185	-0,020
-584,094	220,906	-0,050	-0,059
-583,079	-200,000	-0,005	-0,109
-582,065	134,572	0,023	0,022
-581,050	-132,225	0,075	0,007
-580,036	21,769	-0,071	0,043
-579,021	222,396	0,092	0,110
-578,006	-200,000	-0,013	-0,159
-576,992	177,402	0,056	-0,061
-575,977	221,790	0,039	0,046
-574,963	-116,629	0,159	-0,021
-573,948	5,132	0,050	-0,027
-572,934	-130,248	-0,150	0,015
-571,919	-200,000	-0,026	-0,087
-570,904	-1,219	-0,147	-0,077
-569,890	800,000	-0,066	-0,143
-568,875	64,420	-0,029	-0,022
-567,861	-200,000	0,046	0,174
-566,846	-153,239	0,085	0,004
-565,831	3,426	0,124	-0,067
-564,817	181,425	0,086	-0,094
-563,802	309,070	0,022	0,030
-562,788	-200,000	-0,017	-0,084
-561,773	94,298	-0,096	-0,081
-560,758	-200,000	-0,005	0,025
-559,744	800,000	-0,036	-0,115
-558,729	-200,000	0,008	-0,070
-557,715	-67,764	0,057	-0,016
-556,700	39,244	-0,097	-0,064
-555,685	87,313	-0,083	0,068
-554,671	-200,000	0,004	0,082
-553,656	368,374	0,047	-0,071
-552,642	-200,000	-0,008	0,068
-551,627	510,266	-0,021	-0,037
-550,612	54,531	0,105	0,075
-549,598	-200,000	-0,003	-0,019
-548,583	211,110	0,047	-0,055
-547,569	800,000	-0,013	0,029
-546,554	220,694	0,058	-0,069
-545,539	-200,000	-0,015	0,095
-544,525	-200,000	0,023	0,165
-543,510	76,916	0,081	0,063
-542,496	751,159	-0,051	-0,102
-541,481	517,946	-0,059	-0,102
-540,466	26,054	0,124	0,076
-539,452	-200,000	-0,014	0,068
-538,437	-200,000	0,016	-0,060
-537,423	-197,248	0,180	-0,001
-536,408	-62,618	0,156	0,048
-535,393	-67,355	-0,031	0,009
-534,379	800,000	-0,053	-0,164
-533,364	-200,000	0,005	-0,215
-532,350	-38,039	0,096	0,038
-531,335	37,904	-0,097	0,064
-530,321	-165,304	0,074	0,002
-529,306	117,004	-0,034	-0,031
-528,291	32,196	-0,089	-0,057
-527,277	-200,000	-0,013	-0,115
-526,262	800,000	0,012	-0,037
-525,248	-37,488	-0,044	-0,017
-524,233	-200,000	0,017	0,158
-523,218	-200,000	0,010	0,037
-522,204	-200,000	-0,006	-0,125
-521,189	89,035	0,105	-0,086
-520,175	-76,017	-0,124	-0,032
-519,160	-1,640	-0,053	-0,027
-518,145	381,120	-0,049	-0,075
-517,131	-91,557	-0,109	0,023
-516,116	150,980	0,065	0,065
-515,102	369,484	0,046	0,068
-514,087	-200,000	-0,005	0,061
-513,072	-200,000	-0,025	-0,209
-512,058	199,329	-0,060	-0,068
-511,043	162,019	0,159	0,165
-510,029	-183,476	0,181	0,002
-509,014	-141,561	-0,108	-0,008
-507,999	348,164	0,052	-0,076
-506,985	800,000	0,009	-0,019
-505,970	-94,661	0,110	0,022
-504,956	157,979	0,052	0,054
-503,941	398,661	0,038	0,059
-502,926	385,281	-0,010	0,016
-501,912	212,710	-0,066	0,077
-500,897	-200,000	0,004	-0,096
-499,883	-200,000	-0,013	0,059
-498,868	-3,213	-0,106	-0,054
-497,853	-200,000	-0,017	-0,129
-496,839	151,343	0,092	-0,093
-495,824	-5,912	0,081	0,041
-494,810	30,283	-0,090	-0,056
-493,795	221,287	-0,054	0,064
-492,781	458,365	0,036	0,059
-491,766	459,256	0,042	0,069
-490,751	-157,939	0,072	0,003
-489,737	311,356	0,011	-0,015
-488,722	73,712	-0,120	0,093
-487,708	181,149	0,141	0,153
-486,693	15,150	0,051	0,029
-485,678	-147,208	-0,128	-0,008
-484,664	50,574	-0,095	-0,066
-483,649	-0,085	-0,133	-0,070
-482,635	-125,542	-0,081	-0,009
-481,620	-200,000	0,011	-0,097
-480,605	-58,788	-0,029	-0,009
-479,591	-200,000	0,023	-0,086
-478,576	3,546	-0,045	-0,024
-477,562	-74,835	0,053	-0,014
-476,547	-92,246	-0,039	-0,008
-475,532	155,382	-0,081	0,083
-474,518	35,447	-0,049	0,032
-473,503	333,417	-0,027	0,039
-472,489	670,369	-0,057	-0,109
-471,474	-23,005	0,029	0,013
-470,459	-96,482	0,083	-0,016
-469,445	535,643	-0,060	-0,105
-468,430	-173,496	-0,107	-0,002
-467,416	-67,085	0,059	-0,017
-466,401	122,445	-0,057	-0,052
-465,386	-127,626	0,143	0,015
-464,372	-200,000	0,005	0,033
-463,357	125,800	-0,069	0,064
-462,343	-200,000	0,035	-0,180
-461,328	119,546	-0,165	-0,151
-460,313	-200,000	0,012	0,108
-459,299	-6,046	0,089	-0,045
-458,284	-15,170	0,053	-0,025
-457,270	-86,678	0,028	0,006
-456,255	-200,000	-0,008	-0,068
-455,241	234,513	-0,069	-0,084
-454,226	-139,087	-0,127	-0,010
-453,211	51,915	0,045	0,032
-452,197	-166,410	0,073	-0,002
-451,182	230,338	0,127	0,153
-450,168	476,707	-0,053	0,089
-449,153	-31,910	-0,099	0,041
-448,138	158,082	-0,114	0,117
-447,124	800,000	-0,025	-0,053
-446,109	-116,384	0,157	0,021
-445,095	573,704	-0,047	0,084
-444,080	800,000	0,056	0,159
-443,065	800,000	0,024	-0,050
-442,051	1,318	-0,061	0,032
-441,036	82,112	0,124	0,099
-440,022	-137,684	-0,065	0,005
-439,007	-77,060	0,032	0,008
-437,992	145,256	-0,080	-0,079
-436,978	800,000	-0,043	0,097
-435,963	385,001	0,058	0,089
-434,949	-200,000	0,013	-0,045
-433,934	-15,623	-0,124	-0,058
-432,919	800,000	0,033	0,083
-431,905	235,801	-0,063	-0,077
-430,890	-200,000	0,020	-0,100
-429,876	347,481	0,085	0,123
-428,861	38,003	0,226	0,148
-427,846	155,498	0,014	0,015
-426,832	-131,280	0,104	-0,010
-425,817	-49,738	-0,068	0,024
-424,803	422,832	-0,024	0,037
-423,788	-200,000	0,027	-0,130
-422,773	-118,471	0,151	0,020
-421,759	-200,000	-0,018	0,092
-420,744	54,342	0,098	-0,069
-419,730	-200,000	0,001	0,045
-418,715	301,378	0,039	-0,053
-417,701	-200,000	-0,008	0,046
-416,686	146,102	0,069	0,068
-415,671	-186,800	0,017	-0,000
-414,657	52,846	0,025	0,017
-413,642	-106,154	-0,086	0,014
-412,628	432,405	-0,072	0,115
-411,613	800,000	-0,028	0,070
-410,598	7,359	-0,025	-0,014
-409,584	215,692	0,063	-0,074
-408,569	101,335	0,027	-0,023
-407,555	-200,000	0,040	0,163
-406,540	-200,000	-0,005	0,092
-405,525	-200,000	0,025	0,142
-404,511	-134,714	-0,177	0,016
-403,496	-200,000	0,029	0,113
-402,482	19,057	-0,128	-0,075
-401,467	16,107	0,163	-0,094
-400,452	641,863	-0,035	0,066
-399,438	673,435	-0,039	0,074
-398,423	800,000	0,054	0,142
-397,409	305,188	-0,086	-0,118
-396,394	-28,050	-0,056	-0,024
-395,379	-36,025	0,060	-0,024
-394,365	-200,000	0,013	0,042
-393,350	-157,793	0,067	-0,003
-392,336	12,450	-0,050	-0,028
-391,321	800,000	0,076	0,163
-390,306	505,839	0,044	-0,076
-389,292	147,768	-0,013	-0,013
-388,277	1,915	-0,099	-0,052
-387,263	504,524	0,068	-0,116
-386,248	-200,000	0,011	0,101
-385,233	475,062	-0,060	0,100
-384,219	23,867	-0,040	0,024
-383,204	358,547	0,019	-0,027
-382,190	-200,000	0,012	0,058
-381,175	800,000	-0,079	-0,186
-380,160	168,067	0,056	0,059
-379,146	800,000	-0,033	0,076
-378,131	-200,000	-0,015	-0,074
-377,117	287,071	0,063	0,084
-376,102	261,490	-0,035	-0,045
-375,088	221,878	-0,086	-0,102
-374,073	-95,008	0,047	-0,009
-373,058	132,750	0,050	0,048
-372,044	29,199	-0,043	0,027
-371,029	-120,490	-0,049	-0,006
-370,015	-84,905	0,085	0,020
-369,000	-91,712	0,149	-0,031
-367,985	-79,503	-0,171	0,042
-366,971	281,341	-0,068	0,089
-365,956	684,622	-0,034	0,066
-364,942	800,000	0,068	-0,185
-363,927	-200,000	-0,001	0,047
-362,912	-200,000	0,008	0,082
-361,898	587,066	-0,049	-0,088
-360,883	-128,978	-0,025	0,003
-359,869	8,755	0,074	-0,041
-358,854	-200,000	-0,016	-0,151
-357,839	156,127	-0,018	0,018
-356,825	44,955	0,057	0,038
-355,810	800,000	-0,050	0,111
-354,796	196,358	-0,088	-0,099
-353,781	27,483	0,027	0,016
-352,766	348,761	-0,002	-0,002
-351,752	-103,165	-0,164	-0,028
-350,737	16,155	-0,026	-0,015
-349,723	-110,024	0,018	-0,003
-348,708	459,170	0,068	0,111
-347,693	-200,000	0,005	0,016
-346,679	-200,000	-0,047	-0,159
-345,664	-200,000	0,004	-0,121
-344,650	800,000	-0,010	0,027
-343,635	-63,243	0,106	-0,032
-342,620	180,893	0,043	0,047
-341,606	3,232	0,075	0,040
-340,591	-14,530	0,068	-0,032
-339,577	-68,703	-0,062	-0,018
-338,562	-34,347	-0,092	-0,037
-337,548	-200,000	0,038	-0,140
-336,533	-4,696	0,028	0,014
-335,518	800,000	0,027	0,062
-334,504	-200,000	0,035	0,159
-333,489	-150,712	-0,224	0,012
-332,475	-200,000	-0,008	0,101
-331,460	800,000	-0,059	-0,190
-330,445	-200,000	-0,024	0,081
-329,431	47,459	-0,153	0,105
-328,416	-29,580	0,098	0,041
-327,402	732,657	-0,024	0,047
-326,387	800,000	0,073	0,164
-325,372	272,980	0,075	0,098
-324,358	-200,000	-0,022	0,106
-323,343	-81,656	-0,129	-0,031
-322,329	-33,929	-0,037	0,015
-321,314	70,331	-0,106	-0,081
-320,299	-200,000	-0,014	-0,047
-319,285	126,550	-0,039	-0,036
-318,270	24,496	-0,090	0,054
-317,256	79,609	0,065	-0,051
-316,241	790,741	0,058	0,118
-315,226	-42,748	-0,049	0,018
-314,212	-200,000	-0,007	0,045
-313,197	127,372	-0,053	0,049
-312,183	446,296	0,053	0,085
-311,168	-200,000	0,009	0,104
-310,153	-102,086	0,044	0,008
-309,139	800,000	-0,031	-0,086
-308,124	135,288	-0,079	-0,075
-307,110	44,257	0,138	-0,093
-306,095	19,683	0,082	-0,048
-305,080	-117,668	-0,054	0,007
-304,066	123,037	-0,011	0,010
-303,051	126,067	0,128	0,118
-302,037	-200,000	0,004	-0,040
-301,022	-200,000	-0,006	0,066
-300,008	650,699	0,117	0,220
-298,993	-122,398	-0,099	-0,012
-297,978	129,251	-0,108	-0,101
-296,964	-200,000	0,028	-0,108
-295,949	455,056	-0,013	-0,021
-294,935	-200,000	0,009	-0,054
-293,920	170,362	0,043	0,046
-292,905	-200,000	-0,039	-0,133
-291,891	-30,038	-0,119	-0,049
-290,876	550,542	0,033	-0,058
-289,862	-200,000	0,008	-0,084
-288,847	-200,000	0,011	-0,117
-287,832	-200,000	-0,002	-0,171
-286,818	-122,364	0,080	0,009
-285,803	-200,000	0,162	0,000
-284,789	-200,000	0,023	-0,105
-283,774	800,000	-0,023	0,052
-282,759	800,000	-0,027	-0,064
-281,745	-110,040	0,040	0,006
-280,730	-160,264	0,066	0,003
-279,716	94,713	-0,106	-0,088
-278,701	-200,000	-0,010	-0,089
-277,686	-18,786	-0,044	-0,020
-276,672	707,491	0,046	0,088
-275,657	25,801	-0,014	0,009
-274,643	137,463	-0,067	0,064
-273,628	100,883	0,156	-0,132
-272,613	33,522	0,073	0,047
-271,599	-36,232	0,142	-0,056
-270,584	258,914	-0,025	0,032
-269,570	-200,000	0,008	-0,212
-268,555	-200,000	-0,010	0,061
-267,540	-200,000	0,038	-0,129
-266,526	-200,000	0,010	-0,166
-265,511	496,213	0,028	0,047
-264,497	56,474	-0,037	-0,026
-263,482	800,000	-0,023	0,072
-262,467	318,351	0,038	0,053
-261,453	-150,955	-0,027	-0,001
-260,438	201,606	-0,057	-0,064
-259,424	-200,000	0,002	-0,093
-258,409	-200,000	-0,012	-0,090
-257,395	-36,297	-0,079	-0,031
-256,380	-200,000	0,013	-0,108
-255,365	-200,000	0,011	0,205
-254,351	432,395	0,036	-0,058
-253,336	-92,168	-0,062	0,013
-252,322	78,753	0,118	-0,093
-251,307	60,146	0,026	-0,019
-250,292	57,177	-0,033	0,024
-249,278	-185,780	-0,106	0,001
-248,263	-155,044	0,158	0,007
-247,249	226,359	-0,019	0,022
-246,234	-200,000	-0,001	0,018
-245,219	192,941	0,084	-0,093
-244,205	-61,560	-0,064	0,019
-243,190	-114,218	0,111	0,015
-242,176	-105,493	0,121	0,020
-241,161	10,931	-0,082	-0,046
-240,146	146,889	0,096	0,094
-239,132	-21,850	0,087	0,039
-238,117	183,893	0,034	-0,036
-237,103	-49,430	0,096	-0,033
-236,088	-41,554	0,064	-0,024
-235,073	-200,000	0,004	0,088
-234,059	-200,000	-0,002	0,090
-233,044	748,441	0,040	0,079
-232,030	188,918	-0,064	0,070
-231,015	-200,000	-0,008	0,035
-230,000	-110,638	-0,144	0,022
-228,986	4,190	0,079	-0,042
-227,971	201,200	0,031	-0,035
-226,957	-167,419	0,062	-0,002
-225,942	279,156	-0,054	-0,070
-224,927	800,000	0,036	0,083
-223,913	63,080	-0,016	0,012
-222,898	-200,000	0,017	0,069
-221,884	11,911	0,020	-0,011
-220,869	202,628	-0,110	-0,124
-219,855	-200,000	0,007	0,061
-218,840	171,919	-0,026	-0,027
-217,825	200,860	-0,012	-0,013
-216,811	-26,478	-0,056	0,024
-215,796	800,000	-0,047	-0,145
-214,782	-200,000	-0,017	0,076
-213,767	0,623	-0,152	0,079
-212,752	340,268	0,045	0,065
-211,738	-189,177	0,053	-0,000
-210,723	326,177	0,093	0,130
-209,709	536,049	0,020	-0,034
-208,694	464,623	-0,029	0,047
-207,679	316,169	0,066	-0,092
-206,665	800,000	0,022	-0,068
-205,650	-200,000	-0,040	0,145
-204,636	-68,896	0,150	0,042
-203,621	800,000	0,027	0,065
-202,606	196,109	-0,015	-0,017
-201,592	800,000	0,025	0,054
-200,577	-103,656	0,039	0,007
-199,563	-35,541	0,054	-0,021
-198,548	-200,000	-0,018	0,184
-197,533	382,246	0,087	0,131
-196,519	800,000	-0,038	0,104
-195,504	-200,000	-0,012	0,091
-194,490	-164,268	-0,067	0,002
-193,475	-200,000	0,009	-0,030
-192,460	245,702	-0,023	-0,029
-191,446	-99,731	-0,038	0,007
-190,431	275,707	-0,078	0,101
-189,417	76,445	0,047	0,036
-188,402	800,000	0,031	0,076
-187,387	389,751	-0,016	0,024
-186,373	-200,000	-0,009	-0,103
-185,358	249,299	-0,091	0,113
-184,344	294,050	0,068	-0,091
-183,329	-200,000	0,006	0,040
-182,315	418,979	0,044	-0,069
-181,300	287,368	-0,037	-0,049
-180,285	244,703	0,058	0,071
-179,271	639,770	-0,059	-0,109
-178,256	384,479	-0,010	0,014
-177,242	800,000	0,018	0,049
-176,227	-200,000	-0,022	0,130
-175,212	800,000	-0,017	-0,038
-174,198	-200,000	-0,008	0,050
-173,183	25,322	-0,022	0,013
-172,169	800,000	-0,035	0,076
-171,154	-50,585	-0,133	0,045
-170,139	474,684	0,018	-0,030
-169,125	95,623	-0,064	0,053
-168,110	800,000	0,018	-0,039
-167,096	270,562	0,081	0,104
-166,081	22,329	-0,035	0,021
-165,066	-65,334	-0,142	0,041
-164,052	-200,000	-0,010	-0,053
-163,037	-131,694	0,036	0,003
-162,023	-5,922	0,117	0,058
-161,008	-200,000	-0,029	0,127
-159,993	-52,462	-0,056	0,019
-158,979	-200,000	0,007	-0,052
-157,964	346,386	-0,048	-0,069
-156,950	-89,240	-0,100	-0,021
-155,935	-39,081	0,090	0,034
-154,920	13,106	-0,132	-0,074
-153,906	-64,352	0,105	-0,031
-152,891	436,136	0,086	0,138
-151,877	-200,000	-0,004	0,013
-150,862	-200,000	-0,014	-0,121
-149,847	116,976	-0,133	-0,119
-148,833	-57,834	0,092	-0,029
-147,818	391,934	-0,063	-0,096
-146,804	516,747	-0,064	0,110
-145,789	800,000	-0,013	-0,034
-144,775	208,736	0,026	0,029
-143,760	-200,000	-0,002	0,072
-142,745	800,000	0,009	0,026
-141,731	-62,881	-0,052	-0,016
-140,716	196,355	-0,127	-0,141
-139,702	-200,000	-0,010	-0,084
-138,687	-70,974	0,091	0,025
-137,672	47,582	0,061	0,042
-136,658	800,000	-0,023	-0,057
-135,643	717,376	0,038	-0,074
-134,629	2,713	-0,055	-0,029
-133,614	389,257	0,089	0,135
-132,599	24,279	0,121	-0,073
-131,585	-200,000	-0,001	0,065
-130,570	21,124	0,030	0,018
-129,556	-200,000	-0,004	-0,122
-128,541	-200,000	-0,002	-0,087
-127,526	-97,093	-0,121	-0,023
-126,512	307,384	0,057	-0,078
-125,497	800,000	0,046	0,147
-124,483	-106,642	0,066	0,011
-123,468	-49,130	-0,087	0,030
-122,453	57,746	0,138	-0,098
-121,439	93,940	0,035	0,029
-120,424	-148,931	0,101	0,006
-119,410	80,887	0,089	-0,070
-118,395	799,782	-0,031	-0,063
-117,380	213,973	0,077	-0,089
-116,366	288,317	-0,055	-0,073
-115,351	-200,000	-0,007	0,045
-114,337	-200,000	-0,009	0,060
-113,322	-132,844	-0,103	-0,009
-112,307	800,000	0,078	-0,172
-111,293	-8,385	0,067	0,033
-110,278	800,000	-0,032	-0,094
-109,264	91,196	-0,029	-0,024
-108,249	800,000	-0,055	-0,141
-107,234	236,120	-0,064	-0,077
-106,220	-82,948	0,122	-0,028
-105,205	-97,961	-0,100	0,019
-104,191	-200,000	0,000	0,137
-103,176	-74,812	0,076	-0,020
-102,162	444,667	0,037	0,059
-101,147	234,723	0,090	-0,108
-100,132	-200,000	-0,043	-0,150
-99,118	-200,000	0,004	0,021
-98,103	386,925	-0,044	-0,066
-97,089	-200,000	-0,017	-0,147
-96,074	-200,000	-0,004	0,050
-95,059	99,588	0,016	-0,014
-94,045	232,240	0,064	-0,076
-93,030	800,000	0,055	-0,139
-92,016	800,000	-0,027	0,055
-91,001	346,349	0,086	-0,123
-89,986	-200,000	0,004	-0,029
-88,972	62,720	-0,065	-0,047
-87,957	-89,826	0,040	0,008
-86,943	730,158	0,008	0,015
-85,928	461,456	0,091	-0,147
-84,913	-200,000	-0,002	0,092
-83,899	800,000	0,031	-0,087
-82,884	-200,000	0,008	0,078
-81,870	14,565	0,049	0,028
-80,855	-6,712	0,056	0,027
-79,840	800,000	-0,034	-0,088
-78,826	-83,170	-0,098	-0,023
-77,811	800,000	-0,073	-0,205
-76,797	213,074	-0,053	-0,061
-75,782	800,000	-0,064	-0,146
-74,767	518,744	-0,041	0,070
-73,753	-121,899	-0,025	-0,003
-72,738	-49,440	-0,046	-0,016
-71,724	29,958	-0,142	0,088
-70,709	195,097	-0,127	-0,141
-69,694	-200,000	-0,010	0,095
-68,680	-200,000	0,005	0,138
-67,665	-92,184	-0,038	0,008
-66,651	95,443	0,078	-0,065
-65,636	221,365	-0,024	0,028
-64,622	-97,619	-0,056	-0,010
-63,607	-149,407	0,030	0,002
-62,592	-200,000	-0,005	0,083
-61,578	-13,747	0,094	-0,044
-60,563	181,151	0,046	0,049
-59,549	56,550	-0,020	0,014
-58,534	-163,880	-1,262	-0,042
-57,519	453,303	-0,835	-1,346
-56,505	-200,000	-0,926	-4,461
-55,490	32,737	0,618	-0,387
-54,476	800,000	5,029	11,833
-53,461	-200,000	13,493	253,254
-52,446	-200,000	689,736	2260,753
-51,432	591,915	1622,368	2919,172
-50,417	119,431	1635,027	1468,920
-49,403	73,274	1289,096	977,601
-48,388	38,121	1024,027	659,927
-47,373	24,392	982,015	587,689
-46,359	23,632	971,541	578,905
-45,344	22,636	967,364	573,138
-44,330	22,559	965,842	571,962
-43,315	22,419	964,432	570,649
-42,300	22,371	963,355	569,834
-41,286	22,426	962,406	569,427
-40,271	22,394	961,621	568,838
-39,257	22,438	960,409	568,239
-38,242	22,440	959,650	567,774
-37,227	22,440	958,635	567,151
-36,213	22,357	957,974	566,471
-35,198	22,357	956,993	565,867
-34,184	22,408	956,549	565,747
-33,169	22,389	955,337	564,945
-32,154	22,433	954,445	564,539
-31,140	22,435	953,576	564,008
-30,125	22,404	952,874	563,472
-29,111	22,411	952,215	563,081
-28,096	22,408	951,528	562,643
-27,082	22,391	950,857	562,170
-26,067	22,396	949,848	561,565
-25,052	22,417	949,292	561,282
-24,038	22,415	948,635	560,864
-23,023	22,393	947,859	560,316
-22,009	22,387	947,409	560,008
-20,994	22,480	946,688	559,856
-19,979	22,473	946,027	559,420
-18,965	22,438	945,499	558,976
-17,950	22,386	944,919	558,444
-16,936	22,381	944,227	557,995
-15,921	22,348	943,522	557,451
-14,906	22,353	942,829	557,035
-13,892	22,348	942,077	556,553
-12,877	22,305	941,544	556,082
-11,863	22,253	940,904	555,517
-10,848	22,266	940,553	555,329
-9,833	22,420	939,900	555,408
-8,819	22,416	939,122	554,912
-7,804	22,342	938,503	554,291
-6,790	22,306	938,047	553,888
-5,775	22,296	937,382	553,440
-4,760	22,308	936,761	553,089
-3,746	22,282	936,045	552,563
-2,731	22,177	935,482	551,876
-1,717	22,108	934,830	551,253
-0,702	22,129	934,089	550,860
0,313	21,969	933,446	550,808
1,327	25,040	931,481	559,256
2,342	34,579	796,112	503,395
3,356	32,707	451,316	282,531
4,371	1,880	293,444	152,976
5,386	-2,621	274,372	138,766
6,400	-4,353	268,558	134,208
7,415	-4,731	266,150	132,646
8,429	-4,544	265,091	132,277
9,444	-4,299	264,003	131,946
10,459	-4,228	263,553	131,774
11,473	-4,593	262,920	131,115
12,488	-4,428	262,277	130,932
13,502	-4,875	261,720	130,238
14,517	-4,669	261,342	130,224
15,531	-4,637	260,920	130,031
16,546	-4,415	260,643	130,081
17,561	-4,756	260,376	129,630
18,575	-4,438	259,879	129,656
19,590	-4,870	259,693	129,165
20,604	-4,561	259,297	129,232
21,619	-4,627	259,145	129,087
22,634	-4,491	258,556	128,903
23,648	-4,662	258,242	128,582
24,663	-4,585	257,999	128,518
25,677	-4,688	257,823	128,327
26,692	-4,637	257,593	128,247
27,707	-4,568	257,288	128,145
28,721	-4,738	257,113	127,896
29,736	-4,766	256,816	127,712
30,750	-4,825	256,608	127,545
31,765	-4,804	256,323	127,410
32,780	-4,788	256,044	127,275
33,794	-4,936	256,059	127,140
34,809	-4,843	255,627	126,996
35,823	-4,736	255,377	126,954
36,838	-4,994	255,267	126,662
37,853	-4,834	254,996	126,656
38,867	-4,944	254,644	126,374
39,882	-4,876	254,287	126,245
40,896	-4,822	254,280	126,277
41,911	-4,805	254,106	126,195
42,926	-4,944	253,750	125,886
43,940	-4,956	253,773	125,875
44,955	-4,941	253,534	125,758
45,969	-4,958	253,126	125,530
46,984	-5,087	252,897	125,293
47,999	-5,399	252,525	124,826
49,013	-5,513	252,330	124,620
50,028	-5,475	252,106	124,531
51,042	-5,609	251,801	124,253
52,057	-5,590	251,584	124,151
53,071	-5,557	251,403	124,079
54,086	-5,609	251,218	123,933
55,101	-5,429	250,981	123,960
56,115	-5,172	250,952	124,156
57,130	-4,706	250,921	124,531
58,144	-4,650	250,854	124,536
59,159	-4,473	250,391	124,447
60,174	-4,561	250,299	124,314
61,188	-4,611	250,132	124,178
62,203	-4,623	249,905	124,043
63,217	-4,900	249,922	123,804
64,232	-4,783	249,786	123,825
65,247	-4,920	249,348	123,480
66,261	-4,669	249,116	123,569
67,276	-4,873	248,813	123,233
68,290	-5,046	248,545	122,941
69,305	-5,378	248,341	122,546
70,320	-5,003	248,034	122,703
71,334	-4,897	247,878	122,706
72,349	-4,681	247,952	122,915
73,363	-4,748	247,743	122,743
74,378	-4,482	247,500	122,838
75,393	-4,727	247,268	122,504
76,407	-4,676	247,030	122,418
77,422	-4,823	246,836	122,186
78,436	-4,612	246,654	122,264
79,451	-4,574	246,493	122,206
80,466	-4,711	246,129	121,899
81,480	-4,775	245,987	121,764
82,495	-4,889	245,885	121,606
83,509	-4,858	245,550	121,456
84,524	-5,050	245,490	121,254
85,539	-5,120	245,229	121,055
86,553	-4,990	244,957	121,019
87,568	-5,028	244,783	120,890
88,582	-4,762	244,719	121,071
89,597	-5,090	244,390	120,623
90,611	-4,849	244,239	120,740
91,626	-4,859	244,223	120,712
92,641	-4,799	244,042	120,662
93,655	-4,741	243,898	120,629
94,670	-4,892	243,630	120,360
95,684	-4,871	243,489	120,296
96,699	-4,987	243,268	120,080
97,714	-4,835	243,055	120,091
98,728	-5,107	242,967	119,810
99,743	-5,138	242,708	119,646
100,757	-5,060	242,491	119,593
101,772	-5,126	242,371	119,468
102,787	-4,980	242,081	119,436
103,801	-5,067	241,991	119,309
104,816	-5,017	241,860	119,275
105,830	-4,732	241,652	119,397
106,845	-4,543	241,466	119,451
107,860	-4,617	241,288	119,292
108,874	-4,965	241,034	118,868
109,889	-4,978	240,760	118,711
110,903	-4,867	240,705	118,765
111,918	-4,856	240,487	118,656
112,933	-4,938	240,339	118,506
113,947	-4,560	240,198	118,736
114,962	-4,896	240,103	118,402
115,976	-4,856	239,924	118,336
116,991	-4,612	239,577	118,354
118,006	-4,818	239,563	118,168
119,020	-4,988	239,510	117,992
120,035	-4,691	239,258	118,100
121,049	-4,633	239,235	118,126
122,064	-4,712	239,011	117,940
123,079	-4,705	238,711	117,788
124,093	-5,021	238,666	117,497
125,108	-5,114	238,333	117,247
126,122	-5,312	238,039	116,930
127,137	-5,103	237,854	116,999
128,151	-5,276	237,738	116,791
129,166	-5,253	237,747	116,804
130,181	-5,120	237,440	116,751
131,195	-5,041	237,139	116,656
132,210	-4,969	236,978	116,625
133,224	-5,119	236,985	116,496
134,239	-4,759	236,681	116,628
135,254	-4,873	236,615	116,493
136,268	-4,916	236,307	116,296
137,283	-5,047	235,976	116,017
138,297	-5,227	235,916	115,832
139,312	-5,339	235,823	115,686
140,327	-4,851	235,678	115,997
141,341	-4,595	235,743	116,225
142,356	-4,447	235,556	116,241
143,370	-4,278	235,400	116,290
144,385	-4,587	235,333	115,998
145,400	-4,320	234,973	116,024
146,414	-4,566	234,862	115,762
147,429	-4,506	234,707	115,723
148,443	-4,525	234,617	115,653
149,458	-4,420	234,378	115,609
150,473	-4,399	234,118	115,487
151,487	-4,609	234,072	115,287
152,502	-4,516	233,951	115,292
153,516	-4,336	233,639	115,271
154,531	-4,518	233,583	115,088
155,546	-4,497	233,395	115,002
156,560	-4,593	233,185	114,811
157,575	-4,613	232,976	114,682
158,589	-4,601	232,823	114,607
159,604	-4,526	232,647	114,569
160,619	-4,222	232,564	114,759
161,633	-4,149	232,380	114,716
162,648	-4,421	232,303	114,452
163,662	-4,438	232,150	114,353
164,677	-4,559	231,779	114,065
165,692	-4,396	231,770	114,179
166,706	-4,087	231,549	114,303
167,721	-4,376	231,583	114,082
168,735	-4,242	231,462	114,118
169,750	-4,358	231,273	113,923
170,764	-4,433	231,065	113,752
171,779	-4,460	230,966	113,672
172,794	-4,231	230,798	113,758
173,808	-4,572	230,563	113,365
174,823	-5,066	230,236	112,807
175,837	-5,068	230,056	112,708
176,852	-4,667	230,011	112,989
177,867	-4,555	229,936	113,029
178,881	-4,544	229,852	112,987
179,896	-4,313	229,597	113,031
180,910	-4,417	229,465	112,875
181,925	-4,221	229,228	112,902
182,940	-4,392	229,213	112,751
183,954	-4,335	228,971	112,666
184,969	-4,420	228,850	112,531
185,983	-4,398	228,760	112,493
186,998	-4,345	228,696	112,493
188,013	-4,280	228,650	112,511
189,027	-4,231	228,357	112,394
190,042	-4,284	228,127	112,230
191,056	-4,223	227,991	112,200
192,071	-4,293	227,930	112,107
193,086	-4,132	227,710	112,113
194,100	-4,275	227,539	111,908
195,115	-4,711	227,219	111,405
196,129	-5,019	226,944	111,022
197,144	-2,382	227,811	113,475
198,159	1,282	228,863	116,830
199,173	3,878	229,554	119,187
200,188	4,076	229,630	119,368
201,202	4,224	229,316	119,310
202,217	4,538	229,150	119,455
203,232	4,789	229,053	119,588
204,246	4,700	228,921	119,439
205,261	4,678	228,884	119,393
206,275	5,028	228,721	119,567
207,290	5,047	228,490	119,451
208,304	5,062	228,403	119,406
209,319	4,884	228,214	119,160
210,334	4,740	228,142	119,000
211,348	4,807	227,732	118,827
212,363	4,524	227,383	118,417
213,377	4,068	227,412	118,073
214,392	4,145	227,138	117,979
215,407	4,207	227,108	118,000
216,421	4,278	226,873	117,921
217,436	4,199	226,780	117,802
218,450	3,993	226,493	117,485
219,465	3,710	226,585	117,307
220,480	3,825	226,326	117,250
221,494	3,950	226,143	117,240
222,509	4,038	226,104	117,276
223,523	4,170	225,764	117,190
224,538	3,746	225,793	116,872
225,553	3,859	225,704	116,901
226,567	4,124	225,542	117,008
227,582	4,470	225,309	117,140
228,596	4,502	225,154	117,072
229,611	4,274	225,057	116,839
230,626	3,962	224,887	116,504
231,640	4,070	224,538	116,395
232,655	4,495	224,515	116,694
233,669	4,788	224,551	116,924
234,684	4,679	224,403	116,753
235,699	4,322	224,203	116,369
236,713	4,062	224,144	116,133
237,728	4,195	223,833	116,062
238,742	4,072	223,651	115,864
239,757	4,063	223,478	115,757
240,772	4,103	223,351	115,711
241,786	3,924	223,275	115,527
242,801	4,121	223,185	115,618
243,815	4,264	223,053	115,646
244,830	4,530	222,893	115,753
245,844	4,198	222,685	115,386
246,859	4,334	222,528	115,396
247,874	4,339	222,495	115,372
248,888	4,137	222,361	115,142
249,903	4,105	222,201	115,024
250,917	4,356	221,926	115,059
251,932	4,084	221,680	114,718
252,947	3,859	221,691	114,546
253,961	4,111	221,505	114,628
254,976	4,046	221,386	114,508
255,990	4,250	221,235	114,571
257,005	4,254	221,124	114,506
258,020	4,255	221,178	114,525
259,034	4,241	221,048	114,437
260,049	4,555	220,581	114,417
261,063	4,337	220,568	114,239
262,078	4,284	220,548	114,180
263,093	4,562	220,423	114,310
264,107	4,283	220,216	113,986
265,122	4,385	220,255	114,072
266,136	4,657	219,968	114,113
267,151	4,635	219,852	114,027
268,166	4,130	219,573	113,501
269,180	3,868	219,261	113,136
270,195	3,958	219,247	113,185
271,209	3,869	219,073	113,020
272,224	4,019	218,977	113,070
273,239	4,134	218,932	113,121
274,253	4,013	218,560	112,830
275,268	3,962	218,424	112,712
276,282	3,903	218,278	112,584
277,297	3,854	218,127	112,460
278,312	3,889	218,183	112,504
279,326	3,992	218,070	112,512
280,341	4,048	217,772	112,388
281,355	4,158	217,719	112,432
282,370	4,088	217,585	112,301
283,384	3,874	217,480	112,081
284,399	3,825	217,187	111,885
285,414	3,727	217,126	111,772
286,428	3,946	217,085	111,900
287,443	4,171	216,894	111,955
288,457	4,134	216,892	111,917
289,472	4,182	216,562	111,772
290,487	3,722	216,184	111,234
291,501	3,402	216,213	111,007
292,516	3,868	216,139	111,296
293,530	3,913	215,939	111,216
294,545	4,042	215,673	111,163
295,560	3,902	215,767	111,100
296,574	3,964	215,651	111,075
297,589	3,891	215,452	110,909
298,603	4,189	215,429	111,103
299,618	4,262	215,164	111,009
300,633	3,948	215,202	110,793
301,647	4,450	214,933	111,005
302,662	4,181	214,935	110,803
303,676	4,289	214,713	110,756
304,691	4,352	214,644	110,756
305,706	4,257	214,492	110,599
306,720	4,284	214,324	110,522
307,735	4,164	214,216	110,371
308,749	3,992	214,002	110,127
309,764	4,384	213,854	110,322
310,779	4,509	213,728	110,336
311,793	4,176	213,700	110,074
312,808	4,300	213,449	110,024
313,822	4,133	213,283	109,809
314,837	4,067	213,149	109,683
315,852	3,994	212,872	109,479
316,866	3,788	213,010	109,393
317,881	4,185	212,790	109,553
318,895	4,311	212,756	109,616
319,910	4,116	212,412	109,290
320,925	3,903	212,261	109,052
321,939	3,536	212,118	108,709
322,954	3,628	211,954	108,679
323,968	4,126	211,892	108,990
324,983	4,003	212,004	108,951
325,997	4,111	211,778	108,902
327,012	4,131	211,507	108,767
328,027	3,993	211,432	108,622
329,041	4,364	211,376	108,845
330,056	4,561	211,258	108,913
331,070	4,144	210,967	108,460
332,085	3,975	210,806	108,248
333,100	3,861	210,657	108,082
334,114	4,100	210,584	108,203
335,129	4,218	210,503	108,234
336,143	4,063	210,356	108,041
337,158	3,867	210,151	107,788
338,173	3,976	210,118	107,838
339,187	3,783	209,930	107,597
340,202	3,751	209,746	107,470
341,216	3,788	209,636	107,430
342,231	3,749	209,425	107,285
343,246	3,703	209,302	107,181
344,260	3,966	209,251	107,328
345,275	3,988	209,199	107,307
346,289	4,076	209,105	107,311
347,304	4,163	208,814	107,213
348,319	3,865	208,649	106,911
349,333	4,142	208,657	107,099
350,348	4,131	208,461	106,981
351,362	4,340	208,493	107,133
352,377	4,286	208,216	106,943
353,392	4,130	208,022	106,726
354,406	4,099	208,168	106,770
355,421	194,638	1344,702	1435,911
356,435	155,325	1483,275	1436,027
