DTS Sentinel unit serial number:	SN410029Multiplexer serial number:	ORYXHardware model number:	OX2-SRSoftware version number:	ORYX F/W v4,00 Oryx Data Collector v3.7.2.0data status	okinstallation	B6 Nyhavnadifferential loss correction	single-endedforward channel	channel 2reverse channel	N/Adate	2023/12/09time	05:10:08forward acquisition time	300,00reverse acquisition time	0,00gamma	499,1914k internal	0,3144k external	0,3144temperature offset calibration	1,0000default loss term (dB/km)	0,3820temperature slope calibration	1,0000multiplexer offset coefficient	1,0000multiplexer slope coefficient	1,0000fibre end	0,00T internal ref (°C)	17,67T ext. ref 1 (°C)	2,19T ext. ref 2 (°C)	2,21length (m)	temperature (°C)	Stokes	anti-Stokes-744,400	-2,410	0,098	-0,051
-743,385	-97,690	-0,153	0,029
-742,371	205,109	0,092	0,106
-741,356	-105,286	-0,189	0,032
-740,342	574,925	-0,026	0,047
-739,327	-137,073	-0,276	-0,023
-738,312	-128,125	0,062	0,006
-737,298	-66,443	-0,217	0,063
-736,283	6,985	0,112	0,062
-735,269	28,803	-0,144	0,090
-734,254	187,342	0,078	-0,086
-733,239	-27,378	-0,353	-0,152
-732,225	-50,208	0,134	0,047
-731,210	800,000	-0,034	-0,100
-730,196	800,000	-0,028	-0,068
-729,181	65,081	0,047	-0,035
-728,167	-110,906	-0,031	0,005
-727,152	-200,000	-0,033	-0,136
-726,137	11,274	0,009	-0,005
-725,123	-80,090	0,037	0,009
-724,108	63,051	-0,095	-0,071
-723,094	12,552	-0,132	-0,075
-722,079	-165,536	0,049	-0,002
-721,064	438,159	-0,028	-0,045
-720,050	46,624	0,006	0,004
-719,035	-69,747	-0,057	0,016
-718,021	539,407	-0,058	-0,102
-717,006	204,587	-0,125	-0,144
-715,991	800,000	-0,066	-0,150
-714,977	100,335	-0,143	-0,122
-713,962	71,537	-0,048	-0,037
-712,948	-200,000	-0,024	0,091
-711,933	-200,000	-0,006	0,030
-710,918	-200,000	-0,005	-0,048
-709,904	-200,000	-0,001	-0,097
-708,889	-41,951	-0,055	-0,021
-707,875	-200,000	0,025	-0,107
-706,860	191,827	-0,008	-0,009
-705,845	-200,000	-0,010	0,035
-704,831	247,260	-0,026	-0,032
-703,816	-200,000	0,006	0,107
-702,802	75,127	-0,052	-0,041
-701,787	-200,000	-0,028	-0,095
-700,772	-200,000	-0,029	-0,211
-699,758	-23,573	-0,059	-0,026
-698,743	-67,454	0,089	-0,026
-697,729	-4,894	0,113	0,058
-696,714	36,653	-0,027	0,018
-695,699	-87,903	0,122	0,027
-694,685	314,936	-0,039	-0,055
-693,670	-47,110	-0,156	-0,056
-692,656	731,304	-0,021	0,043
-691,641	-31,855	-0,095	0,039
-690,627	595,206	-0,050	0,092
-689,612	42,316	-0,073	-0,049
-688,597	-79,339	-0,110	0,027
-687,583	-61,864	-0,062	0,019
-686,568	800,000	-0,026	0,082
-685,554	48,360	0,062	0,043
-684,539	284,970	-0,050	-0,067
-683,524	125,630	-0,092	-0,086
-682,510	-152,328	0,042	-0,002
-681,495	-66,994	-0,067	-0,019
-680,481	213,786	-0,063	-0,074
-679,466	34,769	-0,032	-0,020
-678,451	-200,000	-0,017	-0,106
-677,437	-200,000	0,006	-0,095
-676,422	-200,000	-0,018	-0,166
-675,408	-74,956	0,174	-0,046
-674,393	-177,581	-0,219	0,004
-673,378	228,123	-0,045	-0,054
-672,364	-200,000	-0,006	-0,055
-671,349	247,960	-0,080	-0,100
-670,335	-84,897	-0,042	0,010
-669,320	-200,000	0,018	0,086
-668,305	207,706	0,046	-0,053
-667,291	-46,149	-0,178	-0,064
-666,276	330,346	-0,051	0,072
-665,262	-200,000	-0,003	-0,027
-664,247	-39,523	-0,128	0,049
-663,232	61,232	0,081	-0,059
-662,218	-29,558	-0,012	-0,005
-661,203	-70,704	0,194	0,054
-660,189	58,775	0,154	0,112
-659,174	-15,072	-0,065	-0,031
-658,159	6,935	-0,062	0,034
-657,145	-200,000	-0,035	0,128
-656,130	-200,000	0,002	-0,133
-655,116	-200,000	0,036	-0,165
-654,101	800,000	-0,024	0,054
-653,086	-200,000	-0,025	-0,105
-652,072	-200,000	0,012	0,049
-651,057	241,834	-0,036	-0,045
-650,043	800,000	-0,077	-0,162
-649,028	-61,166	0,014	-0,004
-648,014	-55,664	-0,069	-0,023
-646,999	178,527	0,017	0,018
-645,984	2,977	-0,093	0,049
-644,970	-200,000	-0,010	0,051
-643,955	-190,891	-0,010	0,000
-642,941	-129,873	-0,028	-0,003
-641,926	800,000	0,029	-0,060
-640,911	-200,000	0,007	-0,036
-639,897	10,767	0,160	-0,090
-638,882	107,775	-0,073	0,064
-637,868	240,864	-0,063	-0,078
-636,853	-13,759	-0,066	0,031
-635,838	405,782	-0,013	0,021
-634,824	323,952	0,058	-0,082
-633,809	474,385	0,078	0,130
-632,795	800,000	0,024	0,053
-631,780	-200,000	-0,043	0,139
-630,765	-200,000	0,026	0,164
-629,751	800,000	0,067	0,211
-628,736	-200,000	0,019	0,127
-627,722	421,804	-0,027	0,042
-626,707	800,000	-0,044	0,107
-625,692	-24,882	0,057	0,025
-624,678	-88,060	0,053	0,012
-623,663	98,222	-0,029	-0,025
-622,649	-71,250	0,064	-0,018
-621,634	-174,587	-0,161	0,003
-620,619	-126,292	0,060	-0,007
-619,605	6,181	0,062	-0,034
-618,590	-160,069	0,072	-0,003
-617,576	800,000	0,053	0,151
-616,561	288,085	0,082	0,110
-615,546	157,982	0,115	0,118
-614,532	800,000	-0,062	-0,134
-613,517	-200,000	0,008	-0,066
-612,503	-199,708	0,108	0,000
-611,488	-200,000	0,008	-0,076
-610,474	103,308	0,049	-0,042
-609,459	657,971	-0,037	0,070
-608,444	-200,000	-0,021	-0,119
-607,430	800,000	-0,059	-0,132
-606,415	-200,000	-0,004	0,127
-605,401	122,065	-0,130	-0,119
-604,386	86,956	-0,040	0,033
-603,371	449,252	0,022	-0,036
-602,357	800,000	-0,053	0,116
-601,342	597,316	-0,036	0,066
-600,328	157,055	0,058	-0,059
-599,313	-200,000	-0,010	0,130
-598,298	161,445	-0,027	-0,028
-597,284	800,000	0,026	-0,080
-596,269	800,000	0,023	0,050
-595,255	174,997	-0,044	-0,047
-594,240	-33,372	-0,103	-0,042
-593,225	-48,346	-0,041	0,015
-592,211	75,523	0,008	-0,006
-591,196	426,679	-0,036	0,057
-590,182	-200,000	-0,007	-0,069
-589,167	-89,755	0,080	0,017
-588,152	-200,000	0,012	0,100
-587,138	431,218	-0,025	-0,040
-586,123	141,165	-0,035	-0,034
-585,109	-200,000	0,009	0,162
-584,094	800,000	-0,042	0,106
-583,079	123,755	-0,067	0,062
-582,065	-200,000	-0,016	0,124
-581,050	800,000	0,024	0,056
-580,036	-183,193	-0,071	-0,001
-579,021	-200,000	0,002	-0,030
-578,006	406,077	0,045	-0,070
-576,992	-200,000	0,057	0,000
-575,977	-200,000	0,003	-0,182
-574,963	-200,000	-0,002	0,048
-573,948	155,962	0,126	0,128
-572,934	-200,000	0,010	-0,236
-571,919	-94,870	-0,060	-0,012
-570,904	-79,579	0,082	-0,020
-569,890	-42,016	-0,081	-0,030
-568,875	434,503	-0,037	-0,060
-567,861	-137,378	0,102	-0,008
-566,846	662,878	-0,084	0,160
-565,831	137,653	0,158	-0,153
-564,817	-102,939	-0,022	0,004
-563,802	125,457	-0,045	0,042
-562,788	800,000	-0,041	-0,109
-561,773	800,000	0,016	0,046
-560,758	9,846	-0,037	-0,021
-559,744	800,000	0,006	-0,014
-558,729	-35,138	0,029	-0,012
-557,715	-200,000	-0,014	-0,062
-556,700	-200,000	-0,014	-0,102
-555,685	122,044	-0,145	-0,133
-554,671	-200,000	-0,012	-0,054
-553,656	-77,088	0,137	0,035
-552,642	502,350	0,041	0,070
-551,627	-200,000	0,007	-0,046
-550,612	66,129	-0,041	-0,030
-549,598	-52,627	-0,083	-0,028
-548,583	17,918	-0,090	0,052
-547,569	800,000	-0,041	0,114
-546,554	-200,000	-0,004	0,043
-545,539	341,446	0,068	0,098
-544,525	-1,560	0,077	0,040
-543,510	18,458	-0,084	0,049
-542,496	226,329	-0,115	0,137
-541,481	-200,000	-0,001	-0,055
-540,466	-172,234	-0,022	0,001
-539,452	-141,984	-0,045	-0,003
-538,437	38,438	0,119	-0,078
-537,423	-200,000	-0,007	0,045
-536,408	800,000	-0,006	0,019
-535,393	566,534	-0,008	-0,014
-534,379	-200,000	0,021	-0,079
-533,364	-200,000	0,002	0,299
-532,350	-200,000	-0,022	0,087
-531,335	423,066	0,004	-0,007
-530,321	-92,653	0,129	-0,026
-529,306	139,641	-0,083	0,081
-528,291	76,457	0,083	-0,064
-527,277	611,883	-0,047	0,087
-526,262	-126,864	-0,077	-0,008
-525,248	-156,470	0,098	0,004
-524,233	115,591	-0,051	0,046
-523,218	-200,000	0,006	0,086
-522,204	340,213	-0,029	0,042
-521,189	-200,000	-0,010	-0,109
-520,175	-200,000	-0,042	-0,147
-519,160	800,000	0,042	0,087
-518,145	329,630	0,119	-0,169
-517,131	34,888	0,126	0,081
-516,116	-115,987	-0,056	0,008
-515,102	25,773	-0,070	-0,043
-514,087	-122,459	-0,099	0,012
-513,072	374,913	0,051	-0,077
-512,058	494,368	0,061	-0,103
-511,043	39,918	-0,030	-0,020
-510,029	-200,000	-0,029	0,097
-509,014	-200,000	-0,002	-0,197
-507,999	800,000	-0,026	-0,058
-506,985	-200,000	-0,016	-0,128
-505,970	800,000	0,039	-0,117
-504,956	-200,000	-0,035	-0,119
-503,941	223,951	-0,070	-0,083
-502,926	87,294	0,054	0,044
-501,912	-8,160	0,131	-0,064
-500,897	187,243	-0,010	-0,011
-499,883	-200,000	0,027	-0,146
-498,868	129,039	-0,056	-0,053
-497,853	80,849	0,094	-0,074
-496,839	-200,000	0,001	-0,060
-495,824	771,289	-0,042	0,085
-494,810	188,328	0,120	0,131
-493,795	284,040	0,062	-0,082
-492,781	196,771	0,066	-0,074
-491,766	-200,000	-0,036	-0,145
-490,751	-200,000	-0,005	-0,032
-489,737	659,000	0,057	-0,107
-488,722	800,000	-0,021	-0,053
-487,708	-59,822	0,032	0,010
-486,693	325,010	-0,076	-0,107
-485,678	-132,986	-0,139	-0,013
-484,664	285,007	-0,046	-0,061
-483,649	-133,099	-0,230	-0,021
-482,635	113,586	0,110	-0,098
-481,620	228,723	-0,017	0,020
-480,605	23,681	0,020	-0,012
-479,591	760,208	0,017	0,035
-478,576	800,000	0,025	0,077
-477,562	-200,000	-0,047	-0,154
-476,547	-200,000	0,010	-0,094
-475,532	800,000	0,009	-0,025
-474,518	-200,000	0,000	-0,016
-473,503	303,218	-0,059	-0,080
-472,489	16,455	-0,091	0,052
-471,474	18,251	0,128	0,075
-470,459	-41,065	-0,116	-0,044
-469,445	447,739	0,041	-0,066
-468,430	177,657	-0,100	0,107
-467,416	800,000	0,041	-0,106
-466,401	-50,537	0,063	-0,022
-465,386	-3,662	0,113	0,057
-464,372	86,396	-0,049	0,039
-463,357	210,829	-0,062	0,072
-462,343	-200,000	-0,012	0,066
-461,328	166,199	0,051	-0,053
-460,313	111,042	0,101	0,089
-459,299	66,623	-0,015	-0,011
-458,284	800,000	-0,043	-0,108
-457,270	-200,000	-0,018	-0,079
-456,255	54,834	-0,122	-0,086
-455,241	-100,545	-0,053	0,010
-454,226	800,000	-0,033	0,081
-453,211	800,000	-0,046	0,107
-452,197	-1,066	0,077	0,040
-451,182	-97,586	0,104	0,020
-450,168	206,848	0,069	0,079
-449,153	494,339	-0,070	-0,118
-448,138	800,000	-0,047	0,116
-447,124	-200,000	-0,025	0,093
-446,109	13,038	-0,122	0,069
-445,095	270,729	0,092	0,119
-444,080	-192,398	0,022	-0,000
-443,065	-112,149	0,023	0,003
-442,051	-200,000	-0,023	-0,163
-441,036	-105,266	-0,051	-0,008
-440,022	443,747	-0,085	-0,137
-439,007	800,000	0,021	0,045
-437,992	525,797	-0,048	0,083
-436,978	288,268	-0,034	0,045
-435,963	-32,796	-0,178	0,072
-434,949	-41,925	0,101	-0,037
-433,934	127,751	0,091	-0,084
-432,919	195,935	-0,026	-0,029
-431,905	261,445	0,018	0,023
-430,890	800,000	-0,017	0,040
-429,876	-82,861	-0,020	-0,005
-428,861	128,422	0,103	0,096
-427,846	170,089	0,028	0,030
-426,832	-35,227	-0,148	0,059
-425,817	121,339	-0,066	0,060
-424,803	-71,353	0,087	-0,024
-423,788	800,000	0,035	-0,092
-422,773	60,233	0,085	0,061
-421,759	583,257	-0,050	0,089
-420,744	231,746	0,065	0,078
-419,730	17,820	-0,123	-0,072
-418,715	99,551	-0,124	0,105
-417,701	-200,000	-0,001	0,023
-416,686	-200,000	-0,009	-0,047
-415,671	113,807	0,076	0,068
-414,657	531,479	0,015	-0,026
-413,642	-200,000	-0,018	-0,083
-412,628	188,196	-0,037	0,040
-411,613	23,856	0,060	-0,036
-410,598	-200,000	0,021	-0,114
-409,584	-115,667	0,116	0,016
-408,569	307,599	-0,052	0,072
-407,555	-200,000	0,036	0,157
-406,540	-90,338	-0,056	-0,012
-405,525	-200,000	0,042	0,145
-404,511	787,304	-0,026	-0,052
-403,496	-147,349	-0,091	-0,006
-402,482	-200,000	-0,014	-0,097
-401,467	-63,706	0,143	-0,043
-400,452	-149,555	0,065	-0,004
-399,438	-200,000	0,012	0,073
-398,423	160,340	0,063	0,064
-397,409	-200,000	-0,036	-0,132
-396,394	-87,674	0,063	0,014
-395,379	800,000	0,043	0,138
-394,365	800,000	0,082	0,207
-393,350	-26,923	0,137	-0,058
-392,336	-200,000	-0,015	0,114
-391,321	-200,000	0,027	-0,163
-390,306	-200,000	-0,010	0,158
-389,292	554,024	-0,057	-0,100
-388,277	403,912	0,099	-0,153
-387,263	-10,034	-0,138	-0,067
-386,248	71,664	0,079	-0,060
-385,233	28,061	0,044	-0,027
-384,219	800,000	-0,082	0,167
-383,204	800,000	-0,030	-0,064
-382,190	260,494	-0,057	0,072
-381,175	630,984	-0,060	-0,111
-380,160	-200,000	-0,000	0,101
-379,146	139,491	0,077	0,074
-378,131	1,186	0,078	-0,041
-377,117	-200,000	-0,010	0,065
-376,102	339,825	-0,091	-0,130
-375,088	-82,602	-0,102	0,024
-374,073	230,099	0,068	0,082
-373,058	-119,293	-0,074	0,009
-372,044	-149,940	-0,038	0,002
-371,029	-158,418	-0,011	-0,000
-370,015	115,891	-0,094	0,084
-369,000	-124,325	-0,009	0,001
-367,985	54,075	-0,165	-0,115
-366,971	-73,478	0,115	0,030
-365,956	-200,000	-0,011	-0,124
-364,942	-171,054	-0,074	0,002
-363,927	204,952	0,096	0,108
-362,912	-45,456	-0,066	0,024
-361,898	44,232	-0,027	-0,018
-360,883	800,000	-0,031	-0,095
-359,869	800,000	0,044	-0,106
-358,854	-200,000	0,002	-0,058
-357,839	-200,000	-0,005	-0,046
-356,825	-200,000	0,008	-0,080
-355,810	176,230	0,062	0,066
-354,796	52,401	0,202	-0,140
-353,781	-14,769	-0,128	-0,060
-352,766	167,549	-0,075	0,078
-351,752	-103,349	-0,098	0,017
-350,737	800,000	-0,024	-0,054
-349,723	-41,090	0,146	-0,055
-348,708	102,910	0,125	-0,107
-347,693	86,826	-0,015	-0,012
-346,679	-200,000	-0,032	-0,159
-345,664	-200,000	0,023	-0,076
-344,650	800,000	-0,040	0,105
-343,635	67,990	0,062	-0,046
-342,620	-200,000	0,006	0,109
-341,606	47,062	-0,040	0,027
-340,591	800,000	-0,018	-0,044
-339,577	-200,000	0,017	0,067
-338,562	10,811	-0,155	0,086
-337,548	-200,000	0,021	-0,079
-336,533	134,647	0,035	0,033
-335,518	42,740	0,058	-0,038
-334,504	800,000	0,033	-0,084
-333,489	30,055	0,129	0,080
-332,475	-123,821	-0,145	0,016
-331,460	800,000	-0,025	-0,064
-330,445	-127,417	-0,069	0,007
-329,431	-167,091	-0,084	0,002
-328,416	678,382	-0,005	0,010
-327,402	616,480	0,118	0,217
-326,387	-200,000	0,000	0,219
-325,372	-184,284	-0,021	-0,000
-324,358	579,503	-0,062	-0,111
-323,343	-200,000	-0,021	-0,149
-322,329	800,000	-0,044	-0,090
-321,314	-200,000	0,031	0,175
-320,299	11,332	0,027	0,015
-319,285	104,497	-0,051	0,044
-318,270	-200,000	-0,031	-0,114
-317,256	21,037	-0,149	-0,088
-316,241	-123,061	-0,123	-0,014
-315,226	-171,669	0,095	0,002
-314,212	800,000	0,052	0,116
-313,197	207,184	-0,013	-0,015
-312,183	9,616	0,079	0,043
-311,168	-52,180	-0,163	-0,055
-310,153	-171,460	-0,044	0,001
-309,139	-200,000	0,000	-0,069
-308,124	-63,793	-0,044	-0,013
-307,110	264,696	0,078	-0,099
-306,095	177,726	0,031	-0,033
-305,080	266,988	-0,047	0,060
-304,066	-37,483	-0,062	0,024
-303,051	36,198	-0,151	-0,097
-302,037	165,520	0,022	-0,023
-301,022	-17,659	0,046	0,021
-300,008	-200,000	-0,032	-0,169
-298,993	-79,813	0,062	-0,015
-297,978	-32,985	0,105	0,042
-296,964	-13,111	0,078	-0,037
-295,949	-200,000	0,003	0,045
-294,935	-200,000	0,004	0,077
-293,920	72,705	0,056	0,042
-292,905	133,354	0,063	0,059
-291,891	-75,574	0,240	-0,062
-290,876	-132,362	0,139	-0,013
-289,862	-142,221	-0,093	-0,007
-288,847	410,137	-0,044	0,067
-287,832	-70,577	-0,096	0,026
-286,818	-200,000	0,004	0,023
-285,803	-200,000	-0,023	0,145
-284,789	122,431	-0,072	-0,065
-283,774	104,678	-0,081	0,070
-282,759	388,731	-0,067	0,101
-281,745	-26,087	0,106	-0,045
-280,730	99,883	-0,029	-0,025
-279,716	82,903	-0,064	-0,051
-278,701	-200,000	0,008	0,066
-277,686	416,791	0,014	0,021
-276,672	-130,887	0,070	-0,007
-275,657	800,000	-0,025	-0,061
-274,643	800,000	0,062	-0,135
-273,628	800,000	-0,084	-0,177
-272,613	-165,566	0,085	-0,003
-271,599	564,611	0,042	-0,075
-270,584	800,000	-0,024	0,061
-269,570	-200,000	0,015	0,084
-268,555	-46,414	0,164	-0,058
-267,540	-5,973	0,019	-0,009
-266,526	499,248	0,034	-0,057
-265,511	485,488	-0,042	0,070
-264,497	-166,325	0,123	-0,004
-263,482	-117,760	-0,127	-0,016
-262,467	-99,367	0,039	0,007
-261,453	87,362	0,121	0,097
-260,438	-96,220	-0,082	0,016
-259,424	240,951	0,048	0,059
-258,409	-94,503	-0,065	-0,013
-257,395	-200,000	0,009	0,111
-256,380	264,699	0,061	0,078
-255,365	800,000	-0,014	-0,037
-254,351	-31,222	0,099	-0,040
-253,336	663,490	-0,029	-0,055
-252,322	800,000	-0,008	-0,024
-251,307	-200,000	0,027	0,099
-250,292	-17,051	-0,032	0,014
-249,278	45,310	0,041	-0,027
-248,263	-26,063	0,100	0,043
-247,249	-130,229	-0,027	0,003
-246,234	286,194	-0,012	-0,016
-245,219	76,322	0,052	-0,040
-244,205	294,233	0,028	0,038
-243,190	256,321	0,020	0,025
-242,176	438,343	0,090	-0,144
-241,161	307,982	0,016	0,021
-240,146	-10,643	-0,057	0,027
-239,132	220,837	-0,056	0,066
-238,117	-92,219	0,016	-0,003
-237,103	185,604	-0,055	-0,059
-236,088	53,901	-0,064	-0,045
-235,073	132,065	0,026	-0,025
-234,059	256,683	0,063	-0,079
-233,044	-157,051	-0,046	0,002
-232,030	339,111	-0,090	0,128
-231,015	336,666	-0,053	-0,074
-230,000	266,852	0,048	0,061
-228,986	-200,000	-0,007	0,133
-227,971	-180,187	-0,078	0,001
-226,957	800,000	0,065	0,173
-225,942	20,903	-0,145	-0,085
-224,927	-142,284	0,110	0,008
-223,913	-200,000	-0,024	0,113
-222,898	-28,278	-0,048	-0,020
-221,884	273,355	0,062	-0,079
-220,869	800,000	0,028	-0,074
-219,855	-123,526	-0,071	0,008
-218,840	215,713	0,057	0,066
-217,825	800,000	0,090	0,185
-216,811	-78,972	-0,082	-0,020
-215,796	194,434	-0,050	-0,055
-214,782	-134,697	0,155	0,013
-213,767	103,411	-0,050	0,043
-212,752	685,946	0,088	-0,168
-211,738	-111,889	-0,092	0,013
-210,723	-200,000	0,045	-0,148
-209,709	574,016	-0,039	-0,070
-208,694	800,000	0,017	-0,035
-207,679	93,331	0,051	0,042
-206,665	-200,000	-0,023	0,139
-205,650	-200,000	0,001	0,078
-204,636	135,336	0,058	0,055
-203,621	-113,561	0,072	-0,010
-202,606	800,000	-0,020	-0,048
-201,592	-104,784	-0,129	0,021
-200,577	-55,224	0,054	-0,018
-199,563	-64,046	0,086	0,025
-198,548	-55,715	0,049	-0,016
-197,533	14,157	0,041	-0,023
-196,519	-64,071	0,058	-0,017
-195,504	67,858	-0,051	-0,038
-194,490	800,000	0,026	0,077
-193,475	-125,609	-0,130	-0,014
-192,460	-185,561	-0,124	-0,001
-191,446	-200,000	-0,013	-0,088
-190,431	119,844	0,020	0,018
-189,417	-200,000	-0,020	0,109
-188,402	-3,117	0,049	-0,025
-187,387	264,807	-0,012	0,015
-186,373	800,000	0,056	-0,131
-185,358	-200,000	0,011	-0,136
-184,344	-152,883	0,093	-0,005
-183,329	-200,000	0,015	-0,142
-182,315	-200,000	-0,003	0,079
-181,300	800,000	0,043	0,134
-180,285	227,344	-0,093	-0,110
-179,271	475,069	-0,051	0,083
-178,256	664,843	-0,025	-0,047
-177,242	-115,841	-0,108	0,014
-176,227	103,510	0,054	0,046
-175,212	131,944	0,102	0,095
-174,198	142,897	0,032	-0,031
-173,183	8,664	-0,076	0,041
-172,169	230,027	-0,088	0,105
-171,154	-200,000	0,003	-0,095
-170,139	171,847	-0,016	0,016
-169,125	28,060	0,100	0,061
-168,110	-71,223	0,057	-0,015
-167,096	45,376	0,120	0,080
-166,081	800,000	0,083	-0,184
-165,066	5,688	-0,196	-0,105
-164,052	-55,862	-0,137	-0,044
-163,037	-200,000	0,018	0,137
-162,023	-200,000	0,006	0,052
-161,008	-100,875	0,068	0,012
-159,993	800,000	0,042	0,125
-158,979	110,021	-0,079	0,069
-157,964	-145,074	0,049	0,003
-156,950	159,344	0,045	-0,045
-155,935	-63,622	-0,032	-0,009
-154,920	43,538	0,137	0,090
-153,906	250,392	0,058	0,071
-152,891	111,692	-0,178	-0,155
-151,877	-200,000	0,034	-0,139
-150,862	-128,983	0,078	0,008
-149,847	800,000	-0,062	-0,154
-148,833	-44,067	0,065	0,024
-147,818	-72,776	0,082	-0,022
-146,804	-200,000	-0,011	-0,085
-145,789	192,820	0,071	-0,078
-144,775	342,748	-0,064	0,091
-143,760	135,862	0,124	-0,117
-142,745	157,635	0,071	0,072
-141,731	43,208	-0,083	-0,055
-140,716	17,823	0,139	-0,080
-139,702	-200,000	0,022	0,084
-138,687	-200,000	0,038	-0,157
-137,672	164,983	0,017	0,017
-136,658	-176,484	-0,037	-0,001
-135,643	135,424	0,173	0,163
-134,629	-200,000	0,013	-0,083
-133,614	-99,598	0,165	-0,030
-132,599	677,089	-0,053	0,100
-131,585	23,885	-0,102	-0,060
-130,570	-200,000	-0,002	0,042
-129,556	-109,746	-0,087	0,013
-128,541	800,000	0,031	-0,097
-127,526	-200,000	-0,045	0,227
-126,512	-148,991	-0,102	-0,006
-125,497	15,748	-0,084	0,048
-124,483	-200,000	-0,024	0,117
-123,468	19,451	-0,082	0,047
-122,453	795,063	0,025	-0,051
-121,439	-72,769	-0,126	-0,033
-120,424	73,818	0,010	-0,008
-119,410	-200,000	0,000	-0,035
-118,395	-35,972	0,044	-0,017
-117,380	-69,908	0,120	-0,033
-116,366	-134,992	-0,199	-0,017
-115,351	-200,000	-0,002	-0,036
-114,337	146,373	-0,057	-0,055
-113,322	-200,000	-0,029	-0,096
-112,307	800,000	-0,014	0,040
-111,293	800,000	0,016	0,048
-110,278	-140,245	-0,064	-0,005
-109,264	800,000	-0,041	-0,091
-108,249	717,491	-0,021	-0,041
-107,234	-51,173	-0,059	0,020
-106,220	-200,000	0,007	-0,178
-105,205	-110,711	0,102	-0,015
-104,191	-200,000	-0,005	0,040
-103,176	-68,780	-0,034	-0,010
-102,162	-200,000	0,007	0,079
-101,147	167,505	-0,142	-0,146
-100,132	133,917	-0,098	-0,091
-99,118	-89,792	-0,058	0,012
-98,103	-200,000	0,008	-0,095
-97,089	64,062	-0,094	0,068
-96,074	-200,000	0,007	0,126
-95,059	172,535	-0,039	-0,041
-94,045	8,002	0,069	-0,037
-93,030	-133,480	0,067	-0,006
-92,016	-118,644	-0,083	0,010
-91,001	20,202	0,096	0,056
-89,986	121,387	0,055	-0,049
-88,972	800,000	0,025	-0,056
-87,957	-135,156	0,057	-0,005
-86,943	-200,000	0,007	0,022
-85,928	-200,000	-0,014	-0,067
-84,913	-200,000	0,003	-0,069
-83,899	-121,516	0,027	-0,003
-82,884	377,674	-0,039	0,058
-81,870	800,000	0,051	0,116
-80,855	-200,000	0,009	-0,095
-79,840	2,000	-0,056	-0,029
-78,826	-200,000	0,005	-0,110
-77,811	408,731	0,039	-0,060
-76,797	800,000	0,046	-0,127
-75,782	-34,885	0,072	0,028
-74,767	-50,018	0,112	-0,038
-73,753	800,000	-0,039	0,088
-72,738	-41,661	0,082	-0,030
-71,724	388,546	-0,073	0,110
-70,709	-200,000	-0,015	-0,091
-69,694	119,100	-0,081	-0,073
-68,680	96,092	0,181	0,149
-67,665	490,862	0,107	0,177
-66,651	695,674	-0,042	-0,080
-65,636	76,239	-0,064	-0,049
-64,622	199,704	-0,045	0,050
-63,607	-100,209	-0,092	0,016
-62,592	-155,946	-0,112	0,005
-61,578	-200,000	0,004	0,103
-60,563	-105,411	-0,061	-0,010
-59,549	-136,278	-0,137	-0,011
-58,534	-41,656	-1,864	-0,687
-57,519	703,716	-0,573	-1,093
-56,505	-200,000	-1,020	-4,861
-55,490	-98,800	0,673	0,122
-54,476	800,000	5,285	12,268
-53,461	-200,000	16,424	277,142
-52,446	800,000	709,750	2227,280
-51,432	552,189	1624,004	2822,547
-50,417	121,238	1621,606	1455,310
-49,403	83,256	1282,678	1005,839
-48,388	36,362	1029,223	652,741
-47,373	21,145	991,833	578,678
-46,359	19,866	980,620	567,893
-45,344	17,948	976,281	559,046
-44,330	18,130	974,960	558,866
-43,315	17,826	973,304	556,897
-42,300	17,752	972,179	555,987
-41,286	17,760	971,256	555,465
-40,271	17,760	970,249	554,866
-39,257	17,789	969,328	554,414
-38,242	17,723	968,700	553,815
-37,227	17,746	968,043	553,495
-36,213	17,682	967,091	552,718
-35,198	17,692	965,875	552,034
-34,184	17,742	965,311	551,854
-33,169	17,716	964,121	551,067
-32,154	17,731	963,386	550,672
-31,140	17,764	962,645	550,335
-30,125	17,816	961,600	549,883
-29,111	17,739	961,119	549,336
-28,096	17,774	960,542	549,100
-27,082	17,683	959,836	548,378
-26,067	17,682	959,052	547,906
-25,052	17,757	958,070	547,564
-24,038	17,727	957,351	547,036
-23,023	17,653	956,829	546,479
-22,009	17,680	955,945	546,038
-20,994	17,704	955,583	545,887
-19,979	17,702	954,779	545,398
-18,965	17,666	954,288	544,981
-17,950	17,709	953,435	544,611
-16,936	17,644	952,941	544,098
-15,921	17,635	952,283	543,672
-14,906	17,604	951,513	543,110
-13,892	17,507	951,068	542,526
-12,877	17,541	950,409	542,236
-11,863	17,532	949,696	541,778
-10,848	17,541	949,382	541,607
-9,833	17,684	948,631	541,615
-8,819	17,639	948,133	541,164
-7,804	17,665	947,275	540,737
-6,790	17,604	946,778	540,238
-5,775	17,623	946,183	539,937
-4,760	17,572	945,777	539,521
-3,746	17,601	944,868	539,073
-2,731	17,456	944,123	538,167
-1,717	17,453	943,510	537,785
-0,702	17,412	942,738	537,194
0,313	17,212	942,139	537,029
1,327	20,330	940,445	545,897
2,342	29,487	796,644	486,802
3,356	26,660	448,834	270,011
4,371	-2,512	295,161	148,379
5,386	-6,383	276,319	135,226
6,400	-7,842	270,788	131,151
7,415	-8,208	268,331	129,612
8,429	-8,156	266,953	128,982
9,444	-8,206	266,172	128,548
10,459	-8,307	265,505	128,122
11,473	-8,385	264,793	127,696
12,488	-8,348	264,161	127,414
13,502	-8,598	263,684	126,945
14,517	-8,809	263,184	126,503
15,531	-8,840	262,874	126,315
16,546	-8,606	262,399	126,286
17,561	-8,842	261,960	125,851
18,575	-8,772	261,680	125,769
19,590	-8,839	261,237	125,485
20,604	-8,856	261,053	125,370
21,619	-8,972	260,652	125,062
22,634	-8,761	260,331	125,085
23,648	-8,919	259,977	124,764
24,663	-8,895	259,716	124,648
25,677	-8,891	259,541	124,557
26,692	-8,874	259,229	124,411
27,707	-9,140	259,108	124,106
28,721	-9,042	258,700	123,986
29,736	-9,170	258,419	123,727
30,750	-9,119	258,326	123,716
31,765	-9,004	257,971	123,637
32,780	-9,076	257,748	123,456
33,794	-9,036	257,577	123,398
34,809	-9,067	257,323	123,238
35,823	-9,050	256,933	123,055
36,838	-9,110	256,807	122,931
37,853	-9,053	256,395	122,773
38,867	-9,416	256,346	122,420
39,882	-9,039	256,080	122,613
40,896	-9,073	255,775	122,426
41,911	-9,185	255,618	122,241
42,926	-9,146	255,322	122,123
43,940	-9,089	255,184	122,096
44,955	-9,199	254,906	121,856
45,969	-9,185	254,695	121,756
46,984	-9,470	254,437	121,374
47,999	-9,683	254,147	121,040
49,013	-9,880	253,814	120,699
50,028	-9,823	253,664	120,667
51,042	-9,846	253,268	120,447
52,057	-10,028	253,200	120,246
53,071	-10,037	253,076	120,169
54,086	-9,838	252,607	120,108
55,101	-9,553	252,509	120,297
56,115	-9,544	252,642	120,357
57,130	-9,001	252,472	120,734
58,144	-8,679	252,400	120,967
59,159	-8,762	252,209	120,794
60,174	-8,692	251,968	120,727
61,188	-8,746	251,679	120,532
62,203	-8,737	251,556	120,470
63,217	-8,678	251,245	120,360
64,232	-9,253	251,144	119,808
65,247	-8,849	250,993	120,072
66,261	-8,659	250,628	120,049
67,276	-9,114	250,308	119,496
68,290	-9,438	250,057	119,089
69,305	-9,334	249,873	119,080
70,320	-9,627	249,492	118,637
71,334	-9,318	249,516	118,902
72,349	-8,733	249,503	119,384
73,363	-8,747	249,285	119,256
74,378	-8,626	249,033	119,229
75,393	-8,834	248,932	118,993
76,407	-9,007	248,585	118,670
77,422	-9,064	248,421	118,532
78,436	-8,883	248,138	118,539
79,451	-8,948	247,927	118,373
80,466	-9,042	247,735	118,192
81,480	-9,269	247,461	117,858
82,495	-9,404	247,198	117,609
83,509	-9,319	247,061	117,605
84,524	-9,406	247,064	117,522
85,539	-9,363	246,514	117,287
86,553	-9,327	246,403	117,254
87,568	-9,255	246,320	117,264
88,582	-9,313	246,086	117,094
89,597	-9,472	245,897	116,860
90,611	-9,236	245,860	117,030
91,626	-8,900	245,736	117,242
92,641	-9,007	245,490	117,024
93,655	-9,460	245,395	116,590
94,670	-9,342	245,126	116,551
95,684	-9,325	244,885	116,440
96,699	-9,020	244,653	116,573
97,714	-9,414	244,510	116,167
98,728	-9,364	244,316	116,106
99,743	-9,327	244,012	115,981
100,757	-9,597	243,811	115,651
101,772	-9,337	243,858	115,879
102,787	-9,212	243,510	115,807
103,801	-9,038	243,256	115,821
104,816	-9,116	243,311	115,771
105,830	-8,969	243,246	115,852
106,845	-8,982	242,902	115,667
107,860	-8,959	242,722	115,590
108,874	-9,035	242,530	115,425
109,889	-9,129	242,320	115,238
110,903	-9,181	242,119	115,089
111,918	-9,208	241,861	114,934
112,933	-9,187	241,881	114,951
113,947	-9,023	241,570	114,927
114,962	-9,136	241,531	114,805
115,976	-9,160	241,259	114,646
116,991	-8,792	241,035	114,832
118,006	-8,972	240,964	114,640
119,020	-9,099	240,765	114,430
120,035	-8,899	240,712	114,559
121,049	-8,951	240,596	114,451
122,064	-8,772	240,223	114,410
123,079	-9,028	240,045	114,106
124,093	-9,084	239,915	113,988
125,108	-9,354	239,742	113,676
126,122	-9,752	239,419	113,188
127,137	-9,584	239,166	113,195
128,151	-9,230	238,998	113,393
129,166	-9,309	238,957	113,300
130,181	-9,337	238,556	113,077
131,195	-9,389	238,584	113,038
132,210	-9,186	238,450	113,128
133,224	-9,082	238,272	113,119
134,239	-9,000	238,101	113,094
135,254	-8,947	237,843	113,003
136,268	-9,243	237,726	112,699
137,283	-9,537	237,490	112,340
138,297	-9,416	237,171	112,277
139,312	-9,453	237,049	112,179
140,327	-9,047	236,944	112,446
141,341	-8,722	237,047	112,746
142,356	-8,630	236,966	112,772
143,370	-8,498	236,634	112,709
144,385	-8,654	236,632	112,573
145,400	-8,651	236,481	112,494
146,414	-8,527	236,113	112,408
147,429	-8,657	235,966	112,224
148,443	-8,781	235,927	112,096
149,458	-8,461	235,678	112,224
150,473	-8,675	235,528	111,971
151,487	-8,687	235,198	111,795
152,502	-8,787	235,250	111,729
153,516	-8,639	234,992	111,716
154,531	-8,791	234,897	111,539
155,546	-8,573	234,630	111,576
156,560	-8,842	234,469	111,275
157,575	-8,949	234,424	111,159
158,589	-8,868	234,268	111,139
159,604	-8,573	234,114	111,290
160,619	-8,376	233,834	111,304
161,633	-8,459	233,775	111,200
162,648	-8,407	233,576	111,137
163,662	-8,441	233,418	111,024
164,677	-8,801	233,314	110,681
165,692	-8,700	233,065	110,633
166,706	-8,322	232,914	110,850
167,721	-8,445	232,810	110,693
168,735	-8,486	232,699	110,598
169,750	-8,616	232,653	110,464
170,764	-8,571	232,383	110,361
171,779	-8,565	232,262	110,299
172,794	-8,421	232,116	110,333
173,808	-8,646	231,876	110,032
174,823	-9,191	231,523	109,428
175,837	-9,324	231,368	109,241
176,852	-8,932	231,291	109,501
177,867	-8,595	231,143	109,685
178,881	-8,574	231,129	109,684
179,896	-8,475	230,958	109,671
180,910	-8,370	230,920	109,726
181,925	-8,511	230,704	109,503
182,940	-8,524	230,596	109,432
183,954	-8,550	230,388	109,303
184,969	-8,327	230,132	109,345
185,983	-8,383	230,144	109,298
186,998	-8,333	229,946	109,234
188,013	-8,184	229,811	109,275
189,027	-8,151	229,524	109,155
190,042	-8,326	229,553	109,022
191,056	-8,508	229,377	108,788
192,071	-8,323	229,204	108,840
193,086	-8,279	228,909	108,724
194,100	-7,891	228,786	108,956
195,115	-7,979	228,644	108,811
196,129	-7,748	228,679	108,996
197,144	-4,038	229,956	112,474
198,159	0,192	231,140	116,335
199,173	3,138	231,927	119,015
200,188	3,778	231,843	119,460
201,202	3,621	231,766	119,288
202,217	3,869	231,663	119,416
203,232	3,890	231,555	119,366
204,246	4,049	231,309	119,352
205,261	3,947	231,221	119,217
206,275	4,384	231,041	119,452
207,290	4,304	231,095	119,407
208,304	4,159	230,815	119,140
209,319	3,981	230,745	118,956
210,334	3,984	230,459	118,799
211,348	3,814	230,140	118,494
212,363	3,670	229,843	118,219
213,377	3,348	229,830	117,954
214,392	3,184	229,654	117,727
215,407	3,221	229,565	117,699
216,421	3,552	229,370	117,843
217,436	3,155	229,183	117,432
218,450	3,170	228,961	117,319
219,465	3,055	228,785	117,130
220,480	3,248	228,691	117,220
221,494	3,133	228,486	117,015
222,509	3,465	228,343	117,186
223,523	3,128	228,346	116,920
224,538	3,109	228,106	116,772
225,553	3,099	227,973	116,686
226,567	3,188	227,899	116,705
227,582	3,476	227,746	116,836
228,596	3,814	227,737	117,078
229,611	3,322	227,241	116,439
230,626	2,951	227,188	116,120
231,640	3,119	227,105	116,195
232,655	3,484	227,039	116,427
233,669	3,884	226,952	116,676
234,684	3,991	226,857	116,698
235,699	3,627	226,733	116,348
236,713	3,554	226,318	116,069
237,728	3,418	226,254	115,923
238,742	3,145	226,031	115,592
239,757	3,477	225,791	115,710
240,772	3,273	225,735	115,516
241,786	3,389	225,503	115,475
242,801	3,396	225,471	115,454
243,815	3,591	225,556	115,634
244,830	3,538	225,407	115,507
245,844	3,225	225,014	115,060
246,859	3,376	224,869	115,089
247,874	3,429	224,728	115,047
248,888	3,692	224,715	115,227
249,903	3,350	224,505	114,853
250,917	3,275	224,305	114,684
251,932	3,439	224,175	114,730
252,947	3,192	223,969	114,430
253,961	3,068	223,902	114,292
254,976	3,448	223,636	114,430
255,990	3,752	223,583	114,620
257,005	3,763	223,486	114,568
258,020	3,713	223,325	114,438
259,034	3,692	223,527	114,516
260,049	3,451	223,310	114,215
261,063	3,378	222,974	113,978
262,078	3,551	222,938	114,078
263,093	3,638	222,700	114,011
264,107	3,788	222,401	113,959
265,122	3,584	222,518	113,858
266,136	3,869	222,403	114,000
267,151	3,700	222,320	113,822
268,166	3,543	221,841	113,451
269,180	3,257	221,604	113,108
270,195	3,402	221,516	113,160
271,209	3,134	221,407	112,896
272,224	3,400	221,278	113,017
273,239	3,531	221,188	113,057
274,253	3,361	221,062	112,857
275,268	3,286	220,753	112,634
276,282	3,218	220,562	112,477
277,297	3,205	220,394	112,372
278,312	3,143	220,342	112,290
279,326	3,412	220,242	112,426
280,341	3,241	220,135	112,236
281,355	3,378	220,030	112,273
282,370	3,306	219,921	112,155
283,384	3,101	219,530	111,795
284,399	2,768	219,488	111,521
285,414	3,174	219,383	111,754
286,428	3,283	219,288	111,775
287,443	3,322	219,191	111,744
288,457	3,547	219,048	111,825
289,472	3,359	218,951	111,629
290,487	2,920	218,612	111,127
291,501	2,827	218,470	110,977
292,516	2,886	218,379	110,963
293,530	3,177	218,279	111,115
294,545	2,928	218,266	110,917
295,560	3,051	218,084	110,904
296,574	3,306	217,896	110,983
297,589	3,308	217,798	110,925
298,603	3,302	217,655	110,838
299,618	3,489	217,527	110,898
300,633	3,514	217,235	110,758
301,647	3,782	217,425	111,038
302,662	3,706	217,235	110,877
303,676	3,577	217,051	110,679
304,691	3,494	216,967	110,567
305,706	3,540	216,712	110,460
306,720	3,592	216,600	110,431
307,735	3,315	216,492	110,167
308,749	3,052	216,272	109,855
309,764	3,447	216,171	110,078
310,779	3,547	216,011	110,059
311,793	3,388	215,842	109,848
312,808	3,435	215,808	109,856
313,822	3,472	215,530	109,731
314,837	3,327	215,248	109,474
315,852	3,107	215,162	109,263
316,866	3,126	215,159	109,265
317,881	3,293	214,990	109,289
318,895	3,320	214,769	109,186
319,910	3,269	214,826	109,168
320,925	3,340	214,592	109,091
321,939	3,201	214,300	108,834
322,954	3,161	214,272	108,781
323,968	3,509	214,244	109,005
324,983	3,539	214,176	108,982
325,997	3,309	214,051	108,745
327,012	3,427	213,794	108,689
328,027	3,281	213,663	108,509
329,041	3,741	213,572	108,779
330,056	3,843	213,439	108,774
331,070	3,288	213,391	108,347
332,085	2,941	213,047	107,917
333,100	3,095	212,933	107,959
334,114	3,621	212,819	108,262
335,129	3,471	212,717	108,095
336,143	3,740	212,429	108,128
337,158	3,488	212,389	107,921
338,173	3,273	212,282	107,706
339,187	3,151	212,200	107,569
340,202	2,984	211,970	107,325
341,216	2,763	211,866	107,108
342,231	2,950	211,715	107,153
343,246	3,044	211,600	107,152
344,260	3,194	211,333	107,111
345,275	3,206	211,295	107,091
346,289	3,336	211,292	107,171
347,304	3,485	211,097	107,167
348,319	3,629	210,893	107,154
349,333	3,249	210,911	106,888
350,348	3,491	210,642	106,911
351,362	3,441	210,606	106,849
352,377	3,327	210,508	106,710
353,392	3,406	210,180	106,589
354,406	3,619	210,060	106,667
355,421	195,932	1340,674	1425,971
356,435	156,485	1478,447	1426,001
