DTS Sentinel unit serial number:	SN410029Multiplexer serial number:	ORYXHardware model number:	OX2-SRSoftware version number:	ORYX F/W v4,00 Oryx Data Collector v3.7.2.0data status	okinstallation	B6 Nyhavnadifferential loss correction	single-endedforward channel	channel 2reverse channel	N/Adate	2023/12/09time	13:35:08forward acquisition time	300,00reverse acquisition time	0,00gamma	499,1914k internal	0,3136k external	0,3136temperature offset calibration	1,0000default loss term (dB/km)	0,3820temperature slope calibration	1,0000multiplexer offset coefficient	1,0000multiplexer slope coefficient	1,0000fibre end	0,00T internal ref (°C)	20,25T ext. ref 1 (°C)	4,56T ext. ref 2 (°C)	4,56length (m)	temperature (°C)	Stokes	anti-Stokes-744,400	72,949	-0,060	-0,047
-743,385	154,150	-0,178	0,181
-742,371	-200,000	0,013	0,115
-741,356	260,566	-0,146	0,187
-740,342	-200,000	0,004	-0,023
-739,327	-1,628	-0,222	0,116
-738,312	-200,000	0,001	0,005
-737,298	-5,593	-0,325	0,165
-736,283	-185,081	0,115	-0,001
-735,269	-182,260	-0,210	0,003
-734,254	-47,703	0,092	0,033
-733,239	-88,963	-0,423	-0,092
-732,225	-88,658	0,083	-0,018
-731,210	16,187	-0,104	-0,061
-730,196	244,195	-0,011	-0,014
-729,181	4,447	-0,060	-0,032
-728,167	83,285	0,036	0,029
-727,152	-200,000	0,007	-0,097
-726,137	-112,038	-0,179	-0,026
-725,123	322,964	0,029	-0,040
-724,108	800,000	-0,025	-0,067
-723,094	96,376	-0,092	-0,078
-722,079	-200,000	-0,009	-0,062
-721,064	179,560	-0,072	0,079
-720,050	800,000	0,021	0,061
-719,035	800,000	-0,036	0,105
-718,021	-125,284	-0,070	0,008
-717,006	-114,080	-0,113	0,016
-715,991	-200,000	-0,042	-0,160
-714,977	-166,649	-0,071	-0,002
-713,962	45,963	-0,072	-0,049
-712,948	-200,000	0,017	0,120
-711,933	800,000	-0,034	-0,099
-710,918	800,000	0,036	-0,100
-709,904	-155,868	-0,107	0,005
-708,889	-39,664	-0,122	0,047
-707,875	-67,240	0,057	-0,016
-706,860	-185,369	-0,086	-0,001
-705,845	-147,080	0,102	-0,006
-704,831	-152,272	0,066	0,003
-703,816	-200,000	-0,004	0,064
-702,802	-200,000	-0,002	-0,075
-701,787	-112,269	-0,121	-0,018
-700,772	-178,159	0,113	-0,002
-699,758	800,000	0,016	-0,042
-698,743	800,000	-0,018	-0,055
-697,729	200,984	-0,050	0,057
-696,714	-200,000	-0,003	0,096
-695,699	-73,247	-0,075	0,020
-694,685	800,000	-0,038	-0,111
-693,670	41,712	-0,073	0,049
-692,656	-77,990	-0,205	0,052
-691,641	-77,996	-0,027	0,007
-690,627	-167,866	-0,045	-0,001
-689,612	154,968	0,041	-0,042
-688,597	362,085	0,061	-0,091
-687,583	793,529	-0,024	-0,049
-686,568	80,928	-0,073	-0,059
-685,554	-66,406	0,095	-0,028
-684,539	583,319	0,041	-0,076
-683,524	-200,000	0,007	0,036
-682,510	-150,904	0,091	0,005
-681,495	111,936	-0,092	-0,082
-680,481	-102,169	-0,220	-0,039
-679,466	-200,000	0,014	-0,060
-678,451	800,000	-0,057	-0,148
-677,437	800,000	0,030	-0,088
-676,422	47,625	-0,160	-0,110
-675,408	26,628	-0,110	0,068
-674,393	-200,000	-0,005	-0,104
-673,378	-139,569	-0,159	0,012
-672,364	62,861	-0,101	-0,075
-671,349	-200,000	0,009	-0,148
-670,335	-200,000	-0,001	-0,069
-669,320	441,219	-0,065	0,106
-668,305	548,303	0,022	0,039
-667,291	289,625	-0,032	-0,043
-666,276	234,557	0,041	-0,050
-665,262	141,780	-0,116	-0,114
-664,247	-200,000	-0,007	-0,221
-663,232	-90,441	-0,144	-0,031
-662,218	-200,000	-0,027	0,238
-661,203	236,995	0,072	0,088
-660,189	800,000	-0,032	0,076
-659,174	-200,000	-0,129	-0,000
-658,159	135,192	-0,079	-0,076
-657,145	441,273	-0,112	-0,182
-656,130	-200,000	-0,023	0,092
-655,116	7,768	-0,044	0,024
-654,101	800,000	0,052	-0,112
-653,086	124,988	0,052	-0,049
-652,072	-24,911	-0,038	0,017
-651,057	-200,000	-0,073	-0,268
-650,043	-200,000	-0,010	-0,102
-649,028	551,741	-0,033	0,058
-648,014	34,873	0,080	0,052
-646,999	-200,000	-0,002	-0,039
-645,984	-44,006	-0,057	-0,021
-644,970	800,000	-0,036	-0,089
-643,955	-200,000	0,007	0,082
-642,941	800,000	-0,048	-0,116
-641,926	326,938	0,019	0,027
-640,911	-49,856	0,040	-0,014
-639,897	-200,000	-0,011	-0,046
-638,882	-200,000	0,018	0,165
-637,868	81,066	0,093	0,075
-636,853	-200,000	-0,004	-0,050
-635,838	246,973	-0,162	-0,202
-634,824	166,308	-0,028	0,030
-633,809	800,000	-0,038	-0,085
-632,795	59,727	-0,111	-0,081
-631,780	-200,000	-0,059	0,236
-630,765	75,569	-0,089	-0,070
-629,751	-200,000	0,022	-0,148
-628,736	23,186	-0,027	-0,016
-627,722	-200,000	0,040	0,132
-626,707	57,737	-0,046	-0,033
-625,692	299,787	0,113	0,154
-624,678	790,711	-0,028	0,056
-623,663	-50,696	0,146	0,051
-622,649	800,000	0,014	-0,029
-621,634	-200,000	0,009	0,088
-620,619	-76,127	0,084	0,022
-619,605	171,828	-0,098	0,104
-618,590	-200,000	-0,011	0,041
-617,576	800,000	-0,060	0,131
-616,561	-78,296	0,058	-0,015
-615,546	-40,950	0,117	0,045
-614,532	800,000	-0,044	-0,106
-613,517	-200,000	-0,015	-0,080
-612,503	-24,473	0,076	0,033
-611,488	-200,000	0,012	-0,044
-610,474	324,967	-0,057	0,081
-609,459	-200,000	-0,008	0,093
-608,444	-126,157	-0,111	0,012
-607,430	-200,000	-0,006	-0,077
-606,415	328,100	-0,075	0,106
-605,401	-26,425	0,099	0,043
-604,386	-143,658	0,145	0,010
-603,371	-200,000	0,011	-0,063
-602,357	-139,773	-0,014	0,001
-601,342	-200,000	-0,024	-0,134
-600,328	-57,837	0,104	0,033
-599,313	800,000	0,041	-0,094
-598,298	-200,000	0,002	-0,056
-597,284	182,722	0,077	-0,084
-596,269	800,000	-0,020	-0,044
-595,255	-153,619	-0,022	0,001
-594,240	-200,000	-0,013	0,113
-593,225	9,048	-0,106	-0,059
-592,211	800,000	0,018	-0,043
-591,196	-64,712	0,094	0,028
-590,182	800,000	0,022	0,056
-589,167	-98,276	0,060	0,011
-588,152	126,533	-0,055	0,051
-587,138	-22,995	-0,014	0,006
-586,123	-200,000	-0,017	0,066
-585,109	-200,000	-0,022	-0,138
-584,094	-200,000	0,026	-0,123
-583,079	-135,984	0,052	0,004
-582,065	40,724	-0,056	-0,037
-581,050	-112,518	0,117	0,017
-580,036	-200,000	0,004	0,108
-579,021	148,101	-0,114	0,114
-578,006	188,516	-0,055	0,061
-576,992	-13,028	0,073	0,035
-575,977	-200,000	0,015	0,123
-574,963	-65,086	0,048	0,014
-573,948	800,000	-0,003	0,007
-572,934	-78,851	-0,041	0,010
-571,919	-200,000	0,008	0,034
-570,904	-200,000	0,005	-0,067
-569,890	-58,480	0,029	0,009
-568,875	75,861	0,132	0,103
-567,861	-45,565	-0,015	-0,005
-566,846	-32,895	-0,070	-0,029
-565,831	800,000	0,027	0,057
-564,817	254,219	0,071	0,090
-563,802	-0,250	0,168	-0,088
-562,788	115,093	0,014	0,013
-561,773	26,292	0,052	0,032
-560,758	-189,272	0,176	-0,001
-559,744	353,809	0,065	0,095
-558,729	447,006	-0,025	-0,041
-557,715	800,000	-0,040	-0,106
-556,700	5,408	-0,078	0,042
-555,685	-168,341	-0,063	-0,002
-554,671	391,124	0,064	0,098
-553,656	-101,317	0,070	-0,013
-552,642	-18,978	0,016	-0,007
-551,627	-69,218	-0,063	-0,018
-550,612	800,000	-0,018	0,040
-549,598	51,327	-0,069	0,048
-548,583	200,128	-0,018	-0,020
-547,569	800,000	-0,027	-0,062
-546,554	693,614	-0,031	0,061
-545,539	-200,000	0,002	-0,163
-544,525	-25,203	-0,105	0,045
-543,510	298,080	0,018	-0,025
-542,496	-27,455	-0,111	0,047
-541,481	3,568	-0,053	-0,029
-540,466	-200,000	-0,003	-0,087
-539,452	-107,820	0,103	-0,016
-538,437	800,000	0,015	-0,045
-537,423	-0,147	0,002	0,001
-536,408	-10,004	-0,133	-0,065
-535,393	290,046	-0,029	-0,039
-534,379	-200,000	-0,002	0,020
-533,364	800,000	-0,020	0,062
-532,350	800,000	0,044	-0,124
-531,335	43,223	0,116	0,078
-530,321	-200,000	0,019	0,063
-529,306	-4,787	-0,132	0,067
-528,291	316,442	0,041	-0,057
-527,277	-200,000	-0,028	-0,113
-526,262	-60,604	0,086	0,027
-525,248	-16,099	0,040	0,019
-524,233	69,758	0,124	0,094
-523,218	-49,972	0,154	0,053
-522,204	-86,592	-0,070	-0,016
-521,189	398,103	0,018	-0,028
-520,175	800,000	0,020	-0,044
-519,160	164,732	0,097	-0,101
-518,145	585,355	-0,043	-0,079
-517,131	38,496	-0,020	0,013
-516,116	-89,344	0,094	0,020
-515,102	-200,000	-0,034	-0,110
-514,087	27,743	-0,115	-0,071
-513,072	-200,000	0,035	0,130
-512,058	800,000	0,039	-0,103
-511,043	-15,384	0,092	0,043
-510,029	800,000	-0,042	0,088
-509,014	-77,855	0,128	0,032
-507,999	800,000	-0,034	-0,082
-506,985	-113,923	-0,025	-0,003
-505,970	-200,000	0,001	-0,035
-504,956	-200,000	0,029	-0,132
-503,941	98,450	-0,077	0,066
-502,926	-97,402	0,145	-0,027
-501,912	137,211	-0,031	-0,030
-500,897	641,773	0,057	-0,107
-499,883	49,030	-0,013	0,009
-498,868	800,000	-0,010	-0,025
-497,853	-200,000	0,017	-0,125
-496,839	152,594	0,070	-0,071
-495,824	98,457	0,058	-0,049
-494,810	-41,315	-0,029	-0,011
-493,795	800,000	-0,021	0,053
-492,781	-3,989	-0,020	-0,010
-491,766	70,917	0,029	0,022
-490,751	121,242	0,042	0,038
-489,737	800,000	-0,012	-0,034
-488,722	159,193	0,109	0,111
-487,708	-11,666	0,139	-0,067
-486,693	-126,225	-0,029	0,003
-485,678	800,000	0,055	-0,156
-484,664	75,144	0,088	0,068
-483,649	-87,196	-0,220	0,049
-482,635	46,804	0,039	0,026
-481,620	-200,000	0,007	0,062
-480,605	402,951	0,036	0,055
-479,591	187,002	-0,086	0,094
-478,576	93,998	0,024	0,020
-477,562	145,644	0,044	0,044
-476,547	203,561	0,068	-0,078
-475,532	114,763	-0,061	0,054
-474,518	-53,389	-0,059	-0,020
-473,503	615,384	0,064	-0,118
-472,489	457,903	-0,104	0,171
-471,474	-200,000	-0,011	0,186
-470,459	-79,012	-0,162	0,040
-469,445	-32,722	-0,083	-0,034
-468,430	-89,780	-0,102	-0,022
-467,416	800,000	0,021	0,065
-466,401	-174,139	0,073	-0,002
-465,386	110,290	0,063	0,056
-464,372	800,000	0,013	0,034
-463,357	127,115	-0,135	-0,126
-462,343	-37,414	-0,046	-0,018
-461,328	800,000	-0,016	0,043
-460,313	-15,125	-0,072	-0,034
-459,299	474,844	0,014	-0,023
-458,284	800,000	-0,029	0,094
-457,270	-28,118	-0,108	0,046
-456,255	-25,822	0,166	0,071
-455,241	-200,000	-0,022	-0,129
-454,226	-29,168	-0,101	-0,042
-453,211	-200,000	0,077	0,263
-452,197	475,482	0,063	0,105
-451,182	283,343	0,057	0,076
-450,168	50,112	0,061	-0,042
-449,153	-200,000	-0,006	0,078
-448,138	-1,544	-0,060	0,031
-447,124	-200,000	0,003	0,043
-446,109	-200,000	0,013	-0,049
-445,095	800,000	-0,014	0,031
-444,080	285,066	0,048	0,064
-443,065	-200,000	-0,029	0,117
-442,051	-200,000	-0,000	-0,105
-441,036	-174,288	-0,150	-0,003
-440,022	684,816	-0,023	-0,044
-439,007	64,143	-0,050	0,037
-437,992	800,000	0,041	-0,121
-436,978	-151,296	0,222	-0,012
-435,963	800,000	-0,061	0,181
-434,949	23,492	-0,069	-0,041
-433,934	125,181	-0,104	-0,096
-432,919	345,562	-0,059	-0,086
-431,905	-200,000	0,016	-0,087
-430,890	344,656	-0,065	0,094
-429,876	-105,986	0,108	0,018
-428,861	241,785	-0,044	0,054
-427,846	639,892	0,048	-0,089
-426,832	-200,000	0,020	0,124
-425,817	239,467	-0,044	-0,054
-424,803	-200,000	-0,005	-0,129
-423,788	30,388	0,040	0,025
-422,773	51,349	0,048	0,033
-421,759	179,089	0,085	0,092
-420,744	800,000	-0,103	-0,213
-419,730	-18,414	0,065	-0,029
-418,715	50,582	-0,031	-0,021
-417,701	-200,000	0,035	0,115
-416,686	42,653	-0,119	0,079
-415,671	-24,037	-0,039	0,017
-414,657	64,656	-0,056	0,041
-413,642	-200,000	-0,017	-0,107
-412,628	549,876	-0,034	0,061
-411,613	58,944	-0,141	-0,101
-410,598	-200,000	-0,018	-0,075
-409,584	-200,000	0,051	0,184
-408,569	-200,000	0,011	0,083
-407,555	727,183	-0,059	0,116
-406,540	-24,421	-0,088	0,038
-405,525	41,251	0,111	0,073
-404,511	-200,000	0,010	0,036
-403,496	-112,507	-0,070	0,010
-402,482	727,128	0,064	0,126
-401,467	800,000	-0,049	0,113
-400,452	666,360	-0,043	-0,082
-399,438	-200,000	0,029	0,103
-398,423	27,733	0,138	-0,085
-397,409	-200,000	-0,025	-0,209
-396,394	-200,000	0,011	-0,039
-395,379	-79,790	0,147	-0,036
-394,365	-200,000	-0,004	0,043
-393,350	112,505	-0,026	-0,023
-392,336	70,306	0,161	0,121
-391,321	-35,370	-0,095	0,038
-390,306	100,124	-0,104	-0,088
-389,292	-130,314	-0,093	0,009
-388,277	-200,000	0,005	0,049
-387,263	84,633	0,052	-0,042
-386,248	25,219	-0,065	-0,040
-385,233	-200,000	-0,019	0,097
-384,219	800,000	0,037	0,091
-383,204	224,174	-0,068	-0,081
-382,190	-200,000	0,025	-0,184
-381,175	-13,918	-0,056	-0,026
-380,160	-200,000	0,002	0,010
-379,146	-12,237	0,059	0,028
-378,131	167,059	0,087	0,090
-377,117	-81,936	0,106	0,025
-376,102	91,550	-0,045	-0,037
-375,088	-200,000	-0,000	-0,082
-374,073	655,973	-0,063	-0,119
-373,058	232,296	0,108	0,130
-372,044	93,553	-0,042	0,035
-371,029	20,719	0,074	0,043
-370,015	800,000	0,019	0,058
-369,000	-121,176	-0,044	0,005
-367,985	-200,000	-0,015	-0,078
-366,971	-45,985	-0,052	-0,019
-365,956	86,950	-0,013	-0,010
-364,942	-200,000	-0,001	0,200
-363,927	800,000	-0,040	0,128
-362,912	-71,579	0,002	-0,001
-361,898	66,458	0,067	0,050
-360,883	-51,164	-0,075	0,025
-359,869	25,955	0,038	-0,023
-358,854	800,000	0,028	0,064
-357,839	-200,000	0,002	0,031
-356,825	-200,000	-0,007	0,068
-355,810	431,323	-0,025	-0,040
-354,796	800,000	0,017	0,048
-353,781	-50,698	-0,103	-0,035
-352,766	-200,000	-0,033	-0,138
-351,752	-170,453	0,163	-0,004
-350,737	-85,822	0,094	0,021
-349,723	-200,000	-0,022	0,180
-348,708	-11,322	-0,057	0,027
-347,693	16,909	-0,021	-0,012
-346,679	-200,000	0,002	-0,010
-345,664	800,000	-0,046	-0,104
-344,650	800,000	0,026	0,074
-343,635	-95,290	0,087	0,017
-342,620	18,411	-0,150	-0,087
-341,606	342,507	0,062	-0,089
-340,591	-200,000	-0,019	0,123
-339,577	-117,489	0,039	-0,005
-338,562	800,000	-0,025	-0,075
-337,548	293,586	-0,057	0,076
-336,533	-200,000	-0,016	-0,153
-335,518	330,181	-0,034	0,048
-334,504	486,175	0,034	0,058
-333,489	-200,000	0,002	0,019
-332,475	23,982	-0,015	-0,009
-331,460	-3,364	-0,061	-0,031
-330,445	800,000	-0,052	-0,143
-329,431	156,133	-0,099	0,100
-328,416	650,754	-0,086	0,162
-327,402	-200,000	0,035	0,148
-326,387	-200,000	0,020	-0,113
-325,372	-200,000	-0,026	-0,097
-324,358	-70,886	-0,124	0,034
-323,343	-200,000	0,008	-0,069
-322,329	181,754	0,063	-0,068
-321,314	800,000	-0,054	0,142
-320,299	800,000	-0,016	0,034
-319,285	198,832	0,055	-0,061
-318,270	-200,000	-0,002	-0,103
-317,256	800,000	-0,014	0,028
-316,241	-40,802	0,123	0,046
-315,226	-82,843	0,082	0,019
-314,212	-3,284	0,058	-0,029
-313,197	587,423	0,060	0,108
-312,183	292,760	-0,113	-0,151
-311,168	-87,125	0,104	-0,023
-310,153	-82,047	-0,093	0,022
-309,139	73,318	0,065	-0,050
-308,124	326,434	-0,026	0,037
-307,110	98,443	0,015	0,013
-306,095	-113,349	0,132	0,019
-305,080	-13,238	0,118	0,056
-304,066	48,713	-0,106	-0,072
-303,051	-200,000	-0,006	-0,028
-302,037	10,325	-0,114	0,063
-301,022	-55,066	0,112	-0,036
-300,008	800,000	0,050	0,105
-298,993	-22,013	-0,079	-0,035
-297,978	800,000	-0,013	0,039
-296,964	-200,000	-0,006	0,046
-295,949	7,413	-0,161	-0,087
-294,935	178,666	0,027	0,029
-293,920	301,396	0,056	0,076
-292,905	-92,165	-0,099	0,020
-291,891	219,604	0,071	0,084
-290,876	800,000	-0,019	0,060
-289,862	800,000	-0,058	0,118
-288,847	114,512	0,075	-0,067
-287,832	279,222	0,072	-0,094
-286,818	-50,420	0,044	-0,015
-285,803	-36,512	0,046	0,018
-284,789	484,799	0,054	-0,090
-283,774	138,524	-0,094	-0,090
-282,759	94,359	-0,030	-0,025
-281,745	-200,000	-0,015	-0,092
-280,730	69,392	-0,123	-0,092
-279,716	800,000	-0,032	-0,068
-278,701	800,000	0,017	-0,049
-277,686	-200,000	0,013	0,097
-276,672	201,698	-0,044	0,049
-275,657	240,253	-0,054	0,066
-274,643	-80,516	-0,151	0,037
-273,628	-122,546	-0,106	0,012
-272,613	734,553	0,030	-0,059
-271,599	282,541	0,042	0,055
-270,584	95,342	0,101	-0,084
-269,570	196,153	0,030	-0,033
-268,555	90,308	0,024	-0,020
-267,540	-200,000	0,014	0,146
-266,526	124,273	-0,171	-0,157
-265,511	784,531	-0,023	0,046
-264,497	371,431	-0,030	0,045
-263,482	-169,269	0,156	-0,004
-262,467	53,670	0,076	-0,053
-261,453	502,048	0,035	-0,060
-260,438	105,910	0,066	-0,057
-259,424	-134,075	-0,057	-0,005
-258,409	800,000	-0,037	-0,118
-257,395	328,722	-0,052	0,074
-256,380	-200,000	-0,011	0,129
-255,365	-15,688	0,056	-0,026
-254,351	-125,555	0,039	-0,004
-253,336	-189,044	-0,103	-0,001
-252,322	161,920	-0,120	-0,122
-251,307	-38,789	0,052	-0,020
-250,292	800,000	0,016	0,047
-249,278	-200,000	-0,018	-0,135
-248,263	-200,000	0,003	-0,101
-247,249	68,637	0,041	0,031
-246,234	83,356	-0,046	0,036
-245,219	196,646	-0,074	-0,082
-244,205	-200,000	0,006	-0,052
-243,190	379,945	-0,048	0,071
-242,176	-124,623	0,093	0,010
-241,161	-64,337	0,041	0,012
-240,146	215,653	-0,013	-0,015
-239,132	666,923	-0,028	-0,052
-238,117	138,844	-0,080	-0,076
-237,103	-200,000	-0,009	0,067
-236,088	-6,384	0,058	-0,029
-235,073	-142,859	-0,147	0,010
-234,059	-107,493	0,095	-0,015
-233,044	191,493	0,085	-0,093
-232,030	-76,606	-0,138	-0,035
-231,015	179,220	-0,047	-0,051
-230,000	800,000	-0,027	-0,072
-228,986	239,268	0,098	-0,118
-227,971	-200,000	-0,001	-0,072
-226,957	-200,000	0,021	-0,087
-225,942	-200,000	-0,010	-0,032
-224,927	2,285	0,084	0,044
-223,913	99,160	-0,069	0,058
-222,898	-94,821	-0,103	0,020
-221,884	-200,000	-0,017	-0,095
-220,869	-58,676	0,093	0,029
-219,855	248,683	0,067	0,083
-218,840	240,140	0,013	-0,016
-217,825	-127,156	-0,039	-0,004
-216,811	26,854	-0,029	0,017
-215,796	689,432	-0,080	-0,153
-214,782	493,591	0,017	0,029
-213,767	-157,553	0,066	0,003
-212,752	62,573	0,050	0,036
-211,738	-119,167	-0,076	-0,009
-210,723	143,348	0,064	0,062
-209,709	52,938	0,116	0,081
-208,694	-200,000	-0,033	-0,116
-207,679	86,416	-0,058	0,047
-206,665	-53,144	-0,024	-0,008
-205,650	331,108	-0,045	0,063
-204,636	-200,000	0,003	-0,033
-203,621	-200,000	0,020	-0,076
-202,606	-169,763	-0,168	0,004
-201,592	149,402	0,018	-0,018
-200,577	-200,000	-0,008	-0,029
-199,563	-52,587	0,018	0,006
-198,548	214,803	0,035	0,040
-197,533	247,737	-0,051	0,063
-196,519	504,202	0,032	-0,055
-195,504	621,665	0,065	-0,120
-194,490	-200,000	0,001	-0,021
-193,475	50,944	-0,122	-0,084
-192,460	332,706	-0,117	-0,164
-191,446	-67,668	0,089	-0,025
-190,431	-200,000	0,021	-0,145
-189,417	8,219	0,059	0,032
-188,402	189,811	-0,089	-0,097
-187,387	231,900	0,076	-0,091
-186,373	-99,393	0,072	0,013
-185,358	-200,000	0,008	0,110
-184,344	800,000	0,049	-0,132
-183,329	-154,822	0,139	-0,007
-182,315	-21,434	-0,155	0,068
-181,300	800,000	-0,010	-0,030
-180,285	211,674	-0,046	-0,053
-179,271	61,750	-0,078	-0,057
-178,256	-200,000	0,022	0,173
-177,242	-35,734	0,035	0,014
-176,227	44,281	0,085	-0,056
-175,212	73,214	-0,074	0,056
-174,198	-200,000	0,031	-0,110
-173,183	-184,905	-0,056	-0,001
-172,169	800,000	0,024	0,053
-171,154	-200,000	0,013	0,065
-170,139	64,816	-0,094	0,068
-169,125	-200,000	-0,013	-0,065
-168,110	-28,403	0,071	0,030
-167,096	7,477	0,088	-0,048
-166,081	-200,000	0,001	0,040
-165,066	-89,207	-0,035	-0,008
-164,052	216,997	0,094	-0,109
-163,037	129,650	0,074	0,068
-162,023	-168,326	0,102	0,003
-161,008	-176,678	0,076	-0,001
-159,993	-200,000	0,007	0,067
-158,979	578,317	0,004	-0,007
-157,964	800,000	-0,061	-0,146
-156,950	-30,060	-0,102	-0,042
-155,935	292,510	-0,051	0,068
-154,920	642,805	0,034	0,064
-153,906	800,000	0,038	0,081
-152,891	35,069	-0,051	0,032
-151,877	-75,705	-0,007	0,002
-150,862	96,661	0,043	-0,036
-149,847	-141,925	0,016	0,001
-148,833	-21,870	-0,119	-0,052
-147,818	98,065	-0,036	-0,030
-146,804	-146,993	0,060	0,004
-145,789	-200,000	0,006	0,039
-144,775	-200,000	-0,006	0,062
-143,760	318,192	0,022	0,030
-142,745	52,446	-0,115	-0,079
-141,731	23,434	-0,064	0,038
-140,716	-183,334	0,068	-0,001
-139,702	44,147	0,133	-0,088
-138,687	-200,000	-0,010	0,103
-137,672	-70,216	-0,125	0,034
-136,658	-154,589	-0,073	0,003
-135,643	-200,000	-0,006	-0,042
-134,629	-132,923	-0,111	0,010
-133,614	-200,000	0,033	-0,150
-132,599	-71,648	0,114	-0,031
-131,585	-12,450	-0,069	0,033
-130,570	800,000	0,012	-0,030
-129,556	-160,634	-0,005	0,000
-128,541	19,999	-0,072	0,042
-127,526	689,988	-0,030	-0,057
-126,512	800,000	0,023	-0,065
-125,497	95,649	0,086	-0,071
-124,483	-122,748	-0,073	-0,009
-123,468	347,612	0,110	-0,157
-122,453	-111,509	-0,102	0,015
-121,439	250,973	-0,011	-0,014
-120,424	-164,533	-0,046	-0,001
-119,410	-200,000	-0,036	-0,135
-118,395	800,000	-0,020	0,055
-117,380	-99,685	0,051	0,009
-116,366	-200,000	-0,035	0,128
-115,351	27,094	-0,135	0,082
-114,337	773,191	0,035	-0,069
-113,322	800,000	-0,010	-0,031
-112,307	15,661	0,048	0,027
-111,293	347,941	0,075	0,107
-110,278	-200,000	-0,014	-0,076
-109,264	41,033	-0,050	-0,033
-108,249	462,093	-0,044	-0,071
-107,234	125,835	-0,112	0,103
-106,220	188,046	-0,073	0,079
-105,205	499,664	0,077	0,130
-104,191	94,046	-0,116	-0,095
-103,176	-6,553	-0,057	-0,028
-102,162	-200,000	-0,014	-0,056
-101,147	40,259	-0,089	-0,058
-100,132	1,656	0,044	0,023
-99,118	800,000	0,014	-0,034
-98,103	186,569	0,071	0,076
-97,089	49,967	0,041	0,028
-96,074	-41,982	0,167	-0,061
-95,059	-200,000	0,006	0,145
-94,045	-200,000	-0,006	-0,099
-93,030	384,130	-0,074	-0,110
-92,016	800,000	0,005	-0,011
-91,001	-98,604	0,202	-0,037
-89,986	-200,000	0,031	-0,181
-88,972	-200,000	0,008	0,062
-87,957	248,848	0,026	-0,032
-86,943	-148,711	0,048	0,003
-85,928	-200,000	0,013	-0,054
-84,913	93,861	-0,067	-0,055
-83,899	-200,000	-0,002	0,049
-82,884	-89,278	0,180	0,038
-81,870	-138,504	0,126	0,010
-80,855	-200,000	-0,025	0,085
-79,840	-200,000	0,018	0,074
-78,826	132,934	-0,053	-0,049
-77,811	-200,000	0,019	-0,192
-76,797	481,794	0,022	0,037
-75,782	-200,000	-0,011	0,047
-74,767	160,204	0,072	0,073
-73,753	76,873	0,067	-0,051
-72,738	-200,000	0,011	0,045
-71,724	205,102	0,053	-0,060
-70,709	-200,000	-0,004	-0,128
-69,694	-77,284	0,043	0,011
-68,680	31,826	-0,047	0,029
-67,665	-200,000	-0,004	-0,019
-66,651	-62,723	0,131	-0,039
-65,636	-200,000	-0,046	-0,183
-64,622	800,000	-0,036	-0,078
-63,607	-106,728	0,050	0,008
-62,592	-126,352	-0,153	-0,016
-61,578	800,000	0,062	0,146
-60,563	-200,000	0,002	0,030
-59,549	478,055	-0,011	0,018
-58,534	-50,830	-1,498	-0,506
-57,519	756,765	-0,657	-1,292
-56,505	-200,000	-0,983	-4,655
-55,490	-101,840	0,607	-0,105
-54,476	800,000	5,057	12,103
-53,461	-200,000	14,914	263,898
-52,446	800,000	700,241	2233,645
-51,432	562,315	1623,297	2849,425
-50,417	119,605	1628,857	1457,903
-49,403	77,258	1283,457	985,148
-48,388	37,373	1022,640	653,667
-47,373	22,699	982,460	579,833
-46,359	21,800	971,726	570,533
-45,344	20,502	967,481	563,786
-44,330	20,461	966,365	562,981
-43,315	20,300	964,839	561,545
-42,300	20,313	963,541	560,809
-41,286	20,284	962,786	560,254
-40,271	20,329	961,590	559,682
-39,257	20,267	960,830	559,015
-38,242	20,300	959,867	558,539
-37,227	20,319	959,081	558,121
-36,213	20,273	958,117	557,388
-35,198	20,223	957,305	556,735
-34,184	20,302	956,677	556,601
-33,169	20,207	955,628	555,663
-32,154	20,381	954,673	555,646
-31,140	20,326	953,867	554,978
-30,125	20,321	953,063	554,472
-29,111	20,267	952,371	553,875
-28,096	20,343	951,562	553,624
-27,082	20,311	950,805	553,060
-26,067	20,290	950,122	552,574
-25,052	20,322	949,256	552,151
-24,038	20,213	948,683	551,447
-23,023	20,298	947,902	551,241
-22,009	20,312	947,239	550,878
-20,994	20,271	946,969	550,570
-19,979	20,277	946,377	550,224
-18,965	20,232	945,746	549,691
-17,950	20,306	944,910	549,419
-16,936	20,201	944,399	548,766
-15,921	20,207	943,556	548,272
-14,906	20,155	942,944	547,729
-13,892	20,183	942,169	547,347
-12,877	20,101	941,690	546,787
-11,863	20,138	940,897	546,423
-10,848	20,077	940,784	546,141
-9,833	20,258	940,202	546,354
-8,819	20,235	939,425	545,809
-7,804	20,205	938,848	545,356
-6,790	20,189	938,391	545,021
-5,775	20,247	937,572	544,707
-4,760	20,173	937,151	544,207
-3,746	20,208	936,444	543,885
-2,731	20,015	935,648	542,793
-1,717	20,019	935,136	542,485
-0,702	19,991	934,268	541,874
0,313	19,803	933,730	541,787
1,327	22,927	931,796	550,426
2,342	32,283	793,331	493,426
3,356	29,815	449,841	276,061
4,371	-0,109	294,500	150,858
5,386	-4,377	275,813	137,231
6,400	-5,650	270,238	133,262
7,415	-6,210	267,940	131,601
8,429	-5,855	266,689	131,300
9,444	-5,993	265,816	130,733
10,459	-5,789	264,982	130,497
11,473	-6,144	264,533	129,941
12,488	-6,142	263,945	129,642
13,502	-6,275	263,362	129,224
14,517	-6,277	262,937	129,002
15,531	-6,169	262,565	128,906
16,546	-6,219	262,239	128,689
17,561	-6,155	261,813	128,526
18,575	-6,055	261,616	128,508
19,590	-6,492	261,286	127,941
20,604	-6,348	260,934	127,888
21,619	-6,384	260,545	127,653
22,634	-6,390	260,305	127,518
23,648	-6,407	259,931	127,309
24,663	-6,507	259,732	127,111
25,677	-6,513	259,464	126,963
26,692	-6,341	259,130	126,941
27,707	-6,377	258,991	126,830
28,721	-6,556	258,657	126,497
29,736	-6,349	258,328	126,507
30,750	-6,631	258,064	126,117
31,765	-6,522	257,862	126,103
32,780	-6,491	257,617	125,999
33,794	-6,593	257,431	125,807
34,809	-6,584	257,173	125,678
35,823	-6,483	256,894	125,620
36,838	-6,623	256,694	125,387
37,853	-6,588	256,297	125,213
38,867	-6,629	256,180	125,108
39,882	-6,596	255,907	124,993
40,896	-6,615	255,657	124,843
41,911	-6,437	255,388	124,856
42,926	-6,565	255,297	124,689
43,940	-6,709	255,006	124,409
44,955	-6,738	254,817	124,281
45,969	-6,657	254,556	124,214
46,984	-6,842	254,305	123,918
47,999	-7,003	253,885	123,563
49,013	-7,195	253,723	123,306
50,028	-7,253	253,570	123,170
51,042	-7,222	253,259	123,035
52,057	-7,436	253,270	122,843
53,071	-7,296	252,959	122,803
54,086	-7,129	252,583	122,754
55,101	-7,110	252,567	122,752
56,115	-6,704	252,335	122,980
57,130	-6,415	252,311	123,206
58,144	-5,990	252,152	123,485
59,159	-6,128	252,006	123,283
60,174	-6,264	251,800	123,055
61,188	-6,179	251,532	122,985
62,203	-6,195	251,218	122,807
63,217	-6,261	251,099	122,682
64,232	-6,241	251,002	122,641
65,247	-6,216	250,683	122,495
66,261	-6,413	250,418	122,186
67,276	-6,815	250,145	121,698
68,290	-6,739	249,894	121,629
69,305	-6,838	249,698	121,438
70,320	-6,717	249,419	121,395
71,334	-6,641	249,417	121,449
72,349	-6,410	249,335	121,595
73,363	-6,160	249,151	121,707
74,378	-6,241	248,888	121,498
75,393	-6,397	248,769	121,297
76,407	-6,378	248,481	121,162
77,422	-6,374	248,082	120,960
78,436	-6,250	248,002	121,015
79,451	-6,216	247,818	120,943
80,466	-6,447	247,569	120,615
81,480	-6,836	247,359	120,173
82,495	-6,834	247,244	120,109
83,509	-6,651	247,033	120,150
84,524	-6,821	246,835	119,900
85,539	-6,925	246,515	119,646
86,553	-7,093	246,366	119,422
87,568	-6,717	246,095	119,596
88,582	-6,833	246,059	119,470
89,597	-6,735	245,839	119,435
90,611	-6,403	245,712	119,641
91,626	-6,555	245,689	119,492
92,641	-6,448	245,363	119,412
93,655	-6,507	245,175	119,261
94,670	-6,565	244,965	119,099
95,684	-6,539	244,799	119,030
96,699	-6,558	244,633	118,922
97,714	-6,535	244,372	118,805
98,728	-6,790	244,154	118,475
99,743	-6,940	244,007	118,269
100,757	-6,937	243,741	118,131
101,772	-6,793	243,537	118,141
102,787	-6,709	243,436	118,151
103,801	-6,774	243,316	118,029
104,816	-6,707	243,314	118,074
105,830	-6,553	243,075	118,074
106,845	-6,207	242,756	118,196
107,860	-6,568	242,688	117,853
108,874	-6,614	242,289	117,611
109,889	-6,626	242,147	117,522
110,903	-6,664	241,998	117,408
111,918	-6,604	241,856	117,377
112,933	-6,503	241,655	117,353
113,947	-6,464	241,483	117,291
114,962	-6,419	241,400	117,277
115,976	-6,627	241,254	117,025
116,991	-6,671	240,963	116,837
118,006	-6,450	240,880	116,968
119,020	-6,434	240,651	116,859
120,035	-6,346	240,535	116,864
121,049	-6,399	240,450	116,769
122,064	-6,430	240,227	116,625
123,079	-6,587	240,021	116,386
124,093	-6,471	239,714	116,322
125,108	-6,782	239,550	115,978
126,122	-6,682	239,163	115,862
127,137	-6,980	238,908	115,485
128,151	-6,885	238,992	115,593
129,166	-6,886	238,907	115,542
130,181	-6,799	238,528	115,418
131,195	-6,765	238,331	115,340
132,210	-6,782	238,272	115,288
133,224	-6,543	238,329	115,499
134,239	-6,599	238,006	115,287
135,254	-6,392	237,836	115,361
136,268	-6,548	237,559	115,091
137,283	-6,991	237,481	114,685
138,297	-6,969	237,186	114,550
139,312	-7,116	237,062	114,361
140,327	-6,558	236,904	114,725
141,341	-6,115	236,965	115,100
142,356	-6,010	236,748	115,069
143,370	-6,192	236,667	114,873
144,385	-6,033	236,422	114,872
145,400	-6,073	236,286	114,764
146,414	-6,163	236,164	114,622
147,429	-6,095	235,926	114,550
148,443	-6,182	235,771	114,396
149,458	-6,252	235,551	114,223
150,473	-6,183	235,408	114,198
151,487	-6,250	235,348	114,105
152,502	-6,304	235,184	113,972
153,516	-6,006	234,911	114,067
154,531	-6,200	234,792	113,845
155,546	-6,126	234,564	113,783
156,560	-6,273	234,478	113,614
157,575	-6,444	234,159	113,313
158,589	-6,337	233,960	113,292
159,604	-6,124	233,926	113,435
160,619	-5,852	233,650	113,507
161,633	-5,812	233,627	113,517
162,648	-5,981	233,597	113,358
163,662	-6,191	233,365	113,069
164,677	-6,327	233,225	112,884
165,692	-6,083	233,003	112,959
166,706	-6,048	232,912	112,933
167,721	-6,089	232,831	112,851
168,735	-5,841	232,565	112,907
169,750	-6,115	232,469	112,635
170,764	-5,978	232,200	112,603
171,779	-6,012	232,062	112,498
172,794	-5,866	231,940	112,544
173,808	-6,100	231,709	112,239
174,823	-6,744	231,435	111,591
175,837	-6,762	231,305	111,503
176,852	-6,439	231,305	111,746
177,867	-6,073	231,076	111,913
178,881	-6,096	230,915	111,808
179,896	-5,969	230,837	111,858
180,910	-5,856	230,647	111,844
181,925	-5,813	230,590	111,841
182,940	-6,020	230,395	111,574
183,954	-5,850	230,220	111,613
184,969	-5,858	230,155	111,565
185,983	-5,810	230,003	111,518
186,998	-5,899	229,748	111,316
188,013	-5,587	229,657	111,504
189,027	-5,542	229,464	111,436
190,042	-5,794	229,220	111,112
191,056	-5,821	229,170	111,056
192,071	-5,945	229,132	110,932
193,086	-5,690	228,861	110,988
194,100	-5,581	228,712	110,991
195,115	-6,037	228,371	110,463
196,129	-6,940	228,106	109,628
197,144	-3,543	229,343	112,847
198,159	1,329	230,574	117,233
199,173	3,413	231,203	119,165
200,188	3,626	231,111	119,272
201,202	3,867	230,790	119,283
202,217	4,020	230,772	119,382
203,232	4,235	230,699	119,500
204,246	4,465	230,601	119,616
205,261	4,327	230,463	119,427
206,275	4,515	230,286	119,470
207,290	4,643	230,105	119,465
208,304	4,510	230,020	119,307
209,319	4,547	229,780	119,201
210,334	4,449	229,648	119,046
211,348	4,119	229,295	118,599
212,363	3,708	229,059	118,150
213,377	3,947	228,886	118,234
214,392	3,419	228,783	117,764
215,407	3,873	228,643	118,031
216,421	3,939	228,438	117,964
217,436	3,779	228,378	117,801
218,450	3,636	228,076	117,524
219,465	3,429	227,864	117,247
220,480	3,260	227,906	117,128
221,494	3,589	227,598	117,211
222,509	3,620	227,603	117,226
223,523	3,691	227,365	117,148
224,538	3,575	227,275	117,003
225,553	3,630	227,076	116,932
226,567	3,728	227,005	116,959
227,582	4,201	226,848	117,228
228,596	4,189	226,711	117,137
229,611	4,081	226,505	116,939
230,626	3,581	226,398	116,493
231,640	3,739	226,092	116,445
232,655	3,933	226,228	116,652
233,669	4,260	226,086	116,816
234,684	4,467	226,045	116,941
235,699	3,913	225,712	116,340
236,713	3,770	225,618	116,172
237,728	3,639	225,407	115,955
238,742	3,441	225,258	115,718
239,757	3,650	225,049	115,759
240,772	3,405	224,921	115,498
241,786	3,448	224,943	115,531
242,801	3,777	224,707	115,647
243,815	4,136	224,557	115,829
244,830	4,101	224,327	115,674
245,844	3,776	224,293	115,402
246,859	3,658	224,111	115,209
247,874	4,073	223,861	115,382
248,888	4,039	223,878	115,355
249,903	3,938	223,682	115,168
250,917	3,795	223,418	114,915
251,932	3,764	223,363	114,854
252,947	3,608	223,147	114,615
253,961	3,538	222,981	114,468
254,976	3,765	222,769	114,518
255,990	3,726	222,941	114,567
257,005	3,996	222,671	114,619
258,020	3,832	222,552	114,426
259,034	4,074	222,642	114,642
260,049	3,878	222,383	114,353
261,063	3,791	222,272	114,221
262,078	3,905	221,962	114,136
263,093	4,086	221,901	114,229
264,107	3,824	221,741	113,942
265,122	4,003	221,536	113,958
266,136	4,296	221,493	114,144
267,151	4,149	221,338	113,945
268,166	3,840	221,094	113,581
269,180	3,511	220,810	113,182
270,195	3,469	220,664	113,066
271,209	3,700	220,508	113,146
272,224	3,647	220,450	113,067
273,239	3,684	220,323	113,019
274,253	3,712	220,199	112,966
275,268	3,597	219,998	112,768
276,282	3,393	219,796	112,505
277,297	3,610	219,499	112,502
278,312	3,470	219,597	112,439
279,326	3,423	219,530	112,361
280,341	3,684	219,328	112,438
281,355	3,770	219,213	112,432
282,370	3,723	219,074	112,316
283,384	3,360	218,800	111,901
284,399	3,359	218,716	111,847
285,414	3,209	218,588	111,662
286,428	3,658	218,475	111,923
287,443	3,863	218,355	112,000
288,457	3,766	218,390	111,938
289,472	3,690	218,171	111,760
290,487	3,382	217,836	111,354
291,501	3,158	217,642	111,082
292,516	3,582	217,515	111,315
293,530	3,493	217,397	111,181
294,545	3,496	217,201	111,072
295,560	3,618	217,089	111,094
296,574	3,483	217,259	111,073
297,589	3,569	216,990	110,987
298,603	3,591	216,910	110,953
299,618	3,714	216,715	110,932
300,633	3,743	216,631	110,900
301,647	3,953	216,520	110,985
302,662	3,867	216,423	110,864
303,676	3,962	216,138	110,776
304,691	4,039	216,045	110,774
305,706	3,943	215,941	110,641
306,720	3,759	215,762	110,408
307,735	3,437	215,649	110,109
308,749	3,605	215,493	110,140
309,764	3,842	215,485	110,296
310,779	4,103	215,271	110,364
311,793	3,965	215,033	110,133
312,808	3,528	215,050	109,819
313,822	3,980	214,619	109,912
314,837	3,681	214,591	109,675
315,852	3,697	214,480	109,619
316,866	3,594	214,334	109,461
317,881	3,825	214,341	109,620
318,895	3,812	214,122	109,489
319,910	3,709	213,992	109,340
320,925	3,452	213,694	108,995
321,939	3,268	213,515	108,763
322,954	3,160	213,508	108,673
323,968	3,656	213,483	109,003
324,983	3,829	213,380	109,064
325,997	3,866	213,114	108,944
327,012	3,752	213,008	108,799
328,027	3,872	212,926	108,833
329,041	4,258	212,839	109,052
330,056	4,295	212,629	108,960
331,070	3,866	212,397	108,529
332,085	3,580	212,168	108,200
333,100	3,459	212,117	108,079
334,114	3,591	212,021	108,114
335,129	3,696	211,862	108,098
336,143	3,704	211,676	107,998
337,158	3,516	211,616	107,826
338,173	3,732	211,452	107,885
339,187	3,509	211,332	107,658
340,202	3,264	211,154	107,385
341,216	3,421	210,944	107,379
342,231	3,712	210,856	107,528
343,246	3,296	210,790	107,194
344,260	3,536	210,643	107,277
345,275	3,782	210,569	107,402
346,289	3,793	210,419	107,323
347,304	3,825	210,470	107,362
348,319	3,774	210,166	107,162
349,333	3,719	210,099	107,080
350,348	3,655	210,010	106,980
351,362	3,934	209,900	107,109
352,377	4,098	209,661	107,092
353,392	3,799	209,581	106,834
354,406	3,767	209,382	106,701
355,421	194,794	1343,464	1428,928
356,435	155,494	1481,704	1428,993
