DTS Sentinel unit serial number:	SN410029Multiplexer serial number:	ORYXHardware model number:	OX2-SRSoftware version number:	ORYX F/W v4,00 Oryx Data Collector v3.7.2.0data status	okinstallation	B6 Nyhavnadifferential loss correction	single-endedforward channel	channel 2reverse channel	N/Adate	2023/12/09time	11:25:08forward acquisition time	300,00reverse acquisition time	0,00gamma	499,1914k internal	0,3139k external	0,3139temperature offset calibration	1,0000default loss term (dB/km)	0,3820temperature slope calibration	1,0000multiplexer offset coefficient	1,0000multiplexer slope coefficient	1,0000fibre end	0,00T internal ref (°C)	18,81T ext. ref 1 (°C)	2,77T ext. ref 2 (°C)	2,77length (m)	temperature (°C)	Stokes	anti-Stokes-744,400	-60,134	0,177	-0,056
-743,385	-127,672	-0,276	-0,029
-742,371	-112,381	0,196	0,029
-741,356	-56,531	-0,288	0,094
-740,342	-95,985	-0,019	0,004
-739,327	-92,438	-0,202	0,042
-738,312	590,735	-0,003	0,005
-737,298	-70,265	-0,214	0,060
-736,283	800,000	0,037	0,088
-735,269	-91,745	-0,195	-0,041
-734,254	-57,693	0,055	-0,018
-733,239	-72,562	-0,477	-0,130
-732,225	-200,000	-0,015	0,156
-731,210	-200,000	-0,022	0,150
-730,196	519,544	-0,024	0,041
-729,181	42,501	0,094	-0,063
-728,167	-130,137	-0,026	-0,003
-727,152	52,446	0,022	0,016
-726,137	141,071	-0,041	-0,040
-725,123	-17,066	-0,150	0,070
-724,108	-200,000	0,037	-0,134
-723,094	-200,000	0,000	-0,052
-722,079	-105,269	-0,147	-0,025
-721,064	-117,545	-0,121	0,016
-720,050	-200,000	0,002	-0,064
-719,035	-200,000	-0,021	-0,088
-718,021	-129,702	0,048	0,005
-717,006	-92,032	-0,073	-0,015
-715,991	-73,282	-0,034	0,009
-714,977	-200,000	-0,016	-0,089
-713,962	800,000	0,038	-0,108
-712,948	145,827	-0,069	0,068
-711,933	162,952	-0,033	0,034
-710,918	171,042	0,050	-0,053
-709,904	28,597	-0,050	-0,031
-708,889	-200,000	-0,031	-0,207
-707,875	25,147	-0,019	-0,012
-706,860	-190,901	-0,042	-0,000
-705,845	394,892	0,066	0,103
-704,831	574,951	0,039	-0,071
-703,816	353,983	-0,068	-0,100
-702,802	-200,000	0,023	-0,151
-701,787	-55,122	-0,072	-0,024
-700,772	182,757	-0,015	-0,016
-699,758	31,255	0,032	-0,020
-698,743	800,000	0,050	0,125
-697,729	-82,461	0,127	0,030
-696,714	-118,749	-0,119	-0,015
-695,699	800,000	0,028	-0,061
-694,685	3,862	-0,149	0,080
-693,670	-50,328	0,106	-0,037
-692,656	346,899	-0,038	0,055
-691,641	76,889	-0,060	0,047
-690,627	-200,000	-0,011	0,129
-689,612	-128,098	-0,173	-0,018
-688,597	328,125	-0,060	-0,085
-687,583	-200,000	-0,028	-0,108
-686,568	21,413	-0,083	-0,050
-685,554	800,000	0,021	-0,055
-684,539	-48,181	0,178	0,063
-683,524	-158,879	-0,055	-0,002
-682,510	800,000	-0,039	-0,125
-681,495	193,635	-0,051	-0,058
-680,481	462,661	-0,050	-0,083
-679,466	-113,509	-0,047	-0,007
-678,451	-49,222	0,127	0,045
-677,437	-18,160	0,071	-0,033
-676,422	123,728	-0,098	0,091
-675,408	-46,231	0,007	-0,003
-674,393	154,577	-0,117	0,119
-673,378	-55,089	-0,125	-0,041
-672,364	517,374	-0,064	0,111
-671,349	705,543	-0,033	0,065
-670,335	-17,774	0,050	0,023
-669,320	800,000	0,049	0,107
-668,305	762,933	0,059	0,119
-667,291	-200,000	-0,031	-0,144
-666,276	-200,000	-0,001	-0,025
-665,262	11,218	-0,059	0,033
-664,247	-17,285	-0,128	0,059
-663,232	-200,000	-0,000	-0,006
-662,218	-41,340	0,122	-0,046
-661,203	800,000	0,071	0,147
-660,189	-200,000	-0,003	-0,012
-659,174	-200,000	-0,003	0,026
-658,159	-89,597	0,048	0,010
-657,145	-147,847	-0,115	0,007
-656,130	-70,812	-0,101	0,028
-655,116	75,372	-0,081	-0,063
-654,101	-200,000	0,011	0,043
-653,086	-200,000	0,009	0,086
-652,072	16,664	-0,039	0,023
-651,057	-23,949	-0,249	-0,110
-650,043	-200,000	-0,008	-0,194
-649,028	2,857	0,053	0,028
-648,014	100,649	0,088	-0,075
-646,999	171,877	0,035	-0,038
-645,984	800,000	0,056	0,177
-644,970	-98,068	-0,049	-0,009
-643,955	800,000	-0,044	-0,093
-642,941	-200,000	0,007	-0,074
-641,926	-36,868	0,170	-0,067
-640,911	800,000	-0,047	0,141
-639,897	-200,000	-0,032	-0,179
-638,882	-200,000	0,006	-0,059
-637,868	-200,000	-0,012	-0,116
-636,853	-200,000	-0,011	-0,041
-635,838	70,886	0,077	0,059
-634,824	-200,000	0,026	-0,115
-633,809	-200,000	-0,001	0,028
-632,795	111,898	0,046	-0,041
-631,780	24,744	-0,021	0,013
-630,765	-200,000	0,019	0,065
-629,751	331,581	-0,049	0,070
-628,736	62,262	-0,156	-0,115
-627,722	-161,406	0,006	-0,000
-626,707	100,558	-0,139	0,119
-625,692	-80,015	-0,032	0,008
-624,678	-200,000	0,047	0,184
-623,663	800,000	-0,057	0,145
-622,649	-158,369	0,118	-0,005
-621,634	261,778	0,099	-0,127
-620,619	-54,265	0,059	-0,020
-619,605	800,000	0,038	0,101
-618,590	64,365	0,048	-0,036
-617,576	-200,000	0,007	0,100
-616,561	135,049	-0,046	0,045
-615,546	-117,854	0,077	-0,010
-614,532	-68,110	-0,115	-0,033
-613,517	-75,106	0,067	-0,018
-612,503	-73,112	-0,092	-0,025
-611,488	-5,190	0,068	0,034
-610,474	-37,567	-0,095	-0,037
-609,459	-18,095	0,111	-0,051
-608,444	211,231	0,060	-0,069
-607,430	-40,176	-0,105	-0,040
-606,415	-52,984	-0,086	-0,029
-605,401	165,874	-0,051	0,053
-604,386	-176,749	0,048	-0,001
-603,371	-143,085	-0,035	-0,002
-602,357	144,895	-0,061	0,061
-601,342	-75,158	-0,029	-0,008
-600,328	637,125	-0,040	0,076
-599,313	-82,618	-0,123	0,029
-598,298	-44,236	0,055	0,020
-597,284	-200,000	-0,009	0,116
-596,269	-200,000	0,002	-0,055
-595,255	743,852	-0,017	0,034
-594,240	-110,921	-0,109	-0,016
-593,225	35,110	-0,048	-0,031
-592,211	-104,511	-0,054	-0,009
-591,196	176,566	0,131	0,140
-590,182	-67,707	0,059	-0,017
-589,167	-30,713	0,119	-0,049
-588,152	81,640	-0,106	-0,085
-587,138	-101,448	-0,152	0,027
-586,123	-200,000	-0,012	0,047
-585,109	191,200	-0,048	-0,053
-584,094	345,126	0,030	-0,043
-583,079	330,511	0,053	-0,075
-582,065	293,740	0,108	-0,145
-581,050	680,603	-0,056	0,107
-580,036	100,069	0,020	0,017
-579,021	412,865	-0,084	-0,132
-578,006	605,061	-0,068	0,125
-576,992	-200,000	0,007	-0,054
-575,977	800,000	0,056	-0,143
-574,963	-200,000	-0,000	-0,055
-573,948	248,708	0,053	0,067
-572,934	-124,376	0,067	-0,008
-571,919	1,672	-0,035	-0,018
-570,904	91,290	-0,052	0,043
-569,890	-92,999	0,059	-0,012
-568,875	-200,000	0,007	0,040
-567,861	-200,000	-0,043	0,232
-566,846	-200,000	-0,010	0,064
-565,831	-143,840	0,091	0,006
-564,817	-33,460	-0,046	0,019
-563,802	-200,000	-0,004	-0,044
-562,788	-200,000	-0,005	-0,044
-561,773	-200,000	-0,016	-0,094
-560,758	-200,000	-0,011	0,063
-559,744	37,727	0,061	-0,040
-558,729	507,603	0,008	-0,013
-557,715	117,952	0,082	0,075
-556,700	80,795	-0,140	-0,111
-555,685	-200,000	0,018	-0,087
-554,671	222,249	0,050	-0,060
-553,656	-3,277	0,099	-0,051
-552,642	88,201	-0,049	0,040
-551,627	-68,880	0,110	0,031
-550,612	148,505	0,063	-0,062
-549,598	800,000	0,017	0,049
-548,583	-20,013	-0,096	0,044
-547,569	-200,000	-0,035	0,144
-546,554	800,000	0,016	-0,049
-545,539	-71,380	0,079	-0,022
-544,525	-154,067	-0,112	-0,005
-543,510	788,080	0,047	-0,095
-542,496	-10,715	-0,057	0,028
-541,481	742,694	0,011	0,021
-540,466	133,938	-0,046	0,044
-539,452	323,150	0,051	-0,072
-538,437	581,281	-0,030	0,054
-537,423	169,363	0,035	-0,037
-536,408	-200,000	-0,004	0,024
-535,393	-128,290	-0,145	-0,015
-534,379	15,594	-0,070	-0,041
-533,364	235,901	-0,025	-0,030
-532,350	-200,000	0,023	-0,100
-531,335	94,740	0,068	0,057
-530,321	-200,000	0,025	0,109
-529,306	626,688	-0,042	0,077
-528,291	5,105	-0,139	0,075
-527,277	800,000	-0,029	-0,069
-526,262	107,522	-0,019	-0,017
-525,248	-51,046	-0,125	-0,043
-524,233	599,146	0,062	-0,114
-523,218	-36,920	-0,112	0,044
-522,204	112,216	0,052	0,047
-521,189	93,245	-0,057	-0,048
-520,175	-92,133	-0,073	0,015
-519,160	-200,000	0,004	-0,040
-518,145	-45,650	0,070	-0,025
-517,131	-121,505	0,123	0,015
-516,116	41,838	0,102	0,068
-515,102	-200,000	0,034	0,160
-514,087	322,191	0,048	-0,067
-513,072	6,886	-0,030	0,016
-512,058	481,926	0,015	0,024
-511,043	25,969	0,065	0,040
-510,029	-200,000	-0,030	0,124
-509,014	-142,665	0,101	0,007
-507,999	-200,000	0,045	0,163
-506,985	800,000	0,066	-0,173
-505,970	-140,860	0,049	0,004
-504,956	292,054	-0,022	0,029
-503,941	-200,000	0,005	0,106
-502,926	-200,000	0,017	0,199
-501,912	74,184	-0,024	-0,019
-500,897	-142,458	0,168	0,012
-499,883	226,038	-0,061	-0,073
-498,868	386,211	-0,037	0,056
-497,853	-200,000	0,019	-0,083
-496,839	131,273	-0,038	0,036
-495,824	680,775	0,036	0,068
-494,810	-200,000	-0,006	0,023
-493,795	-200,000	-0,002	-0,018
-492,781	33,117	-0,096	-0,061
-491,766	-200,000	-0,025	0,163
-490,751	195,154	-0,130	-0,145
-489,737	-82,533	-0,106	0,025
-488,722	-200,000	0,010	-0,236
-487,708	-15,115	0,111	-0,052
-486,693	-164,970	-0,195	-0,006
-485,678	198,774	0,024	-0,027
-484,664	59,053	-0,070	-0,050
-483,649	54,868	-0,094	0,066
-482,635	-200,000	-0,022	-0,106
-481,620	-200,000	0,009	-0,071
-480,605	91,128	0,011	0,009
-479,591	107,932	-0,074	0,065
-478,576	37,068	-0,107	0,069
-477,562	30,887	-0,017	-0,011
-476,547	-10,333	0,093	0,045
-475,532	-93,156	-0,092	0,019
-474,518	-200,000	-0,003	-0,023
-473,503	95,231	0,015	-0,013
-472,489	-200,000	0,010	0,102
-471,474	-80,136	-0,091	-0,022
-470,459	-10,369	-0,109	0,053
-469,445	-200,000	-0,012	-0,064
-468,430	542,459	0,054	-0,094
-467,416	123,535	0,013	0,012
-466,401	800,000	0,023	0,054
-465,386	-200,000	0,005	-0,062
-464,372	-200,000	0,029	0,165
-463,357	-200,000	-0,004	0,027
-462,343	-115,202	-0,182	-0,025
-461,328	381,976	0,079	-0,119
-460,313	-200,000	-0,007	-0,063
-459,299	-32,638	0,084	-0,034
-458,284	68,057	0,053	-0,040
-457,270	-118,001	0,062	0,008
-456,255	800,000	-0,074	-0,199
-455,241	77,854	-0,026	-0,020
-454,226	-200,000	-0,020	0,105
-453,211	-41,204	-0,094	-0,035
-452,197	-200,000	-0,001	0,091
-451,182	800,000	0,008	-0,021
-450,168	213,352	0,124	-0,143
-449,153	81,233	-0,070	-0,055
-448,138	-112,739	-0,148	0,021
-447,124	800,000	-0,060	-0,135
-446,109	-143,791	0,008	-0,001
-445,095	80,574	0,049	0,039
-444,080	-60,684	0,058	-0,018
-443,065	374,193	0,081	0,121
-442,051	-200,000	0,006	0,020
-441,036	27,925	-0,200	-0,123
-440,022	283,954	0,109	0,144
-439,007	800,000	-0,009	-0,022
-437,992	-200,000	0,047	0,165
-436,978	-13,872	0,077	-0,036
-435,963	-3,596	-0,127	0,065
-434,949	109,826	0,065	-0,057
-433,934	800,000	0,012	0,034
-432,919	26,685	-0,063	-0,039
-431,905	103,942	-0,063	0,055
-430,890	575,248	0,068	0,122
-429,876	47,890	0,082	0,056
-428,861	131,958	0,107	0,101
-427,846	-33,402	-0,044	-0,018
-426,832	103,993	0,008	0,007
-425,817	127,963	-0,018	-0,017
-424,803	1,506	-0,075	0,039
-423,788	-200,000	-0,001	0,046
-422,773	218,949	0,018	0,021
-421,759	-200,000	0,020	0,073
-420,744	-200,000	0,001	0,098
-419,730	800,000	0,022	-0,070
-418,715	435,581	-0,041	0,066
-417,701	-7,380	-0,152	-0,075
-416,686	-200,000	-0,037	0,143
-415,671	-127,717	0,069	0,007
-414,657	-0,966	0,055	-0,029
-413,642	-78,224	-0,093	-0,023
-412,628	800,000	-0,076	-0,199
-411,613	481,468	-0,114	-0,189
-410,598	-200,000	-0,013	0,063
-409,584	800,000	0,022	-0,065
-408,569	88,198	0,011	-0,009
-407,555	-49,677	-0,087	0,030
-406,540	800,000	-0,033	0,098
-405,525	268,252	-0,057	-0,074
-404,511	-87,806	-0,123	0,027
-403,496	-123,324	0,054	0,006
-402,482	800,000	-0,028	0,078
-401,467	-2,400	0,073	0,037
-400,452	-8,018	0,109	0,054
-399,438	459,062	0,025	0,042
-398,423	800,000	-0,072	-0,155
-397,409	800,000	-0,046	-0,117
-396,394	-200,000	0,011	-0,121
-395,379	81,869	-0,054	-0,042
-394,365	224,717	0,059	0,070
-393,350	-200,000	0,018	0,151
-392,336	175,392	0,093	0,099
-391,321	-23,266	-0,107	-0,047
-390,306	-200,000	-0,019	-0,122
-389,292	-8,517	-0,091	-0,044
-388,277	-20,988	-0,082	0,037
-387,263	-40,955	0,055	-0,021
-386,248	13,909	0,093	0,053
-385,233	-200,000	0,015	0,069
-384,219	-162,372	0,091	-0,003
-383,204	118,659	-0,049	0,044
-382,190	-181,855	-0,190	-0,003
-381,175	82,312	-0,093	-0,074
-380,160	-63,728	0,172	0,051
-379,146	623,784	-0,048	0,088
-378,131	-188,737	0,087	0,001
-377,117	104,749	0,112	0,097
-376,102	400,496	0,049	-0,076
-375,088	56,855	-0,023	-0,016
-374,073	800,000	-0,023	-0,068
-373,058	-200,000	0,046	0,211
-372,044	-85,064	0,087	-0,020
-371,029	-109,429	0,071	0,011
-370,015	198,112	-0,079	0,088
-369,000	-12,869	-0,034	-0,016
-367,985	36,830	-0,014	-0,009
-366,971	-200,000	0,013	-0,044
-365,956	-41,011	0,033	-0,012
-364,942	-181,608	-0,171	0,002
-363,927	108,649	0,123	0,107
-362,912	-200,000	-0,009	-0,072
-361,898	-8,715	-0,113	0,055
-360,883	104,957	-0,075	0,064
-359,869	-15,205	-0,087	-0,041
-358,854	53,652	-0,076	0,053
-357,839	-200,000	-0,052	0,207
-356,825	227,428	-0,030	0,036
-355,810	-103,158	-0,014	-0,002
-354,796	154,161	-0,018	0,018
-353,781	-71,168	-0,027	-0,007
-352,766	51,092	0,002	0,002
-351,752	800,000	-0,004	-0,010
-350,737	-105,844	0,099	-0,016
-349,723	-200,000	0,019	0,138
-348,708	65,752	0,105	0,078
-347,693	46,461	0,115	-0,078
-346,679	84,469	-0,044	0,035
-345,664	485,935	-0,071	-0,118
-344,650	-106,444	-0,082	0,013
-343,635	800,000	0,048	0,131
-342,620	127,581	0,046	0,042
-341,606	41,272	0,117	-0,077
-340,591	-62,054	0,153	0,046
-339,577	159,124	-0,020	-0,020
-338,562	216,367	0,028	-0,033
-337,548	57,121	0,174	-0,124
-336,533	-125,494	0,044	0,005
-335,518	-70,401	0,041	-0,011
-334,504	125,973	0,041	0,038
-333,489	113,768	-0,089	0,079
-332,475	-200,000	0,013	-0,047
-331,460	31,808	-0,114	-0,071
-330,445	155,557	0,026	0,026
-329,431	-200,000	0,005	-0,124
-328,416	-200,000	-0,005	0,040
-327,402	245,755	0,058	0,071
-326,387	-113,773	-0,099	-0,014
-325,372	-84,499	0,017	-0,004
-324,358	592,530	-0,098	-0,177
-323,343	800,000	-0,022	-0,053
-322,329	-147,338	0,069	0,004
-321,314	-200,000	-0,022	0,123
-320,299	364,322	0,051	-0,075
-319,285	800,000	0,025	0,065
-318,270	204,537	-0,050	-0,057
-317,256	-47,296	-0,056	-0,020
-316,241	-200,000	0,010	-0,122
-315,226	293,426	0,109	-0,146
-314,212	449,309	-0,016	-0,025
-313,197	-22,083	-0,071	-0,032
-312,183	52,569	-0,055	0,038
-311,168	-31,923	-0,073	0,030
-310,153	-54,214	-0,011	-0,003
-309,139	63,158	-0,087	0,063
-308,124	59,828	0,064	0,046
-307,110	-30,364	-0,091	-0,038
-306,095	800,000	0,035	-0,110
-305,080	-92,677	0,037	0,008
-304,066	-200,000	-0,002	-0,125
-303,051	-200,000	-0,005	-0,115
-302,037	248,800	0,059	-0,072
-301,022	800,000	0,061	0,150
-300,008	466,414	0,041	-0,067
-298,993	-71,725	0,061	0,017
-297,978	74,183	0,063	0,048
-296,964	363,786	0,044	0,065
-295,949	43,807	0,064	-0,043
-294,935	53,342	-0,083	0,058
-293,920	-68,181	0,149	-0,042
-292,905	164,858	0,030	0,031
-291,891	800,000	0,048	0,112
-290,876	587,392	-0,027	0,048
-289,862	39,053	-0,117	0,076
-288,847	407,148	-0,042	-0,065
-287,832	97,831	-0,034	0,029
-286,818	100,388	0,138	-0,116
-285,803	-102,398	-0,058	-0,010
-284,789	-2,869	0,096	-0,048
-283,774	129,601	0,164	0,153
-282,759	-200,000	0,009	0,127
-281,745	20,890	-0,142	0,083
-280,730	-59,888	-0,084	-0,026
-279,716	470,557	-0,054	0,089
-278,701	-19,001	0,068	0,031
-277,686	52,682	-0,174	-0,121
-276,672	72,643	0,053	-0,040
-275,657	800,000	-0,042	0,093
-274,643	85,267	-0,042	-0,033
-273,628	-159,855	0,038	0,002
-272,613	-200,000	-0,020	-0,181
-271,599	-42,760	-0,157	0,058
-270,584	719,651	0,044	0,086
-269,570	95,888	0,036	0,030
-268,555	22,993	0,058	0,035
-267,540	251,296	0,025	-0,031
-266,526	-191,940	-0,158	0,001
-265,511	569,104	-0,033	-0,059
-264,497	497,519	-0,092	-0,155
-263,482	800,000	0,092	0,217
-262,467	800,000	-0,047	0,139
-261,453	800,000	0,017	0,046
-260,438	800,000	0,024	-0,074
-259,424	65,866	-0,015	-0,011
-258,409	-200,000	-0,028	-0,120
-257,395	-13,193	0,037	0,017
-256,380	800,000	-0,035	-0,108
-255,365	432,370	0,030	-0,048
-254,351	-92,861	-0,058	0,012
-253,336	-200,000	0,020	-0,065
-252,322	374,479	-0,021	-0,031
-251,307	-103,348	0,085	-0,014
-250,292	-27,932	0,085	-0,036
-249,278	-41,447	0,105	0,039
-248,263	295,700	-0,056	-0,075
-247,249	514,143	0,107	0,182
-246,234	-152,470	-0,044	-0,002
-245,219	-58,188	-0,065	-0,020
-244,205	800,000	0,015	-0,048
-243,190	-200,000	0,028	-0,186
-242,176	-200,000	-0,005	-0,090
-241,161	-83,154	-0,067	0,016
-240,146	280,454	0,091	-0,118
-239,132	45,825	-0,118	-0,079
-238,117	-112,877	0,113	-0,016
-237,103	800,000	-0,044	-0,105
-236,088	27,082	-0,023	-0,014
-235,073	-89,566	0,157	-0,033
-234,059	11,639	-0,018	-0,010
-233,044	24,051	0,088	0,053
-232,030	-50,698	0,076	-0,026
-231,015	-80,277	-0,073	0,018
-230,000	-84,363	0,079	-0,018
-228,986	-11,972	-0,150	-0,071
-227,971	-14,948	-0,151	0,070
-226,957	126,679	0,092	-0,085
-225,942	165,422	-0,050	0,051
-224,927	800,000	-0,034	0,073
-223,913	115,015	-0,072	-0,064
-222,898	537,998	-0,044	-0,076
-221,884	258,684	-0,015	0,019
-220,869	775,167	0,047	-0,093
-219,855	-10,545	0,152	0,073
-218,840	-200,000	0,009	-0,034
-217,825	-200,000	-0,009	-0,032
-216,811	800,000	-0,011	-0,023
-215,796	-200,000	-0,004	-0,077
-214,782	-19,087	0,102	-0,046
-213,767	-200,000	-0,006	0,131
-212,752	800,000	0,049	0,106
-211,738	698,784	-0,047	0,090
-210,723	-172,092	0,047	-0,001
-209,709	-145,643	-0,046	0,003
-208,694	-99,351	0,130	-0,024
-207,679	-200,000	-0,002	-0,194
-206,665	-200,000	0,008	0,027
-205,650	21,447	0,093	-0,055
-204,636	-52,553	0,206	-0,069
-203,621	327,601	-0,026	-0,037
-202,606	-188,278	-0,146	-0,001
-201,592	-200,000	0,014	0,077
-200,577	78,269	0,119	-0,093
-199,563	24,981	0,039	0,023
-198,548	-166,134	0,122	-0,004
-197,533	762,210	-0,017	-0,033
-196,519	800,000	0,021	-0,044
-195,504	8,428	-0,040	-0,022
-194,490	800,000	-0,058	0,179
-193,475	-88,865	-0,095	0,020
-192,460	-105,658	0,041	-0,007
-191,446	800,000	0,020	0,054
-190,431	-200,000	0,030	-0,126
-189,417	-200,000	-0,004	-0,110
-188,402	-40,112	0,012	-0,004
-187,387	800,000	0,038	-0,081
-186,373	41,690	0,015	0,010
-185,358	389,884	0,026	0,039
-184,344	-61,717	0,026	0,008
-183,329	-192,796	0,119	0,001
-182,315	208,210	-0,024	0,028
-181,300	-36,310	0,143	-0,056
-180,285	21,116	-0,141	-0,083
-179,271	800,000	0,029	0,082
-178,256	567,445	-0,048	0,085
-177,242	-200,000	0,139	0,000
-176,227	767,104	0,012	-0,024
-175,212	-58,512	0,049	0,015
-174,198	-117,648	0,010	-0,001
-173,183	-200,000	0,011	0,073
-172,169	408,439	-0,021	0,032
-171,154	-200,000	-0,033	0,161
-170,139	-158,537	0,139	-0,006
-169,125	-107,614	0,059	0,009
-168,110	2,987	0,112	0,059
-167,096	573,471	-0,010	-0,017
-166,081	-200,000	0,006	0,045
-165,066	25,968	-0,058	0,035
-164,052	-150,827	-0,052	-0,003
-163,037	227,901	-0,021	0,025
-162,023	-87,798	0,107	0,023
-161,008	-153,120	-0,020	0,001
-159,993	-105,210	-0,138	-0,023
-158,979	-200,000	-0,006	-0,026
-157,964	800,000	0,059	0,164
-156,950	73,298	-0,111	-0,084
-155,935	-79,530	0,135	-0,033
-154,920	8,891	-0,062	0,034
-153,906	-154,171	-0,146	-0,007
-152,891	165,241	0,092	0,094
-151,877	-200,000	-0,007	0,078
-150,862	-32,433	0,056	-0,023
-149,847	317,689	-0,075	-0,102
-148,833	800,000	0,026	-0,066
-147,818	12,508	-0,077	-0,043
-146,804	-200,000	0,007	0,033
-145,789	-156,664	0,061	0,003
-144,775	-55,409	-0,223	-0,072
-143,760	-68,872	-0,054	0,015
-142,745	800,000	-0,024	0,048
-141,731	187,858	0,081	0,088
-140,716	-200,000	0,002	0,072
-139,702	800,000	-0,098	0,201
-138,687	800,000	0,024	-0,065
-137,672	-103,033	-0,070	0,012
-136,658	-63,132	0,015	0,004
-135,643	-200,000	0,015	0,097
-134,629	407,634	-0,051	0,078
-133,614	250,305	-0,028	0,035
-132,599	-186,824	0,066	0,001
-131,585	461,015	0,019	0,030
-130,570	34,027	-0,069	0,043
-129,556	776,769	-0,041	-0,081
-128,541	122,811	0,060	0,054
-127,526	521,337	-0,040	-0,068
-126,512	-109,008	-0,066	-0,010
-125,497	143,590	0,088	-0,084
-124,483	800,000	-0,025	0,080
-123,468	-200,000	0,002	-0,071
-122,453	224,700	-0,051	-0,060
-121,439	800,000	-0,039	-0,092
-120,424	114,963	0,077	0,068
-119,410	-102,941	0,092	0,016
-118,395	-200,000	0,012	-0,042
-117,380	-138,817	0,107	-0,008
-116,366	800,000	-0,008	-0,017
-115,351	800,000	0,037	-0,082
-114,337	-200,000	0,017	-0,206
-113,322	-161,373	-0,038	-0,001
-112,307	-200,000	-0,008	0,039
-111,293	-31,369	0,051	0,021
-110,278	171,960	0,051	0,053
-109,264	68,189	-0,075	0,056
-108,249	-200,000	-0,018	0,119
-107,234	800,000	-0,040	-0,105
-106,220	-14,332	-0,029	0,013
-105,205	25,881	-0,027	-0,017
-104,191	-4,823	0,123	0,061
-103,176	800,000	-0,086	0,207
-102,162	138,536	0,045	-0,043
-101,147	-53,761	0,061	0,020
-100,132	-125,921	-0,107	0,012
-99,118	240,571	-0,043	-0,052
-98,103	800,000	-0,076	0,176
-97,089	155,791	0,025	0,025
-96,074	11,699	0,099	-0,055
-95,059	-143,072	0,094	-0,006
-94,045	-200,000	-0,001	0,124
-93,030	57,893	0,074	-0,052
-92,016	-200,000	-0,000	-0,088
-91,001	-200,000	0,053	0,209
-89,986	14,471	0,164	0,093
-88,972	249,083	0,014	-0,017
-87,957	-200,000	-0,024	0,150
-86,943	-166,037	0,050	0,002
-85,928	-149,418	-0,052	0,003
-84,913	800,000	-0,029	-0,064
-83,899	-145,547	0,056	0,004
-82,884	-58,068	0,072	0,022
-81,870	-200,000	-0,013	0,108
-80,855	179,226	0,134	0,141
-79,840	16,850	-0,071	-0,040
-78,826	13,411	-0,135	0,075
-77,811	800,000	-0,027	0,079
-76,797	800,000	0,040	0,092
-75,782	-112,008	0,074	-0,011
-74,767	-179,146	-0,047	0,001
-73,753	73,930	-0,079	0,060
-72,738	-176,516	0,035	0,001
-71,724	27,182	-0,105	-0,064
-70,709	-200,000	0,005	0,065
-69,694	329,263	0,006	0,009
-68,680	-4,841	0,034	-0,017
-67,665	50,760	-0,064	0,044
-66,651	-136,120	0,216	-0,018
-65,636	-99,025	0,074	0,013
-64,622	-26,568	0,063	-0,026
-63,607	237,912	0,037	-0,045
-62,592	-200,000	-0,006	-0,098
-61,578	-200,000	0,035	-0,134
-60,563	-102,197	0,102	0,017
-59,549	-200,000	-0,008	0,078
-58,534	-51,552	-1,650	-0,553
-57,519	800,000	-0,519	-1,263
-56,505	-200,000	-1,021	-4,725
-55,490	-132,477	0,615	-0,056
-54,476	800,000	5,337	12,080
-53,461	-200,000	15,638	275,533
-52,446	-200,000	701,674	2237,892
-51,432	560,495	1618,359	2834,337
-50,417	120,679	1623,454	1456,717
-49,403	80,401	1283,725	996,956
-48,388	36,711	1027,199	653,705
-47,373	21,704	989,019	579,836
-46,359	20,742	977,695	570,004
-45,344	19,098	973,547	562,169
-44,330	19,091	972,375	561,446
-43,315	18,872	970,427	559,581
-42,300	18,832	969,626	558,965
-41,286	18,886	968,484	558,462
-40,271	18,885	967,577	557,914
-39,257	18,822	966,808	557,243
-38,242	18,886	965,877	556,894
-37,227	18,840	965,111	556,278
-36,213	18,856	964,303	555,842
-35,198	18,822	963,427	555,207
-34,184	18,862	962,771	554,936
-33,169	18,857	961,621	554,236
-32,154	18,943	960,725	553,975
-31,140	18,832	960,096	553,231
-30,125	18,903	959,209	552,926
-29,111	18,835	958,587	552,328
-28,096	18,866	957,948	552,035
-27,082	18,857	957,164	551,534
-26,067	18,834	956,450	551,026
-25,052	18,837	955,551	550,496
-24,038	18,856	954,944	550,184
-23,023	18,749	954,317	549,458
-22,009	18,822	953,550	549,230
-20,994	18,887	952,808	548,991
-19,979	18,901	952,295	548,717
-18,965	18,832	951,847	548,216
-17,950	18,800	951,252	547,748
-16,936	18,796	950,510	547,288
-15,921	18,791	949,843	546,866
-14,906	18,725	949,070	546,187
-13,892	18,719	948,470	545,800
-12,877	18,746	947,692	545,420
-11,863	18,715	947,208	545,019
-10,848	18,698	946,599	544,593
-9,833	18,820	946,146	544,701
-8,819	18,827	945,484	544,319
-7,804	18,684	944,945	543,533
-6,790	18,725	944,291	543,265
-5,775	18,720	943,773	542,928
-4,760	18,739	943,083	542,570
-3,746	18,711	942,671	542,222
-2,731	18,604	941,734	541,322
-1,717	18,545	941,049	540,720
-0,702	18,540	940,297	540,252
0,313	18,328	939,764	540,089
1,327	21,450	938,135	548,977
2,342	30,743	795,277	490,086
3,356	27,831	448,634	272,086
4,371	-1,760	294,444	149,018
5,386	-5,762	275,661	135,712
6,400	-7,130	270,044	131,665
7,415	-7,365	267,581	130,236
8,429	-7,310	266,388	129,694
9,444	-7,386	265,509	129,185
10,459	-7,459	264,936	128,829
11,473	-7,597	264,304	128,384
12,488	-7,685	263,780	128,038
13,502	-7,887	263,184	127,555
14,517	-7,843	262,881	127,437
15,531	-7,902	262,271	127,076
16,546	-7,869	262,046	126,985
17,561	-7,792	261,573	126,814
18,575	-7,678	261,409	126,826
19,590	-7,993	260,992	126,330
20,604	-7,842	260,700	126,312
21,619	-7,854	260,279	126,086
22,634	-8,118	260,167	125,785
23,648	-8,040	259,792	125,662
24,663	-7,776	259,386	125,689
25,677	-7,860	259,256	125,540
26,692	-7,824	258,935	125,406
27,707	-7,842	258,779	125,303
28,721	-7,979	258,427	125,000
29,736	-8,029	258,190	124,830
30,750	-8,144	257,952	124,602
31,765	-7,921	257,644	124,639
32,780	-8,026	257,442	124,438
33,794	-8,069	257,261	124,301
34,809	-7,877	256,940	124,304
35,823	-7,869	256,713	124,191
36,838	-8,113	256,526	123,874
37,853	-7,943	256,239	123,874
38,867	-8,081	255,945	123,600
39,882	-8,087	255,888	123,556
40,896	-8,090	255,647	123,426
41,911	-8,128	255,316	123,221
42,926	-8,013	255,127	123,220
43,940	-8,004	254,754	123,037
44,955	-8,167	254,634	122,826
45,969	-8,195	254,448	122,700
46,984	-8,279	254,173	122,483
47,999	-8,681	254,082	122,078
49,013	-8,693	253,737	121,891
50,028	-8,879	253,512	121,610
51,042	-8,975	253,177	121,356
52,057	-8,887	252,977	121,326
53,071	-8,690	252,661	121,334
54,086	-8,597	252,426	121,291
55,101	-8,742	252,367	121,126
56,115	-8,352	252,329	121,434
57,130	-7,677	252,116	121,904
58,144	-7,719	252,225	121,910
59,159	-7,830	251,817	121,606
60,174	-7,859	251,658	121,493
61,188	-7,782	251,473	121,459
62,203	-7,683	251,199	121,402
63,217	-7,907	250,813	121,011
64,232	-7,830	250,780	121,051
65,247	-7,739	250,493	120,980
66,261	-7,985	250,325	120,677
67,276	-8,116	250,000	120,397
68,290	-8,069	249,730	120,296
69,305	-8,269	249,569	120,038
70,320	-8,429	249,390	119,805
71,334	-8,001	249,250	120,092
72,349	-7,828	249,233	120,220
73,363	-7,852	249,102	120,126
74,378	-7,822	248,714	119,954
75,393	-7,936	248,583	119,783
76,407	-7,959	248,364	119,647
77,422	-8,120	248,174	119,408
78,436	-7,803	247,785	119,479
79,451	-7,848	247,709	119,393
80,466	-8,134	247,458	119,020
81,480	-8,122	247,240	118,915
82,495	-8,165	246,981	118,743
83,509	-8,154	246,781	118,645
84,524	-8,149	246,589	118,546
85,539	-8,340	246,484	118,325
86,553	-8,290	246,085	118,165
87,568	-8,242	246,139	118,221
88,582	-8,171	245,899	118,154
89,597	-8,375	245,705	117,879
90,611	-8,072	245,632	118,088
91,626	-7,817	245,387	118,173
92,641	-7,986	245,189	117,926
93,655	-8,048	245,026	117,785
94,670	-8,332	244,909	117,481
95,684	-8,112	244,598	117,505
96,699	-7,970	244,422	117,528
97,714	-8,142	244,316	117,323
98,728	-8,312	244,107	117,071
99,743	-8,405	243,861	116,866
100,757	-8,447	243,535	116,664
101,772	-8,406	243,411	116,628
102,787	-8,230	243,299	116,710
103,801	-8,197	243,034	116,600
104,816	-8,167	243,111	116,652
105,830	-7,998	242,978	116,717
106,845	-7,933	242,713	116,633
107,860	-7,905	242,465	116,527
108,874	-8,110	242,298	116,267
109,889	-7,937	241,972	116,243
110,903	-7,951	241,785	116,131
111,918	-8,180	241,706	115,894
112,933	-8,147	241,585	115,853
113,947	-8,056	241,383	115,821
114,962	-8,013	241,270	115,791
115,976	-7,937	241,044	115,735
116,991	-7,920	240,829	115,635
118,006	-8,116	240,741	115,422
119,020	-8,067	240,650	115,409
120,035	-7,907	240,544	115,478
121,049	-7,698	240,281	115,513
122,064	-7,917	240,208	115,288
123,079	-7,985	239,894	115,072
124,093	-8,172	239,610	114,773
125,108	-8,340	239,499	114,572
126,122	-8,458	239,230	114,337
127,137	-8,345	238,912	114,267
128,151	-8,363	238,928	114,250
129,166	-8,183	238,680	114,267
130,181	-8,274	238,550	114,121
131,195	-8,305	238,424	114,025
132,210	-8,215	238,064	113,916
133,224	-8,005	238,048	114,068
134,239	-8,043	237,983	113,996
135,254	-8,009	237,831	113,941
136,268	-8,058	237,480	113,723
137,283	-8,380	237,323	113,377
138,297	-8,597	237,013	113,044
139,312	-8,423	236,702	113,026
140,327	-8,297	236,893	113,209
141,341	-7,734	236,727	113,572
142,356	-7,750	236,656	113,515
143,370	-7,558	236,393	113,533
144,385	-7,588	236,266	113,438
145,400	-7,722	236,269	113,322
146,414	-7,566	236,014	113,315
147,429	-7,607	235,697	113,120
148,443	-7,649	235,590	113,024
149,458	-7,722	235,531	112,928
150,473	-7,659	235,357	112,884
151,487	-7,812	234,992	112,577
152,502	-7,855	235,023	112,548
153,516	-7,711	234,778	112,535
154,531	-7,712	234,606	112,441
155,546	-7,775	234,454	112,309
156,560	-7,724	234,184	112,209
157,575	-8,079	234,130	111,892
158,589	-7,974	233,943	111,876
159,604	-7,628	233,864	112,103
160,619	-7,640	233,561	111,938
161,633	-7,526	233,446	111,963
162,648	-7,646	233,257	111,768
163,662	-7,620	233,231	111,766
164,677	-7,690	232,923	111,553
165,692	-7,684	232,743	111,462
166,706	-7,594	232,754	111,528
167,721	-7,522	232,485	111,445
168,735	-7,343	232,255	111,467
169,750	-7,606	232,289	111,266
170,764	-7,604	232,171	111,201
171,779	-7,429	231,907	111,203
172,794	-7,447	231,724	111,090
173,808	-7,610	231,515	110,852
174,823	-8,121	231,250	110,315
175,837	-8,075	230,942	110,194
176,852	-7,690	230,968	110,499
177,867	-7,661	230,990	110,522
178,881	-7,283	230,909	110,769
179,896	-7,648	230,744	110,394
180,910	-7,589	230,461	110,296
181,925	-7,562	230,416	110,285
182,940	-7,543	230,198	110,186
183,954	-7,418	230,053	110,203
184,969	-7,308	229,935	110,223
185,983	-7,431	230,009	110,153
186,998	-7,462	229,709	109,975
188,013	-7,267	229,490	110,012
189,027	-7,376	229,310	109,831
190,042	-7,470	229,216	109,704
191,056	-7,303	228,955	109,698
192,071	-7,322	228,849	109,623
193,086	-7,588	228,797	109,383
194,100	-7,292	228,654	109,534
195,115	-7,309	228,283	109,333
196,129	-8,016	228,000	108,642
197,144	-3,930	229,419	112,477
198,159	1,562	230,983	117,510
199,173	3,383	231,475	119,167
200,188	3,473	231,361	119,168
201,202	3,600	231,100	119,122
202,217	3,844	231,140	119,321
203,232	4,230	230,938	119,505
204,246	4,201	230,723	119,361
205,261	4,146	230,758	119,326
206,275	4,636	230,564	119,594
207,290	4,301	230,509	119,296
208,304	4,598	230,210	119,360
209,319	4,359	230,036	119,074
210,334	4,233	229,925	118,909
211,348	3,869	229,743	118,524
212,363	3,820	229,339	118,267
213,377	3,533	229,256	117,993
214,392	3,486	229,059	117,844
215,407	3,469	229,089	117,836
216,421	3,555	228,865	117,777
217,436	3,412	228,616	117,528
218,450	3,315	228,377	117,321
219,465	3,199	228,326	117,196
220,480	3,330	228,135	117,187
221,494	3,381	228,031	117,162
222,509	3,463	227,906	117,151
223,523	3,626	227,690	117,153
224,538	3,367	227,580	116,889
225,553	3,328	227,576	116,846
226,567	3,600	227,369	116,937
227,582	4,064	227,294	117,242
228,596	3,896	227,182	117,045
229,611	3,582	226,966	116,685
230,626	3,352	226,735	116,381
231,640	3,175	226,679	116,207
232,655	3,846	226,510	116,620
233,669	4,225	226,511	116,897
234,684	4,241	226,420	116,852
235,699	4,041	226,148	116,549
236,713	3,675	225,935	116,152
237,728	3,425	225,768	115,867
238,742	3,303	225,535	115,646
239,757	3,503	225,237	115,633
240,772	3,447	225,274	115,600
241,786	3,626	224,948	115,557
242,801	3,527	225,112	115,556
243,815	3,819	224,990	115,703
244,830	4,058	224,720	115,734
245,844	3,598	224,515	115,272
246,859	3,607	224,560	115,292
247,874	3,914	224,277	115,366
248,888	3,874	224,236	115,305
249,903	3,878	223,919	115,135
250,917	3,396	223,837	114,721
251,932	3,524	223,601	114,686
252,947	3,614	223,447	114,664
253,961	3,539	223,283	114,514
254,976	3,302	223,280	114,325
255,990	3,647	223,127	114,494
257,005	3,946	222,884	114,581
258,020	3,773	222,847	114,423
259,034	4,044	222,859	114,622
260,049	3,864	222,619	114,354
261,063	3,801	222,499	114,235
262,078	3,880	222,429	114,248
263,093	4,133	222,115	114,264
264,107	3,917	221,937	114,002
265,122	3,869	221,946	113,961
266,136	3,859	221,933	113,937
267,151	3,954	221,709	113,882
268,166	3,782	221,446	113,610
269,180	3,304	221,205	113,123
270,195	3,548	220,985	113,180
271,209	3,577	220,890	113,142
272,224	3,451	220,766	112,977
273,239	3,557	220,801	113,062
274,253	3,471	220,547	112,859
275,268	3,408	220,348	112,700
276,282	3,120	220,246	112,426
277,297	3,566	219,979	112,608
278,312	3,172	219,884	112,260
279,326	3,566	219,788	112,490
280,341	3,472	219,677	112,354
281,355	3,682	219,524	112,419
282,370	3,590	219,302	112,229
283,384	3,312	219,167	111,946
284,399	3,087	219,080	111,727
285,414	3,180	218,784	111,634
286,428	3,542	218,640	111,815
287,443	3,613	218,722	111,899
288,457	3,888	218,448	111,949
289,472	3,575	218,433	111,703
290,487	3,222	218,165	111,299
291,501	3,184	217,967	111,161
292,516	3,235	217,888	111,147
293,530	3,125	217,785	111,006
294,545	3,136	217,601	110,910
295,560	3,463	217,486	111,078
296,574	3,632	217,331	111,112
297,589	3,551	217,188	110,970
298,603	3,681	217,131	111,025
299,618	3,495	217,035	110,831
300,633	3,707	217,026	110,970
301,647	4,026	216,844	111,098
302,662	3,838	216,693	110,875
303,676	3,899	216,530	110,825
304,691	3,830	216,360	110,679
305,706	3,928	216,181	110,648
306,720	3,615	216,217	110,431
307,735	3,504	215,932	110,196
308,749	3,214	215,801	109,911
309,764	3,769	215,630	110,212
310,779	3,898	215,542	110,250
311,793	3,916	215,499	110,231
312,808	3,710	215,296	109,970
313,822	3,516	215,112	109,727
314,837	3,624	214,977	109,726
315,852	3,466	214,807	109,517
316,866	3,623	214,824	109,628
317,881	3,697	214,612	109,562
318,895	3,899	214,312	109,543
319,910	3,599	214,256	109,291
320,925	3,312	214,030	108,962
321,939	3,006	213,877	108,657
322,954	3,040	213,861	108,663
323,968	3,492	213,756	108,921
324,983	3,520	213,806	108,957
325,997	4,115	213,481	109,204
327,012	3,876	213,458	109,012
328,027	3,777	213,332	108,868
329,041	3,790	213,310	108,857
330,056	4,117	213,055	108,948
331,070	3,656	212,863	108,514
332,085	3,626	212,625	108,363
333,100	3,747	212,446	108,347
334,114	3,884	212,327	108,373
335,129	3,737	212,147	108,168
336,143	3,429	211,983	107,858
337,158	3,452	211,961	107,853
338,173	3,576	211,864	107,882
339,187	3,379	211,627	107,613
340,202	3,282	211,455	107,447
341,216	3,068	211,359	107,239
342,231	3,312	211,335	107,388
343,246	3,286	211,127	107,255
344,260	3,534	210,939	107,324
345,275	3,521	210,900	107,285
346,289	3,722	210,790	107,360
347,304	3,698	210,772	107,324
348,319	3,641	210,402	107,087
349,333	3,691	210,373	107,098
350,348	3,879	210,238	107,150
351,362	3,746	210,199	107,028
352,377	4,000	209,983	107,085
353,392	3,633	209,851	106,753
354,406	3,760	209,738	106,774
355,421	195,480	1340,213	1426,331
356,435	156,101	1477,980	1426,382
