DTS Sentinel unit serial number:	SN410029Multiplexer serial number:	ORYXHardware model number:	OX2-SRSoftware version number:	ORYX F/W v4,00 Oryx Data Collector v3.7.2.0data status	okinstallation	B6 Nyhavnadifferential loss correction	single-endedforward channel	channel 2reverse channel	N/Adate	2023/12/10time	19:30:08forward acquisition time	300,00reverse acquisition time	0,00gamma	499,1914k internal	0,3122k external	0,3122temperature offset calibration	1,0000default loss term (dB/km)	0,3820temperature slope calibration	1,0000multiplexer offset coefficient	1,0000multiplexer slope coefficient	1,0000fibre end	0,00T internal ref (°C)	22,31T ext. ref 1 (°C)	6,00T ext. ref 2 (°C)	6,01length (m)	temperature (°C)	Stokes	anti-Stokes-744,400	-200,000	0,037	-0,172
-743,385	255,684	-0,133	0,171
-742,371	33,706	0,107	-0,070
-741,356	28,264	-0,196	0,123
-740,342	-200,000	0,025	0,090
-739,327	161,305	-0,177	0,185
-738,312	291,056	-0,091	-0,124
-737,298	-8,965	-0,276	0,137
-736,283	140,865	0,085	-0,084
-735,269	-31,421	-0,210	0,088
-734,254	585,918	0,014	-0,026
-733,239	1,657	-0,303	-0,162
-732,225	178,262	0,142	-0,154
-731,210	-64,713	-0,111	0,033
-730,196	-40,356	0,102	0,040
-729,181	156,809	-0,022	0,023
-728,167	701,492	-0,054	-0,106
-727,152	-108,572	-0,030	-0,005
-726,137	800,000	-0,043	-0,109
-725,123	364,900	0,028	-0,042
-724,108	-110,911	0,135	0,021
-723,094	-200,000	-0,022	-0,100
-722,079	-200,000	0,007	-0,038
-721,064	10,460	0,064	-0,036
-720,050	-93,176	-0,053	0,011
-719,035	180,857	0,052	0,056
-718,021	32,343	0,094	0,060
-717,006	83,723	-0,081	-0,066
-715,991	800,000	-0,057	-0,136
-714,977	800,000	-0,003	0,008
-713,962	800,000	0,025	0,064
-712,948	-145,140	0,083	-0,006
-711,933	-49,001	-0,096	-0,034
-710,918	712,354	-0,088	-0,174
-709,904	-80,817	-0,118	-0,029
-708,889	-151,378	-0,097	-0,005
-707,875	-200,000	-0,044	0,000
-706,860	-126,487	-0,068	-0,007
-705,845	-91,004	0,111	0,024
-704,831	366,145	0,071	-0,106
-703,816	167,680	-0,079	0,083
-702,802	-144,672	0,088	0,006
-701,787	79,083	-0,098	0,078
-700,772	-200,000	0,022	-0,119
-699,758	21,165	-0,139	0,084
-698,743	230,973	-0,017	0,020
-697,729	-130,667	0,123	-0,012
-696,714	-200,000	-0,040	0,151
-695,699	-61,361	0,009	0,003
-694,685	106,150	0,080	-0,071
-693,670	48,768	-0,169	-0,118
-692,656	-87,636	-0,060	-0,013
-691,641	398,536	-0,038	0,059
-690,627	82,612	0,156	0,126
-689,612	-200,000	0,049	-0,000
-688,597	90,558	0,047	-0,039
-687,583	800,000	0,049	-0,147
-686,568	54,403	0,090	-0,064
-685,554	154,077	0,152	-0,156
-684,539	176,027	0,090	0,097
-683,524	-200,000	0,015	-0,075
-682,510	-108,424	-0,118	0,019
-681,495	-106,547	-0,051	-0,008
-680,481	714,280	-0,052	-0,103
-679,466	-200,000	-0,002	-0,248
-678,451	-28,892	0,077	-0,033
-677,437	41,713	-0,065	-0,044
-676,422	-60,473	0,039	0,012
-675,408	279,090	0,041	-0,055
-674,393	-41,460	-0,149	-0,057
-673,378	263,111	0,030	-0,038
-672,364	77,764	-0,093	0,074
-671,349	-106,775	-0,143	0,023
-670,335	-200,000	0,001	0,131
-669,320	-88,583	-0,013	0,003
-668,305	-124,760	-0,107	-0,012
-667,291	-200,000	-0,002	0,016
-666,276	-119,246	-0,140	0,018
-665,262	-114,244	-0,204	-0,029
-664,247	-200,000	0,006	-0,172
-663,232	-60,308	-0,096	-0,030
-662,218	-200,000	-0,005	0,053
-661,203	-200,000	0,011	0,052
-660,189	-200,000	-0,001	0,065
-659,174	343,110	-0,101	0,147
-658,159	379,476	0,037	-0,056
-657,145	228,026	-0,061	-0,074
-656,130	327,319	0,053	0,076
-655,116	385,188	0,044	0,067
-654,101	262,053	-0,030	-0,039
-653,086	648,778	-0,081	-0,155
-652,072	-200,000	0,010	-0,059
-651,057	-182,192	0,023	0,000
-650,043	-200,000	-0,004	-0,145
-649,028	-34,594	-0,148	-0,060
-648,014	58,025	-0,059	-0,043
-646,999	-160,421	0,091	0,004
-645,984	800,000	-0,016	0,049
-644,970	-42,721	0,090	0,034
-643,955	-178,773	-0,136	0,002
-642,941	406,284	-0,066	-0,104
-641,926	-79,056	0,072	-0,018
-640,911	-114,951	0,073	0,010
-639,897	-15,943	0,211	-0,099
-638,882	-12,929	-0,127	-0,061
-637,868	-50,997	-0,076	0,026
-636,853	72,375	-0,044	0,034
-635,838	-200,000	0,012	-0,096
-634,824	-200,000	0,014	-0,077
-633,809	-200,000	-0,004	-0,041
-632,795	238,800	-0,031	0,038
-631,780	244,599	-0,134	-0,168
-630,765	396,240	-0,084	-0,130
-629,751	800,000	0,050	-0,116
-628,736	479,214	-0,051	0,087
-627,722	-56,813	0,089	0,029
-626,707	-200,000	0,011	-0,169
-625,692	-200,000	-0,015	-0,101
-624,678	-31,423	0,075	0,031
-623,663	329,519	0,079	-0,113
-622,649	270,329	-0,075	-0,098
-621,634	-130,742	-0,077	0,008
-620,619	313,512	0,091	0,127
-619,605	-62,369	-0,098	-0,030
-618,590	-152,216	-0,051	-0,003
-617,576	-62,928	-0,028	-0,009
-616,561	5,892	-0,037	-0,020
-615,546	-8,043	-0,230	0,115
-614,532	107,396	-0,056	-0,049
-613,517	457,751	-0,047	-0,078
-612,503	-21,673	0,085	-0,038
-611,488	236,331	0,060	0,073
-610,474	-67,399	-0,113	0,033
-609,459	-86,855	0,108	-0,024
-608,444	-200,000	-0,022	-0,089
-607,430	-76,936	-0,070	0,018
-606,415	-200,000	0,009	-0,073
-605,401	-83,022	-0,075	-0,018
-604,386	-200,000	-0,005	0,058
-603,371	-200,000	0,006	-0,099
-602,357	608,673	-0,009	0,016
-601,342	15,957	0,094	0,055
-600,328	33,332	-0,035	0,022
-599,313	70,155	-0,080	-0,061
-598,298	545,918	0,059	-0,105
-597,284	-200,000	-0,013	0,050
-596,269	-152,013	0,085	0,005
-595,255	-64,483	0,034	-0,010
-594,240	-3,661	-0,065	0,033
-593,225	-200,000	0,016	-0,210
-592,211	-177,084	-0,066	-0,001
-591,196	766,419	0,023	0,046
-590,182	800,000	-0,026	0,071
-589,167	800,000	0,037	0,103
-588,152	75,111	0,072	0,057
-587,138	504,623	-0,054	-0,094
-586,123	-21,853	-0,092	-0,041
-585,109	800,000	-0,054	0,120
-584,094	71,894	-0,118	-0,091
-583,079	738,038	-0,018	0,036
-582,065	532,123	-0,033	0,057
-581,050	-39,421	-0,024	0,009
-580,036	-200,000	0,023	0,109
-579,021	800,000	0,026	-0,068
-578,006	34,622	0,099	-0,064
-576,992	-78,141	-0,140	-0,035
-575,977	800,000	0,045	-0,126
-574,963	-69,110	-0,070	0,020
-573,948	-57,657	0,082	0,026
-572,934	207,354	0,065	-0,075
-571,919	-200,000	-0,024	-0,204
-570,904	-200,000	-0,014	-0,110
-569,890	350,188	0,061	-0,089
-568,875	800,000	-0,032	0,090
-567,861	-112,326	0,137	0,020
-566,846	-96,851	-0,094	-0,018
-565,831	-200,000	-0,000	-0,100
-564,817	800,000	-0,030	0,063
-563,802	-40,771	-0,107	0,041
-562,788	-97,093	-0,062	0,012
-561,773	38,510	0,114	0,075
-560,758	800,000	-0,023	-0,049
-559,744	-62,889	-0,087	-0,027
-558,729	473,736	-0,038	0,064
-557,715	-87,088	-0,052	-0,012
-556,700	-55,462	-0,096	0,032
-555,685	-60,232	-0,089	-0,028
-554,671	-44,188	-0,096	0,035
-553,656	149,663	-0,043	-0,044
-552,642	-200,000	-0,003	0,178
-551,627	-90,874	-0,238	0,050
-550,612	-200,000	-0,008	-0,045
-549,598	518,613	-0,082	-0,142
-548,583	-200,000	0,004	-0,055
-547,569	-130,502	0,131	-0,013
-546,554	800,000	0,080	0,186
-545,539	-13,004	-0,126	0,060
-544,525	-150,526	0,128	0,007
-543,510	-114,679	-0,097	-0,014
-542,496	135,178	-0,068	0,065
-541,481	127,992	-0,065	-0,061
-540,466	-113,438	-0,115	0,017
-539,452	211,018	0,074	0,087
-538,437	-200,000	-0,008	0,104
-537,423	-130,748	0,118	0,012
-536,408	-200,000	-0,015	-0,083
-535,393	-122,326	-0,097	-0,012
-534,379	-146,441	0,034	0,002
-533,364	303,964	0,020	-0,027
-532,350	100,695	-0,216	0,185
-531,335	-200,000	-0,007	-0,023
-530,321	59,144	0,031	0,023
-529,306	-200,000	0,016	-0,094
-528,291	-179,813	-0,078	-0,001
-527,277	164,166	0,017	-0,018
-526,262	-200,000	0,019	-0,124
-525,248	9,346	0,080	-0,045
-524,233	800,000	0,026	-0,065
-523,218	-88,500	0,120	-0,026
-522,204	285,577	0,049	0,066
-521,189	393,357	0,051	0,079
-520,175	168,835	0,009	0,009
-519,160	130,091	-0,025	-0,024
-518,145	175,597	-0,068	0,073
-517,131	-200,000	0,020	0,213
-516,116	110,887	-0,073	0,065
-515,102	-134,510	0,168	0,015
-514,087	-161,070	-0,122	0,005
-513,072	-200,000	-0,016	-0,073
-512,058	-200,000	0,026	-0,122
-511,043	-92,985	-0,064	-0,013
-510,029	-200,000	-0,003	0,089
-509,014	722,062	-0,032	0,064
-507,999	-200,000	0,014	-0,065
-506,985	-200,000	-0,009	-0,082
-505,970	-166,428	-0,092	0,003
-504,956	173,567	-0,044	-0,047
-503,941	800,000	-0,018	0,038
-502,926	67,388	0,084	-0,064
-501,912	-77,691	0,136	-0,034
-500,897	800,000	-0,015	0,038
-499,883	-63,639	-0,146	-0,044
-498,868	31,506	-0,040	-0,025
-497,853	655,823	-0,032	0,062
-496,839	299,154	-0,038	0,052
-495,824	12,607	-0,019	0,011
-494,810	-7,428	-0,053	0,026
-493,795	265,221	0,041	-0,053
-492,781	800,000	0,008	-0,017
-491,766	800,000	-0,028	-0,067
-490,751	613,213	-0,017	-0,031
-489,737	94,563	0,052	-0,043
-488,722	800,000	0,051	0,116
-487,708	248,775	-0,025	-0,031
-486,693	-200,000	-0,020	-0,097
-485,678	-200,000	-0,021	0,141
-484,664	16,578	-0,075	0,044
-483,649	-26,595	0,142	0,061
-482,635	800,000	-0,032	-0,069
-481,620	491,876	0,072	-0,123
-480,605	38,862	0,136	0,089
-479,591	5,166	0,149	0,081
-478,576	-200,000	0,003	0,067
-477,562	-8,371	-0,092	-0,046
-476,547	-30,064	0,111	0,046
-475,532	439,923	0,032	0,052
-474,518	-105,715	0,150	-0,025
-473,503	-200,000	0,030	0,129
-472,489	114,026	-0,053	-0,048
-471,474	148,321	0,067	-0,067
-470,459	379,843	0,029	0,044
-469,445	209,724	0,066	-0,076
-468,430	-200,000	-0,038	-0,194
-467,416	-38,736	0,065	0,025
-466,401	330,245	0,109	0,155
-465,386	1,590	-0,014	-0,007
-464,372	800,000	-0,072	-0,162
-463,357	800,000	-0,079	-0,178
-462,343	-149,661	-0,221	0,013
-461,328	-162,504	0,109	-0,004
-460,313	154,404	-0,035	0,036
-459,299	-34,640	0,045	-0,018
-458,284	800,000	0,037	0,078
-457,270	-200,000	-0,010	-0,041
-456,255	-200,000	-0,024	-0,090
-455,241	201,892	0,041	-0,047
-454,226	82,764	-0,067	0,054
-453,211	655,263	-0,016	-0,029
-452,197	-132,750	-0,114	-0,011
-451,182	233,691	0,092	0,112
-450,168	105,886	0,104	0,091
-449,153	-54,918	-0,126	-0,042
-448,138	-95,510	-0,121	0,024
-447,124	-32,111	-0,054	-0,022
-446,109	-79,626	0,099	-0,024
-445,095	22,721	0,146	0,088
-444,080	-138,642	-0,111	-0,009
-443,065	84,224	-0,029	0,023
-442,051	-200,000	0,006	0,095
-441,036	77,084	-0,031	-0,025
-440,022	-200,000	-0,044	-0,159
-439,007	-200,000	0,026	-0,119
-437,992	800,000	0,023	0,055
-436,978	-200,000	-0,007	0,060
-435,963	-151,298	0,084	0,005
-434,949	170,704	-0,078	-0,082
-433,934	-74,085	0,010	0,003
-432,919	-2,647	0,049	0,025
-431,905	-200,000	0,027	0,121
-430,890	181,905	-0,062	-0,068
-429,876	-169,993	-0,055	-0,001
-428,861	-129,278	0,098	0,010
-427,846	238,684	0,038	0,047
-426,832	-115,716	-0,113	0,015
-425,817	19,318	-0,094	-0,055
-424,803	112,394	-0,065	-0,058
-423,788	-200,000	-0,005	-0,119
-422,773	-137,971	0,146	-0,012
-421,759	-200,000	0,008	0,092
-420,744	800,000	0,005	0,012
-419,730	230,000	-0,019	0,023
-418,715	-200,000	-0,019	-0,093
-417,701	-7,137	0,081	0,040
-416,686	-45,341	0,061	0,022
-415,671	800,000	0,035	0,114
-414,657	-112,210	-0,052	0,008
-413,642	438,093	0,045	-0,072
-412,628	-200,000	-0,017	0,061
-411,613	-17,321	0,078	0,036
-410,598	128,667	0,105	-0,099
-409,584	223,463	0,077	0,091
-408,569	-200,000	-0,006	-0,085
-407,555	789,405	0,074	0,150
-406,540	51,397	-0,042	0,029
-405,525	125,139	0,087	-0,081
-404,511	373,556	0,091	-0,137
-403,496	-200,000	0,011	-0,140
-402,482	-200,000	-0,002	0,037
-401,467	459,634	-0,016	-0,026
-400,452	-200,000	-0,001	0,016
-399,438	-47,315	0,076	0,027
-398,423	129,214	0,017	0,016
-397,409	-42,911	0,010	0,004
-396,394	518,228	-0,013	0,022
-395,379	800,000	-0,081	-0,216
-394,365	214,082	0,081	0,095
-393,350	-118,587	0,074	-0,010
-392,336	87,519	0,116	0,094
-391,321	800,000	0,098	0,220
-390,306	800,000	0,049	-0,108
-389,292	388,922	-0,075	-0,114
-388,277	-200,000	-0,010	-0,056
-387,263	441,531	0,093	0,150
-386,248	-200,000	-0,018	0,117
-385,233	-200,000	0,017	0,176
-384,219	-200,000	-0,024	-0,093
-383,204	187,033	0,106	0,117
-382,190	800,000	-0,025	-0,069
-381,175	286,688	0,117	0,155
-380,160	-199,801	0,155	-0,001
-379,146	-21,123	-0,035	0,016
-378,131	95,391	0,065	0,055
-377,117	-70,135	0,190	-0,053
-376,102	99,635	-0,014	0,012
-375,088	-98,848	-0,082	-0,015
-374,073	345,353	0,063	-0,091
-373,058	95,554	0,085	-0,072
-372,044	31,496	0,171	0,108
-371,029	-109,421	-0,091	0,014
-370,015	18,143	-0,071	-0,041
-369,000	-103,256	0,078	0,013
-367,985	-149,055	-0,124	0,007
-366,971	800,000	-0,026	0,065
-365,956	-200,000	0,019	0,107
-364,942	101,006	0,014	0,012
-363,927	572,773	-0,058	0,105
-362,912	-73,405	0,160	0,043
-361,898	-200,000	-0,003	0,110
-360,883	-200,000	0,018	-0,116
-359,869	90,070	-0,055	0,045
-358,854	-25,691	-0,036	0,016
-357,839	147,967	0,051	-0,050
-356,825	285,091	-0,017	-0,023
-355,810	752,116	0,027	0,053
-354,796	322,858	-0,071	-0,100
-353,781	-200,000	0,029	-0,125
-352,766	-107,095	-0,118	0,019
-351,752	800,000	0,041	0,101
-350,737	800,000	0,016	-0,051
-349,723	-17,682	0,154	0,071
-348,708	-65,932	0,096	-0,028
-347,693	800,000	0,021	0,059
-346,679	-46,467	-0,061	0,022
-345,664	326,358	0,051	-0,071
-344,650	114,358	0,058	-0,052
-343,635	800,000	0,043	-0,130
-342,620	92,693	0,059	0,049
-341,606	-52,473	-0,077	-0,026
-340,591	730,679	-0,038	-0,075
-339,577	-200,000	-0,002	-0,049
-338,562	15,507	-0,134	-0,077
-337,548	-92,193	0,030	-0,006
-336,533	263,790	-0,050	0,064
-335,518	-200,000	-0,003	-0,018
-334,504	-200,000	-0,021	0,159
-333,489	7,986	-0,093	0,051
-332,475	800,000	0,062	0,153
-331,460	-28,960	-0,058	0,024
-330,445	-200,000	0,007	0,102
-329,431	-68,107	0,080	-0,023
-328,416	-16,667	0,123	0,057
-327,402	31,030	0,125	0,078
-326,387	499,454	-0,042	0,070
-325,372	-89,025	-0,098	-0,021
-324,358	-200,000	0,051	-0,244
-323,343	31,053	0,068	0,043
-322,329	-200,000	0,004	0,043
-321,314	784,757	0,033	0,067
-320,299	-200,000	-0,004	0,016
-319,285	-200,000	-0,033	-0,130
-318,270	-189,650	-0,065	0,001
-317,256	-50,562	0,121	-0,042
-316,241	-200,000	0,027	0,102
-315,226	370,894	0,014	0,021
-314,212	800,000	0,056	-0,135
-313,197	-94,266	-0,015	-0,003
-312,183	-106,897	0,017	0,003
-311,168	693,073	0,080	-0,155
-310,153	6,501	-0,084	-0,046
-309,139	-72,785	0,117	0,031
-308,124	165,150	0,083	-0,086
-307,110	-47,827	-0,025	-0,009
-306,095	212,254	-0,101	0,117
-305,080	800,000	0,017	-0,040
-304,066	-200,000	-0,004	-0,104
-303,051	-76,125	-0,114	-0,029
-302,037	674,457	0,013	0,025
-301,022	263,116	0,098	-0,125
-300,008	78,497	0,060	0,047
-298,993	74,789	-0,079	-0,061
-297,978	13,853	-0,093	-0,053
-296,964	626,566	-0,055	-0,102
-295,949	277,936	-0,120	0,157
-294,935	347,195	0,018	0,025
-293,920	-200,000	0,026	-0,111
-292,905	-162,592	-0,109	0,004
-291,891	596,001	-0,038	0,070
-290,876	-200,000	0,024	-0,138
-289,862	271,786	-0,025	-0,033
-288,847	83,509	0,055	-0,044
-287,832	-200,000	0,015	-0,093
-286,818	-149,745	-0,093	0,005
-285,803	800,000	-0,040	0,090
-284,789	-150,703	0,063	-0,003
-283,774	-200,000	0,015	0,099
-282,759	-145,459	-0,126	0,008
-281,745	216,578	0,048	-0,056
-280,730	-113,160	-0,077	-0,011
-279,716	248,340	0,053	0,065
-278,701	187,490	0,025	0,027
-277,686	48,385	-0,077	-0,053
-276,672	-112,913	-0,034	0,005
-275,657	371,990	-0,049	0,073
-274,643	-5,756	-0,073	-0,036
-273,628	-49,643	-0,191	0,066
-272,613	122,145	0,108	0,098
-271,599	235,109	-0,072	-0,087
-270,584	66,049	0,081	0,060
-269,570	-200,000	0,005	-0,125
-268,555	-148,309	0,062	-0,004
-267,540	-149,596	-0,038	0,002
-266,526	-49,402	-0,039	0,013
-265,511	-200,000	-0,011	-0,105
-264,497	-55,876	0,209	0,068
-263,482	402,627	0,082	-0,127
-262,467	-100,864	0,068	-0,012
-261,453	638,098	-0,024	0,045
-260,438	-69,282	-0,055	0,015
-259,424	424,049	0,023	-0,036
-258,409	91,051	-0,103	0,084
-257,395	-200,000	0,004	0,055
-256,380	73,209	0,016	0,012
-255,365	-200,000	-0,033	0,115
-254,351	-155,419	-0,118	0,005
-253,336	-5,355	0,115	0,058
-252,322	201,101	0,014	-0,016
-251,307	388,307	-0,059	0,089
-250,292	-200,000	0,029	0,166
-249,278	-38,756	0,060	0,023
-248,263	322,915	0,018	0,025
-247,249	-200,000	0,013	0,167
-246,234	800,000	0,009	0,018
-245,219	800,000	0,019	-0,045
-244,205	-80,504	-0,098	0,024
-243,190	245,852	0,107	0,132
-242,176	-99,019	0,060	-0,011
-241,161	-114,917	0,103	0,014
-240,146	167,608	0,035	-0,036
-239,132	-48,799	-0,063	0,022
-238,117	193,362	-0,025	-0,027
-237,103	-200,000	0,048	-0,173
-236,088	22,899	-0,126	0,076
-235,073	118,002	-0,010	-0,009
-234,059	-99,265	0,079	-0,014
-233,044	107,481	-0,027	0,024
-232,030	83,689	-0,067	0,053
-231,015	-200,000	0,005	-0,155
-230,000	202,190	0,051	0,057
-228,986	800,000	-0,028	-0,087
-227,971	508,390	-0,034	0,059
-226,957	-168,541	0,023	0,001
-225,942	-39,361	0,141	0,054
-224,927	60,493	0,057	0,041
-223,913	103,423	-0,068	-0,058
-222,898	100,088	-0,122	-0,103
-221,884	69,582	0,088	-0,066
-220,869	482,543	-0,108	0,180
-219,855	-53,759	-0,041	0,014
-218,840	800,000	-0,017	0,039
-217,825	-200,000	-0,001	0,058
-216,811	800,000	-0,027	0,084
-215,796	34,284	-0,118	0,075
-214,782	-200,000	0,002	-0,068
-213,767	203,693	0,073	0,083
-212,752	-108,311	0,061	-0,010
-211,738	-200,000	0,036	0,128
-210,723	-166,152	0,092	0,003
-209,709	10,256	0,060	-0,033
-208,694	-200,000	0,011	-0,156
-207,679	-144,955	0,140	0,009
-206,665	-83,581	-0,109	-0,025
-205,650	-200,000	0,097	-0,000
-204,636	-115,950	0,111	-0,015
-203,621	173,349	0,070	-0,074
-202,606	800,000	-0,055	-0,130
-201,592	-2,982	0,050	0,025
-200,577	36,794	0,069	-0,044
-199,563	-200,000	-0,044	-0,176
-198,548	107,214	-0,049	-0,042
-197,533	800,000	0,029	0,060
-196,519	800,000	-0,030	0,063
-195,504	800,000	-0,088	-0,184
-194,490	296,125	-0,130	-0,174
-193,475	-200,000	0,007	0,092
-192,460	162,149	0,100	-0,102
-191,446	-100,837	0,132	-0,023
-190,431	800,000	0,047	0,130
-189,417	-55,337	0,158	0,051
-188,402	35,235	0,194	0,124
-187,387	800,000	-0,046	0,145
-186,373	197,357	0,010	-0,011
-185,358	117,997	-0,028	0,025
-184,344	-200,000	0,006	0,214
-183,329	-109,752	-0,097	0,015
-182,315	102,125	-0,060	-0,051
-181,300	-35,541	0,039	-0,015
-180,285	-200,000	-0,004	0,018
-179,271	-200,000	0,003	-0,089
-178,256	355,188	0,046	0,066
-177,242	800,000	-0,022	-0,049
-176,227	144,757	-0,077	0,075
-175,212	583,249	-0,016	0,029
-174,198	-120,926	-0,033	0,004
-173,183	-141,595	-0,079	0,006
-172,169	151,195	-0,041	0,041
-171,154	-4,251	0,037	-0,018
-170,139	-46,064	0,062	0,022
-169,125	-200,000	0,043	0,177
-168,110	800,000	-0,025	0,052
-167,096	116,437	-0,117	0,104
-166,081	38,662	-0,044	-0,028
-165,066	69,382	-0,113	-0,085
-164,052	480,643	0,049	-0,081
-163,037	81,046	-0,044	-0,034
-162,023	-200,000	-0,012	0,141
-161,008	90,730	0,048	0,039
-159,993	481,527	-0,043	-0,071
-158,979	516,683	-0,078	0,133
-157,964	189,965	-0,051	0,056
-156,950	-106,698	-0,090	-0,014
-155,935	-127,692	-0,034	0,004
-154,920	425,990	-0,048	0,076
-153,906	-131,962	0,062	0,006
-152,891	-16,941	-0,019	-0,009
-151,877	-69,926	-0,143	0,040
-150,862	-200,000	-0,009	0,035
-149,847	397,173	-0,020	-0,030
-148,833	-62,907	-0,127	-0,038
-147,818	569,344	0,037	0,066
-146,804	221,438	0,032	0,037
-145,789	-10,832	0,038	0,018
-144,775	54,771	-0,047	0,033
-143,760	248,662	-0,052	-0,064
-142,745	800,000	-0,022	-0,069
-141,731	100,706	-0,071	-0,060
-140,716	-107,719	0,193	-0,030
-139,702	-175,377	-0,061	-0,001
-138,687	199,578	0,055	-0,061
-137,672	-57,425	0,159	0,051
-136,658	41,155	-0,065	0,043
-135,643	150,841	0,048	-0,048
-134,629	522,409	0,064	0,110
-133,614	44,424	0,108	-0,072
-132,599	-83,723	-0,058	0,013
-131,585	-200,000	-0,048	0,167
-130,570	431,433	0,041	-0,064
-129,556	297,056	0,036	-0,048
-128,541	506,855	-0,032	-0,055
-127,526	269,923	-0,096	-0,123
-126,512	17,701	0,190	0,109
-125,497	-53,518	-0,045	0,015
-124,483	512,340	-0,027	0,045
-123,468	800,000	-0,011	-0,024
-122,453	8,019	0,077	0,042
-121,439	-155,964	-0,076	0,003
-120,424	404,966	0,080	-0,123
-119,410	800,000	0,058	0,131
-118,395	155,557	0,061	0,061
-117,380	-56,587	0,104	-0,033
-116,366	537,545	-0,021	0,036
-115,351	93,076	-0,077	0,063
-114,337	-200,000	-0,054	-0,212
-113,322	552,370	-0,040	-0,070
-112,307	-14,118	-0,166	0,078
-111,293	-200,000	-0,009	0,059
-110,278	-162,505	0,144	-0,005
-109,264	-5,574	-0,034	0,017
-108,249	-109,036	0,110	-0,017
-107,234	177,780	-0,148	0,157
-106,220	-200,000	0,004	0,030
-105,205	-79,669	0,087	0,021
-104,191	197,772	0,049	-0,054
-103,176	-10,311	0,126	0,061
-102,162	-95,490	-0,095	0,018
-101,147	15,262	0,016	-0,009
-100,132	-95,851	0,120	0,023
-99,118	-31,351	-0,048	0,020
-98,103	79,456	-0,072	0,056
-97,089	-200,000	0,017	0,065
-96,074	-200,000	-0,003	-0,037
-95,059	-200,000	0,026	0,130
-94,045	28,483	-0,010	0,006
-93,030	479,573	-0,129	-0,213
-92,016	80,283	0,032	0,025
-91,001	-200,000	-0,005	-0,050
-89,986	48,114	0,100	0,068
-88,972	288,374	0,042	0,055
-87,957	-200,000	0,008	0,094
-86,943	109,013	0,029	-0,025
-85,928	-148,321	-0,090	-0,005
-84,913	-45,277	-0,098	-0,035
-83,899	-200,000	0,049	-0,176
-82,884	127,220	0,027	-0,025
-81,870	-74,878	0,175	-0,045
-80,855	82,134	-0,049	-0,039
-79,840	201,225	0,010	-0,011
-78,826	-13,627	-0,156	-0,073
-77,811	20,586	-0,047	0,028
-76,797	-200,000	0,013	-0,075
-75,782	259,746	0,082	-0,103
-74,767	-200,000	-0,014	0,060
-73,753	-200,000	0,036	0,163
-72,738	-54,511	-0,048	-0,016
-71,724	306,008	0,094	-0,128
-70,709	159,345	0,056	-0,056
-69,694	17,172	0,125	-0,072
-68,680	282,885	0,083	0,108
-67,665	800,000	0,024	-0,052
-66,651	-42,861	-0,011	0,004
-65,636	-43,537	0,147	0,053
-64,622	800,000	0,018	-0,040
-63,607	-200,000	-0,005	-0,159
-62,592	131,782	-0,026	-0,024
-61,578	800,000	0,053	-0,107
-60,563	136,382	0,050	0,047
-59,549	-200,000	0,016	0,111
-58,534	-96,035	-1,240	-0,237
-57,519	800,000	-0,709	-1,477
-56,505	-200,000	-0,822	-4,420
-55,490	94,854	0,493	-0,407
-54,476	800,000	5,093	11,814
-53,461	-200,000	13,570	252,970
-52,446	-200,000	689,885	2257,450
-51,432	590,267	1622,373	2915,957
-50,417	119,104	1634,850	1467,201
-49,403	73,137	1289,105	977,049
-48,388	38,005	1024,236	659,665
-47,373	24,297	981,812	587,252
-46,359	23,529	971,475	578,528
-45,344	22,531	967,198	572,695
-44,330	22,468	965,620	571,533
-43,315	22,410	964,265	570,518
-42,300	22,343	963,266	569,686
-41,286	22,328	962,641	569,246
-40,271	22,301	961,429	568,418
-39,257	22,283	960,466	567,767
-38,242	22,361	959,401	567,370
-37,227	22,287	958,765	566,731
-36,213	22,270	957,809	566,088
-35,198	22,264	956,865	565,490
-34,184	22,343	956,437	565,468
-33,169	22,275	955,528	564,688
-32,154	22,288	954,606	564,163
-31,140	22,360	953,445	563,689
-30,125	22,386	952,943	563,451
-29,111	22,350	951,877	562,683
-28,096	22,342	951,314	562,301
-27,082	22,359	950,583	561,903
-26,067	22,329	949,918	561,392
-25,052	22,375	949,087	561,027
-24,038	22,351	948,579	560,625
-23,023	22,376	947,759	560,200
-22,009	22,443	947,142	560,026
-20,994	22,380	946,626	559,497
-19,979	22,366	945,836	558,965
-18,965	22,384	945,297	558,681
-17,950	22,402	944,571	558,287
-16,936	22,333	943,991	557,702
-15,921	22,281	943,274	557,092
-14,906	22,217	942,848	556,614
-13,892	22,237	941,986	556,146
-12,877	22,242	941,546	555,881
-11,863	22,240	940,765	555,391
-10,848	22,183	940,339	554,936
-9,833	22,397	939,737	555,237
-8,819	22,317	939,176	554,629
-7,804	22,217	938,576	553,937
-6,790	22,231	937,955	553,593
-5,775	22,311	937,092	553,314
-4,760	22,264	936,658	552,888
-3,746	22,245	936,009	552,421
-2,731	22,149	935,166	551,599
-1,717	22,040	934,637	550,922
-0,702	22,029	933,981	550,477
0,313	21,819	933,412	550,313
1,327	25,068	931,263	559,213
2,342	34,788	795,835	503,773
3,356	32,668	451,713	282,719
4,371	1,600	294,066	153,017
5,386	-2,849	274,881	138,807
6,400	-4,309	269,201	134,570
7,415	-4,785	266,461	132,751
8,429	-4,651	265,524	132,395
9,444	-4,691	264,652	131,912
10,459	-4,619	263,907	131,595
11,473	-4,756	263,459	131,235
12,488	-4,645	262,902	131,047
13,502	-4,950	262,464	130,540
14,517	-4,932	261,932	130,280
15,531	-4,707	261,550	130,282
16,546	-4,597	261,110	130,150
17,561	-4,829	260,724	129,737
18,575	-4,702	260,568	129,762
19,590	-4,615	260,104	129,598
20,604	-4,550	259,902	129,543
21,619	-4,846	259,459	129,046
22,634	-4,624	259,059	129,034
23,648	-4,659	258,773	128,849
24,663	-4,795	258,720	128,689
25,677	-4,860	258,339	128,431
26,692	-4,706	258,191	128,483
27,707	-4,682	257,830	128,314
28,721	-4,776	257,563	128,086
29,736	-4,807	257,486	128,008
30,750	-4,844	257,094	127,769
31,765	-4,826	256,796	127,625
32,780	-4,948	256,763	127,490
33,794	-5,028	256,461	127,258
34,809	-4,710	256,145	127,371
35,823	-4,728	255,863	127,203
36,838	-4,913	255,625	126,910
37,853	-4,906	255,477	126,832
38,867	-4,969	255,224	126,640
39,882	-4,883	254,967	126,576
40,896	-4,952	254,879	126,460
41,911	-4,682	254,478	126,487
42,926	-4,986	254,289	126,115
43,940	-5,062	254,172	125,980
44,955	-5,007	253,909	125,886
45,969	-4,985	253,813	125,846
46,984	-5,110	253,342	125,493
47,999	-5,497	253,124	125,037
49,013	-5,531	252,791	124,831
50,028	-5,644	252,518	124,587
51,042	-5,772	252,207	124,312
52,057	-5,638	252,072	124,350
53,071	-5,788	251,992	124,170
54,086	-5,451	251,626	124,270
55,101	-5,333	251,487	124,293
56,115	-5,135	251,441	124,430
57,130	-4,809	251,408	124,684
58,144	-4,435	251,171	124,878
59,159	-4,653	251,118	124,653
60,174	-4,362	250,709	124,689
61,188	-4,696	250,625	124,349
62,203	-4,707	250,521	124,276
63,217	-4,737	250,182	124,071
64,232	-4,621	249,957	124,048
65,247	-4,590	249,774	123,973
66,261	-4,786	249,590	123,703
67,276	-5,093	249,343	123,306
68,290	-5,156	249,030	123,086
69,305	-5,189	248,788	122,928
70,320	-4,954	248,511	122,981
71,334	-5,006	248,551	122,946
72,349	-4,692	248,407	123,131
73,363	-4,517	248,202	123,167
74,378	-4,758	248,124	122,912
75,393	-4,706	247,777	122,774
76,407	-4,790	247,679	122,643
77,422	-4,725	247,364	122,531
78,436	-4,742	247,257	122,453
79,451	-4,842	246,945	122,203
80,466	-4,838	246,715	122,081
81,480	-5,080	246,554	121,786
82,495	-4,934	246,385	121,815
83,509	-4,874	246,106	121,717
84,524	-5,066	246,029	121,506
85,539	-5,047	245,688	121,343
86,553	-5,132	245,495	121,165
87,568	-5,095	245,285	121,081
88,582	-4,871	245,068	121,152
89,597	-5,212	245,086	120,863
90,611	-5,098	245,037	120,924
91,626	-4,917	244,781	120,939
92,641	-4,714	244,527	120,973
93,655	-4,928	244,401	120,720
94,670	-4,822	244,048	120,624
95,684	-4,791	243,912	120,572
96,699	-5,038	243,852	120,325
97,714	-5,002	243,653	120,247
98,728	-5,253	243,442	119,922
99,743	-5,248	243,155	119,774
100,757	-5,249	242,996	119,684
101,772	-5,071	242,710	119,681
102,787	-5,023	242,549	119,631
103,801	-4,992	242,441	119,592
104,816	-5,023	242,348	119,510
105,830	-4,792	242,290	119,663
106,845	-4,710	241,955	119,554
107,860	-4,879	241,868	119,361
108,874	-4,880	241,538	119,186
109,889	-4,877	241,309	119,066
110,903	-4,996	241,227	118,916
111,918	-4,986	241,023	118,813
112,933	-4,816	240,899	118,881
113,947	-4,933	240,822	118,737
114,962	-4,772	240,510	118,704
115,976	-4,811	240,309	118,563
116,991	-4,910	240,226	118,430
118,006	-4,897	240,076	118,356
119,020	-4,724	239,853	118,377
120,035	-4,795	239,805	118,285
121,049	-4,844	239,714	118,189
122,064	-4,971	239,493	117,966
123,079	-4,742	239,163	117,980
124,093	-4,860	238,955	117,770
125,108	-5,110	238,849	117,503
126,122	-5,220	238,677	117,319
127,137	-5,404	238,432	117,037
128,151	-5,184	238,290	117,137
129,166	-5,031	238,148	117,181
130,181	-5,076	237,863	116,994
131,195	-5,311	237,744	116,735
132,210	-5,007	237,535	116,868
133,224	-4,977	237,652	116,939
134,239	-4,858	237,338	116,871
135,254	-4,908	237,176	116,740
136,268	-4,919	236,721	116,496
137,283	-5,163	236,503	116,182
138,297	-5,370	236,480	115,993
139,312	-5,350	236,129	115,827
140,327	-5,069	236,102	116,030
141,341	-4,630	236,215	116,429
142,356	-4,609	236,013	116,336
143,370	-4,466	235,906	116,387
144,385	-4,342	235,666	116,359
145,400	-4,353	235,517	116,266
146,414	-4,624	235,348	115,954
147,429	-4,534	235,171	115,929
148,443	-4,356	235,051	116,002
149,458	-4,637	234,854	115,669
150,473	-4,512	234,595	115,632
151,487	-4,622	234,419	115,447
152,502	-4,658	234,282	115,341
153,516	-4,349	234,050	115,463
154,531	-4,441	234,002	115,356
155,546	-4,535	233,825	115,183
156,560	-4,682	233,533	114,911
157,575	-4,541	233,279	114,889
158,589	-4,642	233,170	114,744
159,604	-4,573	233,222	114,815
160,619	-4,580	233,033	114,706
161,633	-4,399	232,897	114,772
162,648	-4,299	232,821	114,804
163,662	-4,632	232,599	114,420
164,677	-4,518	232,288	114,347
165,692	-4,563	232,113	114,215
166,706	-4,371	232,207	114,403
167,721	-4,446	232,084	114,273
168,735	-4,287	231,857	114,276
169,750	-4,317	231,598	114,115
170,764	-4,481	231,541	113,947
171,779	-4,445	231,386	113,889
172,794	-4,468	231,302	113,820
173,808	-4,683	230,904	113,445
174,823	-5,126	230,651	112,963
175,837	-5,133	230,452	112,849
176,852	-4,970	230,430	112,957
177,867	-4,494	230,368	113,290
178,881	-4,616	230,255	113,129
179,896	-4,437	230,139	113,201
180,910	-4,530	229,998	113,049
181,925	-4,557	229,876	112,958
182,940	-4,238	229,590	113,057
183,954	-4,498	229,589	112,843
184,969	-4,322	229,297	112,826
185,983	-4,296	229,134	112,756
186,998	-4,266	229,061	112,734
188,013	-4,387	228,839	112,520
189,027	-4,154	228,627	112,587
190,042	-4,260	228,663	112,512
191,056	-4,391	228,484	112,313
192,071	-4,288	228,338	112,311
193,086	-4,310	228,081	112,157
194,100	-4,330	227,870	112,028
195,115	-4,832	227,584	111,489
196,129	-5,998	227,122	110,353
197,144	-3,225	228,116	112,974
198,159	2,144	229,458	117,802
199,173	4,544	229,998	119,934
200,188	4,461	229,956	119,837
201,202	4,433	229,768	119,706
202,217	4,532	229,771	119,774
203,232	4,897	229,460	119,884
204,246	4,937	229,423	119,885
205,261	4,784	229,196	119,638
206,275	5,038	229,140	119,794
207,290	5,031	228,954	119,680
208,304	4,956	228,976	119,623
209,319	4,978	228,650	119,460
210,334	4,903	228,617	119,373
211,348	4,491	228,157	118,806
212,363	4,220	227,924	118,465
213,377	4,091	227,749	118,265
214,392	4,066	227,668	118,193
215,407	4,183	227,486	118,178
216,421	3,977	227,515	118,024
217,436	4,190	227,075	117,948
218,450	3,857	227,017	117,653
219,465	3,724	226,959	117,511
220,480	3,949	226,721	117,549
221,494	3,691	226,628	117,293
222,509	4,113	226,438	117,506
223,523	3,978	226,290	117,317
224,538	4,037	226,093	117,249
225,553	4,030	225,993	117,181
226,567	4,266	226,071	117,390
227,582	4,300	225,879	117,306
228,596	4,516	225,817	117,428
229,611	4,316	225,405	117,052
230,626	4,088	225,131	116,726
231,640	4,068	225,109	116,689
232,655	4,106	225,156	116,732
233,669	4,751	225,025	117,142
234,684	4,813	224,927	117,127
235,699	4,528	224,727	116,797
236,713	4,249	224,446	116,430
237,728	4,314	224,191	116,337
238,742	4,005	224,225	116,110
239,757	4,134	223,976	116,068
240,772	4,027	223,807	115,890
241,786	4,013	223,701	115,814
242,801	4,186	223,626	115,896
243,815	4,392	223,515	115,982
244,830	4,644	223,220	116,008
245,844	4,298	223,124	115,688
246,859	4,081	222,992	115,447
247,874	4,214	222,979	115,529
248,888	4,222	222,824	115,445
249,903	4,137	222,534	115,221
250,917	4,186	222,396	115,175
251,932	4,292	222,178	115,131
252,947	3,966	222,080	114,827
253,961	3,958	222,004	114,772
254,976	3,981	221,795	114,671
255,990	4,155	221,721	114,752
257,005	4,229	221,562	114,714
258,020	3,947	221,559	114,493
259,034	4,295	221,484	114,702
260,049	4,166	221,301	114,501
261,063	4,613	220,910	114,621
262,078	4,365	220,905	114,424
263,093	4,468	220,802	114,436
264,107	4,446	220,529	114,268
265,122	4,473	220,380	114,201
266,136	4,668	220,389	114,340
267,151	4,482	220,295	114,143
268,166	4,233	220,079	113,837
269,180	3,968	219,800	113,487
270,195	3,865	219,706	113,352
271,209	4,111	219,558	113,447
272,224	4,001	219,447	113,299
273,239	4,054	219,347	113,277
274,253	3,972	219,105	113,081
275,268	3,919	218,930	112,942
276,282	3,709	218,757	112,689
277,297	3,979	218,618	112,804
278,312	3,814	218,544	112,635
279,326	4,015	218,371	112,683
280,341	3,935	218,356	112,607
281,355	3,998	218,108	112,515
282,370	3,972	218,053	112,458
283,384	3,917	217,823	112,289
284,399	3,771	217,705	112,112
285,414	3,719	217,480	111,948
286,428	4,143	217,354	112,182
287,443	4,431	217,330	112,369
288,457	4,489	217,203	112,336
289,472	4,127	217,002	111,958
290,487	4,072	216,630	111,717
291,501	3,525	216,583	111,286
292,516	3,805	216,432	111,401
293,530	3,994	216,418	111,521
294,545	3,668	216,236	111,181
295,560	4,231	216,053	111,484
296,574	3,993	216,170	111,363
297,589	4,084	215,912	111,286
298,603	4,462	215,739	111,459
299,618	4,225	215,651	111,233
300,633	4,129	215,526	111,090
301,647	4,494	215,365	111,259
302,662	4,353	215,306	111,117
303,676	4,184	215,198	110,931
304,691	4,162	215,038	110,822
305,706	4,287	215,006	110,886
306,720	4,466	214,654	110,823
307,735	4,076	214,601	110,505
308,749	4,033	214,293	110,306
309,764	4,085	214,388	110,383
310,779	4,758	214,045	110,678
311,793	4,360	214,171	110,448
312,808	4,266	213,947	110,256
313,822	4,200	213,675	110,058
314,837	4,106	213,540	109,912
315,852	3,986	213,377	109,732
316,866	4,079	213,295	109,747
317,881	4,334	213,297	109,920
318,895	4,276	213,194	109,816
319,910	4,210	212,949	109,633
320,925	3,823	212,710	109,225
321,939	3,712	212,467	109,011
322,954	3,787	212,517	109,081
323,968	4,133	212,519	109,318
324,983	4,079	212,353	109,185
325,997	4,418	212,083	109,276
327,012	4,249	211,958	109,082
328,027	4,378	211,864	109,115
329,041	4,099	211,907	108,930
330,056	4,431	211,681	109,039
331,070	4,048	211,473	108,652
332,085	3,825	211,199	108,344
333,100	3,961	211,187	108,425
334,114	4,022	211,106	108,416
335,129	4,202	210,823	108,388
336,143	4,001	210,632	108,138
337,158	4,128	210,437	108,118
338,173	3,878	210,504	107,967
339,187	3,906	210,117	107,779
340,202	3,863	210,129	107,745
341,216	3,817	210,031	107,653
342,231	3,811	209,863	107,553
343,246	3,803	209,717	107,463
344,260	4,008	209,804	107,641
345,275	4,037	209,544	107,519
346,289	4,072	209,363	107,441
347,304	4,172	209,246	107,441
348,319	4,070	209,083	107,276
349,333	3,997	208,950	107,148
350,348	3,950	208,974	107,118
351,362	4,171	208,843	107,194
352,377	4,129	208,715	107,091
353,392	4,114	208,563	106,992
354,406	4,154	208,408	106,931
355,421	193,943	1345,581	1434,568
356,435	154,744	1484,246	1434,691
