DTS Sentinel unit serial number:	SN410029Multiplexer serial number:	ORYXHardware model number:	OX2-SRSoftware version number:	ORYX F/W v4,00 Oryx Data Collector v3.7.2.0data status	okinstallation	B6 Nyhavnadifferential loss correction	single-endedforward channel	channel 2reverse channel	N/Adate	2023/12/10time	10:10:08forward acquisition time	300,00reverse acquisition time	0,00gamma	499,1914k internal	0,3123k external	0,3123temperature offset calibration	1,0000default loss term (dB/km)	0,3820temperature slope calibration	1,0000multiplexer offset coefficient	1,0000multiplexer slope coefficient	1,0000fibre end	0,00T internal ref (°C)	22,56T ext. ref 1 (°C)	6,38T ext. ref 2 (°C)	6,37length (m)	temperature (°C)	Stokes	anti-Stokes-744,400	65,345	-0,081	-0,061
-743,385	124,153	-0,238	0,223
-742,371	-107,518	0,110	0,018
-741,356	4,701	-0,219	0,120
-740,342	800,000	0,028	-0,064
-739,327	-54,103	-0,258	0,087
-738,312	800,000	0,017	-0,049
-737,298	-115,197	-0,231	0,032
-736,283	117,891	-0,097	-0,089
-735,269	36,870	-0,165	0,108
-734,254	670,630	0,076	0,148
-733,239	-35,516	-0,380	-0,153
-732,225	-161,496	0,157	0,006
-731,210	-200,000	0,014	-0,050
-730,196	800,000	0,012	-0,034
-729,181	-177,822	-0,059	0,001
-728,167	800,000	-0,019	-0,061
-727,152	-0,102	0,035	-0,018
-726,137	-18,693	-0,089	-0,041
-725,123	104,084	-0,081	0,071
-724,108	-78,076	-0,093	0,024
-723,094	-200,000	-0,004	-0,090
-722,079	-149,649	-0,171	-0,010
-721,064	800,000	-0,039	-0,096
-720,050	800,000	-0,029	-0,073
-719,035	30,490	-0,061	0,039
-718,021	37,663	-0,092	0,060
-717,006	-122,695	-0,066	-0,008
-715,991	784,521	-0,042	-0,087
-714,977	42,950	0,069	-0,047
-713,962	-200,000	-0,003	-0,041
-712,948	-200,000	-0,048	-0,216
-711,933	119,563	0,046	0,043
-710,918	83,132	0,036	0,029
-709,904	513,686	-0,061	-0,106
-708,889	800,000	-0,057	-0,158
-707,875	-146,387	-0,094	0,006
-706,860	-108,123	-0,031	-0,005
-705,845	-200,000	0,001	-0,067
-704,831	-177,700	0,096	0,002
-703,816	-11,100	-0,088	0,043
-702,802	-200,000	0,010	-0,120
-701,787	-84,786	-0,131	-0,030
-700,772	-200,000	-0,017	0,149
-699,758	-200,000	0,000	0,025
-698,743	82,042	0,070	-0,057
-697,729	422,921	0,019	0,030
-696,714	-69,392	0,104	0,029
-695,699	141,305	-0,115	-0,114
-694,685	-10,299	0,014	0,007
-693,670	75,415	0,014	0,011
-692,656	258,643	-0,112	-0,145
-691,641	314,986	-0,076	0,107
-690,627	-64,279	0,070	-0,021
-689,612	67,008	-0,060	-0,046
-688,597	42,773	-0,154	-0,104
-687,583	417,727	-0,058	-0,093
-686,568	-12,201	0,060	-0,029
-685,554	120,939	-0,089	-0,083
-684,539	-38,246	0,113	0,044
-683,524	-95,364	0,108	-0,021
-682,510	-200,000	-0,013	0,053
-681,495	-200,000	0,009	0,212
-680,481	52,906	-0,028	-0,020
-679,466	29,089	-0,121	-0,076
-678,451	800,000	0,016	0,047
-677,437	-109,771	-0,083	-0,013
-676,422	-160,098	0,107	-0,004
-675,408	-162,756	-0,110	-0,004
-674,393	20,058	-0,020	0,012
-673,378	29,065	0,034	0,022
-672,364	794,621	-0,063	-0,130
-671,349	-200,000	-0,015	-0,156
-670,335	-200,000	0,005	-0,080
-669,320	-19,158	-0,061	-0,028
-668,305	-200,000	0,011	-0,053
-667,291	579,515	-0,017	0,030
-666,276	800,000	0,046	0,129
-665,262	63,069	-0,133	-0,099
-664,247	88,155	-0,041	-0,034
-663,232	90,655	-0,037	-0,031
-662,218	3,308	0,049	0,027
-661,203	-0,294	0,091	-0,048
-660,189	51,586	0,100	0,070
-659,174	-160,931	-0,131	0,005
-658,159	-200,000	0,002	-0,008
-657,145	702,729	-0,039	-0,077
-656,130	70,091	-0,078	0,060
-655,116	-200,000	-0,003	0,050
-654,101	800,000	0,033	0,079
-653,086	-160,098	0,013	0,001
-652,072	-66,666	-0,110	-0,032
-651,057	144,429	-0,110	-0,110
-650,043	248,521	-0,035	-0,044
-649,028	152,980	0,062	-0,063
-648,014	175,358	-0,081	0,087
-646,999	-200,000	-0,001	0,099
-645,984	218,616	0,017	0,021
-644,970	60,536	-0,033	0,024
-643,955	217,057	-0,030	-0,035
-642,941	-200,000	0,023	-0,091
-641,926	-99,547	0,062	-0,011
-640,911	215,533	0,048	-0,057
-639,897	800,000	-0,036	0,084
-638,882	-200,000	-0,026	-0,146
-637,868	-124,618	-0,077	0,009
-636,853	800,000	0,026	-0,061
-635,838	-200,000	-0,005	-0,219
-634,824	-200,000	0,024	0,088
-633,809	-200,000	0,002	0,041
-632,795	-200,000	0,019	0,130
-631,780	-17,751	-0,103	0,048
-630,765	800,000	-0,034	-0,099
-629,751	-150,017	-0,094	0,005
-628,736	-200,000	-0,026	-0,220
-627,722	-1,957	0,105	0,054
-626,707	293,297	0,061	-0,082
-625,692	-30,562	0,121	0,051
-624,678	-110,677	0,156	0,024
-623,663	139,879	-0,096	-0,094
-622,649	-34,840	0,154	0,062
-621,634	800,000	-0,049	-0,153
-620,619	-106,566	-0,132	-0,022
-619,605	-182,828	0,094	-0,001
-618,590	470,643	0,032	0,053
-617,576	-168,367	0,014	0,000
-616,561	46,044	-0,137	0,094
-615,546	-200,000	-0,001	0,021
-614,532	255,129	-0,055	-0,070
-613,517	-16,619	-0,163	-0,076
-612,503	24,030	-0,091	0,055
-611,488	87,150	0,029	-0,024
-610,474	800,000	0,050	-0,137
-609,459	111,217	-0,012	-0,011
-608,444	-200,000	0,017	0,081
-607,430	-23,306	0,059	-0,026
-606,415	179,532	-0,034	-0,037
-605,401	35,737	-0,045	0,029
-604,386	-91,412	0,023	-0,005
-603,371	-137,393	-0,104	-0,009
-602,357	5,603	0,124	-0,068
-601,342	-2,855	-0,164	0,085
-600,328	-69,560	-0,118	-0,033
-599,313	533,640	-0,109	-0,192
-598,298	137,696	0,031	0,030
-597,284	-200,000	-0,008	0,039
-596,269	-92,203	0,039	0,008
-595,255	-85,462	0,150	0,034
-594,240	316,187	-0,026	0,037
-593,225	428,717	-0,079	-0,127
-592,211	-132,676	0,113	-0,011
-591,196	-200,000	0,000	-0,043
-590,182	800,000	-0,049	0,132
-589,167	10,329	-0,061	-0,034
-588,152	-106,760	0,089	0,015
-587,138	187,081	0,052	-0,057
-586,123	-22,453	-0,111	-0,049
-585,109	-156,503	0,065	-0,003
-584,094	205,513	-0,111	-0,128
-583,079	-30,882	0,107	-0,045
-582,065	407,300	0,074	0,116
-581,050	266,789	0,037	0,048
-580,036	199,715	-0,036	0,041
-579,021	-200,000	0,010	-0,081
-578,006	-160,657	0,012	-0,000
-576,992	-113,141	-0,066	0,009
-575,977	-80,494	0,088	0,022
-574,963	403,114	-0,063	0,098
-573,948	-98,067	-0,075	-0,014
-572,934	31,532	0,029	0,018
-571,919	-9,282	-0,006	0,003
-570,904	363,450	-0,073	-0,108
-569,890	-91,888	-0,081	-0,017
-568,875	538,752	-0,008	-0,015
-567,861	659,951	-0,040	0,077
-566,846	-200,000	0,048	0,000
-565,831	-135,162	0,063	-0,006
-564,817	800,000	0,016	0,049
-563,802	800,000	-0,032	-0,100
-562,788	-200,000	-0,005	0,038
-561,773	53,276	0,049	-0,034
-560,758	-200,000	-0,007	0,046
-559,744	-36,205	-0,083	-0,033
-558,729	-136,021	-0,107	0,009
-557,715	195,256	-0,005	0,005
-556,700	-122,035	-0,135	0,016
-555,685	37,399	-0,095	-0,062
-554,671	-81,214	0,176	-0,043
-553,656	-93,778	0,132	-0,027
-552,642	-200,000	-0,022	0,171
-551,627	-113,781	-0,080	-0,011
-550,612	164,391	-0,025	0,026
-549,598	-200,000	0,024	0,115
-548,583	-200,000	-0,016	0,164
-547,569	-62,184	0,139	0,043
-546,554	-200,000	-0,008	0,071
-545,539	137,402	-0,087	0,084
-544,525	-159,535	0,100	-0,004
-543,510	-166,283	0,137	0,004
-542,496	751,686	0,009	-0,018
-541,481	-125,231	-0,069	-0,008
-540,466	490,775	0,084	-0,142
-539,452	-36,038	-0,093	-0,037
-538,437	403,088	0,061	0,096
-537,423	94,053	0,075	0,063
-536,408	19,477	-0,052	-0,031
-535,393	-142,500	-0,032	-0,002
-534,379	-200,000	-0,035	-0,173
-533,364	-200,000	0,002	0,035
-532,350	-200,000	-0,004	-0,015
-531,335	66,859	-0,087	0,065
-530,321	48,208	0,054	0,038
-529,306	800,000	-0,024	0,053
-528,291	-84,573	-0,087	-0,020
-527,277	-200,000	0,003	0,137
-526,262	-200,000	-0,000	-0,087
-525,248	800,000	-0,041	0,116
-524,233	290,586	0,115	0,155
-523,218	-200,000	0,055	0,184
-522,204	-144,806	0,067	0,004
-521,189	-109,185	0,051	-0,008
-520,175	-38,114	-0,071	-0,028
-519,160	800,000	-0,026	0,067
-518,145	15,756	-0,041	0,024
-517,131	309,454	0,051	-0,071
-516,116	128,616	0,041	-0,038
-515,102	800,000	-0,017	-0,051
-514,087	-200,000	-0,006	0,036
-513,072	-9,764	-0,093	0,045
-512,058	101,832	-0,086	-0,074
-511,043	161,017	0,123	0,127
-510,029	800,000	0,037	0,117
-509,014	42,630	-0,092	0,062
-507,999	147,689	0,076	0,076
-506,985	-100,205	-0,039	-0,007
-505,970	800,000	-0,038	-0,118
-504,956	46,388	0,089	-0,061
-503,941	-59,496	-0,065	-0,020
-502,926	800,000	-0,013	0,035
-501,912	148,797	0,077	0,077
-500,897	-131,663	-0,027	-0,003
-499,883	-157,974	-0,193	-0,008
-498,868	66,090	-0,128	-0,096
-497,853	-200,000	0,001	0,006
-496,839	-200,000	0,033	-0,112
-495,824	-48,091	0,102	0,036
-494,810	119,693	-0,021	0,019
-493,795	800,000	0,024	-0,055
-492,781	-29,688	-0,085	-0,036
-491,766	800,000	-0,040	0,102
-490,751	800,000	0,075	-0,170
-489,737	377,835	-0,059	-0,089
-488,722	-200,000	-0,025	0,141
-487,708	5,333	0,109	-0,059
-486,693	-200,000	0,001	-0,070
-485,678	51,259	0,113	0,079
-484,664	745,153	0,028	0,055
-483,649	-33,888	-0,019	0,008
-482,635	100,024	0,076	-0,065
-481,620	-200,000	-0,005	0,093
-480,605	-200,000	0,028	0,129
-479,591	-81,582	0,160	-0,038
-478,576	368,639	0,064	-0,095
-477,562	-200,000	0,001	0,029
-476,547	306,881	0,078	-0,108
-475,532	262,498	-0,020	0,026
-474,518	308,064	0,030	0,041
-473,503	-200,000	0,086	0,000
-472,489	-200,000	0,018	-0,069
-471,474	-200,000	-0,022	-0,119
-470,459	-198,187	-0,060	-0,000
-469,445	-50,697	-0,074	-0,026
-468,430	800,000	-0,034	-0,080
-467,416	-40,290	0,026	-0,010
-466,401	22,143	0,111	0,067
-465,386	110,795	-0,052	0,046
-464,372	800,000	-0,019	-0,041
-463,357	-128,317	0,013	-0,001
-462,343	272,792	0,036	-0,047
-461,328	800,000	-0,057	0,149
-460,313	-200,000	0,006	-0,076
-459,299	131,605	0,115	-0,109
-458,284	392,185	-0,051	0,078
-457,270	659,998	0,086	0,163
-456,255	800,000	-0,042	-0,099
-455,241	-127,216	-0,146	-0,015
-454,226	800,000	-0,071	-0,157
-453,211	-200,000	0,006	0,111
-452,197	-200,000	-0,022	-0,158
-451,182	800,000	0,006	-0,016
-450,168	-39,207	-0,108	0,042
-449,153	-145,916	0,200	-0,013
-448,138	351,338	-0,093	0,137
-447,124	-200,000	0,009	0,123
-446,109	81,525	-0,054	0,043
-445,095	-49,037	-0,203	0,071
-444,080	303,659	0,050	0,068
-443,065	-200,000	0,031	0,101
-442,051	321,995	0,071	0,100
-441,036	-200,000	-0,006	0,072
-440,022	-155,467	-0,026	-0,001
-439,007	110,707	0,033	0,029
-437,992	-200,000	-0,017	0,134
-436,978	-200,000	0,007	-0,130
-435,963	-157,314	0,053	-0,002
-434,949	95,970	0,050	0,042
-433,934	-26,206	0,117	-0,050
-432,919	-134,764	-0,119	0,011
-431,905	800,000	-0,048	0,113
-430,890	-200,000	0,005	0,096
-429,876	29,343	0,038	0,024
-428,861	-200,000	-0,012	0,128
-427,846	13,659	-0,106	-0,061
-426,832	-76,364	-0,063	-0,016
-425,817	-200,000	0,015	-0,070
-424,803	98,856	-0,061	-0,052
-423,788	800,000	-0,035	0,097
-422,773	736,412	0,015	-0,030
-421,759	92,367	0,162	0,135
-420,744	317,435	-0,073	0,102
-419,730	24,140	0,040	0,024
-418,715	-200,000	-0,020	-0,133
-417,701	-62,552	0,056	0,017
-416,686	321,220	-0,046	-0,065
-415,671	336,737	0,008	-0,012
-414,657	132,634	-0,090	0,085
-413,642	393,530	-0,047	-0,073
-412,628	-58,794	0,091	-0,029
-411,613	58,961	0,127	-0,092
-410,598	251,136	0,108	-0,135
-409,584	-30,370	0,012	0,005
-408,569	-30,939	0,095	0,039
-407,555	-53,372	-0,075	-0,025
-406,540	-200,000	0,001	0,072
-405,525	-142,147	0,076	-0,005
-404,511	-200,000	0,004	0,094
-403,496	-200,000	-0,013	0,046
-402,482	239,155	-0,046	0,057
-401,467	-25,154	0,045	-0,020
-400,452	105,019	-0,013	0,011
-399,438	-3,389	-0,065	-0,033
-398,423	-200,000	0,016	0,058
-397,409	-200,000	-0,002	-0,046
-396,394	-200,000	-0,003	-0,099
-395,379	-19,352	-0,041	0,019
-394,365	800,000	0,046	-0,104
-393,350	-54,722	0,023	-0,007
-392,336	-200,000	0,034	0,138
-391,321	459,019	0,050	-0,082
-390,306	-23,975	-0,106	-0,046
-389,292	23,081	-0,089	0,054
-388,277	-1,992	0,067	0,035
-387,263	124,794	0,023	-0,021
-386,248	-77,039	-0,029	-0,007
-385,233	-200,000	0,012	0,119
-384,219	104,133	0,080	-0,069
-383,204	193,598	-0,056	-0,063
-382,190	-69,722	-0,066	0,018
-381,175	-32,887	0,056	0,023
-380,160	-21,144	0,115	0,051
-379,146	-53,313	0,110	0,037
-378,131	-174,329	0,097	0,002
-377,117	83,786	-0,046	0,037
-376,102	-200,000	-0,014	-0,049
-375,088	-200,000	0,010	-0,039
-374,073	474,234	-0,093	-0,155
-373,058	-200,000	0,008	-0,131
-372,044	-88,997	0,164	-0,035
-371,029	800,000	-0,029	-0,086
-370,015	72,595	0,135	-0,103
-369,000	-55,668	-0,072	-0,023
-367,985	-200,000	0,011	-0,083
-366,971	545,773	0,019	-0,033
-365,956	161,193	0,087	0,089
-364,942	42,492	-0,076	0,051
-363,927	615,958	-0,063	-0,117
-362,912	111,872	-0,025	-0,022
-361,898	-17,752	0,112	-0,052
-360,883	21,824	-0,100	0,060
-359,869	19,849	-0,088	-0,052
-358,854	-200,000	-0,011	0,043
-357,839	-88,464	-0,082	-0,018
-356,825	-164,475	-0,166	-0,005
-355,810	384,408	0,022	0,033
-354,796	22,747	-0,015	0,009
-353,781	357,731	-0,040	0,058
-352,766	-200,000	0,006	-0,101
-351,752	-200,000	-0,026	-0,084
-350,737	50,028	0,084	0,058
-349,723	199,287	0,123	0,138
-348,708	-81,419	-0,065	0,016
-347,693	-162,637	0,014	0,000
-346,679	16,662	-0,037	-0,021
-345,664	-0,356	0,096	-0,050
-344,650	-86,267	-0,023	0,005
-343,635	-200,000	0,113	0,000
-342,620	-80,367	0,077	0,019
-341,606	-108,725	0,047	-0,007
-340,591	-200,000	-0,011	-0,079
-339,577	-200,000	0,010	-0,078
-338,562	-19,839	0,048	-0,022
-337,548	-200,000	0,012	0,061
-336,533	99,050	0,118	0,100
-335,518	800,000	-0,049	0,136
-334,504	44,750	-0,044	-0,030
-333,489	-146,532	-0,011	-0,001
-332,475	-81,586	-0,082	-0,020
-331,460	359,190	0,027	-0,039
-330,445	110,562	0,113	0,099
-329,431	800,000	0,018	-0,048
-328,416	-150,316	0,069	-0,004
-327,402	-200,000	-0,004	0,032
-326,387	11,518	0,029	-0,016
-325,372	-200,000	-0,018	-0,108
-324,358	247,589	-0,077	0,095
-323,343	-38,023	0,110	-0,043
-322,329	-100,088	0,058	-0,011
-321,314	70,611	0,094	0,071
-320,299	-156,079	0,190	-0,009
-319,285	-114,306	0,068	-0,010
-318,270	800,000	-0,040	-0,095
-317,256	-59,936	-0,139	-0,043
-316,241	-40,692	0,088	0,033
-315,226	291,205	-0,095	0,127
-314,212	800,000	0,050	0,103
-313,197	-103,923	0,028	0,005
-312,183	-62,153	-0,073	-0,022
-311,168	713,385	-0,032	0,063
-310,153	631,828	-0,048	0,090
-309,139	11,757	-0,082	-0,046
-308,124	-200,000	0,008	-0,036
-307,110	-77,908	0,060	-0,015
-306,095	-71,180	0,018	-0,005
-305,080	-200,000	-0,008	-0,048
-304,066	-200,000	0,024	-0,109
-303,051	-200,000	0,023	-0,123
-302,037	-49,357	-0,083	0,029
-301,022	-186,147	-0,079	0,001
-300,008	-200,000	-0,001	-0,035
-298,993	149,868	0,068	0,067
-297,978	800,000	0,070	-0,161
-296,964	-91,202	-0,158	-0,033
-295,949	-200,000	-0,028	-0,102
-294,935	800,000	-0,023	-0,058
-293,920	160,565	-0,076	-0,077
-292,905	398,893	-0,038	0,059
-291,891	117,582	0,190	0,171
-290,876	11,411	0,046	0,026
-289,862	-0,432	0,101	0,052
-288,847	800,000	-0,015	-0,035
-287,832	352,231	-0,066	0,095
-286,818	-200,000	0,012	0,077
-285,803	-81,314	-0,136	0,033
-284,789	54,692	0,085	0,060
-283,774	-200,000	0,007	0,163
-282,759	-69,357	-0,028	0,008
-281,745	305,142	0,092	-0,126
-280,730	119,951	-0,115	-0,105
-279,716	-69,578	0,101	-0,028
-278,701	-21,648	-0,146	0,065
-277,686	-200,000	0,053	0,000
-276,672	800,000	-0,026	0,070
-275,657	-200,000	0,021	0,075
-274,643	-200,000	0,036	-0,116
-273,628	90,276	-0,047	-0,039
-272,613	-200,000	0,004	-0,038
-271,599	800,000	-0,042	-0,109
-270,584	-70,459	0,159	0,044
-269,570	296,495	-0,099	0,133
-268,555	-154,935	0,088	-0,004
-267,540	-109,077	-0,039	0,006
-266,526	-200,000	-0,005	-0,072
-265,511	379,960	0,034	0,051
-264,497	800,000	-0,079	0,183
-263,482	195,979	-0,125	-0,139
-262,467	-200,000	-0,032	0,106
-261,453	-49,426	0,083	0,029
-260,438	-21,458	-0,065	0,029
-259,424	-69,408	-0,221	0,062
-258,409	800,000	-0,075	-0,229
-257,395	736,197	0,061	0,119
-256,380	-200,000	-0,004	-0,028
-255,365	-200,000	-0,013	-0,067
-254,351	32,137	-0,037	-0,023
-253,336	800,000	-0,027	-0,081
-252,322	231,879	-0,094	-0,113
-251,307	240,015	0,096	-0,117
-250,292	-109,393	-0,074	0,011
-249,278	-109,954	0,260	-0,039
-248,263	800,000	-0,023	0,069
-247,249	373,236	-0,023	-0,035
-246,234	800,000	0,031	-0,089
-245,219	-66,671	-0,184	-0,053
-244,205	800,000	-0,059	-0,141
-243,190	314,851	-0,052	-0,071
-242,176	800,000	-0,058	-0,142
-241,161	-120,698	-0,115	-0,014
-240,146	46,771	-0,069	0,047
-239,132	800,000	0,055	0,123
-238,117	70,388	-0,051	-0,038
-237,103	611,242	-0,094	-0,172
-236,088	-200,000	-0,005	0,053
-235,073	318,087	0,068	0,094
-234,059	445,075	0,060	0,097
-233,044	-120,877	0,070	0,008
-232,030	-96,603	0,070	-0,013
-231,015	-130,575	-0,084	-0,008
-230,000	336,938	-0,073	-0,103
-228,986	241,545	-0,090	-0,110
-227,971	-190,941	0,035	-0,000
-226,957	63,493	-0,034	0,025
-225,942	-79,415	0,096	-0,023
-224,927	-200,000	0,003	-0,072
-223,913	37,107	-0,122	-0,079
-222,898	1,390	-0,035	0,018
-221,884	25,292	0,022	-0,013
-220,869	800,000	0,011	-0,027
-219,855	-98,805	0,127	-0,023
-218,840	-200,000	0,130	0,000
-217,825	-200,000	-0,034	0,122
-216,811	-57,942	-0,051	0,016
-215,796	-200,000	-0,003	-0,065
-214,782	21,305	-0,084	0,050
-213,767	80,089	0,031	-0,024
-212,752	-200,000	0,036	-0,163
-211,738	430,969	-0,074	0,117
-210,723	121,570	0,026	-0,024
-209,709	56,955	-0,080	-0,057
-208,694	124,615	-0,065	-0,060
-207,679	89,497	-0,115	-0,094
-206,665	99,862	-0,085	-0,072
-205,650	-184,018	0,149	-0,002
-204,636	354,731	-0,030	-0,044
-203,621	212,553	0,051	0,059
-202,606	526,748	0,033	0,057
-201,592	-132,812	-0,168	0,015
-200,577	175,134	0,097	-0,103
-199,563	221,079	0,006	-0,007
-198,548	-200,000	0,006	0,167
-197,533	-32,588	0,054	0,022
-196,519	800,000	-0,013	0,039
-195,504	-200,000	-0,032	-0,161
-194,490	163,496	-0,101	-0,103
-193,475	-139,801	-0,070	-0,005
-192,460	-200,000	0,016	0,071
-191,446	-200,000	-0,001	0,058
-190,431	-112,515	0,072	-0,010
-189,417	-132,101	-0,055	-0,005
-188,402	-200,000	-0,012	0,056
-187,387	-200,000	0,007	-0,083
-186,373	318,277	-0,022	0,031
-185,358	-20,919	0,015	-0,007
-184,344	762,745	-0,009	-0,018
-183,329	80,395	-0,030	-0,024
-182,315	84,221	-0,033	0,026
-181,300	-90,294	0,105	-0,022
-180,285	-33,363	0,093	0,037
-179,271	640,450	-0,078	0,146
-178,256	800,000	0,018	0,042
-177,242	-112,205	0,184	-0,027
-176,227	800,000	-0,056	0,176
-175,212	-200,000	0,022	0,146
-174,198	327,960	0,095	-0,133
-173,183	12,210	0,130	0,073
-172,169	40,179	-0,115	-0,075
-171,154	-66,610	0,054	-0,015
-170,139	329,989	0,071	0,100
-169,125	-28,140	-0,021	-0,009
-168,110	639,019	0,052	0,098
-167,096	-58,102	0,018	0,006
-166,081	-173,660	-0,115	0,002
-165,066	-200,000	0,041	-0,190
-164,052	270,862	0,094	-0,121
-163,037	28,229	0,033	-0,020
-162,023	42,339	-0,055	0,036
-161,008	-200,000	-0,003	0,077
-159,993	423,033	0,104	0,164
-158,979	11,869	-0,140	0,078
-157,964	602,927	-0,037	0,068
-156,950	-94,214	0,067	0,013
-155,935	151,491	0,048	0,048
-154,920	-200,000	0,019	0,179
-153,906	-40,435	-0,044	0,017
-152,891	178,310	0,111	0,118
-151,877	-200,000	0,004	-0,033
-150,862	800,000	-0,034	-0,104
-149,847	800,000	-0,010	0,032
-148,833	-95,955	-0,052	-0,010
-147,818	258,580	0,040	0,050
-146,804	6,903	-0,073	0,040
-145,789	-99,167	-0,108	0,020
-144,775	125,103	-0,045	0,041
-143,760	516,614	-0,052	-0,089
-142,745	334,781	-0,076	0,108
-141,731	4,631	0,024	-0,013
-140,716	-145,367	0,033	0,002
-139,702	149,045	-0,088	-0,087
-138,687	476,629	0,032	0,053
-137,672	236,576	-0,112	0,135
-136,658	176,706	-0,058	0,061
-135,643	233,438	-0,066	0,079
-134,629	609,117	-0,030	-0,054
-133,614	-116,651	0,160	0,021
-132,599	-200,000	0,002	-0,010
-131,585	-107,044	0,105	-0,017
-130,570	-200,000	0,012	0,058
-129,556	-200,000	0,012	0,040
-128,541	68,271	-0,129	0,096
-127,526	25,104	0,055	0,033
-126,512	800,000	-0,046	0,095
-125,497	800,000	0,021	0,066
-124,483	93,304	0,029	-0,024
-123,468	88,935	0,051	0,041
-122,453	-67,026	0,088	-0,025
-121,439	-21,081	0,108	-0,048
-120,424	-135,118	-0,068	0,006
-119,410	-200,000	-0,006	0,148
-118,395	247,942	0,058	0,071
-117,380	-103,326	0,140	0,024
-116,366	-200,000	-0,022	0,081
-115,351	-200,000	-0,003	0,012
-114,337	-60,672	-0,126	0,039
-113,322	-70,143	0,051	-0,014
-112,307	35,477	0,067	-0,042
-111,293	57,876	0,089	-0,063
-110,278	61,732	0,135	0,098
-109,264	161,713	0,043	-0,044
-108,249	-200,000	-0,031	-0,189
-107,234	-200,000	-0,010	-0,069
-106,220	98,809	0,030	-0,025
-105,205	-106,950	0,097	-0,015
-104,191	-200,000	-0,011	0,069
-103,176	-200,000	-0,001	-0,036
-102,162	-125,869	-0,131	0,014
-101,147	800,000	0,023	-0,054
-100,132	-16,742	0,028	-0,013
-99,118	-51,310	-0,102	-0,034
-98,103	75,653	0,074	0,057
-97,089	-200,000	-0,015	0,051
-96,074	422,782	-0,011	-0,018
-95,059	183,712	0,042	-0,045
-94,045	800,000	0,047	0,142
-93,030	-200,000	-0,009	-0,090
-92,016	214,498	-0,048	-0,055
-91,001	47,087	-0,029	-0,019
-89,986	-18,321	0,085	0,039
-88,972	-200,000	0,003	0,041
-87,957	372,009	-0,077	0,114
-86,943	-200,000	0,025	-0,130
-85,928	-16,261	0,089	-0,041
-84,913	48,436	-0,105	0,071
-83,899	-200,000	0,005	-0,161
-82,884	800,000	-0,024	0,060
-81,870	92,943	0,034	-0,028
-80,855	97,344	0,082	-0,068
-79,840	-200,000	0,009	-0,057
-78,826	-160,206	-0,040	-0,002
-77,811	287,062	-0,023	0,031
-76,797	446,244	-0,023	0,036
-75,782	-200,000	-0,002	0,106
-74,767	45,067	-0,103	0,069
-73,753	664,017	0,071	0,133
-72,738	107,638	-0,083	-0,071
-71,724	-89,859	0,109	0,023
-70,709	-64,216	-0,066	0,019
-69,694	592,711	0,053	-0,095
-68,680	-121,770	-0,103	-0,012
-67,665	-200,000	0,032	-0,181
-66,651	-200,000	-0,010	0,229
-65,636	-142,252	-0,059	-0,004
-64,622	-200,000	-0,002	-0,010
-63,607	31,956	-0,063	-0,039
-62,592	-150,358	0,103	0,006
-61,578	452,362	0,028	0,045
-60,563	800,000	-0,016	0,043
-59,549	-200,000	0,001	-0,024
-58,534	-115,451	-1,397	-0,189
-57,519	424,807	-0,953	-1,493
-56,505	-200,000	-1,031	-4,375
-55,490	95,915	0,583	-0,483
-54,476	800,000	5,036	11,837
-53,461	-200,000	13,324	252,743
-52,446	-200,000	688,523	2267,469
-51,432	596,276	1622,437	2927,308
-50,417	120,698	1635,946	1475,544
-49,403	73,631	1289,977	979,570
-48,388	38,452	1024,675	661,369
-47,373	24,473	982,300	588,038
-46,359	23,709	972,068	579,386
-45,344	22,827	967,768	573,916
-44,330	22,734	966,260	572,694
-43,315	22,567	964,949	571,352
-42,300	22,610	963,805	570,789
-41,286	22,566	962,910	570,094
-40,271	22,562	961,923	569,476
-39,257	22,527	961,172	568,895
-38,242	22,499	960,150	568,175
-37,227	22,560	959,212	567,794
-36,213	22,534	958,425	567,223
-35,198	22,578	957,432	566,756
-34,184	22,582	956,783	566,360
-33,169	22,504	956,087	565,676
-32,154	22,538	955,106	565,183
-31,140	22,614	953,969	564,731
-30,125	22,621	953,443	564,419
-29,111	22,615	952,666	563,918
-28,096	22,625	951,850	563,444
-27,082	22,627	951,217	563,053
-26,067	22,601	950,340	562,428
-25,052	22,551	949,954	562,018
-24,038	22,543	949,121	561,477
-23,023	22,619	948,353	561,244
-22,009	22,679	947,609	560,974
-20,994	22,609	947,142	560,451
-19,979	22,602	946,592	560,082
-18,965	22,566	946,042	559,618
-17,950	22,633	945,369	559,411
-16,936	22,562	944,776	558,813
-15,921	22,565	943,878	558,269
-14,906	22,515	943,225	557,702
-13,892	22,542	942,568	557,378
-12,877	22,508	941,947	556,877
-11,863	22,505	941,267	556,446
-10,848	22,511	940,682	556,096
-9,833	22,565	940,500	556,138
-8,819	22,577	939,727	555,697
-7,804	22,517	939,016	555,066
-6,790	22,473	938,529	554,615
-5,775	22,613	937,748	554,576
-4,760	22,448	937,330	553,784
-3,746	22,483	936,773	553,544
-2,731	22,370	936,084	552,758
-1,717	22,272	935,374	552,007
-0,702	22,290	934,604	551,587
0,313	22,157	933,912	551,590
1,327	25,176	931,805	559,794
2,342	34,790	796,706	504,254
3,356	32,767	452,243	283,159
4,371	1,861	294,007	153,227
5,386	-2,504	274,905	139,125
6,400	-3,973	268,988	134,755
7,415	-4,558	266,582	133,001
8,429	-4,265	265,336	132,634
9,444	-4,333	264,421	132,104
10,459	-4,335	263,917	131,838
11,473	-4,483	263,254	131,361
12,488	-4,547	262,924	131,127
13,502	-4,505	262,152	130,768
14,517	-4,331	261,644	130,659
15,531	-4,350	261,369	130,494
16,546	-4,114	260,945	130,482
17,561	-4,418	260,617	130,033
18,575	-4,332	260,264	129,923
19,590	-4,492	260,041	129,657
20,604	-4,366	259,669	129,573
21,619	-4,320	259,446	129,491
22,634	-4,426	259,017	129,171
23,648	-4,510	258,826	128,989
24,663	-4,384	258,446	128,901
25,677	-4,446	258,264	128,743
26,692	-4,340	257,960	128,675
27,707	-4,430	257,782	128,494
28,721	-4,436	257,443	128,308
29,736	-4,554	257,239	128,091
30,750	-4,489	256,981	128,008
31,765	-4,568	256,799	127,836
32,780	-4,457	256,727	127,888
33,794	-4,556	256,303	127,577
34,809	-4,608	256,051	127,395
35,823	-4,736	255,963	127,226
36,838	-4,417	255,405	127,218
37,853	-4,577	255,324	127,026
38,867	-4,695	255,158	126,828
39,882	-4,514	255,071	126,933
40,896	-4,693	254,769	126,615
41,911	-4,638	254,582	126,558
42,926	-4,652	254,126	126,309
43,940	-4,767	254,106	126,187
44,955	-4,571	253,647	126,118
45,969	-4,541	253,406	126,013
46,984	-4,749	253,225	125,731
47,999	-5,061	253,031	125,352
49,013	-5,128	252,756	125,146
50,028	-5,386	252,617	124,842
51,042	-5,455	252,210	124,569
52,057	-5,322	252,025	124,583
53,071	-5,171	251,959	124,669
54,086	-5,067	251,763	124,651
55,101	-4,998	251,490	124,565
56,115	-4,981	251,566	124,606
57,130	-4,496	251,250	124,857
58,144	-4,227	251,205	125,056
59,159	-4,343	251,109	124,897
60,174	-4,256	250,772	124,793
61,188	-4,219	250,485	124,671
62,203	-4,628	250,402	124,267
63,217	-4,443	250,124	124,277
64,232	-4,348	249,905	124,239
65,247	-4,459	249,661	124,011
66,261	-4,342	249,492	124,017
67,276	-4,589	249,215	123,656
68,290	-4,730	248,933	123,385
69,305	-4,932	248,694	123,083
70,320	-4,856	248,520	123,051
71,334	-4,940	248,575	122,995
72,349	-4,357	248,317	123,353
73,363	-4,279	248,236	123,368
74,378	-4,427	247,950	123,090
75,393	-4,415	247,728	122,978
76,407	-4,476	247,534	122,819
77,422	-4,367	247,403	122,835
78,436	-4,313	247,086	122,714
79,451	-4,485	246,936	122,482
80,466	-4,435	246,675	122,384
81,480	-4,620	246,501	122,130
82,495	-4,796	246,262	121,853
83,509	-4,661	246,144	121,897
84,524	-4,596	245,951	121,846
85,539	-4,908	245,668	121,432
86,553	-4,816	245,519	121,425
87,568	-4,701	245,267	121,386
88,582	-4,854	245,244	121,235
89,597	-4,765	244,908	121,133
90,611	-4,889	245,029	121,077
91,626	-4,484	244,735	121,261
92,641	-4,516	244,474	121,094
93,655	-4,508	244,319	121,013
94,670	-4,585	244,095	120,827
95,684	-4,587	243,907	120,722
96,699	-4,588	243,737	120,626
97,714	-4,533	243,556	120,572
98,728	-4,822	243,294	120,190
99,743	-4,712	242,925	120,089
100,757	-4,862	242,925	119,954
101,772	-4,643	242,519	119,924
102,787	-4,560	242,567	120,006
103,801	-4,685	242,382	119,800
104,816	-4,746	242,360	119,728
105,830	-4,429	242,133	119,868
106,845	-4,414	242,040	119,824
107,860	-4,385	241,830	119,733
108,874	-4,566	241,574	119,446
109,889	-4,460	241,311	119,393
110,903	-4,720	241,216	119,121
111,918	-4,764	240,940	118,937
112,933	-4,536	240,744	119,017
113,947	-4,410	240,671	119,075
114,962	-4,455	240,523	118,954
115,976	-4,618	240,475	118,785
116,991	-4,674	240,365	118,674
118,006	-4,401	239,909	118,663
119,020	-4,512	239,806	118,510
120,035	-4,366	239,764	118,599
121,049	-4,369	239,635	118,522
122,064	-4,464	239,506	118,369
123,079	-4,371	239,151	118,259
124,093	-4,496	239,017	118,081
125,108	-4,853	238,720	117,632
126,122	-4,963	238,532	117,439
127,137	-4,949	238,232	117,293
128,151	-4,648	238,237	117,529
129,166	-4,795	238,152	117,358
130,181	-4,892	237,855	117,122
131,195	-4,751	237,513	117,058
132,210	-4,698	237,620	117,143
133,224	-4,533	237,361	117,138
134,239	-4,494	237,146	117,053
135,254	-4,603	237,144	116,954
136,268	-4,841	236,894	116,628
137,283	-5,145	236,676	116,264
138,297	-4,856	236,411	116,357
139,312	-4,867	236,164	116,216
140,327	-4,712	236,247	116,372
141,341	-4,077	236,087	116,794
142,356	-4,137	235,958	116,671
143,370	-4,151	235,781	116,562
144,385	-4,190	235,630	116,446
145,400	-4,249	235,475	116,311
146,414	-4,145	235,325	116,310
147,429	-4,257	235,219	116,158
148,443	-4,317	234,924	115,953
149,458	-4,277	234,722	115,876
150,473	-4,159	234,600	115,900
151,487	-4,319	234,422	115,674
152,502	-4,119	234,284	115,755
153,516	-4,138	234,067	115,622
154,531	-4,175	233,917	115,508
155,546	-4,160	233,731	115,418
156,560	-4,298	233,627	115,246
157,575	-4,379	233,330	115,025
158,589	-4,429	233,183	114,903
159,604	-4,262	233,142	115,005
160,619	-4,198	233,001	114,976
161,633	-4,254	232,905	114,874
162,648	-4,296	232,822	114,790
163,662	-4,046	232,469	114,803
164,677	-4,202	232,293	114,582
165,692	-4,243	232,250	114,519
166,706	-4,236	232,166	114,472
167,721	-4,213	232,006	114,402
168,735	-3,984	231,720	114,431
169,750	-4,042	231,569	114,300
170,764	-4,260	231,541	114,105
171,779	-4,099	231,302	114,104
172,794	-4,156	231,171	113,984
173,808	-4,302	230,903	113,727
174,823	-4,644	230,577	113,288
175,837	-4,936	230,487	113,005
176,852	-4,613	230,469	113,239
177,867	-4,230	230,390	113,490
178,881	-4,213	230,214	113,407
179,896	-3,984	230,182	113,559
180,910	-3,987	229,875	113,396
181,925	-4,058	229,654	113,221
182,940	-3,933	229,546	113,255
183,954	-4,028	229,478	113,138
184,969	-4,019	229,308	113,051
185,983	-4,143	229,271	112,926
186,998	-4,109	229,006	112,812
188,013	-4,096	228,903	112,761
189,027	-3,808	228,734	112,892
190,042	-4,074	228,615	112,616
191,056	-4,121	228,351	112,439
192,071	-4,082	228,226	112,398
193,086	-4,067	228,087	112,331
194,100	-3,954	227,935	112,334
195,115	-4,207	227,522	111,925
196,129	-5,016	227,418	111,239
197,144	-1,326	228,471	114,604
198,159	2,805	229,590	118,365
199,173	4,146	229,781	119,493
200,188	4,083	229,683	119,383
201,202	4,027	229,616	119,294
202,217	4,340	229,377	119,402
203,232	4,397	229,322	119,407
204,246	4,650	229,240	119,549
205,261	4,710	229,146	119,536
206,275	4,822	229,149	119,613
207,290	5,011	228,790	119,561
208,304	4,755	228,705	119,308
209,319	4,746	228,402	119,133
210,334	4,748	228,336	119,089
211,348	4,625	227,990	118,804
212,363	4,185	227,836	118,375
213,377	3,914	227,678	118,074
214,392	3,879	227,494	117,941
215,407	4,026	227,430	118,011
216,421	3,907	227,378	117,882
217,436	4,130	227,048	117,871
218,450	3,919	226,755	117,547
219,465	3,561	226,725	117,247
220,480	3,679	226,638	117,282
221,494	3,797	226,307	117,191
222,509	4,046	226,239	117,334
223,523	3,762	226,183	117,079
224,538	3,761	226,016	116,981
225,553	3,961	225,966	117,097
226,567	3,977	225,723	116,972
227,582	4,383	225,684	117,250
228,596	4,346	225,642	117,190
229,611	4,002	225,267	116,725
230,626	3,824	225,163	116,524
231,640	3,834	224,811	116,340
232,655	3,937	224,964	116,486
233,669	4,396	224,883	116,782
234,684	4,628	224,700	116,851
235,699	4,101	224,621	116,402
236,713	3,942	224,428	116,171
237,728	3,835	224,171	115,947
238,742	3,925	223,838	115,832
239,757	3,952	223,723	115,783
240,772	3,808	223,639	115,621
241,786	3,687	223,560	115,479
242,801	4,099	223,533	115,765
243,815	4,535	223,330	115,976
244,830	4,476	223,340	115,926
245,844	4,122	223,030	115,490
246,859	4,254	222,855	115,488
247,874	4,270	222,786	115,454
248,888	4,166	222,552	115,245
249,903	4,140	222,413	115,143
250,917	4,128	222,198	115,012
251,932	4,183	222,077	114,980
252,947	3,870	221,889	114,640
253,961	3,825	221,769	114,533
254,976	3,894	221,621	114,499
255,990	4,153	221,584	114,662
257,005	3,987	221,529	114,500
258,020	4,237	221,408	114,613
259,034	4,267	221,376	114,608
260,049	4,219	221,102	114,420
261,063	4,123	220,731	114,147
262,078	4,228	220,859	114,281
263,093	4,232	220,789	114,237
264,107	4,086	220,464	113,951
265,122	4,388	220,328	114,095
266,136	4,484	220,308	114,145
267,151	4,406	220,199	114,020
268,166	4,068	219,759	113,533
269,180	3,699	219,595	113,166
270,195	3,806	219,494	113,183
271,209	3,817	219,342	113,102
272,224	3,846	219,262	113,073
273,239	4,026	219,161	113,142
274,253	3,991	218,927	112,986
275,268	3,575	218,883	112,648
276,282	3,691	218,580	112,567
277,297	3,671	218,434	112,467
278,312	3,509	218,448	112,346
279,326	3,922	218,311	112,568
280,341	3,954	218,043	112,443
281,355	3,978	218,014	112,435
282,370	3,874	217,867	112,273
283,384	3,656	217,674	112,005
284,399	3,594	217,453	111,835
285,414	3,625	217,312	111,776
286,428	3,917	217,353	112,000
287,443	4,242	217,065	112,078
288,457	4,198	217,013	112,009
289,472	4,217	216,803	111,904
290,487	3,523	216,595	111,283
291,501	3,595	216,238	111,142
292,516	3,490	216,377	111,128
293,530	3,824	216,246	111,293
294,545	3,701	216,006	111,070
295,560	3,894	215,954	111,173
296,574	3,756	215,956	111,064
297,589	3,886	215,693	111,013
298,603	3,999	215,670	111,073
299,618	4,120	215,402	111,013
300,633	4,007	215,310	110,874
301,647	4,210	215,397	111,055
302,662	4,113	215,289	110,919
303,676	4,178	215,011	110,813
304,691	4,260	214,810	110,758
305,706	4,230	214,676	110,658
306,720	4,126	214,603	110,536
307,735	3,849	214,411	110,229
308,749	3,760	214,193	110,043
309,764	4,086	214,126	110,232
310,779	4,191	214,101	110,285
311,793	4,073	213,867	110,070
312,808	4,080	213,717	109,988
313,822	4,107	213,653	109,964
314,837	3,912	213,333	109,651
315,852	3,636	213,226	109,389
316,866	3,755	213,136	109,418
317,881	4,187	212,994	109,643
318,895	4,217	212,944	109,629
319,910	4,046	212,630	109,336
320,925	3,785	212,442	109,045
321,939	3,394	212,357	108,713
322,954	3,406	212,209	108,636
323,968	3,900	212,253	109,000
324,983	4,137	212,090	109,074
325,997	4,310	211,973	109,126
327,012	4,069	211,870	108,893
328,027	4,103	211,723	108,832
329,041	4,292	211,560	108,872
330,056	4,369	211,586	108,930
331,070	4,084	211,206	108,524
332,085	3,612	211,118	108,136
333,100	3,784	211,031	108,203
334,114	3,902	210,930	108,225
335,129	3,912	210,672	108,089
336,143	3,880	210,443	107,940
337,158	3,727	210,388	107,795
338,173	4,001	210,143	107,852
339,187	3,918	210,046	107,734
340,202	3,617	210,002	107,491
341,216	3,638	209,663	107,323
342,231	3,580	209,666	107,274
343,246	3,720	209,631	107,344
344,260	3,802	209,412	107,280
345,275	3,875	209,253	107,241
346,289	4,096	209,315	107,416
347,304	4,004	209,171	107,269
348,319	3,973	208,972	107,136
349,333	3,853	208,779	106,943
350,348	3,873	208,735	106,926
351,362	4,277	208,714	107,186
352,377	4,008	208,526	106,893
353,392	3,855	208,344	106,684
354,406	3,986	208,292	106,739
355,421	194,778	1345,664	1437,176
356,435	155,440	1484,352	1437,300
