DTS Sentinel unit serial number:	SN410029Multiplexer serial number:	ORYXHardware model number:	OX2-SRSoftware version number:	ORYX F/W v4,00 Oryx Data Collector v3.7.2.0data status	okinstallation	B6 Nyhavnadifferential loss correction	single-endedforward channel	channel 2reverse channel	N/Adate	2023/12/08time	07:35:08forward acquisition time	300,00reverse acquisition time	0,00gamma	499,1914k internal	0,3166k external	0,3166temperature offset calibration	1,0000default loss term (dB/km)	0,3820temperature slope calibration	1,0000multiplexer offset coefficient	1,0000multiplexer slope coefficient	1,0000fibre end	0,00T internal ref (°C)	13,23T ext. ref 1 (°C)	-3,11T ext. ref 2 (°C)	-3,14length (m)	temperature (°C)	Stokes	anti-Stokes-744,400	-58,625	0,083	0,026
-743,385	-150,028	-0,320	0,018
-742,371	-98,704	0,091	0,017
-741,356	-37,375	-0,224	0,088
-740,342	184,782	0,128	0,140
-739,327	-189,662	-0,234	0,002
-738,312	-200,000	0,006	-0,115
-737,298	-52,859	-0,313	-0,105
-736,283	-130,529	0,033	0,003
-735,269	-52,204	-0,310	-0,105
-734,254	620,813	-0,020	-0,037
-733,239	-134,563	-0,560	-0,050
-732,225	-45,157	0,110	0,040
-731,210	119,766	0,130	0,118
-730,196	352,779	-0,068	0,099
-729,181	214,060	0,040	0,046
-728,167	-200,000	-0,011	-0,097
-727,152	48,465	0,056	0,039
-726,137	311,519	0,027	0,037
-725,123	82,603	-0,034	0,027
-724,108	598,072	-0,055	-0,101
-723,094	0,170	0,097	-0,051
-722,079	-200,000	-0,016	-0,146
-721,064	220,411	0,070	-0,082
-720,050	-46,501	-0,024	-0,009
-719,035	-97,578	-0,112	0,021
-718,021	-200,000	0,041	-0,218
-717,006	-79,249	0,092	0,023
-715,991	261,636	-0,040	-0,050
-714,977	115,189	-0,074	-0,066
-713,962	-169,177	0,033	-0,001
-712,948	-200,000	0,016	-0,094
-711,933	-200,000	0,019	-0,097
-710,918	-110,756	-0,179	0,027
-709,904	-124,706	-0,215	0,024
-708,889	-40,573	0,086	-0,033
-707,875	-70,548	-0,160	-0,044
-706,860	-200,000	-0,004	0,044
-705,845	176,934	0,046	0,049
-704,831	-200,000	0,029	0,148
-703,816	440,536	0,043	0,070
-702,802	171,319	0,107	-0,113
-701,787	800,000	-0,040	-0,091
-700,772	800,000	-0,029	0,065
-699,758	-107,859	-0,026	0,004
-698,743	800,000	0,042	0,110
-697,729	-130,950	0,028	0,003
-696,714	174,409	0,071	-0,076
-695,699	-80,688	-0,038	0,009
-694,685	800,000	0,029	0,080
-693,670	800,000	-0,067	-0,139
-692,656	-194,756	-0,178	-0,001
-691,641	58,109	0,080	-0,058
-690,627	138,619	-0,032	-0,031
-689,612	-200,000	-0,001	0,035
-688,597	800,000	-0,036	-0,084
-687,583	-200,000	-0,013	-0,062
-686,568	379,178	0,029	-0,043
-685,554	-134,190	-0,057	0,005
-684,539	65,218	-0,059	0,044
-683,524	-200,000	-0,007	0,075
-682,510	-200,000	-0,004	0,138
-681,495	28,907	0,055	-0,034
-680,481	-200,000	-0,030	-0,098
-679,466	800,000	-0,013	-0,037
-678,451	83,057	0,108	-0,086
-677,437	107,484	-0,189	-0,165
-676,422	800,000	-0,071	-0,175
-675,408	-78,001	-0,103	0,026
-674,393	85,251	0,036	-0,029
-673,378	-200,000	0,018	-0,252
-672,364	98,256	-0,033	-0,028
-671,349	-200,000	-0,018	0,095
-670,335	-9,378	-0,089	0,044
-669,320	800,000	0,020	-0,043
-668,305	-65,703	-0,057	0,017
-667,291	131,039	-0,078	-0,073
-666,276	-161,445	-0,119	0,004
-665,262	-111,912	-0,160	0,023
-664,247	-46,340	-0,101	0,036
-663,232	-88,159	-0,063	0,014
-662,218	800,000	-0,058	0,141
-661,203	100,848	0,066	-0,056
-660,189	-63,504	0,050	-0,015
-659,174	12,640	-0,062	-0,035
-658,159	-157,155	-0,059	0,003
-657,145	800,000	0,028	0,075
-656,130	401,796	0,028	0,043
-655,116	-200,000	0,007	0,110
-654,101	-200,000	0,002	0,029
-653,086	-2,778	-0,079	0,040
-652,072	-62,251	-0,088	0,027
-651,057	800,000	0,051	-0,116
-650,043	-108,641	-0,068	0,011
-649,028	14,854	-0,084	-0,048
-648,014	-200,000	-0,034	-0,146
-646,999	137,884	-0,064	0,061
-645,984	-58,957	-0,050	-0,016
-644,970	800,000	0,047	0,097
-643,955	130,998	-0,052	-0,049
-642,941	111,618	0,081	-0,072
-641,926	772,982	0,045	-0,091
-640,911	-200,000	0,007	0,092
-639,897	-93,656	0,115	0,023
-638,882	476,555	-0,083	-0,138
-637,868	172,370	-0,066	-0,070
-636,853	-82,617	0,076	0,018
-635,838	-200,000	-0,007	-0,114
-634,824	111,656	0,112	-0,099
-633,809	-200,000	-0,009	-0,128
-632,795	-159,454	0,048	0,002
-631,780	58,410	0,083	0,060
-630,765	208,194	-0,049	0,056
-629,751	-96,448	-0,083	-0,016
-628,736	800,000	0,036	-0,100
-627,722	-200,000	-0,002	-0,015
-626,707	-200,000	0,000	0,145
-625,692	-200,000	0,022	-0,088
-624,678	28,989	-0,093	0,058
-623,663	-95,272	-0,054	-0,011
-622,649	67,863	-0,092	-0,068
-621,634	-2,758	-0,073	-0,037
-620,619	800,000	0,034	0,082
-619,605	-200,000	0,014	-0,100
-618,590	-200,000	-0,020	-0,094
-617,576	-200,000	-0,016	0,071
-616,561	123,782	-0,004	-0,004
-615,546	-200,000	-0,003	0,070
-614,532	24,293	0,070	-0,042
-613,517	58,521	0,060	0,043
-612,503	-200,000	0,010	0,083
-611,488	177,730	-0,028	-0,030
-610,474	800,000	0,031	0,069
-609,459	-200,000	-0,040	0,137
-608,444	-18,263	-0,152	-0,069
-607,430	235,067	0,034	-0,041
-606,415	-200,000	-0,007	0,062
-605,401	98,725	0,117	0,099
-604,386	-200,000	0,023	-0,097
-603,371	-34,801	0,111	0,044
-602,357	657,337	0,062	0,117
-601,342	121,707	0,123	0,112
-600,328	-107,805	-0,117	-0,018
-599,313	141,418	-0,084	-0,081
-598,298	116,124	-0,053	0,048
-597,284	-3,416	0,181	-0,092
-596,269	48,205	0,135	0,092
-595,255	-0,998	-0,134	-0,069
-594,240	58,629	0,113	-0,081
-593,225	-33,853	0,078	0,031
-592,211	-9,505	-0,038	-0,019
-591,196	-112,549	0,209	-0,030
-590,182	800,000	0,004	0,012
-589,167	-168,792	0,043	0,001
-588,152	49,322	0,056	0,038
-587,138	-23,729	-0,216	-0,094
-586,123	96,977	-0,023	0,019
-585,109	76,712	-0,037	0,029
-584,094	391,137	-0,040	-0,061
-583,079	33,771	-0,032	-0,021
-582,065	-200,000	0,007	0,160
-581,050	-32,494	0,044	0,018
-580,036	-93,562	-0,043	-0,009
-579,021	430,457	-0,067	-0,107
-578,006	-80,274	0,115	0,028
-576,992	-200,000	-0,017	-0,067
-575,977	-71,111	0,099	-0,027
-574,963	64,866	-0,045	-0,033
-573,948	360,274	0,108	0,159
-572,934	52,382	-0,053	0,037
-571,919	21,618	-0,038	-0,022
-570,904	3,184	0,125	0,066
-569,890	-200,000	-0,016	-0,195
-568,875	29,134	0,070	0,043
-567,861	-200,000	0,010	-0,144
-566,846	88,275	-0,091	-0,074
-565,831	158,722	0,067	0,068
-564,817	800,000	-0,064	-0,155
-563,802	-37,324	-0,122	0,047
-562,788	354,278	-0,059	0,086
-561,773	-36,327	0,124	0,049
-560,758	613,775	-0,064	0,117
-559,744	47,354	0,082	-0,056
-558,729	95,276	-0,018	-0,015
-557,715	800,000	-0,036	-0,100
-556,700	390,662	0,072	-0,109
-555,685	-200,000	-0,013	-0,051
-554,671	389,409	-0,076	-0,115
-553,656	-17,439	0,055	-0,025
-552,642	800,000	0,033	0,104
-551,627	-200,000	0,012	-0,132
-550,612	3,948	-0,051	0,027
-549,598	127,581	-0,039	0,036
-548,583	800,000	-0,053	0,169
-547,569	250,929	0,014	0,018
-546,554	-200,000	-0,007	-0,045
-545,539	38,789	0,179	0,116
-544,525	-200,000	0,012	-0,085
-543,510	-176,115	-0,087	-0,002
-542,496	95,706	-0,064	0,053
-541,481	-200,000	-0,014	0,076
-540,466	-21,126	-0,095	0,042
-539,452	-104,762	0,128	-0,021
-538,437	-127,051	0,072	0,008
-537,423	288,633	-0,012	-0,016
-536,408	149,685	0,082	0,081
-535,393	125,226	-0,026	-0,024
-534,379	-200,000	-0,003	-0,079
-533,364	-65,230	0,128	0,037
-532,350	662,660	0,056	0,105
-531,335	-200,000	0,009	-0,095
-530,321	-200,000	0,029	0,095
-529,306	-200,000	0,017	-0,093
-528,291	-129,696	-0,100	0,010
-527,277	412,999	-0,078	-0,121
-526,262	-200,000	-0,020	-0,128
-525,248	717,557	0,057	-0,111
-524,233	37,910	0,137	0,089
-523,218	395,400	-0,028	-0,043
-522,204	356,245	0,066	-0,095
-521,189	-143,253	-0,114	0,008
-520,175	280,138	-0,063	0,082
-519,160	30,204	-0,040	-0,025
-518,145	-4,319	0,046	-0,023
-517,131	-200,000	-0,016	-0,074
-516,116	32,906	-0,056	0,035
-515,102	-137,426	0,080	-0,006
-514,087	-99,684	0,089	0,016
-513,072	283,643	-0,104	0,136
-512,058	798,828	0,060	-0,120
-511,043	-200,000	0,023	0,118
-510,029	-102,094	0,080	-0,014
-509,014	274,028	-0,082	0,106
-507,999	-157,305	0,028	-0,001
-506,985	621,561	0,078	-0,144
-505,970	512,056	-0,055	-0,093
-504,956	190,293	-0,120	-0,131
-503,941	-13,306	-0,030	0,014
-502,926	-114,628	-0,073	0,010
-501,912	800,000	-0,061	0,132
-500,897	-44,179	-0,099	-0,036
-499,883	800,000	-0,020	0,058
-498,868	800,000	0,013	-0,027
-497,853	-200,000	-0,001	-0,118
-496,839	-39,773	0,104	-0,039
-495,824	616,174	0,087	0,159
-494,810	800,000	0,008	-0,023
-493,795	547,499	0,020	0,035
-492,781	291,941	0,057	0,076
-491,766	800,000	-0,034	-0,108
-490,751	800,000	-0,007	0,015
-489,737	245,618	0,063	-0,077
-488,722	-66,614	-0,036	0,010
-487,708	150,411	0,053	0,052
-486,693	125,271	-0,113	0,104
-485,678	107,165	0,018	-0,015
-484,664	1,983	-0,094	0,049
-483,649	800,000	-0,041	-0,087
-482,635	94,586	-0,083	-0,069
-481,620	-130,769	0,106	0,010
-480,605	-129,941	0,062	0,006
-479,591	123,627	-0,141	-0,129
-478,576	-61,692	-0,043	0,013
-477,562	800,000	0,021	0,054
-476,547	-115,745	-0,056	0,008
-475,532	-200,000	-0,003	0,103
-474,518	-200,000	-0,004	0,181
-473,503	-41,211	0,124	-0,046
-472,489	25,127	-0,036	0,022
-471,474	167,032	-0,192	-0,198
-470,459	-200,000	0,019	-0,080
-469,445	-200,000	-0,034	-0,227
-468,430	239,623	0,022	0,027
-467,416	89,155	-0,056	0,045
-466,401	800,000	-0,089	0,181
-465,386	30,924	0,010	0,006
-464,372	-39,213	-0,031	0,012
-463,357	-4,909	-0,098	0,049
-462,343	-47,560	-0,115	-0,040
-461,328	269,749	0,050	-0,064
-460,313	46,669	-0,028	0,019
-459,299	-200,000	0,038	0,155
-458,284	-73,545	0,042	0,011
-457,270	-62,547	0,047	-0,014
-456,255	-89,410	-0,126	0,027
-455,241	800,000	-0,023	-0,071
-454,226	331,191	-0,022	-0,030
-453,211	229,730	0,099	0,118
-452,197	337,706	0,037	-0,053
-451,182	-200,000	0,005	0,049
-450,168	25,887	0,058	0,035
-449,153	-35,282	-0,088	0,035
-448,138	-200,000	-0,029	0,187
-447,124	-112,790	0,038	0,005
-446,109	5,984	-0,061	0,033
-445,095	781,853	0,032	-0,064
-444,080	197,160	-0,068	0,076
-443,065	657,113	-0,123	0,230
-442,051	-200,000	-0,002	-0,013
-441,036	-185,594	-0,113	-0,001
-440,022	581,300	0,089	-0,160
-439,007	166,894	-0,046	-0,047
-437,992	800,000	0,018	0,055
-436,978	-26,741	-0,031	-0,013
-435,963	-122,611	0,139	-0,016
-434,949	-136,388	-0,074	-0,006
-433,934	91,684	-0,048	-0,039
-432,919	-28,074	-0,022	0,009
-431,905	-80,735	-0,181	0,043
-430,890	504,950	0,089	0,150
-429,876	-200,000	-0,009	-0,038
-428,861	325,991	-0,026	0,036
-427,846	123,907	-0,030	-0,027
-426,832	800,000	-0,017	-0,048
-425,817	76,497	0,079	-0,061
-424,803	800,000	-0,044	-0,113
-423,788	-60,886	0,053	-0,016
-422,773	30,605	0,041	-0,025
-421,759	405,250	-0,049	0,075
-420,744	-200,000	0,004	0,097
-419,730	800,000	-0,056	-0,162
-418,715	96,224	0,021	0,017
-417,701	-200,000	0,007	-0,104
-416,686	197,629	0,064	0,071
-415,671	-66,525	-0,009	0,003
-414,657	800,000	0,004	0,011
-413,642	-200,000	-0,005	-0,120
-412,628	-72,539	-0,158	0,042
-411,613	-135,240	-0,180	-0,015
-410,598	143,818	0,081	-0,078
-409,584	-200,000	0,006	0,094
-408,569	-10,920	0,053	-0,025
-407,555	-77,037	-0,046	-0,011
-406,540	196,272	0,105	-0,116
-405,525	228,186	-0,048	-0,057
-404,511	-200,000	0,000	-0,023
-403,496	800,000	0,017	-0,041
-402,482	-108,914	0,114	-0,017
-401,467	-200,000	0,001	0,122
-400,452	242,440	-0,029	0,036
-399,438	800,000	0,061	0,130
-398,423	278,043	-0,100	-0,129
-397,409	-53,626	0,059	-0,020
-396,394	-177,748	0,106	0,002
-395,379	302,952	0,055	-0,074
-394,365	-157,930	0,077	-0,003
-393,350	-92,357	0,160	-0,032
-392,336	468,931	-0,072	-0,118
-391,321	125,675	0,026	-0,024
-390,306	49,031	-0,073	-0,049
-389,292	-156,361	0,080	-0,004
-388,277	-194,825	-0,194	0,001
-387,263	800,000	-0,044	0,127
-386,248	800,000	-0,015	-0,037
-385,233	767,116	-0,045	0,089
-384,219	33,210	-0,029	-0,018
-383,204	-77,511	0,062	-0,015
-382,190	800,000	-0,042	-0,097
-381,175	800,000	-0,009	0,019
-380,160	-200,000	0,004	-0,044
-379,146	-200,000	-0,009	-0,044
-378,131	-3,997	0,153	0,077
-377,117	208,658	0,055	-0,063
-376,102	800,000	0,022	-0,057
-375,088	-101,246	-0,044	-0,008
-374,073	800,000	0,036	0,095
-373,058	481,306	0,087	-0,144
-372,044	-132,573	-0,033	-0,003
-371,029	800,000	0,037	-0,118
-370,015	800,000	-0,036	-0,073
-369,000	-30,670	-0,128	-0,052
-367,985	19,740	-0,059	0,034
-366,971	118,671	-0,063	0,056
-365,956	-104,173	-0,069	-0,011
-364,942	-200,000	0,023	0,126
-363,927	800,000	0,021	0,059
-362,912	800,000	-0,032	0,070
-361,898	313,664	-0,056	-0,077
-360,883	-200,000	-0,035	-0,142
-359,869	77,448	0,110	-0,085
-358,854	-10,334	0,035	0,017
-357,839	104,026	0,131	-0,112
-356,825	-100,219	0,064	0,011
-355,810	458,089	-0,057	-0,093
-354,796	113,763	-0,059	-0,052
-353,781	-200,000	-0,044	-0,152
-352,766	-200,000	0,008	-0,042
-351,752	-77,990	0,111	-0,027
-350,737	405,908	-0,054	0,082
-349,723	53,727	-0,056	0,039
-348,708	178,140	-0,095	0,100
-347,693	-200,000	0,024	-0,110
-346,679	44,181	-0,070	-0,047
-345,664	800,000	-0,057	0,142
-344,650	475,936	0,105	0,172
-343,635	-135,809	0,069	0,006
-342,620	-170,122	0,223	0,006
-341,606	211,529	-0,059	-0,067
-340,591	217,068	0,008	0,009
-339,577	11,824	-0,124	-0,069
-338,562	48,974	-0,070	-0,047
-337,548	-46,780	0,123	0,043
-336,533	196,722	-0,076	-0,084
-335,518	-65,516	0,050	0,014
-334,504	-49,605	-0,028	0,010
-333,489	62,642	0,083	0,060
-332,475	192,497	-0,012	-0,014
-331,460	800,000	0,022	0,069
-330,445	148,780	0,073	-0,071
-329,431	-14,190	-0,126	0,058
-328,416	-200,000	-0,007	0,062
-327,402	-200,000	0,009	-0,052
-326,387	11,807	-0,050	-0,028
-325,372	165,733	-0,042	-0,043
-324,358	-56,446	0,111	-0,036
-323,343	-151,664	-0,019	-0,001
-322,329	201,644	-0,068	0,075
-321,314	83,038	0,073	0,058
-320,299	-64,833	-0,068	0,020
-319,285	-137,633	-0,133	-0,011
-318,270	-200,000	0,013	0,082
-317,256	-130,799	0,158	0,015
-316,241	115,231	0,019	0,017
-315,226	82,088	0,029	0,023
-314,212	-2,768	0,079	-0,040
-313,197	800,000	0,049	0,126
-312,183	-128,934	0,052	0,005
-311,168	193,309	0,041	0,044
-310,153	-200,000	0,023	-0,132
-309,139	245,618	-0,100	0,122
-308,124	154,722	-0,026	0,026
-307,110	606,302	0,064	0,116
-306,095	800,000	0,023	0,068
-305,080	-113,091	-0,217	0,031
-304,066	-111,244	0,015	0,002
-303,051	38,044	-0,072	-0,046
-302,037	117,529	-0,080	0,071
-301,022	-129,835	0,099	-0,010
-300,008	134,839	0,179	-0,168
-298,993	21,601	-0,037	0,022
-297,978	-200,000	0,006	-0,018
-296,964	141,353	-0,079	-0,076
-295,949	116,628	-0,099	0,088
-294,935	-146,497	0,093	-0,006
-293,920	-200,000	-0,010	0,078
-292,905	800,000	0,034	0,105
-291,891	411,376	-0,072	0,110
-290,876	-12,907	0,129	0,061
-289,862	-45,800	-0,082	-0,029
-288,847	-200,000	-0,006	-0,069
-287,832	-200,000	0,012	0,086
-286,818	160,581	0,024	-0,024
-285,803	-200,000	0,006	-0,033
-284,789	-76,641	0,156	0,039
-283,774	781,370	0,050	0,099
-282,759	173,638	-0,028	-0,030
-281,745	-136,871	-0,059	0,005
-280,730	-120,672	-0,095	0,011
-279,716	18,106	-0,051	-0,029
-278,701	80,695	-0,004	0,003
-277,686	-79,840	-0,164	-0,040
-276,672	-7,618	0,071	-0,035
-275,657	757,960	0,058	-0,114
-274,643	-112,586	-0,083	0,012
-273,628	46,845	0,048	-0,032
-272,613	472,363	-0,054	-0,088
-271,599	268,176	0,038	0,048
-270,584	-93,917	0,211	-0,042
-269,570	676,358	0,026	0,050
-268,555	-200,000	0,018	0,107
-267,540	-200,000	-0,011	0,119
-266,526	102,905	-0,036	-0,030
-265,511	154,153	-0,049	-0,048
-264,497	163,987	0,055	0,056
-263,482	573,437	0,035	0,063
-262,467	-192,290	0,241	0,002
-261,453	-200,000	-0,006	0,019
-260,438	-61,803	-0,017	-0,005
-259,424	200,113	-0,077	0,085
-258,409	-200,000	0,017	0,067
-257,395	800,000	0,045	-0,094
-256,380	-1,737	0,073	0,037
-255,365	431,233	0,089	0,139
-254,351	63,650	-0,113	0,082
-253,336	-76,628	0,137	0,034
-252,322	-95,571	-0,149	0,029
-251,307	64,499	0,078	0,057
-250,292	800,000	-0,048	0,138
-249,278	146,959	0,098	0,095
-248,263	-200,000	-0,006	0,073
-247,249	-116,557	0,037	-0,005
-246,234	-143,104	0,028	0,002
-245,219	114,380	-0,079	-0,069
-244,205	-200,000	0,010	-0,083
-243,190	-200,000	0,016	0,090
-242,176	6,843	-0,162	0,087
-241,161	88,281	-0,038	0,030
-240,146	-200,000	0,040	0,149
-239,132	-129,722	0,071	0,007
-238,117	-200,000	0,009	-0,074
-237,103	800,000	-0,030	-0,078
-236,088	-142,118	0,100	-0,007
-235,073	-11,766	0,119	0,056
-234,059	26,476	-0,102	0,061
-233,044	19,241	0,071	0,041
-232,030	800,000	-0,087	-0,183
-231,015	800,000	-0,030	-0,078
-230,000	182,107	-0,076	0,080
-228,986	209,159	-0,058	0,066
-227,971	-2,928	-0,052	-0,026
-226,957	738,506	0,023	-0,044
-225,942	131,070	-0,020	0,019
-224,927	66,151	0,043	-0,032
-223,913	-138,646	-0,093	-0,007
-222,898	-200,000	0,051	-0,169
-221,884	488,401	-0,129	-0,213
-220,869	800,000	0,009	-0,020
-219,855	25,620	-0,052	0,031
-218,840	407,604	0,051	-0,079
-217,825	146,625	-0,044	0,043
-216,811	-159,135	-0,073	-0,003
-215,796	211,779	0,114	0,130
-214,782	146,126	-0,141	-0,136
-213,767	-200,000	-0,023	-0,101
-212,752	-200,000	0,029	0,156
-211,738	351,393	0,107	0,153
-210,723	129,948	-0,150	-0,139
-209,709	-17,412	0,058	-0,026
-208,694	800,000	-0,051	0,135
-207,679	-33,668	0,092	-0,036
-206,665	-75,437	0,088	0,022
-205,650	144,797	0,030	0,029
-204,636	121,195	0,060	0,054
-203,621	800,000	-0,035	0,091
-202,606	-28,666	0,074	0,031
-201,592	200,596	-0,073	0,081
-200,577	-85,425	0,089	-0,020
-199,563	15,278	-0,123	0,069
-198,548	561,687	0,070	0,123
-197,533	261,328	0,063	0,079
-196,519	-200,000	-0,019	0,090
-195,504	152,271	0,032	-0,031
-194,490	334,162	-0,109	-0,152
-193,475	-200,000	-0,002	-0,073
-192,460	-126,601	0,139	-0,015
-191,446	144,974	0,065	0,063
-190,431	-83,474	0,200	-0,046
-189,417	-59,066	0,188	-0,058
-188,402	351,609	-0,032	0,046
-187,387	-163,817	-0,022	0,001
-186,373	-90,593	-0,022	-0,005
-185,358	33,244	0,090	-0,056
-184,344	-200,000	-0,055	-0,175
-183,329	-200,000	-0,000	-0,030
-182,315	-200,000	-0,016	0,057
-181,300	-46,846	-0,093	0,033
-180,285	-112,418	-0,084	-0,012
-179,271	-200,000	-0,021	-0,127
-178,256	800,000	-0,015	0,035
-177,242	-200,000	0,031	0,163
-176,227	52,958	0,066	-0,045
-175,212	5,296	0,088	0,046
-174,198	12,630	-0,006	0,004
-173,183	-200,000	-0,016	0,053
-172,169	-200,000	0,007	0,094
-171,154	-160,701	-0,089	0,003
-170,139	114,166	0,053	0,047
-169,125	51,191	0,132	0,090
-168,110	-118,468	-0,190	-0,024
-167,096	-116,400	-0,067	-0,009
-166,081	6,539	0,036	0,019
-165,066	-88,517	-0,042	0,009
-164,052	97,393	-0,115	-0,095
-163,037	93,426	-0,059	0,048
-162,023	44,737	0,107	-0,071
-161,008	800,000	0,022	0,043
-159,993	800,000	-0,070	-0,159
-158,979	27,556	-0,063	-0,038
-157,964	744,046	0,051	-0,099
-156,950	-101,732	0,006	0,001
-155,935	-78,681	-0,058	0,014
-154,920	800,000	0,034	0,078
-153,906	-130,756	-0,077	0,007
-152,891	121,764	-0,013	0,012
-151,877	-200,000	-0,010	0,037
-150,862	-200,000	0,014	0,066
-149,847	-152,697	-0,123	-0,006
-148,833	79,638	-0,021	-0,017
-147,818	-13,119	0,045	0,021
-146,804	-72,889	-0,056	0,015
-145,789	-58,816	0,159	-0,049
-144,775	-200,000	-0,005	-0,070
-143,760	132,002	0,045	-0,042
-142,745	51,035	0,087	0,059
-141,731	-87,661	-0,043	0,009
-140,716	319,989	0,095	0,129
-139,702	-95,458	0,147	-0,028
-138,687	-44,238	-0,065	-0,023
-137,672	800,000	0,054	0,122
-136,658	-200,000	-0,013	-0,067
-135,643	800,000	-0,069	-0,151
-134,629	441,507	-0,041	-0,064
-133,614	-21,528	0,061	0,026
-132,599	-200,000	0,028	0,090
-131,585	-200,000	0,019	0,231
-130,570	308,175	-0,076	-0,103
-129,556	-91,899	-0,090	-0,018
-128,541	800,000	0,053	0,113
-127,526	-200,000	-0,003	0,104
-126,512	709,496	-0,065	0,123
-125,497	-200,000	0,019	0,093
-124,483	131,338	-0,043	0,040
-123,468	-68,846	-0,079	0,022
-122,453	62,624	-0,059	-0,042
-121,439	72,276	0,047	0,035
-120,424	-152,445	-0,104	0,005
-119,410	201,039	0,068	-0,075
-118,395	182,474	0,058	-0,062
-117,380	-166,956	-0,063	0,002
-116,366	-24,957	-0,060	-0,025
-115,351	364,860	-0,005	-0,007
-114,337	29,850	-0,135	-0,082
-113,322	-200,000	-0,016	-0,116
-112,307	53,310	-0,082	-0,056
-111,293	-200,000	0,021	0,127
-110,278	-200,000	0,012	0,147
-109,264	290,439	0,090	0,117
-108,249	-115,376	0,060	0,008
-107,234	-200,000	-0,008	-0,068
-106,220	585,298	0,052	-0,093
-105,205	671,175	0,016	-0,030
-104,191	244,679	-0,041	-0,049
-103,176	-113,553	0,051	-0,007
-102,162	-73,617	-0,105	0,027
-101,147	-109,816	-0,064	0,010
-100,132	-200,000	0,004	-0,078
-99,118	-150,454	0,044	0,002
-98,103	800,000	0,031	-0,092
-97,089	323,179	0,047	-0,065
-96,074	-23,001	-0,059	0,025
-95,059	-200,000	-0,005	0,021
-94,045	21,198	-0,069	-0,040
-93,030	-121,282	-0,060	-0,007
-92,016	678,759	-0,061	0,114
-91,001	298,599	-0,024	0,032
-89,986	-110,310	0,036	-0,005
-88,972	-200,000	0,030	0,190
-87,957	-92,214	-0,152	0,030
-86,943	230,755	0,018	-0,021
-85,928	-123,332	0,071	-0,008
-84,913	-154,808	0,068	-0,003
-83,899	204,315	-0,057	0,063
-82,884	58,030	0,057	-0,040
-81,870	800,000	0,023	0,063
-80,855	-32,241	0,059	-0,023
-79,840	-175,333	-0,018	-0,000
-78,826	-38,198	0,083	0,031
-77,811	56,068	-0,135	-0,094
-76,797	-81,086	-0,112	0,026
-75,782	-66,801	0,089	0,025
-74,767	139,623	0,059	0,056
-73,753	673,248	0,034	0,064
-72,738	-200,000	0,006	-0,022
-71,724	-80,156	-0,043	-0,010
-70,709	-100,796	-0,178	0,031
-69,694	-106,717	-0,126	-0,020
-68,680	-96,120	0,093	0,017
-67,665	-200,000	0,017	0,233
-66,651	-88,188	-0,059	0,013
-65,636	800,000	-0,009	-0,025
-64,622	-67,898	0,113	0,031
-63,607	82,361	0,049	0,038
-62,592	-95,766	0,063	0,012
-61,578	800,000	0,024	0,056
-60,563	369,003	-0,100	0,145
-59,549	-120,646	0,109	0,013
-58,534	45,672	-2,212	-1,461
-57,519	-200,000	-0,089	-0,759
-56,505	-200,000	-1,433	-5,174
-55,490	95,091	0,845	0,688
-54,476	800,000	5,355	12,068
-53,461	-200,000	18,902	317,933
-52,446	800,000	740,595	2321,067
-51,432	549,631	1654,188	2849,284
-50,417	110,085	1637,201	1406,136
-49,403	73,607	1287,689	964,293
-48,388	29,728	1029,257	625,646
-47,373	19,621	992,300	569,796
-46,359	17,057	979,793	554,179
-45,344	13,637	975,977	540,793
-44,330	14,025	974,229	541,073
-43,315	13,339	972,478	537,837
-42,300	13,247	971,348	536,890
-41,286	13,266	970,527	536,478
-40,271	13,297	969,620	536,054
-39,257	13,235	968,967	535,469
-38,242	13,246	968,079	534,994
-37,227	13,298	967,053	534,574
-36,213	13,231	966,177	533,851
-35,198	13,195	965,391	533,281
-34,184	13,321	964,412	533,125
-33,169	13,160	963,853	532,274
-32,154	13,242	962,639	531,849
-31,140	13,277	961,919	531,543
-30,125	13,315	961,004	531,137
-29,111	13,198	960,451	530,433
-28,096	13,293	959,521	530,205
-27,082	13,274	958,954	529,810
-26,067	13,268	958,201	529,354
-25,052	13,223	957,558	528,834
-24,038	13,261	956,754	528,490
-23,023	13,236	956,111	528,034
-22,009	13,268	955,435	527,743
-20,994	13,275	954,861	527,425
-19,979	13,321	954,145	527,156
-18,965	13,291	953,529	526,699
-17,950	13,259	953,018	526,295
-16,936	13,238	952,367	525,846
-15,921	13,270	951,679	525,547
-14,906	13,158	950,943	524,764
-13,892	13,194	950,319	524,512
-12,877	13,135	949,642	523,931
-11,863	13,124	948,996	523,517
-10,848	13,149	948,522	523,317
-9,833	13,278	947,968	523,401
-8,819	13,254	947,084	522,816
-7,804	13,199	946,785	522,455
-6,790	13,203	946,066	522,049
-5,775	13,235	945,523	521,832
-4,760	13,175	945,009	521,335
-3,746	13,225	944,175	521,014
-2,731	13,010	943,714	520,058
-1,717	13,026	942,986	519,685
-0,702	13,026	942,250	519,258
0,313	12,808	941,650	519,022
1,327	16,216	939,463	528,528
2,342	25,442	790,427	468,985
3,356	21,735	445,346	258,719
4,371	-7,334	298,269	143,980
5,386	-11,139	280,191	131,603
6,400	-12,150	274,337	127,894
7,415	-12,281	272,044	126,692
8,429	-12,573	270,542	125,712
9,444	-12,675	269,665	125,199
10,459	-12,565	268,871	124,921
11,473	-12,724	268,251	124,475
12,488	-12,912	267,699	124,036
13,502	-13,118	267,192	123,603
14,517	-12,943	266,499	123,431
15,531	-13,109	266,136	123,100
16,546	-13,058	265,673	122,921
17,561	-13,106	265,518	122,795
18,575	-12,991	265,124	122,706
19,590	-13,040	264,644	122,429
20,604	-13,067	264,495	122,324
21,619	-13,222	264,082	121,983
22,634	-13,304	263,864	121,797
23,648	-13,213	263,475	121,689
24,663	-13,238	263,247	121,550
25,677	-13,304	263,047	121,388
26,692	-13,148	262,599	121,310
27,707	-13,244	262,365	121,105
28,721	-13,346	262,255	120,952
29,736	-13,346	261,824	120,743
30,750	-13,500	261,643	120,512
31,765	-13,399	261,308	120,436
32,780	-13,187	260,989	120,467
33,794	-13,293	260,837	120,292
34,809	-13,248	260,546	120,187
35,823	-13,236	260,321	120,083
36,838	-13,184	260,054	119,995
37,853	-13,262	259,873	119,832
38,867	-13,558	259,830	119,540
39,882	-13,278	259,296	119,531
40,896	-13,291	259,167	119,449
41,911	-13,269	258,957	119,361
42,926	-13,268	258,688	119,227
43,940	-13,549	258,435	118,853
44,955	-13,519	258,129	118,728
45,969	-13,457	257,764	118,604
46,984	-13,736	257,763	118,348
47,999	-13,923	257,500	118,052
49,013	-13,935	257,065	117,832
50,028	-14,014	256,846	117,652
51,042	-14,397	256,726	117,251
52,057	-14,302	256,426	117,187
53,071	-14,113	256,235	117,254
54,086	-14,098	256,001	117,149
55,101	-13,969	255,763	117,142
56,115	-13,930	255,888	117,224
57,130	-13,244	255,607	117,681
58,144	-12,914	255,460	117,890
59,159	-12,877	255,212	117,796
60,174	-12,961	255,027	117,628
61,188	-13,045	254,863	117,470
62,203	-13,157	254,578	117,230
63,217	-13,422	254,450	116,932
64,232	-13,090	254,170	117,079
65,247	-12,928	253,874	117,073
66,261	-13,020	253,750	116,925
67,276	-13,417	253,389	116,407
68,290	-13,816	253,226	115,978
69,305	-13,722	252,854	115,878
70,320	-13,562	252,735	115,951
71,334	-13,522	252,754	115,984
72,349	-13,196	252,396	116,088
73,363	-12,955	252,326	116,252
74,378	-13,217	251,963	115,851
75,393	-13,094	251,891	115,912
76,407	-13,162	251,617	115,717
77,422	-13,201	251,477	115,610
78,436	-13,191	251,242	115,500
79,451	-13,058	250,918	115,454
80,466	-13,435	250,650	115,000
81,480	-13,626	250,442	114,732
82,495	-13,634	250,219	114,612
83,509	-13,388	250,147	114,778
84,524	-13,580	249,876	114,481
85,539	-13,669	249,667	114,300
86,553	-13,811	249,474	114,081
87,568	-13,428	249,304	114,317
88,582	-13,557	248,981	114,049
89,597	-13,434	248,939	114,123
90,611	-13,388	248,808	114,092
91,626	-13,183	248,583	114,152
92,641	-13,536	248,458	113,787
93,655	-13,294	248,149	113,839
94,670	-13,505	248,045	113,603
95,684	-13,315	247,742	113,614
96,699	-13,427	247,555	113,424
97,714	-13,450	247,475	113,358
98,728	-13,480	247,066	113,136
99,743	-13,625	246,957	112,954
100,757	-13,738	246,642	112,705
101,772	-13,642	246,649	112,779
102,787	-13,599	246,437	112,708
103,801	-13,342	246,214	112,810
104,816	-13,448	246,323	112,761
105,830	-13,383	246,049	112,680
106,845	-13,204	245,680	112,650
107,860	-13,153	245,590	112,641
108,874	-13,451	245,268	112,236
109,889	-13,430	245,075	112,155
110,903	-13,490	245,028	112,074
111,918	-13,367	244,741	112,034
112,933	-13,510	244,692	111,884
113,947	-13,347	244,463	111,904
114,962	-13,231	244,143	111,843
115,976	-13,333	244,131	111,743
116,991	-13,296	243,859	111,640
118,006	-13,309	243,651	111,524
119,020	-13,501	243,845	111,444
120,035	-13,164	243,455	111,534
121,049	-13,138	243,324	111,485
122,064	-13,256	243,140	111,293
123,079	-13,443	242,979	111,056
124,093	-13,217	242,516	111,020
125,108	-13,688	242,400	110,571
126,122	-13,773	242,127	110,367
127,137	-13,835	241,864	110,187
128,151	-13,854	241,890	110,173
129,166	-13,685	241,744	110,235
130,181	-13,479	241,347	110,212
131,195	-13,734	241,289	109,968
132,210	-13,490	241,112	110,076
133,224	-13,420	241,098	110,117
134,239	-13,454	240,884	109,982
135,254	-13,195	240,569	110,039
136,268	-13,470	240,289	109,678
137,283	-13,815	239,922	109,221
138,297	-13,826	239,833	109,162
139,312	-13,688	239,654	109,182
140,327	-13,507	239,659	109,321
141,341	-13,026	239,698	109,718
142,356	-13,011	239,536	109,647
143,370	-12,740	239,294	109,745
144,385	-12,934	239,210	109,540
145,400	-12,849	238,912	109,463
146,414	-12,840	238,825	109,420
147,429	-13,051	238,450	109,069
148,443	-13,064	238,413	109,032
149,458	-13,037	238,203	108,947
150,473	-12,921	238,228	109,042
151,487	-12,948	237,836	108,832
152,502	-12,906	237,650	108,771
153,516	-13,053	237,639	108,638
154,531	-12,891	237,396	108,647
155,546	-13,128	237,242	108,377
156,560	-12,913	237,000	108,428
157,575	-13,054	236,766	108,200
158,589	-13,076	236,604	108,098
159,604	-12,651	236,484	108,373
160,619	-12,866	236,355	108,133
161,633	-12,787	236,116	108,076
162,648	-12,699	236,007	108,087
163,662	-12,878	235,871	107,872
164,677	-13,039	235,677	107,646
165,692	-13,078	235,665	107,600
166,706	-12,714	235,406	107,762
167,721	-12,746	235,222	107,642
168,735	-12,720	235,113	107,603
169,750	-12,870	235,062	107,452
170,764	-12,644	234,733	107,470
171,779	-12,973	234,793	107,228
172,794	-12,804	234,518	107,227
173,808	-13,098	234,261	106,867
174,823	-13,514	233,979	106,402
175,837	-13,632	233,620	106,136
176,852	-13,292	233,763	106,459
177,867	-12,956	233,737	106,702
178,881	-12,812	233,597	106,742
179,896	-12,748	233,436	106,709
180,910	-12,612	233,116	106,660
181,925	-12,832	232,955	106,404
182,940	-13,046	232,922	106,212
183,954	-12,674	232,614	106,353
184,969	-12,651	232,522	106,320
185,983	-12,731	232,539	106,255
186,998	-12,528	232,319	106,304
188,013	-12,440	231,984	106,210
189,027	-12,533	231,830	106,057
190,042	-12,781	231,934	105,902
191,056	-12,574	231,776	105,981
192,071	-12,482	231,465	105,902
193,086	-12,797	231,383	105,610
194,100	-12,501	231,258	105,774
195,115	-12,430	231,109	105,751
196,129	-11,685	231,284	106,400
197,144	-5,869	233,038	111,745
198,159	-0,211	234,973	117,110
199,173	2,568	235,522	119,557
200,188	2,773	235,556	119,725
201,202	2,750	235,438	119,636
202,217	3,052	235,395	119,840
203,232	3,166	235,193	119,816
204,246	3,396	235,006	119,890
205,261	3,263	234,944	119,744
206,275	3,378	234,846	119,773
207,290	3,766	234,645	119,963
208,304	3,501	234,511	119,676
209,319	3,488	234,224	119,510
210,334	3,520	234,115	119,468
211,348	3,181	233,830	119,049
212,363	2,864	233,707	118,728
213,377	2,532	233,543	118,376
214,392	2,475	233,350	118,223
215,407	2,688	233,195	118,300
216,421	2,868	233,018	118,339
217,436	2,719	232,825	118,116
218,450	2,436	232,618	117,780
219,465	2,467	232,339	117,653
220,480	2,474	232,383	117,670
221,494	2,590	232,160	117,637
222,509	2,692	232,042	117,644
223,523	2,891	231,894	117,712
224,538	2,790	231,823	117,588
225,553	2,811	231,549	117,455
226,567	2,681	231,596	117,368
227,582	3,118	231,311	117,549
228,596	3,191	231,303	117,591
229,611	2,870	231,062	117,211
230,626	2,597	230,814	116,866
231,640	2,469	230,813	116,756
232,655	2,769	230,660	116,899
233,669	3,101	230,575	117,099
234,684	3,148	230,466	117,070
235,699	3,114	230,279	116,938
236,713	3,015	229,948	116,684
237,728	2,729	229,815	116,388
238,742	2,768	229,623	116,310
239,757	2,666	229,561	116,190
240,772	2,718	229,297	116,086
241,786	2,768	229,094	116,011
242,801	2,834	229,071	116,039
243,815	3,273	229,104	116,380
244,830	2,942	229,050	116,090
245,844	2,618	228,602	115,607
246,859	2,728	228,460	115,608
247,874	2,953	228,357	115,716
248,888	3,033	228,168	115,671
249,903	2,922	228,138	115,561
250,917	2,683	227,880	115,240
251,932	2,621	227,839	115,161
252,947	2,891	227,530	115,199
253,961	2,672	227,368	114,941
254,976	2,779	227,207	114,930
255,990	3,014	227,162	115,075
257,005	2,971	227,063	114,982
258,020	2,817	226,967	114,807
259,034	2,947	226,818	114,819
260,049	3,201	226,647	114,913
261,063	3,052	226,498	114,715
262,078	2,909	226,395	114,546
263,093	3,119	226,350	114,670
264,107	3,253	226,203	114,686
265,122	3,089	225,924	114,412
266,136	3,332	225,745	114,492
267,151	3,359	225,516	114,386
268,166	2,732	225,443	113,871
269,180	2,361	225,185	113,454
270,195	2,885	224,982	113,731
271,209	2,520	224,956	113,437
272,224	2,921	224,803	113,648
273,239	2,853	224,711	113,540
274,253	2,772	224,477	113,351
275,268	2,559	224,276	113,082
276,282	2,554	224,196	113,028
277,297	2,537	223,890	112,851
278,312	2,572	223,944	112,894
279,326	2,815	223,801	112,992
280,341	2,843	223,569	112,885
281,355	2,903	223,427	112,848
282,370	2,766	223,348	112,697
283,384	2,462	223,198	112,387
284,399	2,415	223,150	112,318
285,414	2,585	222,873	112,293
286,428	2,815	222,789	112,411
287,443	2,776	222,673	112,314
288,457	2,867	222,517	112,292
289,472	2,570	222,402	112,005
290,487	2,066	222,171	111,509
291,501	2,404	221,918	111,620
292,516	2,465	221,793	111,591
293,530	2,285	221,769	111,438
294,545	2,444	221,552	111,435
295,560	2,558	221,620	111,543
296,574	2,916	221,455	111,712
297,589	2,946	221,236	111,613
298,603	2,842	221,168	111,493
299,618	2,756	220,998	111,335
300,633	2,746	220,847	111,241
301,647	2,825	220,815	111,273
302,662	2,742	220,640	111,114
303,676	3,031	220,462	111,225
304,691	3,166	220,142	111,152
305,706	3,013	220,080	110,999
306,720	2,877	220,097	110,899
307,735	2,763	219,680	110,597
308,749	2,446	219,726	110,380
309,764	2,764	219,673	110,575
310,779	3,139	219,452	110,724
311,793	2,899	219,292	110,461
312,808	3,120	219,077	110,502
313,822	2,871	219,013	110,280
314,837	2,503	218,904	109,949
315,852	2,710	218,708	109,991
316,866	2,849	218,545	109,999
317,881	3,279	218,477	110,265
318,895	3,060	218,338	110,027
319,910	2,537	218,177	109,559
320,925	2,640	217,817	109,443
321,939	2,080	217,820	109,033
322,954	2,351	217,613	109,114
323,968	2,616	217,627	109,302
324,983	2,715	217,617	109,358
325,997	2,970	217,388	109,416
327,012	2,957	217,071	109,237
328,027	2,849	217,026	109,127
329,041	2,961	217,139	109,255
330,056	3,057	216,889	109,187
331,070	2,675	216,774	108,847
332,085	2,404	216,393	108,453
333,100	2,493	216,181	108,401
334,114	2,525	216,078	108,362
335,129	2,980	216,008	108,641
336,143	3,008	215,863	108,578
337,158	2,921	215,897	108,523
338,173	2,837	215,676	108,343
339,187	2,939	215,490	108,312
340,202	2,644	215,234	107,965
341,216	2,686	215,116	107,926
342,231	2,748	215,161	107,983
343,246	2,624	214,989	107,799
344,260	2,592	214,918	107,731
345,275	2,766	214,685	107,728
346,289	3,137	214,572	107,924
347,304	2,845	214,440	107,642
348,319	2,823	214,138	107,465
349,333	2,827	214,227	107,503
350,348	2,777	214,074	107,381
351,362	2,820	213,957	107,343
352,377	2,799	213,907	107,294
353,392	2,555	213,695	107,007
354,406	2,959	213,641	107,254
355,421	196,661	1314,740	1390,776
356,435	157,330	1448,837	1390,711
