DTS Sentinel unit serial number:	SN410029Multiplexer serial number:	ORYXHardware model number:	OX2-SRSoftware version number:	ORYX F/W v4,00 Oryx Data Collector v3.7.2.0data status	okinstallation	B6 Nyhavnadifferential loss correction	single-endedforward channel	channel 2reverse channel	N/Adate	2023/12/07time	17:55:08forward acquisition time	300,00reverse acquisition time	0,00gamma	499,1914k internal	0,3164k external	0,3164temperature offset calibration	1,0000default loss term (dB/km)	0,3820temperature slope calibration	1,0000multiplexer offset coefficient	1,0000multiplexer slope coefficient	1,0000fibre end	0,00T internal ref (°C)	14,37T ext. ref 1 (°C)	-2,59T ext. ref 2 (°C)	-2,59length (m)	temperature (°C)	Stokes	anti-Stokes-744,400	82,008	0,077	-0,061
-743,385	-127,523	-0,358	0,038
-742,371	409,560	0,071	0,111
-741,356	-76,114	-0,363	0,094
-740,342	204,118	0,196	0,223
-739,327	-75,066	-0,285	0,075
-738,312	-200,000	0,021	0,186
-737,298	-102,696	-0,264	-0,046
-736,283	-47,942	0,109	0,039
-735,269	-99,195	-0,267	0,049
-734,254	3,562	0,116	-0,062
-733,239	9,238	-0,441	-0,245
-732,225	31,239	0,174	0,110
-731,210	-35,138	-0,073	-0,029
-730,196	293,097	0,075	0,100
-729,181	85,254	-0,104	-0,084
-728,167	287,094	0,057	-0,076
-727,152	-200,000	0,004	-0,048
-726,137	18,086	-0,110	-0,065
-725,123	-200,000	-0,029	-0,157
-724,108	-21,243	-0,100	0,045
-723,094	800,000	-0,064	-0,135
-722,079	266,967	0,054	-0,070
-721,064	800,000	0,042	-0,122
-720,050	-19,470	-0,107	0,049
-719,035	474,775	-0,050	-0,084
-718,021	-119,876	-0,083	0,010
-717,006	218,392	0,024	-0,028
-715,991	569,712	0,051	-0,092
-714,977	-200,000	-0,020	-0,103
-713,962	800,000	0,040	-0,113
-712,948	-200,000	0,007	0,099
-711,933	272,597	-0,104	0,136
-710,918	81,284	-0,101	0,080
-709,904	-109,252	-0,078	0,012
-708,889	145,223	0,129	0,127
-707,875	800,000	-0,051	0,146
-706,860	800,000	0,042	-0,118
-705,845	211,243	-0,056	0,065
-704,831	205,498	0,089	-0,102
-703,816	-200,000	-0,035	0,136
-702,802	53,339	-0,042	-0,029
-701,787	-200,000	0,021	0,086
-700,772	-200,000	-0,022	0,094
-699,758	57,540	-0,037	0,027
-698,743	-101,884	0,084	0,015
-697,729	-26,792	-0,129	0,055
-696,714	80,518	0,207	0,164
-695,699	225,714	0,013	0,015
-694,685	-62,829	-0,004	0,001
-693,670	-128,370	0,084	0,009
-692,656	800,000	-0,007	0,016
-691,641	27,699	-0,040	0,025
-690,627	166,269	0,092	0,095
-689,612	30,515	0,138	-0,087
-688,597	406,550	-0,046	0,072
-687,583	-200,000	-0,005	0,072
-686,568	800,000	0,043	-0,101
-685,554	523,165	0,062	-0,108
-684,539	-5,661	0,052	-0,026
-683,524	800,000	-0,039	0,111
-682,510	800,000	-0,063	-0,163
-681,495	-200,000	0,029	-0,107
-680,481	-66,309	0,090	0,026
-679,466	309,743	-0,040	-0,055
-678,451	479,346	-0,054	-0,089
-677,437	514,912	0,049	-0,085
-676,422	-200,000	-0,002	0,078
-675,408	106,490	0,031	-0,027
-674,393	-111,237	-0,146	-0,022
-673,378	-26,015	-0,054	0,023
-672,364	694,411	-0,059	-0,114
-671,349	80,811	-0,033	0,026
-670,335	18,369	0,030	0,018
-669,320	-74,864	0,037	-0,010
-668,305	236,979	0,055	0,066
-667,291	509,332	0,079	0,136
-666,276	-157,675	-0,158	0,007
-665,262	800,000	-0,004	0,011
-664,247	-200,000	-0,018	-0,076
-663,232	-200,000	0,025	-0,084
-662,218	-200,000	-0,018	0,138
-661,203	-200,000	-0,007	0,078
-660,189	307,036	-0,049	0,067
-659,174	-132,528	-0,117	0,011
-658,159	99,686	-0,071	-0,061
-657,145	218,141	0,067	0,078
-656,130	800,000	-0,082	0,210
-655,116	15,089	0,095	0,054
-654,101	-200,000	0,010	0,114
-653,086	627,144	-0,007	-0,013
-652,072	-0,015	0,043	-0,022
-651,057	800,000	-0,054	0,113
-650,043	116,777	-0,113	-0,102
-649,028	618,692	-0,030	-0,056
-648,014	108,034	-0,081	0,071
-646,999	-28,725	0,128	0,054
-645,984	4,536	-0,016	0,008
-644,970	308,681	-0,076	0,105
-643,955	177,546	0,001	0,001
-642,941	218,340	-0,037	-0,043
-641,926	800,000	0,033	0,094
-640,911	800,000	-0,017	-0,050
-639,897	-4,111	-0,049	0,025
-638,882	-200,000	-0,030	0,142
-637,868	800,000	0,051	0,128
-636,853	161,096	0,017	-0,018
-635,838	35,094	-0,298	-0,191
-634,824	-148,024	0,070	-0,004
-633,809	-200,000	0,001	-0,058
-632,795	74,251	0,017	0,013
-631,780	-63,309	-0,089	0,027
-630,765	260,788	0,084	0,106
-629,751	800,000	0,044	-0,097
-628,736	-200,000	0,034	-0,129
-627,722	254,656	-0,054	-0,067
-626,707	-200,000	-0,013	0,046
-625,692	-115,817	0,197	0,027
-624,678	197,834	-0,047	0,052
-623,663	-144,903	-0,043	-0,003
-622,649	-200,000	-0,009	-0,143
-621,634	-31,645	-0,190	-0,078
-620,619	-31,335	-0,065	-0,027
-619,605	-200,000	-0,003	0,035
-618,590	14,015	0,070	-0,040
-617,576	-200,000	-0,003	0,114
-616,561	-200,000	-0,025	0,085
-615,546	228,620	-0,041	-0,049
-614,532	577,473	-0,038	-0,068
-613,517	175,008	-0,063	0,067
-612,503	77,537	0,050	-0,039
-611,488	207,791	0,084	-0,096
-610,474	220,255	-0,044	0,051
-609,459	-168,918	-0,105	-0,003
-608,444	-72,276	-0,117	0,031
-607,430	595,527	0,014	0,026
-606,415	143,314	0,034	-0,033
-605,401	-200,000	-0,005	0,031
-604,386	-183,965	-0,179	-0,002
-603,371	800,000	0,013	-0,028
-602,357	800,000	-0,038	0,083
-601,342	404,426	0,012	-0,019
-600,328	40,914	-0,048	0,032
-599,313	-200,000	0,004	0,043
-598,298	-200,000	-0,015	-0,161
-597,284	81,930	0,075	0,059
-596,269	136,637	-0,020	-0,019
-595,255	-86,423	0,169	0,038
-594,240	732,972	-0,011	-0,022
-593,225	-200,000	0,002	-0,258
-592,211	284,621	-0,067	-0,088
-591,196	-200,000	-0,005	-0,037
-590,182	-78,746	0,099	0,025
-589,167	800,000	-0,016	-0,044
-588,152	800,000	-0,039	-0,116
-587,138	-72,346	0,140	-0,038
-586,123	-2,443	0,082	0,042
-585,109	-102,274	-0,128	0,022
-584,094	-200,000	-0,011	-0,178
-583,079	-200,000	-0,005	-0,059
-582,065	-57,731	0,039	-0,012
-581,050	-134,155	-0,082	0,007
-580,036	-200,000	-0,032	0,107
-579,021	800,000	-0,026	0,062
-578,006	523,959	0,006	-0,011
-576,992	77,036	-0,131	0,101
-575,977	161,814	0,111	0,114
-574,963	-27,963	0,095	0,040
-573,948	1,456	-0,077	-0,041
-572,934	-17,879	0,104	-0,048
-571,919	-169,467	0,009	0,000
-570,904	800,000	-0,086	-0,218
-569,890	40,498	-0,011	0,007
-568,875	800,000	0,013	0,039
-567,861	800,000	0,030	-0,075
-566,846	-105,000	-0,084	0,014
-565,831	17,105	-0,080	0,046
-564,817	-200,000	0,004	0,018
-563,802	-200,000	-0,006	-0,108
-562,788	51,670	-0,100	-0,069
-561,773	-128,258	0,122	-0,013
-560,758	-200,000	-0,000	-0,050
-559,744	-70,629	-0,019	-0,005
-558,729	800,000	-0,045	0,126
-557,715	48,534	-0,043	0,030
-556,700	287,725	-0,020	0,027
-555,685	171,022	-0,028	-0,030
-554,671	800,000	0,041	-0,128
-553,656	800,000	0,059	0,121
-552,642	114,768	0,071	0,063
-551,627	-77,294	0,009	0,002
-550,612	-37,297	-0,026	0,010
-549,598	800,000	-0,018	0,054
-548,583	-118,280	-0,041	0,005
-547,569	296,707	0,084	0,112
-546,554	-59,275	0,064	-0,020
-545,539	-98,077	0,126	0,023
-544,525	-150,547	-0,006	0,000
-543,510	-33,640	-0,041	-0,016
-542,496	31,474	0,058	-0,036
-541,481	567,045	0,020	-0,035
-540,466	383,967	-0,034	-0,052
-539,452	-109,813	-0,160	-0,024
-538,437	621,662	-0,020	0,036
-537,423	800,000	-0,038	0,108
-536,408	560,037	0,040	-0,071
-535,393	781,478	-0,037	-0,074
-534,379	-200,000	0,005	0,041
-533,364	617,226	0,077	-0,141
-532,350	56,467	0,116	0,082
-531,335	800,000	-0,009	-0,025
-530,321	362,170	-0,041	0,060
-529,306	800,000	0,016	0,037
-528,291	-9,362	-0,137	-0,067
-527,277	-56,377	-0,044	0,014
-526,262	-200,000	0,002	-0,087
-525,248	-72,817	-0,066	0,018
-524,233	1,984	-0,079	0,042
-523,218	800,000	0,031	-0,070
-522,204	-93,679	0,090	0,018
-521,189	-92,965	0,042	-0,009
-520,175	-51,394	-0,103	-0,035
-519,160	-28,522	0,067	-0,028
-518,145	-57,817	0,032	-0,010
-517,131	403,968	0,068	0,105
-516,116	-87,346	0,067	-0,015
-515,102	180,602	-0,102	-0,109
-514,087	-200,000	0,057	-0,232
-513,072	126,679	-0,091	-0,084
-512,058	-200,000	0,001	-0,083
-511,043	-21,269	0,053	0,024
-510,029	610,476	-0,056	0,102
-509,014	79,880	0,107	-0,084
-507,999	-200,000	-0,020	-0,105
-506,985	762,484	-0,028	0,056
-505,970	7,954	0,108	-0,059
-504,956	161,146	0,056	0,057
-503,941	-200,000	0,005	0,033
-502,926	800,000	0,062	0,129
-501,912	252,694	-0,063	0,079
-500,897	-20,808	-0,062	0,028
-499,883	-35,841	0,151	0,059
-498,868	-200,000	-0,026	-0,157
-497,853	-100,771	-0,095	-0,017
-496,839	-200,000	0,036	-0,127
-495,824	88,421	0,060	-0,049
-494,810	-130,479	0,076	-0,007
-493,795	647,993	0,112	0,209
-492,781	-19,784	-0,116	-0,052
-491,766	-200,000	0,018	-0,072
-490,751	166,305	0,007	0,008
-489,737	262,598	0,076	-0,096
-488,722	800,000	0,020	0,062
-487,708	150,191	0,072	0,071
-486,693	-200,000	-0,043	0,000
-485,678	580,735	-0,017	-0,031
-484,664	-13,498	0,150	-0,070
-483,649	-200,000	-0,012	-0,039
-482,635	202,691	-0,067	-0,076
-481,620	8,355	0,096	0,052
-480,605	-119,578	-0,047	-0,006
-479,591	93,584	0,086	0,071
-478,576	171,678	-0,029	-0,031
-477,562	-200,000	0,020	-0,100
-476,547	136,490	0,056	0,053
-475,532	160,308	0,045	0,046
-474,518	-22,103	0,180	-0,079
-473,503	-200,000	-0,001	0,043
-472,489	19,310	0,084	0,049
-471,474	-112,100	0,013	0,002
-470,459	800,000	-0,029	-0,083
-469,445	206,741	-0,168	-0,191
-468,430	-200,000	0,001	-0,119
-467,416	133,871	0,064	0,061
-466,401	800,000	-0,034	-0,099
-465,386	-53,217	0,075	0,025
-464,372	-63,816	0,066	-0,020
-463,357	-200,000	-0,018	-0,100
-462,343	358,976	-0,079	-0,115
-461,328	-200,000	-0,054	-0,259
-460,313	121,717	0,077	0,070
-459,299	-42,632	0,063	-0,023
-458,284	-52,772	-0,065	-0,022
-457,270	585,587	-0,069	0,123
-456,255	161,481	-0,034	0,035
-455,241	761,048	-0,027	0,054
-454,226	211,655	-0,058	-0,067
-453,211	-57,428	0,047	0,015
-452,197	103,288	-0,087	0,075
-451,182	-200,000	0,035	0,132
-450,168	-28,436	0,029	0,012
-449,153	-200,000	0,016	-0,128
-448,138	53,659	0,046	0,032
-447,124	800,000	-0,019	0,046
-446,109	-200,000	0,002	0,042
-445,095	37,403	0,043	0,028
-444,080	338,198	0,028	0,039
-443,065	-57,408	0,133	0,042
-442,051	245,682	-0,049	-0,061
-441,036	141,177	-0,092	-0,088
-440,022	59,748	0,041	0,030
-439,007	-165,849	0,087	0,003
-437,992	653,521	0,026	-0,049
-436,978	-157,218	0,095	-0,004
-435,963	186,989	0,034	-0,037
-434,949	114,116	0,074	-0,065
-433,934	-200,000	0,024	-0,125
-432,919	320,048	-0,018	0,025
-431,905	-200,000	-0,032	-0,113
-430,890	681,278	0,033	-0,062
-429,876	564,493	-0,059	0,104
-428,861	48,637	0,031	-0,021
-427,846	-200,000	-0,001	0,028
-426,832	-64,180	-0,205	0,060
-425,817	-164,773	-0,064	-0,002
-424,803	800,000	-0,027	0,061
-423,788	198,792	0,037	0,041
-422,773	-200,000	-0,012	-0,052
-421,759	-62,703	0,115	0,034
-420,744	-200,000	0,013	0,071
-419,730	68,391	-0,048	0,036
-418,715	800,000	-0,008	-0,026
-417,701	800,000	-0,071	-0,161
-416,686	-39,314	0,021	-0,008
-415,671	-121,453	0,053	-0,006
-414,657	800,000	0,067	-0,157
-413,642	160,155	0,042	0,043
-412,628	-200,000	-0,010	-0,127
-411,613	-32,534	-0,106	-0,043
-410,598	197,617	-0,066	-0,074
-409,584	-49,260	0,113	0,039
-408,569	-200,000	0,038	0,132
-407,555	2,081	0,073	-0,038
-406,540	198,970	0,107	0,119
-405,525	677,722	-0,028	0,054
-404,511	-100,430	-0,065	0,012
-403,496	142,309	0,085	-0,082
-402,482	91,500	-0,048	0,039
-401,467	-133,855	0,081	-0,007
-400,452	-200,000	-0,025	0,174
-399,438	323,707	0,054	0,075
-398,423	386,537	0,038	0,057
-397,409	-108,696	-0,125	-0,019
-396,394	-200,000	0,011	-0,099
-395,379	312,270	-0,064	-0,088
-394,365	120,743	0,072	-0,065
-393,350	800,000	0,081	0,205
-392,336	800,000	0,042	0,107
-391,321	439,485	-0,054	0,086
-390,306	800,000	0,001	-0,002
-389,292	-200,000	0,019	-0,112
-388,277	-200,000	0,018	-0,082
-387,263	-6,822	0,086	-0,042
-386,248	-66,607	0,087	-0,025
-385,233	351,223	0,067	0,097
-384,219	-200,000	0,002	-0,074
-383,204	514,870	-0,065	-0,111
-382,190	800,000	-0,027	-0,074
-381,175	209,806	-0,042	-0,048
-380,160	-11,839	-0,087	-0,041
-379,146	475,037	-0,052	0,086
-378,131	214,977	0,045	0,051
-377,117	-200,000	-0,005	-0,030
-376,102	-165,249	-0,151	0,005
-375,088	800,000	-0,015	0,044
-374,073	426,102	-0,017	0,026
-373,058	-78,490	0,102	0,025
-372,044	800,000	0,044	0,122
-371,029	30,252	0,067	0,041
-370,015	206,677	-0,090	0,102
-369,000	800,000	0,005	-0,012
-367,985	1,691	-0,176	-0,091
-366,971	-48,785	0,036	0,012
-365,956	-112,403	0,046	0,007
-364,942	273,187	0,074	0,095
-363,927	-200,000	-0,001	0,002
-362,912	-200,000	-0,011	-0,053
-361,898	800,000	-0,038	-0,098
-360,883	-71,955	-0,168	-0,045
-359,869	-92,378	-0,121	-0,025
-358,854	378,681	0,050	-0,074
-357,839	-72,841	0,110	0,029
-356,825	63,290	0,016	0,011
-355,810	145,438	-0,095	0,092
-354,796	-42,718	0,099	0,036
-353,781	-64,786	0,068	0,020
-352,766	21,611	-0,112	-0,066
-351,752	-161,534	-0,059	0,002
-350,737	-106,783	0,072	-0,011
-349,723	13,926	-0,064	-0,036
-348,708	-200,000	-0,005	0,069
-347,693	-200,000	0,007	-0,107
-346,679	-68,572	-0,027	-0,008
-345,664	150,766	-0,106	0,104
-344,650	-7,176	0,045	0,022
-343,635	148,144	0,079	0,078
-342,620	-200,000	-0,010	0,060
-341,606	225,953	0,029	-0,034
-340,591	350,772	-0,007	-0,009
-339,577	373,881	-0,050	0,073
-338,562	-200,000	-0,020	-0,076
-337,548	800,000	0,014	-0,040
-336,533	800,000	0,029	0,075
-335,518	-46,319	0,063	0,022
-334,504	-200,000	0,022	-0,128
-333,489	555,462	-0,057	-0,100
-332,475	-16,347	-0,186	-0,085
-331,460	250,442	-0,108	-0,133
-330,445	-200,000	-0,004	0,102
-329,431	55,573	-0,073	0,051
-328,416	-200,000	0,013	-0,064
-327,402	-113,875	0,047	0,007
-326,387	800,000	-0,037	-0,074
-325,372	713,907	0,017	-0,033
-324,358	26,697	-0,129	-0,078
-323,343	59,146	0,068	0,048
-322,329	58,243	0,055	0,039
-321,314	-103,868	0,028	-0,005
-320,299	-35,820	-0,091	-0,036
-319,285	-39,137	0,063	0,024
-318,270	-200,000	0,028	-0,116
-317,256	-120,456	-0,029	-0,004
-316,241	-92,968	-0,191	-0,038
-315,226	226,918	0,057	0,067
-314,212	-40,917	-0,054	-0,020
-313,197	800,000	0,060	0,125
-312,183	48,720	-0,084	0,057
-311,168	405,710	0,058	0,089
-310,153	-200,000	-0,005	0,027
-309,139	558,646	-0,071	0,124
-308,124	-200,000	-0,014	0,122
-307,110	-182,247	0,125	-0,002
-306,095	-200,000	0,033	0,207
-305,080	-200,000	0,012	0,099
-304,066	317,019	0,039	0,054
-303,051	283,477	-0,062	0,081
-302,037	-129,527	0,075	-0,007
-301,022	91,856	-0,022	-0,018
-300,008	-83,440	0,098	0,023
-298,993	20,543	0,093	-0,054
-297,978	800,000	0,032	0,096
-296,964	-200,000	-0,014	-0,047
-295,949	22,262	0,068	0,040
-294,935	181,384	0,030	0,032
-293,920	-75,668	0,053	-0,013
-292,905	298,379	0,102	0,135
-291,891	-200,000	0,008	0,077
-290,876	-82,886	0,190	0,044
-289,862	-81,448	0,053	-0,013
-288,847	-200,000	-0,019	0,088
-287,832	242,962	0,118	-0,144
-286,818	123,669	0,001	0,001
-285,803	-200,000	-0,001	0,154
-284,789	-103,131	0,039	0,007
-283,774	-200,000	-0,050	0,193
-282,759	-200,000	0,022	-0,114
-281,745	-200,000	0,003	-0,211
-280,730	-71,833	0,036	-0,010
-279,716	-51,945	-0,014	0,005
-278,701	334,261	-0,051	-0,072
-277,686	-200,000	0,025	-0,109
-276,672	536,929	-0,032	-0,054
-275,657	800,000	-0,032	0,089
-274,643	-200,000	-0,032	0,190
-273,628	-83,471	0,023	-0,005
-272,613	81,071	-0,054	-0,042
-271,599	507,948	-0,044	0,075
-270,584	215,495	0,049	0,056
-269,570	-104,027	0,023	0,004
-268,555	-62,470	-0,097	0,029
-267,540	51,553	0,041	0,028
-266,526	-65,547	0,098	-0,028
-265,511	-200,000	0,012	0,090
-264,497	-9,203	0,072	0,035
-263,482	56,287	-0,054	-0,038
-262,467	164,220	0,037	-0,037
-261,453	-117,931	0,043	0,006
-260,438	-54,623	-0,069	-0,022
-259,424	-44,633	0,041	-0,015
-258,409	800,000	-0,019	-0,044
-257,395	267,801	0,042	-0,053
-256,380	46,574	0,163	0,109
-255,365	-200,000	-0,012	0,038
-254,351	263,159	-0,052	0,065
-253,336	155,799	-0,079	-0,078
-252,322	-26,745	0,156	-0,066
-251,307	-30,241	0,107	0,044
-250,292	800,000	-0,046	0,107
-249,278	-66,870	0,132	0,037
-248,263	-200,000	-0,001	-0,055
-247,249	201,260	-0,026	-0,028
-246,234	-74,902	-0,116	-0,030
-245,219	-200,000	-0,001	-0,082
-244,205	-64,140	-0,133	-0,039
-243,190	4,017	0,088	0,046
-242,176	57,175	-0,139	0,098
-241,161	-126,033	0,114	0,012
-240,146	14,012	-0,114	-0,064
-239,132	42,943	-0,053	0,035
-238,117	800,000	-0,067	-0,204
-237,103	27,304	0,075	-0,045
-236,088	-200,000	-0,026	0,098
-235,073	152,381	0,117	0,116
-234,059	288,434	-0,140	0,183
-233,044	30,909	0,123	0,076
-232,030	-200,000	0,000	0,109
-231,015	-115,762	0,015	0,002
-230,000	800,000	-0,031	0,080
-228,986	163,623	0,037	0,037
-227,971	800,000	0,023	-0,060
-226,957	-200,000	0,000	0,021
-225,942	53,528	0,119	-0,082
-224,927	-59,291	-0,066	0,020
-223,913	82,449	-0,072	-0,056
-222,898	-161,124	0,050	0,002
-221,884	250,234	-0,053	0,065
-220,869	257,873	-0,055	-0,068
-219,855	542,290	-0,034	0,059
-218,840	-16,369	0,105	0,048
-217,825	-200,000	-0,005	0,072
-216,811	-177,661	-0,216	0,004
-215,796	261,945	0,028	-0,034
-214,782	-200,000	-0,003	-0,018
-213,767	73,246	0,118	-0,089
-212,752	63,600	-0,032	-0,023
-211,738	800,000	0,044	0,109
-210,723	-42,571	-0,069	-0,025
-209,709	55,270	0,071	-0,049
-208,694	-114,318	-0,039	0,005
-207,679	-8,183	0,021	-0,010
-206,665	125,373	-0,109	0,099
-205,650	-84,745	-0,077	0,017
-204,636	-11,156	0,060	0,028
-203,621	-95,797	-0,148	0,028
-202,606	-12,474	0,049	0,023
-201,592	-0,988	-0,017	0,009
-200,577	124,801	-0,078	-0,071
-199,563	-200,000	-0,015	0,234
-198,548	284,399	-0,074	0,096
-197,533	-143,409	-0,078	-0,005
-196,519	-200,000	0,015	0,062
-195,504	800,000	-0,039	-0,093
-194,490	-200,000	-0,035	-0,148
-193,475	-45,889	-0,088	-0,031
-192,460	149,313	0,056	0,055
-191,446	-166,134	0,073	-0,002
-190,431	-70,877	-0,049	-0,013
-189,417	800,000	-0,034	-0,088
-188,402	-200,000	-0,007	0,078
-187,387	-96,050	0,055	0,010
-186,373	-200,000	0,015	-0,092
-185,358	-20,784	0,126	-0,055
-184,344	520,285	0,038	0,064
-183,329	-200,000	0,007	0,061
-182,315	587,966	0,019	-0,034
-181,300	225,673	0,068	-0,080
-180,285	-1,135	-0,113	0,057
-179,271	65,364	-0,020	0,015
-178,256	96,794	0,045	0,037
-177,242	-200,000	-0,003	0,082
-176,227	-147,835	0,086	-0,005
-175,212	-200,000	-0,014	0,050
-174,198	245,416	-0,062	-0,075
-173,183	210,110	0,099	-0,112
-172,169	-49,365	0,096	0,033
-171,154	-116,685	0,039	-0,005
-170,139	-200,000	-0,022	-0,098
-169,125	-96,916	0,243	-0,045
-168,110	24,423	-0,150	0,089
-167,096	-77,548	-0,075	0,019
-166,081	-2,793	-0,091	0,045
-165,066	381,223	0,056	-0,083
-164,052	140,664	-0,099	-0,094
-163,037	18,186	-0,077	0,044
-162,023	800,000	-0,050	0,154
-161,008	2,153	-0,049	0,026
-159,993	-151,673	-0,133	0,007
-158,979	130,831	0,046	-0,042
-157,964	-13,647	-0,064	0,030
-156,950	-97,476	-0,132	-0,024
-155,935	-71,464	-0,098	0,026
-154,920	-200,000	-0,006	-0,070
-153,906	800,000	0,047	0,131
-152,891	-200,000	0,002	0,011
-151,877	-109,322	-0,112	-0,017
-150,862	-137,080	-0,174	0,014
-149,847	-92,120	0,104	0,021
-148,833	-200,000	0,008	0,089
-147,818	664,904	0,099	0,185
-146,804	-40,118	0,122	-0,046
-145,789	51,120	-0,137	0,094
-144,775	350,239	-0,018	0,026
-143,760	104,092	0,051	0,043
-142,745	94,450	0,042	0,034
-141,731	800,000	-0,032	-0,069
-140,716	108,796	0,106	-0,091
-139,702	431,164	0,054	0,084
-138,687	-33,895	-0,114	-0,045
-137,672	161,212	-0,059	0,060
-136,658	172,023	0,074	-0,077
-135,643	800,000	-0,036	-0,075
-134,629	-200,000	-0,003	-0,014
-133,614	-198,291	0,111	0,000
-132,599	281,049	0,049	-0,064
-131,585	6,179	0,060	0,032
-130,570	-22,179	-0,054	-0,023
-129,556	82,321	0,069	0,054
-128,541	-114,082	-0,092	-0,013
-127,526	615,942	0,063	-0,113
-126,512	-62,868	0,030	-0,009
-125,497	800,000	0,078	0,167
-124,483	-105,650	-0,106	0,017
-123,468	31,255	0,119	0,073
-122,453	78,498	-0,075	-0,057
-121,439	-200,000	0,022	0,079
-120,424	-200,000	0,055	0,204
-119,410	-200,000	0,015	0,084
-118,395	317,720	0,033	0,045
-117,380	-71,705	0,060	0,016
-116,366	-200,000	0,002	-0,007
-115,351	71,594	0,040	-0,030
-114,337	800,000	-0,038	-0,095
-113,322	541,755	-0,043	0,073
-112,307	-200,000	-0,028	0,099
-111,293	-200,000	-0,021	0,090
-110,278	-200,000	-0,006	0,070
-109,264	-49,812	0,085	0,029
-108,249	44,111	-0,116	0,076
-107,234	-24,658	-0,020	-0,008
-106,220	-200,000	-0,022	-0,103
-105,205	302,079	0,105	0,140
-104,191	-34,261	0,079	0,031
-103,176	800,000	0,024	-0,064
-102,162	-57,348	-0,076	0,024
-101,147	800,000	0,031	-0,072
-100,132	800,000	-0,012	-0,026
-99,118	72,829	-0,037	-0,027
-98,103	134,247	-0,039	0,036
-97,089	-117,582	0,024	0,003
-96,074	-126,652	-0,096	-0,010
-95,059	-59,041	0,090	-0,028
-94,045	57,836	-0,109	0,077
-93,030	-61,926	0,130	-0,039
-92,016	-200,000	0,040	-0,128
-91,001	-200,000	-0,027	0,100
-89,986	89,793	0,014	-0,011
-88,972	800,000	0,057	0,146
-87,957	-143,851	-0,056	0,004
-86,943	490,784	-0,089	0,146
-85,928	-97,691	-0,107	0,020
-84,913	347,204	0,089	0,126
-83,899	343,693	0,040	0,056
-82,884	-200,000	-0,021	0,151
-81,870	596,653	0,029	-0,052
-80,855	-25,546	0,144	0,061
-79,840	96,760	-0,116	0,095
-78,826	346,350	-0,049	-0,069
-77,811	287,088	-0,058	-0,075
-76,797	800,000	-0,025	0,069
-75,782	-176,112	-0,052	0,001
-74,767	-90,065	-0,088	-0,018
-73,753	63,049	0,084	0,060
-72,738	551,791	-0,077	-0,133
-71,724	50,397	0,057	-0,039
-70,709	348,647	-0,072	-0,102
-69,694	-129,069	-0,033	0,003
-68,680	-71,370	-0,062	0,017
-67,665	-151,395	-0,206	0,011
-66,651	-200,000	-0,019	0,107
-65,636	251,377	0,036	0,045
-64,622	-121,953	-0,066	-0,008
-63,607	25,205	-0,066	-0,039
-62,592	103,428	-0,036	0,030
-61,578	-60,350	0,095	0,029
-60,563	599,210	0,030	0,054
-59,549	-27,830	-0,106	0,044
-58,534	27,676	-2,117	-1,274
-57,519	-200,000	-0,150	-0,703
-56,505	-200,000	-1,315	-5,007
-55,490	77,674	0,818	0,623
-54,476	800,000	5,286	12,116
-53,461	-200,000	18,153	293,599
-52,446	800,000	729,800	2226,988
-51,432	527,180	1643,106	2784,839
-50,417	107,545	1632,192	1390,904
-49,403	71,739	1283,968	954,863
-48,388	30,462	1024,816	625,971
-47,373	19,829	986,753	567,787
-46,359	17,832	974,530	554,214
-45,344	14,709	970,423	541,678
-44,330	14,949	968,831	541,551
-43,315	14,398	967,004	538,717
-42,300	14,358	965,898	537,950
-41,286	14,346	965,106	537,448
-40,271	14,373	964,097	536,953
-39,257	14,358	963,293	536,435
-38,242	14,398	962,371	536,028
-37,227	14,433	961,501	535,637
-36,213	14,400	960,712	535,068
-35,198	14,348	959,818	534,381
-34,184	14,437	959,046	534,219
-33,169	14,396	958,065	533,518
-32,154	14,402	957,114	532,987
-31,140	14,350	956,188	532,285
-30,125	14,390	955,611	532,071
-29,111	14,396	954,625	531,517
-28,096	14,379	954,127	531,165
-27,082	14,451	953,276	530,900
-26,067	14,426	952,625	530,437
-25,052	14,372	951,888	529,833
-24,038	14,402	951,169	529,508
-23,023	14,320	950,726	528,977
-22,009	14,426	949,927	528,852
-20,994	14,400	949,310	528,403
-19,979	14,459	948,582	528,165
-18,965	14,429	947,733	527,577
-17,950	14,440	947,200	527,292
-16,936	14,322	946,739	526,642
-15,921	14,323	946,089	526,263
-14,906	14,323	945,108	525,696
-13,892	14,349	944,611	525,480
-12,877	14,316	944,053	525,045
-11,863	14,285	943,552	524,646
-10,848	14,341	942,899	524,441
-9,833	14,405	942,445	524,371
-8,819	14,413	941,679	523,949
-7,804	14,318	941,205	523,364
-6,790	14,316	940,577	522,986
-5,775	14,389	940,010	522,881
-4,760	14,343	939,348	522,348
-3,746	14,326	938,783	521,959
-2,731	14,181	938,085	521,092
-1,717	14,145	937,464	520,614
-0,702	14,126	936,829	520,181
0,313	13,925	936,228	519,999
1,327	17,450	934,055	529,805
2,342	26,670	786,585	470,317
3,356	23,014	442,151	258,972
4,371	-6,770	294,445	142,824
5,386	-10,651	276,234	130,317
6,400	-12,056	270,564	126,332
7,415	-12,125	268,210	125,158
8,429	-12,156	266,858	124,487
9,444	-12,298	265,923	123,911
10,459	-12,239	265,357	123,690
11,473	-12,228	264,593	123,333
12,488	-12,471	264,132	122,887
13,502	-12,608	263,595	122,503
14,517	-12,352	263,122	122,503
15,531	-12,517	262,802	122,194
16,546	-12,461	262,395	122,045
17,561	-12,582	262,158	121,816
18,575	-12,430	261,723	121,739
19,590	-12,505	261,459	121,538
20,604	-12,464	261,016	121,357
21,619	-12,279	260,599	121,317
22,634	-12,406	260,419	121,109
23,648	-12,690	260,210	120,749
24,663	-12,561	259,748	120,639
25,677	-12,442	259,557	120,645
26,692	-12,572	259,318	120,408
27,707	-12,675	258,903	120,113
28,721	-12,480	258,705	120,183
29,736	-12,623	258,464	119,935
30,750	-12,549	258,189	119,861
31,765	-12,652	258,080	119,710
32,780	-12,596	257,782	119,609
33,794	-12,643	257,593	119,470
34,809	-12,452	257,230	119,459
35,823	-12,625	257,035	119,206
36,838	-12,711	256,735	118,981
37,853	-12,477	256,508	119,069
38,867	-12,460	256,174	118,918
39,882	-12,753	256,068	118,603
40,896	-12,585	255,704	118,570
41,911	-12,602	255,533	118,465
42,926	-12,558	255,418	118,440
43,940	-12,739	255,113	118,131
44,955	-12,674	254,745	118,006
45,969	-12,667	254,785	118,020
46,984	-12,664	254,299	117,787
47,999	-12,873	253,937	117,428
49,013	-13,086	254,031	117,276
50,028	-13,120	253,581	117,029
51,042	-13,263	253,321	116,775
52,057	-13,200	253,138	116,734
53,071	-13,125	252,957	116,705
54,086	-13,101	252,702	116,598
55,101	-13,123	252,716	116,576
56,115	-12,825	252,486	116,715
57,130	-12,428	252,227	116,926
58,144	-12,460	252,071	116,816
59,159	-12,158	251,911	116,990
60,174	-12,364	251,612	116,664
61,188	-12,471	251,468	116,495
62,203	-12,353	251,257	116,488
63,217	-12,677	251,253	116,199
64,232	-12,480	250,967	116,225
65,247	-12,334	250,554	116,148
66,261	-12,587	250,435	115,866
67,276	-12,618	250,089	115,670
68,290	-12,670	249,798	115,481
69,305	-12,762	249,515	115,262
70,320	-12,798	249,583	115,252
71,334	-12,136	249,119	115,588
72,349	-12,479	249,107	115,282
73,363	-12,463	248,921	115,199
74,378	-12,578	248,817	115,044
75,393	-12,583	248,648	114,951
76,407	-12,453	248,216	114,851
77,422	-12,495	248,044	114,725
78,436	-12,490	247,987	114,693
79,451	-12,431	247,620	114,562
80,466	-12,497	247,434	114,410
81,480	-12,690	247,250	114,153
82,495	-12,775	247,231	114,063
83,509	-12,518	246,919	114,124
84,524	-12,661	246,566	113,831
85,539	-12,605	246,419	113,801
86,553	-12,818	246,194	113,508
87,568	-12,824	246,132	113,464
88,582	-12,823	245,975	113,383
89,597	-12,609	245,704	113,426
90,611	-12,698	245,676	113,329
91,626	-12,547	245,441	113,336
92,641	-12,488	245,040	113,190
93,655	-12,502	245,058	113,177
94,670	-12,750	244,752	112,820
95,684	-12,544	244,596	112,908
96,699	-12,835	244,529	112,626
97,714	-12,459	244,180	112,767
98,728	-12,577	243,927	112,542
99,743	-12,705	243,654	112,300
100,757	-12,701	243,504	112,224
101,772	-12,655	243,327	112,171
102,787	-12,912	243,303	111,937
103,801	-12,572	242,930	112,036
104,816	-12,503	242,822	112,033
105,830	-12,434	242,776	112,059
106,845	-12,435	242,640	111,985
107,860	-12,481	242,345	111,801
108,874	-12,485	242,052	111,653
109,889	-12,630	241,908	111,457
110,903	-12,703	241,709	111,296
111,918	-12,609	241,496	111,265
112,933	-12,493	241,358	111,287
113,947	-12,440	241,243	111,266
114,962	-12,549	241,115	111,109
115,976	-12,448	240,934	111,098
116,991	-12,501	240,864	111,012
118,006	-12,674	240,549	110,716
119,020	-12,624	240,499	110,724
120,035	-12,510	240,332	110,730
121,049	-12,571	240,082	110,555
122,064	-12,570	240,088	110,550
123,079	-12,432	239,700	110,473
124,093	-12,722	239,511	110,140
125,108	-12,570	239,252	110,135
126,122	-12,917	239,064	109,758
127,137	-12,833	238,788	109,689
128,151	-12,827	238,740	109,662
129,166	-12,701	238,543	109,663
130,181	-12,897	238,402	109,431
131,195	-12,864	238,134	109,325
132,210	-12,630	237,969	109,427
133,224	-12,546	237,884	109,447
134,239	-12,444	237,600	109,387
135,254	-12,432	237,385	109,289
136,268	-12,629	237,235	109,052
137,283	-12,844	236,914	108,722
138,297	-13,053	236,768	108,479
139,312	-13,119	236,743	108,405
140,327	-12,706	236,501	108,614
141,341	-12,247	236,408	108,929
142,356	-12,299	236,379	108,864
143,370	-12,232	236,118	108,787
144,385	-12,010	235,906	108,857
145,400	-12,214	235,799	108,635
146,414	-12,156	235,499	108,534
147,429	-12,422	235,493	108,310
148,443	-12,489	235,272	108,145
149,458	-12,505	235,156	108,070
150,473	-12,363	235,022	108,111
151,487	-12,485	234,914	107,955
152,502	-12,234	234,539	107,972
153,516	-12,239	234,537	107,957
154,531	-12,451	234,242	107,644
155,546	-12,334	233,955	107,595
156,560	-12,458	233,939	107,480
157,575	-12,545	233,585	107,239
158,589	-12,514	233,644	107,281
159,604	-12,360	233,434	107,296
160,619	-12,217	233,374	107,371
161,633	-12,097	233,102	107,331
162,648	-12,148	232,995	107,233
163,662	-12,170	232,804	107,118
164,677	-12,275	232,554	106,911
165,692	-12,360	232,387	106,758
166,706	-12,349	232,364	106,747
167,721	-12,352	232,268	106,690
168,735	-12,068	231,968	106,765
169,750	-12,388	231,922	106,484
170,764	-12,361	231,679	106,385
171,779	-12,444	231,713	106,326
172,794	-12,213	231,487	106,393
173,808	-12,534	231,322	106,057
174,823	-12,761	230,880	105,669
175,837	-12,648	230,666	105,649
176,852	-12,380	230,914	105,962
177,867	-12,172	230,537	105,940
178,881	-12,400	230,607	105,786
179,896	-12,083	230,258	105,863
180,910	-12,130	230,137	105,762
181,925	-12,228	229,931	105,581
182,940	-12,161	229,832	105,578
183,954	-12,040	229,526	105,521
184,969	-12,178	229,526	105,406
185,983	-12,104	229,411	105,401
186,998	-11,949	229,187	105,407
188,013	-12,089	229,117	105,258
189,027	-12,062	228,884	105,162
190,042	-12,174	228,684	104,976
191,056	-12,010	228,599	105,053
192,071	-12,256	228,467	104,794
193,086	-12,120	228,302	104,813
194,100	-12,120	228,123	104,722
195,115	-12,277	227,713	104,404
196,129	-12,360	227,912	104,422
197,144	-7,441	229,564	108,964
198,159	-2,317	230,962	113,583
199,173	1,517	231,979	117,047
200,188	2,072	232,007	117,480
201,202	1,779	231,808	117,142
202,217	1,916	231,571	117,117
203,232	1,892	231,575	117,091
204,246	1,923	231,313	116,971
205,261	2,240	231,209	117,153
206,275	2,322	231,259	117,231
207,290	2,257	231,058	117,069
208,304	2,331	230,865	117,018
209,319	2,390	230,554	116,894
210,334	2,182	230,438	116,666
211,348	1,943	230,314	116,409
212,363	1,735	230,083	116,123
213,377	1,546	229,796	115,823
214,392	1,530	229,704	115,754
215,407	1,822	229,452	115,839
216,421	2,011	229,362	115,928
217,436	1,817	229,181	115,678
218,450	1,488	229,006	115,328
219,465	1,668	228,799	115,352
220,480	1,489	228,718	115,163
221,494	1,335	228,769	115,062
222,509	2,033	228,588	115,492
223,523	1,941	228,428	115,331
224,538	1,758	228,245	115,089
225,553	1,633	228,063	114,892
226,567	1,840	227,951	114,983
227,582	2,155	227,782	115,126
228,596	2,381	227,691	115,241
229,611	1,845	227,639	114,798
230,626	1,529	227,228	114,341
231,640	1,652	227,052	114,336
232,655	1,947	227,074	114,559
233,669	1,970	227,057	114,558
234,684	2,326	226,804	114,689
235,699	2,141	226,648	114,461
236,713	1,810	226,523	114,138
237,728	1,571	226,233	113,802
238,742	1,749	226,044	113,830
239,757	1,955	225,863	113,883
240,772	1,938	225,770	113,814
241,786	1,707	225,620	113,555
242,801	1,961	225,644	113,747
243,815	2,445	225,662	114,109
244,830	2,118	225,392	113,718
245,844	1,866	225,064	113,353
246,859	1,442	225,024	113,006
247,874	2,064	224,856	113,376
248,888	2,120	224,761	113,360
249,903	2,005	224,647	113,207
250,917	1,838	224,394	112,945
251,932	1,671	224,356	112,791
252,947	1,656	224,009	112,595
253,961	1,502	223,943	112,438
254,976	1,699	223,751	112,478
255,990	2,009	223,731	112,688
257,005	2,164	223,622	112,738
258,020	1,959	223,411	112,469
259,034	2,217	223,194	112,541
260,049	2,065	223,062	112,352
261,063	1,808	223,106	112,174
262,078	2,254	222,889	112,385
263,093	2,135	222,738	112,211
264,107	2,271	222,516	112,189
265,122	1,953	222,410	111,891
266,136	2,549	222,282	112,256
267,151	2,170	222,114	111,882
268,166	1,978	221,764	111,554
269,180	1,466	221,761	111,167
270,195	1,723	221,526	111,228
271,209	1,730	221,498	111,209
272,224	1,909	221,295	111,229
273,239	1,795	221,133	111,053
274,253	1,783	221,068	111,002
275,268	1,536	220,837	110,695
276,282	1,495	220,635	110,554
277,297	1,346	220,626	110,431
278,312	1,689	220,431	110,574
279,326	1,602	220,508	110,539
280,341	1,963	220,151	110,614
281,355	2,026	220,152	110,650
282,370	1,894	219,935	110,435
283,384	1,582	219,793	110,127
284,399	1,437	219,560	109,895
285,414	1,345	219,462	109,769
286,428	1,863	219,434	110,122
287,443	2,240	219,401	110,369
288,457	2,134	219,048	110,106
289,472	1,847	218,835	109,780
290,487	1,284	218,691	109,291
291,501	1,515	218,429	109,317
292,516	1,307	218,365	109,124
293,530	1,357	218,239	109,088
294,545	1,450	218,180	109,117
295,560	1,736	218,170	109,308
296,574	1,923	218,004	109,349
297,589	1,724	217,827	109,108
298,603	1,872	217,492	109,037
299,618	1,559	217,584	108,848
300,633	1,927	217,508	109,065
301,647	1,909	217,516	109,046
302,662	1,986	217,290	108,979
303,676	2,063	217,170	108,964
304,691	2,272	216,780	108,909
305,706	2,192	216,669	108,785
306,720	1,981	216,704	108,643
307,735	1,745	216,460	108,341
308,749	1,642	216,358	108,207
309,764	2,035	216,226	108,413
310,779	2,119	216,066	108,383
311,793	2,031	215,893	108,223
312,808	2,020	215,713	108,115
313,822	1,960	215,533	107,973
314,837	1,859	215,528	107,889
315,852	1,723	215,298	107,667
316,866	1,855	215,268	107,737
317,881	2,140	215,125	107,857
318,895	2,120	214,889	107,716
319,910	1,783	214,605	107,325
320,925	1,505	214,493	107,062
321,939	1,312	214,394	106,867
322,954	1,549	214,260	106,959
323,968	2,042	214,334	107,335
324,983	1,683	214,367	107,088
325,997	2,286	214,126	107,383
327,012	2,037	213,878	107,074
328,027	1,876	213,753	106,888
329,041	2,213	213,594	107,037
330,056	2,197	213,505	106,971
331,070	2,002	213,270	106,707
332,085	1,900	213,150	106,566
333,100	2,139	213,065	106,682
334,114	2,091	212,999	106,605
335,129	1,969	212,709	106,365
336,143	1,904	212,420	106,166
337,158	1,671	212,618	106,091
338,173	1,776	212,427	106,060
339,187	1,883	212,158	105,992
340,202	1,683	211,991	105,759
341,216	1,738	211,796	105,691
342,231	1,517	211,659	105,459
343,246	1,645	211,481	105,449
344,260	1,671	211,498	105,467
345,275	2,243	211,605	105,909
346,289	2,463	211,477	105,989
347,304	2,201	211,192	105,655
348,319	2,014	210,973	105,406
349,333	2,011	210,907	105,362
350,348	1,932	210,781	105,234
351,362	2,213	210,744	105,401
352,377	2,338	210,479	105,346
353,392	2,148	210,431	105,181
354,406	2,248	210,241	105,146
355,421	196,164	1315,543	1391,261
356,435	156,803	1450,173	1391,217
