DTS Sentinel unit serial number:	SN410029Multiplexer serial number:	ORYXHardware model number:	OX2-SRSoftware version number:	ORYX F/W v4,00 Oryx Data Collector v3.7.2.0data status	okinstallation	B6 Nyhavnadifferential loss correction	single-endedforward channel	channel 2reverse channel	N/Adate	2023/12/09time	16:55:08forward acquisition time	300,00reverse acquisition time	0,00gamma	499,1914k internal	0,3131k external	0,3131temperature offset calibration	1,0000default loss term (dB/km)	0,3820temperature slope calibration	1,0000multiplexer offset coefficient	1,0000multiplexer slope coefficient	1,0000fibre end	0,00T internal ref (°C)	20,94T ext. ref 1 (°C)	4,69T ext. ref 2 (°C)	4,69length (m)	temperature (°C)	Stokes	anti-Stokes-744,400	-107,850	0,013	-0,002
-743,385	-137,435	-0,276	0,023
-742,371	11,336	0,131	0,074
-741,356	171,822	-0,116	0,124
-740,342	-42,901	0,063	0,024
-739,327	-52,654	-0,240	0,082
-738,312	-13,938	0,129	-0,062
-737,298	-179,704	-0,261	0,004
-736,283	-200,000	-0,002	0,099
-735,269	-102,945	-0,180	0,032
-734,254	97,476	0,129	-0,110
-733,239	68,957	-0,369	-0,281
-732,225	165,332	0,022	0,023
-731,210	800,000	0,033	0,088
-730,196	-200,000	-0,032	-0,142
-729,181	174,281	-0,068	-0,073
-728,167	107,259	-0,082	0,072
-727,152	110,493	0,091	-0,081
-726,137	-68,618	-0,060	0,017
-725,123	-200,000	0,001	-0,013
-724,108	-200,000	0,021	-0,091
-723,094	-40,246	-0,149	-0,057
-722,079	287,494	0,076	-0,103
-721,064	-75,339	0,092	-0,024
-720,050	-71,756	-0,037	0,010
-719,035	89,983	0,054	-0,045
-718,021	152,836	0,050	-0,051
-717,006	26,504	-0,135	-0,083
-715,991	800,000	-0,015	-0,032
-714,977	800,000	-0,072	-0,206
-713,962	-200,000	0,012	-0,067
-712,948	800,000	-0,034	0,094
-711,933	-118,246	-0,135	-0,018
-710,918	800,000	-0,081	-0,192
-709,904	77,114	-0,044	-0,035
-708,889	-88,909	0,100	-0,022
-707,875	148,992	0,123	-0,123
-706,860	71,003	-0,080	-0,061
-705,845	419,499	-0,091	0,146
-704,831	13,211	0,023	-0,013
-703,816	-200,000	-0,009	0,066
-702,802	-24,975	-0,037	-0,016
-701,787	423,086	-0,084	-0,135
-700,772	-10,799	0,035	-0,017
-699,758	-200,000	0,002	-0,030
-698,743	800,000	-0,013	0,032
-697,729	-200,000	-0,042	0,204
-696,714	26,989	0,126	0,078
-695,699	611,631	0,032	0,059
-694,685	800,000	0,018	0,041
-693,670	130,328	-0,115	-0,109
-692,656	-27,958	0,094	0,040
-691,641	800,000	-0,048	-0,104
-690,627	-124,217	0,061	-0,007
-689,612	800,000	-0,019	-0,044
-688,597	-83,611	0,108	-0,025
-687,583	134,503	-0,022	-0,021
-686,568	-160,667	0,101	-0,004
-685,554	800,000	0,036	-0,075
-684,539	-171,278	-0,173	-0,004
-683,524	162,233	-0,105	-0,110
-682,510	-79,239	0,126	-0,032
-681,495	-74,053	-0,047	0,013
-680,481	150,836	-0,055	-0,056
-679,466	61,449	-0,184	0,135
-678,451	-154,475	0,091	-0,004
-677,437	-58,008	-0,106	0,034
-676,422	232,636	0,061	0,074
-675,408	-191,031	0,086	0,001
-674,393	220,165	0,108	0,128
-673,378	-29,635	-0,073	-0,031
-672,364	-200,000	-0,017	-0,079
-671,349	419,218	-0,083	-0,133
-670,335	800,000	-0,018	-0,043
-669,320	-200,000	0,015	-0,096
-668,305	800,000	-0,055	-0,160
-667,291	599,931	0,061	-0,113
-666,276	104,200	-0,106	-0,092
-665,262	102,895	-0,127	-0,110
-664,247	-78,858	0,048	0,012
-663,232	-69,074	0,063	0,018
-662,218	-200,000	-0,001	-0,102
-661,203	-69,089	0,122	-0,035
-660,189	-200,000	0,003	-0,043
-659,174	-200,000	-0,004	-0,021
-658,159	93,784	0,108	-0,091
-657,145	-87,048	-0,069	-0,016
-656,130	-62,670	-0,037	0,011
-655,116	-81,680	0,116	-0,028
-654,101	12,435	-0,026	0,015
-653,086	800,000	-0,023	0,055
-652,072	-200,000	-0,003	-0,135
-651,057	771,338	-0,069	-0,141
-650,043	-200,000	0,008	-0,035
-649,028	-42,932	0,139	-0,052
-648,014	628,160	-0,033	0,063
-646,999	-31,764	-0,103	0,042
-645,984	11,442	-0,062	0,035
-644,970	800,000	0,038	0,081
-643,955	187,347	-0,127	-0,140
-642,941	24,829	-0,134	-0,082
-641,926	149,456	0,045	0,045
-640,911	55,623	-0,037	0,027
-639,897	800,000	0,022	0,050
-638,882	653,073	-0,028	-0,053
-637,868	-200,000	-0,024	-0,210
-636,853	-8,939	-0,097	-0,048
-635,838	-200,000	0,007	-0,076
-634,824	573,557	-0,003	-0,006
-633,809	-200,000	0,008	-0,077
-632,795	225,211	-0,064	-0,077
-631,780	540,135	0,044	0,079
-630,765	-92,780	-0,055	-0,011
-629,751	201,927	-0,080	0,092
-628,736	-118,554	-0,088	0,011
-627,722	-200,000	-0,012	0,041
-626,707	-69,614	0,031	0,009
-625,692	79,841	0,055	0,044
-624,678	-200,000	0,000	-0,031
-623,663	-114,197	-0,075	0,011
-622,649	-43,198	-0,043	0,016
-621,634	-200,000	0,000	-0,014
-620,619	-46,492	0,083	-0,030
-619,605	456,895	-0,023	0,037
-618,590	800,000	-0,082	0,180
-617,576	320,815	0,086	0,122
-616,561	-60,098	-0,021	-0,007
-615,546	-81,611	0,055	-0,013
-614,532	7,175	-0,015	-0,008
-613,517	-200,000	-0,006	-0,127
-612,503	-200,000	-0,007	0,079
-611,488	800,000	0,052	-0,144
-610,474	-200,000	-0,012	0,055
-609,459	43,072	-0,112	0,076
-608,444	11,550	-0,154	0,087
-607,430	496,817	-0,055	-0,094
-606,415	-74,354	-0,085	-0,023
-605,401	-200,000	0,015	0,108
-604,386	19,799	0,013	-0,008
-603,371	800,000	-0,076	0,161
-602,357	145,405	0,029	-0,029
-601,342	22,996	-0,012	0,007
-600,328	-81,788	-0,105	-0,025
-599,313	-50,566	-0,065	-0,022
-598,298	32,698	-0,026	-0,017
-597,284	13,554	0,056	-0,032
-596,269	402,854	-0,043	0,067
-595,255	24,529	-0,051	0,031
-594,240	800,000	0,039	-0,100
-593,225	110,172	-0,069	-0,062
-592,211	-100,923	-0,024	0,004
-591,196	308,132	0,059	-0,081
-590,182	-15,521	-0,111	-0,052
-589,167	22,496	0,081	-0,049
-588,152	-30,894	0,092	0,038
-587,138	800,000	0,061	0,134
-586,123	-200,000	-0,007	-0,031
-585,109	-200,000	0,014	0,072
-584,094	381,360	-0,117	-0,178
-583,079	138,059	-0,043	-0,042
-582,065	327,735	-0,059	0,083
-581,050	-8,764	0,031	0,015
-580,036	-59,380	0,114	0,036
-579,021	-30,285	-0,069	-0,029
-578,006	212,025	0,055	-0,064
-576,992	259,514	0,134	-0,171
-575,977	183,378	0,045	0,049
-574,963	-81,735	-0,028	0,007
-573,948	-81,016	-0,046	-0,011
-572,934	-200,000	0,017	0,125
-571,919	-200,000	-0,004	-0,014
-570,904	800,000	-0,027	-0,074
-569,890	150,118	0,061	-0,062
-568,875	800,000	0,073	0,153
-567,861	-132,561	-0,171	-0,016
-566,846	64,862	-0,079	0,059
-565,831	-200,000	0,007	-0,079
-564,817	-200,000	-0,002	-0,114
-563,802	-122,790	0,029	0,003
-562,788	800,000	-0,009	-0,019
-561,773	-166,519	0,054	-0,002
-560,758	91,212	-0,026	0,022
-559,744	75,702	0,025	-0,020
-558,729	-65,516	0,065	0,019
-557,715	245,173	0,035	-0,044
-556,700	-50,534	-0,071	0,025
-555,685	-200,000	-0,028	0,138
-554,671	-200,000	0,015	-0,119
-553,656	343,662	-0,012	0,018
-552,642	-123,856	0,020	-0,002
-551,627	-175,867	-0,034	-0,001
-550,612	-200,000	0,033	-0,196
-549,598	800,000	-0,025	-0,055
-548,583	11,054	0,107	-0,060
-547,569	800,000	0,034	-0,095
-546,554	800,000	0,055	-0,152
-545,539	413,348	-0,039	0,061
-544,525	-200,000	0,032	-0,105
-543,510	-200,000	-0,009	-0,133
-542,496	800,000	0,025	0,058
-541,481	117,122	-0,081	-0,074
-540,466	130,561	0,052	-0,050
-539,452	-58,287	0,104	0,033
-538,437	-11,584	0,070	-0,034
-537,423	444,939	0,043	0,070
-536,408	53,816	0,071	0,051
-535,393	-175,776	0,095	0,002
-534,379	-22,629	-0,100	-0,045
-533,364	-200,000	-0,002	-0,033
-532,350	-38,757	0,042	-0,016
-531,335	223,423	0,034	-0,040
-530,321	269,984	0,027	0,035
-529,306	238,372	-0,032	-0,039
-528,291	-200,000	0,001	-0,012
-527,277	-200,000	0,034	-0,115
-526,262	-77,698	-0,059	-0,015
-525,248	800,000	0,005	-0,011
-524,233	96,882	0,105	0,088
-523,218	-97,292	-0,152	0,029
-522,204	473,641	-0,024	0,040
-521,189	-200,000	0,016	-0,067
-520,175	-200,000	-0,004	0,041
-519,160	190,704	0,010	0,011
-518,145	111,141	0,066	-0,058
-517,131	181,753	0,067	-0,073
-516,116	-200,000	0,004	-0,016
-515,102	11,045	-0,103	0,058
-514,087	35,220	-0,137	-0,088
-513,072	629,470	-0,038	0,072
-512,058	419,051	0,034	0,054
-511,043	-200,000	0,012	-0,100
-510,029	148,571	-0,091	-0,090
-509,014	-19,363	-0,016	-0,007
-507,999	-141,401	-0,119	0,009
-506,985	66,010	0,036	0,027
-505,970	646,864	-0,040	-0,076
-504,956	-200,000	-0,003	-0,079
-503,941	-33,906	0,069	-0,028
-502,926	259,877	-0,018	-0,023
-501,912	431,866	-0,033	0,054
-500,897	-200,000	0,011	0,053
-499,883	-200,000	0,007	0,051
-498,868	800,000	0,013	-0,034
-497,853	-200,000	-0,051	-0,196
-496,839	-23,035	0,093	-0,041
-495,824	459,153	0,025	0,041
-494,810	-200,000	0,009	0,073
-493,795	248,931	0,031	0,039
-492,781	-93,383	0,051	0,010
-491,766	108,737	-0,109	-0,096
-490,751	-134,157	-0,047	0,004
-489,737	464,060	0,065	0,107
-488,722	-21,808	-0,032	0,014
-487,708	505,229	0,093	0,159
-486,693	-200,000	-0,012	0,068
-485,678	-44,563	0,009	0,003
-484,664	-2,457	0,009	0,005
-483,649	370,698	-0,046	0,069
-482,635	-173,695	-0,101	0,002
-481,620	509,025	0,023	0,039
-480,605	-200,000	0,029	0,165
-479,591	-188,838	0,036	0,000
-478,576	800,000	-0,050	0,103
-477,562	-27,046	-0,013	-0,006
-476,547	-103,975	-0,048	0,008
-475,532	-40,959	-0,193	-0,073
-474,518	800,000	-0,019	-0,058
-473,503	-40,219	0,195	-0,074
-472,489	250,072	0,029	-0,037
-471,474	210,276	0,056	0,065
-470,459	61,199	-0,127	-0,093
-469,445	359,287	0,082	-0,121
-468,430	-7,725	0,040	-0,020
-467,416	302,614	0,054	0,074
-466,401	83,022	0,110	-0,088
-465,386	-3,367	-0,040	-0,020
-464,372	197,615	-0,028	0,032
-463,357	33,679	-0,027	0,017
-462,343	-200,000	-0,014	-0,107
-461,328	-123,945	-0,060	-0,007
-460,313	-119,428	0,061	0,008
-459,299	-129,793	0,185	-0,018
-458,284	-34,163	-0,076	0,031
-457,270	2,949	-0,057	0,030
-456,255	3,335	-0,060	0,032
-455,241	-200,000	0,000	0,050
-454,226	344,872	0,038	-0,054
-453,211	-200,000	-0,010	0,118
-452,197	48,289	-0,047	0,032
-451,182	800,000	0,029	0,089
-450,168	-101,766	-0,132	0,023
-449,153	389,627	0,034	-0,053
-448,138	71,940	-0,120	-0,092
-447,124	418,939	-0,031	0,048
-446,109	-101,142	0,204	-0,036
-445,095	148,520	0,100	-0,100
-444,080	217,955	0,068	-0,080
-443,065	0,752	-0,008	-0,004
-442,051	-117,818	0,195	0,025
-441,036	118,303	-0,037	-0,034
-440,022	178,123	-0,080	-0,086
-439,007	445,433	-0,057	0,092
-437,992	188,513	0,064	0,071
-436,978	-200,000	-0,002	-0,072
-435,963	-200,000	0,008	0,099
-434,949	82,185	0,028	0,022
-433,934	190,416	-0,034	-0,037
-432,919	-200,000	0,011	-0,091
-431,905	-200,000	-0,012	0,084
-430,890	-37,117	-0,090	0,035
-429,876	-75,813	-0,108	0,028
-428,861	-200,000	0,050	0,230
-427,846	-200,000	-0,007	-0,077
-426,832	-107,937	-0,135	0,021
-425,817	-200,000	0,019	-0,098
-424,803	-200,000	0,017	-0,069
-423,788	-28,305	0,111	-0,047
-422,773	16,772	-0,054	0,031
-421,759	-141,472	0,086	-0,006
-420,744	-200,000	-0,006	0,020
-419,730	800,000	0,041	-0,108
-418,715	-200,000	-0,001	-0,188
-417,701	49,091	0,031	-0,021
-416,686	-200,000	0,014	-0,050
-415,671	-200,000	0,031	-0,118
-414,657	-200,000	0,016	0,086
-413,642	-200,000	-0,003	0,078
-412,628	163,924	0,012	-0,012
-411,613	185,632	0,048	-0,052
-410,598	-200,000	0,001	0,053
-409,584	82,074	0,059	-0,047
-408,569	-200,000	0,023	0,145
-407,555	-200,000	0,034	0,128
-406,540	800,000	-0,030	-0,073
-405,525	68,748	-0,054	-0,041
-404,511	-40,090	0,035	0,013
-403,496	-200,000	-0,004	0,089
-402,482	40,711	0,102	0,067
-401,467	684,984	-0,069	0,133
-400,452	159,668	0,115	-0,118
-399,438	-106,028	-0,237	0,039
-398,423	60,609	-0,130	-0,094
-397,409	-200,000	0,024	0,153
-396,394	-200,000	0,004	0,052
-395,379	49,580	0,049	-0,033
-394,365	-200,000	0,025	0,117
-393,350	800,000	-0,041	0,097
-392,336	-200,000	0,024	-0,135
-391,321	-200,000	-0,012	-0,137
-390,306	479,919	0,029	0,048
-389,292	107,088	0,079	-0,069
-388,277	149,883	-0,051	-0,051
-387,263	-90,855	0,139	0,029
-386,248	-200,000	-0,001	0,101
-385,233	-159,912	0,055	0,002
-384,219	-170,541	-0,047	0,001
-383,204	-200,000	0,022	-0,072
-382,190	-39,899	-0,038	-0,014
-381,175	-200,000	-0,004	-0,038
-380,160	-84,524	0,010	0,002
-379,146	-71,392	0,119	0,032
-378,131	639,627	0,073	0,137
-377,117	-31,099	-0,068	0,028
-376,102	62,584	-0,040	-0,029
-375,088	183,747	-0,106	-0,115
-374,073	-200,000	0,007	0,039
-373,058	288,073	0,139	0,185
-372,044	-193,438	-0,016	0,000
-371,029	94,426	-0,056	0,046
-370,015	337,286	0,077	-0,109
-369,000	-200,000	-0,003	-0,076
-367,985	-3,556	-0,094	-0,048
-366,971	-33,226	0,094	-0,038
-365,956	730,221	0,019	0,038
-364,942	-31,231	0,034	-0,014
-363,927	800,000	-0,049	0,126
-362,912	370,233	0,022	-0,033
-361,898	-200,000	0,005	-0,059
-360,883	-200,000	-0,002	0,127
-359,869	194,170	0,073	0,081
-358,854	-200,000	-0,018	-0,072
-357,839	785,625	0,061	-0,124
-356,825	-200,000	0,019	-0,091
-355,810	-9,568	-0,092	0,045
-354,796	75,069	-0,027	0,021
-353,781	354,988	0,051	-0,074
-352,766	800,000	-0,029	-0,071
-351,752	17,653	0,128	0,075
-350,737	800,000	0,021	0,056
-349,723	-189,823	-0,041	-0,000
-348,708	-200,000	0,028	0,095
-347,693	-200,000	0,008	0,067
-346,679	105,297	-0,092	-0,079
-345,664	167,040	0,080	-0,084
-344,650	-200,000	0,016	0,213
-343,635	800,000	0,059	-0,121
-342,620	-200,000	0,002	-0,050
-341,606	-171,441	-0,154	-0,004
-340,591	68,152	0,030	0,022
-339,577	-200,000	0,007	-0,061
-338,562	445,104	-0,045	-0,073
-337,548	-200,000	0,006	0,044
-336,533	-200,000	-0,011	0,062
-335,518	704,545	0,042	0,082
-334,504	255,983	-0,048	-0,061
-333,489	298,410	0,079	0,106
-332,475	-6,753	-0,019	-0,010
-331,460	-126,946	-0,021	-0,002
-330,445	216,870	-0,050	-0,059
-329,431	46,018	0,119	0,080
-328,416	470,683	-0,067	0,110
-327,402	-200,000	0,018	0,096
-326,387	264,397	0,013	0,016
-325,372	236,494	-0,010	0,013
-324,358	800,000	-0,047	-0,136
-323,343	-145,836	-0,090	-0,006
-322,329	-200,000	-0,030	-0,190
-321,314	352,597	0,072	0,105
-320,299	-200,000	0,020	0,160
-319,285	800,000	0,033	0,097
-318,270	644,909	0,032	0,060
-317,256	-71,368	-0,108	0,029
-316,241	-157,499	-0,065	0,003
-315,226	-65,704	0,105	-0,030
-314,212	460,662	0,154	0,252
-313,197	800,000	-0,035	0,089
-312,183	-200,000	-0,044	0,150
-311,168	47,193	0,049	-0,033
-310,153	290,984	0,007	0,010
-309,139	-21,433	-0,062	0,027
-308,124	-200,000	0,046	0,181
-307,110	37,784	0,097	0,063
-306,095	-200,000	-0,018	0,069
-305,080	507,023	0,010	-0,018
-304,066	-52,532	-0,110	0,037
-303,051	-200,000	-0,007	-0,052
-302,037	-200,000	-0,019	0,158
-301,022	201,497	-0,051	0,058
-300,008	755,545	0,100	0,199
-298,993	800,000	-0,057	0,145
-297,978	800,000	-0,026	0,059
-296,964	-98,626	-0,041	-0,008
-295,949	-12,552	-0,152	-0,072
-294,935	-24,683	-0,100	-0,043
-293,920	800,000	-0,044	-0,106
-292,905	-200,000	-0,016	0,058
-291,891	-61,762	0,014	0,004
-290,876	-96,071	-0,137	-0,026
-289,862	-200,000	-0,017	-0,062
-288,847	347,562	-0,075	-0,109
-287,832	93,116	0,004	-0,003
-286,818	68,472	0,049	0,036
-285,803	-200,000	0,005	-0,029
-284,789	800,000	-0,055	0,121
-283,774	-200,000	-0,014	-0,079
-282,759	317,902	-0,013	0,018
-281,745	-200,000	0,024	0,121
-280,730	-200,000	0,034	-0,156
-279,716	-36,583	-0,035	0,014
-278,701	800,000	0,075	0,152
-277,686	486,295	-0,007	0,013
-276,672	-49,454	0,114	0,039
-275,657	800,000	0,042	-0,102
-274,643	800,000	0,012	0,030
-273,628	-96,629	0,031	-0,006
-272,613	103,157	-0,094	0,080
-271,599	-17,847	0,103	-0,047
-270,584	221,764	0,040	0,047
-269,570	800,000	0,062	-0,143
-268,555	12,411	-0,198	-0,111
-267,540	-40,805	0,050	0,019
-266,526	-200,000	-0,018	-0,146
-265,511	-200,000	0,003	-0,065
-264,497	244,184	-0,042	0,052
-263,482	134,124	0,049	0,046
-262,467	-200,000	-0,011	0,084
-261,453	32,607	-0,020	-0,013
-260,438	-44,762	0,041	-0,015
-259,424	606,043	0,017	0,031
-258,409	-95,028	-0,140	-0,027
-257,395	33,508	0,102	0,065
-256,380	31,156	-0,055	-0,035
-255,365	27,267	0,120	0,074
-254,351	42,812	0,024	0,016
-253,336	-88,100	0,009	-0,002
-252,322	-56,444	0,083	0,027
-251,307	-200,000	0,024	-0,085
-250,292	77,740	0,048	-0,038
-249,278	-40,601	-0,037	0,014
-248,263	183,229	-0,063	-0,068
-247,249	-128,219	0,044	-0,005
-246,234	800,000	-0,050	-0,123
-245,219	782,856	-0,018	0,037
-244,205	-200,000	0,006	-0,020
-243,190	-200,000	0,008	0,144
-242,176	-200,000	-0,013	0,065
-241,161	-156,077	-0,043	-0,002
-240,146	-105,007	-0,053	-0,009
-239,132	-200,000	-0,014	-0,089
-238,117	-72,089	0,006	0,002
-237,103	323,625	-0,042	-0,059
-236,088	800,000	0,036	-0,114
-235,073	-161,191	0,133	-0,005
-234,059	-96,448	0,132	-0,025
-233,044	120,092	0,095	0,086
-232,030	-200,000	0,007	-0,046
-231,015	-36,583	-0,156	-0,061
-230,000	-200,000	0,006	-0,057
-228,986	248,924	-0,085	0,105
-227,971	-200,000	-0,010	0,200
-226,957	800,000	0,060	0,152
-225,942	171,848	0,026	-0,028
-224,927	-75,059	-0,075	-0,019
-223,913	-200,000	0,011	0,046
-222,898	781,076	-0,069	-0,138
-221,884	-160,361	0,048	-0,002
-220,869	-200,000	0,011	-0,101
-219,855	375,855	0,025	0,038
-218,840	800,000	0,032	0,066
-217,825	96,411	0,050	0,041
-216,811	800,000	-0,027	-0,083
-215,796	-200,000	-0,000	-0,103
-214,782	-152,301	-0,044	0,002
-213,767	243,840	-0,095	-0,116
-212,752	11,158	0,155	0,086
-211,738	193,340	-0,062	0,069
-210,723	493,420	0,027	0,045
-209,709	677,066	-0,039	-0,075
-208,694	-200,000	-0,012	-0,090
-207,679	180,160	0,081	-0,087
-206,665	168,167	-0,039	0,041
-205,650	111,124	0,020	-0,018
-204,636	-200,000	0,009	0,119
-203,621	-35,881	-0,208	0,082
-202,606	-22,656	0,125	0,055
-201,592	66,118	0,083	-0,061
-200,577	285,320	0,097	-0,127
-199,563	-200,000	0,004	0,065
-198,548	88,075	0,056	-0,045
-197,533	-25,158	-0,055	0,024
-196,519	-26,501	0,092	-0,039
-195,504	-11,549	-0,061	-0,029
-194,490	-47,852	-0,033	-0,011
-193,475	745,892	0,013	-0,025
-192,460	102,723	-0,063	-0,053
-191,446	287,598	-0,023	-0,030
-190,431	-61,740	0,174	0,053
-189,417	800,000	-0,044	0,104
-188,402	47,822	0,093	0,063
-187,387	117,301	-0,012	0,011
-186,373	-7,202	-0,131	0,064
-185,358	-95,432	-0,074	-0,014
-184,344	165,294	-0,081	0,084
-183,329	-6,837	-0,033	-0,016
-182,315	39,664	-0,069	-0,045
-181,300	-46,984	0,051	0,018
-180,285	800,000	0,018	-0,055
-179,271	294,564	0,029	-0,039
-178,256	-76,429	0,115	0,029
-177,242	-12,053	-0,103	-0,049
-176,227	800,000	-0,050	0,106
-175,212	-200,000	0,000	-0,030
-174,198	-200,000	-0,006	-0,118
-173,183	656,800	-0,017	-0,031
-172,169	-200,000	0,007	-0,045
-171,154	304,555	0,089	0,120
-170,139	-200,000	0,012	-0,072
-169,125	-200,000	-0,003	-0,075
-168,110	-200,000	0,030	0,133
-167,096	70,703	0,037	-0,028
-166,081	65,163	0,107	-0,078
-165,066	794,998	0,070	-0,141
-164,052	303,345	-0,085	-0,114
-163,037	408,791	-0,073	-0,112
-162,023	800,000	0,059	0,131
-161,008	-200,000	0,010	0,035
-159,993	-146,747	0,127	-0,008
-158,979	-80,201	-0,019	0,005
-157,964	51,866	-0,090	-0,062
-156,950	-200,000	-0,004	-0,037
-155,935	-200,000	0,038	-0,140
-154,920	58,809	0,156	0,111
-153,906	800,000	-0,049	0,140
-152,891	170,838	0,060	0,063
-151,877	-117,889	-0,109	-0,014
-150,862	-0,800	0,069	-0,036
-149,847	-200,000	-0,016	-0,074
-148,833	800,000	0,027	0,058
-147,818	-105,695	0,163	-0,026
-146,804	246,634	0,042	-0,051
-145,789	-200,000	-0,004	-0,020
-144,775	-140,008	0,056	0,004
-143,760	-45,634	-0,083	0,030
-142,745	52,955	-0,108	-0,075
-141,731	-3,329	0,111	0,056
-140,716	14,462	0,143	0,081
-139,702	-200,000	0,019	-0,130
-138,687	-200,000	0,045	0,000
-137,672	800,000	0,025	-0,055
-136,658	604,983	-0,042	0,076
-135,643	-41,946	-0,120	-0,044
-134,629	282,417	-0,127	-0,165
-133,614	-53,802	0,031	0,010
-132,599	-200,000	-0,016	0,063
-131,585	800,000	-0,031	0,093
-130,570	-145,567	-0,086	0,005
-129,556	296,652	0,052	-0,070
-128,541	-200,000	0,001	0,022
-127,526	46,350	0,175	-0,118
-126,512	634,352	-0,013	0,024
-125,497	-200,000	-0,000	-0,013
-124,483	13,467	-0,016	-0,009
-123,468	787,384	0,083	0,165
-122,453	422,812	0,055	0,087
-121,439	29,047	-0,024	-0,015
-120,424	-145,840	-0,055	-0,003
-119,410	-12,746	0,059	0,028
-118,395	593,170	-0,019	0,034
-117,380	-200,000	-0,007	0,144
-116,366	-200,000	-0,000	0,013
-115,351	68,588	-0,070	-0,052
-114,337	-68,957	-0,215	-0,060
-113,322	-91,709	-0,128	0,026
-112,307	-31,103	-0,034	-0,014
-111,293	493,686	-0,038	0,064
-110,278	800,000	-0,071	0,177
-109,264	213,858	0,082	-0,094
-108,249	-200,000	-0,014	-0,086
-107,234	-200,000	-0,019	0,091
-106,220	27,300	-0,016	-0,010
-105,205	800,000	0,027	-0,059
-104,191	32,848	-0,124	0,078
-103,176	-131,316	0,122	-0,012
-102,162	-91,238	0,089	-0,018
-101,147	488,638	-0,044	0,073
-100,132	31,159	-0,154	-0,096
-99,118	-103,364	-0,068	-0,011
-98,103	-200,000	-0,009	0,084
-97,089	114,962	0,106	0,094
-96,074	-200,000	0,045	0,158
-95,059	-200,000	0,014	0,075
-94,045	-158,247	-0,073	-0,003
-93,030	-106,231	-0,183	0,029
-92,016	-200,000	0,003	-0,126
-91,001	-149,114	-0,068	-0,004
-89,986	12,361	0,102	-0,057
-88,972	-143,576	0,054	-0,004
-87,957	-127,301	0,070	0,007
-86,943	95,968	-0,108	-0,089
-85,928	566,143	-0,029	-0,052
-84,913	-200,000	0,027	-0,129
-83,899	189,626	0,105	-0,115
-82,884	-84,207	0,126	-0,029
-81,870	94,732	0,103	0,084
-80,855	22,994	-0,070	-0,042
-79,840	-56,565	0,080	0,026
-78,826	49,627	0,027	0,018
-77,811	15,300	-0,065	0,037
-76,797	-126,642	-0,090	-0,010
-75,782	-200,000	0,022	-0,269
-74,767	-104,925	-0,095	0,016
-73,753	-200,000	0,002	-0,101
-72,738	-94,967	-0,053	-0,010
-71,724	72,460	-0,055	-0,041
-70,709	394,274	-0,087	0,131
-69,694	-200,000	-0,004	-0,096
-68,680	-51,985	0,126	-0,042
-67,665	-88,258	0,107	0,023
-66,651	-200,000	-0,008	-0,063
-65,636	-200,000	-0,030	-0,124
-64,622	-127,253	0,040	0,004
-63,607	34,714	-0,127	-0,080
-62,592	-142,042	0,059	0,004
-61,578	-79,606	0,099	-0,024
-60,563	-36,420	0,128	0,050
-59,549	-200,000	0,011	0,083
-58,534	-68,202	-1,451	-0,406
-57,519	689,433	-0,710	-1,351
-56,505	-200,000	-1,037	-4,380
-55,490	-61,665	0,605	-0,182
-54,476	800,000	4,817	11,656
-53,461	-200,000	14,658	259,508
-52,446	-200,000	696,235	2234,792
-51,432	565,532	1622,148	2858,069
-50,417	117,856	1630,038	1452,788
-49,403	74,937	1284,167	977,787
-48,388	37,393	1022,458	654,565
-47,373	23,193	981,899	581,977
-46,359	22,330	971,086	572,719
-45,344	21,186	967,037	566,576
-44,330	21,140	965,348	565,415
-43,315	21,023	963,915	564,173
-42,300	21,050	962,684	563,515
-41,286	21,024	961,996	563,008
-40,271	20,999	960,909	562,268
-39,257	20,988	959,935	561,639
-38,242	20,980	959,007	561,048
-37,227	20,986	957,968	560,438
-36,213	20,973	957,240	559,949
-35,198	20,918	956,395	559,254
-34,184	20,945	955,986	559,078
-33,169	20,915	954,807	558,271
-32,154	21,013	953,811	557,981
-31,140	20,989	953,156	557,499
-30,125	21,004	952,237	556,987
-29,111	20,986	951,494	556,472
-28,096	20,975	950,836	556,033
-27,082	20,971	950,226	555,638
-26,067	20,994	949,335	555,169
-25,052	20,992	948,609	554,717
-24,038	20,916	948,111	554,159
-23,023	20,951	947,506	553,897
-22,009	21,003	946,579	553,498
-20,994	21,031	946,012	553,234
-19,979	21,015	945,400	552,803
-18,965	21,028	944,801	552,474
-17,950	21,006	944,284	552,080
-16,936	20,903	943,594	551,325
-15,921	20,912	942,912	550,933
-14,906	20,867	942,296	550,410
-13,892	20,897	941,528	550,033
-12,877	20,815	941,014	549,453
-11,863	20,773	940,398	548,937
-10,848	20,893	939,891	548,999
-9,833	20,885	939,438	548,688
-8,819	20,903	938,771	548,333
-7,804	20,857	938,173	547,817
-6,790	20,787	937,736	547,320
-5,775	20,956	936,759	547,262
-4,760	20,883	936,326	546,755
-3,746	20,838	935,671	546,208
-2,731	20,739	934,941	545,449
-1,717	20,713	934,277	544,958
-0,702	20,654	933,742	544,438
0,313	20,456	932,936	544,168
1,327	23,377	931,205	552,284
2,342	32,610	793,903	495,362
3,356	30,055	450,517	277,237
4,371	-0,046	294,389	151,083
5,386	-4,344	275,535	137,322
6,400	-5,622	269,811	133,270
7,415	-5,793	267,376	131,898
8,429	-5,719	266,276	131,411
9,444	-5,797	265,396	130,894
10,459	-5,756	264,774	130,613
11,473	-5,779	264,117	130,256
12,488	-5,998	263,767	129,873
13,502	-6,014	263,060	129,499
14,517	-6,179	262,780	129,201
15,531	-5,885	262,217	129,177
16,546	-5,729	261,885	129,143
17,561	-5,869	261,490	128,811
18,575	-5,838	261,379	128,772
19,590	-5,832	260,869	128,515
20,604	-5,662	260,520	128,485
21,619	-6,034	260,384	128,072
22,634	-5,875	259,817	127,924
23,648	-5,928	259,602	127,759
24,663	-5,779	259,334	127,749
25,677	-5,634	259,061	127,732
26,692	-5,839	258,958	127,488
27,707	-5,878	258,601	127,266
28,721	-6,012	258,377	127,025
29,736	-6,090	258,132	126,824
30,750	-6,100	257,951	126,715
31,765	-5,895	257,573	126,700
32,780	-5,849	257,258	126,574
33,794	-6,059	257,096	126,297
34,809	-6,044	256,818	126,163
35,823	-6,096	256,593	125,995
36,838	-6,066	256,404	125,917
37,853	-6,104	256,206	125,776
38,867	-6,199	255,918	125,540
39,882	-6,130	255,734	125,498
40,896	-5,959	255,413	125,480
41,911	-6,187	255,266	125,197
42,926	-6,239	255,027	125,023
43,940	-6,124	254,684	124,944
44,955	-6,170	254,526	124,815
45,969	-6,222	254,297	124,646
46,984	-6,470	254,021	124,284
47,999	-6,585	253,763	124,046
49,013	-6,820	253,622	123,761
50,028	-6,710	253,180	123,630
51,042	-6,844	253,072	123,450
52,057	-6,781	252,730	123,327
53,071	-6,685	252,553	123,313
54,086	-6,600	252,430	123,316
55,101	-6,409	252,285	123,399
56,115	-6,393	252,125	123,324
57,130	-6,129	252,255	123,605
58,144	-5,639	251,830	123,809
59,159	-5,745	251,639	123,612
60,174	-5,727	251,405	123,502
61,188	-5,910	251,372	123,317
62,203	-5,795	251,109	123,276
63,217	-5,887	250,711	122,990
64,232	-5,908	250,721	122,967
65,247	-5,912	250,479	122,833
66,261	-5,964	250,129	122,607
67,276	-6,287	249,983	122,247
68,290	-6,148	249,791	122,261
69,305	-6,318	249,345	121,887
70,320	-6,308	249,189	121,808
71,334	-5,969	249,111	122,048
72,349	-5,719	249,121	122,256
73,363	-5,912	248,842	121,943
74,378	-5,916	248,559	121,791
75,393	-5,950	248,391	121,669
76,407	-6,028	248,165	121,480
77,422	-5,924	247,972	121,463
78,436	-6,031	247,812	121,283
79,451	-5,973	247,578	121,207
80,466	-5,897	247,190	121,071
81,480	-6,192	247,132	120,782
82,495	-6,245	246,882	120,604
83,509	-5,980	246,610	120,684
84,524	-6,203	246,558	120,460
85,539	-6,133	246,162	120,315
86,553	-6,333	246,117	120,114
87,568	-6,162	245,750	120,067
88,582	-6,418	245,859	119,895
89,597	-6,425	245,612	119,758
90,611	-6,140	245,472	119,918
91,626	-6,034	245,389	119,956
92,641	-5,875	245,141	119,957
93,655	-5,965	244,763	119,686
94,670	-6,314	244,775	119,389
95,684	-6,106	244,439	119,389
96,699	-6,110	244,248	119,282
97,714	-6,099	244,126	119,221
98,728	-6,059	243,839	119,102
99,743	-6,387	243,665	118,734
100,757	-6,286	243,460	118,707
101,772	-6,415	243,314	118,518
102,787	-6,184	243,227	118,657
103,801	-6,163	243,070	118,588
104,816	-6,191	242,977	118,509
105,830	-5,929	242,661	118,561
106,845	-5,834	242,484	118,543
107,860	-5,914	242,289	118,371
108,874	-6,121	242,101	118,098
109,889	-6,188	241,902	117,934
110,903	-6,097	241,782	117,940
111,918	-6,077	241,578	117,847
112,933	-6,192	241,482	117,694
113,947	-6,038	241,086	117,618
114,962	-5,961	241,093	117,674
115,976	-6,089	240,975	117,500
116,991	-6,214	240,736	117,271
118,006	-6,174	240,667	117,260
119,020	-6,102	240,412	117,184
120,035	-5,861	240,244	117,290
121,049	-6,074	240,252	117,109
122,064	-6,005	240,101	117,081
123,079	-6,222	239,935	116,812
124,093	-6,098	239,530	116,706
125,108	-6,361	239,295	116,366
126,122	-6,576	239,035	116,054
127,137	-6,438	238,892	116,087
128,151	-6,457	238,749	115,991
129,166	-6,415	238,589	115,938
130,181	-6,456	238,329	115,767
131,195	-6,248	238,243	115,884
132,210	-6,493	238,131	115,621
133,224	-6,094	237,920	115,832
134,239	-6,121	237,846	115,763
135,254	-6,066	237,618	115,686
136,268	-6,110	237,428	115,547
137,283	-6,315	237,074	115,200
138,297	-6,423	237,015	115,073
139,312	-6,519	236,956	114,957
140,327	-6,037	236,563	115,145
141,341	-5,703	236,598	115,420
142,356	-5,521	236,590	115,553
143,370	-5,611	236,224	115,292
144,385	-5,711	236,189	115,184
145,400	-5,494	235,941	115,227
146,414	-5,758	235,809	114,940
147,429	-5,853	235,748	114,824
148,443	-5,679	235,387	114,777
149,458	-5,718	235,227	114,658
150,473	-5,718	235,119	114,595
151,487	-5,663	234,890	114,517
152,502	-5,660	234,720	114,426
153,516	-5,482	234,581	114,490
154,531	-5,900	234,488	114,101
155,546	-5,626	234,157	114,148
156,560	-5,677	234,057	114,049
157,575	-5,937	233,958	113,783
158,589	-5,792	233,721	113,773
159,604	-5,762	233,621	113,738
160,619	-5,634	233,457	113,750
161,633	-5,569	233,392	113,760
162,648	-5,532	233,183	113,677
163,662	-5,662	233,043	113,495
164,677	-5,926	232,881	113,198
165,692	-5,858	232,734	113,170
166,706	-5,647	232,635	113,279
167,721	-5,491	232,473	113,313
168,735	-5,651	232,299	113,091
169,750	-5,604	232,076	113,010
170,764	-5,603	231,959	112,943
171,779	-5,787	231,892	112,756
172,794	-5,799	231,769	112,677
173,808	-5,649	231,422	112,616
174,823	-6,189	231,164	112,057
175,837	-6,301	230,996	111,877
176,852	-5,901	230,908	112,138
177,867	-5,614	230,809	112,305
178,881	-5,584	230,753	112,291
179,896	-5,739	230,578	112,075
180,910	-5,611	230,314	112,037
181,925	-5,443	230,171	112,088
182,940	-5,621	230,171	111,939
183,954	-5,632	229,981	111,828
184,969	-5,487	229,859	111,872
185,983	-5,639	229,718	111,675
186,998	-5,675	229,549	111,555
188,013	-5,427	229,319	111,626
189,027	-5,472	229,261	111,552
190,042	-5,302	228,960	111,528
191,056	-5,425	228,857	111,373
192,071	-5,543	228,636	111,163
193,086	-5,466	228,495	111,145
194,100	-5,655	228,416	110,950
195,115	-5,686	228,253	110,837
196,129	-6,514	227,786	109,961
197,144	-3,735	228,651	112,521
198,159	0,702	229,946	116,597
199,173	3,529	230,626	119,129
200,188	3,885	230,692	119,429
201,202	4,057	230,403	119,403
202,217	3,869	230,262	119,173
203,232	4,192	230,182	119,371
204,246	4,395	230,070	119,459
205,261	4,345	229,925	119,336
206,275	4,503	229,916	119,442
207,290	4,544	229,706	119,354
208,304	4,587	229,452	119,245
209,319	4,671	229,407	119,275
210,334	4,285	229,151	118,833
211,348	4,054	228,866	118,498
212,363	3,845	228,625	118,202
213,377	3,719	228,353	117,954
214,392	3,531	228,247	117,744
215,407	3,719	228,178	117,843
216,421	3,638	228,123	117,742
217,436	3,716	227,924	117,688
218,450	3,462	227,589	117,310
219,465	3,374	227,471	117,171
220,480	3,441	227,302	117,125
221,494	3,293	227,352	117,028
222,509	3,377	227,221	117,014
223,523	3,398	226,979	116,895
224,538	3,419	226,955	116,887
225,553	3,576	226,736	116,884
226,567	3,746	226,512	116,888
227,582	3,769	226,666	116,974
228,596	3,981	226,360	116,967
229,611	3,737	226,167	116,672
230,626	3,520	225,874	116,346
231,640	3,627	225,727	116,341
232,655	3,937	225,704	116,553
233,669	4,187	225,667	116,713
234,684	4,058	225,459	116,497
235,699	4,052	225,284	116,392
236,713	3,755	225,155	116,091
237,728	3,686	224,882	115,888
238,742	3,693	224,665	115,771
239,757	3,555	224,587	115,616
240,772	3,663	224,440	115,612
241,786	3,452	224,320	115,381
242,801	3,723	224,180	115,502
243,815	3,905	224,065	115,569
244,830	3,873	224,118	115,562
245,844	3,684	223,919	115,308
246,859	3,587	223,731	115,128
247,874	3,909	223,509	115,245
248,888	3,881	223,351	115,131
249,903	3,896	223,219	115,065
250,917	3,849	222,995	114,904
251,932	3,700	222,911	114,739
252,947	3,339	222,698	114,350
253,961	3,444	222,504	114,318
254,976	3,769	222,394	114,493
255,990	3,741	222,464	114,498
257,005	4,057	222,100	114,536
258,020	3,895	222,147	114,430
259,034	4,039	222,054	114,478
260,049	3,990	221,904	114,355
261,063	3,728	221,722	114,056
262,078	3,841	221,619	114,077
263,093	4,055	221,453	114,140
264,107	3,998	221,213	113,963
265,122	3,774	221,191	113,776
266,136	3,982	221,098	113,872
267,151	4,251	220,873	113,945
268,166	3,670	220,639	113,385
269,180	3,479	220,408	113,115
270,195	3,463	220,153	112,963
271,209	3,466	220,100	112,928
272,224	3,720	219,956	113,031
273,239	3,702	219,914	112,986
274,253	3,648	219,714	112,833
275,268	3,446	219,442	112,536
276,282	3,611	219,290	112,568
277,297	3,489	219,151	112,398
278,312	3,240	219,283	112,272
279,326	3,642	219,054	112,440
280,341	3,718	218,826	112,368
281,355	3,764	218,781	112,369
282,370	3,770	218,547	112,243
283,384	3,084	218,495	111,705
284,399	3,138	218,332	111,651
285,414	3,443	217,988	111,687
286,428	3,791	217,897	111,884
287,443	3,858	217,832	111,890
288,457	3,645	217,831	111,725
289,472	3,561	217,676	111,574
290,487	3,070	217,490	111,112
291,501	3,210	217,212	111,061
292,516	3,261	217,101	111,031
293,530	3,170	217,009	110,909
294,545	3,513	216,751	111,015
295,560	3,390	216,823	110,954
296,574	3,395	216,671	110,869
297,589	3,695	216,453	110,965
298,603	3,829	216,351	110,999
299,618	3,690	216,175	110,799
300,633	3,661	216,124	110,742
301,647	3,604	216,154	110,706
302,662	3,945	215,895	110,809
303,676	3,696	215,798	110,570
304,691	3,585	215,644	110,401
305,706	3,916	215,536	110,574
306,720	4,075	215,341	110,579
307,735	3,686	215,224	110,230
308,749	3,638	214,986	110,064
309,764	3,733	214,950	110,103
310,779	3,816	214,858	110,106
311,793	3,569	214,753	109,866
312,808	3,791	214,453	109,860
313,822	3,714	214,430	109,784
314,837	3,558	214,163	109,527
315,852	3,201	214,039	109,198
316,866	3,609	213,974	109,446
317,881	3,929	213,834	109,593
318,895	4,084	213,672	109,611
319,910	3,905	213,426	109,347
320,925	3,389	213,275	108,894
321,939	3,143	213,173	108,657
322,954	3,274	213,064	108,685
323,968	3,600	213,006	108,877
324,983	3,615	212,889	108,818
325,997	3,772	212,829	108,889
327,012	3,629	212,566	108,644
328,027	3,714	212,366	108,591
329,041	3,986	212,368	108,775
330,056	4,156	212,185	108,792
331,070	3,871	211,949	108,460
332,085	3,330	211,769	107,977
333,100	3,511	211,730	108,075
334,114	3,842	211,617	108,241
335,129	3,751	211,488	108,101
336,143	3,722	211,270	107,960
337,158	3,510	211,216	107,774
338,173	3,356	211,108	107,601
339,187	3,416	210,901	107,528
340,202	3,139	210,697	107,220
341,216	3,318	210,488	107,229
342,231	3,523	210,481	107,360
343,246	3,312	210,382	107,152
344,260	3,490	210,150	107,148
345,275	3,560	210,058	107,141
346,289	3,541	210,175	107,178
347,304	3,803	209,975	107,249
348,319	3,718	209,801	107,091
349,333	3,751	209,603	107,004
350,348	3,654	209,466	106,857
351,362	3,789	209,611	107,015
352,377	3,802	209,284	106,848
353,392	3,423	209,203	106,534
354,406	3,881	208,940	106,708
355,421	195,463	1343,825	1433,562
356,435	156,043	1482,173	1433,648
