DTS Sentinel unit serial number:	SN410029Multiplexer serial number:	ORYXHardware model number:	OX2-SRSoftware version number:	ORYX F/W v4,00 Oryx Data Collector v3.7.2.0data status	okinstallation	B6 Nyhavnadifferential loss correction	single-endedforward channel	channel 2reverse channel	N/Adate	2023/12/08time	20:05:08forward acquisition time	300,00reverse acquisition time	0,00gamma	499,1914k internal	0,3158k external	0,3158temperature offset calibration	1,0000default loss term (dB/km)	0,3820temperature slope calibration	1,0000multiplexer offset coefficient	1,0000multiplexer slope coefficient	1,0000fibre end	0,00T internal ref (°C)	15,21T ext. ref 1 (°C)	-1,40T ext. ref 2 (°C)	-1,42length (m)	temperature (°C)	Stokes	anti-Stokes-744,400	255,051	0,081	-0,103
-743,385	-56,922	-0,300	-0,097
-742,371	-103,005	0,257	0,045
-741,356	-46,472	-0,238	0,085
-740,342	472,631	0,068	0,113
-739,327	-108,710	-0,341	-0,053
-738,312	101,660	0,034	-0,029
-737,298	-141,398	-0,350	0,026
-736,283	-121,880	0,127	-0,015
-735,269	-61,178	-0,386	0,119
-734,254	800,000	0,034	0,094
-733,239	-57,429	-0,449	-0,145
-732,225	301,291	0,079	-0,108
-731,210	23,575	-0,079	-0,048
-730,196	-17,561	0,033	0,015
-729,181	-99,536	-0,044	-0,008
-728,167	118,750	-0,038	-0,035
-727,152	-123,735	0,103	0,012
-726,137	4,756	-0,055	-0,030
-725,123	800,000	-0,025	-0,072
-724,108	-200,000	-0,044	-0,158
-723,094	490,436	-0,074	-0,125
-722,079	-125,362	-0,044	-0,005
-721,064	-200,000	-0,014	0,134
-720,050	-200,000	-0,019	-0,113
-719,035	-200,000	0,055	-0,191
-718,021	165,223	0,056	-0,058
-717,006	-200,000	-0,002	-0,038
-715,991	388,004	-0,092	-0,141
-714,977	732,454	-0,014	-0,028
-713,962	53,618	-0,073	-0,051
-712,948	72,724	0,011	-0,009
-711,933	-200,000	-0,027	-0,118
-710,918	34,599	-0,161	-0,103
-709,904	30,597	-0,114	-0,072
-708,889	23,607	-0,068	-0,041
-707,875	-88,914	-0,101	-0,022
-706,860	800,000	-0,034	-0,101
-705,845	103,584	-0,095	-0,082
-704,831	-94,837	0,101	0,020
-703,816	-32,095	0,032	-0,013
-702,802	800,000	-0,037	0,110
-701,787	-200,000	-0,044	-0,196
-700,772	-137,108	-0,213	-0,018
-699,758	800,000	-0,022	-0,057
-698,743	-200,000	-0,060	0,215
-697,729	-142,611	0,150	0,011
-696,714	-200,000	-0,040	0,153
-695,699	800,000	0,055	-0,163
-694,685	-22,689	-0,169	-0,075
-693,670	25,238	-0,028	0,017
-692,656	-66,404	0,110	-0,032
-691,641	-159,942	-0,165	0,007
-690,627	602,447	-0,031	0,057
-689,612	-200,000	0,006	-0,138
-688,597	-200,000	0,006	0,020
-687,583	-32,459	-0,189	-0,077
-686,568	-7,452	-0,106	0,053
-685,554	-17,009	-0,071	-0,033
-684,539	220,801	0,075	-0,088
-683,524	37,360	-0,059	-0,038
-682,510	-200,000	0,012	0,194
-681,495	-52,729	-0,131	0,044
-680,481	258,099	-0,038	0,048
-679,466	70,179	-0,214	-0,163
-678,451	440,290	0,033	-0,053
-677,437	-119,584	0,101	-0,013
-676,422	-16,974	-0,025	0,012
-675,408	-200,000	0,041	0,167
-674,393	309,053	0,077	-0,106
-673,378	75,637	-0,165	-0,128
-672,364	-83,190	-0,174	-0,041
-671,349	-48,552	-0,026	0,009
-670,335	499,682	-0,047	-0,080
-669,320	-72,792	-0,106	0,029
-668,305	671,780	-0,035	0,066
-667,291	-100,234	0,127	0,023
-666,276	360,059	-0,090	-0,132
-665,262	402,630	-0,079	-0,122
-664,247	-200,000	-0,045	-0,172
-663,232	-200,000	0,034	-0,128
-662,218	-200,000	0,012	-0,092
-661,203	-56,457	-0,073	0,024
-660,189	-27,502	-0,096	0,041
-659,174	15,789	-0,097	-0,056
-658,159	-76,886	-0,118	0,030
-657,145	-176,713	-0,110	-0,002
-656,130	-200,000	-0,023	-0,151
-655,116	712,377	-0,042	-0,082
-654,101	226,577	0,071	-0,085
-653,086	-200,000	-0,002	-0,034
-652,072	800,000	-0,037	-0,085
-651,057	-200,000	-0,017	-0,095
-650,043	-200,000	-0,075	-0,246
-649,028	-121,782	0,047	0,006
-648,014	-200,000	0,010	-0,068
-646,999	37,062	0,167	0,108
-645,984	-109,753	-0,085	0,013
-644,970	751,944	-0,058	0,115
-643,955	800,000	-0,035	-0,077
-642,941	-200,000	0,011	-0,071
-641,926	-33,454	-0,161	-0,065
-640,911	-200,000	0,002	0,051
-639,897	70,206	0,068	0,051
-638,882	800,000	0,015	-0,037
-637,868	53,965	0,075	-0,053
-636,853	140,026	0,105	-0,102
-635,838	663,576	-0,032	-0,061
-634,824	39,462	-0,111	-0,073
-633,809	-200,000	0,022	0,115
-632,795	56,526	-0,023	0,016
-631,780	71,565	0,097	0,074
-630,765	-200,000	0,014	0,092
-629,751	-200,000	0,020	0,091
-628,736	800,000	0,069	-0,189
-627,722	-200,000	-0,212	0,000
-626,707	800,000	-0,038	0,091
-625,692	88,645	0,033	-0,027
-624,678	-200,000	0,022	-0,173
-623,663	800,000	-0,033	-0,067
-622,649	-200,000	0,048	-0,194
-621,634	508,621	0,042	-0,071
-620,619	-179,394	-0,046	-0,001
-619,605	800,000	-0,011	-0,033
-618,590	71,137	0,038	0,029
-617,576	800,000	-0,044	-0,091
-616,561	361,324	-0,048	-0,071
-615,546	21,216	0,075	-0,045
-614,532	800,000	-0,070	-0,185
-613,517	67,805	0,049	-0,036
-612,503	-200,000	0,027	-0,106
-611,488	-200,000	0,001	0,062
-610,474	-44,286	0,170	0,062
-609,459	-32,493	0,031	0,013
-608,444	463,090	-0,054	0,088
-607,430	-200,000	-0,001	0,047
-606,415	124,173	-0,072	0,067
-605,401	-200,000	-0,006	0,096
-604,386	215,518	-0,045	0,052
-603,371	103,976	0,086	-0,074
-602,357	590,828	0,021	-0,038
-601,342	800,000	0,038	0,089
-600,328	-200,000	-0,001	-0,059
-599,313	30,690	0,178	-0,111
-598,298	52,293	-0,044	-0,031
-597,284	-200,000	-0,008	0,056
-596,269	-13,159	0,031	0,015
-595,255	-81,019	0,109	0,026
-594,240	-85,803	-0,203	-0,046
-593,225	181,723	-0,025	-0,027
-592,211	-74,205	-0,113	-0,030
-591,196	333,179	0,052	0,074
-590,182	476,013	-0,015	-0,025
-589,167	346,241	0,085	-0,123
-588,152	-70,502	-0,115	0,032
-587,138	800,000	-0,052	-0,166
-586,123	-200,000	0,010	-0,125
-585,109	560,864	-0,072	0,129
-584,094	-14,419	0,082	-0,039
-583,079	800,000	-0,008	0,019
-582,065	-28,805	-0,050	-0,021
-581,050	800,000	0,054	0,110
-580,036	-60,583	0,107	0,033
-579,021	179,391	-0,087	0,093
-578,006	-10,512	-0,046	-0,022
-576,992	187,820	-0,041	0,045
-575,977	329,167	0,124	-0,176
-574,963	800,000	-0,032	0,067
-573,948	800,000	0,055	-0,163
-572,934	-200,000	0,013	0,142
-571,919	-200,000	0,011	-0,054
-570,904	439,752	-0,067	-0,108
-569,890	800,000	-0,019	-0,059
-568,875	223,650	0,077	0,091
-567,861	12,159	-0,118	0,067
-566,846	286,034	0,104	0,138
-565,831	25,523	0,060	0,036
-564,817	-200,000	0,011	0,066
-563,802	111,340	-0,075	0,066
-562,788	-129,959	0,096	-0,010
-561,773	-46,697	-0,050	0,018
-560,758	800,000	-0,031	-0,067
-559,744	422,568	-0,016	-0,026
-558,729	57,259	0,119	0,085
-557,715	-200,000	0,019	-0,140
-556,700	-200,000	0,008	0,042
-555,685	800,000	0,072	-0,153
-554,671	-167,016	-0,190	-0,006
-553,656	51,337	0,085	0,059
-552,642	33,537	0,057	0,036
-551,627	80,536	0,097	-0,076
-550,612	-200,000	-0,001	-0,014
-549,598	-167,399	-0,076	0,002
-548,583	44,721	-0,053	0,036
-547,569	-200,000	0,003	-0,086
-546,554	-132,751	0,016	-0,001
-545,539	-111,031	-0,055	0,008
-544,525	88,186	0,073	-0,059
-543,510	199,649	-0,043	-0,048
-542,496	-17,026	-0,090	-0,041
-541,481	246,545	0,062	-0,077
-540,466	18,483	0,132	0,077
-539,452	270,648	0,021	-0,027
-538,437	-200,000	0,051	0,197
-537,423	227,268	0,127	0,152
-536,408	72,977	-0,091	-0,069
-535,393	506,206	0,041	0,070
-534,379	-200,000	0,032	-0,141
-533,364	86,230	0,069	-0,056
-532,350	800,000	-0,021	0,055
-531,335	762,416	0,076	0,151
-530,321	-88,565	-0,140	-0,030
-529,306	800,000	0,034	-0,079
-528,291	-34,407	-0,178	-0,071
-527,277	-28,799	-0,035	-0,015
-526,262	9,385	-0,131	0,072
-525,248	-162,535	0,063	-0,002
-524,233	499,809	0,027	-0,046
-523,218	800,000	-0,063	-0,142
-522,204	434,667	0,031	-0,050
-521,189	634,135	-0,105	-0,195
-520,175	717,175	-0,080	-0,157
-519,160	85,018	-0,057	-0,046
-518,145	94,080	0,120	-0,099
-517,131	226,029	0,045	-0,053
-516,116	-200,000	-0,024	0,091
-515,102	354,566	-0,089	0,129
-514,087	800,000	-0,052	-0,113
-513,072	193,022	-0,029	0,032
-512,058	334,447	0,073	0,104
-511,043	-97,931	0,011	-0,002
-510,029	43,964	0,173	0,115
-509,014	-48,003	-0,059	-0,021
-507,999	392,795	0,061	-0,094
-506,985	-95,607	0,010	-0,002
-505,970	3,020	0,081	-0,043
-504,956	-69,849	-0,060	-0,016
-503,941	-200,000	-0,002	-0,131
-502,926	474,546	-0,015	0,024
-501,912	-200,000	-0,011	0,112
-500,897	-35,605	0,077	0,030
-499,883	-142,041	-0,025	0,002
-498,868	-115,961	-0,003	0,000
-497,853	-35,052	0,056	0,022
-496,839	800,000	-0,030	0,064
-495,824	800,000	-0,022	0,061
-494,810	-200,000	0,016	0,098
-493,795	247,873	0,042	-0,051
-492,781	-71,039	-0,124	0,034
-491,766	35,913	0,046	-0,029
-490,751	438,159	0,055	-0,088
-489,737	-22,180	-0,044	-0,019
-488,722	21,601	-0,074	-0,044
-487,708	28,289	-0,060	0,037
-486,693	-84,249	0,060	0,014
-485,678	-200,000	-0,026	0,179
-484,664	9,642	-0,150	0,083
-483,649	-200,000	0,016	0,057
-482,635	-45,092	-0,086	-0,031
-481,620	30,084	0,115	-0,072
-480,605	553,439	0,046	0,082
-479,591	408,768	0,063	0,098
-478,576	-200,000	0,024	0,097
-477,562	149,597	0,018	0,018
-476,547	-30,320	-0,065	0,027
-475,532	-14,395	-0,030	-0,014
-474,518	800,000	-0,055	0,145
-473,503	800,000	-0,026	-0,080
-472,489	690,705	-0,011	0,020
-471,474	-100,980	-0,120	0,021
-470,459	359,703	-0,014	-0,020
-469,445	117,671	-0,040	-0,036
-468,430	-28,695	-0,155	-0,065
-467,416	-13,236	0,139	0,065
-466,401	-200,000	0,011	-0,038
-465,386	-200,000	0,000	0,077
-464,372	800,000	-0,025	-0,059
-463,357	444,376	-0,054	-0,087
-462,343	-125,311	-0,127	0,014
-461,328	-89,471	-0,088	0,019
-460,313	43,423	0,095	0,063
-459,299	800,000	0,024	0,060
-458,284	-75,906	-0,066	-0,017
-457,270	800,000	-0,050	0,143
-456,255	-159,120	0,089	0,004
-455,241	-93,378	-0,166	-0,033
-454,226	800,000	-0,062	-0,171
-453,211	589,925	-0,042	0,077
-452,197	800,000	0,032	0,068
-451,182	748,471	-0,049	-0,097
-450,168	527,389	0,048	0,083
-449,153	-81,762	0,029	0,007
-448,138	800,000	-0,024	-0,064
-447,124	-200,000	0,031	-0,099
-446,109	800,000	-0,017	-0,051
-445,095	-200,000	0,005	0,139
-444,080	213,188	0,036	0,042
-443,065	-5,183	0,054	-0,027
-442,051	-78,113	-0,043	-0,011
-441,036	81,632	-0,048	-0,038
-440,022	-200,000	-0,022	-0,078
-439,007	-113,042	0,103	0,015
-437,992	-72,571	-0,106	0,028
-436,978	182,125	0,046	-0,050
-435,963	-200,000	0,017	0,119
-434,949	374,412	-0,062	-0,092
-433,934	-88,999	-0,058	0,012
-432,919	82,281	-0,050	-0,039
-431,905	-200,000	0,000	-0,097
-430,890	-127,273	-0,064	-0,007
-429,876	106,269	0,023	-0,020
-428,861	484,517	-0,020	-0,034
-427,846	-200,000	-0,048	0,195
-426,832	-200,000	0,025	-0,093
-425,817	-8,602	-0,105	0,051
-424,803	-200,000	-0,003	-0,037
-423,788	800,000	0,031	0,068
-422,773	-145,510	0,159	0,010
-421,759	-11,088	0,087	0,042
-420,744	10,769	0,094	0,052
-419,730	-175,886	-0,059	0,001
-418,715	373,093	0,030	-0,044
-417,701	-26,179	0,042	-0,018
-416,686	800,000	0,023	0,073
-415,671	-200,000	0,038	0,146
-414,657	96,217	-0,029	-0,024
-413,642	-82,533	0,107	-0,025
-412,628	99,945	-0,027	-0,023
-411,613	-21,745	-0,053	-0,023
-410,598	-28,780	0,083	-0,035
-409,584	-15,736	0,058	0,027
-408,569	-2,194	0,070	0,035
-407,555	58,670	-0,052	0,037
-406,540	-200,000	-0,017	-0,094
-405,525	800,000	-0,043	0,100
-404,511	-80,378	-0,043	0,010
-403,496	-200,000	-0,002	0,056
-402,482	162,704	0,040	0,041
-401,467	800,000	0,053	0,123
-400,452	-200,000	0,006	0,062
-399,438	-132,247	-0,101	0,009
-398,423	-200,000	-0,010	-0,117
-397,409	-200,000	0,006	0,021
-396,394	-54,470	-0,083	-0,027
-395,379	800,000	0,041	-0,111
-394,365	-200,000	-0,009	0,043
-393,350	800,000	0,073	0,195
-392,336	-135,289	-0,103	0,009
-391,321	-200,000	0,004	0,062
-390,306	-200,000	-0,043	-0,200
-389,292	800,000	0,053	-0,170
-388,277	150,163	0,100	0,099
-387,263	93,732	-0,062	-0,051
-386,248	366,193	-0,034	-0,051
-385,233	800,000	0,041	-0,105
-384,219	-136,937	-0,108	0,009
-383,204	-32,364	-0,031	0,012
-382,190	-150,487	-0,166	-0,009
-381,175	-89,767	0,081	0,017
-380,160	60,770	-0,029	-0,021
-379,146	-200,000	0,004	0,044
-378,131	-200,000	0,027	0,172
-377,117	-49,999	-0,167	0,057
-376,102	-200,000	0,017	-0,191
-375,088	-200,000	0,010	-0,043
-374,073	-200,000	-0,014	0,081
-373,058	-200,000	-0,024	-0,165
-372,044	-54,661	-0,090	0,029
-371,029	-27,539	-0,085	0,036
-370,015	-164,493	-0,088	-0,003
-369,000	559,592	0,011	0,019
-367,985	-33,116	-0,096	-0,039
-366,971	800,000	-0,016	-0,036
-365,956	520,117	0,063	0,107
-364,942	-3,325	0,103	0,052
-363,927	-116,857	0,133	0,017
-362,912	800,000	0,053	-0,135
-361,898	-200,000	-0,003	0,053
-360,883	-120,440	-0,068	0,008
-359,869	-200,000	0,024	0,084
-358,854	469,933	0,015	0,025
-357,839	131,523	0,093	0,087
-356,825	-200,000	0,033	0,106
-355,810	800,000	-0,005	0,015
-354,796	192,618	0,037	-0,040
-353,781	-200,000	0,014	-0,135
-352,766	408,436	-0,026	-0,039
-351,752	-80,342	-0,012	0,003
-350,737	-57,534	0,057	0,018
-349,723	255,618	0,064	0,080
-348,708	65,484	-0,045	0,033
-347,693	186,047	-0,102	0,110
-346,679	-200,000	0,007	-0,024
-345,664	253,206	-0,020	-0,024
-344,650	20,062	0,027	0,015
-343,635	-101,031	-0,101	0,018
-342,620	98,060	-0,100	-0,084
-341,606	199,078	-0,046	-0,052
-340,591	-200,000	0,029	-0,097
-339,577	38,916	0,021	-0,014
-338,562	-200,000	-0,001	-0,019
-337,548	14,958	0,094	-0,053
-336,533	800,000	-0,045	-0,095
-335,518	527,614	0,073	-0,125
-334,504	-200,000	-0,001	0,050
-333,489	-200,000	0,003	-0,092
-332,475	115,194	0,099	0,088
-331,460	-57,264	-0,014	-0,004
-330,445	508,663	-0,068	0,115
-329,431	-97,068	-0,059	-0,011
-328,416	-64,560	0,131	-0,038
-327,402	413,050	-0,031	-0,048
-326,387	-200,000	-0,013	0,065
-325,372	451,379	-0,045	-0,073
-324,358	-200,000	0,019	-0,071
-323,343	331,561	0,032	0,044
-322,329	-142,440	0,114	0,008
-321,314	219,320	0,102	0,119
-320,299	800,000	0,085	0,172
-319,285	-200,000	-0,009	0,071
-318,270	150,149	-0,051	0,050
-317,256	49,865	-0,055	0,038
-316,241	73,784	0,108	-0,082
-315,226	29,230	0,125	0,077
-314,212	449,240	0,019	0,030
-313,197	117,221	-0,056	-0,050
-312,183	-200,000	0,008	0,071
-311,168	267,982	-0,072	0,091
-310,153	-200,000	-0,000	0,042
-309,139	-31,547	0,057	-0,023
-308,124	711,250	-0,007	0,014
-307,110	96,408	0,069	-0,057
-306,095	281,259	-0,024	0,031
-305,080	-47,405	-0,117	0,041
-304,066	409,994	0,095	-0,147
-303,051	31,571	-0,120	-0,075
-302,037	800,000	-0,015	-0,043
-301,022	-41,864	0,160	-0,059
-300,008	-200,000	-0,008	0,042
-298,993	716,140	0,027	0,053
-297,978	-200,000	0,035	-0,198
-296,964	45,012	-0,031	0,020
-295,949	800,000	-0,008	-0,020
-294,935	-22,607	-0,106	0,046
-293,920	-200,000	-0,004	0,067
-292,905	-200,000	-0,016	0,094
-291,891	-200,000	0,009	0,053
-290,876	65,655	0,077	0,057
-289,862	190,247	-0,063	0,068
-288,847	800,000	0,010	0,026
-287,832	800,000	0,041	0,105
-286,818	265,850	0,050	-0,063
-285,803	-25,148	-0,023	-0,010
-284,789	-200,000	-0,028	-0,144
-283,774	-200,000	0,003	-0,149
-282,759	89,321	-0,042	-0,034
-281,745	-200,000	-0,001	-0,080
-280,730	394,409	-0,086	0,130
-279,716	184,198	-0,010	-0,011
-278,701	110,129	0,131	0,114
-277,686	-200,000	0,002	-0,047
-276,672	0,134	0,074	0,038
-275,657	15,246	0,081	-0,046
-274,643	325,401	-0,036	-0,050
-273,628	30,135	-0,055	-0,034
-272,613	-200,000	-0,019	-0,062
-271,599	-200,000	0,009	-0,099
-270,584	-200,000	0,003	0,052
-269,570	-37,503	0,074	0,028
-268,555	-60,932	-0,075	0,023
-267,540	-70,221	-0,022	0,006
-266,526	-86,552	-0,088	-0,019
-265,511	-11,446	-0,040	0,019
-264,497	485,206	-0,071	-0,117
-263,482	116,328	0,109	0,096
-262,467	800,000	-0,037	0,105
-261,453	58,642	0,025	0,018
-260,438	-200,000	0,025	-0,084
-259,424	255,662	-0,037	0,046
-258,409	800,000	-0,019	0,057
-257,395	504,577	0,060	0,101
-256,380	-90,164	0,068	0,014
-255,365	69,654	0,088	0,066
-254,351	-200,000	-0,003	0,099
-253,336	-200,000	0,007	0,081
-252,322	800,000	-0,057	-0,116
-251,307	-12,681	-0,068	0,032
-250,292	-200,000	-0,003	0,060
-249,278	-200,000	-0,008	-0,064
-248,263	-7,507	0,107	-0,052
-247,249	-14,719	-0,077	0,035
-246,234	-145,728	-0,089	-0,006
-245,219	230,958	-0,051	-0,061
-244,205	-6,526	-0,145	0,071
-243,190	-200,000	-0,010	0,121
-242,176	29,599	0,111	0,068
-241,161	-56,756	0,096	0,031
-240,146	-200,000	-0,011	0,096
-239,132	158,635	-0,041	0,041
-238,117	-200,000	0,009	-0,116
-237,103	-65,481	-0,057	0,016
-236,088	-200,000	-0,007	-0,090
-235,073	61,351	-0,091	0,065
-234,059	397,763	0,039	0,059
-233,044	-200,000	-0,043	-0,176
-232,030	-200,000	0,016	-0,079
-231,015	-200,000	-0,042	-0,142
-230,000	-200,000	0,001	-0,134
-228,986	-87,191	0,111	0,024
-227,971	-87,455	-0,096	-0,021
-226,957	-200,000	-0,004	0,142
-225,942	-200,000	0,002	-0,081
-224,927	341,193	0,021	0,029
-223,913	382,501	0,043	0,064
-222,898	800,000	0,048	-0,151
-221,884	133,369	0,044	-0,041
-220,869	-200,000	-0,010	0,119
-219,855	-200,000	0,018	0,127
-218,840	66,700	0,188	0,138
-217,825	-200,000	0,005	0,048
-216,811	-37,898	-0,022	0,009
-215,796	-35,098	0,062	-0,024
-214,782	-200,000	0,003	-0,145
-213,767	-200,000	-0,029	0,094
-212,752	45,583	0,033	-0,022
-211,738	-200,000	0,012	0,088
-210,723	-74,015	-0,097	0,025
-209,709	-9,457	-0,051	-0,024
-208,694	201,226	-0,077	-0,085
-207,679	-200,000	0,013	-0,075
-206,665	-200,000	-0,000	0,023
-205,650	13,867	-0,020	0,011
-204,636	-136,626	0,143	-0,012
-203,621	252,869	-0,086	0,107
-202,606	190,741	-0,088	0,096
-201,592	800,000	-0,031	-0,069
-200,577	-200,000	0,000	0,078
-199,563	-1,831	-0,098	-0,050
-198,548	-200,000	-0,002	0,150
-197,533	-200,000	-0,009	-0,088
-196,519	282,975	-0,039	-0,050
-195,504	-193,189	-0,077	-0,000
-194,490	309,762	0,052	-0,070
-193,475	800,000	-0,011	-0,027
-192,460	406,848	0,039	-0,060
-191,446	299,979	0,011	0,014
-190,431	-58,361	0,037	-0,012
-189,417	-116,920	0,269	0,035
-188,402	-186,337	-0,039	-0,000
-187,387	243,567	0,061	0,073
-186,373	-84,794	-0,122	-0,027
-185,358	245,661	-0,064	-0,077
-184,344	-69,839	0,065	0,018
-183,329	-200,000	0,010	-0,096
-182,315	-200,000	0,018	0,105
-181,300	-11,162	0,112	-0,053
-180,285	-135,324	-0,041	0,003
-179,271	-34,294	-0,028	-0,011
-178,256	2,238	-0,040	-0,021
-177,242	307,047	0,041	-0,056
-176,227	800,000	0,046	0,118
-175,212	350,889	-0,032	-0,046
-174,198	-200,000	-0,025	0,167
-173,183	307,654	-0,089	-0,120
-172,169	-37,020	0,031	0,012
-171,154	-200,000	0,026	0,142
-170,139	27,845	0,086	0,052
-169,125	187,070	-0,091	0,098
-168,110	-145,725	0,072	0,005
-167,096	-122,375	0,117	0,014
-166,081	-200,000	-0,023	0,094
-165,066	-200,000	-0,023	-0,149
-164,052	3,047	-0,063	0,033
-163,037	65,798	0,086	0,063
-162,023	-94,806	-0,075	0,015
-161,008	-161,550	0,121	0,004
-159,993	-161,680	0,070	0,003
-158,979	573,439	0,031	-0,055
-157,964	768,329	0,029	-0,058
-156,950	-200,000	-0,003	-0,126
-155,935	59,377	-0,035	0,025
-154,920	156,391	-0,048	-0,047
-153,906	-110,215	0,098	-0,015
-152,891	455,856	0,009	-0,015
-151,877	96,001	-0,026	0,021
-150,862	-24,769	-0,079	-0,034
-149,847	800,000	-0,041	-0,085
-148,833	-49,370	0,044	0,015
-147,818	159,992	0,079	-0,079
-146,804	125,247	0,068	-0,062
-145,789	-35,629	-0,032	0,012
-144,775	-151,069	0,119	0,006
-143,760	-200,000	0,002	0,019
-142,745	18,482	0,151	0,087
-141,731	-200,000	0,032	-0,119
-140,716	67,825	0,044	0,033
-139,702	143,984	0,050	0,048
-138,687	-200,000	0,011	0,069
-137,672	-200,000	0,007	0,122
-136,658	-97,617	-0,194	0,036
-135,643	334,604	-0,043	0,060
-134,629	281,354	0,066	0,086
-133,614	453,412	-0,031	-0,050
-132,599	-31,240	-0,116	0,047
-131,585	800,000	0,067	0,157
-130,570	-142,113	-0,028	-0,002
-129,556	800,000	-0,044	-0,097
-128,541	-200,000	-0,002	0,012
-127,526	-200,000	-0,007	-0,048
-126,512	551,009	-0,070	0,122
-125,497	-48,084	0,016	0,006
-124,483	350,147	-0,027	-0,039
-123,468	20,558	-0,150	0,087
-122,453	735,213	-0,114	-0,220
-121,439	-200,000	0,007	0,141
-120,424	325,173	-0,023	0,032
-119,410	148,749	-0,105	0,103
-118,395	-12,433	0,092	0,043
-117,380	800,000	-0,026	0,066
-116,366	-115,361	0,157	-0,021
-115,351	800,000	0,027	0,060
-114,337	476,812	-0,044	0,072
-113,322	31,651	0,080	0,049
-112,307	357,475	-0,028	-0,041
-111,293	570,123	-0,081	0,143
-110,278	-200,000	0,037	0,194
-109,264	800,000	0,044	0,103
-108,249	-200,000	-0,002	-0,023
-107,234	-129,287	-0,068	0,007
-106,220	57,011	-0,051	-0,036
-105,205	-118,172	0,126	-0,016
-104,191	-200,000	0,007	-0,165
-103,176	-139,783	-0,152	-0,011
-102,162	-200,000	0,009	0,053
-101,147	-200,000	-0,027	-0,129
-100,132	-27,687	0,015	0,006
-99,118	-5,007	-0,032	0,016
-98,103	108,868	0,025	0,022
-97,089	-200,000	0,000	-0,019
-96,074	68,143	-0,053	0,039
-95,059	-200,000	0,031	0,106
-94,045	301,287	0,030	0,040
-93,030	-200,000	0,027	0,138
-92,016	-86,719	-0,039	-0,008
-91,001	-99,451	-0,063	0,011
-89,986	162,806	-0,067	0,067
-88,972	-200,000	-0,008	0,245
-87,957	-141,191	0,144	-0,010
-86,943	-138,399	-0,168	0,013
-85,928	315,683	0,043	-0,058
-84,913	-179,248	0,092	0,001
-83,899	-15,542	-0,079	-0,036
-82,884	-83,354	0,058	0,013
-81,870	27,600	-0,041	0,025
-80,855	-53,243	0,124	0,041
-79,840	492,994	0,033	0,055
-78,826	-158,905	-0,095	0,004
-77,811	-200,000	-0,045	-0,301
-76,797	23,630	0,082	0,049
-75,782	-200,000	-0,042	0,173
-74,767	800,000	-0,029	0,070
-73,753	-200,000	0,001	-0,053
-72,738	88,247	0,079	0,063
-71,724	-37,530	0,187	-0,071
-70,709	-200,000	-0,024	-0,123
-69,694	-200,000	0,009	0,034
-68,680	134,999	0,135	-0,126
-67,665	193,061	-0,040	-0,043
-66,651	-200,000	0,010	0,104
-65,636	-42,679	-0,120	-0,044
-64,622	86,780	0,027	-0,022
-63,607	-58,978	-0,091	-0,028
-62,592	800,000	-0,046	0,106
-61,578	-16,104	0,119	0,054
-60,563	-68,364	0,092	0,026
-59,549	97,355	0,145	0,120
-58,534	16,256	-2,088	-1,179
-57,519	-200,000	-0,239	-0,828
-56,505	-200,000	-1,199	-5,031
-55,490	68,727	0,853	0,627
-54,476	800,000	5,205	11,982
-53,461	-200,000	18,047	290,757
-52,446	800,000	727,275	2229,887
-51,432	536,001	1639,800	2803,467
-50,417	109,406	1629,576	1400,191
-49,403	73,074	1283,552	961,703
-48,388	31,464	1026,094	631,338
-47,373	19,906	988,327	570,020
-46,359	18,264	976,313	557,688
-45,344	15,533	972,384	546,493
-44,330	15,718	971,011	546,305
-43,315	15,265	969,263	543,822
-42,300	15,191	968,048	542,878
-41,286	15,208	967,027	542,341
-40,271	15,223	965,776	541,666
-39,257	15,255	965,185	541,416
-38,242	15,216	964,508	540,890
-37,227	15,226	963,409	540,282
-36,213	15,227	962,614	539,818
-35,198	15,209	961,631	539,189
-34,184	15,245	961,064	538,966
-33,169	15,194	960,050	538,209
-32,154	15,259	959,212	537,929
-31,140	15,204	958,300	537,219
-30,125	15,254	957,522	536,922
-29,111	15,266	956,705	536,483
-28,096	15,248	956,191	536,114
-27,082	15,272	955,302	535,672
-26,067	15,214	954,696	535,124
-25,052	15,226	953,816	534,650
-24,038	15,208	953,135	534,186
-23,023	15,193	952,569	533,800
-22,009	15,217	951,890	533,475
-20,994	15,219	951,262	533,110
-19,979	15,303	950,506	532,934
-18,965	15,306	949,817	532,536
-17,950	15,265	949,325	532,109
-16,936	15,176	948,844	531,532
-15,921	15,246	947,885	531,197
-14,906	15,094	947,590	530,525
-13,892	15,151	946,712	530,194
-12,877	15,140	945,989	529,733
-11,863	15,084	945,413	529,214
-10,848	15,124	944,938	529,053
-9,833	15,283	944,383	529,228
-8,819	15,277	943,824	528,872
-7,804	15,159	943,225	528,143
-6,790	15,130	942,713	527,743
-5,775	15,180	942,142	527,560
-4,760	15,199	941,428	527,199
-3,746	15,150	940,825	526,685
-2,731	15,029	939,970	525,804
-1,717	14,989	939,515	525,403
-0,702	14,999	938,807	525,016
0,313	14,758	938,213	524,717
1,327	18,217	936,084	534,365
2,342	27,350	789,731	474,875
3,356	23,919	444,625	262,254
4,371	-5,820	295,749	144,686
5,386	-9,466	277,302	132,192
6,400	-10,981	271,482	127,998
7,415	-11,055	269,329	126,904
8,429	-10,987	267,883	126,273
9,444	-11,093	266,985	125,742
10,459	-10,991	266,283	125,493
11,473	-11,049	265,698	125,154
12,488	-11,153	265,239	124,832
13,502	-11,384	264,579	124,301
14,517	-11,408	264,263	124,120
15,531	-11,453	264,003	123,946
16,546	-11,187	263,623	123,996
17,561	-11,134	262,954	123,718
18,575	-11,113	262,769	123,639
19,590	-11,298	262,566	123,366
20,604	-11,245	262,084	123,176
21,619	-11,199	261,862	123,102
22,634	-11,307	261,454	122,803
23,648	-11,316	261,092	122,613
24,663	-11,385	261,028	122,512
25,677	-11,287	260,659	122,415
26,692	-11,200	260,460	122,388
27,707	-11,206	260,133	122,218
28,721	-11,248	259,973	122,095
29,736	-11,275	259,460	121,819
30,750	-11,400	259,278	121,611
31,765	-11,394	259,080	121,513
32,780	-11,309	258,689	121,395
33,794	-11,426	258,565	121,222
34,809	-11,218	258,323	121,281
35,823	-11,535	258,151	120,910
36,838	-11,581	257,898	120,740
37,853	-11,509	257,620	120,663
38,867	-11,429	257,333	120,588
39,882	-11,374	257,106	120,519
40,896	-11,383	256,913	120,410
41,911	-11,487	256,675	120,196
42,926	-11,408	256,448	120,148
43,940	-11,464	256,107	119,929
44,955	-11,545	256,021	119,807
45,969	-11,638	255,931	119,673
46,984	-11,770	255,436	119,316
47,999	-12,021	255,172	118,963
49,013	-12,065	254,912	118,793
50,028	-12,251	254,682	118,514
51,042	-12,315	254,376	118,306
52,057	-12,345	254,105	118,143
53,071	-12,171	253,986	118,227
54,086	-12,165	253,808	118,140
55,101	-12,199	253,567	117,987
56,115	-11,898	253,639	118,271
57,130	-11,332	253,397	118,637
58,144	-11,247	253,401	118,701
59,159	-11,058	253,064	118,696
60,174	-11,285	252,929	118,426
61,188	-11,322	252,705	118,279
62,203	-11,423	252,484	118,078
63,217	-11,257	252,213	118,084
64,232	-11,271	251,943	117,935
65,247	-11,255	251,834	117,887
66,261	-11,351	251,630	117,698
67,276	-11,643	251,372	117,317
68,290	-11,715	251,091	117,114
69,305	-11,908	250,843	116,823
70,320	-11,966	250,756	116,722
71,334	-11,396	250,531	117,094
72,349	-11,312	250,363	117,076
73,363	-11,227	250,200	117,062
74,378	-11,270	250,042	116,941
75,393	-11,252	249,733	116,801
76,407	-11,062	249,547	116,865
77,422	-11,293	249,417	116,598
78,436	-11,438	249,192	116,359
79,451	-11,213	248,843	116,376
80,466	-11,433	248,843	116,180
81,480	-11,521	248,374	115,876
82,495	-11,646	248,276	115,715
83,509	-11,682	248,032	115,560
84,524	-11,630	247,888	115,527
85,539	-11,800	247,635	115,255
86,553	-11,842	247,443	115,121
87,568	-11,680	247,226	115,145
88,582	-11,617	247,072	115,117
89,597	-11,697	246,954	114,984
90,611	-11,609	246,909	115,027
91,626	-11,282	246,533	115,115
92,641	-11,188	246,316	115,082
93,655	-11,421	246,125	114,788
94,670	-11,499	246,020	114,663
95,684	-11,610	245,777	114,447
96,699	-11,546	245,606	114,411
97,714	-11,560	245,519	114,349
98,728	-11,619	245,282	114,178
99,743	-11,696	244,908	113,930
100,757	-11,799	244,770	113,770
101,772	-11,890	244,616	113,613
102,787	-11,814	244,424	113,577
103,801	-11,542	244,237	113,705
104,816	-11,436	244,109	113,724
105,830	-11,423	243,947	113,648
106,845	-11,474	243,880	113,564
107,860	-11,415	243,719	113,529
108,874	-11,675	243,471	113,188
109,889	-11,592	243,010	113,032
110,903	-11,518	242,892	113,029
111,918	-11,797	242,789	112,740
112,933	-11,545	242,681	112,888
113,947	-11,529	242,422	112,770
114,962	-11,584	242,362	112,687
115,976	-11,596	242,054	112,524
116,991	-11,565	242,022	112,524
118,006	-11,362	241,679	112,522
119,020	-11,444	241,618	112,415
120,035	-11,333	241,491	112,437
121,049	-11,067	241,399	112,602
122,064	-11,326	241,146	112,263
123,079	-11,278	240,849	112,154
124,093	-11,393	240,512	111,893
125,108	-11,925	240,563	111,473
126,122	-11,908	240,173	111,296
127,137	-11,837	239,911	111,223
128,151	-11,734	239,884	111,283
129,166	-11,635	239,668	111,254
130,181	-11,789	239,452	111,019
131,195	-11,886	239,363	110,889
132,210	-11,707	239,300	110,995
133,224	-11,480	238,986	111,023
134,239	-11,292	238,811	111,084
135,254	-11,490	238,698	110,861
136,268	-11,509	238,383	110,690
137,283	-11,842	238,185	110,320
138,297	-11,925	237,950	110,134
139,312	-11,925	237,830	110,069
140,327	-11,532	237,717	110,323
141,341	-11,209	237,650	110,542
142,356	-11,075	237,521	110,580
143,370	-11,228	237,596	110,482
144,385	-11,111	237,228	110,395
145,400	-11,058	237,058	110,348
146,414	-11,068	236,888	110,251
147,429	-11,185	236,682	110,052
148,443	-11,205	236,641	110,007
149,458	-11,220	236,358	109,854
150,473	-11,149	236,128	109,793
151,487	-11,387	236,069	109,566
152,502	-11,082	235,799	109,674
153,516	-11,156	235,727	109,572
154,531	-11,203	235,407	109,377
155,546	-11,135	235,318	109,379
156,560	-11,291	235,199	109,190
157,575	-11,386	234,921	108,976
158,589	-11,276	234,729	108,964
159,604	-11,299	234,764	108,953
160,619	-11,004	234,531	109,069
161,633	-11,068	234,446	108,969
162,648	-10,954	234,319	108,990
163,662	-10,964	233,984	108,817
164,677	-11,310	233,911	108,500
165,692	-11,246	233,668	108,428
166,706	-10,863	233,564	108,672
167,721	-11,160	233,523	108,409
168,735	-10,827	233,191	108,507
169,750	-10,994	233,140	108,342
170,764	-11,022	233,019	108,255
171,779	-11,123	232,810	108,069
172,794	-10,901	232,751	108,206
173,808	-11,174	232,459	107,846
174,823	-11,787	231,997	107,143
175,837	-11,697	231,948	107,181
176,852	-11,397	232,033	107,445
177,867	-11,240	231,913	107,503
178,881	-11,110	231,895	107,587
179,896	-11,079	231,573	107,452
180,910	-11,173	231,493	107,332
181,925	-11,113	231,274	107,267
182,940	-11,093	231,235	107,256
183,954	-10,999	230,945	107,185
184,969	-10,855	230,810	107,224
185,983	-10,886	230,772	107,173
186,998	-10,750	230,471	107,130
188,013	-10,960	230,445	106,945
189,027	-10,779	230,114	106,922
190,042	-10,863	229,917	106,756
191,056	-10,778	229,968	106,836
192,071	-10,681	229,623	106,741
193,086	-11,071	229,633	106,434
194,100	-10,846	229,462	106,519
195,115	-11,160	228,904	106,009
196,129	-11,153	229,107	106,099
197,144	-5,608	230,954	111,253
198,159	0,499	232,688	116,843
199,173	3,089	233,392	119,208
200,188	3,144	233,324	119,206
201,202	3,230	233,213	119,205
202,217	3,579	232,972	119,343
203,232	3,806	232,938	119,491
204,246	3,791	232,912	119,456
205,261	3,912	232,688	119,424
206,275	3,969	232,608	119,416
207,290	3,888	232,592	119,335
208,304	4,144	232,182	119,312
209,319	3,950	232,017	119,067
210,334	3,914	231,815	118,924
211,348	3,629	231,562	118,564
212,363	3,367	231,416	118,276
213,377	3,235	231,163	118,035
214,392	2,912	231,125	117,755
215,407	3,200	230,973	117,889
216,421	3,342	230,984	117,993
217,436	3,241	230,656	117,738
218,450	3,163	230,343	117,508
219,465	2,863	230,162	117,175
220,480	2,934	230,117	117,196
221,494	3,048	229,958	117,191
222,509	3,265	229,949	117,343
223,523	3,120	229,847	117,170
224,538	3,352	229,542	117,181
225,553	3,267	229,414	117,040
226,567	3,221	229,336	116,954
227,582	3,392	229,337	117,076
228,596	3,566	229,155	117,106
229,611	3,228	228,887	116,700
230,626	2,922	228,678	116,350
231,640	3,023	228,405	116,278
232,655	3,178	228,443	116,404
233,669	3,730	228,325	116,754
234,684	4,065	228,184	116,926
235,699	3,530	228,046	116,438
236,713	3,264	227,871	116,137
237,728	3,395	227,642	116,109
238,742	3,186	227,370	115,802
239,757	3,197	227,279	115,753
240,772	3,182	227,091	115,636
241,786	3,199	226,978	115,581
242,801	3,263	227,019	115,640
243,815	3,610	226,961	115,863
244,830	3,619	226,765	115,759
245,844	3,368	226,493	115,421
246,859	3,384	226,304	115,326
247,874	3,545	226,161	115,363
248,888	3,497	226,066	115,269
249,903	3,364	225,851	115,049
250,917	3,216	225,537	114,768
251,932	3,090	225,608	114,699
252,947	3,125	225,395	114,606
253,961	3,137	225,179	114,496
254,976	2,947	225,262	114,385
255,990	3,418	225,085	114,637
257,005	3,519	224,915	114,617
258,020	3,358	224,856	114,456
259,034	3,452	224,788	114,481
260,049	3,394	224,595	114,330
261,063	3,482	224,173	114,170
262,078	3,369	224,385	114,184
263,093	3,776	224,083	114,323
264,107	3,639	223,790	114,061
265,122	3,606	223,795	114,029
266,136	3,667	223,743	114,038
267,151	3,730	223,501	113,951
268,166	3,160	223,220	113,375
269,180	2,761	223,063	112,990
270,195	3,082	222,888	113,128
271,209	3,112	222,835	113,114
272,224	3,080	222,793	113,059
273,239	3,286	222,542	113,073
274,253	3,193	222,344	112,894
275,268	3,060	222,255	112,741
276,282	3,005	222,027	112,574
277,297	2,964	221,853	112,446
278,312	3,067	221,755	112,462
279,326	3,066	221,720	112,433
280,341	3,266	221,601	112,510
281,355	3,405	221,392	112,496
282,370	3,119	221,192	112,175
283,384	2,980	220,978	111,955
284,399	2,688	220,883	111,682
285,414	2,910	220,685	111,735
286,428	3,093	220,810	111,922
287,443	3,286	220,756	112,026
288,457	3,389	220,402	111,912
289,472	3,253	220,262	111,731
290,487	2,737	220,048	111,236
291,501	2,780	219,744	111,104
292,516	2,687	219,895	111,103
293,530	2,747	219,676	111,025
294,545	2,795	219,571	110,998
295,560	2,997	219,250	110,972
296,574	2,985	219,350	111,005
297,589	3,228	219,192	111,091
298,603	3,358	219,013	111,084
299,618	3,364	218,870	111,006
300,633	3,355	218,757	110,933
301,647	3,441	218,790	111,002
302,662	3,508	218,642	110,966
303,676	3,382	218,454	110,769
304,691	3,400	218,378	110,733
305,706	3,302	218,075	110,500
306,720	3,233	217,960	110,381
307,735	3,155	217,687	110,177
308,749	2,995	217,615	110,015
309,764	3,303	217,525	110,182
310,779	3,427	217,460	110,228
311,793	3,153	217,320	109,951
312,808	3,253	217,220	109,962
313,822	3,191	216,944	109,768
314,837	3,164	216,714	109,623
315,852	3,070	216,559	109,467
316,866	3,023	216,609	109,449
317,881	3,390	216,552	109,673
318,895	3,307	216,195	109,423
319,910	3,090	216,080	109,200
320,925	3,041	215,823	109,026
321,939	2,615	215,744	108,672
322,954	2,815	215,723	108,794
323,968	3,246	215,714	109,087
324,983	3,258	215,469	108,963
325,997	3,352	215,330	108,949
327,012	3,091	215,091	108,633
328,027	3,223	215,038	108,691
329,041	3,694	215,157	109,076
330,056	3,604	214,911	108,877
331,070	3,290	214,622	108,498
332,085	3,049	214,412	108,213
333,100	3,294	214,354	108,346
334,114	3,199	214,366	108,276
335,129	3,295	214,047	108,173
336,143	3,207	213,806	107,979
337,158	3,048	213,900	107,905
338,173	3,059	213,726	107,816
339,187	3,012	213,485	107,651
340,202	3,099	213,253	107,586
341,216	2,994	213,224	107,487
342,231	3,246	212,997	107,540
343,246	2,851	213,041	107,275
344,260	3,012	212,861	107,288
345,275	3,087	212,608	107,204
346,289	3,287	212,568	107,315
347,304	3,361	212,471	107,308
348,319	3,294	212,160	107,095
349,333	3,087	212,198	106,959
350,348	3,359	211,977	107,028
351,362	3,314	211,994	106,996
352,377	3,599	211,866	107,120
353,392	3,298	211,677	106,806
354,406	3,299	211,492	106,704
355,421	196,581	1341,582	1422,813
356,435	157,065	1479,250	1422,791
