DTS Sentinel unit serial number:	SN410029Multiplexer serial number:	ORYXHardware model number:	OX2-SRSoftware version number:	ORYX F/W v4,00 Oryx Data Collector v3.7.2.0data status	okinstallation	B6 Nyhavnadifferential loss correction	single-endedforward channel	channel 2reverse channel	N/Adate	2023/12/09time	19:30:08forward acquisition time	300,00reverse acquisition time	0,00gamma	499,1914k internal	0,3131k external	0,3131temperature offset calibration	1,0000default loss term (dB/km)	0,3820temperature slope calibration	1,0000multiplexer offset coefficient	1,0000multiplexer slope coefficient	1,0000fibre end	0,00T internal ref (°C)	21,12T ext. ref 1 (°C)	5,03T ext. ref 2 (°C)	4,99length (m)	temperature (°C)	Stokes	anti-Stokes-744,400	800,000	0,017	-0,036
-743,385	-131,320	-0,268	0,026
-742,371	286,151	0,104	0,140
-741,356	17,147	-0,209	0,123
-740,342	-22,180	0,090	0,040
-739,327	6,692	-0,222	0,122
-738,312	-64,259	0,081	-0,025
-737,298	-32,270	-0,273	-0,113
-736,283	800,000	0,042	0,090
-735,269	-104,913	-0,163	0,028
-734,254	31,233	0,065	-0,041
-733,239	-22,924	-0,294	-0,131
-732,225	-14,102	0,059	0,028
-731,210	-200,000	-0,003	-0,024
-730,196	-200,000	0,030	-0,135
-729,181	-200,000	-0,006	0,027
-728,167	251,151	0,104	-0,131
-727,152	-28,128	0,135	-0,058
-726,137	-129,194	0,036	0,004
-725,123	-200,000	-0,007	0,070
-724,108	8,833	-0,090	-0,051
-723,094	338,137	-0,057	-0,082
-722,079	800,000	0,049	-0,104
-721,064	-42,453	0,046	-0,017
-720,050	800,000	0,013	0,031
-719,035	-173,131	-0,063	-0,001
-718,021	-12,048	-0,095	0,046
-717,006	-200,000	0,014	0,109
-715,991	-200,000	0,029	-0,125
-714,977	205,762	-0,022	0,025
-713,962	-200,000	0,017	-0,062
-712,948	-15,188	0,102	-0,048
-711,933	115,272	-0,109	0,099
-710,918	295,502	-0,096	0,130
-709,904	1,071	-0,072	-0,038
-708,889	73,589	-0,023	0,018
-707,875	98,212	-0,041	-0,035
-706,860	73,583	0,030	-0,024
-705,845	-200,000	0,018	-0,138
-704,831	-40,095	0,014	-0,005
-703,816	-200,000	0,020	-0,168
-702,802	-200,000	-0,014	0,059
-701,787	-64,505	-0,020	0,006
-700,772	636,249	-0,065	-0,124
-699,758	796,796	-0,079	-0,162
-698,743	-175,077	0,118	0,002
-697,729	-106,028	0,073	-0,012
-696,714	-200,000	-0,127	-0,000
-695,699	-41,349	-0,150	0,057
-694,685	-4,182	-0,096	0,049
-693,670	-30,175	-0,124	-0,052
-692,656	179,418	0,014	-0,015
-691,641	119,256	-0,035	0,032
-690,627	648,405	0,052	0,100
-689,612	800,000	-0,023	0,063
-688,597	89,592	-0,010	-0,008
-687,583	800,000	-0,093	-0,193
-686,568	-200,000	-0,002	0,022
-685,554	80,855	-0,046	-0,037
-684,539	-34,013	0,032	-0,013
-683,524	-27,695	-0,071	0,030
-682,510	361,687	-0,052	0,078
-681,495	-121,657	-0,122	0,015
-680,481	-200,000	-0,014	-0,071
-679,466	800,000	0,063	-0,142
-678,451	-111,583	-0,087	0,013
-677,437	-200,000	0,003	-0,017
-676,422	77,091	0,018	-0,014
-675,408	-93,883	-0,090	-0,018
-674,393	-200,000	-0,009	0,088
-673,378	-107,422	-0,041	-0,007
-672,364	-200,000	0,002	0,070
-671,349	800,000	0,017	-0,046
-670,335	800,000	-0,013	0,030
-669,320	-56,257	0,086	-0,028
-668,305	-45,689	-0,151	0,055
-667,291	800,000	0,017	-0,051
-666,276	-31,928	-0,061	-0,025
-665,262	459,171	-0,082	0,136
-664,247	90,532	0,015	-0,013
-663,232	-48,790	0,043	-0,015
-662,218	-57,079	0,021	-0,007
-661,203	152,288	-0,151	0,153
-660,189	-51,612	-0,089	0,031
-659,174	80,889	-0,100	-0,080
-658,159	-131,179	-0,101	0,010
-657,145	-19,260	-0,091	0,042
-656,130	408,462	-0,016	0,025
-655,116	130,093	0,127	0,121
-654,101	72,768	-0,088	0,068
-653,086	80,546	-0,052	0,041
-652,072	800,000	-0,035	-0,077
-651,057	-147,536	-0,104	0,006
-650,043	379,501	-0,060	-0,092
-649,028	110,046	0,053	0,047
-648,014	800,000	0,042	-0,098
-646,999	800,000	-0,034	0,105
-645,984	-200,000	-0,005	-0,053
-644,970	-149,092	-0,103	0,006
-643,955	-200,000	-0,007	0,080
-642,941	-200,000	-0,012	-0,045
-641,926	-125,267	0,113	-0,013
-640,911	800,000	0,043	0,100
-639,897	470,999	-0,012	-0,020
-638,882	-200,000	-0,018	-0,141
-637,868	-200,000	-0,014	-0,083
-636,853	450,687	-0,100	-0,164
-635,838	-200,000	-0,020	-0,111
-634,824	-200,000	0,020	-0,087
-633,809	-146,408	-0,122	-0,008
-632,795	734,507	-0,058	0,115
-631,780	25,385	0,082	0,051
-630,765	750,075	-0,043	0,086
-629,751	800,000	0,032	-0,078
-628,736	-95,406	-0,064	0,013
-627,722	90,336	0,038	0,032
-626,707	26,335	0,035	-0,021
-625,692	218,687	0,091	0,108
-624,678	-200,000	-0,013	0,126
-623,663	726,376	-0,061	0,121
-622,649	-125,250	-0,056	-0,006
-621,634	55,005	0,042	-0,030
-620,619	121,624	-0,120	-0,110
-619,605	127,959	0,038	-0,036
-618,590	172,528	-0,077	0,083
-617,576	-200,000	-0,020	0,192
-616,561	-200,000	0,025	0,084
-615,546	189,055	0,018	0,020
-614,532	160,752	-0,030	-0,031
-613,517	672,031	0,057	-0,109
-612,503	486,252	-0,007	0,011
-611,488	34,034	0,057	0,037
-610,474	84,240	0,108	-0,087
-609,459	-200,000	0,009	0,090
-608,444	134,727	-0,076	-0,073
-607,430	524,254	-0,118	-0,206
-606,415	-200,000	0,003	-0,152
-605,401	194,550	0,040	-0,044
-604,386	-103,080	0,083	-0,014
-603,371	-118,756	-0,102	-0,013
-602,357	-94,465	-0,191	0,038
-601,342	-126,666	-0,143	-0,015
-600,328	197,590	-0,065	0,073
-599,313	-200,000	0,007	0,101
-598,298	668,199	-0,043	-0,082
-597,284	-200,000	-0,007	0,033
-596,269	-200,000	0,002	-0,009
-595,255	281,285	-0,032	0,042
-594,240	59,464	0,041	0,030
-593,225	-200,000	-0,024	-0,087
-592,211	800,000	0,029	-0,083
-591,196	-19,700	-0,136	-0,062
-590,182	-200,000	0,002	-0,183
-589,167	39,893	0,081	0,054
-588,152	733,409	-0,045	0,090
-587,138	68,402	0,168	0,127
-586,123	50,216	-0,016	-0,011
-585,109	206,307	-0,041	0,047
-584,094	156,906	-0,036	0,037
-583,079	60,428	0,086	-0,063
-582,065	-54,348	0,131	0,044
-581,050	621,706	0,075	0,140
-580,036	-200,000	-0,014	0,048
-579,021	177,209	-0,068	-0,074
-578,006	-14,559	-0,153	-0,072
-576,992	-144,518	-0,103	-0,007
-575,977	-41,261	-0,014	-0,005
-574,963	145,955	-0,077	-0,077
-573,948	-200,000	0,011	-0,094
-572,934	61,969	-0,060	0,044
-571,919	-97,998	-0,087	-0,016
-570,904	386,662	0,042	-0,064
-569,890	-120,937	-0,065	-0,008
-568,875	-105,395	0,204	0,034
-567,861	-14,958	0,083	-0,039
-566,846	-200,000	0,027	0,162
-565,831	204,445	-0,089	0,102
-564,817	-17,917	-0,121	0,056
-563,802	89,220	-0,037	0,031
-562,788	267,993	0,069	0,089
-561,773	-31,485	0,025	0,010
-560,758	50,034	0,040	0,028
-559,744	44,639	0,066	-0,045
-558,729	800,000	0,019	0,049
-557,715	-75,495	0,059	-0,015
-556,700	115,999	0,021	0,019
-555,685	-21,518	-0,126	0,056
-554,671	98,271	0,085	0,073
-553,656	132,419	-0,055	-0,053
-552,642	348,611	0,021	0,030
-551,627	-48,569	0,005	0,002
-550,612	46,768	-0,084	0,057
-549,598	90,125	0,035	0,029
-548,583	779,904	-0,006	0,012
-547,569	129,146	0,118	-0,111
-546,554	800,000	-0,015	-0,046
-545,539	571,427	0,035	0,062
-544,525	167,626	-0,023	0,025
-543,510	-167,377	0,108	-0,003
-542,496	-25,361	-0,092	0,040
-541,481	83,530	0,120	-0,096
-540,466	800,000	0,076	-0,192
-539,452	-200,000	0,003	0,121
-538,437	-200,000	0,035	0,116
-537,423	-200,000	-0,002	0,021
-536,408	46,708	-0,026	0,018
-535,393	800,000	-0,004	0,009
-534,379	-86,852	-0,013	-0,003
-533,364	-121,379	-0,060	-0,007
-532,350	-38,155	0,108	-0,042
-531,335	118,511	-0,086	0,078
-530,321	-187,990	0,140	0,001
-529,306	-30,567	-0,023	0,010
-528,291	-200,000	0,024	-0,159
-527,277	-176,975	-0,143	-0,003
-526,262	-200,000	0,011	-0,083
-525,248	121,767	-0,145	0,133
-524,233	-200,000	0,065	0,240
-523,218	-28,125	0,130	0,055
-522,204	800,000	0,045	0,119
-521,189	-200,000	-0,003	0,033
-520,175	171,343	0,052	0,055
-519,160	-119,109	-0,093	0,012
-518,145	-116,171	0,061	0,008
-517,131	-57,807	0,113	0,036
-516,116	538,835	-0,024	0,041
-515,102	17,261	-0,128	-0,075
-514,087	-142,187	-0,137	-0,010
-513,072	-39,614	-0,084	-0,032
-512,058	76,858	-0,056	-0,044
-511,043	198,488	0,035	-0,039
-510,029	80,702	0,067	-0,053
-509,014	34,879	0,135	0,087
-507,999	81,622	0,059	-0,047
-506,985	356,880	0,068	-0,101
-505,970	749,841	-0,053	-0,106
-504,956	-200,000	-0,004	0,110
-503,941	50,578	-0,083	0,058
-502,926	-200,000	-0,011	0,156
-501,912	51,255	-0,059	0,041
-500,897	-3,100	0,162	-0,083
-499,883	-200,000	-0,009	0,109
-498,868	286,986	-0,086	-0,114
-497,853	-48,923	0,039	0,014
-496,839	-170,389	0,107	0,003
-495,824	-115,886	0,021	0,003
-494,810	111,819	0,061	0,054
-493,795	800,000	0,040	0,090
-492,781	-64,841	0,068	0,020
-491,766	-200,000	-0,003	0,037
-490,751	187,085	-0,018	0,020
-489,737	-109,347	0,082	-0,013
-488,722	-163,406	0,038	-0,001
-487,708	-33,152	0,149	-0,060
-486,693	800,000	-0,054	-0,124
-485,678	800,000	0,042	0,094
-484,664	-139,890	-0,135	-0,010
-483,649	254,139	-0,045	-0,057
-482,635	102,511	0,048	-0,041
-481,620	69,124	0,061	-0,046
-480,605	240,549	0,028	-0,034
-479,591	19,147	-0,110	-0,065
-478,576	-129,314	0,096	-0,010
-477,562	-200,000	0,000	-0,127
-476,547	800,000	-0,009	-0,027
-475,532	489,224	-0,077	-0,129
-474,518	515,854	-0,054	-0,093
-473,503	800,000	-0,077	0,228
-472,489	-31,626	0,129	0,053
-471,474	800,000	0,026	0,082
-470,459	91,945	-0,090	0,075
-469,445	195,142	0,027	-0,030
-468,430	349,124	0,042	-0,062
-467,416	-200,000	0,010	0,066
-466,401	-200,000	0,025	0,144
-465,386	36,273	0,212	0,137
-464,372	-200,000	-0,016	-0,066
-463,357	227,983	-0,077	0,092
-462,343	80,944	0,083	-0,066
-461,328	112,188	-0,041	0,036
-460,313	-200,000	0,013	-0,151
-459,299	-200,000	-0,010	0,064
-458,284	530,031	0,021	-0,037
-457,270	-200,000	-0,002	0,094
-456,255	586,645	-0,069	-0,124
-455,241	115,517	-0,066	0,060
-454,226	-200,000	0,020	-0,072
-453,211	0,328	-0,107	0,056
-452,197	760,488	0,048	0,097
-451,182	800,000	-0,037	0,078
-450,168	-116,378	-0,092	0,012
-449,153	113,110	-0,038	-0,034
-448,138	93,800	0,054	0,045
-447,124	90,399	-0,102	-0,084
-446,109	800,000	0,020	-0,044
-445,095	108,828	-0,032	-0,028
-444,080	445,461	0,094	0,153
-443,065	-127,846	0,106	0,011
-442,051	800,000	-0,030	0,092
-441,036	-200,000	0,021	-0,165
-440,022	-200,000	0,008	-0,134
-439,007	767,435	0,006	0,013
-437,992	160,777	0,135	0,139
-436,978	7,786	-0,058	0,032
-435,963	353,281	0,007	-0,011
-434,949	-109,201	-0,155	-0,024
-433,934	396,743	-0,102	0,157
-432,919	289,597	0,010	-0,014
-431,905	-13,111	-0,133	-0,063
-430,890	800,000	0,039	-0,104
-429,876	6,427	0,108	-0,059
-428,861	216,989	0,100	0,117
-427,846	800,000	0,043	0,110
-426,832	220,223	-0,037	-0,043
-425,817	-200,000	-0,028	-0,128
-424,803	-88,887	-0,068	-0,015
-423,788	8,030	0,105	0,057
-422,773	5,304	0,087	-0,047
-421,759	-14,575	-0,038	-0,018
-420,744	371,373	0,062	-0,093
-419,730	-200,000	-0,003	0,019
-418,715	40,522	-0,047	-0,031
-417,701	-200,000	0,010	0,050
-416,686	800,000	-0,087	-0,177
-415,671	800,000	0,025	0,054
-414,657	86,183	0,059	0,048
-413,642	-200,000	-0,014	0,068
-412,628	6,240	-0,096	-0,052
-411,613	-47,462	0,024	-0,009
-410,598	800,000	-0,048	-0,125
-409,584	591,208	0,019	0,034
-408,569	-200,000	0,019	-0,094
-407,555	-58,200	0,077	0,024
-406,540	-200,000	0,023	0,191
-405,525	-16,834	-0,028	-0,013
-404,511	-200,000	-0,027	-0,123
-403,496	4,650	-0,064	-0,035
-402,482	-200,000	0,008	0,108
-401,467	122,953	0,039	0,036
-400,452	-82,168	-0,156	0,037
-399,438	-200,000	0,028	0,157
-398,423	-200,000	-0,017	-0,058
-397,409	-58,330	-0,046	-0,015
-396,394	-6,692	-0,072	-0,036
-395,379	-200,000	-0,017	0,074
-394,365	160,596	0,124	0,127
-393,350	-200,000	0,002	0,065
-392,336	-200,000	-0,041	0,135
-391,321	163,889	0,025	-0,025
-390,306	193,608	-0,066	-0,073
-389,292	-41,996	0,059	0,022
-388,277	-121,297	0,012	0,001
-387,263	-24,120	-0,017	0,007
-386,248	304,589	0,056	0,077
-385,233	340,171	0,084	0,120
-384,219	800,000	-0,026	0,062
-383,204	673,368	-0,057	-0,109
-382,190	176,138	-0,049	-0,052
-381,175	-97,193	-0,114	0,022
-380,160	-44,051	0,140	0,051
-379,146	-125,011	0,075	-0,008
-378,131	146,519	0,094	-0,092
-377,117	-200,000	-0,014	0,054
-376,102	154,497	-0,130	-0,131
-375,088	-132,296	0,084	-0,008
-374,073	129,385	0,008	-0,008
-373,058	-200,000	-0,009	0,096
-372,044	800,000	-0,013	-0,029
-371,029	-122,583	0,132	0,016
-370,015	628,137	-0,044	0,082
-369,000	-108,362	-0,126	-0,020
-367,985	-200,000	0,035	-0,171
-366,971	202,338	-0,105	-0,119
-365,956	136,795	-0,033	0,032
-364,942	-92,097	0,043	-0,009
-363,927	207,295	0,036	0,041
-362,912	800,000	0,050	-0,105
-361,898	-200,000	-0,015	-0,063
-360,883	-64,143	0,031	0,009
-359,869	-200,000	0,009	-0,099
-358,854	155,411	-0,052	-0,052
-357,839	-200,000	0,005	0,051
-356,825	800,000	-0,021	-0,051
-355,810	74,367	-0,052	-0,040
-354,796	-55,264	-0,166	0,054
-353,781	-123,703	-0,136	0,016
-352,766	231,520	-0,010	-0,012
-351,752	98,572	0,065	0,055
-350,737	800,000	0,036	0,081
-349,723	800,000	-0,051	0,130
-348,708	-200,000	-0,018	0,230
-347,693	-100,436	0,081	-0,014
-346,679	-92,837	-0,144	-0,029
-345,664	83,860	0,050	-0,040
-344,650	-71,122	-0,084	-0,023
-343,635	-162,797	0,185	0,006
-342,620	-146,003	-0,152	-0,010
-341,606	-147,033	0,063	0,004
-340,591	25,751	0,100	-0,061
-339,577	41,785	-0,069	0,046
-338,562	-17,863	0,123	-0,056
-337,548	267,216	0,019	-0,024
-336,533	394,170	-0,096	0,146
-335,518	-42,289	-0,055	-0,020
-334,504	-35,176	0,062	0,025
-333,489	368,395	-0,063	-0,094
-332,475	109,984	-0,087	-0,077
-331,460	366,313	0,061	0,090
-330,445	-200,000	-0,001	0,006
-329,431	-79,115	-0,082	-0,020
-328,416	-157,741	0,101	0,004
-327,402	-200,000	-0,006	0,048
-326,387	34,939	0,069	-0,044
-325,372	633,776	0,063	-0,118
-324,358	502,140	0,058	0,098
-323,343	345,182	0,035	0,050
-322,329	-200,000	-0,022	0,101
-321,314	800,000	0,055	0,121
-320,299	-200,000	0,016	-0,067
-319,285	422,735	0,030	-0,048
-318,270	-200,000	0,011	-0,065
-317,256	17,360	0,092	0,053
-316,241	-103,847	-0,066	0,011
-315,226	-200,000	0,002	-0,121
-314,212	-200,000	0,006	0,072
-313,197	115,294	0,097	0,086
-312,183	46,047	0,076	-0,051
-311,168	645,531	0,048	-0,090
-310,153	800,000	0,016	0,044
-309,139	-200,000	0,014	0,055
-308,124	-45,223	-0,117	-0,042
-307,110	-17,630	0,009	-0,004
-306,095	115,845	0,097	0,086
-305,080	-200,000	0,012	0,055
-304,066	-95,255	-0,192	-0,037
-303,051	-3,135	-0,071	-0,036
-302,037	306,108	-0,085	-0,116
-301,022	-60,129	0,076	0,024
-300,008	800,000	0,024	-0,053
-298,993	-200,000	-0,000	-0,014
-297,978	19,566	0,074	0,044
-296,964	-170,678	-0,066	0,002
-295,949	-16,710	-0,115	-0,053
-294,935	-151,983	0,093	-0,005
-293,920	-103,523	0,083	0,014
-292,905	-200,000	-0,009	-0,046
-291,891	130,062	0,046	0,043
-290,876	239,743	0,026	0,031
-289,862	-18,809	0,071	-0,032
-288,847	-200,000	0,001	0,028
-287,832	59,174	-0,098	-0,071
-286,818	-110,398	-0,040	0,006
-285,803	-9,502	0,046	-0,023
-284,789	-200,000	0,043	0,148
-283,774	89,700	-0,036	0,029
-282,759	227,524	0,027	-0,033
-281,745	186,106	-0,050	0,054
-280,730	116,534	-0,060	-0,054
-279,716	800,000	-0,022	0,053
-278,701	376,020	-0,132	0,197
-277,686	-77,506	0,073	0,018
-276,672	800,000	-0,063	0,175
-275,657	800,000	-0,050	0,160
-274,643	800,000	-0,013	-0,031
-273,628	-200,000	-0,011	-0,050
-272,613	757,673	-0,058	-0,116
-271,599	23,153	-0,145	-0,087
-270,584	800,000	-0,051	0,112
-269,570	-200,000	0,002	-0,077
-268,555	371,469	0,013	-0,019
-267,540	800,000	-0,057	-0,116
-266,526	-200,000	0,015	-0,209
-265,511	-74,551	-0,080	0,021
-264,497	-110,468	0,091	-0,014
-263,482	800,000	-0,046	0,110
-262,467	-200,000	0,021	0,073
-261,453	74,459	0,088	-0,068
-260,438	231,597	0,039	-0,047
-259,424	570,745	0,136	-0,242
-258,409	-174,101	-0,130	0,003
-257,395	463,372	0,043	0,070
-256,380	800,000	0,056	0,119
-255,365	800,000	0,033	0,107
-254,351	800,000	-0,055	-0,115
-253,336	282,332	0,119	-0,156
-252,322	800,000	-0,103	-0,209
-251,307	800,000	0,014	0,040
-250,292	-200,000	-0,006	0,057
-249,278	107,072	-0,068	0,059
-248,263	-48,782	0,056	-0,020
-247,249	-134,311	-0,073	-0,006
-246,234	139,225	-0,038	-0,037
-245,219	-5,296	-0,160	-0,080
-244,205	800,000	0,021	-0,069
-243,190	-200,000	0,018	0,083
-242,176	18,126	0,112	0,065
-241,161	330,965	0,065	0,092
-240,146	-200,000	-0,033	-0,124
-239,132	-102,808	0,083	0,014
-238,117	158,948	0,017	0,018
-237,103	439,167	0,064	-0,102
-236,088	-200,000	0,017	-0,080
-235,073	527,981	-0,112	0,194
-234,059	-109,051	0,004	0,001
-233,044	-78,363	-0,039	-0,010
-232,030	111,889	0,076	-0,067
-231,015	-200,000	-0,007	-0,070
-230,000	-129,697	-0,072	-0,007
-228,986	189,357	0,053	-0,058
-227,971	668,084	0,012	-0,022
-226,957	-200,000	0,156	-0,000
-225,942	670,389	-0,032	-0,060
-224,927	315,362	-0,071	-0,098
-223,913	-150,320	-0,117	0,006
-222,898	690,992	0,039	0,074
-221,884	800,000	-0,040	0,120
-220,869	800,000	-0,025	-0,069
-219,855	-48,028	0,053	-0,019
-218,840	187,706	-0,043	-0,047
-217,825	135,866	-0,168	-0,160
-216,811	800,000	-0,009	0,021
-215,796	161,444	-0,108	0,110
-214,782	38,732	-0,039	-0,025
-213,767	162,960	0,042	0,043
-212,752	-127,459	0,094	-0,010
-211,738	109,161	-0,037	-0,032
-210,723	-200,000	-0,008	-0,148
-209,709	-200,000	-0,010	-0,105
-208,694	490,608	0,025	0,042
-207,679	64,007	-0,106	0,077
-206,665	800,000	0,023	-0,052
-205,650	800,000	-0,041	-0,117
-204,636	-200,000	-0,028	0,098
-203,621	342,109	-0,020	-0,029
-202,606	29,947	0,165	-0,102
-201,592	9,924	-0,132	-0,073
-200,577	95,598	0,086	-0,071
-199,563	800,000	-0,003	0,006
-198,548	112,849	-0,087	0,077
-197,533	151,782	-0,064	-0,063
-196,519	100,064	0,098	0,083
-195,504	800,000	0,022	0,060
-194,490	-200,000	-0,020	-0,130
-193,475	5,225	-0,150	-0,080
-192,460	-173,507	0,131	0,003
-191,446	-200,000	-0,019	-0,062
-190,431	-15,755	0,163	-0,075
-189,417	120,125	0,024	-0,022
-188,402	244,416	-0,060	0,073
-187,387	341,496	0,026	-0,037
-186,373	-127,636	-0,120	0,013
-185,358	-133,809	0,094	-0,008
-184,344	800,000	-0,034	-0,074
-183,329	24,144	0,125	-0,075
-182,315	800,000	0,023	0,064
-181,300	-8,605	-0,082	0,040
-180,285	293,283	0,044	0,059
-179,271	-127,461	0,093	-0,010
-178,256	-200,000	-0,015	0,079
-177,242	49,226	0,046	0,032
-176,227	-200,000	-0,011	0,041
-175,212	-90,327	0,095	-0,020
-174,198	-105,103	-0,174	0,029
-173,183	-127,228	-0,091	-0,009
-172,169	795,750	0,053	-0,106
-171,154	800,000	0,014	0,032
-170,139	-74,945	0,080	0,021
-169,125	234,566	-0,057	0,069
-168,110	305,860	0,077	-0,104
-167,096	108,640	0,057	0,050
-166,081	75,193	-0,104	0,080
-165,066	285,353	-0,027	-0,035
-164,052	2,649	0,080	-0,042
-163,037	9,003	0,063	-0,035
-162,023	264,615	-0,081	0,103
-161,008	800,000	0,070	0,184
-159,993	-147,858	0,045	-0,003
-158,979	-200,000	-0,018	-0,108
-157,964	-200,000	0,001	-0,121
-156,950	-200,000	0,017	-0,112
-155,935	-73,006	0,151	0,040
-154,920	-111,927	0,055	-0,008
-153,906	-49,040	0,079	-0,027
-152,891	31,635	0,112	0,070
-151,877	7,642	0,068	-0,037
-150,862	-200,000	0,013	-0,111
-149,847	-69,014	0,007	0,002
-148,833	-200,000	-0,021	0,074
-147,818	-172,108	0,061	0,001
-146,804	800,000	0,015	0,037
-145,789	-200,000	0,002	-0,020
-144,775	22,305	-0,084	-0,050
-143,760	565,638	0,055	-0,097
-142,745	800,000	0,012	-0,028
-141,731	-57,934	0,099	0,031
-140,716	-200,000	-0,015	0,106
-139,702	-30,328	0,083	0,034
-138,687	398,490	-0,051	0,077
-137,672	-200,000	0,010	-0,034
-136,658	-67,352	-0,093	0,026
-135,643	-200,000	0,013	-0,061
-134,629	468,991	-0,064	-0,105
-133,614	80,148	0,111	0,086
-132,599	800,000	-0,058	0,131
-131,585	143,492	-0,068	0,066
-130,570	-200,000	0,025	-0,093
-129,556	51,550	0,057	-0,039
-128,541	399,708	-0,056	0,085
-127,526	-88,143	-0,046	-0,010
-126,512	-68,040	-0,068	0,019
-125,497	63,111	0,051	-0,037
-124,483	-86,830	-0,103	-0,023
-123,468	-75,925	-0,077	-0,020
-122,453	71,694	0,121	0,091
-121,439	-200,000	-0,004	-0,123
-120,424	-200,000	-0,002	-0,100
-119,410	-189,481	0,079	-0,001
-118,395	-200,000	0,054	0,000
-117,380	-200,000	-0,018	0,161
-116,366	-200,000	0,003	0,127
-115,351	-62,832	-0,157	0,047
-114,337	-123,867	-0,153	0,017
-113,322	395,877	0,059	-0,090
-112,307	-41,477	-0,039	0,014
-111,293	-143,944	0,091	-0,006
-110,278	7,670	-0,058	-0,032
-109,264	63,091	-0,040	-0,029
-108,249	-200,000	-0,008	-0,052
-107,234	-200,000	0,021	-0,071
-106,220	-34,771	0,147	0,058
-105,205	604,617	0,046	0,084
-104,191	-200,000	-0,029	-0,165
-103,176	-69,489	0,100	-0,028
-102,162	-56,123	-0,044	0,014
-101,147	-123,196	0,111	-0,013
-100,132	103,966	-0,064	-0,054
-99,118	430,125	-0,017	0,026
-98,103	-135,206	0,031	-0,003
-97,089	-200,000	0,032	0,110
-96,074	-94,319	0,142	-0,028
-95,059	-129,181	-0,040	0,004
-94,045	142,462	0,087	0,084
-93,030	-93,198	-0,051	0,010
-92,016	-128,158	-0,187	-0,019
-91,001	-85,183	0,051	-0,011
-89,986	-3,654	-0,100	0,050
-88,972	-200,000	0,004	-0,017
-87,957	-0,484	-0,057	-0,029
-86,943	3,614	0,069	-0,036
-85,928	-0,553	-0,109	-0,056
-84,913	-31,775	0,044	0,018
-83,899	800,000	0,077	-0,189
-82,884	326,497	-0,006	-0,009
-81,870	800,000	0,052	0,135
-80,855	204,386	-0,038	0,042
-79,840	373,853	-0,059	-0,087
-78,826	-113,302	-0,083	-0,012
-77,811	132,778	0,031	-0,029
-76,797	412,331	0,062	0,096
-75,782	74,863	-0,094	0,072
-74,767	800,000	0,014	0,038
-73,753	-126,106	-0,034	0,004
-72,738	40,200	-0,005	0,003
-71,724	-200,000	-0,009	0,105
-70,709	522,110	-0,029	0,050
-69,694	379,061	-0,059	0,088
-68,680	667,163	-0,040	0,075
-67,665	-32,563	0,162	0,065
-66,651	-21,362	0,113	0,050
-65,636	-77,413	0,061	-0,015
-64,622	-51,992	-0,069	0,023
-63,607	-22,291	-0,067	-0,029
-62,592	-166,380	-0,080	-0,002
-61,578	426,698	-0,036	0,056
-60,563	-200,000	0,012	0,086
-59,549	800,000	0,033	0,098
-58,534	-98,086	-1,519	-0,280
-57,519	670,365	-0,741	-1,396
-56,505	-200,000	-0,949	-4,410
-55,490	-55,863	0,517	-0,166
-54,476	800,000	5,135	11,894
-53,461	-200,000	14,446	257,830
-52,446	-200,000	696,011	2233,998
-51,432	566,850	1622,401	2861,807
-50,417	117,592	1630,533	1452,291
-49,403	74,530	1284,490	976,606
-48,388	37,510	1022,475	655,115
-47,373	23,329	981,448	582,283
-46,359	22,544	970,906	573,437
-45,344	21,409	966,654	567,202
-44,330	21,333	965,171	566,062
-43,315	21,169	963,691	564,638
-42,300	21,127	962,744	563,926
-41,286	21,207	961,590	563,486
-40,271	21,156	960,629	562,736
-39,257	21,132	959,767	562,131
-38,242	21,099	958,898	561,490
-37,227	21,169	958,028	561,186
-36,213	21,098	957,156	560,425
-35,198	21,053	956,241	559,722
-34,184	21,153	955,576	559,630
-33,169	21,089	954,593	558,828
-32,154	21,156	953,743	558,523
-31,140	21,192	952,860	558,101
-30,125	21,220	952,219	557,794
-29,111	21,222	951,246	557,206
-28,096	21,197	950,479	556,657
-27,082	21,156	949,966	556,200
-26,067	21,122	949,282	555,669
-25,052	21,214	948,440	555,451
-24,038	21,124	947,932	554,841
-23,023	21,128	947,157	554,380
-22,009	21,216	946,618	554,324
-20,994	21,178	946,090	553,871
-19,979	21,198	945,439	553,530
-18,965	21,186	944,775	553,083
-17,950	21,160	944,009	552,529
-16,936	21,033	943,535	551,827
-15,921	21,057	942,677	551,377
-14,906	21,124	941,869	551,097
-13,892	20,999	941,474	550,447
-12,877	21,056	940,627	550,110
-11,863	21,040	940,125	549,745
-10,848	21,019	939,742	549,432
-9,833	21,172	939,121	549,532
-8,819	21,051	938,627	548,837
-7,804	21,053	937,916	548,407
-6,790	21,050	937,419	548,084
-5,775	21,085	936,797	547,810
-4,760	21,023	936,296	547,300
-3,746	21,035	935,558	546,883
-2,731	20,875	934,929	545,989
-1,717	20,862	933,999	545,383
-0,702	20,918	933,167	545,054
0,313	20,668	932,733	544,835
1,327	23,677	930,921	553,175
2,342	33,082	794,007	496,782
3,356	30,660	450,719	278,334
4,371	0,312	294,825	151,703
5,386	-4,151	275,905	137,720
6,400	-5,045	270,053	133,955
7,415	-5,591	267,894	132,369
8,429	-5,667	266,766	131,729
9,444	-5,172	265,598	131,594
10,459	-5,257	265,020	131,218
11,473	-5,361	264,488	130,848
12,488	-5,465	263,860	130,431
13,502	-5,775	263,452	129,937
14,517	-5,748	262,986	129,720
15,531	-5,711	262,706	129,603
16,546	-5,601	262,219	129,451
17,561	-5,681	261,941	129,231
18,575	-5,615	261,591	129,105
19,590	-5,634	261,192	128,880
20,604	-5,618	260,925	128,751
21,619	-5,756	260,588	128,450
22,634	-5,831	260,283	128,221
23,648	-5,823	259,951	128,053
24,663	-5,744	259,745	128,010
25,677	-5,678	259,519	127,947
26,692	-5,758	259,238	127,725
27,707	-5,797	259,050	127,587
28,721	-5,889	258,881	127,410
29,736	-5,641	258,259	127,313
30,750	-5,642	258,017	127,182
31,765	-5,758	257,841	126,981
32,780	-5,814	257,658	126,830
33,794	-5,650	257,348	126,811
34,809	-5,810	257,203	126,587
35,823	-5,720	256,938	126,524
36,838	-5,675	256,599	126,386
37,853	-5,766	256,431	126,212
38,867	-5,788	256,204	126,070
39,882	-5,742	256,049	126,022
40,896	-5,742	255,685	125,832
41,911	-5,838	255,610	125,699
42,926	-5,848	255,397	125,575
43,940	-6,022	255,156	125,292
44,955	-5,736	254,906	125,408
45,969	-5,900	254,703	125,154
46,984	-6,124	254,552	124,873
47,999	-6,367	254,261	124,507
49,013	-6,223	253,904	124,446
50,028	-6,493	253,760	124,130
51,042	-6,611	253,315	123,799
52,057	-6,418	252,996	123,799
53,071	-6,379	252,935	123,792
54,086	-6,401	252,747	123,670
55,101	-6,231	252,614	123,741
56,115	-6,182	252,552	123,742
57,130	-5,632	252,406	124,136
58,144	-5,461	252,256	124,199
59,159	-5,356	251,868	124,088
60,174	-5,444	251,828	123,981
61,188	-5,690	251,694	123,692
62,203	-5,742	251,539	123,559
63,217	-5,546	251,229	123,565
64,232	-5,541	250,908	123,401
65,247	-5,698	250,800	123,201
66,261	-5,557	250,457	123,143
67,276	-5,635	250,161	122,920
68,290	-6,071	250,015	122,464
69,305	-6,227	249,763	122,196
70,320	-6,078	249,603	122,234
71,334	-6,133	249,496	122,123
72,349	-5,743	249,441	122,419
73,363	-5,559	249,112	122,404
74,378	-5,497	248,846	122,315
75,393	-5,612	248,697	122,132
76,407	-5,706	248,458	121,924
77,422	-5,838	248,164	121,657
78,436	-5,581	248,222	121,893
79,451	-5,704	247,991	121,664
80,466	-5,747	247,541	121,396
81,480	-5,713	247,371	121,331
82,495	-6,018	247,212	120,984
83,509	-5,789	247,018	121,072
84,524	-5,950	246,876	120,855
85,539	-6,008	246,563	120,642
86,553	-6,111	246,475	120,502
87,568	-5,988	246,344	120,531
88,582	-5,920	246,025	120,421
89,597	-6,010	245,899	120,273
90,611	-5,806	245,898	120,434
91,626	-5,836	245,758	120,329
92,641	-5,734	245,437	120,246
93,655	-5,812	245,328	120,117
94,670	-5,930	245,138	119,914
95,684	-5,952	244,843	119,741
96,699	-5,783	244,702	119,803
97,714	-5,997	244,594	119,560
98,728	-6,088	244,421	119,389
99,743	-6,058	244,156	119,274
100,757	-5,931	243,696	119,144
101,772	-5,997	243,566	119,015
102,787	-5,920	243,540	119,056
103,801	-5,829	243,293	119,000
104,816	-5,726	243,222	119,041
105,830	-5,884	243,108	118,843
106,845	-5,757	242,942	118,856
107,860	-5,731	242,673	118,736
108,874	-5,823	242,572	118,599
109,889	-5,753	242,268	118,498
110,903	-5,850	242,154	118,352
111,918	-5,818	241,871	118,229
112,933	-5,640	241,696	118,280
113,947	-5,669	241,651	118,224
114,962	-5,651	241,470	118,139
115,976	-5,871	241,382	117,905
116,991	-5,546	240,928	117,939
118,006	-5,779	240,951	117,748
119,020	-5,714	240,781	117,708
120,035	-5,660	240,683	117,694
121,049	-5,534	240,484	117,690
122,064	-5,774	240,338	117,411
123,079	-5,717	240,168	117,364
124,093	-5,839	239,973	117,159
125,108	-5,868	239,748	117,014
126,122	-6,094	239,510	116,703
127,137	-6,151	239,114	116,454
128,151	-6,108	239,100	116,471
129,166	-6,061	239,083	116,491
130,181	-6,050	238,682	116,294
131,195	-5,971	238,470	116,245
132,210	-6,154	238,448	116,075
133,224	-5,866	238,266	116,210
134,239	-5,715	238,123	116,253
135,254	-5,781	237,988	116,122
136,268	-5,872	237,819	115,956
137,283	-6,062	237,556	115,664
138,297	-6,195	237,384	115,462
139,312	-6,170	237,253	115,408
140,327	-5,804	237,160	115,649
141,341	-5,477	237,033	115,840
142,356	-5,459	236,916	115,787
143,370	-5,557	236,913	115,696
144,385	-5,366	236,585	115,680
145,400	-5,330	236,345	115,581
146,414	-5,687	236,380	115,301
147,429	-5,572	236,054	115,223
148,443	-5,494	235,889	115,196
149,458	-5,433	235,687	115,136
150,473	-5,499	235,624	115,042
151,487	-5,552	235,323	114,842
152,502	-5,652	235,319	114,750
153,516	-5,418	235,098	114,819
154,531	-5,507	234,918	114,649
155,546	-5,638	234,743	114,450
156,560	-5,629	234,474	114,316
157,575	-5,476	234,138	114,263
158,589	-5,653	234,118	114,102
159,604	-5,425	234,024	114,227
160,619	-5,289	233,788	114,210
161,633	-5,345	233,715	114,120
162,648	-5,192	233,528	114,140
163,662	-5,258	233,409	114,019
164,677	-5,270	233,082	113,840
165,692	-5,516	233,068	113,628
166,706	-5,274	232,945	113,750
167,721	-5,572	232,803	113,434
168,735	-5,393	232,643	113,488
169,750	-5,407	232,450	113,372
170,764	-5,489	232,434	113,290
171,779	-5,527	232,334	113,200
172,794	-5,377	232,016	113,154
173,808	-5,531	231,866	112,949
174,823	-5,748	231,473	112,578
175,837	-6,128	231,294	112,182
176,852	-5,829	231,242	112,381
177,867	-5,482	231,342	112,693
178,881	-5,453	231,030	112,553
179,896	-5,344	230,917	112,574
180,910	-5,114	230,661	112,619
181,925	-5,444	230,565	112,304
182,940	-5,383	230,450	112,285
183,954	-5,300	230,321	112,277
184,969	-5,384	230,246	112,165
185,983	-5,240	230,053	112,173
186,998	-5,430	229,795	111,890
188,013	-5,281	229,727	111,962
189,027	-5,057	229,322	111,929
190,042	-5,275	229,380	111,778
191,056	-5,332	229,339	111,704
192,071	-5,132	228,979	111,674
193,086	-5,277	228,846	111,486
194,100	-5,007	228,693	111,611
195,115	-5,352	228,451	111,216
196,129	-5,782	228,193	110,748
197,144	-3,023	229,245	113,391
198,159	1,332	230,376	117,330
199,173	3,910	230,978	119,634
200,188	3,965	230,860	119,605
201,202	3,837	230,772	119,449
202,217	3,945	230,706	119,488
203,232	4,272	230,472	119,610
204,246	4,557	230,343	119,753
205,261	4,370	230,379	119,616
206,275	4,558	230,158	119,636
207,290	4,735	230,030	119,696
208,304	4,695	229,884	119,579
209,319	4,505	229,661	119,305
210,334	4,349	229,526	119,103
211,348	4,199	229,284	118,852
212,363	3,812	229,054	118,424
213,377	3,792	228,657	118,193
214,392	3,802	228,557	118,138
215,407	3,694	228,701	118,119
216,421	3,821	228,476	118,090
217,436	3,529	228,274	117,751
218,450	3,267	228,056	117,426
219,465	3,455	227,821	117,440
220,480	3,372	227,763	117,335
221,494	3,571	227,521	117,353
222,509	3,734	227,585	117,499
223,523	3,538	227,239	117,161
224,538	3,620	227,155	117,170
225,553	3,621	226,961	117,060
226,567	3,600	227,013	117,060
227,582	3,896	226,771	117,151
228,596	3,903	226,797	117,160
229,611	3,616	226,614	116,836
230,626	3,441	226,314	116,537
231,640	3,565	226,012	116,466
232,655	3,758	225,931	116,560
233,669	4,451	225,971	117,096
234,684	4,142	226,012	116,872
235,699	3,947	225,713	116,559
236,713	3,779	225,394	116,257
237,728	3,558	225,286	116,025
238,742	3,677	225,055	115,985
239,757	3,654	224,863	115,858
240,772	3,369	224,818	115,609
241,786	3,614	224,538	115,640
242,801	3,645	224,621	115,696
243,815	3,956	224,444	115,828
244,830	4,126	224,249	115,846
245,844	3,799	224,042	115,482
246,859	3,824	223,976	115,457
247,874	3,912	223,832	115,438
248,888	3,893	223,614	115,301
249,903	3,925	223,568	115,292
250,917	3,629	223,399	114,972
251,932	3,788	223,140	114,948
252,947	3,599	223,026	114,737
253,961	3,602	222,834	114,630
254,976	3,666	222,617	114,556
255,990	3,837	222,616	114,673
257,005	3,948	222,400	114,635
258,020	3,660	222,447	114,434
259,034	4,042	222,403	114,685
260,049	3,929	222,212	114,493
261,063	3,944	221,922	114,344
262,078	3,890	221,919	114,292
263,093	3,972	221,725	114,243
264,107	3,922	221,704	114,185
265,122	4,003	221,428	114,093
266,136	4,095	221,478	114,177
267,151	4,255	221,137	114,109
268,166	3,811	220,898	113,647
269,180	3,616	220,609	113,344
270,195	3,699	220,485	113,332
271,209	3,611	220,417	113,222
272,224	3,508	220,236	113,043
273,239	3,755	220,173	113,183
274,253	3,594	220,096	113,014
275,268	3,409	219,843	112,738
276,282	3,521	219,515	112,642
277,297	3,482	219,426	112,558
278,312	3,487	219,244	112,458
279,326	3,555	219,293	112,523
280,341	3,613	219,161	112,488
281,355	3,560	219,178	112,448
282,370	3,650	218,869	112,345
283,384	3,303	218,719	112,004
284,399	3,293	218,514	111,882
285,414	3,420	218,232	111,820
286,428	3,661	218,406	112,075
287,443	3,996	218,246	112,228
288,457	3,889	217,950	111,987
289,472	3,696	217,901	111,811
290,487	3,167	217,680	111,303
291,501	3,368	217,487	111,341
292,516	3,440	217,457	111,368
293,530	3,617	217,386	111,450
294,545	3,398	217,340	111,258
295,560	3,589	217,139	111,283
296,574	3,647	216,887	111,186
297,589	3,747	216,824	111,216
298,603	3,825	216,736	111,218
299,618	3,744	216,527	111,042
300,633	3,575	216,339	110,814
301,647	3,801	216,220	110,906
302,662	3,985	216,208	111,023
303,676	4,225	216,132	111,147
304,691	3,957	215,913	110,832
305,706	3,901	215,780	110,713
306,720	3,766	215,709	110,569
307,735	3,795	215,413	110,429
308,749	3,552	215,226	110,149
309,764	3,788	215,206	110,298
310,779	4,008	215,158	110,421
311,793	3,921	214,753	110,141
312,808	3,773	214,818	110,059
313,822	3,869	214,608	110,010
314,837	3,787	214,565	109,919
315,852	3,438	214,294	109,521
316,866	3,484	214,228	109,511
317,881	4,097	214,134	109,891
318,895	3,799	214,102	109,652
319,910	3,612	213,880	109,395
320,925	3,473	213,625	109,156
321,939	3,375	213,381	108,952
322,954	3,544	213,261	109,002
323,968	3,706	213,378	109,166
324,983	4,007	213,138	109,247
325,997	3,772	213,038	109,020
327,012	3,785	212,823	108,909
328,027	3,654	212,774	108,782
329,041	4,062	212,645	108,995
330,056	4,112	212,597	108,995
331,070	3,551	212,400	108,488
332,085	3,312	212,088	108,150
333,100	3,375	212,081	108,182
334,114	3,876	211,992	108,481
335,129	3,803	211,717	108,278
336,143	3,491	211,681	108,031
337,158	3,634	211,542	108,051
338,173	3,525	211,382	107,883
339,187	3,726	211,074	107,857
340,202	3,552	211,001	107,688
341,216	3,324	210,836	107,434
342,231	3,542	210,766	107,542
343,246	3,364	210,709	107,378
344,260	3,396	210,577	107,324
345,275	3,788	210,388	107,492
346,289	3,793	210,415	107,500
347,304	3,905	210,037	107,376
348,319	3,765	209,942	107,219
349,333	3,740	209,851	107,146
350,348	3,679	209,823	107,080
351,362	3,893	209,663	107,138
352,377	3,807	209,553	107,012
353,392	3,678	209,480	106,876
354,406	3,636	209,386	106,789
355,421	194,611	1344,478	1431,790
356,435	155,344	1482,848	1431,891
