DTS Sentinel unit serial number:	SN410029Multiplexer serial number:	ORYXHardware model number:	OX2-SRSoftware version number:	ORYX F/W v4,00 Oryx Data Collector v3.7.2.0data status	okinstallation	B6 Nyhavnadifferential loss correction	single-endedforward channel	channel 2reverse channel	N/Adate	2023/12/09time	05:05:08forward acquisition time	300,00reverse acquisition time	0,00gamma	499,1914k internal	0,3144k external	0,3144temperature offset calibration	1,0000default loss term (dB/km)	0,3820temperature slope calibration	1,0000multiplexer offset coefficient	1,0000multiplexer slope coefficient	1,0000fibre end	0,00T internal ref (°C)	17,59T ext. ref 1 (°C)	2,13T ext. ref 2 (°C)	2,14length (m)	temperature (°C)	Stokes	anti-Stokes-744,400	-200,000	0,039	-0,169
-743,385	-137,502	-0,304	0,025
-742,371	-91,727	0,117	0,024
-741,356	-28,080	-0,305	0,130
-740,342	-19,017	0,131	-0,060
-739,327	-159,032	-0,316	0,013
-738,312	535,898	0,053	-0,094
-737,298	-111,468	-0,341	-0,051
-736,283	-29,298	-0,015	-0,006
-735,269	-114,400	-0,393	0,055
-734,254	-84,589	0,056	0,013
-733,239	-136,211	-0,288	-0,025
-732,225	3,153	0,115	0,062
-731,210	136,965	0,046	-0,044
-730,196	-88,033	0,061	0,014
-729,181	505,128	-0,042	-0,073
-728,167	800,000	0,038	0,093
-727,152	783,064	-0,010	-0,020
-726,137	800,000	0,033	0,100
-725,123	1,039	-0,093	0,049
-724,108	78,192	-0,111	-0,088
-723,094	626,888	-0,157	-0,294
-722,079	655,736	-0,062	-0,118
-721,064	752,819	-0,004	-0,008
-720,050	439,180	-0,072	0,117
-719,035	-64,721	0,100	-0,030
-718,021	-18,539	-0,101	0,046
-717,006	-27,461	-0,156	-0,067
-715,991	259,411	-0,078	-0,100
-714,977	800,000	0,053	-0,137
-713,962	294,043	0,025	-0,034
-712,948	-41,090	-0,135	-0,051
-711,933	-12,348	0,050	0,024
-710,918	-28,305	-0,093	0,039
-709,904	64,189	0,063	0,047
-708,889	42,730	-0,175	-0,118
-707,875	483,825	0,061	-0,104
-706,860	254,679	0,072	0,091
-705,845	88,289	0,019	-0,016
-704,831	298,510	0,048	0,065
-703,816	-95,581	0,018	0,004
-702,802	-200,000	0,020	0,108
-701,787	-200,000	0,000	0,143
-700,772	-90,044	-0,165	-0,035
-699,758	-200,000	-0,020	0,092
-698,743	-200,000	-0,025	-0,112
-697,729	326,024	-0,046	-0,065
-696,714	-19,652	0,120	-0,055
-695,699	248,967	-0,074	-0,093
-694,685	-200,000	-0,001	-0,108
-693,670	-200,000	-0,014	0,050
-692,656	136,048	0,127	0,122
-691,641	9,243	-0,084	0,047
-690,627	800,000	0,041	0,095
-689,612	-131,139	0,153	-0,015
-688,597	-200,000	-0,028	-0,103
-687,583	-125,306	-0,126	0,014
-686,568	623,528	-0,084	-0,157
-685,554	7,227	-0,064	-0,035
-684,539	-116,871	0,087	-0,012
-683,524	280,005	-0,106	0,140
-682,510	-74,614	0,060	-0,016
-681,495	110,047	-0,061	0,054
-680,481	-84,286	-0,110	-0,026
-679,466	-94,656	0,057	-0,011
-678,451	229,797	0,079	0,096
-677,437	800,000	-0,031	0,064
-676,422	-68,023	-0,077	0,022
-675,408	-22,191	0,171	-0,076
-674,393	800,000	0,009	0,025
-673,378	-106,821	-0,095	0,015
-672,364	341,285	-0,073	-0,106
-671,349	12,809	-0,134	-0,077
-670,335	-111,625	-0,061	-0,009
-669,320	-110,197	0,089	-0,014
-668,305	800,000	-0,038	0,100
-667,291	22,122	-0,088	0,053
-666,276	81,571	0,124	-0,099
-665,262	800,000	-0,023	-0,064
-664,247	-54,377	0,043	-0,014
-663,232	800,000	-0,003	0,008
-662,218	-200,000	-0,028	0,251
-661,203	-12,168	-0,026	-0,013
-660,189	-46,129	-0,086	0,031
-659,174	800,000	0,011	-0,031
-658,159	800,000	-0,009	0,027
-657,145	182,998	-0,080	0,088
-656,130	-200,000	-0,026	0,146
-655,116	255,451	0,063	0,079
-654,101	455,062	0,067	0,109
-653,086	478,521	-0,014	0,023
-652,072	-101,152	0,130	-0,023
-651,057	135,416	0,022	0,021
-650,043	-57,262	-0,085	0,027
-649,028	73,822	-0,063	-0,049
-648,014	-62,333	0,162	0,049
-646,999	800,000	-0,003	-0,010
-645,984	-100,299	0,077	-0,014
-644,970	-200,000	-0,002	-0,032
-643,955	116,845	-0,088	-0,080
-642,941	483,440	0,025	0,042
-641,926	-182,149	-0,045	-0,001
-640,911	72,240	-0,035	0,026
-639,897	-200,000	0,009	-0,063
-638,882	800,000	0,059	0,152
-637,868	-130,176	-0,051	-0,005
-636,853	-69,542	-0,113	0,032
-635,838	165,300	-0,129	-0,134
-634,824	800,000	-0,023	0,055
-633,809	-55,267	-0,030	0,010
-632,795	-116,239	0,070	0,009
-631,780	-176,088	-0,173	0,003
-630,765	-13,388	0,052	0,025
-629,751	-200,000	0,011	-0,079
-628,736	253,247	-0,045	0,057
-627,722	257,766	-0,099	-0,126
-626,707	55,866	0,093	-0,066
-625,692	-200,000	0,028	-0,091
-624,678	693,802	-0,056	0,108
-623,663	-187,783	-0,108	0,001
-622,649	800,000	0,033	0,103
-621,634	157,587	-0,030	0,030
-620,619	462,952	-0,065	-0,108
-619,605	-115,285	-0,059	-0,008
-618,590	-67,965	0,094	-0,027
-617,576	-200,000	0,000	0,064
-616,561	70,849	-0,080	-0,061
-615,546	800,000	-0,010	0,023
-614,532	800,000	-0,049	-0,155
-613,517	-200,000	0,018	-0,100
-612,503	36,185	0,045	-0,029
-611,488	229,124	0,126	0,151
-610,474	800,000	-0,040	0,098
-609,459	-102,515	-0,046	0,008
-608,444	-156,953	-0,213	0,009
-607,430	-110,598	0,061	-0,009
-606,415	-76,411	-0,141	-0,036
-605,401	800,000	-0,009	0,023
-604,386	-200,000	0,007	-0,049
-603,371	-200,000	-0,038	0,126
-602,357	177,706	-0,111	0,119
-601,342	-37,340	0,017	0,007
-600,328	66,747	0,136	-0,102
-599,313	2,611	-0,163	0,087
-598,298	-37,195	0,054	-0,021
-597,284	128,952	-0,109	0,102
-596,269	300,112	0,100	0,136
-595,255	180,103	0,145	0,156
-594,240	-54,359	0,083	-0,028
-593,225	628,182	-0,074	-0,139
-592,211	-59,281	0,058	0,018
-591,196	-200,000	-0,007	0,055
-590,182	-200,000	-0,008	0,048
-589,167	-200,000	0,027	-0,091
-588,152	-83,665	0,042	-0,010
-587,138	-200,000	-0,009	0,106
-586,123	11,568	-0,085	0,048
-585,109	-200,000	0,001	-0,087
-584,094	-200,000	0,028	0,140
-583,079	8,651	-0,050	0,028
-582,065	-75,531	-0,020	0,005
-581,050	57,832	-0,055	-0,040
-580,036	524,201	-0,038	-0,065
-579,021	-200,000	-0,000	-0,017
-578,006	430,896	-0,060	-0,095
-576,992	800,000	-0,041	-0,096
-575,977	67,064	-0,041	-0,031
-574,963	127,132	-0,057	0,053
-573,948	-200,000	0,011	0,118
-572,934	703,655	-0,029	-0,056
-571,919	132,827	0,107	-0,101
-570,904	-14,450	0,052	-0,024
-569,890	800,000	-0,038	0,102
-568,875	-86,341	-0,125	0,028
-567,861	457,169	-0,046	0,075
-566,846	800,000	-0,016	0,050
-565,831	81,251	-0,032	0,025
-564,817	114,160	-0,064	-0,057
-563,802	292,161	0,080	-0,108
-562,788	95,807	-0,076	0,064
-561,773	-200,000	0,004	0,024
-560,758	737,085	-0,010	0,020
-559,744	-38,912	0,018	-0,007
-558,729	57,667	0,067	0,048
-557,715	-2,684	-0,141	0,072
-556,700	-128,791	-0,023	0,002
-555,685	33,884	-0,091	-0,058
-554,671	800,000	0,025	0,070
-553,656	-131,945	0,118	0,011
-552,642	366,023	-0,074	0,110
-551,627	-200,000	-0,014	-0,090
-550,612	510,912	-0,072	0,124
-549,598	800,000	0,025	0,067
-548,583	800,000	-0,010	-0,025
-547,569	-200,000	-0,036	-0,195
-546,554	124,974	-0,069	-0,064
-545,539	800,000	0,052	0,130
-544,525	225,307	0,076	0,090
-543,510	377,680	-0,073	0,110
-542,496	344,286	0,066	-0,095
-541,481	226,963	-0,071	-0,085
-540,466	-200,000	0,003	-0,198
-539,452	-200,000	0,017	-0,084
-538,437	-111,188	0,135	0,020
-537,423	800,000	-0,032	-0,067
-536,408	-43,979	-0,055	0,020
-535,393	369,526	-0,039	-0,059
-534,379	800,000	-0,021	-0,054
-533,364	180,610	0,066	-0,071
-532,350	213,964	0,018	0,021
-531,335	-131,541	0,117	0,011
-530,321	67,735	0,117	0,088
-529,306	-124,580	-0,080	-0,009
-528,291	-67,705	0,047	-0,013
-527,277	340,020	-0,050	0,072
-526,262	-200,000	0,023	-0,105
-525,248	-34,734	-0,072	0,029
-524,233	61,269	-0,080	0,058
-523,218	59,024	0,079	0,057
-522,204	416,347	-0,023	0,037
-521,189	-60,256	0,065	0,020
-520,175	800,000	0,055	-0,172
-519,160	-93,885	-0,120	0,024
-518,145	2,049	0,139	-0,073
-517,131	-164,481	0,050	0,002
-516,116	171,601	0,071	0,075
-515,102	800,000	0,042	0,092
-514,087	-200,000	-0,050	-0,173
-513,072	800,000	0,048	0,098
-512,058	-97,296	0,075	0,014
-511,043	177,882	0,064	-0,069
-510,029	12,824	0,092	0,052
-509,014	-81,370	-0,093	-0,022
-507,999	22,415	0,043	-0,026
-506,985	72,468	-0,048	0,037
-505,970	800,000	0,027	-0,057
-504,956	426,058	-0,022	0,036
-503,941	-37,909	0,095	-0,037
-502,926	-134,669	0,071	0,006
-501,912	23,999	-0,053	-0,032
-500,897	800,000	-0,017	0,051
-499,883	-45,958	-0,037	-0,013
-498,868	800,000	-0,018	0,044
-497,853	-200,000	-0,008	-0,033
-496,839	-25,789	0,067	-0,029
-495,824	800,000	-0,087	-0,218
-494,810	-43,469	0,075	-0,028
-493,795	3,731	0,040	-0,021
-492,781	16,555	-0,080	-0,046
-491,766	800,000	-0,034	-0,095
-490,751	800,000	0,042	-0,112
-489,737	6,290	0,021	0,011
-488,722	9,195	0,093	0,051
-487,708	-65,484	0,098	0,029
-486,693	-56,460	-0,030	-0,010
-485,678	117,496	0,070	0,063
-484,664	260,280	-0,044	0,056
-483,649	-200,000	0,043	-0,144
-482,635	-11,242	-0,055	-0,026
-481,620	-78,355	0,224	-0,056
-480,605	-200,000	0,028	0,127
-479,591	800,000	-0,032	0,079
-478,576	669,667	0,026	0,049
-477,562	23,844	0,150	-0,091
-476,547	-200,000	-0,017	-0,107
-475,532	382,920	-0,024	-0,036
-474,518	-200,000	0,014	-0,189
-473,503	770,903	-0,061	0,122
-472,489	-81,621	0,035	-0,008
-471,474	64,917	0,025	0,019
-470,459	150,772	0,081	-0,080
-469,445	-200,000	0,017	-0,124
-468,430	800,000	-0,063	-0,154
-467,416	-200,000	0,012	-0,079
-466,401	800,000	-0,054	-0,113
-465,386	50,225	-0,039	0,027
-464,372	-33,498	-0,112	-0,045
-463,357	458,730	-0,036	-0,058
-462,343	251,006	-0,101	0,127
-461,328	-200,000	0,008	-0,052
-460,313	-124,660	0,046	0,005
-459,299	800,000	-0,008	0,019
-458,284	-88,816	0,125	0,027
-457,270	35,214	-0,100	-0,064
-456,255	800,000	0,019	-0,050
-455,241	773,458	-0,071	-0,143
-454,226	-200,000	0,004	-0,017
-453,211	280,647	-0,113	-0,149
-452,197	-200,000	-0,007	0,083
-451,182	-200,000	-0,003	0,080
-450,168	800,000	-0,046	0,111
-449,153	-200,000	-0,014	-0,091
-448,138	-62,699	0,058	-0,017
-447,124	-113,831	-0,058	-0,008
-446,109	264,221	0,046	-0,058
-445,095	714,935	0,093	-0,181
-444,080	47,195	0,135	0,092
-443,065	-200,000	-0,003	0,060
-442,051	-193,551	0,031	-0,000
-441,036	-200,000	0,005	0,069
-440,022	349,765	0,093	-0,135
-439,007	800,000	0,007	-0,014
-437,992	-98,531	0,259	-0,048
-436,978	412,372	0,017	0,026
-435,963	800,000	0,010	-0,028
-434,949	-135,304	-0,104	0,009
-433,934	-200,000	-0,016	-0,068
-432,919	79,815	0,046	-0,036
-431,905	-46,196	-0,066	0,024
-430,890	800,000	0,064	0,140
-429,876	-4,247	-0,129	0,065
-428,861	57,300	0,056	0,040
-427,846	150,275	-0,070	0,070
-426,832	-200,000	0,024	-0,083
-425,817	800,000	-0,023	0,051
-424,803	-105,198	0,051	-0,008
-423,788	-187,314	-0,087	-0,001
-422,773	70,400	0,083	0,063
-421,759	800,000	0,086	0,201
-420,744	-200,000	-0,009	-0,143
-419,730	13,237	-0,050	-0,028
-418,715	-68,545	-0,073	0,021
-417,701	-113,905	0,004	0,001
-416,686	-144,374	0,069	-0,005
-415,671	-70,298	-0,147	0,041
-414,657	-200,000	-0,028	0,180
-413,642	-200,000	0,001	-0,020
-412,628	152,730	-0,050	0,050
-411,613	629,431	-0,022	-0,041
-410,598	12,804	0,119	0,067
-409,584	34,530	0,071	-0,045
-408,569	-200,000	0,010	0,100
-407,555	-200,000	-0,004	-0,019
-406,540	178,804	0,019	-0,020
-405,525	201,185	0,050	-0,056
-404,511	340,131	-0,069	-0,098
-403,496	-200,000	0,030	-0,123
-402,482	26,474	0,202	0,123
-401,467	312,873	0,095	0,130
-400,452	800,000	-0,004	-0,009
-399,438	-113,188	0,109	0,015
-398,423	755,821	0,024	-0,047
-397,409	13,236	-0,049	0,028
-396,394	561,376	-0,066	0,117
-395,379	48,891	0,046	0,032
-394,365	287,054	0,051	-0,068
-393,350	616,074	-0,064	-0,117
-392,336	-200,000	0,002	0,039
-391,321	-68,224	0,110	0,031
-390,306	102,071	-0,073	-0,062
-389,292	-200,000	-0,008	-0,030
-388,277	29,572	0,187	0,116
-387,263	442,346	0,053	0,085
-386,248	55,488	0,090	0,063
-385,233	800,000	0,056	0,135
-384,219	800,000	0,019	0,062
-383,204	800,000	-0,050	-0,139
-382,190	-200,000	0,039	-0,133
-381,175	-165,504	-0,125	0,004
-380,160	52,651	-0,042	-0,029
-379,146	232,114	0,035	-0,042
-378,131	800,000	0,037	0,079
-377,117	-149,367	-0,027	0,002
-376,102	-35,540	-0,186	0,073
-375,088	-200,000	-0,021	-0,218
-374,073	89,629	-0,040	0,032
-373,058	800,000	-0,005	0,011
-372,044	-108,271	0,187	-0,029
-371,029	134,769	0,066	0,063
-370,015	-2,842	0,122	-0,062
-369,000	97,588	-0,087	-0,073
-367,985	285,874	-0,068	-0,090
-366,971	800,000	-0,036	0,108
-365,956	81,306	-0,102	0,080
-364,942	139,312	0,099	0,095
-363,927	-200,000	-0,001	-0,023
-362,912	-200,000	-0,024	-0,086
-361,898	241,811	-0,081	-0,099
-360,883	-200,000	0,007	-0,110
-359,869	-200,000	-0,031	-0,121
-358,854	99,547	-0,092	0,078
-357,839	800,000	0,036	-0,086
-356,825	-47,986	0,119	-0,042
-355,810	800,000	0,034	0,088
-354,796	800,000	-0,035	0,092
-353,781	-27,986	-0,078	-0,033
-352,766	800,000	-0,033	-0,076
-351,752	-200,000	-0,003	0,127
-350,737	-132,730	0,127	0,012
-349,723	-200,000	0,007	0,028
-348,708	-200,000	-0,014	-0,068
-347,693	800,000	-0,079	0,160
-346,679	-200,000	0,034	0,141
-345,664	-15,490	0,075	-0,035
-344,650	133,398	0,041	-0,039
-343,635	121,467	-0,063	-0,057
-342,620	-46,791	0,063	0,022
-341,606	131,198	0,015	-0,014
-340,591	201,189	0,053	0,060
-339,577	258,737	-0,044	0,055
-338,562	-111,758	-0,139	0,020
-337,548	88,889	-0,089	-0,072
-336,533	-16,652	0,115	0,053
-335,518	-95,919	-0,119	0,023
-334,504	-200,000	0,014	0,084
-333,489	67,740	-0,126	0,094
-332,475	-70,028	-0,114	-0,031
-331,460	-179,739	-0,046	-0,001
-330,445	176,869	0,055	-0,059
-329,431	-133,926	-0,076	-0,007
-328,416	800,000	-0,019	0,048
-327,402	286,872	0,051	0,067
-326,387	800,000	-0,019	-0,054
-325,372	-70,495	-0,128	-0,035
-324,358	-32,291	-0,090	0,037
-323,343	-190,169	0,090	-0,001
-322,329	-81,836	0,339	-0,080
-321,314	464,007	0,116	0,189
-320,299	800,000	-0,073	0,211
-319,285	-25,373	0,050	-0,022
-318,270	80,654	-0,048	0,038
-317,256	74,177	-0,073	0,056
-316,241	-200,000	-0,041	-0,161
-315,226	-200,000	0,021	0,110
-314,212	37,241	0,066	0,043
-313,197	63,017	-0,006	0,005
-312,183	800,000	0,024	0,067
-311,168	-129,930	-0,031	0,003
-310,153	-200,000	-0,005	-0,061
-309,139	800,000	-0,017	-0,041
-308,124	-200,000	-0,013	-0,094
-307,110	-84,200	0,106	0,024
-306,095	-200,000	0,012	0,045
-305,080	-130,171	-0,015	-0,001
-304,066	722,658	-0,035	-0,069
-303,051	-64,935	-0,051	0,015
-302,037	111,578	-0,087	0,076
-301,022	-112,290	0,233	-0,034
-300,008	-83,802	-0,044	0,010
-298,993	-200,000	0,042	0,194
-297,978	-200,000	0,011	0,061
-296,964	-79,525	-0,064	-0,016
-295,949	-5,389	-0,108	0,054
-294,935	-47,614	0,151	-0,053
-293,920	-200,000	0,019	-0,082
-292,905	-8,376	0,050	0,024
-291,891	31,659	0,146	0,091
-290,876	125,243	0,063	-0,057
-289,862	800,000	-0,026	0,069
-288,847	-24,976	-0,095	-0,041
-287,832	-80,488	-0,112	0,027
-286,818	316,538	-0,030	0,041
-285,803	-77,836	-0,100	-0,025
-284,789	800,000	0,063	0,128
-283,774	229,379	0,114	-0,135
-282,759	392,239	0,007	-0,010
-281,745	292,776	-0,051	-0,068
-280,730	-171,722	0,215	-0,005
-279,716	800,000	0,086	0,197
-278,701	510,602	0,011	0,018
-277,686	-127,674	-0,028	-0,003
-276,672	432,637	0,085	0,135
-275,657	-115,483	-0,162	0,022
-274,643	-84,770	-0,060	-0,014
-273,628	-200,000	-0,036	-0,149
-272,613	132,504	0,031	-0,029
-271,599	-140,307	0,083	0,006
-270,584	606,319	0,040	-0,072
-269,570	247,571	0,115	0,142
-268,555	-33,724	0,142	-0,057
-267,540	247,432	-0,031	-0,038
-266,526	6,934	0,040	0,022
-265,511	16,360	0,073	-0,042
-264,497	79,595	0,050	-0,039
-263,482	-200,000	-0,012	0,071
-262,467	291,355	-0,049	0,065
-261,453	-142,843	0,075	0,005
-260,438	-200,000	0,040	0,181
-259,424	-12,335	-0,014	0,007
-258,409	800,000	-0,023	-0,046
-257,395	277,536	-0,015	-0,020
-256,380	206,942	-0,077	0,088
-255,365	4,625	-0,034	-0,018
-254,351	800,000	0,010	0,027
-253,336	-200,000	-0,017	0,135
-252,322	800,000	-0,008	0,018
-251,307	800,000	0,045	-0,099
-250,292	800,000	0,061	-0,133
-249,278	-86,694	-0,113	-0,025
-248,263	349,180	0,082	-0,119
-247,249	-155,170	-0,173	-0,008
-246,234	65,156	-0,024	0,018
-245,219	413,955	-0,068	-0,106
-244,205	137,616	-0,038	0,036
-243,190	17,050	0,069	-0,039
-242,176	-76,735	0,043	-0,011
-241,161	-89,561	-0,117	0,025
-240,146	800,000	-0,033	0,091
-239,132	-115,392	0,107	0,014
-238,117	-168,621	-0,177	0,005
-237,103	525,114	-0,063	-0,109
-236,088	178,438	-0,074	-0,079
-235,073	-200,000	0,004	-0,081
-234,059	-200,000	-0,003	0,126
-233,044	-13,184	-0,075	-0,035
-232,030	-115,443	0,165	0,022
-231,015	800,000	-0,022	0,065
-230,000	559,249	-0,048	0,084
-228,986	800,000	-0,004	-0,011
-227,971	82,475	0,061	0,048
-226,957	54,822	0,122	-0,085
-225,942	-170,696	-0,073	-0,002
-224,927	766,067	-0,041	0,081
-223,913	-200,000	0,042	0,142
-222,898	370,771	0,092	-0,136
-221,884	132,969	-0,047	0,044
-220,869	800,000	-0,031	0,067
-219,855	262,458	0,097	-0,122
-218,840	800,000	0,013	-0,032
-217,825	377,519	-0,025	0,038
-216,811	-47,856	0,018	-0,006
-215,796	-200,000	-0,001	-0,134
-214,782	-43,097	-0,085	-0,031
-213,767	-148,439	-0,102	0,006
-212,752	-200,000	0,002	0,057
-211,738	44,103	-0,046	-0,031
-210,723	-200,000	0,012	0,047
-209,709	-178,219	-0,101	-0,002
-208,694	-131,439	-0,083	-0,008
-207,679	-67,753	0,050	0,014
-206,665	-200,000	0,009	-0,051
-205,650	-29,429	-0,105	-0,043
-204,636	46,179	0,078	-0,052
-203,621	89,492	0,100	0,081
-202,606	651,209	0,033	0,061
-201,592	-80,809	0,069	0,017
-200,577	-55,205	-0,098	-0,032
-199,563	-200,000	-0,009	0,088
-198,548	45,049	0,154	0,102
-197,533	-106,536	0,080	0,013
-196,519	175,403	-0,110	0,116
-195,504	-131,379	-0,126	-0,012
-194,490	-100,227	0,109	-0,019
-193,475	-0,204	0,041	0,021
-192,460	-200,000	-0,001	-0,007
-191,446	713,631	-0,052	0,100
-190,431	800,000	-0,027	-0,081
-189,417	800,000	-0,059	0,130
-188,402	-127,978	0,091	-0,009
-187,387	-90,996	-0,099	0,020
-186,373	-200,000	-0,075	-0,247
-185,358	363,540	-0,005	-0,008
-184,344	3,417	-0,049	-0,026
-183,329	-200,000	-0,002	-0,093
-182,315	-124,457	0,130	-0,014
-181,300	598,216	-0,070	0,126
-180,285	-176,889	-0,092	0,002
-179,271	546,513	0,061	0,105
-178,256	-200,000	-0,011	0,104
-177,242	-59,848	0,102	0,031
-176,227	-49,727	0,103	-0,035
-175,212	-200,000	-0,013	-0,112
-174,198	181,607	0,064	0,069
-173,183	91,177	0,022	-0,018
-172,169	-133,728	-0,051	-0,005
-171,154	800,000	-0,028	0,064
-170,139	800,000	0,008	-0,024
-169,125	110,088	0,045	0,039
-168,110	-54,242	-0,065	0,021
-167,096	298,065	-0,009	-0,012
-166,081	800,000	-0,005	-0,011
-165,066	170,267	-0,085	-0,088
-164,052	86,649	0,017	0,013
-163,037	37,335	-0,056	0,036
-162,023	-12,244	0,109	0,051
-161,008	398,084	-0,085	-0,130
-159,993	14,926	-0,058	0,033
-158,979	459,126	-0,074	-0,120
-157,964	373,254	-0,087	-0,128
-156,950	226,994	-0,046	-0,054
-155,935	-15,417	0,136	0,062
-154,920	-200,000	0,010	-0,138
-153,906	-150,801	-0,120	0,007
-152,891	-200,000	0,000	-0,050
-151,877	420,723	-0,024	-0,037
-150,862	471,860	0,060	0,098
-149,847	800,000	0,062	0,128
-148,833	800,000	-0,059	0,130
-147,818	800,000	-0,019	0,054
-146,804	-61,895	0,066	0,020
-145,789	-200,000	-0,034	0,170
-144,775	774,068	0,033	0,066
-143,760	-200,000	0,017	0,081
-142,745	-79,743	-0,052	0,013
-141,731	286,955	0,086	-0,113
-140,716	-3,228	-0,072	0,036
-139,702	50,229	0,117	0,080
-138,687	42,242	0,073	-0,048
-137,672	149,100	0,101	-0,099
-136,658	558,247	-0,059	0,104
-135,643	612,260	-0,050	-0,090
-134,629	494,489	-0,062	0,103
-133,614	-73,190	-0,055	-0,014
-132,599	33,093	-0,044	-0,028
-131,585	-200,000	-0,012	-0,051
-130,570	88,954	0,002	-0,002
-129,556	800,000	-0,043	-0,091
-128,541	754,124	-0,008	-0,016
-127,526	-200,000	-0,005	-0,016
-126,512	-74,699	-0,080	-0,021
-125,497	-26,415	0,050	0,021
-124,483	800,000	-0,013	0,037
-123,468	388,352	0,030	0,046
-122,453	653,961	0,047	0,088
-121,439	-140,735	0,109	0,008
-120,424	83,259	0,037	0,029
-119,410	303,293	0,084	-0,113
-118,395	-140,599	-0,116	-0,009
-117,380	-108,587	0,091	0,014
-116,366	49,500	-0,057	-0,038
-115,351	800,000	-0,060	0,139
-114,337	-61,866	-0,022	-0,007
-113,322	-82,426	0,049	-0,012
-112,307	70,738	0,067	0,050
-111,293	-200,000	-0,010	0,041
-110,278	133,091	0,066	0,062
-109,264	163,239	-0,018	0,018
-108,249	53,202	0,038	0,026
-107,234	-87,323	-0,038	0,008
-106,220	16,957	-0,107	-0,061
-105,205	152,049	0,096	-0,095
-104,191	800,000	-0,014	0,028
-103,176	-200,000	-0,011	0,196
-102,162	-200,000	0,012	0,055
-101,147	800,000	-0,019	0,043
-100,132	-200,000	0,009	0,051
-99,118	438,056	-0,042	-0,067
-98,103	725,522	0,041	-0,079
-97,089	54,201	0,089	-0,062
-96,074	800,000	0,080	0,176
-95,059	6,295	0,006	-0,003
-94,045	800,000	-0,068	-0,169
-93,030	588,562	0,052	-0,093
-92,016	221,484	-0,095	0,110
-91,001	-200,000	-0,021	0,172
-89,986	-200,000	-0,024	0,083
-88,972	269,078	0,065	0,082
-87,957	-200,000	-0,007	-0,029
-86,943	-200,000	-0,004	-0,061
-85,928	158,396	-0,047	-0,047
-84,913	-200,000	0,017	-0,109
-83,899	415,192	-0,032	-0,049
-82,884	36,222	0,110	-0,070
-81,870	-200,000	-0,005	0,096
-80,855	-7,872	-0,066	0,032
-79,840	442,112	0,004	-0,007
-78,826	-54,790	-0,212	0,069
-77,811	2,463	-0,092	0,048
-76,797	-69,514	0,011	-0,003
-75,782	5,664	0,022	-0,012
-74,767	-200,000	0,011	0,044
-73,753	230,688	-0,034	0,040
-72,738	-142,851	0,140	-0,010
-71,724	127,391	-0,020	0,018
-70,709	-37,254	0,017	0,006
-69,694	32,683	-0,031	-0,019
-68,680	56,192	-0,086	-0,060
-67,665	-109,886	-0,053	0,008
-66,651	800,000	0,049	0,121
-65,636	377,516	-0,018	0,026
-64,622	-200,000	-0,045	-0,146
-63,607	-179,171	-0,058	0,001
-62,592	-200,000	0,020	-0,089
-61,578	340,565	-0,047	0,066
-60,563	373,237	0,042	0,061
-59,549	339,421	0,061	0,086
-58,534	-15,328	-1,841	-0,845
-57,519	-200,000	-0,283	-1,135
-56,505	-200,000	-1,117	-4,872
-55,490	-155,581	0,728	0,033
-54,476	800,000	5,215	12,234
-53,461	-200,000	16,377	276,849
-52,446	800,000	710,266	2223,158
-51,432	549,506	1624,307	2817,432
-50,417	120,532	1621,435	1451,816
-49,403	82,731	1282,278	1003,421
-48,388	36,152	1029,307	652,063
-47,373	21,038	991,874	578,328
-46,359	19,803	980,444	567,566
-45,344	17,926	976,269	558,952
-44,330	18,089	974,850	558,654
-43,315	17,685	973,162	556,339
-42,300	17,698	972,117	555,761
-41,286	17,664	971,053	555,018
-40,271	17,614	970,336	554,422
-39,257	17,642	969,247	553,869
-38,242	17,629	968,621	553,449
-37,227	17,596	967,850	552,877
-36,213	17,633	966,887	552,426
-35,198	17,620	965,930	551,815
-34,184	17,687	965,102	551,539
-33,169	17,644	964,011	550,753
-32,154	17,683	963,222	550,407
-31,140	17,616	962,600	549,813
-30,125	17,673	961,714	549,469
-29,111	17,703	960,797	549,022
-28,096	17,707	960,349	548,757
-27,082	17,530	959,824	547,862
-26,067	17,658	958,718	547,623
-25,052	17,609	958,056	547,064
-24,038	17,638	957,344	546,730
-23,023	17,577	956,764	546,179
-22,009	17,626	956,018	545,891
-20,994	17,656	955,388	545,606
-19,979	17,626	954,815	545,162
-18,965	17,646	953,963	544,717
-17,950	17,676	953,277	544,401
-16,936	17,643	952,820	544,011
-15,921	17,559	952,374	543,464
-14,906	17,474	951,687	542,779
-13,892	17,456	950,668	542,120
-12,877	17,477	950,155	541,872
-11,863	17,439	949,553	541,386
-10,848	17,555	948,941	541,387
-9,833	17,598	948,477	541,238
-8,819	17,524	947,822	540,605
-7,804	17,538	947,174	540,260
-6,790	17,459	946,857	539,804
-5,775	17,541	946,092	539,608
-4,760	17,531	945,545	539,244
-3,746	17,498	944,865	538,729
-2,731	17,387	943,905	537,808
-1,717	17,349	943,433	537,396
-0,702	17,333	942,914	537,029
0,313	17,141	942,150	536,793
1,327	20,350	940,554	546,006
2,342	29,532	796,646	486,908
3,356	26,845	448,956	270,355
4,371	-2,450	295,419	148,567
5,386	-6,490	276,784	135,348
6,400	-7,743	271,026	131,355
7,415	-8,288	268,950	129,834
8,429	-8,024	267,497	129,363
9,444	-8,190	266,608	128,769
10,459	-8,171	265,823	128,396
11,473	-8,357	265,295	127,961
12,488	-8,431	264,684	127,587
13,502	-8,624	264,095	127,117
14,517	-8,603	263,618	126,895
15,531	-8,887	263,412	126,528
16,546	-8,787	262,870	126,347
17,561	-8,800	262,491	126,141
18,575	-8,831	262,297	126,009
19,590	-8,995	261,828	125,625
20,604	-8,837	261,623	125,657
21,619	-9,018	261,170	125,266
22,634	-8,864	260,695	125,165
23,648	-8,918	260,523	125,023
24,663	-8,774	260,184	124,978
25,677	-8,815	259,898	124,792
26,692	-9,016	259,908	124,607
27,707	-8,971	259,555	124,467
28,721	-9,085	259,265	124,215
29,736	-9,028	258,901	124,080
30,750	-9,072	258,740	123,953
31,765	-9,342	258,409	123,545
32,780	-9,189	258,239	123,587
33,794	-9,023	258,083	123,649
34,809	-9,128	257,852	123,434
35,823	-9,268	257,619	123,188
36,838	-9,132	257,261	123,126
37,853	-9,131	257,002	122,991
38,867	-8,981	256,754	122,994
39,882	-9,084	256,611	122,824
40,896	-9,143	256,152	122,541
41,911	-9,191	256,251	122,536
42,926	-9,251	255,735	122,226
43,940	-9,275	255,678	122,166
44,955	-9,344	255,337	121,933
45,969	-9,300	255,098	121,846
46,984	-9,452	254,983	121,647
47,999	-9,725	254,633	121,232
49,013	-9,990	254,343	120,851
50,028	-10,085	254,172	120,677
51,042	-10,009	253,875	120,591
52,057	-10,125	253,818	120,452
53,071	-10,059	253,438	120,318
54,086	-9,931	253,277	120,343
55,101	-9,761	253,123	120,406
56,115	-9,481	252,982	120,570
57,130	-8,890	253,002	121,080
58,144	-8,599	252,836	121,243
59,159	-8,777	252,814	121,067
60,174	-8,583	252,359	121,006
61,188	-8,865	252,297	120,722
62,203	-8,795	251,841	120,553
63,217	-8,909	251,744	120,398
64,232	-8,783	251,533	120,394
65,247	-8,847	251,465	120,297
66,261	-8,933	251,089	120,032
67,276	-9,154	250,864	119,724
68,290	-9,403	250,470	119,312
69,305	-9,430	250,366	119,229
70,320	-9,561	249,979	118,922
71,334	-9,288	250,049	119,178
72,349	-8,713	249,995	119,633
73,363	-8,885	249,698	119,333
74,378	-8,833	249,555	119,299
75,393	-8,767	249,295	119,220
76,407	-8,915	249,053	118,968
77,422	-9,144	248,904	118,691
78,436	-8,758	248,557	118,843
79,451	-9,026	248,525	118,589
80,466	-9,075	248,160	118,363
81,480	-9,169	247,872	118,135
82,495	-9,405	247,758	117,872
83,509	-9,234	247,543	117,903
84,524	-9,270	247,327	117,760
85,539	-9,455	247,053	117,462
86,553	-9,273	246,821	117,494
87,568	-9,285	246,646	117,390
88,582	-9,353	246,596	117,299
89,597	-9,224	246,294	117,254
90,611	-9,398	246,391	117,143
91,626	-9,086	246,192	117,300
92,641	-9,176	246,033	117,138
93,655	-9,147	245,781	117,032
94,670	-9,364	245,588	116,748
95,684	-9,234	245,265	116,693
96,699	-9,122	245,083	116,690
97,714	-9,124	244,912	116,596
98,728	-9,539	244,761	116,167
99,743	-9,397	244,606	116,202
100,757	-9,425	244,254	116,001
101,772	-9,501	244,100	115,854
102,787	-9,434	244,034	115,868
103,801	-9,486	243,887	115,746
104,816	-9,328	243,673	115,764
105,830	-9,109	243,527	115,866
106,845	-8,897	243,384	115,963
107,860	-8,972	243,168	115,788
108,874	-9,152	243,042	115,569
109,889	-9,308	242,886	115,356
110,903	-9,069	242,509	115,363
111,918	-8,975	242,262	115,314
112,933	-8,913	242,118	115,286
113,947	-9,001	242,022	115,157
114,962	-9,033	241,915	115,070
115,976	-9,023	241,623	114,929
116,991	-9,155	241,659	114,827
118,006	-9,261	241,470	114,640
119,020	-8,984	241,245	114,751
120,035	-8,961	241,214	114,744
121,049	-9,030	241,054	114,601
122,064	-8,913	240,649	114,495
123,079	-9,063	240,620	114,347
124,093	-9,013	240,272	114,213
125,108	-9,382	240,082	113,811
126,122	-9,502	239,827	113,582
127,137	-9,528	239,561	113,425
128,151	-9,583	239,464	113,323
129,166	-9,253	239,309	113,509
130,181	-9,430	239,164	113,286
131,195	-9,385	238,826	113,152
132,210	-9,202	238,844	113,300
133,224	-9,091	238,886	113,400
134,239	-9,127	238,547	113,199
135,254	-8,726	238,337	113,414
136,268	-8,954	238,126	113,119
137,283	-9,379	237,830	112,625
138,297	-9,651	237,691	112,330
139,312	-9,372	237,455	112,433
140,327	-9,193	237,379	112,531
141,341	-8,674	237,466	112,981
142,356	-8,536	237,224	112,967
143,370	-8,681	237,189	112,824
144,385	-8,600	236,981	112,779
145,400	-8,493	236,751	112,747
146,414	-8,525	236,673	112,673
147,429	-8,464	236,364	112,565
148,443	-8,590	236,257	112,403
149,458	-8,669	236,147	112,277
150,473	-8,754	236,038	112,147
151,487	-8,803	235,659	111,918
152,502	-8,714	235,604	111,954
153,516	-8,823	235,444	111,780
154,531	-8,805	235,296	111,714
155,546	-8,619	234,932	111,680
156,560	-8,956	234,778	111,328
157,575	-8,805	234,538	111,325
158,589	-8,829	234,493	111,274
159,604	-8,580	234,390	111,413
160,619	-8,369	234,270	111,514
161,633	-8,493	234,076	111,314
162,648	-8,590	234,137	111,255
163,662	-8,645	233,875	111,077
164,677	-8,783	233,613	110,834
165,692	-8,674	233,655	110,930
166,706	-8,574	233,343	110,851
167,721	-8,502	233,221	110,840
168,735	-8,513	233,103	110,765
169,750	-8,451	233,045	110,777
170,764	-8,607	232,831	110,542
171,779	-8,574	232,639	110,468
172,794	-8,524	232,446	110,405
173,808	-8,535	232,094	110,220
174,823	-9,271	231,855	109,519
175,837	-9,351	231,772	109,407
176,852	-8,946	231,738	109,698
177,867	-8,420	231,638	110,054
178,881	-8,407	231,546	110,010
179,896	-8,354	231,304	109,927
180,910	-8,468	231,238	109,797
181,925	-8,502	231,072	109,681
182,940	-8,650	230,982	109,514
183,954	-8,308	230,831	109,699
184,969	-8,263	230,680	109,652
185,983	-8,204	230,406	109,559
186,998	-8,474	230,376	109,324
188,013	-8,183	230,126	109,423
189,027	-8,278	229,856	109,211
190,042	-8,400	229,814	109,086
191,056	-8,366	229,742	109,068
192,071	-8,249	229,558	109,062
193,086	-8,244	229,370	108,967
194,100	-7,779	229,366	109,315
195,115	-8,005	229,126	109,016
196,129	-7,706	229,267	109,305
197,144	-3,420	230,346	113,141
198,159	0,690	231,679	116,990
199,173	3,244	232,375	119,325
200,188	3,663	232,473	119,691
201,202	3,714	232,238	119,599
202,217	3,692	232,059	119,479
203,232	3,950	231,934	119,605
204,246	3,885	231,766	119,457
205,261	3,970	231,696	119,476
206,275	4,178	231,513	119,533
207,290	4,391	231,357	119,607
208,304	4,309	231,268	119,487
209,319	4,151	231,091	119,262
210,334	3,878	230,897	118,940
211,348	4,082	230,447	118,855
212,363	3,468	230,427	118,361
213,377	3,291	230,061	118,025
214,392	3,155	230,023	117,891
215,407	3,381	229,958	118,021
216,421	3,424	229,880	118,003
217,436	3,275	229,573	117,721
218,450	3,358	229,235	117,601
219,465	3,150	229,156	117,390
220,480	3,160	229,114	117,366
221,494	3,183	228,901	117,264
222,509	3,417	228,862	117,413
223,523	3,372	228,764	117,317
224,538	3,165	228,618	117,074
225,553	3,408	228,382	117,128
226,567	3,412	228,340	117,099
227,582	3,649	228,382	117,291
228,596	3,637	228,181	117,168
229,611	3,573	227,879	116,955
230,626	3,063	227,705	116,466
231,640	3,221	227,536	116,490
232,655	3,556	227,552	116,742
233,669	3,882	227,542	116,974
234,684	4,207	227,228	117,049
235,699	3,788	227,152	116,682
236,713	3,559	226,860	116,348
237,728	3,351	226,783	116,140
238,742	3,143	226,577	115,866
239,757	3,265	226,278	115,796
240,772	3,345	226,050	115,729
241,786	3,453	226,103	115,828
242,801	3,569	225,990	115,847
243,815	3,673	225,970	115,905
244,830	3,696	225,799	115,824
245,844	3,348	225,605	115,452
246,859	3,345	225,296	115,282
247,874	3,516	225,241	115,372
248,888	3,890	225,109	115,575
249,903	3,478	224,975	115,186
250,917	3,567	224,657	115,080
251,932	3,065	224,581	114,654
252,947	3,283	224,387	114,708
253,961	3,249	224,278	114,618
254,976	3,548	223,926	114,651
255,990	3,485	223,986	114,624
257,005	3,451	223,948	114,569
258,020	3,425	223,927	114,528
259,034	3,743	223,734	114,657
260,049	3,880	223,586	114,673
261,063	3,528	223,281	114,244
262,078	3,735	223,142	114,317
263,093	4,044	223,028	114,479
264,107	3,823	222,880	114,228
265,122	3,640	222,822	114,052
266,136	3,711	222,731	114,048
267,151	3,959	222,562	114,135
268,166	3,437	222,301	113,604
269,180	3,082	222,048	113,202
270,195	3,404	221,853	113,330
271,209	3,556	221,784	113,398
272,224	3,260	221,740	113,146
273,239	3,444	221,485	113,142
274,253	3,248	221,389	112,938
275,268	3,109	221,257	112,758
276,282	3,043	220,985	112,561
277,297	3,037	220,890	112,498
278,312	3,228	220,869	112,618
279,326	3,331	220,558	112,525
280,341	3,209	220,498	112,395
281,355	3,422	220,474	112,529
282,370	3,478	220,148	112,393
283,384	3,125	220,019	112,059
284,399	3,055	220,008	111,992
285,414	3,038	219,824	111,876
286,428	3,249	219,782	111,999
287,443	3,507	219,578	112,073
288,457	3,517	219,516	112,039
289,472	3,392	219,245	111,800
290,487	2,803	219,142	111,308
291,501	3,051	218,751	111,280
292,516	2,958	218,800	111,227
293,530	3,182	218,695	111,327
294,545	3,067	218,523	111,146
295,560	3,096	218,370	111,079
296,574	3,449	218,285	111,282
297,589	3,439	218,173	111,208
298,603	3,305	217,886	110,955
299,618	3,149	218,009	110,894
300,633	3,240	217,985	110,938
301,647	3,607	217,722	111,060
302,662	3,626	217,591	110,997
303,676	3,619	217,493	110,932
304,691	3,573	217,344	110,813
305,706	3,836	217,072	110,854
306,720	3,497	216,996	110,562
307,735	3,361	216,829	110,369
308,749	3,166	216,671	110,137
309,764	3,549	216,565	110,349
310,779	3,668	216,409	110,345
311,793	3,401	216,245	110,060
312,808	3,566	216,110	110,100
313,822	3,465	215,943	109,933
314,837	3,322	215,803	109,749
315,852	3,015	215,695	109,465
316,866	3,240	215,493	109,514
317,881	3,148	215,388	109,384
318,895	3,502	215,127	109,496
319,910	3,590	215,277	109,625
320,925	3,455	214,905	109,329
321,939	3,058	214,841	109,004
322,954	3,157	214,715	109,001
323,968	3,361	214,698	109,127
324,983	3,548	214,492	109,146
325,997	3,627	214,339	109,115
327,012	3,411	214,185	108,873
328,027	3,419	214,119	108,835
329,041	3,877	214,114	109,148
330,056	3,656	213,868	108,857
331,070	3,150	213,646	108,376
332,085	2,960	213,508	108,161
333,100	3,232	213,371	108,275
334,114	3,439	213,155	108,302
335,129	3,601	213,134	108,396
336,143	3,209	213,036	108,059
337,158	3,252	212,891	108,006
338,173	3,245	212,714	107,903
339,187	3,181	212,569	107,774
340,202	3,115	212,393	107,629
341,216	3,023	212,205	107,459
342,231	3,095	212,028	107,410
343,246	3,100	211,997	107,388
344,260	3,187	211,851	107,366
345,275	3,224	211,884	107,399
346,289	3,297	211,572	107,283
347,304	3,575	211,459	107,410
348,319	3,585	211,184	107,268
349,333	3,275	211,104	107,002
350,348	3,402	211,085	107,071
351,362	3,482	210,880	107,013
352,377	3,379	210,998	106,991
353,392	3,435	210,752	106,897
354,406	3,557	210,543	106,866
355,421	194,834	1341,494	1423,242
356,435	155,577	1479,295	1423,272
