DTS Sentinel unit serial number:	SN410029Multiplexer serial number:	ORYXHardware model number:	OX2-SRSoftware version number:	ORYX F/W v4,00 Oryx Data Collector v3.7.2.0data status	okinstallation	B6 Nyhavnadifferential loss correction	single-endedforward channel	channel 2reverse channel	N/Adate	2023/12/10time	15:35:08forward acquisition time	300,00reverse acquisition time	0,00gamma	499,1914k internal	0,3122k external	0,3122temperature offset calibration	1,0000default loss term (dB/km)	0,3820temperature slope calibration	1,0000multiplexer offset coefficient	1,0000multiplexer slope coefficient	1,0000fibre end	0,00T internal ref (°C)	22,41T ext. ref 1 (°C)	5,91T ext. ref 2 (°C)	5,93length (m)	temperature (°C)	Stokes	anti-Stokes-744,400	-200,000	0,037	-0,178
-743,385	-6,143	-0,241	0,122
-742,371	168,809	-0,032	0,034
-741,356	-14,826	-0,261	0,125
-740,342	-200,000	-0,013	0,280
-739,327	242,696	-0,186	0,233
-738,312	320,708	0,024	0,033
-737,298	-106,608	-0,211	0,035
-736,283	255,067	0,131	-0,167
-735,269	-15,613	-0,148	0,070
-734,254	-4,107	0,079	-0,040
-733,239	-108,818	-0,485	-0,076
-732,225	148,737	0,077	0,078
-731,210	24,331	-0,052	-0,032
-730,196	-134,219	-0,033	0,003
-729,181	275,759	-0,028	-0,038
-728,167	47,945	0,026	-0,018
-727,152	161,969	-0,091	0,095
-726,137	-58,349	-0,061	-0,020
-725,123	244,266	-0,133	-0,167
-724,108	413,171	0,125	-0,199
-723,094	443,639	0,037	-0,060
-722,079	277,362	-0,063	-0,084
-721,064	-76,477	0,061	0,016
-720,050	800,000	0,015	0,039
-719,035	-200,000	-0,025	-0,118
-718,021	219,856	-0,083	-0,100
-717,006	-200,000	0,022	-0,200
-715,991	-143,604	-0,105	0,007
-714,977	-200,000	0,007	-0,118
-713,962	-57,239	-0,181	-0,059
-712,948	276,346	-0,025	-0,034
-711,933	64,999	-0,095	0,071
-710,918	-24,085	-0,077	-0,034
-709,904	-200,000	-0,028	-0,150
-708,889	69,967	-0,084	-0,064
-707,875	53,344	-0,090	-0,064
-706,860	242,915	-0,071	-0,088
-705,845	448,695	-0,089	-0,147
-704,831	-38,374	0,062	0,024
-703,816	-200,000	-0,003	-0,090
-702,802	-200,000	0,055	-0,250
-701,787	-200,000	-0,002	-0,035
-700,772	224,111	-0,099	-0,119
-699,758	-200,000	-0,007	-0,181
-698,743	-81,715	0,104	-0,025
-697,729	800,000	-0,026	-0,084
-696,714	87,404	0,058	-0,048
-695,699	800,000	-0,037	0,094
-694,685	321,854	-0,019	-0,027
-693,670	355,235	0,039	-0,057
-692,656	-119,962	-0,035	-0,004
-691,641	-43,179	0,018	0,007
-690,627	-24,554	-0,041	0,018
-689,612	653,947	-0,056	0,108
-688,597	800,000	-0,028	0,060
-687,583	14,914	-0,062	-0,036
-686,568	800,000	0,018	-0,058
-685,554	800,000	-0,020	-0,044
-684,539	-33,532	0,046	0,019
-683,524	800,000	0,024	-0,057
-682,510	-119,988	0,066	0,008
-681,495	-118,746	-0,039	-0,005
-680,481	86,275	-0,071	-0,058
-679,466	-56,546	-0,020	-0,007
-678,451	-63,656	-0,109	-0,033
-677,437	-200,000	-0,004	-0,088
-676,422	-200,000	0,037	0,125
-675,408	-135,510	0,071	-0,006
-674,393	800,000	-0,041	-0,085
-673,378	800,000	-0,029	0,061
-672,364	129,330	-0,083	-0,079
-671,349	25,884	-0,028	-0,017
-670,335	-102,853	-0,108	0,019
-669,320	99,922	0,060	-0,052
-668,305	161,312	-0,071	0,073
-667,291	-185,800	-0,147	0,002
-666,276	-33,891	-0,054	0,022
-665,262	-90,144	0,077	0,016
-664,247	-45,062	-0,066	-0,024
-663,232	371,790	0,048	-0,073
-662,218	685,229	0,066	0,129
-661,203	-43,825	-0,037	-0,014
-660,189	205,303	0,014	-0,016
-659,174	-113,282	-0,089	0,013
-658,159	-101,676	-0,067	-0,012
-657,145	379,463	-0,042	-0,064
-656,130	9,022	0,133	0,074
-655,116	800,000	-0,004	0,012
-654,101	-180,004	0,095	0,001
-653,086	800,000	0,041	0,095
-652,072	-16,566	-0,089	-0,042
-651,057	403,970	-0,075	-0,117
-650,043	45,622	-0,121	-0,083
-649,028	-200,000	-0,007	0,044
-648,014	-200,000	0,003	0,076
-646,999	-200,000	0,021	-0,119
-645,984	16,209	-0,075	0,044
-644,970	-200,000	0,002	-0,110
-643,955	192,972	0,031	-0,035
-642,941	-157,204	0,169	-0,007
-641,926	-129,017	-0,062	0,006
-640,911	800,000	0,037	0,086
-639,897	285,063	-0,008	-0,010
-638,882	237,482	-0,066	0,081
-637,868	-200,000	-0,010	-0,038
-636,853	-200,000	0,022	-0,087
-635,838	-200,000	-0,007	0,029
-634,824	-200,000	0,001	0,061
-633,809	701,624	0,027	0,054
-632,795	-200,000	0,007	0,029
-631,780	-105,117	0,193	0,032
-630,765	36,033	-0,023	0,015
-629,751	800,000	-0,038	-0,117
-628,736	800,000	0,051	-0,129
-627,722	92,723	0,071	0,060
-626,707	159,182	-0,008	-0,008
-625,692	-49,209	0,056	0,020
-624,678	241,536	0,090	0,112
-623,663	-55,697	-0,218	0,072
-622,649	535,961	-0,019	-0,034
-621,634	-200,000	-0,011	-0,041
-620,619	-99,688	-0,223	-0,041
-619,605	130,550	0,063	0,060
-618,590	-200,000	0,006	0,096
-617,576	-200,000	-0,016	0,184
-616,561	-63,127	-0,068	0,021
-615,546	-11,345	0,044	-0,022
-614,532	-29,927	0,092	0,039
-613,517	34,550	0,058	0,037
-612,503	-200,000	-0,017	-0,095
-611,488	-162,560	-0,071	-0,003
-610,474	118,255	0,049	0,044
-609,459	205,669	-0,064	0,074
-608,444	324,913	-0,100	-0,141
-607,430	5,137	-0,163	-0,089
-606,415	800,000	0,016	-0,044
-605,401	-93,342	-0,075	0,015
-604,386	60,816	-0,019	-0,014
-603,371	-156,106	-0,091	0,004
-602,357	-182,633	0,006	0,000
-601,342	122,814	-0,096	-0,089
-600,328	800,000	-0,027	-0,078
-599,313	-73,378	0,064	0,017
-598,298	350,298	0,064	-0,095
-597,284	800,000	0,006	-0,013
-596,269	800,000	0,038	0,080
-595,255	-123,567	0,058	-0,007
-594,240	795,248	0,052	0,106
-593,225	-7,753	0,098	-0,049
-592,211	800,000	-0,048	-0,120
-591,196	-133,704	-0,077	-0,007
-590,182	-200,000	-0,014	-0,123
-589,167	-200,000	0,001	-0,012
-588,152	113,707	-0,097	-0,087
-587,138	343,421	-0,037	-0,053
-586,123	38,846	-0,168	0,111
-585,109	41,002	0,021	-0,014
-584,094	319,203	-0,089	-0,125
-583,079	64,181	0,056	-0,042
-582,065	82,043	-0,070	-0,056
-581,050	26,214	-0,082	-0,050
-580,036	51,923	0,053	-0,037
-579,021	237,413	0,057	-0,070
-578,006	377,737	-0,104	-0,158
-576,992	527,337	-0,056	-0,098
-575,977	510,858	0,049	-0,085
-574,963	119,383	-0,033	0,031
-573,948	124,238	0,089	-0,083
-572,934	-36,385	-0,143	-0,057
-571,919	-120,556	0,014	0,002
-570,904	309,478	-0,055	-0,076
-569,890	86,235	0,039	0,032
-568,875	-177,324	-0,058	0,001
-567,861	-92,508	-0,143	-0,030
-566,846	800,000	0,048	0,118
-565,831	228,610	-0,019	-0,023
-564,817	800,000	0,039	-0,090
-563,802	-200,000	-0,015	-0,158
-562,788	-200,000	-0,016	0,082
-561,773	-200,000	0,008	0,086
-560,758	-200,000	-0,015	0,094
-559,744	161,472	-0,071	0,074
-558,729	-86,218	0,078	-0,018
-557,715	800,000	0,042	0,112
-556,700	-200,000	-0,008	-0,120
-555,685	-49,533	-0,135	-0,047
-554,671	172,008	0,078	0,083
-553,656	-76,428	-0,049	-0,013
-552,642	-200,000	0,011	0,036
-551,627	-200,000	0,002	0,057
-550,612	-200,000	-0,007	-0,169
-549,598	17,165	0,043	-0,025
-548,583	-3,549	-0,141	-0,072
-547,569	-200,000	-0,005	-0,140
-546,554	800,000	-0,019	0,050
-545,539	-200,000	-0,025	0,098
-544,525	161,673	-0,058	0,060
-543,510	606,563	0,040	0,074
-542,496	47,247	-0,031	-0,021
-541,481	-2,019	-0,052	-0,027
-540,466	42,440	-0,044	-0,030
-539,452	800,000	0,031	0,095
-538,437	-23,730	-0,038	-0,017
-537,423	800,000	0,052	0,148
-536,408	248,778	0,097	0,121
-535,393	-200,000	0,001	0,006
-534,379	44,117	0,190	-0,129
-533,364	539,631	-0,076	-0,134
-532,350	18,637	-0,062	-0,036
-531,335	222,987	0,113	0,135
-530,321	800,000	-0,019	0,054
-529,306	-59,542	0,048	0,015
-528,291	166,369	-0,067	-0,071
-527,277	-200,000	0,004	-0,114
-526,262	-183,094	0,088	-0,001
-525,248	118,782	-0,090	-0,083
-524,233	-200,000	-0,010	-0,042
-523,218	-51,268	0,068	0,023
-522,204	264,072	-0,048	0,061
-521,189	-200,000	-0,003	-0,018
-520,175	322,696	0,024	-0,034
-519,160	800,000	-0,044	-0,091
-518,145	206,766	0,046	-0,053
-517,131	118,222	0,044	0,040
-516,116	-75,345	0,067	-0,018
-515,102	100,609	0,090	-0,078
-514,087	473,610	-0,069	-0,116
-513,072	270,219	-0,021	0,027
-512,058	-146,054	0,063	-0,004
-511,043	250,810	-0,059	0,074
-510,029	-200,000	0,005	0,060
-509,014	800,000	0,041	0,103
-507,999	216,633	0,049	0,058
-506,985	80,660	0,052	0,042
-505,970	71,511	-0,047	0,036
-504,956	800,000	0,022	-0,061
-503,941	-26,602	-0,064	0,027
-502,926	-198,318	0,110	-0,000
-501,912	73,388	-0,059	0,046
-500,897	-73,990	-0,127	0,034
-499,883	186,432	0,033	0,036
-498,868	271,995	-0,075	-0,098
-497,853	-6,817	0,154	-0,077
-496,839	-16,271	0,016	0,007
-495,824	-200,000	0,030	-0,134
-494,810	800,000	-0,020	0,057
-493,795	-200,000	0,006	-0,115
-492,781	99,191	-0,104	0,088
-491,766	-55,005	-0,052	-0,017
-490,751	-57,736	0,071	0,023
-489,737	98,566	-0,063	-0,053
-488,722	-165,376	0,069	-0,002
-487,708	31,249	-0,133	0,084
-486,693	-141,896	0,098	0,007
-485,678	-200,000	0,001	0,086
-484,664	-21,114	-0,038	-0,017
-483,649	-152,480	0,044	-0,002
-482,635	-107,017	0,029	0,005
-481,620	-107,483	0,078	0,012
-480,605	147,994	0,115	0,115
-479,591	-200,000	0,021	-0,114
-478,576	145,451	0,028	-0,028
-477,562	-131,651	-0,114	-0,011
-476,547	-68,870	-0,172	-0,049
-475,532	-200,000	0,031	-0,159
-474,518	800,000	-0,008	-0,024
-473,503	108,232	0,123	0,109
-472,489	-200,000	0,083	0,311
-471,474	-50,767	-0,061	-0,021
-470,459	800,000	0,023	-0,064
-469,445	800,000	0,027	-0,085
-468,430	334,975	0,034	0,048
-467,416	-200,000	-0,001	-0,063
-466,401	296,670	0,088	0,120
-465,386	82,364	-0,069	0,055
-464,372	800,000	-0,014	-0,038
-463,357	-144,107	0,051	-0,004
-462,343	-200,000	-0,022	-0,089
-461,328	-200,000	-0,001	0,101
-460,313	-134,443	-0,119	-0,011
-459,299	-200,000	0,030	0,156
-458,284	-57,498	0,087	-0,028
-457,270	479,173	0,093	0,155
-456,255	-200,000	-0,013	0,101
-455,241	-106,128	-0,109	0,018
-454,226	1,193	-0,171	0,090
-453,211	-200,000	0,002	-0,016
-452,197	121,848	0,096	0,088
-451,182	523,059	0,099	0,172
-450,168	275,796	0,030	-0,040
-449,153	800,000	-0,031	-0,096
-448,138	389,790	0,038	-0,058
-447,124	31,061	-0,054	-0,034
-446,109	111,507	0,014	0,012
-445,095	800,000	-0,019	0,046
-444,080	80,837	0,055	0,043
-443,065	-59,386	-0,118	0,037
-442,051	-114,359	-0,129	0,018
-441,036	-34,864	-0,042	-0,017
-440,022	191,928	0,065	0,072
-439,007	-113,394	0,167	-0,024
-437,992	-106,916	0,064	0,010
-436,978	-50,393	0,119	0,041
-435,963	34,581	-0,125	0,080
-434,949	543,623	-0,064	0,113
-433,934	-200,000	0,005	0,046
-432,919	-56,499	0,082	-0,027
-431,905	54,334	-0,096	-0,068
-430,890	-28,769	0,186	0,078
-429,876	-68,647	-0,128	-0,036
-428,861	31,644	-0,010	-0,007
-427,846	-200,000	0,017	0,153
-426,832	-59,650	-0,052	0,016
-425,817	455,693	-0,014	0,024
-424,803	-200,000	-0,001	-0,011
-423,788	24,668	0,106	-0,065
-422,773	800,000	-0,022	0,058
-421,759	-133,501	0,063	-0,006
-420,744	68,598	-0,062	-0,047
-419,730	292,650	-0,061	-0,082
-418,715	-200,000	0,012	-0,054
-417,701	800,000	-0,042	0,091
-416,686	213,600	0,084	0,098
-415,671	662,374	-0,066	0,125
-414,657	-200,000	-0,003	-0,083
-413,642	135,868	0,030	0,029
-412,628	230,516	-0,014	-0,017
-411,613	42,593	-0,107	-0,072
-410,598	-67,935	-0,098	-0,028
-409,584	800,000	-0,020	-0,046
-408,569	478,639	0,028	0,046
-407,555	800,000	-0,039	0,118
-406,540	772,465	0,020	0,041
-405,525	-169,250	-0,036	0,001
-404,511	-200,000	0,005	-0,076
-403,496	800,000	-0,010	-0,024
-402,482	58,906	0,040	-0,029
-401,467	800,000	-0,054	-0,110
-400,452	-110,536	-0,101	-0,015
-399,438	-128,122	0,030	-0,003
-398,423	800,000	0,020	0,060
-397,409	-116,652	-0,051	0,007
-396,394	-200,000	0,006	0,087
-395,379	34,096	0,157	-0,100
-394,365	-9,209	0,053	-0,026
-393,350	-48,636	-0,086	0,030
-392,336	-1,148	-0,064	-0,033
-391,321	544,335	-0,010	0,018
-390,306	505,074	0,029	0,050
-389,292	-118,167	0,075	-0,010
-388,277	-200,000	0,014	-0,055
-387,263	-93,576	0,147	0,030
-386,248	800,000	0,042	0,111
-385,233	800,000	0,051	0,152
-384,219	139,201	-0,042	0,040
-383,204	41,212	-0,175	0,116
-382,190	-55,645	-0,108	-0,035
-381,175	-200,000	-0,001	-0,018
-380,160	-71,305	0,175	0,048
-379,146	81,883	-0,078	-0,062
-378,131	309,238	-0,057	0,079
-377,117	-200,000	-0,006	0,028
-376,102	148,230	0,063	-0,063
-375,088	68,213	0,199	-0,149
-374,073	436,092	-0,022	0,036
-373,058	800,000	-0,016	0,044
-372,044	628,242	0,041	-0,076
-371,029	-50,915	-0,031	0,011
-370,015	288,242	0,068	-0,090
-369,000	800,000	0,015	-0,048
-367,985	-200,000	0,035	-0,133
-366,971	-200,000	-0,023	0,162
-365,956	-20,658	0,080	0,036
-364,942	20,759	0,071	0,042
-363,927	800,000	0,062	0,198
-362,912	12,618	-0,123	-0,069
-361,898	800,000	0,038	0,092
-360,883	-44,636	0,059	0,022
-359,869	450,073	-0,023	-0,037
-358,854	800,000	-0,064	-0,150
-357,839	-104,801	0,066	-0,011
-356,825	800,000	0,035	0,093
-355,810	-38,767	0,013	0,005
-354,796	58,887	0,043	0,031
-353,781	49,956	-0,085	-0,059
-352,766	-161,251	-0,099	-0,004
-351,752	16,974	-0,080	-0,046
-350,737	5,696	0,106	0,057
-349,723	49,994	0,075	0,052
-348,708	800,000	0,089	0,182
-347,693	176,418	-0,040	-0,043
-346,679	-6,576	-0,137	-0,068
-345,664	-200,000	0,021	-0,142
-344,650	-200,000	0,014	-0,070
-343,635	1,191	-0,047	0,025
-342,620	-119,303	0,149	-0,019
-341,606	-151,922	-0,112	0,006
-340,591	5,490	-0,085	0,046
-339,577	-141,025	0,039	-0,003
-338,562	47,992	-0,068	-0,046
-337,548	-132,309	0,100	0,009
-336,533	755,390	-0,047	-0,093
-335,518	800,000	0,040	0,120
-334,504	-200,000	-0,015	0,127
-333,489	-91,433	-0,039	-0,008
-332,475	-20,569	0,028	0,013
-331,460	312,244	0,015	-0,021
-330,445	-200,000	-0,005	0,057
-329,431	170,699	0,062	0,065
-328,416	-73,340	0,060	0,016
-327,402	50,947	-0,038	0,027
-326,387	194,459	-0,044	-0,049
-325,372	590,247	-0,044	-0,079
-324,358	-200,000	0,003	-0,021
-323,343	-200,000	0,006	0,093
-322,329	323,527	-0,032	-0,045
-321,314	-131,917	0,050	-0,005
-320,299	225,064	0,074	0,087
-319,285	-144,718	-0,158	-0,011
-318,270	13,752	-0,054	-0,031
-317,256	-3,378	-0,061	0,031
-316,241	-16,854	-0,046	-0,021
-315,226	-200,000	0,007	0,046
-314,212	146,802	0,085	-0,084
-313,197	73,271	0,068	0,052
-312,183	130,071	0,039	0,037
-311,168	800,000	-0,059	-0,124
-310,153	-125,816	-0,152	0,017
-309,139	169,654	0,135	-0,142
-308,124	338,775	0,032	0,046
-307,110	-200,000	0,036	0,258
-306,095	13,169	0,115	-0,065
-305,080	-200,000	0,001	0,032
-304,066	800,000	-0,046	0,107
-303,051	-200,000	0,009	-0,098
-302,037	-200,000	0,012	0,091
-301,022	280,901	0,039	-0,052
-300,008	-200,000	0,000	-0,045
-298,993	127,612	0,065	-0,060
-297,978	543,940	-0,030	-0,052
-296,964	226,540	-0,045	0,054
-295,949	-200,000	0,003	-0,053
-294,935	-188,100	-0,101	0,001
-293,920	-200,000	0,211	0,000
-292,905	-200,000	0,006	0,104
-291,891	30,094	-0,005	-0,003
-290,876	-200,000	0,002	-0,011
-289,862	-200,000	0,015	-0,093
-288,847	583,698	-0,048	-0,087
-287,832	30,218	0,095	-0,059
-286,818	-119,642	-0,029	0,004
-285,803	381,329	0,127	0,192
-284,789	-200,000	-0,015	-0,064
-283,774	685,790	0,042	0,080
-282,759	712,917	-0,080	0,156
-281,745	-200,000	-0,023	-0,095
-280,730	163,348	-0,037	-0,038
-279,716	-9,597	0,058	0,028
-278,701	800,000	-0,059	-0,175
-277,686	306,410	0,034	0,046
-276,672	11,864	0,065	-0,036
-275,657	-200,000	-0,019	-0,075
-274,643	72,201	0,131	-0,099
-273,628	99,723	-0,086	-0,073
-272,613	800,000	-0,011	-0,028
-271,599	800,000	0,056	-0,146
-270,584	-29,406	-0,131	0,055
-269,570	555,407	-0,057	0,100
-268,555	137,513	0,016	-0,016
-267,540	36,462	-0,076	-0,049
-266,526	-200,000	0,007	-0,064
-265,511	105,885	0,039	0,034
-264,497	391,458	0,050	0,076
-263,482	800,000	0,055	0,112
-262,467	66,553	0,046	-0,034
-261,453	-200,000	-0,004	-0,083
-260,438	-78,844	0,081	0,020
-259,424	657,086	0,055	-0,105
-258,409	63,200	0,077	-0,057
-257,395	55,135	0,094	-0,066
-256,380	-200,000	-0,002	-0,032
-255,365	98,311	0,010	0,008
-254,351	-116,485	0,054	-0,007
-253,336	-181,938	-0,118	0,002
-252,322	-65,679	0,133	0,039
-251,307	-39,344	-0,058	-0,022
-250,292	61,232	0,124	0,090
-249,278	299,806	-0,026	0,035
-248,263	800,000	0,017	0,046
-247,249	193,716	0,066	0,074
-246,234	-9,945	0,170	0,082
-245,219	11,656	-0,039	-0,022
-244,205	311,027	-0,074	0,102
-243,190	19,674	-0,064	-0,037
-242,176	535,776	0,035	-0,061
-241,161	233,458	0,056	0,068
-240,146	138,105	-0,036	-0,035
-239,132	123,828	-0,029	0,027
-238,117	800,000	-0,084	0,194
-237,103	-200,000	-0,034	-0,129
-236,088	-122,196	-0,079	-0,009
-235,073	-108,004	-0,078	-0,012
-234,059	-200,000	0,037	0,128
-233,044	-65,394	0,142	-0,041
-232,030	-6,058	-0,107	-0,053
-231,015	21,301	-0,118	-0,070
-230,000	800,000	-0,015	-0,035
-228,986	-200,000	0,033	0,127
-227,971	800,000	0,046	-0,100
-226,957	-110,499	0,163	-0,024
-225,942	96,063	0,036	-0,030
-224,927	-148,227	0,103	0,006
-223,913	800,000	-0,044	-0,104
-222,898	-200,000	0,023	0,109
-221,884	-200,000	0,011	-0,053
-220,869	-83,914	0,038	-0,009
-219,855	121,904	-0,031	-0,029
-218,840	387,286	-0,033	-0,050
-217,825	-73,387	0,047	-0,012
-216,811	800,000	0,027	-0,063
-215,796	-127,509	-0,081	-0,008
-214,782	-117,015	-0,073	-0,010
-213,767	-200,000	0,027	-0,092
-212,752	102,382	-0,040	-0,034
-211,738	-200,000	-0,010	0,093
-210,723	-69,856	-0,052	-0,014
-209,709	-200,000	0,013	0,110
-208,694	514,293	-0,072	-0,123
-207,679	-49,490	0,095	-0,033
-206,665	-200,000	0,001	0,105
-205,650	117,649	-0,081	-0,072
-204,636	-5,450	0,065	-0,032
-203,621	401,142	-0,025	0,039
-202,606	800,000	-0,028	0,061
-201,592	-31,580	-0,126	0,051
-200,577	7,986	-0,029	-0,016
-199,563	16,927	-0,025	0,014
-198,548	-98,778	0,072	0,013
-197,533	-116,271	0,210	0,028
-196,519	-145,251	0,108	0,007
-195,504	249,215	0,115	-0,143
-194,490	28,774	0,067	-0,041
-193,475	800,000	0,023	-0,063
-192,460	-200,000	0,018	-0,140
-191,446	-200,000	0,007	0,134
-190,431	-200,000	0,029	-0,111
-189,417	106,251	-0,113	0,097
-188,402	333,142	-0,065	-0,092
-187,387	124,799	-0,068	-0,062
-186,373	209,462	-0,145	-0,166
-185,358	-200,000	0,018	-0,088
-184,344	-33,447	-0,051	0,020
-183,329	50,984	0,047	-0,032
-182,315	800,000	0,057	0,127
-181,300	367,626	-0,059	0,087
-180,285	26,714	0,027	-0,016
-179,271	38,647	-0,101	-0,065
-178,256	724,087	0,062	0,121
-177,242	-149,867	-0,149	-0,008
-176,227	-7,694	0,118	0,058
-175,212	670,758	-0,047	0,089
-174,198	-52,581	0,074	0,025
-173,183	713,802	-0,068	-0,132
-172,169	126,481	0,061	0,056
-171,154	550,825	-0,052	-0,092
-170,139	-26,091	0,104	0,044
-169,125	-200,000	-0,024	0,077
-168,110	-97,076	-0,150	-0,028
-167,096	-200,000	0,000	0,069
-166,081	2,288	-0,071	-0,037
-165,066	800,000	-0,032	-0,088
-164,052	5,868	-0,078	-0,042
-163,037	29,548	0,157	-0,097
-162,023	800,000	-0,040	0,102
-161,008	-22,409	-0,043	-0,019
-159,993	455,262	0,045	0,073
-158,979	614,140	-0,066	0,121
-157,964	-5,938	-0,143	-0,071
-156,950	147,679	0,014	0,014
-155,935	124,916	-0,106	-0,098
-154,920	-200,000	0,050	0,000
-153,906	655,929	0,074	0,139
-152,891	800,000	0,041	0,090
-151,877	384,198	-0,029	-0,044
-150,862	-200,000	0,009	-0,054
-149,847	-48,023	0,156	-0,055
-148,833	59,072	-0,112	0,080
-147,818	-36,685	0,135	0,052
-146,804	800,000	0,068	-0,175
-145,789	-134,624	0,154	0,013
-144,775	-71,473	0,044	-0,012
-143,760	158,756	0,032	0,032
-142,745	800,000	0,040	-0,118
-141,731	-200,000	-0,004	0,013
-140,716	-200,000	-0,025	-0,080
-139,702	-3,008	0,109	-0,055
-138,687	800,000	0,031	-0,088
-137,672	-158,337	-0,062	0,003
-136,658	800,000	-0,007	-0,020
-135,643	206,044	-0,089	-0,101
-134,629	61,876	-0,039	0,029
-133,614	-200,000	0,009	0,030
-132,599	20,421	0,058	-0,034
-131,585	128,428	0,034	-0,032
-130,570	574,621	-0,061	0,108
-129,556	-200,000	0,005	-0,088
-128,541	800,000	0,029	-0,087
-127,526	-200,000	-0,001	-0,059
-126,512	165,145	-0,013	0,013
-125,497	152,488	0,047	0,046
-124,483	397,141	0,123	0,187
-123,468	-87,077	0,053	0,012
-122,453	-166,145	-0,059	-0,002
-121,439	505,837	-0,036	-0,062
-120,424	14,788	-0,093	-0,053
-119,410	461,178	-0,058	-0,095
-118,395	-200,000	0,028	0,114
-117,380	-200,000	0,010	0,053
-116,366	800,000	-0,005	-0,010
-115,351	769,104	-0,047	-0,094
-114,337	144,342	0,059	-0,057
-113,322	800,000	0,040	0,115
-112,307	-200,000	0,001	0,101
-111,293	217,643	0,049	0,057
-110,278	-1,340	-0,095	-0,048
-109,264	-59,031	-0,068	0,021
-108,249	208,170	-0,079	-0,090
-107,234	749,997	-0,028	-0,056
-106,220	655,694	0,098	0,183
-105,205	-200,000	0,008	0,027
-104,191	-37,155	-0,095	-0,037
-103,176	-19,444	-0,065	0,029
-102,162	-200,000	0,063	0,204
-101,147	56,976	-0,056	0,039
-100,132	-4,040	0,121	-0,061
-99,118	-64,942	0,110	-0,032
-98,103	-137,904	0,015	-0,001
-97,089	173,306	0,069	0,073
-96,074	241,501	0,093	-0,113
-95,059	-200,000	-0,001	0,012
-94,045	800,000	0,046	0,123
-93,030	-70,184	-0,086	0,024
-92,016	26,317	-0,129	-0,078
-91,001	-200,000	0,018	-0,066
-89,986	-140,966	0,079	0,006
-88,972	-200,000	0,003	0,052
-87,957	283,873	-0,050	0,065
-86,943	-11,368	-0,047	0,022
-85,928	243,471	0,059	0,072
-84,913	-118,152	0,066	0,008
-83,899	-200,000	-0,003	-0,030
-82,884	11,238	0,008	-0,005
-81,870	-131,233	-0,060	0,006
-80,855	5,824	-0,039	0,021
-79,840	-200,000	0,021	-0,099
-78,826	-200,000	-0,009	-0,074
-77,811	115,599	0,089	-0,079
-76,797	800,000	-0,015	0,041
-75,782	53,269	-0,081	0,056
-74,767	-10,261	0,116	0,056
-73,753	-200,000	0,024	0,124
-72,738	-52,112	-0,108	0,036
-71,724	434,409	-0,054	-0,086
-70,709	265,073	-0,073	-0,093
-69,694	538,983	-0,055	-0,096
-68,680	131,270	0,053	-0,050
-67,665	-96,324	0,104	-0,020
-66,651	-200,000	0,006	-0,054
-65,636	282,713	-0,074	-0,097
-64,622	637,659	0,047	0,088
-63,607	162,285	-0,077	-0,078
-62,592	50,208	-0,051	0,035
-61,578	258,514	-0,034	0,042
-60,563	533,029	-0,059	-0,102
-59,549	-61,822	-0,044	0,013
-58,534	-138,191	-1,410	-0,112
-57,519	685,323	-0,727	-1,384
-56,505	-200,000	-0,918	-4,475
-55,490	23,037	0,650	-0,386
-54,476	800,000	4,824	11,909
-53,461	-200,000	13,582	253,795
-52,446	-200,000	689,730	2262,401
-51,432	591,991	1622,734	2919,872
-50,417	119,665	1635,285	1470,210
-49,403	73,404	1289,316	978,261
-48,388	38,163	1024,482	660,339
-47,373	24,385	982,028	587,651
-46,359	23,629	971,754	579,001
-45,344	22,674	967,534	573,342
-44,330	22,580	966,089	572,158
-43,315	22,470	964,725	570,969
-42,300	22,473	963,455	570,202
-41,286	22,464	962,605	569,649
-40,271	22,417	961,814	569,006
-39,257	22,413	960,917	568,440
-38,242	22,416	959,910	567,831
-37,227	22,460	958,920	567,364
-36,213	22,385	958,270	566,715
-35,198	22,383	957,376	566,157
-34,184	22,490	956,536	565,983
-33,169	22,384	955,908	565,247
-32,154	22,461	954,867	564,857
-31,140	22,457	953,969	564,290
-30,125	22,494	953,011	563,821
-29,111	22,449	952,248	563,203
-28,096	22,436	951,709	562,820
-27,082	22,431	951,032	562,381
-26,067	22,475	950,179	561,994
-25,052	22,467	949,485	561,536
-24,038	22,455	948,862	561,106
-23,023	22,387	948,349	560,565
-22,009	22,498	947,591	560,450
-20,994	22,511	946,962	560,098
-19,979	22,441	946,431	559,536
-18,965	22,437	945,703	559,071
-17,950	22,518	944,948	558,860
-16,936	22,416	944,364	558,169
-15,921	22,401	943,665	557,684
-14,906	22,331	942,998	557,044
-13,892	22,367	942,306	556,729
-12,877	22,265	941,968	556,184
-11,863	22,301	941,125	555,777
-10,848	22,251	940,487	555,219
-9,833	22,449	940,063	555,576
-8,819	22,440	939,508	555,199
-7,804	22,378	938,647	554,470
-6,790	22,321	938,172	553,989
-5,775	22,415	937,464	553,845
-4,760	22,379	937,021	553,447
-3,746	22,370	936,463	553,066
-2,731	22,127	935,795	551,882
-1,717	22,105	935,043	551,349
-0,702	22,196	934,297	551,173
0,313	21,977	933,771	551,005
1,327	24,905	931,877	559,049
2,342	34,375	796,196	502,890
3,356	32,307	451,303	281,909
4,371	1,532	293,243	152,514
5,386	-2,761	274,148	138,515
6,400	-4,366	268,166	133,996
7,415	-4,945	265,819	132,280
8,429	-4,576	264,446	131,921
9,444	-4,689	263,739	131,454
10,459	-4,710	263,187	131,148
11,473	-4,713	262,482	130,783
12,488	-4,691	262,005	130,553
13,502	-4,887	261,443	130,084
14,517	-4,933	261,094	129,858
15,531	-4,611	260,578	129,879
16,546	-4,660	260,255	129,662
17,561	-4,700	259,975	129,475
18,575	-4,765	259,643	129,240
19,590	-4,658	259,283	129,146
20,604	-4,655	259,094	129,042
21,619	-4,757	258,612	128,700
22,634	-4,689	258,440	128,664
23,648	-4,740	258,040	128,408
24,663	-4,788	257,791	128,229
25,677	-4,796	257,628	128,130
26,692	-4,788	257,198	127,912
27,707	-4,703	257,122	127,938
28,721	-4,885	256,774	127,592
29,736	-4,936	256,546	127,423
30,750	-4,890	256,181	127,270
31,765	-4,849	256,111	127,260
32,780	-4,657	255,776	127,252
33,794	-4,746	255,570	127,060
34,809	-4,726	255,371	126,967
35,823	-4,784	255,095	126,767
36,838	-4,811	254,877	126,624
37,853	-4,911	254,554	126,365
38,867	-4,838	254,342	126,313
39,882	-4,640	254,156	126,382
40,896	-4,808	253,914	126,104
41,911	-4,630	253,691	126,137
42,926	-4,900	253,402	125,747
43,940	-4,859	253,230	125,686
44,955	-5,016	253,049	125,448
45,969	-4,999	252,758	125,307
46,984	-5,243	252,571	124,991
47,999	-5,415	252,397	124,745
49,013	-5,559	252,078	124,451
50,028	-5,488	251,821	124,374
51,042	-5,716	251,622	124,068
52,057	-5,905	251,326	123,747
53,071	-5,659	251,046	123,811
54,086	-5,613	250,943	123,789
55,101	-5,366	250,713	123,877
56,115	-5,252	250,762	123,988
57,130	-4,814	250,701	124,325
58,144	-4,426	250,296	124,447
59,159	-4,761	250,286	124,143
60,174	-4,726	250,069	124,054
61,188	-4,578	249,893	124,083
62,203	-4,653	249,681	123,902
63,217	-4,767	249,527	123,717
64,232	-4,761	249,277	123,587
65,247	-4,681	249,039	123,526
66,261	-4,754	248,810	123,339
67,276	-4,896	248,472	123,040
68,290	-5,173	248,368	122,741
69,305	-5,203	248,047	122,545
70,320	-5,240	247,753	122,359
71,334	-4,864	247,768	122,675
72,349	-4,606	247,463	122,732
73,363	-4,697	247,465	122,644
74,378	-4,723	247,241	122,501
75,393	-4,879	246,928	122,202
76,407	-4,519	246,710	122,388
77,422	-4,857	246,550	122,012
78,436	-4,903	246,457	121,916
79,451	-4,726	246,272	121,963
80,466	-4,899	245,905	121,624
81,480	-5,026	245,764	121,438
82,495	-5,050	245,557	121,304
83,509	-4,892	245,450	121,373
84,524	-4,835	245,175	121,274
85,539	-5,091	244,934	120,929
86,553	-5,053	244,768	120,868
87,568	-5,206	244,657	120,674
88,582	-5,065	244,487	120,698
89,597	-5,099	244,272	120,552
90,611	-5,150	244,219	120,473
91,626	-4,920	243,984	120,538
92,641	-4,813	243,715	120,484
93,655	-5,124	243,633	120,173
94,670	-4,735	243,419	120,382
95,684	-5,076	243,208	119,983
96,699	-4,913	242,893	119,952
97,714	-4,956	242,814	119,866
98,728	-5,077	242,559	119,629
99,743	-5,205	242,455	119,462
100,757	-5,016	242,100	119,432
101,772	-5,334	242,201	119,208
102,787	-5,014	241,756	119,243
103,801	-5,001	241,684	119,208
104,816	-4,966	241,624	119,197
105,830	-4,949	241,520	119,149
106,845	-4,806	241,342	119,168
107,860	-4,742	241,129	119,105
108,874	-5,071	240,645	118,584
109,889	-4,948	240,546	118,627
110,903	-4,902	240,453	118,608
111,918	-5,075	240,213	118,337
112,933	-4,937	240,125	118,396
113,947	-4,953	240,082	118,351
114,962	-4,942	239,859	118,240
115,976	-4,859	239,711	118,224
116,991	-4,880	239,418	118,053
118,006	-4,940	239,207	117,889
119,020	-4,842	239,179	117,944
120,035	-4,913	239,077	117,825
121,049	-4,697	238,940	117,924
122,064	-4,598	238,602	117,827
123,079	-4,775	238,451	117,598
124,093	-4,982	238,295	117,342
125,108	-5,053	237,982	117,119
126,122	-5,120	237,750	116,941
127,137	-5,234	237,609	116,768
128,151	-5,374	237,526	116,603
129,166	-5,197	237,211	116,582
130,181	-5,197	237,154	116,544
131,195	-5,151	236,744	116,369
132,210	-5,229	236,806	116,326
133,224	-4,963	236,666	116,462
134,239	-4,935	236,607	116,445
135,254	-5,119	236,450	116,208
136,268	-4,938	236,137	116,190
137,283	-5,367	235,865	115,701
138,297	-5,300	235,764	115,695
139,312	-5,203	235,526	115,646
140,327	-5,011	235,403	115,729
141,341	-4,330	235,577	116,352
142,356	-4,740	235,324	115,887
143,370	-4,715	235,189	115,831
144,385	-4,529	234,968	115,860
145,400	-4,503	234,673	115,726
146,414	-4,684	234,657	115,562
147,429	-4,576	234,433	115,528
148,443	-4,699	234,308	115,358
149,458	-4,670	234,216	115,325
150,473	-4,786	234,137	115,183
151,487	-4,656	233,777	115,099
152,502	-4,572	233,630	115,084
153,516	-4,561	233,549	115,043
154,531	-4,473	233,205	114,933
155,546	-4,547	233,092	114,808
156,560	-4,677	232,918	114,609
157,575	-4,907	232,624	114,272
158,589	-4,780	232,546	114,324
159,604	-4,442	232,475	114,547
160,619	-4,300	232,212	114,519
161,633	-4,384	231,991	114,334
162,648	-4,625	231,993	114,134
163,662	-4,540	231,907	114,149
164,677	-4,779	231,662	113,830
165,692	-4,687	231,451	113,788
166,706	-4,557	231,410	113,860
167,721	-4,566	231,244	113,761
168,735	-4,311	231,114	113,888
169,750	-4,506	230,973	113,655
170,764	-4,570	230,648	113,434
171,779	-4,361	230,628	113,578
172,794	-4,412	230,535	113,482
173,808	-4,595	230,253	113,191
174,823	-4,896	229,890	112,767
175,837	-5,186	229,668	112,420
176,852	-4,916	229,707	112,641
177,867	-4,608	229,639	112,838
178,881	-4,570	229,564	112,820
179,896	-4,618	229,438	112,712
180,910	-4,413	229,141	112,715
181,925	-4,582	229,092	112,550
182,940	-4,298	228,906	112,669
183,954	-4,496	228,905	112,505
184,969	-4,508	228,676	112,373
185,983	-4,135	228,426	112,530
186,998	-4,549	228,374	112,172
188,013	-4,469	228,215	112,146
189,027	-4,442	228,115	112,108
190,042	-4,244	227,804	112,098
191,056	-4,579	227,700	111,778
192,071	-4,408	227,495	111,800
193,086	-4,509	227,304	111,618
194,100	-4,435	227,324	111,675
195,115	-4,580	226,786	111,289
196,129	-4,965	226,565	110,874
197,144	-1,572	227,653	114,017
198,159	1,871	228,955	117,329
199,173	4,191	229,317	119,301
200,188	4,204	229,260	119,271
201,202	4,219	229,022	119,148
202,217	4,329	228,949	119,185
203,232	4,377	228,848	119,159
204,246	4,659	228,701	119,289
205,261	4,860	228,397	119,275
206,275	4,991	228,396	119,364
207,290	4,902	228,223	119,195
208,304	5,065	228,174	119,284
209,319	4,937	227,942	119,054
210,334	4,692	227,770	118,765
211,348	4,377	227,618	118,433
212,363	4,192	227,375	118,155
213,377	4,035	227,045	117,852
214,392	4,209	226,823	117,859
215,407	4,200	226,957	117,912
216,421	4,111	226,704	117,702
217,436	4,035	226,504	117,529
218,450	3,738	226,302	117,187
219,465	3,621	226,064	116,965
220,480	3,912	225,990	117,138
221,494	3,970	225,826	117,087
222,509	3,760	225,802	116,904
223,523	3,863	225,567	116,850
224,538	3,839	225,378	116,724
225,553	4,043	225,334	116,845
226,567	3,975	225,261	116,746
227,582	4,272	224,913	116,780
228,596	4,322	224,937	116,819
229,611	4,244	224,674	116,614
230,626	4,102	224,401	116,354
231,640	4,074	224,367	116,305
232,655	4,248	224,307	116,395
233,669	4,163	224,431	116,384
234,684	4,429	224,180	116,445
235,699	4,311	223,940	116,221
236,713	4,165	223,780	116,017
237,728	3,883	223,503	115,652
238,742	4,047	223,266	115,642
239,757	4,159	223,164	115,662
240,772	3,925	223,065	115,425
241,786	3,979	222,896	115,368
242,801	4,219	222,852	115,515
243,815	4,407	222,767	115,601
244,830	4,264	222,629	115,413
245,844	4,113	222,482	115,213
246,859	4,334	222,077	115,158
247,874	4,184	222,150	115,073
248,888	4,328	221,950	115,067
249,903	4,389	221,792	115,020
250,917	4,108	221,790	114,799
251,932	4,101	221,507	114,638
252,947	4,092	221,326	114,528
253,961	3,830	221,131	114,221
254,976	3,963	221,071	114,279
255,990	4,062	221,033	114,323
257,005	4,133	220,906	114,299
258,020	4,262	220,699	114,278
259,034	4,403	220,602	114,322
260,049	4,250	220,459	114,125
261,063	4,380	220,277	114,116
262,078	4,348	220,229	114,057
263,093	4,412	220,125	114,040
264,107	4,286	220,014	113,880
265,122	4,435	219,688	113,811
266,136	4,511	219,731	113,878
267,151	4,421	219,489	113,677
268,166	3,974	219,250	113,214
269,180	3,636	219,069	112,862
270,195	3,730	218,924	112,846
271,209	4,038	218,849	113,024
272,224	4,036	218,684	112,927
273,239	4,020	218,594	112,859
274,253	4,043	218,407	112,769
275,268	3,856	218,273	112,553
276,282	3,704	217,989	112,285
277,297	3,550	217,849	112,091
278,312	3,775	217,828	112,234
279,326	4,042	217,677	112,341
280,341	3,958	217,457	112,156
281,355	4,060	217,423	112,204
282,370	4,019	217,288	112,093
283,384	4,093	217,053	112,017
284,399	3,738	216,883	111,660
285,414	3,703	216,700	111,531
286,428	4,098	216,651	111,783
287,443	4,151	216,566	111,767
288,457	4,034	216,460	111,618
289,472	3,896	216,427	111,491
290,487	3,601	216,075	111,086
291,501	3,610	215,852	110,968
292,516	3,838	215,660	111,024
293,530	3,796	215,556	110,930
294,545	3,843	215,543	110,947
295,560	3,737	215,332	110,752
296,574	3,860	215,333	110,832
297,589	4,017	215,139	110,835
298,603	4,024	215,169	110,845
299,618	4,080	214,950	110,764
300,633	4,157	214,830	110,747
301,647	4,152	214,730	110,682
302,662	4,277	214,625	110,708
303,676	4,222	214,439	110,562
304,691	4,206	214,380	110,511
305,706	4,328	214,244	110,518
306,720	4,451	213,990	110,465
307,735	4,113	213,747	110,089
308,749	4,086	213,599	109,983
309,764	3,968	213,585	109,882
310,779	4,275	213,497	110,046
311,793	4,056	213,443	109,852
312,808	3,952	213,197	109,641
313,822	4,161	213,001	109,680
314,837	3,859	212,879	109,392
315,852	4,169	212,618	109,469
316,866	3,954	212,502	109,246
317,881	4,399	212,509	109,557
318,895	4,065	212,422	109,265
319,910	4,150	212,133	109,167
320,925	4,046	211,796	108,910
321,939	3,524	211,897	108,583
322,954	3,499	211,626	108,416
323,968	3,863	211,729	108,717
324,983	4,058	211,604	108,780
325,997	4,283	211,396	108,823
327,012	4,267	211,268	108,736
328,027	3,990	211,159	108,475
329,041	4,353	211,078	108,679
330,056	4,555	210,968	108,755
331,070	4,080	210,658	108,252
332,085	3,799	210,470	107,949
333,100	3,760	210,438	107,895
334,114	4,084	210,256	108,019
335,129	4,113	210,083	107,941
336,143	3,910	210,075	107,785
337,158	3,716	209,923	107,561
338,173	4,025	209,825	107,718
339,187	3,726	209,663	107,416
340,202	3,435	209,407	107,072
341,216	3,519	209,362	107,099
342,231	3,898	209,180	107,260
343,246	3,799	209,092	107,136
344,260	3,850	208,847	107,037
345,275	3,938	208,795	107,062
346,289	4,002	208,754	107,076
347,304	4,093	208,553	107,026
348,319	3,992	208,418	106,877
349,333	3,809	208,306	106,683
350,348	4,134	208,178	106,834
351,362	4,217	208,191	106,888
352,377	4,084	208,061	106,720
353,392	4,232	207,727	106,641
354,406	4,017	207,638	106,438
355,421	193,561	1343,715	1431,277
356,435	154,413	1482,233	1431,405
