DTS Sentinel unit serial number:	SN410029Multiplexer serial number:	ORYXHardware model number:	OX2-SRSoftware version number:	ORYX F/W v4,00 Oryx Data Collector v3.7.2.0data status	okinstallation	B6 Nyhavnadifferential loss correction	single-endedforward channel	channel 2reverse channel	N/Adate	2023/12/10time	14:55:08forward acquisition time	300,00reverse acquisition time	0,00gamma	499,1914k internal	0,3122k external	0,3122temperature offset calibration	1,0000default loss term (dB/km)	0,3820temperature slope calibration	1,0000multiplexer offset coefficient	1,0000multiplexer slope coefficient	1,0000fibre end	0,00T internal ref (°C)	22,54T ext. ref 1 (°C)	5,99T ext. ref 2 (°C)	5,99length (m)	temperature (°C)	Stokes	anti-Stokes-744,400	-200,000	0,019	-0,065
-743,385	85,948	-0,141	0,115
-742,371	-58,589	0,082	-0,026
-741,356	37,303	-0,246	0,162
-740,342	-200,000	0,002	0,112
-739,327	12,917	-0,213	0,122
-738,312	-200,000	0,004	-0,065
-737,298	400,312	-0,110	0,173
-736,283	49,647	-0,020	0,014
-735,269	-96,982	-0,230	0,045
-734,254	800,000	0,003	0,009
-733,239	-47,095	-0,421	-0,152
-732,225	-92,979	0,144	0,030
-731,210	800,000	-0,023	0,073
-730,196	760,882	0,036	-0,074
-729,181	-200,000	0,017	-0,092
-728,167	800,000	-0,039	-0,114
-727,152	-89,301	-0,064	-0,014
-726,137	-16,182	-0,100	-0,047
-725,123	800,000	-0,041	-0,121
-724,108	43,595	-0,134	-0,091
-723,094	106,770	-0,043	0,038
-722,079	7,861	-0,104	0,058
-721,064	-89,862	-0,099	-0,021
-720,050	403,313	-0,040	-0,063
-719,035	0,544	0,078	-0,042
-718,021	-200,000	0,007	0,115
-717,006	518,432	-0,009	0,016
-715,991	-200,000	-0,001	0,059
-714,977	-96,351	-0,196	-0,038
-713,962	93,516	-0,042	-0,035
-712,948	65,161	0,059	-0,044
-711,933	744,668	-0,077	0,154
-710,918	-142,098	0,087	-0,006
-709,904	-183,971	-0,054	-0,001
-708,889	381,449	0,117	-0,180
-707,875	-200,000	0,003	0,126
-706,860	264,820	-0,064	-0,083
-705,845	5,850	0,014	0,008
-704,831	-200,000	0,025	0,089
-703,816	479,951	0,016	-0,027
-702,802	-200,000	0,006	0,073
-701,787	800,000	-0,025	-0,081
-700,772	-147,322	-0,219	-0,014
-699,758	101,484	-0,035	-0,030
-698,743	-100,912	0,103	-0,019
-697,729	188,874	0,091	0,102
-696,714	-146,205	0,059	0,004
-695,699	196,682	-0,032	-0,036
-694,685	129,842	-0,037	-0,036
-693,670	686,128	-0,008	0,015
-692,656	-80,070	-0,091	0,022
-691,641	-200,000	-0,007	-0,036
-690,627	-200,000	-0,018	0,076
-689,612	176,781	0,099	-0,108
-688,597	-200,000	0,002	-0,100
-687,583	-36,157	-0,042	0,017
-686,568	13,394	0,035	0,020
-685,554	-9,089	-0,106	0,052
-684,539	-200,000	0,040	-0,142
-683,524	402,954	0,030	0,047
-682,510	52,756	0,052	0,037
-681,495	800,000	0,018	-0,050
-680,481	90,318	-0,076	-0,063
-679,466	-169,693	0,082	-0,002
-678,451	-143,483	0,057	0,004
-677,437	800,000	0,019	0,058
-676,422	-40,712	-0,072	-0,027
-675,408	16,279	-0,019	0,011
-674,393	-149,178	-0,011	-0,001
-673,378	-200,000	-0,006	0,037
-672,364	-200,000	-0,019	0,068
-671,349	472,906	-0,028	0,048
-670,335	-10,473	-0,074	-0,036
-669,320	-200,000	-0,015	0,052
-668,305	-16,366	0,130	0,061
-667,291	-28,646	0,087	-0,037
-666,276	57,348	-0,180	0,131
-665,262	278,101	-0,016	0,021
-664,247	-200,000	-0,015	0,065
-663,232	-113,725	0,099	-0,014
-662,218	117,235	0,082	-0,075
-661,203	249,469	-0,055	-0,070
-660,189	-132,558	-0,054	-0,005
-659,174	655,471	-0,045	-0,085
-658,159	-12,733	-0,104	-0,050
-657,145	-148,272	-0,136	0,008
-656,130	3,966	0,109	-0,059
-655,116	112,056	0,080	-0,071
-654,101	-200,000	0,008	0,083
-653,086	-67,767	-0,073	-0,021
-652,072	800,000	0,019	-0,041
-651,057	92,690	0,061	-0,051
-650,043	-200,000	-0,034	-0,129
-649,028	15,757	0,148	-0,086
-648,014	502,461	0,028	-0,048
-646,999	-151,688	-0,048	-0,003
-645,984	-200,000	-0,000	0,034
-644,970	263,198	0,003	0,004
-643,955	-107,100	-0,168	-0,027
-642,941	89,436	-0,111	0,092
-641,926	-86,915	-0,063	-0,014
-640,911	483,344	0,065	0,110
-639,897	-200,000	-0,037	-0,161
-638,882	-200,000	0,003	0,108
-637,868	-200,000	-0,007	0,100
-636,853	87,635	0,068	0,055
-635,838	33,005	-0,083	0,053
-634,824	323,604	-0,016	0,023
-633,809	216,505	0,064	-0,075
-632,795	-200,000	0,011	0,039
-631,780	800,000	-0,022	0,064
-630,765	194,731	-0,079	-0,089
-629,751	800,000	0,023	0,050
-628,736	-147,937	-0,130	-0,008
-627,722	-106,775	-0,066	0,011
-626,707	-200,000	-0,009	-0,053
-625,692	129,323	-0,068	-0,064
-624,678	-200,000	0,008	0,072
-623,663	137,407	-0,063	0,061
-622,649	-200,000	-0,013	-0,093
-621,634	-30,634	0,046	0,019
-620,619	23,767	-0,042	-0,026
-619,605	-200,000	0,005	0,056
-618,590	344,469	-0,027	0,040
-617,576	-200,000	0,022	0,151
-616,561	-77,121	0,115	0,029
-615,546	-118,386	-0,135	0,018
-614,532	82,868	0,127	-0,102
-613,517	48,971	0,054	-0,038
-612,503	-200,000	-0,033	0,136
-611,488	-200,000	0,025	0,111
-610,474	-120,099	0,050	-0,006
-609,459	23,677	0,105	0,064
-608,444	-95,300	-0,073	-0,014
-607,430	274,902	-0,052	-0,068
-606,415	28,843	0,065	0,041
-605,401	800,000	-0,036	-0,101
-604,386	-200,000	0,008	0,071
-603,371	-200,000	-0,025	0,104
-602,357	1,159	-0,131	-0,070
-601,342	125,690	-0,098	0,092
-600,328	-200,000	0,010	0,060
-599,313	-200,000	-0,013	0,067
-598,298	-200,000	-0,007	0,090
-597,284	60,948	-0,020	0,015
-596,269	-200,000	0,008	0,103
-595,255	381,132	0,015	-0,022
-594,240	800,000	0,048	-0,100
-593,225	-200,000	0,014	0,092
-592,211	41,381	0,068	0,046
-591,196	240,934	-0,034	0,043
-590,182	78,108	-0,063	0,050
-589,167	384,360	0,018	0,028
-588,152	-200,000	0,016	-0,171
-587,138	492,960	0,024	-0,042
-586,123	-200,000	-0,036	-0,141
-585,109	-200,000	-0,015	-0,183
-584,094	-200,000	-0,006	-0,036
-583,079	306,459	0,020	-0,028
-582,065	210,890	-0,079	0,093
-581,050	59,208	0,065	0,047
-580,036	207,376	0,090	-0,104
-579,021	152,020	-0,032	0,032
-578,006	-41,287	-0,130	-0,049
-576,992	800,000	-0,047	-0,122
-575,977	-50,714	-0,035	0,012
-574,963	-200,000	0,011	-0,148
-573,948	-62,816	-0,056	0,017
-572,934	-200,000	0,001	-0,041
-571,919	-63,613	-0,102	-0,031
-570,904	-200,000	-0,029	-0,154
-569,890	-155,065	-0,138	0,007
-568,875	167,960	0,045	-0,047
-567,861	-200,000	0,022	0,096
-566,846	-138,136	0,182	0,015
-565,831	-200,000	0,019	0,186
-564,817	-98,261	0,083	0,016
-563,802	-18,066	-0,148	-0,068
-562,788	-200,000	0,021	-0,133
-561,773	297,621	0,055	0,074
-560,758	564,505	0,072	0,129
-559,744	-200,000	-0,000	-0,097
-558,729	-13,739	0,086	-0,041
-557,715	-186,035	-0,020	0,000
-556,700	73,709	-0,100	-0,077
-555,685	165,726	0,107	-0,113
-554,671	-200,000	0,017	0,086
-553,656	-200,000	-0,020	-0,105
-552,642	-169,241	0,117	-0,003
-551,627	785,892	0,055	0,113
-550,612	199,009	-0,157	0,178
-549,598	-200,000	-0,053	-0,175
-548,583	-200,000	0,005	0,034
-547,569	-125,533	0,160	0,018
-546,554	-200,000	0,043	0,188
-545,539	-44,762	-0,085	0,031
-544,525	202,159	-0,076	-0,087
-543,510	583,033	-0,053	-0,096
-542,496	-186,372	-0,074	-0,001
-541,481	725,366	-0,037	0,073
-540,466	-200,000	0,007	-0,073
-539,452	82,842	-0,055	0,044
-538,437	253,038	-0,074	0,093
-537,423	800,000	0,040	0,095
-536,408	23,309	0,038	-0,023
-535,393	800,000	-0,035	-0,094
-534,379	-60,508	-0,069	-0,021
-533,364	-200,000	0,007	-0,042
-532,350	800,000	-0,033	-0,090
-531,335	-200,000	-0,014	0,110
-530,321	-200,000	-0,014	0,240
-529,306	-200,000	-0,007	0,104
-528,291	-44,410	-0,130	-0,048
-527,277	528,239	-0,088	-0,154
-526,262	800,000	0,045	-0,129
-525,248	632,748	0,049	0,092
-524,233	290,320	-0,087	-0,117
-523,218	276,559	0,018	-0,023
-522,204	-200,000	0,021	0,098
-521,189	498,812	-0,027	0,045
-520,175	-200,000	0,012	-0,063
-519,160	689,565	0,092	-0,180
-518,145	234,689	0,027	-0,033
-517,131	78,458	0,099	0,078
-516,116	800,000	0,020	-0,047
-515,102	-15,052	-0,081	0,038
-514,087	800,000	0,040	0,105
-513,072	-109,605	-0,108	0,017
-512,058	76,353	0,110	0,086
-511,043	583,556	0,068	-0,124
-510,029	-70,294	0,112	-0,031
-509,014	33,956	-0,115	0,074
-507,999	-178,272	-0,185	-0,003
-506,985	-10,867	-0,054	0,026
-505,970	559,754	0,010	-0,017
-504,956	-117,115	-0,050	0,007
-503,941	560,807	0,107	0,191
-502,926	-53,890	0,125	-0,042
-501,912	800,000	0,006	-0,014
-500,897	800,000	0,043	0,129
-499,883	146,022	-0,106	-0,105
-498,868	-88,930	-0,030	-0,006
-497,853	-14,888	-0,061	-0,029
-496,839	65,978	0,081	0,060
-495,824	153,294	-0,051	-0,052
-494,810	-161,584	0,122	-0,005
-493,795	800,000	0,043	-0,136
-492,781	-200,000	-0,019	-0,124
-491,766	311,574	0,011	0,015
-490,751	800,000	0,054	-0,171
-489,737	-121,638	0,160	0,019
-488,722	800,000	0,028	-0,089
-487,708	-147,082	-0,011	-0,001
-486,693	-53,188	0,085	0,029
-485,678	-1,957	-0,041	0,021
-484,664	-200,000	0,012	-0,100
-483,649	-200,000	-0,010	-0,119
-482,635	144,689	-0,046	-0,045
-481,620	638,944	-0,042	0,079
-480,605	-36,029	0,156	0,062
-479,591	-64,819	-0,094	-0,028
-478,576	399,195	-0,012	-0,018
-477,562	763,603	-0,072	-0,145
-476,547	800,000	0,008	-0,022
-475,532	42,353	0,190	-0,127
-474,518	-113,278	-0,049	0,007
-473,503	-139,952	0,217	-0,017
-472,489	-200,000	0,008	0,057
-471,474	166,711	-0,053	0,056
-470,459	684,777	-0,037	0,071
-469,445	800,000	-0,028	-0,081
-468,430	-148,891	-0,098	-0,006
-467,416	-200,000	0,032	-0,118
-466,401	63,923	-0,070	0,052
-465,386	105,122	-0,081	0,070
-464,372	-200,000	0,006	0,027
-463,357	311,203	0,029	0,040
-462,343	-200,000	-0,030	-0,174
-461,328	-59,065	-0,041	-0,013
-460,313	-200,000	-0,026	-0,108
-459,299	-200,000	0,014	-0,044
-458,284	-200,000	0,010	0,076
-457,270	-200,000	0,016	0,069
-456,255	291,652	0,098	0,132
-455,241	294,199	-0,054	-0,073
-454,226	-97,547	0,060	0,011
-453,211	-200,000	-0,010	0,045
-452,197	800,000	0,018	-0,053
-451,182	-18,603	-0,019	-0,009
-450,168	203,621	-0,080	0,091
-449,153	234,951	0,098	-0,120
-448,138	-33,568	-0,078	0,032
-447,124	-163,740	-0,076	0,003
-446,109	242,574	0,076	0,094
-445,095	162,145	0,047	0,048
-444,080	800,000	-0,020	0,044
-443,065	725,083	0,051	-0,101
-442,051	-44,460	-0,137	-0,050
-441,036	68,868	0,082	-0,062
-440,022	800,000	0,008	-0,025
-439,007	-200,000	0,009	-0,063
-437,992	193,809	0,098	-0,109
-436,978	-200,000	-0,002	-0,056
-435,963	47,388	0,114	0,078
-434,949	-200,000	-0,012	-0,068
-433,934	-77,530	-0,158	-0,040
-432,919	-200,000	0,014	-0,142
-431,905	-27,279	0,155	0,066
-430,890	-18,673	0,078	0,036
-429,876	-94,978	0,144	-0,028
-428,861	-200,000	0,011	-0,070
-427,846	366,682	-0,107	0,160
-426,832	-56,574	-0,139	-0,045
-425,817	114,437	-0,023	-0,020
-424,803	800,000	-0,003	-0,008
-423,788	-16,279	0,045	0,021
-422,773	-113,885	0,021	0,003
-421,759	-200,000	-0,025	0,106
-420,744	800,000	0,011	0,035
-419,730	-200,000	0,003	-0,019
-418,715	24,242	0,011	-0,006
-417,701	116,532	0,102	-0,092
-416,686	140,181	0,081	-0,078
-415,671	223,102	-0,036	-0,042
-414,657	71,745	0,103	-0,079
-413,642	277,857	-0,057	-0,075
-412,628	-200,000	0,000	-0,022
-411,613	-48,503	-0,010	-0,004
-410,598	-200,000	0,022	-0,081
-409,584	26,801	0,099	-0,061
-408,569	466,460	-0,027	-0,045
-407,555	19,084	0,084	-0,050
-406,540	-75,143	-0,110	-0,029
-405,525	160,198	-0,066	-0,068
-404,511	92,837	-0,064	0,053
-403,496	800,000	-0,088	-0,212
-402,482	-83,847	0,052	0,012
-401,467	285,202	-0,029	0,038
-400,452	-200,000	0,005	0,057
-399,438	458,022	0,045	-0,073
-398,423	-200,000	-0,018	0,079
-397,409	-79,596	-0,122	-0,030
-396,394	-123,916	0,067	0,008
-395,379	-200,000	0,003	0,047
-394,365	-80,261	-0,071	-0,017
-393,350	-108,217	0,136	0,021
-392,336	-200,000	0,002	0,035
-391,321	-48,828	-0,081	-0,029
-390,306	-200,000	-0,016	0,055
-389,292	-200,000	-0,002	0,077
-388,277	-200,000	-0,007	0,129
-387,263	-63,263	0,072	0,022
-386,248	-200,000	0,041	-0,170
-385,233	-116,147	-0,038	0,005
-384,219	-77,060	0,085	0,022
-383,204	-200,000	0,016	-0,055
-382,190	-200,000	0,002	-0,083
-381,175	-76,139	0,070	-0,018
-380,160	31,392	-0,045	0,028
-379,146	2,111	0,064	0,034
-378,131	800,000	-0,021	-0,063
-377,117	-200,000	-0,019	0,095
-376,102	39,984	-0,057	-0,038
-375,088	377,784	-0,053	-0,080
-374,073	800,000	0,040	0,097
-373,058	320,473	0,039	0,055
-372,044	-200,000	0,026	0,186
-371,029	-103,094	-0,054	0,009
-370,015	-200,000	-0,005	0,152
-369,000	-70,731	-0,055	0,015
-367,985	-14,881	-0,120	-0,056
-366,971	124,232	0,090	-0,083
-365,956	800,000	-0,025	0,070
-364,942	800,000	-0,048	0,129
-363,927	800,000	0,055	0,128
-362,912	161,552	-0,020	0,021
-361,898	748,853	0,051	-0,102
-360,883	313,212	-0,113	-0,156
-359,869	-200,000	0,026	0,098
-358,854	-200,000	0,007	0,111
-357,839	286,908	0,051	0,067
-356,825	-19,208	0,009	-0,004
-355,810	-200,000	0,014	-0,106
-354,796	138,233	-0,026	-0,025
-353,781	-200,000	0,005	-0,064
-352,766	2,327	0,114	0,061
-351,752	-179,298	0,061	0,001
-350,737	800,000	0,009	0,024
-349,723	265,619	0,144	0,185
-348,708	-187,185	0,066	0,001
-347,693	-200,000	0,000	-0,047
-346,679	-105,142	-0,060	0,010
-345,664	-158,990	-0,111	-0,005
-344,650	-200,000	-0,004	-0,033
-343,635	-200,000	0,001	0,067
-342,620	79,602	-0,022	0,017
-341,606	800,000	-0,018	0,054
-340,591	-80,628	-0,226	-0,055
-339,577	-32,260	0,053	-0,022
-338,562	800,000	-0,042	-0,088
-337,548	199,364	-0,029	0,033
-336,533	-200,000	0,004	0,134
-335,518	800,000	-0,066	0,176
-334,504	344,011	0,054	-0,078
-333,489	37,619	-0,038	0,025
-332,475	745,539	-0,045	0,089
-331,460	201,500	-0,065	0,074
-330,445	-200,000	-0,008	-0,030
-329,431	205,087	-0,082	-0,093
-328,416	520,614	-0,078	-0,136
-327,402	74,308	-0,080	-0,062
-326,387	251,790	-0,071	-0,088
-325,372	203,214	0,029	-0,033
-324,358	112,828	-0,066	0,058
-323,343	-128,646	0,061	-0,006
-322,329	-200,000	0,007	-0,037
-321,314	-61,881	0,091	0,028
-320,299	135,363	0,060	-0,057
-319,285	-200,000	-0,011	-0,056
-318,270	-186,692	0,128	0,001
-317,256	42,228	0,065	0,043
-316,241	-200,000	-0,006	-0,063
-315,226	260,652	0,067	0,085
-314,212	-131,133	0,108	0,010
-313,197	98,440	-0,069	0,059
-312,183	171,369	-0,039	0,041
-311,168	-37,984	-0,077	0,030
-310,153	278,557	-0,114	0,149
-309,139	-143,133	0,082	0,006
-308,124	3,076	-0,130	-0,069
-307,110	62,806	0,074	-0,054
-306,095	172,923	0,031	0,033
-305,080	-71,870	-0,172	-0,047
-304,066	-102,296	-0,120	-0,021
-303,051	709,370	-0,027	-0,052
-302,037	-200,000	0,010	-0,109
-301,022	42,007	0,045	-0,030
-300,008	206,301	0,096	0,110
-298,993	-200,000	0,019	0,190
-297,978	800,000	0,029	-0,069
-296,964	15,943	-0,096	-0,055
-295,949	496,968	-0,069	-0,118
-294,935	-71,902	-0,135	0,037
-293,920	800,000	-0,017	-0,043
-292,905	225,710	0,039	0,047
-291,891	138,092	0,062	0,059
-290,876	-200,000	0,001	-0,152
-289,862	-200,000	0,037	-0,171
-288,847	110,514	-0,185	-0,163
-287,832	-200,000	-0,007	0,043
-286,818	-200,000	-0,008	-0,143
-285,803	-30,268	-0,038	-0,016
-284,789	200,455	-0,024	-0,027
-283,774	800,000	0,021	0,045
-282,759	-147,590	0,132	0,008
-281,745	-92,955	-0,047	-0,010
-280,730	270,007	-0,068	0,087
-279,716	-99,387	0,048	0,009
-278,701	100,615	-0,143	-0,122
-277,686	-21,975	0,059	0,026
-276,672	-200,000	0,004	-0,032
-275,657	255,819	0,038	-0,048
-274,643	800,000	-0,032	0,068
-273,628	-65,988	-0,034	0,010
-272,613	57,590	0,044	-0,031
-271,599	-142,983	0,153	0,011
-270,584	227,216	0,018	-0,021
-269,570	800,000	-0,045	-0,118
-268,555	-106,467	-0,063	-0,010
-267,540	84,896	0,019	0,015
-266,526	-2,927	0,004	-0,002
-265,511	784,305	0,065	0,130
-264,497	-166,525	0,094	0,003
-263,482	-200,000	-0,006	-0,053
-262,467	-15,329	0,031	0,014
-261,453	279,352	0,023	-0,030
-260,438	800,000	-0,057	-0,117
-259,424	-55,249	0,069	0,023
-258,409	-200,000	0,041	-0,166
-257,395	-200,000	0,008	0,044
-256,380	-200,000	-0,007	0,146
-255,365	-200,000	0,018	-0,092
-254,351	-54,321	0,038	0,013
-253,336	-200,000	-0,001	-0,046
-252,322	163,273	-0,016	-0,017
-251,307	-40,537	0,096	-0,036
-250,292	-90,809	-0,162	-0,034
-249,278	-91,437	0,072	0,015
-248,263	800,000	-0,024	0,058
-247,249	-200,000	0,009	0,119
-246,234	114,147	0,059	0,053
-245,219	-131,129	-0,074	0,007
-244,205	261,120	0,043	-0,055
-243,190	800,000	0,009	0,023
-242,176	120,288	0,141	0,128
-241,161	800,000	0,027	0,080
-240,146	-31,653	0,106	0,043
-239,132	361,799	0,065	0,095
-238,117	-27,160	-0,090	0,038
-237,103	800,000	-0,023	-0,071
-236,088	607,854	-0,055	0,100
-235,073	-141,811	0,141	0,010
-234,059	-129,886	-0,025	0,002
-233,044	68,734	0,056	0,042
-232,030	275,711	0,041	0,054
-231,015	162,847	-0,062	-0,063
-230,000	75,017	-0,041	-0,032
-228,986	64,029	-0,107	-0,079
-227,971	-139,366	-0,027	-0,002
-226,957	6,095	0,116	0,062
-225,942	127,601	0,029	0,027
-224,927	138,770	-0,040	0,038
-223,913	-200,000	-0,003	0,033
-222,898	-18,077	0,087	-0,040
-221,884	-42,606	0,111	0,041
-220,869	-200,000	0,037	0,127
-219,855	-123,868	-0,065	-0,007
-218,840	-35,098	0,067	0,027
-217,825	218,042	-0,048	-0,056
-216,811	-200,000	0,009	0,039
-215,796	-83,325	-0,162	0,038
-214,782	-2,016	-0,053	-0,027
-213,767	-17,325	0,100	0,046
-212,752	-200,000	0,004	0,084
-211,738	-124,846	0,067	-0,007
-210,723	16,301	0,039	0,022
-209,709	-83,481	0,082	-0,019
-208,694	-200,000	0,009	0,029
-207,679	239,633	0,032	-0,038
-206,665	118,483	0,101	-0,091
-205,650	635,547	-0,042	0,079
-204,636	48,008	0,089	0,061
-203,621	-129,247	0,087	-0,009
-202,606	-133,516	-0,099	0,009
-201,592	-200,000	0,016	0,077
-200,577	-48,091	-0,126	0,044
-199,563	193,799	0,069	0,077
-198,548	355,421	-0,020	0,029
-197,533	-9,035	0,026	-0,012
-196,519	293,149	0,064	0,086
-195,504	-61,017	-0,017	-0,005
-194,490	77,406	-0,104	-0,081
-193,475	-200,000	-0,004	0,080
-192,460	800,000	-0,025	-0,051
-191,446	-200,000	0,016	0,057
-190,431	-95,006	0,276	0,054
-189,417	-200,000	0,001	-0,076
-188,402	-200,000	0,040	-0,147
-187,387	-59,584	0,185	-0,058
-186,373	-200,000	-0,003	0,078
-185,358	800,000	-0,016	0,033
-184,344	-16,796	0,056	-0,026
-183,329	-200,000	0,005	0,039
-182,315	-135,668	0,123	0,010
-181,300	5,272	-0,063	0,034
-180,285	-35,092	-0,177	-0,070
-179,271	800,000	-0,031	0,069
-178,256	175,443	0,081	0,085
-177,242	-200,000	0,024	0,092
-176,227	-135,580	-0,066	-0,006
-175,212	-70,441	0,093	-0,025
-174,198	-200,000	0,003	0,028
-173,183	161,351	0,019	0,019
-172,169	-110,534	-0,072	0,011
-171,154	800,000	-0,061	-0,146
-170,139	-200,000	-0,007	0,029
-169,125	-172,838	0,092	0,002
-168,110	-91,872	-0,093	-0,019
-167,096	-200,000	-0,001	0,021
-166,081	-161,919	-0,012	-0,000
-165,066	21,850	-0,092	0,054
-164,052	-73,629	-0,060	-0,016
-163,037	150,701	0,103	0,102
-162,023	-200,000	0,009	-0,082
-161,008	-12,885	0,076	0,036
-159,993	800,000	0,015	0,033
-158,979	19,928	-0,128	-0,075
-157,964	-200,000	-0,001	0,035
-156,950	69,938	-0,048	0,036
-155,935	-36,348	-0,143	0,056
-154,920	68,763	0,104	-0,078
-153,906	251,815	-0,092	0,114
-152,891	365,233	-0,015	-0,022
-151,877	-200,000	0,032	0,109
-150,862	800,000	0,051	0,118
-149,847	-41,503	0,072	0,027
-148,833	228,349	0,047	0,056
-147,818	-36,040	0,036	-0,014
-146,804	-78,025	-0,113	0,028
-145,789	126,235	0,071	0,065
-144,775	719,260	0,050	0,098
-143,760	74,931	-0,045	-0,034
-142,745	226,099	0,033	0,039
-141,731	426,647	0,055	-0,086
-140,716	-134,865	0,073	0,006
-139,702	-200,000	-0,011	0,049
-138,687	52,648	0,041	0,029
-137,672	9,339	-0,157	0,086
-136,658	-200,000	-0,021	-0,082
-135,643	-110,466	-0,131	0,020
-134,629	-200,000	-0,009	-0,051
-133,614	2,654	0,150	-0,079
-132,599	-200,000	0,011	0,048
-131,585	-146,922	0,081	-0,005
-130,570	-83,726	0,112	-0,026
-129,556	57,878	-0,060	-0,043
-128,541	-200,000	0,034	-0,125
-127,526	305,046	0,015	0,021
-126,512	-115,164	0,086	-0,012
-125,497	800,000	-0,009	0,023
-124,483	-200,000	0,004	0,045
-123,468	-200,000	0,023	0,088
-122,453	375,863	-0,048	-0,072
-121,439	-85,138	0,076	0,017
-120,424	800,000	-0,033	-0,097
-119,410	102,696	0,075	0,064
-118,395	190,852	0,154	0,169
-117,380	-103,959	-0,123	-0,021
-116,366	-38,799	-0,041	-0,016
-115,351	800,000	0,054	0,126
-114,337	332,272	0,061	-0,086
-113,322	-9,992	-0,115	-0,055
-112,307	800,000	0,017	-0,053
-111,293	-169,116	0,090	0,002
-110,278	794,390	0,021	-0,042
-109,264	-72,741	-0,093	-0,025
-108,249	124,023	-0,076	0,070
-107,234	564,607	-0,087	-0,154
-106,220	102,389	0,040	0,034
-105,205	-200,000	-0,015	0,056
-104,191	-40,664	-0,093	-0,035
-103,176	-5,530	0,063	-0,032
-102,162	-123,901	0,175	-0,020
-101,147	226,660	-0,077	0,091
-100,132	156,176	-0,070	-0,071
-99,118	-6,917	0,114	-0,056
-98,103	-200,000	0,005	-0,152
-97,089	97,543	-0,092	0,077
-96,074	800,000	0,029	0,079
-95,059	800,000	0,054	0,125
-94,045	170,280	-0,064	-0,067
-93,030	-200,000	-0,027	-0,162
-92,016	800,000	0,035	-0,080
-91,001	296,110	-0,042	0,056
-89,986	-82,214	0,066	0,015
-88,972	-200,000	0,001	0,084
-87,957	-35,398	0,079	0,031
-86,943	-12,299	0,084	0,040
-85,928	-200,000	0,006	-0,194
-84,913	-200,000	0,019	0,071
-83,899	-43,110	0,054	0,020
-82,884	-200,000	-0,014	0,080
-81,870	-200,000	-0,025	-0,088
-80,855	111,900	-0,034	0,030
-79,840	-69,894	-0,055	-0,015
-78,826	599,612	0,051	-0,093
-77,811	503,928	0,077	-0,130
-76,797	-67,412	0,070	-0,020
-75,782	-74,320	0,047	0,012
-74,767	-139,472	-0,031	-0,002
-73,753	-200,000	-0,020	-0,163
-72,738	-102,958	-0,036	0,006
-71,724	-118,508	-0,140	-0,018
-70,709	216,736	0,009	0,011
-69,694	-200,000	-0,006	-0,112
-68,680	185,665	0,071	0,076
-67,665	163,039	-0,120	0,123
-66,651	-200,000	0,017	0,086
-65,636	-163,430	-0,099	0,003
-64,622	-115,563	-0,050	-0,007
-63,607	20,944	0,108	-0,063
-62,592	-54,618	-0,098	-0,032
-61,578	-75,142	-0,034	-0,009
-60,563	106,131	0,134	0,115
-59,549	113,645	0,057	0,050
-58,534	-168,232	-1,283	-0,035
-57,519	418,809	-0,888	-1,384
-56,505	-200,000	-0,920	-4,458
-55,490	-17,104	0,604	-0,275
-54,476	800,000	4,869	11,760
-53,461	-200,000	13,465	253,473
-52,446	-200,000	689,199	2267,023
-51,432	594,706	1622,660	2925,312
-50,417	120,349	1635,505	1473,811
-49,403	73,692	1289,468	979,646
-48,388	38,307	1024,580	660,960
-47,373	24,567	982,013	588,308
-46,359	23,738	971,799	579,447
-45,344	22,758	967,706	573,778
-44,330	22,720	966,217	572,750
-43,315	22,562	964,799	571,370
-42,300	22,561	963,531	570,594
-41,286	22,581	962,820	570,214
-40,271	22,575	961,911	569,634
-39,257	22,596	960,744	568,989
-38,242	22,594	959,964	568,496
-37,227	22,480	959,310	567,718
-36,213	22,541	958,263	567,273
-35,198	22,476	957,544	566,615
-34,184	22,543	956,770	566,351
-33,169	22,486	956,030	565,707
-32,154	22,613	954,723	565,319
-31,140	22,538	953,928	564,586
-30,125	22,557	953,323	564,266
-29,111	22,607	952,348	563,828
-28,096	22,557	951,834	563,339
-27,082	22,626	950,925	563,003
-26,067	22,569	950,259	562,401
-25,052	22,593	949,686	562,117
-24,038	22,585	948,834	561,564
-23,023	22,568	948,346	561,201
-22,009	22,624	947,672	560,957
-20,994	22,626	946,954	560,518
-19,979	22,613	946,427	560,142
-18,965	22,598	945,788	559,692
-17,950	22,595	945,279	559,359
-16,936	22,589	944,353	558,771
-15,921	22,525	943,943	558,303
-14,906	22,487	943,009	557,606
-13,892	22,512	942,394	557,300
-12,877	22,372	941,957	556,575
-11,863	22,432	941,044	556,201
-10,848	22,430	940,663	555,949
-9,833	22,575	940,131	556,072
-8,819	22,542	939,594	555,628
-7,804	22,483	938,935	555,029
-6,790	22,424	938,535	554,585
-5,775	22,481	937,715	554,258
-4,760	22,491	937,045	553,873
-3,746	22,427	936,503	553,327
-2,731	22,276	935,859	552,449
-1,717	22,273	935,180	552,016
-0,702	22,315	934,307	551,612
0,313	22,064	933,894	551,408
1,327	25,094	931,760	559,630
2,342	34,648	796,465	503,835
3,356	32,553	451,959	282,719
4,371	1,548	294,065	152,974
5,386	-2,801	274,932	138,888
6,400	-4,377	269,053	134,443
7,415	-4,889	266,514	132,690
8,429	-4,678	265,391	132,313
9,444	-4,541	264,459	131,961
10,459	-4,456	263,923	131,760
11,473	-4,496	263,244	131,373
12,488	-4,818	262,916	130,906
13,502	-4,858	262,122	130,462
14,517	-4,867	261,861	130,312
15,531	-4,541	261,322	130,327
16,546	-4,579	261,113	130,176
17,561	-4,710	260,852	129,917
18,575	-4,416	260,301	129,895
19,590	-4,468	260,123	129,748
20,604	-4,533	259,924	129,579
21,619	-4,759	259,583	129,195
22,634	-4,527	259,227	129,214
23,648	-4,586	258,743	128,908
24,663	-4,689	258,536	128,702
25,677	-4,685	258,422	128,637
26,692	-4,675	258,212	128,530
27,707	-4,725	258,045	128,391
28,721	-4,886	257,748	128,089
29,736	-4,741	257,489	128,077
30,750	-4,683	257,067	127,907
31,765	-4,840	256,886	127,667
32,780	-4,585	256,577	127,728
33,794	-4,679	256,521	127,605
34,809	-4,700	256,156	127,394
35,823	-4,817	255,967	127,185
36,838	-4,766	255,739	127,105
37,853	-4,982	255,518	126,793
38,867	-4,806	255,192	126,776
39,882	-4,965	255,081	126,569
40,896	-4,862	254,784	126,501
41,911	-4,914	254,690	126,397
42,926	-4,874	254,415	126,285
43,940	-4,935	254,149	126,088
44,955	-4,900	253,862	125,966
45,969	-4,898	253,626	125,838
46,984	-5,060	253,468	125,608
47,999	-5,362	253,187	125,194
49,013	-5,359	252,982	125,084
50,028	-5,482	252,594	124,774
51,042	-5,539	252,434	124,634
52,057	-5,497	252,197	124,542
53,071	-5,557	252,080	124,422
54,086	-5,530	251,867	124,329
55,101	-5,308	251,524	124,340
56,115	-5,087	251,584	124,550
57,130	-4,760	251,450	124,756
58,144	-4,513	251,353	124,910
59,159	-4,424	251,080	124,840
60,174	-4,530	250,845	124,621
61,188	-4,659	250,617	124,385
62,203	-4,633	250,587	124,381
63,217	-4,614	250,419	124,303
64,232	-4,622	250,059	124,107
65,247	-4,541	249,935	124,104
66,261	-4,792	249,616	123,719
67,276	-4,864	249,349	123,514
68,290	-4,953	249,026	123,267
69,305	-5,157	248,808	122,973
70,320	-5,186	248,770	122,919
71,334	-4,897	248,574	123,058
72,349	-4,564	248,496	123,293
73,363	-4,682	248,311	123,089
74,378	-4,624	248,013	122,980
75,393	-4,633	247,857	122,884
76,407	-4,669	247,596	122,713
77,422	-4,726	247,472	122,592
78,436	-4,704	247,354	122,542
79,451	-4,642	246,980	122,398
80,466	-4,745	246,935	122,277
81,480	-4,964	246,641	121,935
82,495	-4,798	246,416	121,954
83,509	-5,064	246,424	121,722
84,524	-5,020	245,970	121,524
85,539	-4,989	245,727	121,420
86,553	-5,025	245,616	121,323
87,568	-5,037	245,474	121,232
88,582	-4,780	245,272	121,338
89,597	-5,063	244,937	120,924
90,611	-4,911	244,996	121,069
91,626	-4,805	244,965	121,132
92,641	-4,690	244,564	121,020
93,655	-4,786	244,316	120,806
94,670	-4,701	244,237	120,827
95,684	-4,824	243,897	120,546
96,699	-4,759	243,767	120,524
97,714	-4,748	243,586	120,434
98,728	-5,026	243,454	120,125
99,743	-5,031	243,241	120,005
100,757	-5,136	243,024	119,801
101,772	-5,069	242,797	119,734
102,787	-4,932	242,796	119,836
103,801	-4,842	242,536	119,772
104,816	-4,952	242,439	119,622
105,830	-4,666	242,137	119,700
106,845	-4,482	242,050	119,799
107,860	-4,827	242,016	119,485
108,874	-4,951	241,559	119,146
109,889	-4,895	241,350	119,078
110,903	-4,856	241,162	119,008
111,918	-5,105	241,121	118,772
112,933	-4,876	240,832	118,807
113,947	-4,882	240,829	118,790
114,962	-4,773	240,540	118,726
115,976	-4,887	240,469	118,587
116,991	-4,832	240,197	118,488
118,006	-5,092	240,239	118,284
119,020	-4,822	239,931	118,344
120,035	-4,692	239,906	118,427
121,049	-4,624	239,647	118,345
122,064	-4,725	239,491	118,175
123,079	-4,748	239,274	118,038
124,093	-4,994	239,081	117,731
125,108	-5,155	238,890	117,495
126,122	-5,220	238,625	117,301
127,137	-5,251	238,491	117,200
128,151	-5,231	238,359	117,141
129,166	-5,017	238,175	117,214
130,181	-5,109	237,929	117,007
131,195	-5,161	237,935	116,958
132,210	-4,929	237,494	116,919
133,224	-4,695	237,476	117,089
134,239	-4,705	237,309	116,988
135,254	-4,761	237,164	116,861
136,268	-4,896	236,817	116,571
137,283	-5,217	236,711	116,249
138,297	-5,318	236,482	116,044
139,312	-5,282	236,355	116,001
140,327	-5,104	236,196	116,056
141,341	-4,493	236,257	116,568
142,356	-4,517	236,083	116,453
143,370	-4,598	236,038	116,355
144,385	-4,518	235,769	116,276
145,400	-4,420	235,726	116,324
146,414	-4,470	235,397	116,110
147,429	-4,469	235,249	116,028
148,443	-4,516	235,024	115,869
149,458	-4,246	234,977	116,052
150,473	-4,389	234,803	115,841
151,487	-4,643	234,583	115,519
152,502	-4,578	234,331	115,436
153,516	-4,426	234,252	115,508
154,531	-4,550	234,234	115,391
155,546	-4,414	233,963	115,355
156,560	-4,642	233,661	115,014
157,575	-4,646	233,491	114,918
158,589	-4,583	233,358	114,891
159,604	-4,437	233,243	114,940
160,619	-4,472	233,053	114,809
161,633	-4,179	232,751	114,882
162,648	-4,498	232,831	114,659
163,662	-4,605	232,514	114,407
164,677	-4,622	232,363	114,310
165,692	-4,578	232,295	114,301
166,706	-4,511	232,352	114,371
167,721	-4,355	232,072	114,347
168,735	-4,321	231,859	114,258
169,750	-4,505	231,711	114,030
170,764	-4,569	231,696	113,962
171,779	-4,365	231,378	113,957
172,794	-4,440	231,346	113,872
173,808	-4,591	231,109	113,626
174,823	-5,028	230,770	113,106
175,837	-5,191	230,668	112,918
176,852	-4,779	230,546	113,171
177,867	-4,456	230,402	113,344
178,881	-4,705	230,435	113,155
179,896	-4,426	230,325	113,309
180,910	-4,355	230,001	113,196
181,925	-4,519	229,828	112,972
182,940	-4,367	229,706	113,021
183,954	-4,331	229,615	112,993
184,969	-4,252	229,458	112,968
185,983	-4,361	229,401	112,845
186,998	-4,259	229,192	112,811
188,013	-4,299	229,036	112,693
189,027	-4,017	228,780	112,776
190,042	-4,322	228,669	112,475
191,056	-4,369	228,472	112,332
192,071	-4,420	228,335	112,215
193,086	-4,410	228,306	112,198
194,100	-4,226	228,033	112,196
195,115	-4,837	227,528	111,466
196,129	-5,788	227,255	110,587
197,144	-2,591	228,380	113,604
198,159	1,889	229,631	117,701
199,173	3,997	230,050	119,544
200,188	4,070	229,939	119,533
201,202	4,506	229,666	119,718
202,217	4,354	229,731	119,624
203,232	4,837	229,596	119,917
204,246	4,601	229,527	119,688
205,261	4,788	229,251	119,677
206,275	4,655	229,182	119,527
207,290	4,716	229,129	119,536
208,304	4,900	228,959	119,579
209,319	5,046	228,695	119,544
210,334	4,753	228,476	119,192
211,348	4,489	228,463	118,972
212,363	4,108	228,120	118,489
213,377	3,973	227,763	118,190
214,392	3,872	227,803	118,122
215,407	4,093	227,622	118,187
216,421	4,038	227,556	118,100
217,436	3,900	227,258	117,830
218,450	3,676	227,089	117,560
219,465	3,675	226,917	117,459
220,480	3,695	226,772	117,390
221,494	3,713	226,586	117,296
222,509	3,831	226,583	117,375
223,523	4,008	226,359	117,383
224,538	3,919	226,152	117,197
225,553	3,971	226,083	117,191
226,567	4,043	226,030	117,207
227,582	4,080	225,835	117,124
228,596	4,296	225,689	117,202
229,611	4,002	225,544	116,893
230,626	3,569	225,335	116,445
231,640	3,914	225,148	116,600
232,655	3,990	225,218	116,683
233,669	4,588	225,026	117,027
234,684	4,589	224,845	116,923
235,699	4,263	224,748	116,616
236,713	3,985	224,541	116,288
237,728	4,014	224,105	116,074
238,742	4,107	224,094	116,128
239,757	3,940	223,954	115,919
240,772	3,968	223,820	115,860
241,786	3,684	223,795	115,623
242,801	4,174	223,648	115,905
243,815	4,221	223,605	115,909
244,830	4,199	223,461	115,807
245,844	4,216	223,258	115,704
246,859	3,936	222,997	115,348
247,874	4,362	222,861	115,587
248,888	4,100	222,914	115,408
249,903	4,174	222,568	115,274
250,917	3,944	222,422	115,016
251,932	3,968	222,310	114,966
252,947	3,894	222,048	114,765
253,961	3,724	221,972	114,588
254,976	3,878	221,803	114,606
255,990	4,212	221,602	114,741
257,005	4,117	221,627	114,672
258,020	4,113	221,445	114,565
259,034	4,379	221,290	114,672
260,049	4,273	221,285	114,580
261,063	4,182	221,110	114,412
262,078	4,176	221,076	114,379
263,093	4,380	220,841	114,399
264,107	4,237	220,634	114,176
265,122	4,253	220,376	114,044
266,136	4,548	220,477	114,304
267,151	4,657	220,328	114,298
268,166	4,241	219,989	113,805
269,180	3,953	219,688	113,426
270,195	4,016	219,656	113,446
271,209	3,734	219,626	113,213
272,224	4,075	219,362	113,317
273,239	4,186	219,323	113,369
274,253	3,935	219,178	113,099
275,268	3,875	218,921	112,912
276,282	3,834	218,794	112,807
277,297	3,676	218,587	112,574
278,312	3,919	218,402	112,647
279,326	3,695	218,407	112,475
280,341	4,002	218,269	112,619
281,355	4,139	218,143	112,644
282,370	3,996	218,042	112,478
283,384	3,948	217,855	112,336
284,399	3,938	217,628	112,202
285,414	3,774	217,474	111,993
286,428	3,774	217,524	112,008
287,443	3,898	217,401	112,026
288,457	3,959	217,328	112,022
289,472	3,817	217,086	111,784
290,487	3,760	216,738	111,553
291,501	3,272	216,802	111,222
292,516	3,760	216,508	111,415
293,530	3,576	216,578	111,308
294,545	3,484	216,397	111,138
295,560	3,748	216,193	111,215
296,574	4,012	216,143	111,371
297,589	3,870	215,939	111,152
298,603	3,860	215,932	111,131
299,618	4,018	215,755	111,145
300,633	4,171	215,595	111,163
301,647	4,101	215,581	111,096
302,662	4,116	215,284	110,943
303,676	4,160	215,204	110,923
304,691	4,111	215,080	110,814
305,706	4,310	214,926	110,869
306,720	4,366	214,854	110,862
307,735	4,155	214,550	110,543
308,749	3,749	214,558	110,246
309,764	3,872	214,255	110,169
310,779	3,978	214,278	110,247
311,793	4,238	214,039	110,300
312,808	4,315	213,865	110,256
313,822	4,148	213,733	110,058
314,837	4,054	213,610	109,919
315,852	3,810	213,518	109,687
316,866	3,730	213,379	109,548
317,881	4,337	213,235	109,898
318,895	4,151	213,063	109,667
319,910	4,177	212,882	109,583
320,925	3,736	212,774	109,203
321,939	3,316	212,582	108,797
322,954	3,605	212,417	108,907
323,968	3,930	212,475	109,159
324,983	4,037	212,317	109,144
325,997	4,311	212,251	109,294
327,012	4,059	212,063	109,009
328,027	4,333	211,759	109,037
329,041	4,221	211,794	108,966
330,056	4,437	211,638	109,029
331,070	4,072	211,547	108,714
332,085	3,897	211,215	108,410
333,100	3,771	211,215	108,312
334,114	4,007	210,933	108,324
335,129	3,842	210,919	108,191
336,143	3,872	210,658	108,068
337,158	3,865	210,660	108,055
338,173	3,829	210,543	107,960
339,187	3,674	210,393	107,764
340,202	3,680	210,174	107,647
341,216	3,617	210,088	107,549
342,231	3,708	209,998	107,557
343,246	3,693	209,763	107,417
344,260	3,799	209,573	107,384
345,275	3,805	209,534	107,359
346,289	3,750	209,436	107,260
347,304	3,977	209,365	107,373
348,319	3,895	209,179	107,211
349,333	3,888	209,109	107,161
350,348	3,963	208,866	107,079
351,362	3,978	208,901	107,097
352,377	3,981	208,749	107,012
353,392	3,926	208,689	106,933
354,406	4,068	208,348	106,848
355,421	191,951	1346,202	1428,773
356,435	153,067	1484,941	1428,888
