DTS Sentinel unit serial number:	SN410029Multiplexer serial number:	ORYXHardware model number:	OX2-SRSoftware version number:	ORYX F/W v4,00 Oryx Data Collector v3.7.2.0data status	okinstallation	B6 Nyhavnadifferential loss correction	single-endedforward channel	channel 2reverse channel	N/Adate	2023/12/09time	11:30:08forward acquisition time	300,00reverse acquisition time	0,00gamma	499,1914k internal	0,3139k external	0,3139temperature offset calibration	1,0000default loss term (dB/km)	0,3820temperature slope calibration	1,0000multiplexer offset coefficient	1,0000multiplexer slope coefficient	1,0000fibre end	0,00T internal ref (°C)	18,83T ext. ref 1 (°C)	2,81T ext. ref 2 (°C)	2,82length (m)	temperature (°C)	Stokes	anti-Stokes-744,400	-24,355	0,122	0,054
-743,385	-50,140	-0,208	-0,073
-742,371	-176,639	0,072	-0,001
-741,356	9,163	-0,337	0,188
-740,342	-182,847	0,044	-0,001
-739,327	-111,643	-0,157	-0,023
-738,312	-92,654	-0,078	-0,016
-737,298	-63,379	-0,265	-0,080
-736,283	191,392	0,016	0,018
-735,269	128,374	-0,186	0,175
-734,254	-200,000	0,023	0,107
-733,239	-32,866	-0,525	-0,215
-732,225	-99,516	0,185	0,034
-731,210	93,655	-0,089	0,074
-730,196	-200,000	-0,012	-0,060
-729,181	-63,565	-0,192	-0,058
-728,167	-200,000	-0,004	-0,178
-727,152	-96,725	0,089	-0,017
-726,137	-200,000	-0,029	-0,226
-725,123	477,178	-0,040	-0,067
-724,108	-127,765	-0,061	-0,006
-723,094	25,861	-0,095	-0,059
-722,079	800,000	0,042	-0,127
-721,064	-133,182	-0,144	0,013
-720,050	-200,000	-0,012	-0,099
-719,035	193,673	0,130	-0,146
-718,021	72,769	-0,060	-0,046
-717,006	-200,000	0,013	-0,106
-715,991	49,054	0,079	-0,055
-714,977	-96,991	-0,153	-0,029
-713,962	-42,333	-0,077	0,029
-712,948	-200,000	0,001	0,095
-711,933	183,114	0,115	0,126
-710,918	173,480	-0,074	-0,080
-709,904	-200,000	0,023	-0,079
-708,889	-200,000	-0,002	-0,059
-707,875	23,653	-0,132	-0,080
-706,860	-19,860	0,059	-0,027
-705,845	14,512	0,036	0,021
-704,831	-200,000	-0,003	0,060
-703,816	-98,598	-0,111	0,021
-702,802	-16,125	-0,067	0,031
-701,787	800,000	0,034	-0,080
-700,772	72,482	0,091	-0,070
-699,758	245,752	0,036	-0,045
-698,743	-79,372	0,075	-0,019
-697,729	233,105	-0,039	0,047
-696,714	406,696	0,031	-0,048
-695,699	-200,000	-0,008	-0,154
-694,685	398,246	-0,028	0,043
-693,670	-99,150	-0,088	-0,016
-692,656	19,551	0,137	-0,081
-691,641	-37,199	0,131	0,052
-690,627	162,406	0,056	0,058
-689,612	251,609	-0,106	0,134
-688,597	800,000	0,046	-0,108
-687,583	112,675	0,005	-0,005
-686,568	-85,444	-0,023	0,005
-685,554	-121,235	-0,048	0,006
-684,539	-200,000	0,002	0,024
-683,524	389,932	-0,051	0,078
-682,510	-67,389	-0,083	-0,024
-681,495	64,995	-0,068	0,050
-680,481	53,673	0,087	-0,062
-679,466	48,980	-0,079	0,055
-678,451	-23,395	0,065	-0,029
-677,437	-200,000	0,027	0,137
-676,422	72,426	0,058	0,045
-675,408	103,159	-0,061	0,053
-674,393	137,914	0,037	-0,036
-673,378	800,000	-0,026	0,054
-672,364	-28,195	-0,083	-0,036
-671,349	-200,000	0,016	-0,106
-670,335	529,609	-0,068	-0,120
-669,320	-200,000	0,009	0,142
-668,305	-63,666	0,048	0,014
-667,291	317,198	0,030	0,042
-666,276	176,601	-0,078	0,084
-665,262	189,585	0,013	0,014
-664,247	332,765	0,054	0,078
-663,232	255,564	0,066	-0,084
-662,218	-200,000	0,037	-0,145
-661,203	-200,000	0,018	0,127
-660,189	-200,000	0,017	-0,056
-659,174	189,471	-0,085	0,094
-658,159	293,531	-0,056	0,076
-657,145	-200,000	0,018	0,062
-656,130	-125,936	0,193	-0,021
-655,116	32,261	0,130	0,083
-654,101	800,000	-0,082	0,193
-653,086	-200,000	0,000	-0,072
-652,072	80,332	0,116	-0,092
-651,057	16,965	-0,074	-0,043
-650,043	48,337	-0,148	0,102
-649,028	-68,220	0,073	-0,021
-648,014	149,779	0,096	0,096
-646,999	-58,887	-0,046	0,015
-645,984	800,000	0,025	0,055
-644,970	-113,325	-0,099	-0,014
-643,955	800,000	-0,038	-0,080
-642,941	-200,000	-0,020	0,088
-641,926	-43,001	-0,064	0,024
-640,911	800,000	0,054	0,159
-639,897	647,551	0,052	0,099
-638,882	-200,000	-0,009	-0,044
-637,868	-200,000	0,019	-0,071
-636,853	800,000	-0,042	-0,094
-635,838	150,961	-0,022	-0,022
-634,824	179,501	0,021	-0,022
-633,809	307,149	0,111	-0,153
-632,795	-165,904	0,137	-0,004
-631,780	210,395	0,055	0,064
-630,765	35,530	-0,070	-0,045
-629,751	-111,173	-0,125	-0,019
-628,736	-131,970	-0,036	-0,003
-627,722	-167,883	-0,094	-0,003
-626,707	-137,456	0,061	-0,005
-625,692	-97,271	-0,149	-0,028
-624,678	-108,851	0,142	-0,022
-623,663	800,000	0,013	-0,027
-622,649	-200,000	-0,016	-0,190
-621,634	-200,000	-0,008	-0,135
-620,619	407,093	0,013	0,021
-619,605	800,000	0,010	-0,028
-618,590	-180,258	0,095	-0,001
-617,576	212,325	0,107	0,125
-616,561	-117,775	-0,189	-0,025
-615,546	76,103	-0,066	-0,051
-614,532	262,136	-0,076	-0,098
-613,517	-82,757	0,083	-0,020
-612,503	125,786	0,044	0,041
-611,488	-7,170	0,081	0,040
-610,474	-200,000	-0,010	0,096
-609,459	91,556	-0,038	0,031
-608,444	-75,673	-0,192	-0,050
-607,430	-76,547	-0,104	-0,027
-606,415	800,000	-0,049	-0,103
-605,401	800,000	0,008	0,022
-604,386	392,462	0,020	0,030
-603,371	-200,000	0,022	-0,152
-602,357	-200,000	0,009	-0,089
-601,342	-129,205	0,078	0,008
-600,328	679,959	0,068	-0,130
-599,313	-46,367	-0,057	-0,021
-598,298	-97,419	-0,096	0,018
-597,284	127,395	0,032	0,030
-596,269	659,573	-0,043	0,082
-595,255	429,148	0,067	0,107
-594,240	194,841	-0,035	-0,039
-593,225	-13,074	0,026	0,013
-592,211	-33,035	0,029	0,012
-591,196	45,747	0,037	0,025
-590,182	147,570	-0,050	0,049
-589,167	-200,000	0,016	0,064
-588,152	800,000	-0,067	-0,155
-587,138	-200,000	0,006	-0,137
-586,123	211,981	-0,050	0,058
-585,109	-200,000	-0,024	0,155
-584,094	-14,579	-0,070	-0,033
-583,079	-200,000	0,014	0,072
-582,065	-157,355	-0,058	-0,003
-581,050	-114,443	0,079	-0,011
-580,036	168,161	-0,049	-0,052
-579,021	409,284	-0,073	-0,115
-578,006	-200,000	0,016	-0,055
-576,992	-200,000	0,003	-0,041
-575,977	69,561	0,086	-0,065
-574,963	-136,287	0,132	-0,011
-573,948	-200,000	-0,006	-0,094
-572,934	-153,166	-0,206	-0,010
-571,919	800,000	-0,026	-0,056
-570,904	-56,301	0,062	-0,020
-569,890	173,358	-0,032	-0,034
-568,875	549,433	0,036	-0,064
-567,861	800,000	-0,043	0,090
-566,846	-200,000	0,020	-0,091
-565,831	401,513	0,025	0,039
-564,817	-64,352	0,039	0,012
-563,802	221,409	0,032	0,038
-562,788	800,000	-0,019	-0,056
-561,773	-82,547	-0,105	0,025
-560,758	-131,066	0,078	-0,008
-559,744	-58,111	-0,052	0,016
-558,729	-200,000	-0,017	0,057
-557,715	-117,366	-0,138	-0,018
-556,700	-200,000	-0,022	0,076
-555,685	-69,759	-0,128	-0,036
-554,671	800,000	-0,005	-0,013
-553,656	-200,000	-0,004	0,131
-552,642	800,000	-0,003	-0,006
-551,627	-149,684	0,136	0,008
-550,612	-200,000	-0,021	-0,082
-549,598	-200,000	0,019	0,144
-548,583	-200,000	-0,037	-0,135
-547,569	-97,878	0,111	0,021
-546,554	800,000	0,033	0,094
-545,539	-200,000	-0,038	0,240
-544,525	-20,545	-0,119	0,054
-543,510	88,942	0,083	-0,068
-542,496	-22,970	-0,052	-0,023
-541,481	-167,120	-0,174	-0,005
-540,466	-36,847	0,043	-0,017
-539,452	-34,289	0,122	-0,049
-538,437	-200,000	-0,027	0,098
-537,423	16,876	0,026	0,015
-536,408	631,579	-0,061	-0,114
-535,393	-152,015	-0,078	-0,004
-534,379	451,876	0,069	-0,113
-533,364	-57,360	-0,065	-0,021
-532,350	-65,998	0,073	-0,021
-531,335	800,000	-0,089	0,202
-530,321	800,000	0,012	0,032
-529,306	219,025	0,058	0,069
-528,291	7,282	-0,062	-0,034
-527,277	-162,392	0,037	-0,001
-526,262	-90,146	0,066	-0,014
-525,248	106,922	0,097	0,085
-524,233	-200,000	0,008	0,175
-523,218	423,338	0,061	0,097
-522,204	31,695	-0,036	-0,023
-521,189	126,457	-0,042	0,039
-520,175	800,000	0,030	-0,088
-519,160	-200,000	0,032	-0,144
-518,145	217,134	0,024	-0,028
-517,131	-200,000	0,004	0,034
-516,116	-45,869	-0,208	-0,075
-515,102	9,133	0,076	-0,042
-514,087	134,872	0,065	-0,062
-513,072	-168,861	-0,158	0,004
-512,058	637,991	-0,043	-0,082
-511,043	800,000	-0,009	-0,027
-510,029	550,110	-0,063	-0,111
-509,014	-7,077	0,074	0,037
-507,999	214,961	-0,071	0,083
-506,985	800,000	-0,029	-0,061
-505,970	490,717	0,045	-0,077
-504,956	800,000	-0,035	-0,106
-503,941	800,000	-0,037	0,084
-502,926	13,530	0,138	-0,079
-501,912	800,000	-0,020	-0,051
-500,897	-34,531	0,031	0,012
-499,883	-72,441	-0,039	0,011
-498,868	58,168	0,010	-0,007
-497,853	-158,612	-0,119	-0,005
-496,839	800,000	0,046	-0,096
-495,824	-200,000	0,005	0,057
-494,810	7,050	-0,085	0,047
-493,795	207,845	-0,051	-0,058
-492,781	800,000	0,060	-0,172
-491,766	371,935	-0,041	0,061
-490,751	73,220	-0,082	-0,063
-489,737	159,523	-0,058	0,059
-488,722	-200,000	0,011	-0,040
-487,708	714,993	0,036	-0,070
-486,693	-21,108	-0,021	0,009
-485,678	-200,000	-0,007	-0,054
-484,664	274,972	0,053	-0,068
-483,649	-167,432	-0,074	-0,002
-482,635	-39,669	0,044	0,017
-481,620	-200,000	0,016	0,116
-480,605	-200,000	0,017	-0,140
-479,591	-102,691	0,085	0,015
-478,576	-200,000	0,040	-0,206
-477,562	-200,000	0,014	-0,175
-476,547	800,000	0,071	-0,154
-475,532	591,501	-0,033	0,059
-474,518	276,991	0,040	0,053
-473,503	-200,000	-0,010	0,121
-472,489	151,910	0,193	0,194
-471,474	800,000	-0,045	0,134
-470,459	87,786	-0,122	-0,099
-469,445	302,103	-0,048	-0,066
-468,430	148,512	-0,107	-0,106
-467,416	237,254	-0,024	0,030
-466,401	623,331	0,053	0,098
-465,386	467,977	-0,009	-0,014
-464,372	-107,194	0,115	-0,018
-463,357	443,930	-0,023	0,038
-462,343	-106,595	-0,096	0,016
-461,328	-75,436	-0,120	-0,031
-460,313	65,970	0,049	0,037
-459,299	-165,829	-0,052	-0,002
-458,284	6,329	-0,050	0,027
-457,270	-200,000	-0,007	-0,065
-456,255	552,222	0,003	-0,005
-455,241	-19,475	0,081	0,037
-454,226	65,882	-0,125	0,093
-453,211	67,811	0,170	-0,128
-452,197	-200,000	-0,004	-0,128
-451,182	-124,236	0,140	0,016
-450,168	-5,606	-0,043	0,021
-449,153	132,013	-0,060	-0,057
-448,138	63,956	0,106	0,078
-447,124	604,645	0,065	0,119
-446,109	-150,732	0,060	-0,003
-445,095	298,343	-0,020	0,027
-444,080	90,971	0,066	0,055
-443,065	-132,509	-0,036	-0,003
-442,051	307,288	-0,048	-0,066
-441,036	384,658	-0,040	-0,060
-440,022	724,510	0,073	-0,143
-439,007	456,776	0,055	0,090
-437,992	1,612	-0,056	0,029
-436,978	66,623	0,120	0,089
-435,963	224,871	-0,093	0,111
-434,949	-101,976	0,081	-0,014
-433,934	800,000	0,061	0,133
-432,919	800,000	-0,017	-0,049
-431,905	800,000	-0,028	-0,062
-430,890	382,834	0,015	-0,023
-429,876	141,359	0,042	0,041
-428,861	-48,203	0,115	0,040
-427,846	129,449	0,063	-0,059
-426,832	-200,000	0,035	-0,145
-425,817	304,025	-0,090	-0,123
-424,803	-140,728	0,120	-0,009
-423,788	-0,531	0,074	0,038
-422,773	90,553	-0,058	-0,048
-421,759	-200,000	-0,003	0,091
-420,744	197,579	-0,053	0,060
-419,730	-200,000	-0,007	-0,140
-418,715	128,305	-0,066	-0,061
-417,701	49,163	0,081	0,056
-416,686	-66,381	-0,020	-0,006
-415,671	-38,708	-0,048	0,019
-414,657	-200,000	0,018	0,127
-413,642	406,999	-0,029	-0,045
-412,628	649,029	0,016	-0,030
-411,613	434,726	-0,021	0,034
-410,598	-200,000	-0,031	-0,143
-409,584	96,574	-0,122	0,103
-408,569	365,754	0,096	0,143
-407,555	-200,000	0,027	0,120
-406,540	-34,428	-0,095	0,038
-405,525	35,771	-0,072	0,046
-404,511	-61,182	-0,069	0,021
-403,496	-85,477	-0,091	0,021
-402,482	45,233	0,077	0,052
-401,467	147,581	0,057	-0,056
-400,452	800,000	0,046	0,111
-399,438	65,235	-0,075	-0,055
-398,423	98,543	0,059	0,049
-397,409	-63,468	-0,105	-0,031
-396,394	4,961	-0,022	-0,012
-395,379	800,000	0,035	-0,093
-394,365	-110,807	0,070	-0,010
-393,350	-200,000	-0,006	0,103
-392,336	243,721	-0,065	0,079
-391,321	-24,368	0,126	0,055
-390,306	-200,000	0,003	-0,013
-389,292	417,105	-0,060	-0,095
-388,277	3,198	-0,044	-0,023
-387,263	-154,667	0,153	0,007
-386,248	95,541	0,098	0,082
-385,233	486,340	-0,016	-0,027
-384,219	-34,252	0,034	0,014
-383,204	-52,584	-0,219	-0,073
-382,190	-143,956	-0,054	-0,004
-381,175	800,000	0,033	0,090
-380,160	-183,014	0,050	-0,001
-379,146	-200,000	-0,011	-0,125
-378,131	800,000	0,033	0,067
-377,117	573,521	0,036	-0,065
-376,102	-200,000	0,030	-0,101
-375,088	-49,639	-0,050	0,017
-374,073	800,000	0,022	0,068
-373,058	-54,717	-0,076	0,025
-372,044	-8,717	0,042	0,021
-371,029	62,007	0,115	0,084
-370,015	-118,553	-0,088	0,011
-369,000	47,685	-0,028	0,019
-367,985	800,000	0,025	-0,060
-366,971	-29,317	0,048	-0,020
-365,956	262,775	-0,050	0,063
-364,942	-200,000	0,017	-0,059
-363,927	-200,000	0,046	0,153
-362,912	-115,478	0,147	0,020
-361,898	38,023	0,014	0,009
-360,883	-108,737	0,025	0,004
-359,869	-200,000	0,006	0,123
-358,854	800,000	-0,023	0,056
-357,839	800,000	0,016	0,035
-356,825	-141,531	-0,084	-0,006
-355,810	197,665	0,027	0,030
-354,796	244,994	-0,033	-0,041
-353,781	535,208	-0,044	-0,076
-352,766	800,000	0,056	-0,128
-351,752	-123,391	0,076	0,009
-350,737	-53,248	0,104	-0,035
-349,723	-128,589	-0,055	0,006
-348,708	470,612	-0,019	0,031
-347,693	120,943	0,112	0,102
-346,679	233,794	0,019	0,022
-345,664	800,000	0,011	-0,034
-344,650	224,825	-0,072	-0,085
-343,635	-44,205	-0,107	-0,039
-342,620	-114,395	-0,096	-0,013
-341,606	459,768	0,050	0,082
-340,591	90,982	-0,013	-0,011
-339,577	5,036	-0,080	-0,043
-338,562	800,000	-0,052	-0,119
-337,548	428,258	-0,062	0,099
-336,533	199,367	0,097	0,109
-335,518	-18,759	-0,053	0,024
-334,504	-12,746	0,081	0,038
-333,489	-15,545	-0,062	-0,029
-332,475	-89,713	-0,113	-0,024
-331,460	351,942	0,048	0,069
-330,445	66,592	0,069	-0,051
-329,431	800,000	0,035	0,079
-328,416	-25,284	0,134	0,058
-327,402	-200,000	0,009	-0,116
-326,387	104,643	-0,044	-0,038
-325,372	-76,181	0,114	-0,029
-324,358	385,727	-0,042	-0,064
-323,343	800,000	0,023	0,048
-322,329	128,277	-0,059	0,055
-321,314	761,249	0,038	0,075
-320,299	204,926	-0,016	0,018
-319,285	-200,000	0,001	-0,076
-318,270	800,000	0,045	-0,101
-317,256	800,000	-0,059	-0,137
-316,241	-103,309	-0,042	0,007
-315,226	-31,164	-0,037	0,015
-314,212	-37,479	0,199	0,077
-313,197	649,693	0,027	0,050
-312,183	-16,898	0,078	0,036
-311,168	39,691	-0,105	0,069
-310,153	189,721	0,017	0,019
-309,139	-93,975	0,037	0,007
-308,124	-128,273	0,092	-0,009
-307,110	17,266	0,085	-0,049
-306,095	611,309	0,075	0,138
-305,080	-200,000	-0,001	-0,036
-304,066	37,992	0,051	0,033
-303,051	10,544	-0,088	-0,049
-302,037	80,534	0,130	-0,102
-301,022	800,000	0,039	-0,081
-300,008	800,000	-0,019	0,055
-298,993	-23,439	0,049	-0,021
-297,978	-54,358	0,073	-0,024
-296,964	177,935	0,056	0,059
-295,949	164,799	-0,139	-0,143
-294,935	35,963	-0,106	-0,068
-293,920	139,810	-0,079	0,076
-292,905	-200,000	0,004	0,117
-291,891	-4,120	0,138	0,069
-290,876	95,233	-0,028	0,023
-289,862	436,398	-0,054	0,086
-288,847	-200,000	0,033	-0,112
-287,832	387,043	-0,019	0,029
-286,818	-98,640	0,107	0,020
-285,803	-88,535	-0,034	-0,007
-284,789	800,000	0,019	-0,043
-283,774	132,317	0,085	0,079
-282,759	-200,000	-0,021	0,189
-281,745	800,000	0,009	-0,029
-280,730	79,482	0,067	-0,052
-279,716	204,794	-0,076	0,086
-278,701	-200,000	0,004	-0,018
-277,686	146,311	0,028	0,028
-276,672	800,000	-0,026	-0,068
-275,657	158,350	-0,046	-0,046
-274,643	-79,461	-0,115	-0,028
-273,628	-200,000	0,018	0,107
-272,613	395,644	-0,115	-0,175
-271,599	-200,000	0,009	0,039
-270,584	-200,000	0,027	-0,147
-269,570	21,758	-0,098	0,058
-268,555	97,948	-0,056	0,047
-267,540	0,394	-0,027	-0,014
-266,526	638,502	-0,043	-0,081
-265,511	88,415	-0,035	0,029
-264,497	10,725	0,190	-0,105
-263,482	-200,000	-0,012	0,042
-262,467	49,934	0,109	0,075
-261,453	219,001	-0,016	-0,019
-260,438	164,181	0,062	0,063
-259,424	226,982	0,087	-0,103
-258,409	-200,000	0,007	-0,103
-257,395	-34,488	0,036	0,014
-256,380	-25,373	0,114	0,049
-255,365	19,906	0,169	0,099
-254,351	-200,000	0,000	0,205
-253,336	54,195	0,078	0,054
-252,322	697,865	0,019	0,037
-251,307	-200,000	0,000	0,063
-250,292	800,000	0,010	-0,031
-249,278	-200,000	-0,010	0,057
-248,263	-41,054	-0,042	-0,016
-247,249	621,930	0,055	-0,102
-246,234	-200,000	0,018	-0,152
-245,219	-65,360	-0,027	0,008
-244,205	296,409	-0,065	-0,087
-243,190	-200,000	0,009	0,081
-242,176	80,565	0,025	0,020
-241,161	211,242	0,045	0,051
-240,146	-200,000	0,003	0,018
-239,132	453,467	0,018	0,030
-238,117	75,956	0,091	0,070
-237,103	-67,148	0,027	0,008
-236,088	37,830	-0,086	-0,055
-235,073	-93,873	0,162	-0,032
-234,059	186,356	-0,142	0,154
-233,044	29,080	0,052	-0,032
-232,030	-62,781	-0,051	-0,015
-231,015	-29,023	-0,161	-0,067
-230,000	800,000	-0,093	-0,189
-228,986	294,449	-0,030	0,040
-227,971	34,232	0,059	-0,037
-226,957	333,424	-0,076	0,107
-225,942	-200,000	0,003	-0,035
-224,927	-200,000	0,008	0,027
-223,913	800,000	-0,026	0,074
-222,898	137,857	0,036	0,034
-221,884	800,000	-0,020	0,045
-220,869	309,754	-0,027	0,037
-219,855	407,617	0,041	-0,063
-218,840	41,128	0,063	-0,041
-217,825	-89,363	-0,144	0,030
-216,811	81,392	-0,217	-0,170
-215,796	306,626	-0,049	-0,067
-214,782	42,058	0,133	-0,088
-213,767	-47,758	-0,125	0,044
-212,752	-112,382	0,113	-0,016
-211,738	78,024	-0,087	0,068
-210,723	689,935	-0,029	-0,055
-209,709	515,038	0,058	-0,099
-208,694	50,233	-0,106	0,073
-207,679	-200,000	-0,003	0,025
-206,665	-150,604	0,098	-0,005
-205,650	424,278	0,073	0,115
-204,636	-41,187	0,076	0,028
-203,621	-77,550	-0,057	-0,014
-202,606	-200,000	-0,006	-0,060
-201,592	-200,000	0,000	-0,071
-200,577	-200,000	0,001	-0,021
-199,563	24,115	-0,074	-0,044
-198,548	-56,029	-0,193	0,062
-197,533	659,659	0,079	0,149
-196,519	-98,204	-0,057	-0,011
-195,504	161,777	-0,046	0,047
-194,490	-8,845	-0,129	0,062
-193,475	-200,000	0,001	-0,052
-192,460	-200,000	0,006	0,077
-191,446	96,852	0,110	0,091
-190,431	-23,924	-0,045	0,019
-189,417	148,706	-0,017	-0,017
-188,402	-78,759	-0,047	-0,011
-187,387	-49,533	-0,064	0,022
-186,373	-40,862	0,133	0,050
-185,358	-132,054	0,233	0,022
-184,344	-200,000	0,025	0,239
-183,329	48,895	0,054	0,037
-182,315	-200,000	0,025	0,082
-181,300	800,000	-0,034	-0,108
-180,285	-5,217	-0,112	-0,056
-179,271	157,645	0,059	0,059
-178,256	227,294	0,090	-0,107
-177,242	236,342	-0,024	0,028
-176,227	-104,874	0,094	0,016
-175,212	175,707	0,002	0,002
-174,198	565,680	-0,016	0,029
-173,183	387,448	0,010	0,015
-172,169	-200,000	-0,039	-0,170
-171,154	-142,983	-0,081	-0,006
-170,139	-200,000	0,021	0,123
-169,125	336,867	-0,073	0,103
-168,110	-200,000	0,013	0,101
-167,096	-132,039	0,077	0,007
-166,081	800,000	-0,041	0,089
-165,066	-200,000	-0,017	-0,057
-164,052	-36,339	0,069	-0,027
-163,037	-136,534	0,071	0,006
-162,023	800,000	0,025	-0,061
-161,008	800,000	0,024	0,066
-159,993	204,390	-0,099	0,112
-158,979	-150,624	-0,135	-0,007
-157,964	351,518	-0,153	-0,221
-156,950	29,501	-0,056	-0,034
-155,935	-115,021	-0,041	0,006
-154,920	-63,049	-0,032	-0,010
-153,906	-17,499	0,078	0,035
-152,891	40,655	0,019	-0,012
-151,877	-200,000	-0,021	-0,092
-150,862	-200,000	0,030	-0,156
-149,847	800,000	0,006	0,015
-148,833	47,754	0,047	-0,032
-147,818	-16,917	0,048	-0,022
-146,804	-89,577	0,044	-0,009
-145,789	172,114	0,015	-0,015
-144,775	-38,938	0,016	-0,006
-143,760	800,000	-0,027	-0,060
-142,745	232,812	0,008	-0,009
-141,731	359,720	0,075	0,109
-140,716	-26,300	0,102	0,043
-139,702	-48,679	0,038	-0,013
-138,687	-200,000	0,011	0,126
-137,672	-123,494	0,076	-0,009
-136,658	73,150	0,025	0,019
-135,643	40,794	0,078	0,051
-134,629	31,659	0,036	0,022
-133,614	266,613	-0,028	0,036
-132,599	601,869	0,103	0,187
-131,585	40,344	0,091	0,059
-130,570	-200,000	-0,002	-0,014
-129,556	-74,782	-0,007	0,002
-128,541	204,023	-0,059	0,066
-127,526	78,948	-0,094	-0,073
-126,512	-4,241	0,089	0,045
-125,497	435,163	0,077	0,122
-124,483	147,732	-0,040	0,039
-123,468	-3,081	0,019	-0,009
-122,453	-92,390	-0,072	-0,014
-121,439	-43,449	-0,040	0,014
-120,424	-4,231	-0,049	0,025
-119,410	53,740	-0,058	-0,040
-118,395	800,000	0,038	-0,085
-117,380	-170,219	0,059	0,001
-116,366	-200,000	-0,003	0,074
-115,351	-200,000	-0,006	-0,039
-114,337	-51,154	-0,127	-0,043
-113,322	-47,475	-0,054	0,019
-112,307	165,112	-0,057	-0,058
-111,293	-30,651	-0,070	0,029
-110,278	-66,675	0,161	-0,046
-109,264	45,247	0,046	0,031
-108,249	-200,000	0,003	0,044
-107,234	458,603	-0,063	-0,102
-106,220	-20,622	-0,015	-0,007
-105,205	-200,000	0,015	0,083
-104,191	97,838	0,050	-0,041
-103,176	-43,402	-0,067	-0,024
-102,162	10,387	0,189	-0,104
-101,147	25,963	0,061	0,037
-100,132	6,364	-0,072	0,039
-99,118	304,635	-0,065	-0,087
-98,103	-83,931	0,029	0,007
-97,089	-200,000	-0,002	0,031
-96,074	-95,715	0,110	-0,021
-95,059	70,923	0,088	0,066
-94,045	-16,681	-0,128	0,058
-93,030	139,271	0,035	0,033
-92,016	152,273	0,114	-0,113
-91,001	-13,554	-0,068	-0,032
-89,986	-128,974	0,136	0,014
-88,972	-200,000	0,011	0,040
-87,957	-200,000	0,007	0,090
-86,943	499,885	-0,017	-0,028
-85,928	-156,732	0,064	0,003
-84,913	800,000	-0,041	-0,108
-83,899	-200,000	0,011	-0,093
-82,884	-57,952	0,083	0,026
-81,870	-200,000	-0,002	0,007
-80,855	61,876	0,084	0,061
-79,840	418,869	-0,044	0,068
-78,826	-112,008	0,112	-0,016
-77,811	-53,675	-0,113	-0,037
-76,797	-90,120	-0,045	0,009
-75,782	63,375	0,025	-0,018
-74,767	38,643	0,105	0,068
-73,753	45,676	-0,018	-0,012
-72,738	14,722	0,094	0,053
-71,724	667,602	0,035	0,066
-70,709	-114,726	-0,104	-0,014
-69,694	-200,000	-0,028	0,125
-68,680	-200,000	0,004	0,099
-67,665	180,258	0,121	-0,128
-66,651	-132,300	0,097	0,009
-65,636	416,575	-0,022	-0,035
-64,622	4,112	0,129	-0,068
-63,607	-200,000	-0,001	-0,034
-62,592	336,618	-0,012	0,017
-61,578	-200,000	0,001	0,021
-60,563	-19,197	0,054	0,024
-59,549	-200,000	0,004	0,053
-58,534	-39,696	-1,752	-0,658
-57,519	800,000	-0,488	-1,213
-56,505	-200,000	-1,083	-4,727
-55,490	-134,441	0,640	-0,056
-54,476	800,000	5,108	12,113
-53,461	-200,000	15,715	275,361
-52,446	-200,000	701,622	2236,435
-51,432	559,939	1618,191	2832,854
-50,417	120,507	1623,632	1456,040
-49,403	80,297	1283,461	996,318
-48,388	36,714	1027,133	653,661
-47,373	21,732	988,899	579,847
-46,359	20,732	977,581	569,894
-45,344	19,064	973,581	562,064
-44,330	19,191	972,121	561,614
-43,315	18,954	970,582	559,929
-42,300	18,922	969,566	559,215
-41,286	18,864	968,531	558,406
-40,271	18,927	967,360	557,916
-39,257	18,883	966,623	557,323
-38,242	18,955	965,623	556,961
-37,227	18,877	965,226	556,456
-36,213	18,886	964,016	555,765
-35,198	18,822	963,320	555,132
-34,184	18,870	962,686	554,902
-33,169	18,865	961,682	554,284
-32,154	18,858	961,044	553,874
-31,140	18,920	959,907	553,395
-30,125	18,939	959,203	553,030
-29,111	18,934	958,340	552,492
-28,096	18,920	957,690	552,052
-27,082	18,907	956,925	551,548
-26,067	18,839	956,301	550,946
-25,052	18,786	955,568	550,332
-24,038	18,826	954,974	550,097
-23,023	18,859	954,316	549,803
-22,009	18,888	953,492	549,400
-20,994	18,910	952,866	549,086
-19,979	18,831	952,354	548,516
-18,965	18,864	951,611	548,172
-17,950	18,794	951,076	547,617
-16,936	18,813	950,315	547,218
-15,921	18,815	949,604	546,795
-14,906	18,760	948,994	546,245
-13,892	18,743	948,414	545,834
-12,877	18,726	947,675	545,335
-11,863	18,747	947,036	545,011
-10,848	18,748	946,583	544,733
-9,833	18,837	945,924	544,617
-8,819	18,807	945,550	544,284
-7,804	18,803	944,713	543,767
-6,790	18,748	944,338	543,356
-5,775	18,737	943,575	542,859
-4,760	18,817	942,948	542,732
-3,746	18,747	942,244	542,082
-2,731	18,637	941,608	541,346
-1,717	18,528	940,941	540,594
-0,702	18,604	940,106	540,333
0,313	18,358	939,711	540,143
1,327	21,403	937,856	548,655
2,342	30,436	795,493	489,396
3,356	27,718	448,753	271,983
4,371	-1,699	294,395	149,052
5,386	-5,877	275,882	135,709
6,400	-7,047	270,136	131,784
7,415	-7,276	267,760	130,402
8,429	-7,331	266,473	129,714
9,444	-7,608	265,758	129,101
10,459	-7,317	264,809	128,894
11,473	-7,474	264,247	128,465
12,488	-7,662	263,706	128,020
13,502	-7,820	263,224	127,632
14,517	-7,713	262,744	127,485
15,531	-7,783	262,439	127,263
16,546	-7,870	262,098	127,007
17,561	-7,792	261,778	126,911
18,575	-7,707	261,403	126,794
19,590	-7,810	261,011	126,500
20,604	-7,781	260,786	126,406
21,619	-7,839	260,439	126,175
22,634	-7,970	260,174	125,918
23,648	-7,795	259,665	125,816
24,663	-7,882	259,524	125,659
25,677	-8,069	259,445	125,443
26,692	-7,856	258,972	125,393
27,707	-7,928	258,781	125,225
28,721	-7,813	258,449	125,155
29,736	-8,053	258,288	124,854
30,750	-8,114	258,133	124,713
31,765	-7,857	257,687	124,715
32,780	-7,887	257,501	124,586
33,794	-7,922	257,337	124,466
34,809	-7,992	257,122	124,288
35,823	-7,665	256,680	124,352
36,838	-7,888	256,514	124,064
37,853	-7,856	256,201	123,929
38,867	-7,946	255,933	123,709
39,882	-8,057	255,868	123,570
40,896	-8,025	255,585	123,450
41,911	-7,929	255,513	123,489
42,926	-8,001	255,012	123,173
43,940	-8,030	254,838	123,053
44,955	-8,002	254,685	122,991
45,969	-8,142	254,524	122,781
46,984	-8,409	254,363	122,459
47,999	-8,506	253,906	122,144
49,013	-8,489	253,706	122,052
50,028	-8,843	253,468	121,619
51,042	-8,886	253,114	121,401
52,057	-8,650	252,885	121,485
53,071	-9,018	252,743	121,087
54,086	-8,691	252,499	121,242
55,101	-8,511	252,394	121,337
56,115	-8,309	252,340	121,475
57,130	-7,769	252,173	121,850
58,144	-7,472	252,064	122,043
59,159	-7,707	251,977	121,787
60,174	-7,558	251,708	121,774
61,188	-7,794	251,556	121,487
62,203	-7,808	251,230	121,307
63,217	-7,872	251,151	121,202
64,232	-7,893	250,805	121,006
65,247	-7,537	250,590	121,197
66,261	-7,892	250,445	120,812
67,276	-8,035	250,129	120,526
68,290	-8,183	249,881	120,270
69,305	-8,470	249,654	119,904
70,320	-8,344	249,535	119,945
71,334	-8,234	249,373	119,950
72,349	-7,758	249,326	120,322
73,363	-7,786	249,044	120,152
74,378	-7,556	248,749	120,194
75,393	-7,786	248,543	119,888
76,407	-7,890	248,318	119,681
77,422	-7,790	248,198	119,697
78,436	-7,745	247,973	119,616
79,451	-7,817	247,696	119,411
80,466	-8,063	247,433	119,066
81,480	-8,337	247,277	118,748
82,495	-8,200	247,014	118,727
83,509	-8,081	246,818	118,723
84,524	-8,051	246,536	118,601
85,539	-8,450	246,449	118,213
86,553	-8,469	246,425	118,175
87,568	-8,052	246,056	118,338
88,582	-8,165	245,942	118,178
89,597	-8,211	245,622	117,975
90,611	-8,053	245,649	118,110
91,626	-7,970	245,493	118,094
92,641	-7,959	245,286	117,993
93,655	-7,970	244,957	117,815
94,670	-8,083	244,857	117,662
95,684	-8,040	244,525	117,528
96,699	-8,014	244,534	117,543
97,714	-8,263	244,228	117,178
98,728	-8,174	244,090	117,176
99,743	-8,341	243,853	116,913
100,757	-8,343	243,697	116,825
101,772	-8,373	243,558	116,723
102,787	-8,295	243,245	116,628
103,801	-8,121	243,304	116,791
104,816	-8,016	243,145	116,791
105,830	-7,965	243,023	116,764
106,845	-7,827	242,699	116,712
107,860	-7,880	242,591	116,606
108,874	-7,971	242,269	116,365
109,889	-8,031	242,082	116,216
110,903	-8,119	241,959	116,074
111,918	-8,200	241,782	115,911
112,933	-8,023	241,520	115,921
113,947	-8,037	241,396	115,841
114,962	-8,067	241,235	115,728
115,976	-8,039	241,125	115,688
116,991	-7,960	240,973	115,669
118,006	-8,043	240,754	115,486
119,020	-7,854	240,725	115,617
120,035	-7,763	240,433	115,540
121,049	-7,806	240,435	115,496
122,064	-7,686	240,090	115,418
123,079	-7,712	239,876	115,284
124,093	-7,987	239,777	115,001
125,108	-8,233	239,412	114,616
126,122	-8,425	239,272	114,383
127,137	-8,297	238,983	114,338
128,151	-8,470	239,037	114,213
129,166	-8,096	238,824	114,404
130,181	-8,419	238,642	114,045
131,195	-8,168	238,349	114,099
132,210	-8,195	238,219	114,004
133,224	-7,923	238,033	114,126
134,239	-7,997	238,032	114,055
135,254	-7,856	237,899	114,095
136,268	-7,987	237,731	113,898
137,283	-8,141	237,341	113,577
138,297	-8,406	237,191	113,281
139,312	-8,325	236,922	113,208
140,327	-8,122	236,961	113,379
141,341	-7,586	236,867	113,757
142,356	-7,572	236,742	113,698
143,370	-7,681	236,416	113,443
144,385	-7,487	236,268	113,518
145,400	-7,551	236,137	113,394
146,414	-7,499	235,900	113,312
147,429	-7,474	235,666	113,209
148,443	-7,726	235,753	113,039
149,458	-7,640	235,444	112,949
150,473	-7,663	235,414	112,906
151,487	-7,543	235,067	112,826
152,502	-7,822	235,079	112,599
153,516	-7,447	234,892	112,798
154,531	-7,499	234,614	112,613
155,546	-7,628	234,525	112,458
156,560	-7,817	234,313	112,196
157,575	-7,854	234,140	112,074
158,589	-7,769	233,960	112,044
159,604	-7,518	233,821	112,167
160,619	-7,704	233,774	111,987
161,633	-7,365	233,430	112,081
162,648	-7,553	233,373	111,895
163,662	-7,624	233,252	111,770
164,677	-7,499	232,885	111,684
165,692	-7,457	232,887	111,708
166,706	-7,619	232,863	111,558
167,721	-7,534	232,749	111,561
168,735	-7,318	232,562	111,631
169,750	-7,485	232,318	111,373
170,764	-7,612	232,056	111,138
171,779	-7,445	232,002	111,233
172,794	-7,509	231,772	111,062
173,808	-7,740	231,591	110,785
174,823	-8,058	231,206	110,341
175,837	-8,184	231,212	110,236
176,852	-8,060	231,161	110,298
177,867	-7,688	231,118	110,560
178,881	-7,671	230,918	110,467
179,896	-7,479	230,655	110,482
180,910	-7,375	230,624	110,538
181,925	-7,506	230,364	110,302
182,940	-7,558	230,380	110,259
183,954	-7,466	230,073	110,173
184,969	-7,460	229,996	110,131
185,983	-7,348	229,882	110,155
186,998	-7,421	229,668	109,985
188,013	-7,271	229,396	109,962
189,027	-7,313	229,338	109,892
190,042	-7,196	229,087	109,853
191,056	-7,465	229,050	109,616
192,071	-7,127	228,848	109,771
193,086	-7,216	228,835	109,687
194,100	-7,289	228,626	109,520
195,115	-7,440	228,481	109,325
196,129	-7,656	228,341	109,081
197,144	-3,407	229,675	113,006
198,159	1,839	230,937	117,700
199,173	3,472	231,411	119,201
200,188	3,552	231,398	119,246
201,202	3,578	231,221	119,164
202,217	3,936	231,164	119,402
203,232	4,041	231,101	119,441
204,246	4,210	230,867	119,440
205,261	4,353	230,655	119,430
206,275	4,463	230,707	119,532
207,290	4,570	230,464	119,478
208,304	4,418	230,356	119,294
209,319	4,314	230,179	119,112
210,334	4,320	229,899	118,960
211,348	3,891	229,833	118,585
212,363	3,729	229,445	118,250
213,377	3,517	229,295	117,999
214,392	3,689	229,088	118,014
215,407	3,652	229,043	117,952
216,421	3,770	228,982	118,000
217,436	3,669	228,788	117,812
218,450	3,254	228,504	117,337
219,465	3,468	228,284	117,377
220,480	3,328	228,209	117,221
221,494	3,336	227,981	117,100
222,509	3,308	228,015	117,086
223,523	3,465	227,709	117,038
224,538	3,536	227,572	117,012
225,553	3,593	227,479	116,996
226,567	3,492	227,422	116,880
227,582	3,767	227,414	117,075
228,596	3,933	227,184	117,072
229,611	3,657	227,010	116,762
230,626	3,307	226,740	116,347
231,640	3,384	226,580	116,313
232,655	3,668	226,607	116,532
233,669	3,971	226,493	116,693
234,684	4,067	226,526	116,773
235,699	3,879	226,183	116,443
236,713	3,374	226,057	115,985
237,728	3,480	225,709	115,876
238,742	3,385	225,500	115,687
239,757	3,624	225,383	115,797
240,772	3,575	225,270	115,692
241,786	3,425	225,249	115,558
242,801	3,621	225,081	115,609
243,815	3,885	224,959	115,735
244,830	4,063	224,811	115,783
245,844	3,814	224,567	115,458
246,859	3,764	224,427	115,339
247,874	3,730	224,347	115,262
248,888	3,953	224,230	115,359
249,903	3,683	224,089	115,073
250,917	3,532	223,875	114,841
251,932	3,521	223,744	114,755
252,947	3,675	223,589	114,780
253,961	3,577	223,368	114,584
254,976	3,500	223,299	114,480
255,990	3,728	223,302	114,642
257,005	3,561	223,222	114,466
258,020	3,632	223,005	114,397
259,034	4,125	222,850	114,675
260,049	3,894	222,660	114,395
261,063	3,697	222,516	114,165
262,078	3,928	222,403	114,268
263,093	3,740	222,426	114,130
264,107	3,830	222,141	114,040
265,122	3,840	221,876	113,902
266,136	4,088	221,872	114,073
267,151	3,975	221,712	113,897
268,166	3,548	221,463	113,443
269,180	3,107	221,325	113,036
270,195	3,408	221,134	113,151
271,209	3,491	220,952	113,109
272,224	3,664	220,877	113,188
273,239	3,630	220,701	113,063
274,253	3,600	220,487	112,920
275,268	3,524	220,308	112,763
276,282	3,449	220,051	112,566
277,297	3,532	219,887	112,533
278,312	3,249	220,024	112,386
279,326	3,592	219,878	112,553
280,341	3,691	219,746	112,548
281,355	3,724	219,467	112,419
282,370	3,585	219,518	112,333
283,384	3,265	219,344	112,000
284,399	3,241	219,118	111,857
285,414	3,401	218,815	111,809
286,428	3,428	218,989	111,908
287,443	3,778	218,850	112,083
288,457	3,732	218,653	111,938
289,472	3,407	218,482	111,604
290,487	3,075	218,170	111,193
291,501	3,019	218,055	111,084
292,516	3,098	218,070	111,139
293,530	3,336	217,900	111,215
294,545	3,412	217,607	111,111
295,560	3,372	217,680	111,109
296,574	3,572	217,388	111,095
297,589	3,358	217,204	110,836
298,603	3,555	217,319	111,027
299,618	3,545	216,960	110,827
300,633	3,668	216,799	110,824
301,647	3,557	216,980	110,826
302,662	3,896	216,786	110,962
303,676	3,497	216,638	110,588
304,691	3,776	216,516	110,718
305,706	3,687	216,350	110,559
306,720	3,796	216,262	110,582
307,735	3,366	216,034	110,147
308,749	3,430	215,738	110,032
309,764	3,493	215,780	110,089
310,779	4,063	215,631	110,412
311,793	3,973	215,542	110,292
312,808	3,706	215,401	110,019
313,822	3,833	215,204	109,999
314,837	3,669	214,933	109,733
315,852	3,496	214,778	109,521
316,866	3,492	214,757	109,498
317,881	3,845	214,647	109,684
318,895	3,585	214,500	109,413
319,910	3,410	214,258	109,155
320,925	3,121	214,086	108,853
321,939	3,115	213,929	108,759
322,954	3,261	213,932	108,854
323,968	3,544	213,859	109,008
324,983	3,474	213,843	108,941
325,997	3,910	213,480	109,055
327,012	3,569	213,445	108,786
328,027	3,741	213,166	108,756
329,041	3,805	213,248	108,833
330,056	3,899	213,107	108,819
331,070	3,737	212,877	108,576
332,085	3,206	212,684	108,094
333,100	3,661	212,489	108,306
334,114	3,627	212,417	108,236
335,129	3,570	212,296	108,124
336,143	3,338	212,178	107,891
337,158	3,249	212,083	107,770
338,173	3,545	211,977	107,915
339,187	3,452	211,725	107,712
340,202	3,264	211,524	107,468
341,216	3,171	211,518	107,390
342,231	3,356	211,237	107,368
343,246	3,302	211,179	107,290
344,260	3,278	210,984	107,165
345,275	3,607	210,915	107,351
346,289	3,710	210,713	107,310
347,304	3,918	210,638	107,408
348,319	3,649	210,546	107,163
349,333	3,446	210,409	106,943
350,348	3,624	210,379	107,042
351,362	3,793	210,123	107,020
352,377	3,857	210,089	107,038
353,392	3,455	209,853	106,628
354,406	3,736	209,850	106,813
355,421	195,807	1341,311	1428,532
356,435	156,373	1479,202	1428,586
