DTS Sentinel unit serial number:	SN410029Multiplexer serial number:	ORYXHardware model number:	OX2-SRSoftware version number:	ORYX F/W v4,00 Oryx Data Collector v3.7.2.0data status	okinstallation	B6 Nyhavnadifferential loss correction	single-endedforward channel	channel 2reverse channel	N/Adate	2023/12/11time	05:35:08forward acquisition time	300,00reverse acquisition time	0,00gamma	499,1914k internal	0,3127k external	0,3127temperature offset calibration	1,0000default loss term (dB/km)	0,3820temperature slope calibration	1,0000multiplexer offset coefficient	1,0000multiplexer slope coefficient	1,0000fibre end	0,00T internal ref (°C)	19,92T ext. ref 1 (°C)	3,08T ext. ref 2 (°C)	3,11length (m)	temperature (°C)	Stokes	anti-Stokes-744,400	245,397	0,100	0,125
-743,385	-96,048	-0,307	0,060
-742,371	-200,000	-0,008	0,107
-741,356	56,426	-0,201	0,145
-740,342	-18,089	0,178	0,083
-739,327	-57,331	-0,292	0,095
-738,312	120,169	0,016	-0,015
-737,298	-104,989	-0,203	0,034
-736,283	-83,286	0,164	0,039
-735,269	-125,921	-0,188	0,021
-734,254	800,000	0,048	0,109
-733,239	-71,894	-0,513	-0,141
-732,225	-200,000	0,270	0,000
-731,210	-69,919	-0,164	0,046
-730,196	-41,407	0,053	0,020
-729,181	-54,789	0,070	-0,023
-728,167	-45,276	-0,052	-0,019
-727,152	-200,000	-0,063	-0,254
-726,137	-81,309	-0,087	0,021
-725,123	-200,000	-0,001	-0,159
-724,108	115,406	-0,089	-0,080
-723,094	228,648	-0,106	-0,129
-722,079	-200,000	0,015	-0,121
-721,064	-46,902	-0,068	0,025
-720,050	-191,885	-0,109	-0,001
-719,035	-59,170	-0,126	0,040
-718,021	-99,432	-0,168	0,031
-717,006	-30,771	-0,094	-0,039
-715,991	3,565	-0,094	0,051
-714,977	800,000	0,046	-0,120
-713,962	-98,657	0,112	-0,021
-712,948	-29,084	-0,097	0,041
-711,933	-37,987	-0,167	-0,066
-710,918	667,725	0,091	-0,176
-709,904	132,996	-0,037	-0,036
-708,889	-200,000	-0,041	-0,146
-707,875	-72,277	-0,075	-0,021
-706,860	-197,143	-0,101	-0,000
-705,845	92,016	-0,105	-0,088
-704,831	-131,725	-0,109	-0,011
-703,816	13,688	0,106	0,061
-702,802	578,339	0,022	-0,041
-701,787	800,000	-0,056	-0,138
-700,772	299,969	0,097	-0,133
-699,758	-65,745	-0,158	0,047
-698,743	32,751	-0,078	0,050
-697,729	-89,528	0,087	0,019
-696,714	-200,000	0,009	-0,030
-695,699	-200,000	-0,001	-0,029
-694,685	-200,000	-0,029	0,120
-693,670	-200,000	0,022	-0,073
-692,656	-200,000	-0,021	-0,158
-691,641	-88,825	0,108	-0,024
-690,627	-180,672	0,053	-0,001
-689,612	-200,000	-0,031	0,134
-688,597	-78,637	-0,114	0,029
-687,583	800,000	0,024	0,053
-686,568	-34,944	-0,099	-0,040
-685,554	66,907	-0,082	-0,062
-684,539	-48,463	0,098	0,035
-683,524	7,192	-0,078	-0,043
-682,510	-84,904	0,084	-0,019
-681,495	-200,000	-0,004	-0,214
-680,481	-200,000	0,021	-0,082
-679,466	108,671	-0,044	-0,039
-678,451	-113,908	-0,048	0,007
-677,437	-53,969	0,100	-0,033
-676,422	58,765	-0,085	0,062
-675,408	-200,000	0,018	0,068
-674,393	800,000	-0,010	-0,032
-673,378	129,116	0,087	-0,083
-672,364	-145,267	-0,161	0,011
-671,349	518,901	0,022	0,038
-670,335	182,494	0,058	-0,064
-669,320	-114,097	-0,080	-0,011
-668,305	175,561	-0,062	0,066
-667,291	-144,790	0,038	0,003
-666,276	800,000	0,026	-0,072
-665,262	-145,052	-0,185	-0,012
-664,247	2,057	0,147	-0,078
-663,232	70,945	0,023	-0,018
-662,218	197,452	0,019	0,021
-661,203	120,651	0,124	-0,115
-660,189	183,906	-0,067	0,073
-659,174	-200,000	0,014	0,056
-658,159	-200,000	-0,046	-0,155
-657,145	-140,585	0,047	-0,004
-656,130	-200,000	-0,033	0,134
-655,116	405,116	-0,068	0,106
-654,101	-47,007	-0,080	0,029
-653,086	-79,807	0,141	0,035
-652,072	-91,896	-0,137	-0,029
-651,057	-17,631	-0,155	-0,072
-650,043	-200,000	0,020	-0,069
-649,028	800,000	-0,049	0,107
-648,014	211,755	0,054	-0,063
-646,999	447,833	0,074	-0,121
-645,984	612,663	0,012	-0,022
-644,970	68,898	-0,048	0,037
-643,955	34,234	0,065	-0,042
-642,941	800,000	-0,051	-0,146
-641,926	24,329	-0,099	-0,061
-640,911	800,000	0,012	-0,033
-639,897	163,558	0,035	0,036
-638,882	-97,127	0,171	-0,033
-637,868	597,887	-0,044	-0,082
-636,853	-200,000	-0,028	-0,119
-635,838	76,540	-0,102	-0,080
-634,824	-67,717	0,006	-0,002
-633,809	-200,000	-0,004	-0,137
-632,795	47,336	-0,144	0,099
-631,780	16,331	-0,078	0,046
-630,765	753,374	-0,075	-0,152
-629,751	-64,759	-0,070	0,021
-628,736	-200,000	0,004	-0,038
-627,722	61,281	-0,020	-0,015
-626,707	-64,409	0,037	-0,011
-625,692	-1,370	0,047	0,025
-624,678	-97,941	0,081	0,015
-623,663	-161,399	0,104	-0,004
-622,649	178,760	-0,048	0,052
-621,634	-200,000	0,005	0,026
-620,619	-33,301	-0,066	-0,027
-619,605	132,084	-0,019	-0,018
-618,590	-200,000	-0,035	0,161
-617,576	-38,887	0,044	-0,017
-616,561	58,468	-0,057	-0,041
-615,546	570,159	0,073	0,133
-614,532	-200,000	-0,005	-0,027
-613,517	-78,362	0,021	-0,005
-612,503	-57,803	-0,017	-0,006
-611,488	-200,000	0,018	0,129
-610,474	-98,831	-0,087	0,016
-609,459	133,083	-0,078	-0,075
-608,444	66,959	-0,027	0,020
-607,430	7,434	-0,065	0,036
-606,415	-56,536	0,050	0,016
-605,401	134,413	-0,041	-0,040
-604,386	-56,483	0,098	0,032
-603,371	-200,000	0,012	-0,131
-602,357	-57,598	-0,124	0,040
-601,342	800,000	0,027	-0,073
-600,328	-200,000	-0,011	-0,046
-599,313	11,997	-0,053	0,030
-598,298	386,402	-0,082	-0,126
-597,284	800,000	-0,026	-0,073
-596,269	686,347	0,090	0,175
-595,255	64,502	-0,050	-0,037
-594,240	329,808	0,054	-0,077
-593,225	-200,000	-0,015	-0,050
-592,211	-88,914	-0,027	-0,006
-591,196	-68,694	0,075	0,021
-590,182	142,805	0,022	-0,022
-589,167	800,000	-0,020	-0,050
-588,152	-113,988	-0,050	-0,007
-587,138	172,404	0,025	0,026
-586,123	45,550	-0,045	0,031
-585,109	282,268	0,048	-0,063
-584,094	-200,000	-0,030	-0,104
-583,079	-200,000	0,017	-0,068
-582,065	119,378	0,057	-0,052
-581,050	-200,000	-0,008	0,156
-580,036	191,876	0,158	-0,177
-579,021	-57,945	-0,208	-0,067
-578,006	-200,000	-0,000	0,006
-576,992	-200,000	-0,165	-0,000
-575,977	56,086	-0,085	0,061
-574,963	-200,000	0,022	0,100
-573,948	-185,103	0,085	0,001
-572,934	183,901	0,066	-0,073
-571,919	-161,184	-0,097	-0,004
-570,904	800,000	0,034	0,084
-569,890	800,000	-0,022	-0,057
-568,875	94,724	0,058	0,048
-567,861	-102,748	0,091	-0,016
-566,846	476,891	-0,035	-0,058
-565,831	-200,000	0,018	0,068
-564,817	69,611	-0,125	0,095
-563,802	-200,000	0,002	-0,069
-562,788	-136,676	-0,057	-0,005
-561,773	52,720	-0,038	-0,027
-560,758	193,266	0,007	-0,008
-559,744	800,000	0,039	0,105
-558,729	1,795	-0,052	0,028
-557,715	-200,000	-0,004	-0,066
-556,700	128,086	-0,081	0,076
-555,685	-200,000	-0,057	-0,219
-554,671	800,000	-0,012	-0,025
-553,656	138,358	-0,039	0,038
-552,642	-200,000	-0,023	-0,132
-551,627	724,507	-0,021	-0,042
-550,612	-3,593	0,085	-0,044
-549,598	-200,000	0,007	-0,081
-548,583	734,009	0,068	-0,135
-547,569	36,526	-0,089	-0,058
-546,554	498,800	-0,091	0,155
-545,539	-35,299	0,069	0,028
-544,525	55,629	-0,057	-0,041
-543,510	-104,624	-0,044	-0,007
-542,496	-68,069	0,122	-0,035
-541,481	-200,000	-0,007	-0,055
-540,466	86,687	0,059	0,048
-539,452	129,398	-0,053	-0,050
-538,437	-69,533	0,157	0,044
-537,423	-200,000	0,013	0,085
-536,408	66,897	-0,045	-0,034
-535,393	-76,506	-0,082	0,021
-534,379	399,514	-0,041	-0,063
-533,364	800,000	0,029	-0,071
-532,350	58,639	0,087	0,063
-531,335	-200,000	-0,003	-0,048
-530,321	-113,869	0,058	-0,008
-529,306	-170,444	0,145	0,004
-528,291	263,936	-0,113	-0,145
-527,277	-73,908	0,129	-0,034
-526,262	-200,000	-0,017	-0,112
-525,248	-128,200	0,186	-0,019
-524,233	11,107	0,040	-0,023
-523,218	-163,076	0,077	0,003
-522,204	-200,000	0,023	-0,087
-521,189	-200,000	-0,006	0,027
-520,175	-34,317	-0,062	0,025
-519,160	92,322	-0,191	-0,159
-518,145	276,899	-0,068	-0,089
-517,131	595,111	0,046	0,084
-516,116	-143,697	-0,125	0,009
-515,102	800,000	0,025	0,053
-514,087	-200,000	0,011	-0,126
-513,072	24,732	0,030	-0,018
-512,058	-100,256	-0,122	-0,022
-511,043	-200,000	0,092	0,000
-510,029	800,000	-0,066	0,179
-509,014	-200,000	0,016	0,140
-507,999	127,566	-0,065	0,061
-506,985	-200,000	0,011	0,224
-505,970	-200,000	-0,013	-0,066
-504,956	-40,694	-0,079	0,030
-503,941	-200,000	-0,011	0,125
-502,926	78,311	-0,051	-0,041
-501,912	-200,000	-0,012	0,079
-500,897	-200,000	-0,020	0,083
-499,883	-200,000	-0,017	0,081
-498,868	5,876	-0,120	-0,066
-497,853	-130,502	-0,063	0,006
-496,839	-96,101	0,136	-0,026
-495,824	-73,386	-0,117	-0,031
-494,810	4,103	-0,063	-0,034
-493,795	-72,451	-0,088	0,024
-492,781	800,000	0,064	0,187
-491,766	800,000	-0,020	0,052
-490,751	-200,000	0,013	-0,158
-489,737	-52,863	0,070	-0,024
-488,722	800,000	-0,079	-0,198
-487,708	-200,000	-0,006	0,048
-486,693	17,510	-0,097	0,057
-485,678	-33,730	0,049	-0,020
-484,664	800,000	-0,044	-0,104
-483,649	-200,000	0,001	-0,062
-482,635	-64,970	0,155	0,046
-481,620	800,000	0,044	0,091
-480,605	-199,129	0,059	-0,000
-479,591	-200,000	0,037	0,133
-478,576	99,266	-0,016	0,013
-477,562	129,267	0,140	-0,131
-476,547	39,390	-0,018	-0,012
-475,532	-200,000	0,008	0,061
-474,518	-200,000	-0,005	0,038
-473,503	-11,551	-0,176	-0,085
-472,489	-66,696	0,029	0,008
-471,474	-45,068	0,024	0,009
-470,459	47,126	0,078	-0,054
-469,445	203,948	0,078	-0,089
-468,430	-70,854	0,045	0,013
-467,416	94,023	0,053	0,044
-466,401	61,501	0,065	0,048
-465,386	800,000	-0,084	0,185
-464,372	479,304	-0,032	0,054
-463,357	513,092	-0,093	-0,161
-462,343	51,094	-0,019	0,013
-461,328	-116,143	-0,123	0,017
-460,313	229,109	-0,099	-0,119
-459,299	-29,373	0,129	0,054
-458,284	-148,015	-0,056	-0,003
-457,270	-200,000	0,023	0,081
-456,255	107,474	0,061	-0,053
-455,241	-200,000	0,006	-0,171
-454,226	-116,680	0,110	-0,015
-453,211	-75,553	0,126	0,033
-452,197	-200,000	0,005	-0,018
-451,182	-6,968	-0,061	0,031
-450,168	-111,586	-0,104	-0,015
-449,153	186,099	-0,019	-0,021
-448,138	-200,000	0,017	0,101
-447,124	-134,632	-0,031	0,003
-446,109	-200,000	0,009	-0,080
-445,095	13,599	0,108	-0,061
-444,080	-43,870	0,008	0,003
-443,065	-33,132	-0,050	-0,020
-442,051	15,457	0,052	0,030
-441,036	-95,356	-0,054	0,011
-440,022	-200,000	0,012	-0,171
-439,007	2,513	0,123	-0,065
-437,992	-68,434	0,074	0,021
-436,978	-33,862	0,067	0,027
-435,963	445,685	0,037	-0,060
-434,949	-200,000	0,010	0,116
-433,934	321,093	-0,029	0,041
-432,919	49,106	0,162	0,112
-431,905	263,450	-0,031	-0,039
-430,890	-200,000	-0,021	0,120
-429,876	400,923	0,053	0,082
-428,861	-200,000	0,003	0,160
-427,846	189,578	0,071	0,079
-426,832	11,982	0,136	-0,077
-425,817	160,305	-0,112	-0,115
-424,803	-200,000	0,007	0,091
-423,788	82,883	0,036	0,028
-422,773	10,127	0,111	0,062
-421,759	594,250	-0,100	0,183
-420,744	247,147	-0,050	-0,062
-419,730	159,688	-0,050	0,051
-418,715	358,552	0,032	-0,047
-417,701	1,246	0,131	-0,069
-416,686	8,906	0,041	0,022
-415,671	17,929	0,018	0,011
-414,657	508,913	0,070	0,119
-413,642	-200,000	0,016	0,069
-412,628	30,680	-0,101	-0,064
-411,613	-102,870	-0,133	0,023
-410,598	-59,164	-0,090	-0,028
-409,584	-200,000	0,000	0,095
-408,569	129,317	-0,096	0,090
-407,555	-200,000	0,008	0,032
-406,540	9,407	-0,128	0,071
-405,525	198,696	-0,044	0,049
-404,511	800,000	-0,026	0,069
-403,496	800,000	-0,075	-0,213
-402,482	-163,198	-0,020	-0,001
-401,467	-200,000	0,009	0,070
-400,452	568,239	0,068	-0,122
-399,438	-200,000	-0,014	-0,105
-398,423	75,190	0,096	0,075
-397,409	-200,000	0,021	0,137
-396,394	-77,091	-0,076	-0,019
-395,379	-41,296	-0,212	0,080
-394,365	-200,000	-0,011	0,040
-393,350	-103,349	0,069	-0,012
-392,336	149,599	-0,099	-0,098
-391,321	23,827	-0,037	-0,022
-390,306	-143,850	0,170	0,012
-389,292	195,999	-0,015	0,017
-388,277	-200,000	-0,006	0,057
-387,263	48,302	0,058	0,040
-386,248	245,333	-0,098	0,121
-385,233	-200,000	-0,014	0,052
-384,219	-38,577	-0,094	-0,036
-383,204	-24,608	-0,112	-0,049
-382,190	800,000	0,031	-0,073
-381,175	-29,265	0,130	-0,054
-380,160	384,283	0,028	-0,043
-379,146	41,393	0,018	0,012
-378,131	118,785	-0,010	0,009
-377,117	800,000	0,018	-0,051
-376,102	225,014	0,092	0,110
-375,088	38,354	0,075	-0,049
-374,073	-5,659	0,157	0,079
-373,058	788,323	0,046	-0,093
-372,044	-73,967	0,103	-0,027
-371,029	370,149	-0,038	0,056
-370,015	-17,889	-0,043	0,020
-369,000	18,517	0,113	0,066
-367,985	-200,000	-0,034	0,140
-366,971	293,466	-0,059	-0,079
-365,956	-200,000	-0,003	0,016
-364,942	-166,996	0,080	0,002
-363,927	800,000	-0,015	0,040
-362,912	156,002	0,034	-0,034
-361,898	60,983	-0,134	-0,097
-360,883	-125,715	-0,109	0,012
-359,869	230,151	-0,101	-0,121
-358,854	131,440	0,031	-0,029
-357,839	22,289	-0,054	0,032
-356,825	302,175	0,078	0,106
-355,810	370,467	-0,062	-0,092
-354,796	-86,709	-0,201	-0,045
-353,781	-93,365	0,027	-0,006
-352,766	-153,359	-0,073	-0,004
-351,752	-167,850	-0,117	0,003
-350,737	800,000	-0,062	0,166
-349,723	184,026	0,087	-0,095
-348,708	-54,949	0,075	-0,025
-347,693	800,000	-0,004	-0,012
-346,679	293,902	0,029	-0,038
-345,664	5,303	0,089	-0,048
-344,650	-200,000	-0,009	-0,053
-343,635	-200,000	-0,008	0,098
-342,620	800,000	0,061	0,148
-341,606	101,210	0,076	0,065
-340,591	-0,312	-0,032	-0,017
-339,577	-200,000	-0,013	-0,107
-338,562	-76,044	0,130	-0,033
-337,548	-134,268	-0,034	0,003
-336,533	7,154	0,155	0,084
-335,518	-150,870	0,109	-0,006
-334,504	-59,055	-0,089	0,028
-333,489	800,000	-0,049	-0,116
-332,475	-200,000	-0,011	-0,054
-331,460	-200,000	0,006	0,021
-330,445	455,303	-0,062	0,101
-329,431	28,313	-0,061	0,037
-328,416	200,411	0,069	0,078
-327,402	90,967	0,116	0,095
-326,387	-34,515	0,065	0,026
-325,372	631,926	-0,063	-0,118
-324,358	-200,000	0,034	0,150
-323,343	144,735	-0,150	0,147
-322,329	171,245	-0,057	0,060
-321,314	215,157	0,056	-0,065
-320,299	-54,200	0,056	-0,019
-319,285	-200,000	0,017	0,075
-318,270	-200,000	-0,013	0,096
-317,256	11,522	-0,062	-0,034
-316,241	77,597	0,038	-0,029
-315,226	800,000	-0,040	0,108
-314,212	800,000	0,037	0,114
-313,197	69,105	0,073	0,055
-312,183	-200,000	0,009	0,088
-311,168	-4,104	-0,061	-0,031
-310,153	-200,000	0,007	0,120
-309,139	-200,000	-0,005	0,045
-308,124	-200,000	0,011	-0,058
-307,110	-107,567	0,081	0,013
-306,095	-17,010	-0,065	-0,030
-305,080	-88,450	-0,028	-0,006
-304,066	800,000	0,030	0,093
-303,051	130,814	0,042	0,040
-302,037	58,430	-0,047	-0,034
-301,022	95,452	-0,056	0,047
-300,008	94,048	0,070	0,058
-298,993	273,561	-0,104	0,135
-297,978	800,000	0,039	-0,094
-296,964	122,685	0,076	0,070
-295,949	-183,746	-0,044	0,001
-294,935	456,849	0,025	-0,040
-293,920	-200,000	0,001	-0,060
-292,905	467,782	0,050	0,083
-291,891	131,996	0,096	0,090
-290,876	-49,512	0,094	-0,032
-289,862	174,399	0,077	0,081
-288,847	230,610	0,061	0,074
-287,832	-200,000	0,025	-0,126
-286,818	-182,378	0,136	0,002
-285,803	134,740	0,082	0,078
-284,789	53,705	0,068	-0,047
-283,774	-200,000	0,031	0,158
-282,759	32,940	-0,114	0,072
-281,745	370,157	-0,019	-0,028
-280,730	34,057	0,093	-0,059
-279,716	-7,332	0,103	-0,051
-278,701	1,787	0,023	-0,012
-277,686	-200,000	-0,005	0,032
-276,672	-200,000	-0,038	0,149
-275,657	746,313	0,057	-0,113
-274,643	-200,000	0,034	-0,177
-273,628	-200,000	-0,026	-0,173
-272,613	-22,898	0,157	0,069
-271,599	458,429	0,039	0,064
-270,584	-49,043	0,102	-0,036
-269,570	58,563	0,142	0,102
-268,555	-130,266	-0,103	0,010
-267,540	-109,657	0,089	-0,014
-266,526	-200,000	0,012	-0,082
-265,511	-183,035	-0,086	-0,001
-264,497	-44,011	-0,055	0,020
-263,482	800,000	0,042	0,121
-262,467	-84,884	0,096	0,022
-261,453	-62,318	-0,105	0,032
-260,438	-200,000	-0,010	0,047
-259,424	226,505	-0,040	0,047
-258,409	800,000	0,051	-0,108
-257,395	-200,000	-0,012	0,060
-256,380	-200,000	0,054	0,204
-255,365	-79,525	0,108	0,027
-254,351	-121,183	-0,134	-0,016
-253,336	-200,000	0,003	0,061
-252,322	-200,000	-0,034	-0,113
-251,307	-37,032	-0,075	0,029
-250,292	-166,236	0,060	0,002
-249,278	-28,006	-0,036	-0,015
-248,263	-200,000	-0,008	-0,081
-247,249	321,270	0,041	-0,057
-246,234	-177,364	-0,035	0,001
-245,219	-149,481	-0,101	-0,006
-244,205	123,805	0,039	-0,036
-243,190	-70,147	-0,133	-0,037
-242,176	-59,323	-0,115	-0,036
-241,161	470,484	-0,035	0,057
-240,146	800,000	-0,030	0,063
-239,132	-40,914	0,081	-0,030
-238,117	-25,852	-0,037	-0,016
-237,103	200,664	-0,082	-0,093
-236,088	365,495	-0,120	0,177
-235,073	41,793	0,034	0,023
-234,059	422,571	0,067	-0,105
-233,044	-37,966	0,158	-0,061
-232,030	-200,000	-0,008	-0,025
-231,015	-200,000	-0,023	-0,146
-230,000	-200,000	-0,039	-0,176
-228,986	-200,000	-0,022	-0,085
-227,971	800,000	-0,015	0,037
-226,957	77,350	-0,064	0,050
-225,942	540,109	0,045	0,079
-224,927	-47,047	-0,085	0,030
-223,913	-200,000	-0,020	-0,099
-222,898	70,445	-0,042	-0,032
-221,884	800,000	-0,021	-0,049
-220,869	270,387	0,094	0,121
-219,855	-134,499	0,134	-0,012
-218,840	6,220	-0,049	-0,026
-217,825	-128,329	-0,138	0,014
-216,811	213,751	0,072	-0,083
-215,796	-172,187	-0,055	0,001
-214,782	51,081	0,148	-0,102
-213,767	800,000	0,031	-0,088
-212,752	170,330	0,053	-0,055
-211,738	322,850	0,019	0,026
-210,723	-200,000	-0,055	0,000
-209,709	153,743	-0,057	-0,057
-208,694	-200,000	0,008	0,072
-207,679	-126,339	-0,096	-0,010
-206,665	-16,350	-0,037	0,017
-205,650	200,913	0,152	0,171
-204,636	-45,466	-0,050	0,018
-203,621	-200,000	0,001	0,053
-202,606	306,813	-0,056	0,076
-201,592	63,617	-0,086	-0,063
-200,577	-157,579	-0,050	0,002
-199,563	-200,000	-0,001	0,024
-198,548	486,286	-0,046	0,077
-197,533	177,556	0,127	0,135
-196,519	-29,809	-0,117	-0,048
-195,504	1,420	-0,097	-0,051
-194,490	-200,000	-0,009	0,045
-193,475	64,072	0,037	-0,027
-192,460	-78,169	-0,066	-0,016
-191,446	800,000	-0,045	0,094
-190,431	219,567	-0,049	0,057
-189,417	-200,000	0,018	0,083
-188,402	-200,000	-0,016	-0,132
-187,387	107,825	-0,070	-0,061
-186,373	-65,922	-0,072	-0,021
-185,358	-200,000	0,004	-0,064
-184,344	51,507	0,118	0,081
-183,329	-195,373	0,068	-0,000
-182,315	267,539	-0,065	0,083
-181,300	-200,000	0,008	-0,036
-180,285	383,774	-0,077	0,116
-179,271	510,379	-0,049	0,083
-178,256	800,000	0,007	0,015
-177,242	147,346	0,068	0,066
-176,227	9,945	0,047	0,026
-175,212	-108,870	0,198	0,031
-174,198	800,000	-0,024	-0,068
-173,183	800,000	0,035	-0,073
-172,169	-200,000	-0,030	-0,213
-171,154	-200,000	-0,004	-0,168
-170,139	442,479	-0,014	-0,022
-169,125	-75,385	-0,026	0,007
-168,110	329,424	0,111	0,155
-167,096	-200,000	0,007	0,126
-166,081	230,796	-0,022	0,026
-165,066	-50,306	0,059	-0,020
-164,052	-59,968	0,091	-0,028
-163,037	800,000	0,046	-0,139
-162,023	800,000	-0,064	-0,135
-161,008	800,000	0,049	0,139
-159,993	25,979	-0,071	-0,043
-158,979	-200,000	0,049	-0,206
-157,964	14,167	-0,095	-0,053
-156,950	-200,000	0,029	-0,169
-155,935	89,722	-0,066	0,053
-154,920	-60,187	0,202	-0,062
-153,906	193,307	-0,055	-0,060
-152,891	-28,896	-0,104	-0,043
-151,877	190,766	-0,115	0,126
-150,862	-130,280	0,073	-0,007
-149,847	-35,770	-0,074	0,029
-148,833	-200,000	0,012	0,038
-147,818	-34,838	0,052	-0,021
-146,804	41,604	-0,074	-0,049
-145,789	389,727	0,084	-0,127
-144,775	-116,775	-0,018	0,002
-143,760	-200,000	-0,001	0,035
-142,745	-44,367	-0,109	-0,039
-141,731	270,155	-0,050	0,064
-140,716	-154,709	-0,053	-0,003
-139,702	-200,000	0,024	-0,130
-138,687	558,846	-0,063	0,111
-137,672	-90,469	-0,080	-0,017
-136,658	-43,158	0,086	-0,032
-135,643	-40,139	-0,096	-0,036
-134,629	800,000	0,005	0,013
-133,614	56,552	0,046	0,033
-132,599	-143,655	0,150	-0,010
-131,585	-200,000	-0,028	0,107
-130,570	235,141	-0,022	0,027
-129,556	264,287	-0,072	-0,091
-128,541	800,000	0,049	-0,109
-127,526	396,562	-0,048	-0,072
-126,512	-83,566	0,078	-0,018
-125,497	37,457	0,114	0,073
-124,483	-200,000	-0,027	0,109
-123,468	800,000	0,042	0,109
-122,453	0,803	0,020	0,010
-121,439	450,323	-0,063	-0,102
-120,424	-6,989	0,093	0,046
-119,410	27,939	0,032	0,019
-118,395	3,181	0,054	0,028
-117,380	-200,000	-0,015	0,098
-116,366	291,557	-0,047	0,062
-115,351	-200,000	-0,002	0,016
-114,337	-200,000	0,002	-0,029
-113,322	-96,628	0,014	-0,003
-112,307	-200,000	-0,030	-0,116
-111,293	-37,956	0,080	0,031
-110,278	800,000	0,036	-0,086
-109,264	-200,000	-0,023	0,082
-108,249	106,081	0,065	0,056
-107,234	-90,909	-0,059	0,012
-106,220	59,762	0,042	-0,030
-105,205	23,758	0,071	0,042
-104,191	800,000	0,014	-0,031
-103,176	-200,000	0,018	-0,069
-102,162	636,056	-0,011	-0,019
-101,147	-120,605	-0,035	-0,004
-100,132	-200,000	0,029	-0,120
-99,118	800,000	-0,034	-0,083
-98,103	-34,881	-0,060	0,024
-97,089	-200,000	-0,014	0,200
-96,074	-151,288	0,204	0,011
-95,059	261,610	0,077	0,097
-94,045	-108,585	-0,075	-0,012
-93,030	680,809	-0,032	-0,061
-92,016	-52,146	-0,088	0,030
-91,001	-200,000	0,008	-0,044
-89,986	140,054	0,016	-0,015
-88,972	-200,000	-0,007	0,086
-87,957	-200,000	-0,006	0,025
-86,943	-188,740	0,061	0,001
-85,928	80,722	-0,025	-0,019
-84,913	101,535	-0,018	0,015
-83,899	33,011	-0,105	-0,066
-82,884	-141,490	0,103	0,007
-81,870	94,496	0,025	-0,021
-80,855	144,247	-0,075	0,073
-79,840	-51,042	0,108	-0,037
-78,826	-200,000	-0,040	-0,144
-77,811	-86,812	-0,113	0,025
-76,797	138,714	-0,046	0,043
-75,782	-53,628	0,225	-0,074
-74,767	800,000	-0,037	0,078
-73,753	-200,000	-0,025	0,144
-72,738	-11,767	0,076	-0,036
-71,724	-128,192	0,048	0,005
-70,709	203,242	0,078	-0,088
-69,694	-4,686	0,084	-0,042
-68,680	113,953	-0,069	0,061
-67,665	-200,000	0,017	-0,098
-66,651	-200,000	-0,021	0,084
-65,636	-39,056	0,119	-0,045
-64,622	125,027	-0,074	0,067
-63,607	100,147	-0,040	-0,034
-62,592	-200,000	-0,005	-0,021
-61,578	69,577	0,187	0,139
-60,563	-200,000	-0,005	0,029
-59,549	-42,082	-0,064	-0,024
-58,534	-83,540	-1,635	-0,376
-57,519	706,388	-0,615	-1,183
-56,505	-200,000	-0,998	-4,664
-55,490	-81,793	0,671	-0,158
-54,476	800,000	5,011	12,089
-53,461	-200,000	15,101	264,024
-52,446	800,000	695,916	2222,728
-51,432	570,490	1617,627	2864,126
-50,417	121,134	1628,452	1468,928
-49,403	82,371	1284,899	1009,548
-48,388	37,939	1024,468	658,635
-47,373	22,529	984,788	582,304
-46,359	21,617	973,675	572,711
-45,344	20,190	969,693	565,668
-44,330	20,246	968,118	564,908
-43,315	20,007	966,617	563,230
-42,300	19,997	965,607	562,587
-41,286	19,982	964,571	561,910
-40,271	19,988	963,598	561,341
-39,257	20,047	962,650	560,959
-38,242	20,026	961,907	560,435
-37,227	19,968	961,207	559,817
-36,213	19,948	960,279	559,190
-35,198	19,900	959,078	558,311
-34,184	19,987	958,629	558,309
-33,169	19,946	957,549	557,527
-32,154	19,998	956,702	557,179
-31,140	19,987	955,697	556,536
-30,125	19,980	955,117	556,156
-29,111	19,999	954,277	555,703
-28,096	19,985	953,667	555,283
-27,082	19,915	953,167	554,742
-26,067	19,945	952,268	554,294
-25,052	19,925	951,492	553,757
-24,038	20,031	950,537	553,520
-23,023	19,981	950,068	553,062
-22,009	19,973	949,616	552,753
-20,994	20,015	948,743	552,359
-19,979	19,952	948,161	551,795
-18,965	19,938	947,614	551,408
-17,950	19,958	946,932	551,054
-16,936	19,913	946,389	550,573
-15,921	19,916	945,687	550,152
-14,906	19,841	944,935	549,453
-13,892	19,817	944,313	548,995
-12,877	19,740	943,833	548,447
-11,863	19,808	943,123	548,230
-10,848	19,794	942,485	547,791
-9,833	19,925	942,079	547,952
-8,819	19,947	941,542	547,688
-7,804	19,884	940,774	547,017
-6,790	19,715	940,512	546,305
-5,775	19,894	939,494	546,264
-4,760	19,927	938,864	545,978
-3,746	19,870	938,279	545,437
-2,731	19,673	937,789	544,505
-1,717	19,641	937,020	543,937
-0,702	19,632	936,444	543,551
0,313	19,448	935,728	543,373
1,327	22,376	934,031	551,587
2,342	31,584	794,823	493,913
3,356	28,746	450,378	275,568
4,371	-1,159	294,944	150,452
5,386	-5,434	276,228	136,823
6,400	-6,789	270,459	132,689
7,415	-7,356	268,108	131,000
8,429	-6,938	267,012	130,837
9,444	-6,973	265,939	130,267
10,459	-6,965	265,469	130,033
11,473	-7,020	265,007	129,745
12,488	-7,125	264,402	129,342
13,502	-7,098	263,781	129,051
14,517	-7,111	263,470	128,876
15,531	-6,804	263,130	128,976
16,546	-6,890	262,716	128,684
17,561	-6,841	262,355	128,540
18,575	-6,945	262,202	128,360
19,590	-6,744	261,680	128,273
20,604	-6,742	261,477	128,165
21,619	-6,938	261,075	127,780
22,634	-6,863	260,793	127,698
23,648	-6,978	260,620	127,499
24,663	-6,872	260,290	127,421
25,677	-6,823	260,212	127,416
26,692	-6,990	259,698	127,003
27,707	-6,768	259,430	127,059
28,721	-6,941	259,132	126,747
29,736	-6,961	259,097	126,701
30,750	-6,912	258,626	126,503
31,765	-7,075	258,621	126,344
32,780	-6,961	258,301	126,278
33,794	-6,911	258,115	126,220
34,809	-6,995	257,849	126,004
35,823	-6,888	257,569	125,951
36,838	-6,898	257,254	125,777
37,853	-7,124	257,117	125,498
38,867	-7,145	256,838	125,332
39,882	-7,034	256,763	125,383
40,896	-6,930	256,352	125,262
41,911	-7,105	256,404	125,123
42,926	-7,195	255,994	124,831
43,940	-7,113	255,722	124,760
44,955	-7,044	255,624	124,762
45,969	-7,064	255,262	124,557
46,984	-7,172	255,004	124,325
47,999	-7,299	254,697	124,053
49,013	-7,623	254,524	123,674
50,028	-7,671	254,317	123,520
51,042	-7,753	254,038	123,302
52,057	-7,774	253,771	123,143
53,071	-7,646	253,639	123,180
54,086	-7,719	253,433	123,005
55,101	-7,583	253,361	123,078
56,115	-7,365	253,151	123,154
57,130	-6,996	253,127	123,453
58,144	-6,769	252,886	123,522
59,159	-6,810	252,666	123,368
60,174	-6,800	252,355	123,214
61,188	-6,893	252,089	122,992
62,203	-6,932	252,123	122,964
63,217	-7,047	251,926	122,757
64,232	-7,078	251,677	122,598
65,247	-7,008	251,403	122,514
66,261	-6,944	251,197	122,458
67,276	-7,053	250,817	122,168
68,290	-7,232	250,726	121,959
69,305	-7,543	250,362	121,504
70,320	-7,529	250,275	121,463
71,334	-6,998	250,034	121,791
72,349	-6,819	249,888	121,862
73,363	-6,796	249,677	121,768
74,378	-6,813	249,537	121,675
75,393	-6,735	249,297	121,613
76,407	-6,879	249,177	121,421
77,422	-6,926	249,116	121,340
78,436	-7,061	248,772	121,046
79,451	-6,911	248,488	121,025
80,466	-7,006	248,235	120,810
81,480	-7,251	248,034	120,493
82,495	-7,207	247,921	120,465
83,509	-7,084	247,819	120,509
84,524	-6,963	247,336	120,367
85,539	-7,270	247,201	120,030
86,553	-7,209	247,168	120,055
87,568	-7,148	246,850	119,941
88,582	-7,240	246,794	119,825
89,597	-7,253	246,550	119,685
90,611	-6,915	246,356	119,866
91,626	-6,838	246,151	119,820
92,641	-7,046	246,193	119,654
93,655	-6,896	245,756	119,558
94,670	-6,928	245,593	119,441
95,684	-6,912	245,437	119,367
96,699	-7,314	245,385	118,994
97,714	-7,106	245,059	119,000
98,728	-7,297	244,908	118,756
99,743	-7,211	244,665	118,700
100,757	-7,243	244,355	118,512
101,772	-7,290	244,215	118,394
102,787	-7,120	244,123	118,481
103,801	-7,227	244,122	118,380
104,816	-7,018	243,777	118,377
105,830	-6,985	243,706	118,359
106,845	-6,982	243,532	118,267
107,860	-7,008	243,378	118,160
108,874	-7,057	243,034	117,942
109,889	-7,089	242,734	117,759
110,903	-7,009	242,627	117,763
111,918	-7,207	242,500	117,527
112,933	-7,068	242,320	117,544
113,947	-7,007	242,294	117,571
114,962	-6,984	241,936	117,406
115,976	-7,143	242,048	117,319
116,991	-7,129	241,767	117,183
118,006	-7,182	241,535	117,017
119,020	-6,980	241,488	117,150
120,035	-7,062	241,470	117,064
121,049	-6,730	241,122	117,158
122,064	-7,035	240,903	116,790
123,079	-7,013	240,640	116,670
124,093	-7,081	240,414	116,494
125,108	-7,339	240,347	116,240
126,122	-7,451	240,117	116,026
127,137	-7,455	239,918	115,916
128,151	-7,458	239,676	115,787
129,166	-7,181	239,532	115,933
130,181	-7,277	239,373	115,767
131,195	-7,384	239,246	115,608
132,210	-7,287	239,050	115,582
133,224	-7,189	238,892	115,576
134,239	-6,982	238,677	115,630
135,254	-7,091	238,553	115,471
136,268	-7,215	238,343	115,258
137,283	-7,309	238,172	115,089
138,297	-7,557	237,847	114,720
139,312	-7,417	237,604	114,706
140,327	-7,236	237,587	114,834
141,341	-6,874	237,637	115,141
142,356	-6,856	237,489	115,075
143,370	-6,595	237,263	115,166
144,385	-6,882	237,104	114,846
145,400	-6,618	236,937	114,969
146,414	-6,660	236,687	114,803
147,429	-6,811	236,573	114,616
148,443	-6,837	236,416	114,509
149,458	-6,862	236,268	114,407
150,473	-6,871	236,211	114,361
151,487	-6,986	235,896	114,106
152,502	-6,965	235,805	114,069
153,516	-6,857	235,606	114,049
154,531	-6,708	235,257	113,990
155,546	-6,741	235,123	113,888
156,560	-7,122	235,143	113,582
157,575	-6,962	234,763	113,516
158,589	-6,813	234,648	113,570
159,604	-6,662	234,528	113,623
160,619	-6,537	234,358	113,630
161,633	-6,604	234,188	113,484
162,648	-6,705	234,236	113,416
163,662	-6,802	233,877	113,156
164,677	-6,942	233,653	112,925
165,692	-6,792	233,672	113,044
166,706	-6,681	233,575	113,075
167,721	-6,624	233,416	113,033
168,735	-6,640	233,224	112,917
169,750	-6,678	232,980	112,759
170,764	-6,857	232,956	112,595
171,779	-6,628	232,635	112,612
172,794	-6,606	232,605	112,605
173,808	-6,896	232,306	112,221
174,823	-7,254	231,964	111,763
175,837	-7,217	231,832	111,718
176,852	-7,099	231,827	111,799
177,867	-6,811	231,741	111,974
178,881	-6,903	231,581	111,815
179,896	-6,574	231,557	112,052
180,910	-6,514	231,281	111,956
181,925	-6,815	231,326	111,731
182,940	-6,702	231,112	111,707
183,954	-6,679	230,917	111,620
184,969	-6,740	230,744	111,479
185,983	-6,696	230,601	111,435
186,998	-6,833	230,547	111,291
188,013	-6,694	230,292	111,267
189,027	-6,761	229,993	111,060
190,042	-6,760	229,997	111,053
191,056	-6,603	229,755	111,049
192,071	-6,709	229,729	110,944
193,086	-6,535	229,492	110,954
194,100	-6,622	229,116	110,695
195,115	-7,093	228,784	110,159
196,129	-7,382	228,879	109,971
197,144	-3,505	230,102	113,574
198,159	0,863	231,357	117,603
199,173	4,099	232,171	120,543
200,188	4,629	232,104	120,912
201,202	4,504	231,897	120,696
202,217	4,578	231,892	120,740
203,232	4,671	231,882	120,797
204,246	4,782	231,580	120,715
205,261	5,038	231,324	120,771
206,275	4,923	231,304	120,660
207,290	4,941	231,284	120,652
208,304	4,946	230,958	120,476
209,319	5,006	230,712	120,383
210,334	4,949	230,686	120,315
211,348	4,499	230,460	119,837
212,363	4,333	230,151	119,537
213,377	4,144	229,958	119,280
214,392	4,013	229,785	119,078
215,407	4,232	229,678	119,181
216,421	4,336	229,468	119,142
217,436	4,243	229,263	118,953
218,450	3,932	229,176	118,657
219,465	3,861	228,959	118,480
220,480	4,028	228,685	118,456
221,494	3,931	228,528	118,289
222,509	3,953	228,707	118,388
223,523	4,202	228,476	118,450
224,538	4,091	228,319	118,272
225,553	4,091	228,121	118,160
226,567	4,242	227,971	118,186
227,582	4,550	227,826	118,337
228,596	4,470	227,818	118,261
229,611	4,086	227,678	117,884
230,626	3,795	227,573	117,596
231,640	4,056	227,217	117,602
232,655	4,453	227,158	117,864
233,669	4,537	227,159	117,918
234,684	4,891	227,049	118,120
235,699	4,370	226,872	117,621
236,713	4,456	226,474	117,469
237,728	4,233	226,368	117,234
238,742	4,019	226,165	116,956
239,757	4,015	226,074	116,895
240,772	4,048	225,873	116,806
241,786	3,968	225,737	116,665
242,801	4,347	225,647	116,895
243,815	4,632	225,696	117,126
244,830	4,453	225,448	116,851
245,844	4,348	225,256	116,662
246,859	4,426	225,012	116,584
247,874	4,465	224,970	116,581
248,888	4,446	224,730	116,432
249,903	4,161	224,674	116,178
250,917	4,119	224,575	116,085
251,932	4,061	224,452	115,967
252,947	4,162	224,218	115,912
253,961	4,059	224,015	115,720
254,976	4,047	223,874	115,627
255,990	4,331	223,940	115,864
257,005	4,284	223,697	115,693
258,020	4,254	223,589	115,604
259,034	4,557	223,435	115,741
260,049	4,570	223,166	115,601
261,063	4,213	223,112	115,296
262,078	4,360	223,109	115,394
263,093	4,622	222,841	115,441
264,107	4,464	222,558	115,166
265,122	4,407	222,449	115,056
266,136	4,782	222,441	115,322
267,151	4,383	222,361	114,973
268,166	4,254	221,926	114,642
269,180	3,917	221,872	114,353
270,195	4,202	221,602	114,415
271,209	4,065	221,438	114,219
272,224	4,161	221,430	114,276
273,239	4,134	221,467	114,265
274,253	4,064	221,168	114,048
275,268	4,070	220,853	113,880
276,282	3,714	220,716	113,536
277,297	3,760	220,761	113,583
278,312	3,809	220,629	113,541
279,326	3,898	220,592	113,578
280,341	4,185	220,268	113,613
281,355	4,375	220,124	113,669
282,370	4,103	219,953	113,370
283,384	4,020	219,816	113,228
284,399	3,951	219,588	113,049
285,414	3,830	219,573	112,942
286,428	4,273	219,508	113,224
287,443	4,042	219,429	113,004
288,457	4,238	219,235	113,038
289,472	4,081	219,003	112,794
290,487	3,586	218,699	112,265
291,501	3,718	218,571	112,285
292,516	3,986	218,723	112,550
293,530	4,024	218,420	112,412
294,545	3,815	218,269	112,171
295,560	4,024	218,198	112,277
296,574	4,253	218,154	112,411
297,589	4,134	218,016	112,243
298,603	4,175	217,861	112,183
299,618	4,053	217,650	111,976
300,633	4,194	217,611	112,048
301,647	4,289	217,602	112,103
302,662	4,496	217,342	112,109
303,676	4,332	217,128	111,870
304,691	4,285	217,160	111,843
305,706	4,298	216,999	111,759
306,720	4,382	216,765	111,689
307,735	4,230	216,499	111,432
308,749	3,707	216,552	111,072
309,764	4,277	216,400	111,396
310,779	4,323	216,269	111,352
311,793	4,290	216,178	111,271
312,808	4,460	215,868	111,224
313,822	4,384	215,691	111,068
314,837	4,250	215,535	110,881
315,852	4,170	215,461	110,776
316,866	4,033	215,377	110,624
317,881	4,316	215,217	110,735
318,895	4,323	215,140	110,691
319,910	4,203	214,972	110,509
320,925	4,040	214,640	110,211
321,939	3,532	214,478	109,755
322,954	3,683	214,297	109,761
323,968	4,297	214,456	110,271
324,983	4,047	214,467	110,088
325,997	4,219	214,231	110,080
327,012	4,147	214,053	109,928
328,027	4,126	213,940	109,845
329,041	4,450	213,797	109,993
330,056	4,554	213,681	109,997
331,070	3,966	213,555	109,504
332,085	3,839	213,276	109,261
333,100	4,030	213,084	109,289
334,114	4,018	213,095	109,275
335,129	4,134	212,930	109,264
336,143	4,021	212,693	109,053
337,158	3,999	212,490	108,923
338,173	3,991	212,463	108,894
339,187	3,966	212,283	108,774
340,202	3,769	212,150	108,556
341,216	3,702	212,019	108,433
342,231	3,961	211,838	108,514
343,246	3,846	211,870	108,439
344,260	3,881	211,673	108,353
345,275	3,788	211,468	108,173
346,289	4,157	211,398	108,387
347,304	4,171	211,325	108,350
348,319	4,158	211,171	108,252
349,333	3,988	210,998	108,035
350,348	3,957	210,837	107,920
351,362	4,316	210,780	108,133
352,377	4,313	210,655	108,058
353,392	4,170	210,524	107,881
354,406	4,068	210,414	107,743
355,421	194,879	1342,463	1432,223
356,435	155,603	1480,451	1432,290
