DTS Sentinel unit serial number:	SN410029Multiplexer serial number:	ORYXHardware model number:	OX2-SRSoftware version number:	ORYX F/W v4,00 Oryx Data Collector v3.7.2.0data status	okinstallation	B6 Nyhavnadifferential loss correction	single-endedforward channel	channel 2reverse channel	N/Adate	2023/12/10time	14:00:08forward acquisition time	300,00reverse acquisition time	0,00gamma	499,1914k internal	0,3122k external	0,3122temperature offset calibration	1,0000default loss term (dB/km)	0,3820temperature slope calibration	1,0000multiplexer offset coefficient	1,0000multiplexer slope coefficient	1,0000fibre end	0,00T internal ref (°C)	22,69T ext. ref 1 (°C)	6,21T ext. ref 2 (°C)	6,22length (m)	temperature (°C)	Stokes	anti-Stokes-744,400	800,000	-0,012	-0,035
-743,385	80,507	-0,171	0,137
-742,371	-200,000	-0,001	0,033
-741,356	13,913	-0,108	0,062
-740,342	167,555	0,068	0,072
-739,327	14,449	-0,268	0,156
-738,312	-200,000	0,012	-0,098
-737,298	123,491	-0,239	0,223
-736,283	-20,850	-0,153	-0,070
-735,269	116,289	-0,164	0,150
-734,254	-200,000	-0,013	0,151
-733,239	-108,558	-0,420	-0,067
-732,225	-54,727	0,119	-0,040
-731,210	-200,000	0,011	-0,041
-730,196	800,000	-0,069	-0,190
-729,181	11,576	0,046	-0,026
-728,167	800,000	-0,032	-0,104
-727,152	-200,000	0,001	-0,106
-726,137	-109,657	-0,108	-0,017
-725,123	-70,200	-0,092	0,026
-724,108	-140,493	-0,077	-0,006
-723,094	636,472	-0,087	-0,166
-722,079	64,003	-0,101	-0,076
-721,064	28,746	-0,133	-0,084
-720,050	216,418	0,116	0,138
-719,035	674,050	-0,023	-0,045
-718,021	-39,574	-0,100	0,039
-717,006	-105,110	-0,153	0,026
-715,991	537,948	-0,083	-0,148
-714,977	262,247	-0,094	-0,122
-713,962	139,882	-0,019	-0,019
-712,948	164,090	0,047	-0,049
-711,933	222,422	0,056	-0,067
-710,918	-200,000	0,024	-0,092
-709,904	-71,637	-0,144	0,040
-708,889	800,000	0,062	-0,169
-707,875	-200,000	-0,016	-0,154
-706,860	800,000	-0,017	-0,039
-705,845	407,584	-0,068	0,107
-704,831	446,728	0,027	0,044
-703,816	-92,239	0,056	-0,012
-702,802	-200,000	-0,006	0,037
-701,787	-200,000	-0,008	-0,110
-700,772	11,695	-0,044	0,025
-699,758	-118,136	0,022	0,003
-698,743	788,659	-0,054	0,111
-697,729	-200,000	-0,005	0,116
-696,714	527,954	0,065	-0,114
-695,699	97,869	0,109	-0,093
-694,685	800,000	0,021	0,051
-693,670	468,990	-0,119	-0,200
-692,656	800,000	0,022	-0,067
-691,641	-200,000	-0,005	0,149
-690,627	-68,582	0,050	-0,014
-689,612	-92,184	-0,104	0,022
-688,597	800,000	0,029	0,084
-687,583	58,431	0,051	-0,037
-686,568	526,126	-0,032	-0,056
-685,554	800,000	-0,066	-0,158
-684,539	86,795	-0,084	-0,069
-683,524	313,213	-0,003	-0,005
-682,510	264,550	-0,087	-0,113
-681,495	-200,000	0,039	-0,238
-680,481	139,466	0,033	-0,033
-679,466	76,629	-0,139	-0,110
-678,451	800,000	-0,027	-0,078
-677,437	174,433	-0,031	-0,033
-676,422	800,000	0,016	0,043
-675,408	-101,766	0,089	-0,016
-674,393	38,592	0,073	0,048
-673,378	-200,000	0,010	0,048
-672,364	-200,000	-0,034	0,121
-671,349	-162,242	-0,112	-0,004
-670,335	162,489	0,025	0,026
-669,320	-68,425	0,085	0,024
-668,305	-62,120	0,175	0,054
-667,291	22,481	-0,042	-0,025
-666,276	85,340	-0,109	0,089
-665,262	-71,186	0,117	-0,032
-664,247	131,542	0,067	-0,064
-663,232	800,000	-0,055	0,122
-662,218	46,802	0,048	0,033
-661,203	-200,000	-0,008	0,127
-660,189	74,153	-0,158	-0,123
-659,174	-200,000	-0,020	-0,107
-658,159	-106,455	0,079	0,013
-657,145	-181,786	0,122	-0,002
-656,130	37,516	-0,061	0,040
-655,116	-0,654	0,079	-0,042
-654,101	290,136	0,063	-0,085
-653,086	-200,000	-0,012	-0,088
-652,072	800,000	-0,035	-0,081
-651,057	197,036	0,073	-0,082
-650,043	-200,000	0,014	-0,061
-649,028	110,467	-0,093	0,083
-648,014	185,111	0,112	0,123
-646,999	180,879	0,068	-0,075
-645,984	-27,016	-0,124	-0,053
-644,970	67,909	-0,147	0,112
-643,955	-123,873	-0,061	0,007
-642,941	-102,148	-0,113	-0,020
-641,926	15,508	0,038	-0,022
-640,911	-200,000	-0,000	-0,040
-639,897	-114,733	0,031	0,004
-638,882	800,000	-0,025	-0,060
-637,868	-14,201	-0,121	-0,058
-636,853	312,736	0,086	-0,121
-635,838	800,000	-0,017	-0,038
-634,824	-200,000	0,003	-0,071
-633,809	-7,508	-0,024	-0,012
-632,795	338,526	0,029	-0,042
-631,780	-200,000	0,022	-0,083
-630,765	326,323	-0,030	-0,043
-629,751	800,000	-0,006	-0,014
-628,736	-200,000	0,031	-0,143
-627,722	-200,000	0,006	-0,143
-626,707	177,773	0,071	0,077
-625,692	162,271	0,138	0,144
-624,678	581,576	-0,020	-0,037
-623,663	-46,888	0,025	0,009
-622,649	-200,000	0,003	-0,013
-621,634	-28,984	0,080	-0,034
-620,619	269,742	-0,090	-0,118
-619,605	-77,492	0,049	0,013
-618,590	-69,564	0,026	0,007
-617,576	391,255	-0,026	0,041
-616,561	-180,259	-0,031	0,000
-615,546	113,541	0,104	-0,094
-614,532	416,956	0,005	0,008
-613,517	-200,000	-0,036	0,120
-612,503	-200,000	0,019	0,123
-611,488	22,856	0,097	0,059
-610,474	-200,000	-0,005	-0,117
-609,459	356,528	-0,057	0,085
-608,444	451,425	0,038	-0,063
-607,430	-200,000	0,037	-0,130
-606,415	108,046	0,027	-0,024
-605,401	119,659	0,084	0,077
-604,386	-109,487	0,129	0,020
-603,371	303,283	0,047	0,065
-602,357	23,633	-0,127	0,077
-601,342	238,791	0,052	-0,064
-600,328	-200,000	-0,008	-0,064
-599,313	161,176	0,026	0,027
-598,298	800,000	-0,069	-0,159
-597,284	-28,288	0,021	0,009
-596,269	-103,940	-0,159	-0,027
-595,255	214,851	-0,004	0,005
-594,240	25,173	-0,066	0,040
-593,225	-21,794	-0,061	-0,028
-592,211	-154,278	-0,069	0,003
-591,196	800,000	0,020	0,043
-590,182	800,000	-0,067	0,157
-589,167	413,762	0,047	0,075
-588,152	-78,876	-0,112	0,028
-587,138	15,630	0,036	0,021
-586,123	114,403	-0,102	-0,092
-585,109	-200,000	-0,014	-0,076
-584,094	147,524	-0,106	-0,106
-583,079	-42,113	0,093	0,035
-582,065	62,613	0,036	-0,027
-581,050	400,450	-0,061	0,096
-580,036	610,403	-0,060	0,112
-579,021	-35,571	-0,098	0,039
-578,006	-78,874	-0,078	0,020
-576,992	241,328	-0,069	-0,086
-575,977	-73,491	-0,066	0,018
-574,963	-106,834	0,021	-0,003
-573,948	35,664	-0,071	0,046
-572,934	58,746	-0,028	-0,020
-571,919	4,687	-0,073	-0,040
-570,904	147,690	0,083	0,083
-569,890	-200,000	-0,025	-0,108
-568,875	-200,000	0,019	0,107
-567,861	-67,526	0,093	0,027
-566,846	-200,000	-0,003	0,031
-565,831	-200,000	0,018	0,076
-564,817	-200,000	-0,007	-0,066
-563,802	-200,000	0,011	0,044
-562,788	-200,000	-0,003	-0,114
-561,773	-200,000	-0,003	0,048
-560,758	-12,927	0,076	-0,036
-559,744	-200,000	0,009	-0,146
-558,729	-200,000	0,012	-0,052
-557,715	33,524	-0,151	0,097
-556,700	-160,906	-0,173	-0,007
-555,685	-14,328	-0,074	0,035
-554,671	-42,838	0,112	-0,042
-553,656	-200,000	-0,024	-0,084
-552,642	117,412	-0,069	0,063
-551,627	194,070	-0,059	0,067
-550,612	-76,665	0,056	-0,014
-549,598	800,000	-0,039	-0,082
-548,583	210,415	-0,041	0,048
-547,569	50,804	-0,046	0,032
-546,554	156,470	0,083	0,084
-545,539	800,000	0,032	-0,104
-544,525	800,000	0,017	0,039
-543,510	-92,413	0,113	-0,023
-542,496	-200,000	-0,011	-0,230
-541,481	800,000	0,003	-0,011
-540,466	-200,000	0,022	-0,166
-539,452	73,876	-0,120	-0,093
-538,437	280,993	-0,074	0,099
-537,423	49,988	0,077	0,054
-536,408	68,646	-0,104	-0,079
-535,393	136,370	-0,028	-0,027
-534,379	-93,820	-0,096	-0,019
-533,364	2,290	-0,047	0,025
-532,350	800,000	-0,043	0,139
-531,335	-33,142	0,071	0,029
-530,321	-72,059	-0,099	-0,027
-529,306	166,661	-0,076	-0,080
-528,291	686,567	-0,037	-0,072
-527,277	800,000	0,030	0,063
-526,262	-200,000	0,007	-0,031
-525,248	142,083	0,180	-0,177
-524,233	315,571	0,061	0,085
-523,218	-85,857	0,063	-0,014
-522,204	40,039	-0,147	-0,098
-521,189	-200,000	0,014	-0,084
-520,175	800,000	-0,073	-0,153
-519,160	-200,000	-0,005	-0,055
-518,145	-200,000	0,013	-0,117
-517,131	-75,011	-0,056	0,015
-516,116	-200,000	0,021	0,130
-515,102	334,538	0,024	-0,035
-514,087	-12,873	-0,114	-0,055
-513,072	-13,034	0,112	-0,053
-512,058	168,184	-0,076	-0,080
-511,043	-200,000	0,016	-0,071
-510,029	661,207	-0,012	0,024
-509,014	274,822	0,026	-0,034
-507,999	800,000	-0,073	-0,207
-506,985	-117,010	-0,085	-0,011
-505,970	-156,902	0,076	-0,003
-504,956	800,000	-0,039	-0,124
-503,941	591,392	0,048	0,087
-502,926	404,158	0,027	-0,043
-501,912	-39,908	0,082	0,031
-500,897	-200,000	0,012	0,076
-499,883	38,971	0,038	-0,025
-498,868	800,000	0,050	-0,139
-497,853	-59,440	-0,130	-0,041
-496,839	372,299	0,079	-0,119
-495,824	520,222	-0,065	0,113
-494,810	59,116	0,092	0,067
-493,795	-126,128	0,078	0,008
-492,781	362,762	0,024	0,036
-491,766	138,328	-0,074	-0,071
-490,751	-200,000	0,000	-0,033
-489,737	-200,000	-0,014	0,129
-488,722	-50,500	0,074	0,026
-487,708	-69,453	0,034	-0,009
-486,693	-200,000	0,001	0,059
-485,678	272,760	0,047	0,062
-484,664	754,007	-0,059	0,117
-483,649	46,823	-0,020	0,014
-482,635	-119,549	0,024	0,003
-481,620	410,884	0,011	0,017
-480,605	-200,000	-0,008	0,064
-479,591	353,962	-0,083	0,121
-478,576	-176,688	0,109	-0,002
-477,562	31,403	0,122	0,077
-476,547	-81,623	-0,125	-0,030
-475,532	-200,000	-0,004	0,092
-474,518	800,000	0,017	0,046
-473,503	800,000	0,033	0,069
-472,489	601,617	0,010	0,019
-471,474	800,000	0,052	0,127
-470,459	106,541	-0,046	-0,040
-469,445	800,000	-0,007	-0,014
-468,430	-119,831	0,109	0,014
-467,416	-138,345	-0,099	-0,008
-466,401	150,623	-0,031	-0,031
-465,386	800,000	0,029	-0,074
-464,372	-200,000	0,018	0,170
-463,357	67,320	-0,004	-0,003
-462,343	56,644	-0,099	0,071
-461,328	113,167	0,015	-0,013
-460,313	63,862	-0,081	-0,060
-459,299	171,099	0,064	-0,068
-458,284	-111,879	-0,017	-0,002
-457,270	-146,167	0,105	-0,007
-456,255	-200,000	-0,003	-0,058
-455,241	-182,939	-0,098	0,001
-454,226	122,975	-0,062	-0,057
-453,211	57,335	0,050	0,036
-452,197	116,219	-0,055	0,050
-451,182	254,953	0,077	0,097
-450,168	83,040	0,059	0,047
-449,153	121,580	0,047	0,043
-448,138	-11,430	0,012	-0,006
-447,124	106,512	0,124	-0,109
-446,109	168,046	-0,088	0,092
-445,095	-200,000	-0,040	-0,155
-444,080	-200,000	0,015	0,073
-443,065	27,533	-0,091	-0,056
-442,051	-12,951	0,086	0,041
-441,036	-200,000	0,006	-0,113
-440,022	470,958	0,076	-0,127
-439,007	-64,791	0,043	0,013
-437,992	60,389	0,049	0,036
-436,978	547,391	-0,078	0,138
-435,963	-42,945	0,067	0,025
-434,949	-53,922	-0,058	-0,019
-433,934	800,000	-0,053	-0,129
-432,919	-200,000	-0,013	-0,099
-431,905	-21,885	0,098	0,044
-430,890	-27,363	-0,037	0,016
-429,876	-56,013	0,063	-0,021
-428,861	-142,745	0,059	0,004
-427,846	-120,858	0,026	0,003
-426,832	-200,000	0,017	-0,100
-425,817	-200,000	-0,020	-0,179
-424,803	-180,622	0,063	0,001
-423,788	253,911	-0,073	0,091
-422,773	800,000	-0,016	-0,033
-421,759	-105,328	0,149	-0,025
-420,744	236,734	-0,103	-0,126
-419,730	-108,045	-0,166	-0,026
-418,715	-200,000	0,026	-0,141
-417,701	-200,000	0,016	-0,239
-416,686	108,518	0,045	-0,039
-415,671	42,032	0,078	0,052
-414,657	29,560	0,048	-0,030
-413,642	800,000	-0,033	0,080
-412,628	-67,626	-0,135	-0,039
-411,613	367,674	-0,018	0,027
-410,598	-200,000	-0,005	-0,051
-409,584	-200,000	-0,021	0,116
-408,569	135,603	0,071	-0,068
-407,555	800,000	-0,009	-0,021
-406,540	102,168	0,041	0,035
-405,525	455,028	-0,043	0,070
-404,511	71,328	-0,058	0,044
-403,496	-200,000	0,011	-0,090
-402,482	603,520	-0,064	0,118
-401,467	800,000	-0,036	0,086
-400,452	-93,179	0,131	-0,026
-399,438	60,655	-0,152	-0,111
-398,423	171,298	0,053	-0,056
-397,409	-200,000	-0,001	-0,164
-396,394	-110,746	-0,110	0,016
-395,379	307,235	0,075	0,103
-394,365	800,000	-0,052	0,142
-393,350	-146,475	0,051	-0,003
-392,336	800,000	-0,021	0,043
-391,321	800,000	-0,002	-0,005
-390,306	-200,000	-0,007	-0,124
-389,292	151,283	0,077	0,077
-388,277	-200,000	0,006	0,109
-387,263	-45,512	-0,091	-0,033
-386,248	-200,000	0,039	0,174
-385,233	-165,780	0,123	0,004
-384,219	59,912	0,058	0,042
-383,204	59,188	-0,089	-0,064
-382,190	-200,000	0,030	-0,163
-381,175	-10,367	-0,055	-0,027
-380,160	220,611	-0,058	0,069
-379,146	123,160	0,094	0,087
-378,131	-45,715	0,015	0,005
-377,117	-29,630	-0,057	0,024
-376,102	104,264	0,049	0,042
-375,088	453,608	0,063	0,102
-374,073	800,000	-0,023	0,056
-373,058	114,129	-0,009	-0,008
-372,044	-14,613	0,056	0,026
-371,029	-200,000	0,003	0,085
-370,015	-93,493	-0,113	-0,023
-369,000	672,965	-0,030	-0,058
-367,985	249,000	-0,073	-0,091
-366,971	-200,000	-0,022	-0,082
-365,956	-68,436	-0,089	-0,025
-364,942	18,398	0,029	0,017
-363,927	126,331	0,063	0,059
-362,912	-50,758	0,024	0,008
-361,898	500,807	-0,049	0,084
-360,883	-200,000	0,002	-0,082
-359,869	66,101	0,052	0,039
-358,854	-85,568	0,040	0,009
-357,839	-127,449	0,109	0,012
-356,825	534,597	0,066	0,116
-355,810	-200,000	0,014	-0,075
-354,796	800,000	-0,022	-0,052
-353,781	440,010	0,053	-0,086
-352,766	800,000	-0,039	0,124
-351,752	800,000	0,042	0,113
-350,737	230,834	0,097	0,117
-349,723	34,716	-0,081	0,052
-348,708	-66,357	0,066	-0,019
-347,693	-200,000	0,004	-0,202
-346,679	37,633	-0,028	0,018
-345,664	199,979	-0,067	0,076
-344,650	675,569	-0,053	0,101
-343,635	-200,000	0,002	0,129
-342,620	-200,000	0,006	0,081
-341,606	-109,379	-0,070	-0,011
-340,591	-200,000	0,007	-0,051
-339,577	-200,000	-0,021	0,165
-338,562	148,917	-0,165	0,164
-337,548	-21,548	0,116	0,052
-336,533	800,000	0,099	0,226
-335,518	-200,000	-0,022	0,082
-334,504	800,000	0,019	0,058
-333,489	-7,412	-0,086	-0,042
-332,475	62,061	-0,124	-0,090
-331,460	-200,000	0,027	-0,098
-330,445	73,622	0,072	0,055
-329,431	-143,251	0,066	-0,005
-328,416	87,385	0,082	-0,067
-327,402	800,000	0,012	0,024
-326,387	246,224	-0,038	-0,047
-325,372	46,229	0,053	0,036
-324,358	-64,687	-0,040	-0,012
-323,343	-123,246	-0,027	0,003
-322,329	163,002	-0,024	-0,024
-321,314	800,000	0,043	0,107
-320,299	29,183	0,040	0,025
-319,285	-146,545	-0,032	0,002
-318,270	-32,322	-0,084	0,034
-317,256	216,309	-0,057	0,067
-316,241	15,875	0,035	0,020
-315,226	-72,454	0,147	-0,040
-314,212	-78,084	0,133	-0,033
-313,197	-141,717	0,019	0,001
-312,183	188,742	0,071	0,078
-311,168	800,000	-0,017	0,040
-310,153	-200,000	-0,009	0,036
-309,139	-140,348	-0,012	-0,001
-308,124	800,000	-0,014	0,039
-307,110	800,000	0,025	0,079
-306,095	159,750	-0,037	0,038
-305,080	1,101	-0,083	-0,043
-304,066	309,751	-0,028	-0,039
-303,051	-200,000	-0,013	-0,078
-302,037	-200,000	-0,019	-0,076
-301,022	-89,942	0,089	-0,019
-300,008	325,689	0,133	0,187
-298,993	-200,000	-0,004	0,218
-297,978	629,081	-0,035	0,065
-296,964	800,000	0,024	-0,070
-295,949	-200,000	-0,004	0,116
-294,935	800,000	-0,039	-0,114
-293,920	-91,547	0,151	-0,031
-292,905	27,653	0,092	-0,057
-291,891	40,378	-0,089	0,058
-290,876	395,872	0,014	-0,021
-289,862	-200,000	-0,002	0,057
-288,847	800,000	-0,047	-0,144
-287,832	-200,000	-0,001	-0,163
-286,818	112,986	-0,144	-0,128
-285,803	9,879	0,085	-0,047
-284,789	176,362	0,041	0,044
-283,774	183,240	0,105	0,114
-282,759	12,558	0,016	-0,009
-281,745	-200,000	0,014	0,073
-280,730	800,000	-0,015	-0,037
-279,716	800,000	-0,028	0,060
-278,701	-200,000	0,018	0,067
-277,686	13,238	0,105	-0,060
-276,672	27,257	-0,094	-0,058
-275,657	-200,000	-0,010	0,051
-274,643	800,000	0,083	-0,179
-273,628	-200,000	-0,007	-0,153
-272,613	16,258	0,033	-0,019
-271,599	727,624	0,052	0,102
-270,584	-200,000	0,005	-0,083
-269,570	-200,000	0,013	0,049
-268,555	21,797	-0,011	0,007
-267,540	800,000	-0,036	-0,103
-266,526	705,380	-0,039	-0,075
-265,511	71,052	0,053	-0,040
-264,497	-200,000	0,010	-0,104
-263,482	7,664	-0,082	-0,045
-262,467	-135,104	0,047	0,004
-261,453	-200,000	0,001	-0,084
-260,438	800,000	-0,047	-0,116
-259,424	-200,000	-0,011	-0,094
-258,409	-200,000	0,008	-0,076
-257,395	800,000	-0,029	-0,077
-256,380	-85,750	0,078	0,018
-255,365	-73,777	0,173	-0,046
-254,351	355,500	-0,030	-0,044
-253,336	-115,492	-0,125	-0,017
-252,322	237,062	-0,027	-0,032
-251,307	248,315	-0,064	-0,079
-250,292	-3,696	-0,086	-0,043
-249,278	-125,466	0,166	0,018
-248,263	15,286	0,069	0,040
-247,249	800,000	0,049	0,113
-246,234	-200,000	-0,017	0,060
-245,219	800,000	0,032	-0,073
-244,205	121,012	0,066	0,060
-243,190	-200,000	-0,025	0,107
-242,176	55,997	0,052	0,037
-241,161	-172,874	0,037	-0,001
-240,146	433,187	-0,061	0,097
-239,132	281,679	0,054	-0,070
-238,117	530,749	0,029	-0,050
-237,103	3,221	0,054	-0,029
-236,088	-200,000	-0,009	0,068
-235,073	800,000	0,037	-0,112
-234,059	-200,000	-0,015	0,122
-233,044	-200,000	0,015	-0,053
-232,030	-200,000	0,020	-0,150
-231,015	387,378	-0,011	0,016
-230,000	800,000	-0,008	0,023
-228,986	-109,322	-0,124	0,019
-227,971	-200,000	0,026	0,167
-226,957	-102,307	0,043	0,007
-225,942	181,464	0,049	-0,053
-224,927	800,000	-0,007	0,018
-223,913	-32,831	-0,118	-0,048
-222,898	800,000	-0,040	0,093
-221,884	-200,000	-0,008	-0,038
-220,869	-53,934	0,090	-0,030
-219,855	247,032	-0,047	0,058
-218,840	-96,493	0,109	-0,021
-217,825	-84,507	-0,030	0,007
-216,811	17,394	-0,042	0,025
-215,796	25,334	-0,119	0,072
-214,782	800,000	-0,051	0,116
-213,767	343,239	0,068	-0,098
-212,752	105,433	-0,122	0,106
-211,738	-200,000	-0,005	0,118
-210,723	-200,000	-0,008	0,146
-209,709	226,581	-0,022	0,026
-208,694	-200,000	0,016	-0,089
-207,679	115,446	0,017	0,015
-206,665	-200,000	0,028	0,102
-205,650	-200,000	-0,011	0,199
-204,636	-200,000	0,031	0,153
-203,621	-31,771	-0,023	-0,009
-202,606	-181,083	-0,071	0,001
-201,592	-200,000	-0,016	-0,094
-200,577	474,210	0,038	-0,063
-199,563	-19,194	-0,068	0,031
-198,548	141,497	0,019	0,018
-197,533	7,502	0,100	0,054
-196,519	63,818	-0,150	-0,110
-195,504	-37,445	0,070	0,027
-194,490	250,239	-0,039	0,048
-193,475	-109,134	-0,016	-0,002
-192,460	-200,000	0,010	-0,038
-191,446	440,441	0,039	-0,062
-190,431	169,144	0,034	0,035
-189,417	-62,510	0,051	0,015
-188,402	321,161	-0,042	0,058
-187,387	-96,306	-0,104	0,020
-186,373	259,477	0,109	-0,137
-185,358	-150,386	0,067	-0,004
-184,344	-70,699	0,088	0,024
-183,329	6,171	0,121	-0,065
-182,315	349,329	0,028	0,040
-181,300	-200,000	-0,029	0,195
-180,285	-41,489	0,031	0,012
-179,271	-139,424	-0,061	-0,005
-178,256	-106,665	-0,097	-0,016
-177,242	-200,000	-0,010	0,130
-176,227	-200,000	-0,011	-0,066
-175,212	352,020	0,043	0,062
-174,198	135,399	-0,033	0,031
-173,183	242,190	-0,026	-0,031
-172,169	-45,182	-0,080	-0,029
-171,154	163,151	-0,027	0,027
-170,139	800,000	0,063	0,137
-169,125	-94,034	0,081	0,016
-168,110	-200,000	-0,009	0,100
-167,096	6,467	-0,122	-0,066
-166,081	-135,729	0,164	-0,014
-165,066	-200,000	-0,013	-0,051
-164,052	-166,234	-0,033	0,001
-163,037	-200,000	-0,003	0,068
-162,023	-200,000	0,002	0,043
-161,008	-200,000	0,029	0,113
-159,993	85,073	-0,054	-0,043
-158,979	800,000	-0,046	-0,109
-157,964	-200,000	-0,004	0,049
-156,950	-200,000	0,004	0,056
-155,935	275,217	0,060	-0,078
-154,920	-200,000	-0,012	-0,096
-153,906	-65,025	0,029	-0,008
-152,891	559,284	0,013	-0,023
-151,877	-17,598	0,088	-0,040
-150,862	42,656	0,043	-0,028
-149,847	-200,000	-0,007	-0,093
-148,833	-34,217	-0,036	-0,015
-147,818	164,929	0,068	-0,070
-146,804	84,773	-0,059	0,047
-145,789	23,346	0,086	0,051
-144,775	100,409	-0,059	0,050
-143,760	-102,905	0,099	-0,017
-142,745	152,670	0,060	-0,060
-141,731	135,860	-0,094	0,089
-140,716	-61,711	0,128	0,039
-139,702	-78,576	0,066	0,016
-138,687	250,189	-0,051	0,063
-137,672	50,413	-0,086	0,059
-136,658	-200,000	-0,005	0,029
-135,643	-48,454	0,037	-0,013
-134,629	-200,000	0,013	0,142
-133,614	-112,348	-0,028	0,004
-132,599	46,286	0,045	0,030
-131,585	-200,000	-0,008	-0,033
-130,570	601,390	0,053	0,097
-129,556	-200,000	-0,007	-0,066
-128,541	-200,000	-0,007	-0,040
-127,526	-74,219	0,146	-0,038
-126,512	223,967	0,011	-0,013
-125,497	-200,000	0,023	0,109
-124,483	-200,000	-0,005	-0,034
-123,468	-200,000	-0,005	0,041
-122,453	-165,306	0,023	0,001
-121,439	-77,018	-0,112	-0,028
-120,424	271,886	0,072	-0,092
-119,410	316,078	0,067	-0,092
-118,395	512,054	0,083	0,141
-117,380	-144,677	0,202	0,013
-116,366	-79,009	-0,110	-0,027
-115,351	-18,457	0,035	0,016
-114,337	-85,619	-0,124	-0,028
-113,322	698,582	0,015	0,029
-112,307	-200,000	0,027	0,088
-111,293	-200,000	0,013	0,098
-110,278	522,566	0,026	-0,044
-109,264	614,720	-0,041	-0,076
-108,249	-73,638	-0,049	-0,013
-107,234	348,821	-0,052	-0,075
-106,220	800,000	-0,027	-0,071
-105,205	800,000	-0,024	-0,069
-104,191	-76,589	0,097	0,025
-103,176	131,508	0,070	0,065
-102,162	-9,469	0,227	0,110
-101,147	-106,170	-0,161	-0,026
-100,132	374,977	-0,021	-0,032
-99,118	800,000	0,007	0,014
-98,103	800,000	0,027	-0,068
-97,089	-200,000	0,028	-0,131
-96,074	-11,565	0,095	-0,045
-95,059	-200,000	-0,013	0,100
-94,045	-200,000	0,017	-0,095
-93,030	149,035	0,093	0,091
-92,016	496,181	-0,027	-0,046
-91,001	-200,000	-0,006	-0,036
-89,986	12,267	0,100	-0,056
-88,972	-10,162	0,025	-0,012
-87,957	336,560	-0,055	0,078
-86,943	475,126	0,094	-0,154
-85,928	-116,838	0,049	-0,006
-84,913	800,000	-0,023	0,063
-83,899	375,700	-0,034	-0,050
-82,884	130,169	0,066	-0,062
-81,870	673,316	-0,008	0,015
-80,855	-76,310	0,115	0,029
-79,840	281,069	0,104	-0,136
-78,826	64,295	0,049	0,036
-77,811	47,976	0,041	-0,028
-76,797	-46,387	0,046	-0,016
-75,782	252,921	-0,020	0,025
-74,767	-128,738	0,043	-0,004
-73,753	493,059	-0,050	0,084
-72,738	-200,000	-0,013	0,090
-71,724	164,148	-0,085	-0,087
-70,709	270,761	-0,017	0,022
-69,694	31,582	0,129	0,080
-68,680	-81,603	0,120	0,028
-67,665	313,479	0,050	-0,069
-66,651	-22,622	-0,006	-0,002
-65,636	800,000	0,011	-0,027
-64,622	-200,000	0,006	0,089
-63,607	-2,831	-0,068	-0,034
-62,592	46,943	0,062	0,042
-61,578	424,461	0,068	-0,106
-60,563	-200,000	0,028	-0,137
-59,549	-200,000	-0,009	0,145
-58,534	-112,863	-1,207	-0,172
-57,519	412,573	-0,902	-1,396
-56,505	-200,000	-0,897	-4,516
-55,490	30,807	0,661	-0,410
-54,476	800,000	4,837	11,930
-53,461	-200,000	13,432	253,083
-52,446	-200,000	688,494	2272,020
-51,432	598,311	1622,860	2932,780
-50,417	121,035	1636,722	1478,234
-49,403	73,597	1290,893	980,389
-48,388	38,457	1025,705	662,226
-47,373	24,626	982,819	589,014
-46,359	23,881	972,634	580,440
-45,344	22,935	968,420	574,808
-44,330	22,889	967,030	573,810
-43,315	22,780	965,587	572,576
-42,300	22,720	964,549	571,742
-41,286	22,696	963,880	571,245
-40,271	22,698	962,823	570,602
-39,257	22,719	961,650	569,952
-38,242	22,687	960,868	569,362
-37,227	22,629	960,183	568,744
-36,213	22,635	959,191	568,153
-35,198	22,627	958,217	567,527
-34,184	22,673	957,826	567,424
-33,169	22,603	956,903	566,628
-32,154	22,810	955,643	566,528
-31,140	22,739	954,927	565,853
-30,125	22,729	954,327	565,442
-29,111	22,788	953,108	564,888
-28,096	22,674	952,711	564,263
-27,082	22,735	951,933	563,976
-26,067	22,759	951,038	563,499
-25,052	22,736	950,522	563,099
-24,038	22,748	949,822	562,698
-23,023	22,732	949,147	562,225
-22,009	22,781	948,466	561,958
-20,994	22,771	947,775	561,494
-19,979	22,767	947,151	561,088
-18,965	22,776	946,621	560,783
-17,950	22,697	946,059	560,172
-16,936	22,730	945,209	559,755
-15,921	22,676	944,591	559,193
-14,906	22,621	943,889	558,581
-13,892	22,682	943,277	558,391
-12,877	22,597	942,701	557,754
-11,863	22,553	941,942	557,144
-10,848	22,573	941,570	556,967
-9,833	22,721	941,187	557,188
-8,819	22,679	940,513	556,633
-7,804	22,616	939,859	556,026
-6,790	22,638	939,373	555,783
-5,775	22,627	938,697	555,328
-4,760	22,704	938,074	555,181
-3,746	22,646	937,306	554,520
-2,731	22,517	936,707	553,738
-1,717	22,403	936,023	552,949
-0,702	22,390	935,471	552,561
0,313	22,171	934,757	552,283
1,327	25,448	932,603	561,277
2,342	35,255	797,163	505,914
3,356	33,318	451,979	283,900
4,371	1,874	293,479	153,005
5,386	-2,527	274,132	138,750
6,400	-4,316	268,377	134,168
7,415	-4,683	265,940	132,600
8,429	-4,317	264,707	132,308
9,444	-4,358	263,806	131,809
10,459	-4,419	263,322	131,500
11,473	-4,433	262,606	131,118
12,488	-4,646	262,210	130,716
13,502	-4,668	261,615	130,388
14,517	-4,599	261,259	130,260
15,531	-4,392	260,889	130,251
16,546	-4,244	260,465	130,161
17,561	-4,223	260,120	129,996
18,575	-4,323	259,914	129,792
19,590	-4,359	259,412	129,497
20,604	-4,246	259,293	129,526
21,619	-4,320	258,997	129,301
22,634	-4,366	258,504	129,002
23,648	-4,437	258,183	128,768
24,663	-4,656	258,007	128,474
25,677	-4,480	257,742	128,487
26,692	-4,277	257,476	128,523
27,707	-4,435	257,381	128,323
28,721	-4,463	256,962	128,078
29,736	-4,399	256,604	127,945
30,750	-4,582	256,671	127,806
31,765	-4,414	256,221	127,718
32,780	-4,662	256,088	127,422
33,794	-4,410	255,730	127,454
34,809	-4,568	255,705	127,291
35,823	-4,322	255,299	127,294
36,838	-4,575	255,124	126,974
37,853	-4,292	254,736	127,017
38,867	-4,677	254,658	126,629
39,882	-4,565	254,551	126,663
40,896	-4,443	254,254	126,611
41,911	-4,534	253,849	126,319
42,926	-4,412	253,723	126,351
43,940	-4,520	253,452	126,111
44,955	-4,630	253,260	125,908
45,969	-4,603	253,044	125,813
46,984	-4,890	252,687	125,374
47,999	-4,928	252,438	125,207
49,013	-5,158	252,311	124,933
50,028	-5,346	252,328	124,767
51,042	-5,434	251,695	124,366
52,057	-5,322	251,513	124,363
53,071	-5,320	251,398	124,296
54,086	-5,188	251,241	124,321
55,101	-4,961	250,981	124,378
56,115	-4,921	250,948	124,385
57,130	-4,490	251,021	124,782
58,144	-4,235	250,661	124,812
59,159	-4,139	250,520	124,813
60,174	-4,279	250,325	124,584
61,188	-4,414	250,082	124,336
62,203	-4,390	249,841	124,225
63,217	-4,216	249,551	124,220
64,232	-4,543	249,467	123,887
65,247	-4,341	249,196	123,914
66,261	-4,219	248,932	123,876
67,276	-4,535	248,721	123,489
68,290	-4,646	248,444	123,247
69,305	-4,747	248,038	122,948
70,320	-4,974	248,095	122,772
71,334	-4,708	248,008	122,945
72,349	-4,178	247,751	123,257
73,363	-4,318	247,665	123,084
74,378	-4,374	247,579	122,983
75,393	-4,379	247,253	122,806
76,407	-4,428	247,085	122,669
77,422	-4,352	246,853	122,608
78,436	-4,386	246,719	122,502
79,451	-4,324	246,424	122,397
80,466	-4,684	246,164	121,953
81,480	-4,520	245,935	121,966
82,495	-4,625	245,764	121,782
83,509	-4,794	245,646	121,571
84,524	-4,554	245,400	121,641
85,539	-4,880	245,125	121,219
86,553	-4,676	244,942	121,289
87,568	-4,720	244,756	121,149
88,582	-4,674	244,576	121,088
89,597	-4,672	244,547	121,064
90,611	-4,586	244,363	121,034
91,626	-4,372	244,108	121,076
92,641	-4,167	243,861	121,114
93,655	-4,551	243,772	120,739
94,670	-4,423	243,456	120,678
95,684	-4,673	243,423	120,443
96,699	-4,615	243,076	120,309
97,714	-4,678	242,838	120,128
98,728	-4,892	242,801	119,920
99,743	-4,846	242,622	119,860
100,757	-4,794	242,373	119,770
101,772	-4,865	242,177	119,603
102,787	-4,577	242,060	119,773
103,801	-4,434	241,831	119,767
104,816	-4,500	241,773	119,674
105,830	-4,558	241,658	119,558
106,845	-4,342	241,495	119,645
107,860	-4,545	241,171	119,307
108,874	-4,632	240,944	119,112
109,889	-4,571	240,880	119,120
110,903	-4,578	240,619	118,974
111,918	-4,621	240,357	118,799
112,933	-4,771	240,365	118,669
113,947	-4,378	240,017	118,809
114,962	-4,352	240,123	118,872
115,976	-4,410	239,768	118,639
116,991	-4,338	239,569	118,588
118,006	-4,420	239,439	118,446
119,020	-4,421	239,412	118,421
120,035	-4,430	239,163	118,280
121,049	-4,410	239,122	118,266
122,064	-4,329	238,759	118,142
123,079	-4,609	238,626	117,837
124,093	-4,434	238,306	117,811
125,108	-4,617	238,275	117,636
126,122	-4,872	237,975	117,270
127,137	-5,039	237,992	117,132
128,151	-4,968	237,803	117,087
129,166	-4,769	237,419	117,049
130,181	-4,849	237,216	116,873
131,195	-4,741	237,090	116,888
132,210	-4,712	237,046	116,879
133,224	-4,485	236,833	116,948
134,239	-4,598	236,679	116,770
135,254	-4,288	236,371	116,858
136,268	-4,628	236,339	116,557
137,283	-4,748	236,015	116,290
138,297	-4,880	235,613	115,975
139,312	-5,005	235,643	115,879
140,327	-4,526	235,534	116,201
141,341	-4,357	235,593	116,356
142,356	-4,177	235,523	116,454
143,370	-4,008	235,195	116,418
144,385	-4,149	235,169	116,282
145,400	-4,144	234,924	116,154
146,414	-4,075	234,747	116,112
147,429	-4,231	234,567	115,888
148,443	-4,357	234,394	115,690
149,458	-4,352	234,301	115,639
150,473	-4,153	234,040	115,658
151,487	-4,335	233,962	115,465
152,502	-4,346	233,780	115,355
153,516	-4,233	233,577	115,335
154,531	-4,408	233,472	115,134
155,546	-4,028	233,232	115,307
156,560	-4,197	233,018	115,057
157,575	-4,433	232,920	114,811
158,589	-4,551	232,680	114,589
159,604	-4,322	232,625	114,733
160,619	-3,986	232,445	114,900
161,633	-3,908	232,174	114,818
162,648	-4,186	232,209	114,604
163,662	-4,294	232,049	114,430
164,677	-4,128	231,876	114,465
165,692	-4,168	231,740	114,357
166,706	-4,038	231,539	114,350
167,721	-4,045	231,354	114,243
168,735	-4,029	231,252	114,195
169,750	-4,202	231,077	113,962
170,764	-4,235	230,871	113,824
171,779	-4,144	230,749	113,826
172,794	-3,885	230,524	113,907
173,808	-4,265	230,397	113,537
174,823	-4,729	230,117	113,026
175,837	-4,967	230,024	112,783
176,852	-4,530	229,913	113,060
177,867	-4,106	229,710	113,282
178,881	-3,994	229,683	113,346
179,896	-4,216	229,474	113,060
180,910	-4,071	229,269	113,062
181,925	-4,018	229,186	113,052
182,940	-4,034	228,982	112,929
183,954	-3,980	228,962	112,951
184,969	-4,098	228,855	112,796
185,983	-4,074	228,798	112,776
186,998	-3,894	228,537	112,778
188,013	-3,869	228,361	112,700
189,027	-4,177	228,142	112,343
190,042	-3,994	228,129	112,468
191,056	-3,973	227,760	112,293
192,071	-4,194	227,739	112,102
193,086	-4,102	227,615	112,102
194,100	-4,073	227,331	111,974
195,115	-4,488	226,956	111,460
196,129	-5,469	226,642	110,540
197,144	-2,030	227,646	113,678
198,159	2,066	228,977	117,508
199,173	3,962	229,322	119,144
200,188	4,253	229,162	119,276
201,202	4,281	229,040	119,223
202,217	4,438	228,903	119,262
203,232	4,943	228,835	119,607
204,246	4,599	228,703	119,261
205,261	4,849	228,524	119,350
206,275	4,864	228,480	119,328
207,290	5,176	228,220	119,422
208,304	4,922	228,148	119,178
209,319	4,936	228,054	119,129
210,334	4,855	227,828	118,938
211,348	4,435	227,515	118,441
212,363	4,252	227,153	118,103
213,377	3,953	227,067	117,818
214,392	3,940	226,961	117,744
215,407	4,147	226,929	117,874
216,421	4,045	226,813	117,725
217,436	3,835	226,551	117,419
218,450	3,634	226,349	117,150
219,465	3,707	226,193	117,114
220,480	3,846	226,008	117,115
221,494	3,531	225,849	116,782
222,509	3,932	225,856	117,080
223,523	4,020	225,625	117,017
224,538	4,078	225,420	116,944
225,553	3,996	225,332	116,826
226,567	4,272	225,181	116,947
227,582	4,287	225,208	116,961
228,596	4,544	225,083	117,081
229,611	4,290	224,880	116,772
230,626	3,970	224,656	116,403
231,640	3,832	224,516	116,216
232,655	4,378	224,295	116,504
233,669	4,623	224,315	116,689
234,684	4,469	224,226	116,517
235,699	4,577	223,926	116,431
236,713	4,011	223,867	115,963
237,728	4,194	223,626	115,966
238,742	4,038	223,335	115,688
239,757	3,924	223,283	115,565
240,772	3,893	223,146	115,460
241,786	3,962	223,101	115,479
242,801	4,352	222,807	115,608
243,815	4,450	222,683	115,608
244,830	4,378	222,787	115,597
245,844	4,016	222,626	115,232
246,859	4,110	222,342	115,145
247,874	4,191	222,251	115,148
248,888	4,452	221,998	115,201
249,903	4,274	221,911	115,013
250,917	4,178	221,758	114,852
251,932	4,210	221,625	114,797
252,947	3,896	221,454	114,464
253,961	3,826	221,284	114,315
254,976	3,946	221,120	114,309
255,990	4,127	221,112	114,429
257,005	4,328	220,960	114,489
258,020	4,227	220,877	114,361
259,034	4,506	220,874	114,556
260,049	4,239	220,662	114,238
261,063	4,381	220,399	114,197
262,078	4,245	220,341	114,056
263,093	4,473	220,127	114,104
264,107	4,369	220,067	113,985
265,122	4,525	219,852	113,979
266,136	4,621	219,846	114,037
267,151	4,684	219,473	113,879
268,166	4,157	219,347	113,416
269,180	3,694	219,147	112,962
270,195	3,704	218,974	112,871
271,209	3,890	218,803	112,908
272,224	3,971	218,720	112,915
273,239	4,231	218,617	113,042
274,253	4,080	218,470	112,846
275,268	3,901	218,245	112,588
276,282	3,870	218,010	112,435
277,297	3,661	217,881	112,205
278,312	3,920	217,744	112,314
279,326	4,013	217,742	112,370
280,341	3,868	217,632	112,197
281,355	4,002	217,406	112,169
282,370	3,867	217,403	112,059
283,384	3,777	217,112	111,833
284,399	3,734	216,963	111,716
285,414	3,701	216,780	111,587
286,428	3,983	216,789	111,787
287,443	4,289	216,664	111,935
288,457	4,285	216,529	111,852
289,472	4,010	216,397	111,574
290,487	3,449	216,056	110,983
291,501	3,641	215,953	111,058
292,516	3,842	215,850	111,141
293,530	3,820	215,693	111,035
294,545	3,606	215,624	110,834
295,560	3,800	215,511	110,907
296,574	3,920	215,393	110,923
297,589	4,170	215,141	110,963
298,603	4,193	215,084	110,940
299,618	4,097	214,952	110,794
300,633	4,176	214,808	110,766
301,647	4,507	214,816	110,998
302,662	4,370	214,762	110,862
303,676	4,437	214,481	110,755
304,691	4,339	214,334	110,599
305,706	4,419	214,140	110,546
306,720	4,255	214,180	110,439
307,735	4,312	213,931	110,342
308,749	3,976	213,708	109,978
309,764	4,099	213,683	110,042
310,779	4,375	213,517	110,144
311,793	4,424	213,374	110,096
312,808	4,184	213,298	109,875
313,822	4,362	213,014	109,846
314,837	4,059	212,973	109,600
315,852	4,001	212,761	109,439
316,866	4,168	212,520	109,424
317,881	4,259	212,535	109,487
318,895	4,527	212,480	109,639
319,910	4,027	212,227	109,144
320,925	3,898	212,113	108,985
321,939	3,480	211,881	108,559
322,954	3,738	211,745	108,662
323,968	4,125	211,738	108,923
324,983	4,132	211,622	108,859
325,997	4,352	211,506	108,945
327,012	4,023	211,431	108,664
328,027	4,264	211,211	108,711
329,041	4,387	211,184	108,774
330,056	4,367	211,026	108,669
331,070	3,848	210,877	108,217
332,085	3,765	210,647	108,031
333,100	3,753	210,537	107,957
334,114	3,902	210,262	107,911
335,129	4,216	210,209	108,094
336,143	3,819	210,041	107,720
337,158	3,837	209,990	107,697
338,173	4,106	209,813	107,784
339,187	3,474	209,800	107,326
340,202	3,864	209,380	107,374
341,216	3,806	209,218	107,241
342,231	3,898	209,180	107,276
343,246	3,726	209,090	107,101
344,260	3,916	208,928	107,140
345,275	3,753	208,966	107,037
346,289	4,171	208,735	107,199
347,304	4,137	208,717	107,157
348,319	4,197	208,432	107,043
349,333	4,022	208,324	106,857
350,348	4,222	208,174	106,909
351,362	4,271	208,201	106,946
352,377	4,106	208,122	106,782
353,392	4,119	207,869	106,652
354,406	3,995	207,823	106,533
355,421	192,823	1346,159	1431,666
356,435	153,789	1484,956	1431,804
