DTS Sentinel unit serial number:	SN410029Multiplexer serial number:	ORYXHardware model number:	OX2-SRSoftware version number:	ORYX F/W v4,00 Oryx Data Collector v3.7.2.0data status	okinstallation	B6 Nyhavnadifferential loss correction	single-endedforward channel	channel 2reverse channel	N/Adate	2023/12/10time	15:20:08forward acquisition time	300,00reverse acquisition time	0,00gamma	499,1914k internal	0,3122k external	0,3122temperature offset calibration	1,0000default loss term (dB/km)	0,3820temperature slope calibration	1,0000multiplexer offset coefficient	1,0000multiplexer slope coefficient	1,0000fibre end	0,00T internal ref (°C)	22,45T ext. ref 1 (°C)	5,92T ext. ref 2 (°C)	5,93length (m)	temperature (°C)	Stokes	anti-Stokes-744,400	170,391	0,145	-0,155
-743,385	-166,073	-0,256	0,008
-742,371	-200,000	0,017	-0,088
-741,356	190,965	-0,100	0,113
-740,342	-40,170	0,089	-0,034
-739,327	106,985	-0,136	0,121
-738,312	47,537	-0,025	0,018
-737,298	-116,435	-0,197	0,027
-736,283	-142,444	0,222	0,016
-735,269	-27,219	-0,227	0,098
-734,254	-64,971	0,183	-0,055
-733,239	-109,748	-0,464	-0,072
-732,225	-200,000	-0,005	-0,170
-731,210	-200,000	0,008	-0,039
-730,196	-200,000	-0,084	0,000
-729,181	-13,760	-0,118	-0,057
-728,167	-166,259	0,043	-0,001
-727,152	-13,019	0,166	0,080
-726,137	-43,100	-0,012	0,004
-725,123	-200,000	0,001	-0,090
-724,108	-70,781	-0,048	0,013
-723,094	28,811	0,171	-0,108
-722,079	269,650	-0,113	-0,148
-721,064	800,000	0,027	0,062
-720,050	143,022	0,097	-0,096
-719,035	-200,000	0,011	-0,055
-718,021	276,924	0,049	0,065
-717,006	-200,000	-0,036	-0,213
-715,991	-200,000	-0,018	-0,115
-714,977	-6,534	0,046	-0,023
-713,962	-145,953	0,064	-0,004
-712,948	-5,863	-0,086	-0,044
-711,933	-7,415	0,042	0,021
-710,918	667,583	-0,040	0,077
-709,904	800,000	0,040	-0,117
-708,889	88,244	-0,066	-0,055
-707,875	201,266	-0,082	-0,094
-706,860	800,000	0,021	0,050
-705,845	-9,361	0,025	0,012
-704,831	-77,833	0,042	-0,011
-703,816	800,000	-0,008	0,022
-702,802	-200,000	-0,023	0,122
-701,787	418,264	0,021	0,034
-700,772	-27,268	-0,028	0,012
-699,758	-200,000	0,015	-0,083
-698,743	-9,894	-0,080	0,040
-697,729	458,886	0,052	-0,087
-696,714	406,820	0,034	0,053
-695,699	800,000	-0,046	0,123
-694,685	800,000	0,003	-0,009
-693,670	261,843	0,027	0,035
-692,656	800,000	0,042	-0,123
-691,641	-200,000	0,002	-0,042
-690,627	246,040	-0,066	0,083
-689,612	-158,647	-0,076	0,003
-688,597	5,932	-0,025	-0,014
-687,583	36,663	-0,064	-0,042
-686,568	-35,515	0,029	-0,012
-685,554	114,665	0,039	-0,036
-684,539	-63,893	0,135	-0,041
-683,524	45,413	-0,011	-0,008
-682,510	-48,805	-0,053	-0,019
-681,495	304,644	-0,096	-0,133
-680,481	-200,000	-0,004	-0,076
-679,466	800,000	-0,049	-0,114
-678,451	408,980	0,036	-0,058
-677,437	-200,000	-0,016	-0,064
-676,422	61,964	0,050	-0,037
-675,408	-135,902	-0,062	0,005
-674,393	-158,840	0,114	-0,005
-673,378	-8,952	-0,129	-0,064
-672,364	-68,351	0,066	0,019
-671,349	-200,000	-0,002	-0,180
-670,335	-124,947	0,062	0,007
-669,320	143,850	-0,068	-0,068
-668,305	741,229	-0,014	0,028
-667,291	617,791	-0,060	-0,113
-666,276	-37,307	-0,246	-0,097
-665,262	-36,281	-0,152	0,061
-664,247	-200,000	-0,006	-0,060
-663,232	-200,000	-0,003	-0,044
-662,218	-184,483	-0,035	0,000
-661,203	-200,000	0,019	0,076
-660,189	6,218	0,051	-0,028
-659,174	-200,000	-0,035	-0,151
-658,159	-200,000	0,024	0,112
-657,145	-107,804	0,047	-0,008
-656,130	-200,000	-0,024	0,082
-655,116	-95,890	0,125	-0,024
-654,101	-1,055	0,058	-0,031
-653,086	-112,401	-0,211	0,031
-652,072	650,676	0,020	0,037
-651,057	27,516	-0,069	-0,043
-650,043	146,221	0,061	-0,061
-649,028	50,667	-0,041	-0,029
-648,014	-57,401	0,121	-0,039
-646,999	800,000	0,047	0,115
-645,984	48,419	0,033	0,023
-644,970	-122,278	-0,064	0,008
-643,955	-11,625	-0,058	0,028
-642,941	-200,000	-0,003	0,026
-641,926	160,958	-0,074	0,077
-640,911	299,265	-0,017	0,023
-639,897	-200,000	0,011	-0,187
-638,882	353,713	-0,064	-0,095
-637,868	2,183	-0,032	-0,017
-636,853	-130,968	-0,061	0,006
-635,838	591,509	0,074	-0,136
-634,824	-200,000	-0,038	-0,125
-633,809	69,677	-0,043	0,033
-632,795	212,922	0,054	-0,064
-631,780	575,397	-0,058	-0,106
-630,765	-200,000	-0,019	0,062
-629,751	-128,937	-0,106	0,011
-628,736	-200,000	-0,020	-0,068
-627,722	800,000	0,041	-0,126
-626,707	331,242	-0,028	-0,041
-625,692	-200,000	0,009	0,089
-624,678	-11,288	-0,020	-0,010
-623,663	-200,000	-0,026	-0,141
-622,649	800,000	0,058	-0,130
-621,634	98,680	0,081	0,069
-620,619	-0,672	-0,062	-0,032
-619,605	-13,788	0,114	-0,054
-618,590	72,438	0,022	-0,017
-617,576	118,107	-0,103	0,094
-616,561	23,458	0,067	-0,041
-615,546	91,362	-0,086	0,072
-614,532	-156,743	0,143	0,006
-613,517	8,566	-0,119	-0,067
-612,503	-200,000	-0,008	0,067
-611,488	72,206	0,029	-0,022
-610,474	800,000	-0,023	-0,050
-609,459	66,729	0,075	-0,057
-608,444	-134,101	-0,077	0,007
-607,430	651,438	0,020	0,039
-606,415	-200,000	-0,015	-0,056
-605,401	-54,657	0,094	0,031
-604,386	-200,000	-0,038	-0,182
-603,371	800,000	0,016	-0,051
-602,357	-107,915	-0,042	-0,007
-601,342	-35,771	0,025	-0,010
-600,328	-200,000	0,011	-0,096
-599,313	-200,000	-0,009	-0,163
-598,298	-0,076	0,163	0,086
-597,284	800,000	0,062	-0,194
-596,269	800,000	0,058	-0,124
-595,255	347,852	-0,050	-0,073
-594,240	-91,554	-0,062	0,013
-593,225	169,606	0,025	-0,026
-592,211	800,000	-0,004	-0,010
-591,196	129,252	0,019	0,018
-590,182	-200,000	-0,020	0,112
-589,167	124,570	0,155	0,145
-588,152	403,731	0,054	0,085
-587,138	-29,068	0,066	-0,028
-586,123	-130,859	-0,101	-0,010
-585,109	135,155	-0,073	0,070
-584,094	520,398	0,048	-0,083
-583,079	508,688	-0,002	-0,004
-582,065	-36,335	0,073	0,029
-581,050	-75,936	0,010	0,003
-580,036	-10,521	-0,029	-0,014
-579,021	-200,000	-0,007	-0,094
-578,006	-200,000	0,015	-0,105
-576,992	79,414	0,022	-0,018
-575,977	799,103	-0,020	-0,041
-574,963	-104,045	0,175	0,030
-573,948	800,000	0,030	0,098
-572,934	-200,000	0,006	0,073
-571,919	0,482	0,043	0,023
-570,904	-80,619	0,086	0,021
-569,890	136,860	0,070	-0,068
-568,875	39,457	0,127	-0,084
-567,861	-200,000	0,007	0,052
-566,846	241,660	0,067	0,083
-565,831	6,399	0,067	-0,037
-564,817	-122,481	-0,152	-0,018
-563,802	-159,975	-0,083	-0,003
-562,788	88,302	-0,117	0,096
-561,773	-200,000	-0,004	-0,021
-560,758	41,232	0,068	0,045
-559,744	-18,206	0,112	0,052
-558,729	800,000	0,025	0,053
-557,715	62,810	0,035	0,026
-556,700	254,259	-0,065	-0,082
-555,685	-200,000	-0,013	0,109
-554,671	800,000	-0,042	-0,102
-553,656	353,635	0,034	0,050
-552,642	626,239	-0,026	-0,049
-551,627	-21,668	0,106	-0,048
-550,612	-200,000	0,023	-0,089
-549,598	659,105	0,083	-0,159
-548,583	-200,000	0,022	-0,110
-547,569	-144,619	0,063	-0,004
-546,554	-200,000	0,063	0,236
-545,539	-200,000	-0,021	0,179
-544,525	666,753	0,047	-0,091
-543,510	-125,661	0,117	0,013
-542,496	538,566	0,041	-0,072
-541,481	-99,350	-0,106	0,020
-540,466	-200,000	0,005	0,064
-539,452	-131,215	-0,081	0,008
-538,437	326,902	0,062	0,089
-537,423	235,877	-0,107	-0,132
-536,408	-200,000	-0,005	0,021
-535,393	-26,561	0,102	-0,044
-534,379	518,269	-0,042	-0,073
-533,364	74,357	-0,071	-0,055
-532,350	-79,207	0,149	-0,037
-531,335	70,836	0,086	0,066
-530,321	202,009	0,062	0,071
-529,306	-200,000	-0,010	0,033
-528,291	6,505	-0,040	0,022
-527,277	-4,065	0,023	-0,012
-526,262	373,895	-0,063	-0,096
-525,248	-27,882	0,146	-0,062
-524,233	-69,452	0,055	0,015
-523,218	-92,705	-0,075	0,015
-522,204	-200,000	0,025	0,156
-521,189	800,000	0,036	-0,087
-520,175	-68,941	-0,116	-0,033
-519,160	-102,651	-0,074	-0,013
-518,145	251,503	-0,066	-0,083
-517,131	230,553	0,106	0,128
-516,116	800,000	-0,029	0,090
-515,102	-142,869	-0,070	0,005
-514,087	-200,000	-0,002	0,033
-513,072	567,236	-0,054	0,098
-512,058	229,553	0,027	-0,032
-511,043	215,642	0,043	0,050
-510,029	-200,000	0,007	-0,089
-509,014	-57,763	-0,053	-0,017
-507,999	800,000	-0,001	-0,004
-506,985	-200,000	-0,023	-0,102
-505,970	51,409	-0,071	0,049
-504,956	215,871	-0,108	-0,127
-503,941	-2,034	0,122	0,063
-502,926	-129,290	-0,075	-0,008
-501,912	-26,791	0,086	-0,037
-500,897	-200,000	-0,009	0,113
-499,883	15,395	0,083	0,048
-498,868	-200,000	-0,028	-0,112
-497,853	-110,970	-0,121	0,018
-496,839	-71,306	0,048	0,013
-495,824	130,291	0,019	-0,018
-494,810	-135,533	0,123	-0,011
-493,795	-130,488	-0,073	0,007
-492,781	-103,161	-0,080	-0,014
-491,766	-53,589	-0,097	0,032
-490,751	-200,000	-0,008	-0,064
-489,737	-26,959	0,126	-0,054
-488,722	-200,000	0,005	-0,064
-487,708	-148,117	0,019	0,001
-486,693	90,279	-0,058	0,048
-485,678	680,344	-0,053	0,103
-484,664	-200,000	-0,014	-0,127
-483,649	366,833	0,029	-0,043
-482,635	2,655	-0,113	-0,061
-481,620	615,702	0,043	0,080
-480,605	-52,262	0,121	0,041
-479,591	-200,000	0,004	-0,031
-478,576	-96,549	-0,100	0,019
-477,562	358,433	0,054	0,080
-476,547	364,685	-0,026	0,038
-475,532	-200,000	0,003	-0,039
-474,518	-161,714	-0,104	0,004
-473,503	224,980	0,040	0,048
-472,489	800,000	0,024	0,072
-471,474	-46,554	0,056	-0,020
-470,459	-56,301	0,036	0,012
-469,445	102,230	0,042	-0,036
-468,430	-200,000	-0,007	-0,062
-467,416	422,774	0,043	0,068
-466,401	-61,196	0,132	0,041
-465,386	421,947	-0,038	0,060
-464,372	410,270	0,029	-0,046
-463,357	18,831	-0,114	0,067
-462,343	111,065	-0,021	0,019
-461,328	800,000	-0,033	-0,090
-460,313	800,000	-0,026	-0,073
-459,299	389,487	-0,107	0,164
-458,284	-200,000	0,025	0,126
-457,270	-133,799	0,025	-0,002
-456,255	-28,230	0,043	0,018
-455,241	-200,000	0,017	-0,066
-454,226	-200,000	-0,008	-0,068
-453,211	-35,113	-0,152	0,061
-452,197	-120,839	0,119	0,015
-451,182	-44,050	0,072	0,027
-450,168	-200,000	-0,010	-0,084
-449,153	460,333	-0,067	-0,111
-448,138	453,247	-0,101	-0,165
-447,124	351,169	0,083	-0,122
-446,109	-57,967	0,065	0,021
-445,095	-47,606	0,072	-0,026
-444,080	-30,105	0,083	-0,035
-443,065	451,505	-0,033	-0,054
-442,051	-36,929	0,030	0,012
-441,036	-200,000	-0,007	0,107
-440,022	800,000	0,047	-0,128
-439,007	-111,338	0,025	-0,004
-437,992	800,000	-0,059	-0,134
-436,978	1,270	-0,045	-0,024
-435,963	-118,577	-0,137	0,018
-434,949	-200,000	-0,022	0,073
-433,934	-72,413	0,056	-0,015
-432,919	-171,699	-0,110	-0,003
-431,905	768,641	-0,077	0,156
-430,890	-67,573	0,182	0,052
-429,876	218,437	-0,059	-0,070
-428,861	29,086	0,076	-0,047
-427,846	12,665	-0,045	0,025
-426,832	276,307	-0,017	-0,022
-425,817	800,000	0,047	0,120
-424,803	371,386	-0,051	-0,076
-423,788	-87,304	-0,150	0,033
-422,773	268,898	0,124	0,161
-421,759	-159,461	-0,079	0,003
-420,744	293,308	0,071	-0,095
-419,730	446,090	0,049	0,079
-418,715	-200,000	0,015	-0,100
-417,701	95,615	-0,003	0,002
-416,686	-114,678	0,132	0,018
-415,671	101,252	0,037	-0,032
-414,657	250,237	0,047	0,059
-413,642	-200,000	0,042	0,137
-412,628	81,054	0,058	-0,046
-411,613	-36,923	-0,123	-0,048
-410,598	6,862	-0,052	-0,028
-409,584	800,000	-0,013	-0,034
-408,569	-124,579	-0,138	0,016
-407,555	302,594	-0,009	-0,013
-406,540	20,527	-0,146	-0,087
-405,525	287,751	-0,075	0,100
-404,511	-200,000	-0,001	-0,022
-403,496	-63,704	-0,100	0,030
-402,482	-200,000	0,027	0,136
-401,467	-200,000	-0,014	0,069
-400,452	-132,416	0,103	0,010
-399,438	95,586	0,085	0,071
-398,423	800,000	-0,024	0,056
-397,409	-200,000	0,004	0,019
-396,394	279,547	0,050	-0,065
-395,379	-168,741	-0,074	0,002
-394,365	-82,238	0,055	0,013
-393,350	288,954	-0,101	0,135
-392,336	-200,000	-0,011	0,103
-391,321	43,087	-0,084	0,056
-390,306	-67,280	-0,132	-0,038
-389,292	25,315	-0,091	-0,056
-388,277	63,223	0,060	0,044
-387,263	55,602	0,056	0,040
-386,248	800,000	0,026	-0,075
-385,233	-200,000	-0,010	0,033
-384,219	586,110	-0,044	-0,080
-383,204	800,000	0,017	0,048
-382,190	215,018	-0,036	0,042
-381,175	6,725	0,021	0,012
-380,160	459,828	0,057	-0,094
-379,146	-200,000	0,028	0,134
-378,131	-200,000	-0,001	0,077
-377,117	-62,899	0,032	0,010
-376,102	38,004	-0,132	-0,086
-375,088	-200,000	-0,034	-0,159
-374,073	42,951	-0,039	-0,026
-373,058	445,940	0,107	0,173
-372,044	-80,274	0,172	0,042
-371,029	182,539	0,103	0,112
-370,015	29,764	-0,035	0,022
-369,000	171,501	-0,046	-0,048
-367,985	-200,000	0,002	0,060
-366,971	-200,000	-0,029	-0,103
-365,956	800,000	0,023	-0,052
-364,942	-200,000	0,022	-0,105
-363,927	93,916	-0,032	0,027
-362,912	-12,238	0,102	0,049
-361,898	84,351	0,049	0,039
-360,883	44,908	-0,101	-0,069
-359,869	-200,000	0,038	0,168
-358,854	-200,000	-0,014	0,085
-357,839	-5,171	0,082	0,041
-356,825	-43,709	-0,145	0,053
-355,810	-12,515	-0,032	-0,015
-354,796	800,000	-0,048	0,135
-353,781	800,000	0,012	-0,039
-352,766	54,429	-0,117	-0,082
-351,752	298,526	0,050	0,067
-350,737	42,396	-0,039	-0,026
-349,723	-190,625	-0,143	-0,001
-348,708	-38,721	0,071	0,027
-347,693	36,096	0,018	-0,011
-346,679	800,000	0,071	-0,146
-345,664	-200,000	0,007	-0,073
-344,650	7,920	0,053	-0,029
-343,635	-200,000	-0,014	0,133
-342,620	132,799	0,030	0,029
-341,606	800,000	0,015	0,040
-340,591	-68,155	-0,162	-0,046
-339,577	224,243	0,052	-0,062
-338,562	800,000	-0,093	-0,191
-337,548	800,000	-0,065	-0,135
-336,533	124,082	0,037	-0,034
-335,518	759,359	0,008	0,016
-334,504	-14,455	-0,212	-0,100
-333,489	-200,000	0,017	-0,060
-332,475	127,841	0,090	-0,084
-331,460	-94,924	0,080	-0,016
-330,445	-101,503	-0,101	0,018
-329,431	425,334	0,033	0,052
-328,416	-44,669	0,121	0,044
-327,402	146,640	-0,058	-0,057
-326,387	217,238	0,013	0,015
-325,372	42,276	-0,068	0,045
-324,358	-113,361	0,016	-0,002
-323,343	255,464	0,045	-0,057
-322,329	-29,922	0,127	-0,053
-321,314	-145,492	0,102	-0,007
-320,299	-200,000	-0,010	-0,114
-319,285	181,116	-0,063	0,068
-318,270	103,738	-0,065	-0,056
-317,256	-200,000	-0,003	0,055
-316,241	-200,000	-0,008	-0,049
-315,226	-100,331	-0,137	0,025
-314,212	78,970	0,093	-0,073
-313,197	-139,647	0,076	-0,006
-312,183	800,000	0,014	-0,039
-311,168	-104,018	-0,118	-0,020
-310,153	58,277	-0,151	-0,108
-309,139	5,118	-0,168	0,090
-308,124	-200,000	0,016	0,059
-307,110	202,860	-0,014	0,016
-306,095	7,236	0,072	0,039
-305,080	-152,433	-0,098	-0,005
-304,066	800,000	-0,029	-0,090
-303,051	-200,000	0,007	-0,029
-302,037	-200,000	-0,026	-0,115
-301,022	800,000	-0,023	-0,057
-300,008	-200,000	0,048	0,212
-298,993	121,656	0,039	-0,036
-297,978	800,000	0,029	0,082
-296,964	153,872	0,029	0,029
-295,949	65,755	-0,025	0,019
-294,935	316,082	-0,085	-0,118
-293,920	800,000	-0,026	-0,071
-292,905	-124,681	0,051	0,006
-291,891	-64,449	0,111	0,033
-290,876	153,546	-0,037	0,037
-289,862	-129,829	-0,044	-0,004
-288,847	577,276	-0,045	-0,082
-287,832	-93,387	-0,160	0,032
-286,818	242,474	-0,110	0,136
-285,803	11,109	-0,080	0,045
-284,789	-200,000	-0,002	0,038
-283,774	-82,095	0,182	0,043
-282,759	52,713	-0,055	-0,039
-281,745	800,000	-0,026	0,054
-280,730	-8,944	-0,052	0,025
-279,716	-200,000	0,002	0,087
-278,701	98,941	0,040	-0,034
-277,686	86,622	0,114	-0,092
-276,672	26,080	0,092	0,056
-275,657	-45,551	-0,079	-0,028
-274,643	-64,734	0,093	-0,027
-273,628	-179,385	-0,175	0,003
-272,613	36,872	-0,091	0,059
-271,599	800,000	0,025	-0,058
-270,584	572,598	-0,055	-0,099
-269,570	278,441	-0,119	0,156
-268,555	56,282	0,028	0,020
-267,540	640,709	0,049	-0,091
-266,526	800,000	0,026	-0,074
-265,511	800,000	0,060	-0,147
-264,497	-200,000	-0,021	0,076
-263,482	-200,000	0,025	0,102
-262,467	98,227	0,066	0,056
-261,453	21,524	0,048	-0,028
-260,438	257,066	-0,019	-0,024
-259,424	-110,744	0,045	0,007
-258,409	-136,241	-0,130	0,011
-257,395	77,069	-0,028	0,021
-256,380	800,000	0,035	0,085
-255,365	-200,000	-0,035	0,145
-254,351	-35,224	-0,158	-0,063
-253,336	772,719	0,029	0,058
-252,322	800,000	-0,026	-0,080
-251,307	-22,503	-0,070	0,031
-250,292	44,999	-0,133	-0,089
-249,278	-0,176	-0,073	-0,038
-248,263	340,441	0,104	0,150
-247,249	-7,333	0,069	0,034
-246,234	101,726	-0,047	-0,040
-245,219	209,322	-0,045	-0,052
-244,205	800,000	-0,013	-0,033
-243,190	-152,787	0,156	0,008
-242,176	800,000	-0,082	-0,206
-241,161	228,094	-0,032	0,039
-240,146	157,443	-0,097	0,098
-239,132	-188,263	0,127	0,001
-238,117	53,873	0,069	-0,048
-237,103	-14,186	-0,089	-0,042
-236,088	-200,000	0,038	-0,162
-235,073	800,000	0,021	-0,058
-234,059	133,858	0,044	0,041
-233,044	-25,206	-0,017	-0,007
-232,030	-13,931	0,078	0,037
-231,015	95,218	-0,100	0,083
-230,000	-200,000	-0,035	0,126
-228,986	800,000	0,016	0,039
-227,971	32,142	0,025	0,016
-226,957	-200,000	0,043	0,160
-225,942	-200,000	0,002	0,088
-224,927	-200,000	0,005	0,131
-223,913	-200,000	-0,020	-0,109
-222,898	190,253	0,022	-0,024
-221,884	-119,406	0,039	0,005
-220,869	-200,000	-0,008	-0,034
-219,855	-54,118	0,115	0,038
-218,840	551,325	0,035	0,061
-217,825	-200,000	-0,012	0,089
-216,811	-146,299	0,093	-0,006
-215,796	-49,026	-0,175	0,061
-214,782	-200,000	-0,001	-0,083
-213,767	-200,000	-0,015	-0,088
-212,752	36,468	0,029	0,018
-211,738	-200,000	0,009	-0,078
-210,723	662,093	-0,022	-0,041
-209,709	-47,683	-0,023	0,008
-208,694	32,754	0,100	-0,063
-207,679	-200,000	0,003	0,065
-206,665	300,270	0,069	0,093
-205,650	-130,000	-0,054	0,005
-204,636	103,461	0,095	0,082
-203,621	291,264	-0,106	-0,141
-202,606	-200,000	-0,002	0,084
-201,592	-69,999	-0,109	0,030
-200,577	-200,000	0,007	0,112
-199,563	759,751	0,010	0,020
-198,548	-56,114	0,032	-0,010
-197,533	29,453	0,100	-0,062
-196,519	-200,000	-0,034	0,110
-195,504	800,000	-0,037	-0,115
-194,490	-141,713	-0,019	-0,001
-193,475	82,486	0,056	0,045
-192,460	542,807	0,050	0,088
-191,446	86,653	0,039	0,031
-190,431	272,502	0,050	0,064
-189,417	224,264	0,033	-0,039
-188,402	742,946	-0,030	-0,059
-187,387	-105,364	-0,027	0,004
-186,373	560,395	0,059	0,105
-185,358	222,896	0,034	0,040
-184,344	800,000	-0,016	-0,049
-183,329	-200,000	-0,007	0,055
-182,315	-200,000	-0,001	0,010
-181,300	800,000	-0,016	0,051
-180,285	0,532	0,040	-0,021
-179,271	-200,000	-0,028	-0,119
-178,256	-200,000	-0,006	-0,035
-177,242	800,000	-0,032	0,091
-176,227	-200,000	0,004	0,043
-175,212	82,937	0,080	0,063
-174,198	469,840	0,085	0,140
-173,183	-50,985	-0,087	0,030
-172,169	800,000	0,032	0,100
-171,154	-12,546	-0,113	-0,054
-170,139	77,996	0,048	0,037
-169,125	800,000	0,040	0,122
-168,110	-0,481	-0,112	-0,058
-167,096	-20,181	0,109	0,049
-166,081	36,138	-0,131	-0,084
-165,066	-119,695	-0,061	0,008
-164,052	123,215	0,029	-0,026
-163,037	703,382	-0,025	0,048
-162,023	-126,308	0,134	0,014
-161,008	-200,000	-0,002	0,128
-159,993	-117,404	0,070	0,009
-158,979	314,244	0,008	0,011
-157,964	64,720	0,028	0,021
-156,950	-200,000	0,012	-0,038
-155,935	59,166	-0,091	-0,065
-154,920	-200,000	0,011	0,040
-153,906	29,877	0,045	-0,028
-152,891	25,988	0,061	0,037
-151,877	106,903	-0,108	0,093
-150,862	62,169	-0,062	0,045
-149,847	-4,931	-0,026	-0,013
-148,833	-200,000	0,022	0,178
-147,818	467,227	0,080	0,131
-146,804	-36,062	0,071	-0,028
-145,789	273,820	-0,062	0,079
-144,775	-104,710	0,040	0,007
-143,760	-200,000	0,017	-0,080
-142,745	-200,000	0,035	0,125
-141,731	800,000	0,021	-0,058
-140,716	42,513	0,024	-0,016
-139,702	143,634	0,069	-0,067
-138,687	-200,000	-0,011	0,040
-137,672	254,287	-0,078	0,097
-136,658	27,871	0,090	-0,055
-135,643	476,312	0,100	-0,166
-134,629	-14,704	0,061	-0,028
-133,614	-200,000	-0,013	-0,060
-132,599	-106,547	0,085	0,014
-131,585	800,000	-0,014	-0,034
-130,570	69,645	-0,077	0,057
-129,556	-184,516	0,043	0,000
-128,541	-99,820	0,045	-0,008
-127,526	-200,000	0,003	-0,070
-126,512	-200,000	0,003	0,163
-125,497	-67,085	0,078	0,022
-124,483	234,372	-0,034	-0,041
-123,468	800,000	0,035	-0,080
-122,453	-75,545	-0,109	-0,028
-121,439	90,669	0,074	0,061
-120,424	-182,652	-0,032	0,000
-119,410	26,549	0,038	0,023
-118,395	111,368	0,079	0,069
-117,380	322,731	0,082	0,114
-116,366	287,449	0,087	0,114
-115,351	52,163	-0,042	-0,029
-114,337	53,654	0,072	-0,050
-113,322	130,274	-0,011	0,011
-112,307	-22,276	0,110	-0,048
-111,293	-200,000	-0,016	-0,107
-110,278	667,173	0,074	0,140
-109,264	-88,039	0,070	0,015
-108,249	165,739	-0,092	0,095
-107,234	2,009	-0,104	-0,055
-106,220	-72,422	0,021	-0,006
-105,205	-200,000	0,013	0,113
-104,191	-200,000	-0,010	0,040
-103,176	188,447	-0,014	0,016
-102,162	-200,000	-0,006	-0,107
-101,147	800,000	0,016	-0,047
-100,132	-200,000	0,005	-0,030
-99,118	800,000	-0,021	0,066
-98,103	-200,000	0,085	0,000
-97,089	339,920	0,069	0,098
-96,074	-200,000	-0,004	0,071
-95,059	3,551	-0,061	-0,032
-94,045	375,550	0,034	-0,050
-93,030	-108,103	-0,047	-0,007
-92,016	15,823	-0,061	0,035
-91,001	-200,000	-0,030	0,108
-89,986	-82,190	-0,058	-0,014
-88,972	-130,572	-0,077	0,007
-87,957	-200,000	-0,009	0,137
-86,943	800,000	0,024	0,058
-85,928	481,825	0,025	-0,041
-84,913	-92,147	-0,026	0,005
-83,899	-49,223	0,097	0,033
-82,884	-160,379	-0,086	0,003
-81,870	-200,000	-0,030	-0,122
-80,855	-73,519	0,093	-0,024
-79,840	-88,275	-0,137	0,030
-78,826	30,346	0,047	-0,029
-77,811	242,064	-0,112	-0,137
-76,797	372,857	0,066	-0,097
-75,782	25,686	0,026	-0,016
-74,767	0,982	0,099	0,051
-73,753	800,000	-0,029	0,084
-72,738	92,053	0,039	0,032
-71,724	-157,071	-0,074	0,003
-70,709	431,605	0,044	0,069
-69,694	800,000	-0,057	-0,140
-68,680	-166,779	0,119	-0,003
-67,665	-92,251	0,141	0,029
-66,651	337,413	-0,050	-0,071
-65,636	-76,872	0,079	0,020
-64,622	-200,000	0,001	-0,089
-63,607	-56,351	0,136	-0,044
-62,592	333,850	0,048	-0,068
-61,578	800,000	-0,031	0,079
-60,563	32,994	0,045	-0,028
-59,549	-200,000	0,042	0,159
-58,534	-102,403	-1,289	-0,222
-57,519	560,614	-0,826	-1,454
-56,505	-200,000	-0,942	-4,568
-55,490	28,853	0,574	-0,352
-54,476	800,000	5,043	11,902
-53,461	-200,000	13,551	253,016
-52,446	-200,000	689,248	2263,135
-51,432	593,596	1622,393	2922,535
-50,417	119,902	1635,505	1471,616
-49,403	73,499	1289,363	978,737
-48,388	38,182	1024,711	660,586
-47,373	24,451	982,114	587,956
-46,359	23,628	971,798	579,055
-45,344	22,668	967,559	573,369
-44,330	22,605	966,014	572,225
-43,315	22,497	964,688	571,064
-42,300	22,433	963,630	570,209
-41,286	22,473	962,746	569,791
-40,271	22,479	961,697	569,169
-39,257	22,491	960,611	568,542
-38,242	22,447	959,742	567,861
-37,227	22,465	958,981	567,448
-36,213	22,386	958,143	566,673
-35,198	22,414	957,238	566,205
-34,184	22,399	956,751	565,846
-33,169	22,483	955,462	565,333
-32,154	22,492	954,781	564,937
-31,140	22,484	953,975	564,412
-30,125	22,513	953,171	564,006
-29,111	22,487	952,466	563,486
-28,096	22,482	951,531	562,893
-27,082	22,495	950,772	562,462
-26,067	22,474	950,304	562,097
-25,052	22,499	949,472	561,661
-24,038	22,485	948,975	561,300
-23,023	22,526	948,194	560,949
-22,009	22,559	947,446	560,588
-20,994	22,450	947,006	559,957
-19,979	22,495	946,325	559,675
-18,965	22,520	945,580	559,293
-17,950	22,468	945,023	558,776
-16,936	22,478	944,311	558,365
-15,921	22,467	943,720	557,959
-14,906	22,401	943,003	557,302
-13,892	22,410	942,257	556,867
-12,877	22,330	941,757	556,295
-11,863	22,292	941,223	555,837
-10,848	22,345	940,652	555,645
-9,833	22,453	940,101	555,642
-8,819	22,417	939,492	555,145
-7,804	22,410	938,778	554,679
-6,790	22,403	937,930	554,136
-5,775	22,434	937,739	554,096
-4,760	22,398	936,861	553,442
-3,746	22,376	936,307	553,023
-2,731	22,284	935,486	552,226
-1,717	22,234	934,817	551,652
-0,702	22,173	934,548	551,280
0,313	22,033	933,692	551,164
1,327	24,975	931,818	559,266
2,342	34,340	796,557	503,052
3,356	32,224	451,403	281,861
4,371	1,415	293,195	152,379
5,386	-2,938	274,099	138,331
6,400	-4,502	268,092	133,840
7,415	-5,126	265,738	132,081
8,429	-4,718	264,521	131,837
9,444	-4,592	263,782	131,571
10,459	-4,658	262,972	131,095
11,473	-4,673	262,587	130,878
12,488	-4,834	261,893	130,375
13,502	-5,029	261,455	129,969
14,517	-5,018	261,115	129,798
15,531	-4,741	260,562	129,761
16,546	-4,782	260,378	129,621
17,561	-4,677	259,884	129,458
18,575	-4,623	259,754	129,430
19,590	-4,831	259,327	129,020
20,604	-4,699	259,041	128,984
21,619	-4,850	258,809	128,722
22,634	-4,786	258,383	128,556
23,648	-4,656	257,988	128,463
24,663	-4,665	257,657	128,279
25,677	-4,889	257,603	128,042
26,692	-4,713	257,256	128,014
27,707	-4,869	257,057	127,766
28,721	-4,777	256,706	127,661
29,736	-4,744	256,539	127,596
30,750	-5,009	256,317	127,240
31,765	-4,891	256,089	127,220
32,780	-4,709	255,669	127,160
33,794	-4,724	255,649	127,125
34,809	-4,787	255,370	126,920
35,823	-4,904	255,016	126,630
36,838	-4,883	254,892	126,575
37,853	-4,839	254,634	126,475
38,867	-4,842	254,349	126,320
39,882	-4,930	254,246	126,180
40,896	-5,023	254,036	125,983
41,911	-5,055	253,805	125,829
42,926	-5,007	253,453	125,685
43,940	-4,925	253,345	125,692
44,955	-5,051	253,048	125,423
45,969	-5,137	252,898	125,263
46,984	-5,108	252,539	125,100
47,999	-5,579	252,276	124,549
49,013	-5,654	252,046	124,359
50,028	-5,633	251,842	124,266
51,042	-5,732	251,628	124,063
52,057	-5,739	251,443	123,955
53,071	-5,791	251,146	123,753
54,086	-5,451	251,095	124,011
55,101	-5,631	250,993	123,794
56,115	-5,153	250,770	124,084
57,130	-4,711	250,527	124,334
58,144	-4,649	250,557	124,391
59,159	-4,558	250,285	124,324
60,174	-4,758	249,947	123,973
61,188	-4,677	249,751	123,934
62,203	-4,708	249,583	123,813
63,217	-4,735	249,452	123,714
64,232	-4,826	249,294	123,546
65,247	-4,815	249,047	123,423
66,261	-4,854	248,930	123,320
67,276	-5,005	248,425	122,930
68,290	-5,067	248,322	122,815
69,305	-5,296	247,958	122,429
70,320	-5,341	247,843	122,324
71,334	-4,954	247,716	122,579
72,349	-4,722	247,585	122,701
73,363	-4,639	247,483	122,709
74,378	-4,558	247,161	122,608
75,393	-4,746	246,955	122,336
76,407	-4,842	246,779	122,156
77,422	-4,618	246,593	122,242
78,436	-4,608	246,375	122,132
79,451	-4,824	246,194	121,848
80,466	-4,881	246,070	121,729
81,480	-5,130	245,814	121,381
82,495	-5,039	245,683	121,382
83,509	-5,107	245,486	121,217
84,524	-5,039	245,074	121,060
85,539	-5,211	244,958	120,847
86,553	-5,354	244,903	120,689
87,568	-5,110	244,711	120,788
88,582	-4,942	244,303	120,717
89,597	-5,215	244,251	120,452
90,611	-4,969	244,105	120,575
91,626	-4,657	243,988	120,768
92,641	-4,891	243,802	120,469
93,655	-4,874	243,482	120,314
94,670	-4,919	243,364	120,208
95,684	-4,947	243,232	120,109
96,699	-4,834	243,048	120,101
97,714	-4,960	242,719	119,823
98,728	-5,117	242,603	119,624
99,743	-5,350	242,510	119,374
100,757	-5,110	242,069	119,346
101,772	-5,229	242,150	119,276
102,787	-5,109	241,783	119,185
103,801	-5,188	241,848	119,140
104,816	-4,834	241,524	119,262
105,830	-4,771	241,408	119,247
106,845	-4,664	241,256	119,249
107,860	-4,727	240,937	119,029
108,874	-5,160	240,979	118,682
109,889	-4,980	240,650	118,658
110,903	-5,080	240,315	118,400
111,918	-4,938	240,167	118,433
112,933	-4,915	240,187	118,451
113,947	-4,694	239,907	118,484
114,962	-4,627	239,790	118,470
115,976	-4,892	239,771	118,234
116,991	-4,897	239,483	118,077
118,006	-4,973	239,407	117,966
119,020	-4,877	239,157	117,912
120,035	-4,785	239,029	117,913
121,049	-4,694	238,943	117,934
122,064	-4,834	238,741	117,710
123,079	-4,753	238,461	117,627
124,093	-5,171	238,261	117,178
125,108	-5,236	238,057	117,014
126,122	-5,118	237,767	116,957
127,137	-5,166	237,572	116,812
128,151	-5,295	237,448	116,636
129,166	-5,073	237,253	116,709
130,181	-5,270	237,097	116,462
131,195	-5,279	236,917	116,356
132,210	-5,286	236,854	116,310
133,224	-4,989	236,547	116,388
134,239	-4,743	236,469	116,538
135,254	-4,949	236,442	116,348
136,268	-4,954	236,007	116,120
137,283	-5,219	235,842	115,815
138,297	-5,450	235,726	115,561
139,312	-5,317	235,443	115,519
140,327	-5,008	235,427	115,750
141,341	-4,660	235,409	116,010
142,356	-4,788	235,296	115,841
143,370	-4,405	235,080	116,032
144,385	-4,668	235,024	115,783
145,400	-4,587	234,942	115,797
146,414	-4,502	234,610	115,691
147,429	-4,740	234,486	115,429
148,443	-4,680	234,316	115,383
149,458	-4,614	234,005	115,272
150,473	-4,584	233,918	115,244
151,487	-4,462	233,712	115,229
152,502	-4,692	233,597	114,979
153,516	-4,556	233,428	114,993
154,531	-4,598	233,255	114,864
155,546	-4,750	233,027	114,621
156,560	-4,678	232,839	114,576
157,575	-4,669	232,589	114,449
158,589	-4,753	232,514	114,336
159,604	-4,634	232,418	114,373
160,619	-4,455	232,302	114,447
161,633	-4,498	232,005	114,257
162,648	-4,505	231,959	114,218
163,662	-4,653	231,783	114,005
164,677	-4,800	231,538	113,758
165,692	-4,710	231,462	113,782
166,706	-4,525	231,378	113,876
167,721	-4,364	231,111	113,861
168,735	-4,354	231,065	113,836
169,750	-4,499	231,053	113,706
170,764	-4,508	230,645	113,488
171,779	-4,463	230,363	113,374
172,794	-4,617	230,574	113,347
173,808	-4,607	230,189	113,156
174,823	-5,147	229,843	112,553
175,837	-5,179	229,659	112,428
176,852	-4,953	229,674	112,602
177,867	-4,556	229,597	112,864
178,881	-4,612	229,504	112,765
179,896	-4,524	229,342	112,744
180,910	-4,543	228,955	112,528
181,925	-4,295	228,966	112,717
182,940	-4,414	228,848	112,556
183,954	-4,478	228,693	112,421
184,969	-4,327	228,513	112,439
185,983	-4,279	228,442	112,431
186,998	-4,298	228,317	112,345
188,013	-4,262	228,174	112,292
189,027	-4,130	227,958	112,279
190,042	-4,492	227,767	111,894
191,056	-4,344	227,513	111,873
192,071	-4,357	227,391	111,794
193,086	-4,573	227,329	111,586
194,100	-4,476	227,137	111,558
195,115	-4,788	226,777	111,130
196,129	-5,306	226,462	110,567
197,144	-2,260	227,538	113,435
198,159	1,797	228,672	117,132
199,173	4,092	229,138	119,138
200,188	4,221	229,008	119,160
201,202	4,067	228,951	119,001
202,217	4,422	228,930	119,253
203,232	4,516	228,711	119,201
204,246	4,613	228,713	119,266
205,261	4,610	228,450	119,116
206,275	4,646	228,404	119,109
207,290	5,021	228,203	119,283
208,304	4,886	228,138	119,134
209,319	4,867	227,951	119,011
210,334	4,870	227,565	118,801
211,348	4,392	227,410	118,343
212,363	4,307	227,123	118,118
213,377	3,738	226,940	117,576
214,392	4,030	226,827	117,731
215,407	4,048	226,765	117,702
216,421	3,948	226,697	117,580
217,436	3,973	226,563	117,519
218,450	3,708	226,226	117,132
219,465	3,554	226,055	116,916
220,480	3,815	225,831	116,988
221,494	3,721	225,781	116,880
222,509	3,808	225,751	116,920
223,523	3,844	225,525	116,820
224,538	3,772	225,279	116,628
225,553	3,842	225,246	116,654
226,567	3,920	225,211	116,684
227,582	4,232	225,078	116,841
228,596	4,402	224,968	116,902
229,611	4,211	224,753	116,636
230,626	3,782	224,409	116,123
231,640	3,973	224,310	116,205
232,655	4,079	224,260	116,249
233,669	4,442	224,238	116,501
234,684	4,621	224,181	116,597
235,699	4,430	223,866	116,278
236,713	3,952	223,683	115,813
237,728	4,196	223,432	115,856
238,742	3,896	223,397	115,602
239,757	3,804	223,132	115,386
240,772	3,908	223,066	115,420
241,786	3,879	222,910	115,307
242,801	4,266	222,624	115,438
243,815	4,251	222,696	115,454
244,830	4,364	222,380	115,364
245,844	4,117	222,342	115,150
246,859	3,974	222,254	114,987
247,874	4,217	222,052	115,054
248,888	4,392	221,811	115,049
249,903	3,968	221,729	114,680
250,917	4,080	221,536	114,654
251,932	3,935	221,520	114,527
252,947	3,889	221,229	114,332
253,961	3,908	221,162	114,302
254,976	3,911	221,073	114,247
255,990	4,008	220,976	114,259
257,005	4,031	220,813	114,182
258,020	4,042	220,765	114,155
259,034	4,358	220,655	114,322
260,049	4,227	220,354	114,059
261,063	4,075	220,231	113,873
262,078	4,137	220,182	113,883
263,093	4,522	220,113	114,122
264,107	4,213	219,830	113,737
265,122	4,294	219,749	113,745
266,136	4,248	219,670	113,660
267,151	4,393	219,452	113,643
268,166	3,843	219,242	113,120
269,180	3,784	218,993	112,938
270,195	3,806	218,884	112,887
271,209	3,664	218,761	112,710
272,224	3,871	218,783	112,863
273,239	4,073	218,522	112,866
274,253	4,061	218,296	112,731
275,268	3,917	217,995	112,460
276,282	3,522	217,909	112,117
277,297	3,694	217,762	112,157
278,312	3,851	217,779	112,270
279,326	3,943	217,551	112,210
280,341	3,808	217,604	112,129
281,355	4,135	217,394	112,249
282,370	4,111	217,235	112,140
283,384	3,707	217,153	111,793
284,399	3,705	216,874	111,638
285,414	4,079	216,532	111,724
286,428	4,045	216,699	111,775
287,443	4,168	216,571	111,789
288,457	4,147	216,455	111,703
289,472	4,036	216,225	111,494
290,487	3,660	215,850	111,019
291,501	3,404	215,978	110,889
292,516	3,709	215,821	111,019
293,530	3,851	215,609	111,003
294,545	3,421	215,516	110,635
295,560	3,801	215,522	110,902
296,574	3,758	215,399	110,798
297,589	4,002	215,025	110,771
298,603	3,926	214,926	110,656
299,618	4,036	214,837	110,680
300,633	4,027	214,768	110,628
301,647	4,094	214,744	110,653
302,662	4,315	214,470	110,661
303,676	4,055	214,451	110,455
304,691	4,146	214,274	110,419
305,706	4,263	214,151	110,430
306,720	4,350	213,968	110,388
307,735	4,018	213,617	109,960
308,749	4,038	213,578	109,944
309,764	3,978	213,555	109,879
310,779	4,241	213,474	110,016
311,793	4,017	213,341	109,777
312,808	4,074	213,172	109,722
313,822	3,989	212,968	109,546
314,837	3,886	212,813	109,383
315,852	3,874	212,732	109,324
316,866	4,105	212,554	109,387
317,881	3,926	212,514	109,229
318,895	4,045	212,427	109,259
319,910	3,976	212,164	109,065
320,925	3,575	211,897	108,634
321,939	3,687	211,574	108,538
322,954	3,298	211,671	108,303
323,968	4,091	211,575	108,805
324,983	4,084	211,499	108,751
325,997	4,103	211,328	108,666
327,012	4,023	211,185	108,527
328,027	3,701	211,167	108,281
329,041	4,368	211,137	108,727
330,056	4,470	210,910	108,671
331,070	4,243	210,605	108,345
332,085	4,006	210,406	108,067
333,100	3,845	210,373	107,927
334,114	3,759	210,314	107,826
335,129	3,913	210,100	107,815
336,143	3,911	209,984	107,745
337,158	4,028	209,755	107,699
338,173	4,043	209,642	107,642
339,187	3,846	209,444	107,394
340,202	3,722	209,381	107,265
341,216	3,537	209,303	107,087
342,231	3,785	209,020	107,105
343,246	3,732	208,960	107,027
344,260	3,848	208,828	107,031
345,275	3,591	208,742	106,798
346,289	4,084	208,602	107,060
347,304	4,178	208,696	107,165
348,319	3,758	208,473	106,749
349,333	4,049	208,069	106,734
350,348	4,180	208,125	106,844
351,362	4,019	208,102	106,711
352,377	4,147	207,847	106,659
353,392	3,955	207,664	106,423
354,406	3,985	207,737	106,472
355,421	194,051	1344,201	1433,478
356,435	154,826	1482,763	1433,607
