DTS Sentinel unit serial number:	SN410029Multiplexer serial number:	ORYXHardware model number:	OX2-SRSoftware version number:	ORYX F/W v4,00 Oryx Data Collector v3.7.2.0data status	okinstallation	B6 Nyhavnadifferential loss correction	single-endedforward channel	channel 2reverse channel	N/Adate	2023/12/10time	07:45:08forward acquisition time	300,00reverse acquisition time	0,00gamma	499,1914k internal	0,3123k external	0,3123temperature offset calibration	1,0000default loss term (dB/km)	0,3820temperature slope calibration	1,0000multiplexer offset coefficient	1,0000multiplexer slope coefficient	1,0000fibre end	0,00T internal ref (°C)	22,59T ext. ref 1 (°C)	6,36T ext. ref 2 (°C)	6,35length (m)	temperature (°C)	Stokes	anti-Stokes-744,400	-200,000	0,030	-0,106
-743,385	-99,031	-0,196	0,037
-742,371	-84,044	0,196	-0,046
-741,356	108,454	-0,294	0,261
-740,342	-63,999	-0,011	0,003
-739,327	119,327	-0,176	0,162
-738,312	-114,570	-0,138	-0,020
-737,298	115,425	-0,195	0,177
-736,283	-64,154	0,087	-0,026
-735,269	241,096	-0,113	0,141
-734,254	111,874	-0,076	-0,068
-733,239	-110,930	-0,414	-0,063
-732,225	281,731	-0,017	-0,023
-731,210	-56,809	0,126	0,041
-730,196	-67,673	0,041	0,012
-729,181	800,000	0,045	-0,129
-728,167	-23,128	0,001	-0,000
-727,152	17,352	0,052	0,031
-726,137	53,938	-0,150	-0,107
-725,123	259,115	-0,076	-0,098
-724,108	-200,000	0,011	-0,090
-723,094	-164,772	-0,074	-0,002
-722,079	227,397	-0,088	-0,107
-721,064	771,414	0,039	-0,080
-720,050	365,168	-0,037	-0,056
-719,035	189,693	-0,086	-0,096
-718,021	64,415	0,046	0,035
-717,006	-192,070	-0,195	-0,001
-715,991	397,950	-0,064	-0,100
-714,977	-200,000	-0,053	-0,210
-713,962	31,827	-0,111	-0,071
-712,948	-200,000	0,007	-0,087
-711,933	-59,125	0,017	-0,006
-710,918	744,317	-0,051	-0,103
-709,904	124,562	-0,100	-0,094
-708,889	116,921	-0,170	-0,155
-707,875	-200,000	-0,041	0,150
-706,860	-36,691	-0,031	-0,012
-705,845	16,232	0,082	-0,048
-704,831	-73,716	-0,036	0,010
-703,816	-200,000	-0,004	0,032
-702,802	-40,878	-0,064	-0,024
-701,787	6,547	-0,073	0,040
-700,772	22,432	-0,072	-0,044
-699,758	-98,526	-0,026	-0,005
-698,743	800,000	0,026	0,082
-697,729	-200,000	-0,029	-0,105
-696,714	561,204	0,041	-0,074
-695,699	444,774	-0,032	-0,052
-694,685	46,311	-0,083	-0,057
-693,670	578,602	-0,050	-0,091
-692,656	77,139	-0,082	-0,065
-691,641	-200,000	-0,003	0,055
-690,627	-74,171	0,073	0,019
-689,612	-83,108	-0,046	0,011
-688,597	91,363	-0,049	0,041
-687,583	-141,901	-0,030	-0,002
-686,568	-75,841	-0,059	-0,016
-685,554	-56,245	-0,025	0,008
-684,539	122,080	0,059	0,054
-683,524	93,724	0,066	-0,056
-682,510	358,595	-0,062	0,092
-681,495	313,856	-0,025	-0,035
-680,481	-25,657	-0,048	-0,021
-679,466	242,397	-0,131	0,164
-678,451	-164,420	-0,076	0,003
-677,437	336,021	-0,022	-0,032
-676,422	-200,000	-0,019	0,098
-675,408	800,000	0,038	-0,096
-674,393	-34,515	-0,179	-0,072
-673,378	432,506	-0,062	-0,101
-672,364	-200,000	-0,021	-0,141
-671,349	425,218	0,044	-0,071
-670,335	-98,351	0,128	0,024
-669,320	-200,000	-0,005	-0,085
-668,305	-200,000	0,004	-0,025
-667,291	-200,000	-0,018	-0,104
-666,276	76,959	0,075	-0,059
-665,262	800,000	-0,041	0,106
-664,247	-200,000	0,000	0,086
-663,232	357,170	-0,051	-0,075
-662,218	-200,000	0,008	0,047
-661,203	-181,795	-0,209	0,003
-660,189	158,581	-0,036	0,037
-659,174	19,266	-0,177	0,105
-658,159	112,716	0,049	-0,044
-657,145	800,000	-0,038	-0,118
-656,130	-47,584	-0,068	-0,024
-655,116	800,000	0,039	0,122
-654,101	697,319	-0,075	0,147
-653,086	237,089	0,107	0,131
-652,072	54,404	0,036	0,026
-651,057	-1,303	-0,096	-0,050
-650,043	-200,000	0,008	0,046
-649,028	800,000	0,037	0,098
-648,014	173,078	0,057	-0,061
-646,999	107,122	0,092	0,081
-645,984	-21,513	-0,044	-0,020
-644,970	67,518	-0,045	0,034
-643,955	263,664	-0,081	-0,105
-642,941	800,000	-0,025	0,055
-641,926	279,431	0,078	-0,103
-640,911	-200,000	0,011	0,172
-639,897	117,432	-0,031	-0,029
-638,882	-80,873	0,056	0,014
-637,868	-200,000	0,008	-0,091
-636,853	232,887	0,041	-0,050
-635,838	-72,346	0,082	-0,022
-634,824	-125,065	-0,172	0,019
-633,809	-140,573	0,031	-0,002
-632,795	-200,000	0,007	-0,120
-631,780	503,986	0,026	0,045
-630,765	67,144	-0,039	0,029
-629,751	159,261	-0,062	-0,064
-628,736	-200,000	-0,010	-0,152
-627,722	800,000	-0,049	-0,153
-626,707	800,000	-0,010	0,029
-625,692	36,984	0,030	-0,020
-624,678	266,058	-0,023	0,030
-623,663	177,756	0,004	-0,005
-622,649	-92,206	0,095	-0,020
-621,634	110,441	-0,044	-0,039
-620,619	-200,000	0,029	-0,139
-619,605	-76,159	0,073	0,019
-618,590	800,000	-0,004	-0,008
-617,576	98,140	-0,094	0,080
-616,561	-200,000	0,003	0,115
-615,546	-162,001	0,058	-0,002
-614,532	153,310	-0,110	0,112
-613,517	-200,000	0,042	-0,182
-612,503	-200,000	0,036	0,120
-611,488	800,000	-0,036	-0,084
-610,474	-107,549	-0,070	0,011
-609,459	85,366	0,086	0,070
-608,444	800,000	-0,046	0,102
-607,430	352,497	-0,012	0,017
-606,415	-189,480	0,114	0,001
-605,401	800,000	0,043	-0,120
-604,386	603,384	-0,028	-0,052
-603,371	800,000	-0,034	0,072
-602,357	39,872	0,057	0,038
-601,342	-99,680	-0,203	0,037
-600,328	-33,638	-0,021	-0,009
-599,313	203,000	0,043	-0,049
-598,298	-200,000	0,019	-0,161
-597,284	-200,000	-0,015	-0,085
-596,269	80,846	0,078	0,062
-595,255	-140,401	-0,067	0,005
-594,240	-121,406	-0,127	-0,015
-593,225	250,687	0,089	-0,113
-592,211	-105,575	-0,145	0,024
-591,196	-148,598	-0,066	0,004
-590,182	800,000	0,047	0,129
-589,167	-200,000	-0,019	0,189
-588,152	-89,831	-0,100	0,021
-587,138	403,050	-0,045	-0,070
-586,123	149,233	-0,078	-0,078
-585,109	800,000	-0,046	-0,097
-584,094	244,795	-0,060	-0,075
-583,079	800,000	0,026	0,062
-582,065	-31,296	-0,055	0,023
-581,050	205,456	0,053	-0,061
-580,036	-118,265	-0,131	-0,017
-579,021	-44,039	0,069	0,025
-578,006	800,000	-0,025	-0,053
-576,992	-31,431	0,063	0,026
-575,977	-122,059	-0,060	0,007
-574,963	712,129	0,049	-0,097
-573,948	712,511	-0,078	-0,153
-572,934	44,074	-0,078	-0,053
-571,919	180,868	-0,045	-0,049
-570,904	537,482	-0,007	0,012
-569,890	-200,000	-0,007	-0,024
-568,875	93,730	0,010	0,008
-567,861	-110,539	-0,044	0,007
-566,846	-29,364	0,089	0,038
-565,831	93,863	-0,011	0,009
-564,817	800,000	-0,035	0,080
-563,802	163,296	-0,037	0,038
-562,788	41,938	-0,041	-0,027
-561,773	-40,677	0,069	-0,026
-560,758	268,652	0,028	0,036
-559,744	199,376	-0,078	0,088
-558,729	362,886	-0,055	0,082
-557,715	-200,000	0,005	0,101
-556,700	177,217	-0,049	0,053
-555,685	-200,000	0,010	-0,044
-554,671	-200,000	0,013	0,128
-553,656	17,115	0,102	-0,059
-552,642	-200,000	-0,030	-0,193
-551,627	-199,645	0,026	0,000
-550,612	40,024	0,041	-0,027
-549,598	-200,000	-0,015	-0,102
-548,583	98,695	-0,058	-0,049
-547,569	-118,855	-0,097	-0,012
-546,554	-105,151	0,040	0,007
-545,539	-27,410	0,050	-0,021
-544,525	-151,354	0,075	-0,004
-543,510	-54,374	0,053	-0,018
-542,496	-200,000	0,013	0,080
-541,481	800,000	0,016	-0,038
-540,466	800,000	-0,013	-0,032
-539,452	28,077	0,039	-0,024
-538,437	145,225	-0,112	-0,111
-537,423	800,000	-0,031	-0,092
-536,408	98,829	0,111	0,095
-535,393	800,000	-0,029	-0,087
-534,379	8,075	0,045	-0,025
-533,364	-200,000	0,015	-0,099
-532,350	-200,000	0,012	-0,100
-531,335	-20,207	0,034	0,016
-530,321	39,917	-0,061	-0,041
-529,306	-200,000	0,005	-0,107
-528,291	203,810	0,024	0,027
-527,277	-200,000	0,059	-0,219
-526,262	-200,000	0,021	-0,086
-525,248	91,510	0,093	0,077
-524,233	-40,470	-0,020	0,007
-523,218	13,754	-0,055	-0,032
-522,204	71,733	-0,021	0,016
-521,189	643,266	-0,066	-0,124
-520,175	46,403	0,063	-0,043
-519,160	256,442	-0,037	0,047
-518,145	-40,511	0,061	0,023
-517,131	-200,000	0,003	0,022
-516,116	-161,557	0,048	-0,002
-515,102	-45,808	-0,098	-0,036
-514,087	-30,432	-0,137	-0,057
-513,072	-95,373	0,064	-0,013
-512,058	68,402	-0,150	-0,113
-511,043	-141,613	-0,044	-0,003
-510,029	800,000	-0,067	-0,158
-509,014	-200,000	-0,015	0,070
-507,999	-118,468	-0,076	0,010
-506,985	-20,129	0,064	0,029
-505,970	-200,000	0,014	-0,073
-504,956	335,918	0,069	0,099
-503,941	-34,100	-0,073	0,030
-502,926	206,561	0,056	-0,065
-501,912	-200,000	0,004	0,040
-500,897	-71,198	-0,035	-0,010
-499,883	203,960	-0,095	-0,109
-498,868	800,000	-0,032	-0,082
-497,853	-200,000	-0,004	-0,026
-496,839	407,067	-0,026	0,041
-495,824	-10,241	0,029	0,014
-494,810	-80,860	0,166	-0,040
-493,795	-30,576	0,067	-0,028
-492,781	34,652	0,069	0,044
-491,766	-61,274	-0,097	0,030
-490,751	-200,000	0,008	-0,099
-489,737	-200,000	-0,004	0,048
-488,722	-200,000	-0,021	0,094
-487,708	-31,894	0,045	0,018
-486,693	800,000	-0,044	-0,106
-485,678	-61,121	-0,249	0,077
-484,664	-200,000	0,010	-0,041
-483,649	800,000	-0,040	-0,117
-482,635	-88,339	-0,016	0,003
-481,620	2,435	-0,084	-0,045
-480,605	-4,363	0,194	0,098
-479,591	800,000	-0,025	0,051
-478,576	67,552	0,073	0,055
-477,562	514,512	-0,109	0,188
-476,547	620,223	0,053	-0,099
-475,532	-200,000	-0,010	0,065
-474,518	-200,000	-0,025	0,122
-473,503	37,552	0,037	0,024
-472,489	800,000	0,039	-0,091
-471,474	-200,000	-0,023	-0,079
-470,459	-200,000	0,000	0,066
-469,445	-54,279	-0,036	0,012
-468,430	61,892	-0,038	0,028
-467,416	8,871	-0,060	-0,033
-466,401	-64,649	0,073	0,022
-465,386	469,833	0,087	0,145
-464,372	-200,000	0,030	0,113
-463,357	-29,298	-0,014	-0,006
-462,343	68,280	-0,038	-0,028
-461,328	280,644	-0,039	-0,051
-460,313	391,431	-0,031	0,047
-459,299	72,797	0,108	0,083
-458,284	27,336	-0,079	0,049
-457,270	128,967	0,056	0,052
-456,255	-42,540	0,062	0,023
-455,241	-200,000	0,009	-0,061
-454,226	-103,742	-0,111	-0,019
-453,211	-148,883	0,014	-0,001
-452,197	260,266	-0,036	-0,047
-451,182	-15,536	0,086	-0,040
-450,168	-142,888	-0,098	-0,007
-449,153	700,949	0,033	-0,065
-448,138	148,913	0,074	-0,074
-447,124	164,653	-0,053	-0,055
-446,109	800,000	0,021	0,059
-445,095	221,565	0,064	0,076
-444,080	21,580	-0,010	0,006
-443,065	800,000	-0,026	0,081
-442,051	133,079	0,043	-0,041
-441,036	39,677	-0,067	0,044
-440,022	800,000	0,020	-0,054
-439,007	-18,725	-0,149	0,068
-437,992	83,134	-0,047	0,038
-436,978	-200,000	0,005	0,152
-435,963	800,000	0,057	-0,117
-434,949	671,660	0,053	0,102
-433,934	186,062	-0,068	-0,074
-432,919	305,578	0,032	0,044
-431,905	-200,000	-0,007	-0,119
-430,890	800,000	0,049	0,129
-429,876	194,494	-0,025	0,028
-428,861	-4,495	-0,123	0,062
-427,846	-34,824	0,106	-0,042
-426,832	654,741	0,033	0,062
-425,817	-127,078	-0,122	-0,013
-424,803	4,646	-0,141	-0,076
-423,788	583,456	-0,040	0,073
-422,773	190,842	-0,044	0,049
-421,759	210,684	0,099	0,114
-420,744	34,260	-0,075	0,048
-419,730	257,444	-0,048	0,061
-418,715	15,084	-0,059	0,034
-417,701	800,000	0,017	-0,052
-416,686	800,000	0,022	0,051
-415,671	-200,000	0,014	0,112
-414,657	-200,000	-0,059	0,000
-413,642	-200,000	-0,011	-0,076
-412,628	200,598	-0,062	-0,070
-411,613	-68,972	-0,072	0,020
-410,598	-160,510	-0,116	-0,004
-409,584	-111,173	0,083	0,012
-408,569	-200,000	-0,018	0,194
-407,555	-200,000	-0,011	0,093
-406,540	800,000	0,036	-0,097
-405,525	800,000	0,038	-0,092
-404,511	-200,000	-0,001	-0,041
-403,496	158,669	0,087	-0,089
-402,482	73,507	0,046	0,036
-401,467	-153,128	0,070	0,004
-400,452	800,000	0,043	-0,116
-399,438	800,000	0,029	0,080
-398,423	-200,000	-0,031	0,130
-397,409	39,051	-0,070	-0,046
-396,394	82,392	-0,021	-0,017
-395,379	218,822	0,100	-0,118
-394,365	-162,961	-0,101	-0,004
-393,350	800,000	0,025	0,059
-392,336	800,000	0,025	0,057
-391,321	151,380	-0,075	0,075
-390,306	800,000	0,057	-0,130
-389,292	-200,000	0,014	0,094
-388,277	-85,000	-0,076	0,017
-387,263	111,595	0,089	-0,079
-386,248	-200,000	0,074	0,268
-385,233	501,915	0,025	0,043
-384,219	254,455	-0,021	0,026
-383,204	-175,588	-0,095	-0,002
-382,190	-7,844	-0,172	0,085
-381,175	-98,552	-0,113	0,021
-380,160	800,000	0,026	-0,064
-379,146	-131,717	0,087	0,008
-378,131	-200,000	-0,008	0,072
-377,117	-200,000	-0,035	-0,160
-376,102	-200,000	-0,056	-0,186
-375,088	800,000	-0,042	-0,087
-374,073	65,553	0,101	-0,075
-373,058	-200,000	-0,007	0,025
-372,044	-200,000	0,024	-0,179
-371,029	-128,680	0,062	-0,006
-370,015	-19,260	0,051	-0,023
-369,000	-200,000	0,040	0,132
-367,985	-134,124	-0,185	-0,017
-366,971	18,918	-0,100	-0,058
-365,956	68,663	0,089	0,067
-364,942	-4,093	0,110	0,056
-363,927	800,000	-0,023	0,046
-362,912	-200,000	-0,010	0,043
-361,898	-76,603	-0,028	0,007
-360,883	143,093	-0,022	-0,022
-359,869	268,809	0,033	0,043
-358,854	141,244	-0,087	-0,085
-357,839	-54,473	0,141	-0,047
-356,825	40,896	-0,040	0,027
-355,810	155,726	-0,067	0,068
-354,796	185,104	0,009	-0,010
-353,781	800,000	0,014	-0,034
-352,766	-200,000	0,009	-0,048
-351,752	-37,040	-0,113	0,044
-350,737	800,000	0,047	0,133
-349,723	38,477	-0,112	0,073
-348,708	-200,000	0,029	-0,109
-347,693	800,000	0,010	-0,031
-346,679	-200,000	0,001	-0,046
-345,664	-200,000	-0,008	-0,071
-344,650	-200,000	0,020	0,092
-343,635	-12,285	0,136	0,065
-342,620	-165,143	0,146	-0,005
-341,606	-200,000	0,011	-0,079
-340,591	-200,000	0,005	0,074
-339,577	114,860	0,062	-0,056
-338,562	13,381	0,053	-0,030
-337,548	-117,344	0,067	0,009
-336,533	800,000	0,049	-0,109
-335,518	458,755	-0,066	-0,108
-334,504	-58,044	0,045	-0,014
-333,489	-37,122	0,052	0,020
-332,475	-91,707	-0,069	0,014
-331,460	-4,816	-0,055	0,028
-330,445	-15,268	0,133	0,062
-329,431	8,414	0,070	-0,039
-328,416	122,991	0,122	0,112
-327,402	260,107	-0,025	-0,031
-326,387	800,000	-0,034	0,094
-325,372	-200,000	-0,005	-0,054
-324,358	-200,000	0,036	0,124
-323,343	800,000	0,049	0,107
-322,329	-200,000	0,007	0,064
-321,314	-127,967	0,064	-0,007
-320,299	-47,602	0,098	-0,035
-319,285	171,439	0,058	-0,061
-318,270	275,180	0,029	-0,037
-317,256	156,582	-0,064	-0,065
-316,241	199,809	0,019	-0,021
-315,226	103,421	0,168	0,145
-314,212	800,000	0,017	-0,035
-313,197	-200,000	-0,018	0,135
-312,183	-46,153	-0,159	-0,057
-311,168	-200,000	0,003	0,149
-310,153	-44,566	-0,101	0,037
-309,139	125,248	0,089	0,083
-308,124	-77,377	-0,058	0,015
-307,110	160,705	-0,021	0,021
-306,095	10,721	0,037	0,021
-305,080	800,000	0,008	0,019
-304,066	221,512	0,006	-0,007
-303,051	751,417	-0,060	-0,120
-302,037	-200,000	-0,034	-0,113
-301,022	-1,219	0,081	-0,042
-300,008	238,912	-0,063	0,077
-298,993	754,378	0,104	0,208
-297,978	-200,000	-0,004	-0,080
-296,964	800,000	0,062	0,181
-295,949	-18,781	-0,116	-0,052
-294,935	-99,117	0,074	-0,014
-293,920	-17,317	0,105	-0,048
-292,905	800,000	0,039	-0,097
-291,891	-58,377	0,091	-0,029
-290,876	177,579	-0,047	0,050
-289,862	800,000	0,062	-0,174
-288,847	-200,000	-0,004	-0,061
-287,832	208,599	-0,087	-0,100
-286,818	-13,034	0,101	-0,048
-285,803	492,234	0,005	0,009
-284,789	15,627	-0,175	0,101
-283,774	-121,743	0,130	-0,016
-282,759	800,000	0,045	-0,112
-281,745	-200,000	-0,032	0,121
-280,730	-200,000	-0,004	-0,092
-279,716	-200,000	-0,010	0,048
-278,701	-175,194	0,084	0,002
-277,686	-21,378	0,071	-0,031
-276,672	-200,000	0,004	0,126
-275,657	76,551	0,031	-0,024
-274,643	697,094	0,014	-0,027
-273,628	-200,000	0,006	0,101
-272,613	-41,357	0,099	-0,037
-271,599	361,797	-0,055	0,081
-270,584	-76,941	0,109	-0,028
-269,570	546,509	0,038	0,067
-268,555	33,782	-0,093	-0,059
-267,540	-140,556	0,091	-0,007
-266,526	8,413	0,091	-0,050
-265,511	-49,507	0,065	-0,023
-264,497	9,706	0,079	-0,044
-263,482	207,841	0,139	-0,159
-262,467	144,019	-0,092	0,090
-261,453	-50,246	0,115	-0,040
-260,438	-13,045	0,149	-0,070
-259,424	-100,411	-0,035	-0,006
-258,409	-136,716	0,086	-0,007
-257,395	343,205	-0,068	0,097
-256,380	-200,000	-0,013	-0,083
-255,365	-75,624	0,076	-0,020
-254,351	78,229	-0,030	-0,023
-253,336	-81,300	-0,061	0,015
-252,322	678,177	-0,001	0,003
-251,307	-200,000	0,006	0,118
-250,292	398,983	0,033	0,051
-249,278	106,453	-0,062	-0,054
-248,263	800,000	-0,028	-0,078
-247,249	-80,987	-0,128	0,031
-246,234	-76,767	-0,032	0,008
-245,219	-200,000	-0,003	0,025
-244,205	-104,876	-0,120	-0,020
-243,190	-200,000	0,005	-0,113
-242,176	-112,553	0,115	-0,017
-241,161	-71,436	-0,158	-0,043
-240,146	-16,579	0,087	0,040
-239,132	800,000	-0,036	0,090
-238,117	42,559	0,115	0,076
-237,103	800,000	-0,049	-0,126
-236,088	198,433	0,083	0,092
-235,073	-44,160	0,144	0,052
-234,059	-200,000	-0,008	0,068
-233,044	-200,000	0,005	0,146
-232,030	83,117	-0,036	0,029
-231,015	-57,279	0,108	-0,035
-230,000	189,596	-0,067	0,073
-228,986	189,663	0,023	0,025
-227,971	619,855	-0,040	0,074
-226,957	-33,203	-0,008	-0,003
-225,942	-200,000	0,007	0,092
-224,927	322,286	-0,087	0,122
-223,913	472,477	-0,020	-0,032
-222,898	-102,842	0,068	0,012
-221,884	450,572	0,063	0,102
-220,869	-10,729	0,037	-0,018
-219,855	404,395	0,054	-0,084
-218,840	132,448	0,041	0,039
-217,825	-48,428	-0,180	-0,063
-216,811	665,817	0,020	-0,037
-215,796	-200,000	-0,030	-0,116
-214,782	26,604	0,015	0,009
-213,767	422,304	0,044	0,069
-212,752	-200,000	-0,016	-0,069
-211,738	460,214	-0,025	0,040
-210,723	196,206	-0,091	-0,102
-209,709	3,316	0,083	0,044
-208,694	77,151	0,065	-0,051
-207,679	800,000	-0,090	-0,194
-206,665	348,849	-0,025	0,036
-205,650	95,611	0,116	-0,096
-204,636	-200,000	-0,033	0,194
-203,621	-200,000	0,013	-0,074
-202,606	-133,071	-0,038	-0,003
-201,592	80,890	-0,088	-0,069
-200,577	-95,986	-0,090	0,017
-199,563	159,672	-0,075	0,076
-198,548	-200,000	0,138	0,000
-197,533	-16,604	0,063	-0,029
-196,519	23,596	-0,017	-0,010
-195,504	-132,073	0,102	-0,010
-194,490	8,185	0,071	-0,039
-193,475	369,151	0,082	-0,122
-192,460	800,000	-0,017	-0,038
-191,446	-200,000	0,003	-0,040
-190,431	-18,998	-0,093	0,042
-189,417	800,000	0,046	0,126
-188,402	372,627	-0,013	-0,019
-187,387	710,044	-0,053	-0,102
-186,373	-97,863	-0,093	-0,017
-185,358	22,764	0,052	-0,031
-184,344	800,000	-0,029	-0,085
-183,329	-109,598	0,005	-0,001
-182,315	-200,000	-0,001	0,082
-181,300	522,909	0,054	-0,093
-180,285	800,000	-0,049	0,133
-179,271	-200,000	-0,012	0,054
-178,256	-77,889	-0,029	-0,007
-177,242	21,260	0,195	0,115
-176,227	-200,000	-0,004	0,147
-175,212	545,818	-0,012	0,021
-174,198	20,249	-0,016	-0,010
-173,183	-200,000	0,035	0,237
-172,169	-69,054	-0,067	-0,019
-171,154	-200,000	-0,022	0,090
-170,139	127,836	0,089	0,082
-169,125	5,079	0,064	0,034
-168,110	-58,002	-0,101	-0,032
-167,096	-184,075	-0,096	-0,001
-166,081	-16,925	0,081	-0,037
-165,066	-87,727	-0,147	-0,032
-164,052	24,989	-0,002	-0,001
-163,037	417,122	0,028	0,043
-162,023	-200,000	0,010	0,087
-161,008	537,200	0,065	0,114
-159,993	-61,738	-0,051	-0,015
-158,979	86,448	0,018	-0,014
-157,964	-118,847	-0,129	-0,016
-156,950	19,057	-0,101	-0,059
-155,935	-200,000	0,003	-0,039
-154,920	-175,490	0,086	0,002
-153,906	-200,000	-0,035	0,129
-152,891	-76,045	-0,105	-0,027
-151,877	-200,000	0,021	0,094
-150,862	-121,577	-0,181	0,022
-149,847	-6,973	0,110	0,054
-148,833	7,259	-0,045	0,024
-147,818	15,044	-0,066	-0,038
-146,804	345,042	-0,034	0,049
-145,789	-200,000	0,010	0,069
-144,775	-200,000	-0,018	-0,068
-143,760	446,111	0,090	-0,145
-142,745	2,583	-0,072	-0,038
-141,731	-11,948	-0,095	0,045
-140,716	-51,143	0,091	0,031
-139,702	-137,942	0,066	0,005
-138,687	800,000	-0,033	0,072
-137,672	187,982	-0,070	0,076
-136,658	-200,000	-0,024	-0,078
-135,643	240,333	0,028	-0,034
-134,629	431,594	-0,045	0,072
-133,614	288,743	0,119	0,157
-132,599	-200,000	0,009	-0,044
-131,585	-200,000	-0,005	0,075
-130,570	-100,399	-0,058	0,010
-129,556	79,020	0,111	-0,087
-128,541	145,949	-0,121	0,118
-127,526	492,037	-0,065	0,108
-126,512	642,917	0,029	0,054
-125,497	364,781	-0,032	0,047
-124,483	43,875	0,102	0,068
-123,468	670,029	-0,036	-0,069
-122,453	-88,091	-0,078	0,017
-121,439	-200,000	-0,034	0,116
-120,424	-200,000	0,006	-0,044
-119,410	-37,979	0,097	0,037
-118,395	49,706	-0,096	-0,066
-117,380	466,829	-0,090	0,147
-116,366	-200,000	-0,002	-0,067
-115,351	-200,000	0,000	0,017
-114,337	436,159	-0,039	-0,063
-113,322	-98,961	-0,031	0,006
-112,307	-200,000	-0,018	-0,057
-111,293	-25,637	-0,101	-0,043
-110,278	800,000	-0,067	-0,135
-109,264	196,634	-0,033	-0,037
-108,249	146,901	-0,061	-0,059
-107,234	800,000	-0,041	-0,106
-106,220	800,000	0,043	0,093
-105,205	-39,379	0,118	0,045
-104,191	-136,380	0,055	-0,005
-103,176	-200,000	-0,021	0,097
-102,162	-200,000	0,006	0,163
-101,147	800,000	0,013	0,027
-100,132	32,661	-0,107	-0,067
-99,118	-76,713	-0,123	-0,031
-98,103	800,000	-0,021	-0,058
-97,089	44,841	0,066	-0,044
-96,074	-107,654	0,060	-0,009
-95,059	299,992	-0,046	-0,061
-94,045	-15,735	0,115	-0,053
-93,030	26,696	-0,092	-0,056
-92,016	171,488	0,047	0,049
-91,001	-118,506	-0,120	-0,015
-89,986	301,628	0,097	-0,130
-88,972	-200,000	-0,016	-0,062
-87,957	-200,000	-0,015	-0,051
-86,943	-200,000	-0,015	-0,108
-85,928	800,000	-0,011	-0,032
-84,913	-14,855	0,057	-0,027
-83,899	-200,000	0,005	0,103
-82,884	-200,000	0,004	-0,103
-81,870	517,256	-0,031	-0,053
-80,855	-34,113	-0,025	0,010
-79,840	-200,000	-0,033	0,122
-78,826	-0,945	-0,118	0,060
-77,811	223,909	0,042	-0,049
-76,797	349,906	-0,009	-0,013
-75,782	-132,458	0,094	-0,009
-74,767	162,825	0,106	-0,108
-73,753	120,830	0,015	-0,014
-72,738	-200,000	-0,000	-0,091
-71,724	80,154	-0,034	-0,026
-70,709	800,000	-0,031	-0,090
-69,694	10,828	0,079	0,043
-68,680	255,757	0,047	-0,058
-67,665	591,944	-0,094	0,168
-66,651	-200,000	0,009	0,248
-65,636	700,611	0,075	0,144
-64,622	607,245	-0,037	-0,067
-63,607	800,000	0,020	0,042
-62,592	800,000	-0,007	0,018
-61,578	-48,377	0,115	0,040
-60,563	537,439	0,026	0,044
-59,549	323,722	-0,035	0,048
-58,534	-131,381	-1,335	-0,126
-57,519	800,000	-0,777	-1,569
-56,505	-200,000	-0,865	-4,532
-55,490	142,151	0,495	-0,477
-54,476	800,000	5,049	11,871
-53,461	-200,000	13,388	253,174
-52,446	-200,000	688,921	2268,424
-51,432	595,981	1622,860	2926,988
-50,417	120,886	1636,153	1476,361
-49,403	73,680	1290,156	979,738
-48,388	38,447	1025,118	661,522
-47,373	24,563	982,602	588,416
-46,359	23,770	972,416	579,690
-45,344	22,852	968,034	574,056
-44,330	22,714	966,804	572,851
-43,315	22,626	965,226	571,607
-42,300	22,617	964,309	571,010
-41,286	22,654	963,328	570,529
-40,271	22,667	962,164	569,859
-39,257	22,608	961,368	569,174
-38,242	22,627	960,418	568,651
-37,227	22,593	959,576	568,020
-36,213	22,577	958,702	567,426
-35,198	22,503	958,088	566,801
-34,184	22,621	957,319	566,705
-33,169	22,589	956,492	566,090
-32,154	22,609	955,495	565,542
-31,140	22,661	954,395	565,037
-30,125	22,685	953,662	564,656
-29,111	22,647	952,926	564,075
-28,096	22,607	952,354	563,588
-27,082	22,637	951,504	563,159
-26,067	22,607	950,862	562,658
-25,052	22,689	949,938	562,354
-24,038	22,630	949,407	561,827
-23,023	22,616	948,868	561,442
-22,009	22,682	948,082	561,164
-20,994	22,665	947,459	560,721
-19,979	22,662	946,934	560,378
-18,965	22,580	946,439	559,800
-17,950	22,604	945,736	559,440
-16,936	22,621	945,013	559,042
-15,921	22,628	944,183	558,552
-14,906	22,525	943,718	557,928
-13,892	22,560	942,947	557,560
-12,877	22,463	942,552	556,996
-11,863	22,538	941,699	556,707
-10,848	22,484	941,205	556,221
-9,833	22,602	940,853	556,367
-8,819	22,544	940,165	555,754
-7,804	22,491	939,287	555,046
-6,790	22,518	938,865	554,858
-5,775	22,568	938,087	554,535
-4,760	22,511	937,609	554,049
-3,746	22,547	936,920	553,736
-2,731	22,401	936,338	552,909
-1,717	22,314	935,616	552,185
-0,702	22,316	934,820	551,699
0,313	22,137	934,278	551,648
1,327	25,245	932,190	560,144
2,342	34,819	796,671	504,221
3,356	32,785	451,807	282,863
4,371	1,816	293,635	152,960
5,386	-2,643	274,574	138,802
6,400	-4,046	268,763	134,551
7,415	-4,563	266,388	132,875
8,429	-4,153	265,030	132,561
9,444	-4,386	264,417	132,030
10,459	-4,292	263,611	131,702
11,473	-4,339	263,049	131,366
12,488	-4,221	262,518	131,196
13,502	-4,431	262,005	130,738
14,517	-4,549	261,668	130,452
15,531	-4,446	261,201	130,301
16,546	-4,349	260,797	130,174
17,561	-4,409	260,645	130,033
18,575	-4,258	260,088	129,879
19,590	-4,340	259,693	129,597
20,604	-4,293	259,655	129,608
21,619	-4,425	259,166	129,235
22,634	-4,320	258,961	129,215
23,648	-4,473	258,481	128,827
24,663	-4,413	258,373	128,815
25,677	-4,322	257,970	128,684
26,692	-4,466	257,836	128,478
27,707	-4,407	257,678	128,440
28,721	-4,415	257,329	128,248
29,736	-4,403	257,028	128,097
30,750	-4,340	256,732	127,994
31,765	-4,393	256,615	127,877
32,780	-4,373	256,312	127,732
33,794	-4,446	256,214	127,608
34,809	-4,348	255,674	127,413
35,823	-4,537	255,708	127,252
36,838	-4,645	255,566	127,076
37,853	-4,518	255,107	126,947
38,867	-4,335	254,965	127,026
39,882	-4,542	254,846	126,774
40,896	-4,330	254,516	126,785
41,911	-4,387	254,186	126,559
42,926	-4,523	254,063	126,367
43,940	-4,363	253,801	126,366
44,955	-4,440	253,511	126,143
45,969	-4,749	253,412	125,813
46,984	-4,606	252,998	125,721
47,999	-4,868	252,958	125,461
49,013	-5,156	252,525	124,985
50,028	-5,314	252,546	124,847
51,042	-5,286	252,117	124,649
52,057	-5,314	251,804	124,459
53,071	-5,294	251,719	124,422
54,086	-5,138	251,705	124,540
55,101	-5,074	251,440	124,453
56,115	-4,652	251,259	124,716
57,130	-4,383	251,163	124,890
58,144	-4,252	250,992	124,907
59,159	-4,244	250,838	124,825
60,174	-4,333	250,582	124,611
61,188	-4,321	250,474	124,556
62,203	-4,404	250,292	124,384
63,217	-4,300	249,996	124,315
64,232	-4,454	249,778	124,062
65,247	-4,431	249,462	123,914
66,261	-4,316	249,300	123,922
67,276	-4,251	248,880	123,757
68,290	-4,663	248,834	123,371
69,305	-4,671	248,492	123,184
70,320	-4,816	248,548	123,077
71,334	-4,577	248,435	123,213
72,349	-4,519	248,169	123,120
73,363	-4,238	247,975	123,252
74,378	-4,304	247,806	123,101
75,393	-4,486	247,662	122,864
76,407	-4,503	247,505	122,761
77,422	-4,368	247,183	122,704
78,436	-4,256	247,108	122,751
79,451	-4,310	246,810	122,546
80,466	-4,423	246,546	122,309
81,480	-4,605	246,361	122,052
82,495	-4,584	246,103	121,931
83,509	-4,610	246,012	121,853
84,524	-4,656	245,724	121,662
85,539	-4,800	245,477	121,407
86,553	-4,875	245,372	121,281
87,568	-4,685	245,147	121,318
88,582	-4,561	244,896	121,287
89,597	-4,750	244,698	121,020
90,611	-4,529	244,693	121,192
91,626	-4,565	244,607	121,109
92,641	-4,264	244,288	121,192
93,655	-4,514	244,255	120,956
94,670	-4,585	243,930	120,725
95,684	-4,598	243,783	120,631
96,699	-4,423	243,544	120,648
97,714	-4,493	243,201	120,408
98,728	-4,601	243,138	120,276
99,743	-4,765	242,949	120,035
100,757	-4,829	242,777	119,887
101,772	-4,673	242,653	119,944
102,787	-4,577	242,415	119,896
103,801	-4,636	242,316	119,787
104,816	-4,506	242,190	119,822
105,830	-4,309	241,964	119,863
106,845	-4,272	241,850	119,826
107,860	-4,474	241,679	119,564
108,874	-4,615	241,468	119,332
109,889	-4,574	241,203	119,224
110,903	-4,603	241,058	119,118
111,918	-4,541	240,938	119,100
112,933	-4,553	240,647	118,935
113,947	-4,494	240,549	118,925
114,962	-4,360	240,384	118,943
115,976	-4,455	240,148	118,737
116,991	-4,452	240,048	118,680
118,006	-4,338	239,742	118,611
119,020	-4,487	239,522	118,370
120,035	-4,427	239,544	118,420
121,049	-4,360	239,503	118,443
122,064	-4,409	239,159	118,223
123,079	-4,482	239,017	118,082
124,093	-4,454	238,747	117,961
125,108	-4,699	238,639	117,697
126,122	-4,945	238,426	117,381
127,137	-4,676	238,082	117,420
128,151	-4,820	238,017	117,261
129,166	-4,785	237,978	117,260
130,181	-4,784	237,646	117,087
131,195	-4,830	237,421	116,928
132,210	-4,552	237,339	117,102
133,224	-4,454	237,214	117,110
134,239	-4,468	236,970	116,967
135,254	-4,338	236,850	117,002
136,268	-4,570	236,632	116,697
137,283	-4,761	236,380	116,408
138,297	-4,817	236,281	116,304
139,312	-4,835	236,019	116,150
140,327	-4,660	235,971	116,257
141,341	-4,289	235,886	116,503
142,356	-4,159	235,833	116,571
143,370	-4,058	235,663	116,558
144,385	-4,308	235,581	116,307
145,400	-4,063	235,241	116,324
146,414	-3,874	235,036	116,364
147,429	-4,162	234,946	116,079
148,443	-4,048	234,757	116,067
149,458	-4,310	234,562	115,750
150,473	-4,249	234,566	115,790
151,487	-4,212	234,227	115,643
152,502	-4,146	234,057	115,601
153,516	-4,220	234,026	115,516
154,531	-4,170	233,754	115,412
155,546	-4,204	233,625	115,310
156,560	-4,268	233,355	115,116
157,575	-4,412	233,183	114,906
158,589	-4,261	233,060	114,956
159,604	-4,052	232,989	115,076
160,619	-3,939	232,765	115,045
161,633	-3,885	232,550	114,971
162,648	-4,084	232,539	114,798
163,662	-4,123	232,398	114,687
164,677	-4,099	232,111	114,554
165,692	-4,118	232,040	114,494
166,706	-4,208	231,921	114,354
167,721	-3,720	231,582	114,561
168,735	-3,928	231,525	114,359
169,750	-4,198	231,527	114,137
170,764	-4,116	231,349	114,103
171,779	-4,055	231,169	114,052
172,794	-4,107	231,244	114,039
173,808	-4,186	230,805	113,750
174,823	-4,692	230,509	113,197
175,837	-4,854	230,405	113,009
176,852	-4,465	230,247	113,226
177,867	-4,225	230,256	113,408
178,881	-4,045	230,017	113,421
179,896	-3,975	229,971	113,443
180,910	-4,115	229,784	113,231
181,925	-4,217	229,663	113,082
182,940	-3,944	229,343	113,127
183,954	-4,095	229,387	113,021
184,969	-4,030	229,076	112,908
185,983	-3,955	228,976	112,908
186,998	-3,888	228,840	112,882
188,013	-3,947	228,658	112,736
189,027	-3,961	228,518	112,647
190,042	-3,893	228,244	112,554
191,056	-3,767	228,078	112,560
192,071	-4,006	228,134	112,392
193,086	-4,172	227,963	112,169
194,100	-3,986	227,797	112,222
195,115	-4,270	227,431	111,812
196,129	-4,611	227,327	111,488
197,144	-1,830	228,086	114,001
198,159	1,706	229,181	117,282
199,173	3,745	229,606	119,071
200,188	3,979	229,677	119,279
201,202	4,119	229,442	119,254
202,217	4,586	229,215	119,487
203,232	4,340	229,276	119,318
204,246	4,644	229,191	119,498
205,261	4,507	228,995	119,280
206,275	4,550	228,933	119,270
207,290	4,933	228,703	119,435
208,304	4,806	228,559	119,251
209,319	4,975	228,261	119,215
210,334	4,648	228,143	118,891
211,348	4,515	227,925	118,665
212,363	4,167	227,601	118,218
213,377	3,919	227,385	117,905
214,392	3,856	227,365	117,836
215,407	4,052	226,997	117,785
216,421	4,052	226,939	117,744
217,436	3,944	226,757	117,557
218,450	3,746	226,567	117,296
219,465	3,770	226,474	117,257
220,480	3,811	226,359	117,218
221,494	3,800	226,158	117,095
222,509	3,881	226,032	117,081
223,523	3,928	225,864	117,019
224,538	3,827	225,710	116,852
225,553	3,985	225,562	116,885
226,567	3,979	225,624	116,902
227,582	4,049	225,559	116,912
228,596	4,237	225,381	116,951
229,611	4,078	225,137	116,693
230,626	3,835	224,757	116,303
231,640	3,879	224,673	116,283
232,655	4,226	224,754	116,576
233,669	4,432	224,685	116,686
234,684	4,786	224,517	116,855
235,699	4,543	224,405	116,604
236,713	4,260	224,066	116,204
237,728	4,023	223,884	115,920
238,742	3,974	223,602	115,727
239,757	3,750	223,588	115,541
240,772	4,055	223,398	115,661
241,786	3,909	223,348	115,516
242,801	4,130	223,281	115,636
243,815	4,106	223,225	115,579
244,830	4,404	222,912	115,630
245,844	3,968	222,838	115,255
246,859	3,921	222,691	115,133
247,874	4,270	222,518	115,295
248,888	4,284	222,383	115,225
249,903	4,124	222,191	114,996
250,917	3,951	222,000	114,758
251,932	4,048	221,901	114,768
252,947	3,904	221,654	114,523
253,961	3,759	221,615	114,385
254,976	3,882	221,616	114,466
255,990	4,097	221,309	114,458
257,005	4,112	221,184	114,394
258,020	4,250	221,121	114,454
259,034	4,453	220,982	114,523
260,049	4,287	220,864	114,328
261,063	4,133	220,634	114,085
262,078	4,336	220,444	114,126
263,093	4,390	220,521	114,196
264,107	4,225	220,327	113,963
265,122	4,262	220,104	113,865
266,136	4,330	220,191	113,950
267,151	4,451	219,845	113,850
268,166	4,061	219,634	113,443
269,180	3,697	219,393	113,040
270,195	3,629	219,394	112,981
271,209	4,055	219,023	113,093
272,224	4,003	219,061	113,065
273,239	4,065	218,905	113,019
274,253	3,702	218,702	112,638
275,268	3,632	218,564	112,506
276,282	3,621	218,410	112,409
277,297	3,764	218,232	112,411
278,312	3,766	218,173	112,373
279,326	3,817	218,072	112,348
280,341	3,776	217,929	112,234
281,355	3,994	217,721	112,276
282,370	3,960	217,571	112,164
283,384	3,672	217,416	111,864
284,399	3,810	217,134	111,809
285,414	3,713	217,150	111,737
286,428	3,826	217,132	111,800
287,443	4,036	217,084	111,918
288,457	4,080	216,886	111,838
289,472	3,947	216,763	111,668
290,487	3,569	216,341	111,167
291,501	3,411	216,188	110,964
292,516	3,415	216,106	110,915
293,530	3,629	215,971	110,990
294,545	3,505	215,819	110,813
295,560	3,863	215,676	110,988
296,574	3,870	215,587	110,938
297,589	4,118	215,447	111,034
298,603	4,172	215,433	111,056
299,618	3,949	215,294	110,814
300,633	4,177	215,099	110,868
301,647	4,110	215,048	110,784
302,662	4,295	214,887	110,823
303,676	4,183	214,812	110,694
304,691	4,045	214,588	110,470
305,706	4,051	214,584	110,463
306,720	4,112	214,374	110,388
307,735	4,078	214,199	110,264
308,749	3,918	214,042	110,058
309,764	4,053	213,952	110,099
310,779	4,383	213,837	110,266
311,793	4,073	213,645	109,936
312,808	4,159	213,505	109,916
313,822	4,141	213,424	109,851
314,837	4,235	213,098	109,741
315,852	3,933	212,885	109,406
316,866	3,906	212,948	109,410
317,881	4,100	212,924	109,526
318,895	4,080	212,722	109,398
319,910	3,936	212,521	109,183
320,925	3,667	212,238	108,837
321,939	3,424	212,170	108,620
322,954	3,630	212,015	108,677
323,968	3,999	212,006	108,924
324,983	4,114	211,863	108,921
325,997	4,072	211,797	108,848
327,012	3,933	211,655	108,667
328,027	4,116	211,398	108,655
329,041	4,430	211,411	108,873
330,056	4,274	211,354	108,725
331,070	3,794	211,086	108,238
332,085	3,587	210,804	107,938
333,100	3,746	210,790	108,034
334,114	3,754	210,600	107,933
335,129	4,073	210,347	108,017
336,143	3,896	210,331	107,875
337,158	4,049	210,192	107,902
338,173	4,012	210,127	107,832
339,187	3,715	209,867	107,482
340,202	3,691	209,794	107,418
341,216	3,473	209,630	107,172
342,231	3,687	209,493	107,242
343,246	3,633	209,348	107,120
344,260	3,637	209,321	107,099
345,275	3,865	209,209	107,192
346,289	4,023	209,030	107,200
347,304	4,143	208,820	107,167
348,319	3,872	208,784	106,950
349,333	3,891	208,683	106,902
350,348	3,992	208,484	106,861
351,362	3,865	208,393	106,717
352,377	3,943	208,310	106,718
353,392	3,980	208,084	106,619
354,406	4,134	207,993	106,669
355,421	193,812	1344,794	1432,830
356,435	154,626	1483,408	1432,955
