DTS Sentinel unit serial number:	SN410029Multiplexer serial number:	ORYXHardware model number:	OX2-SRSoftware version number:	ORYX F/W v4,00 Oryx Data Collector v3.7.2.0data status	okinstallation	B6 Nyhavnadifferential loss correction	single-endedforward channel	channel 2reverse channel	N/Adate	2023/12/10time	17:00:08forward acquisition time	300,00reverse acquisition time	0,00gamma	499,1914k internal	0,3123k external	0,3123temperature offset calibration	1,0000default loss term (dB/km)	0,3820temperature slope calibration	1,0000multiplexer offset coefficient	1,0000multiplexer slope coefficient	1,0000fibre end	0,00T internal ref (°C)	22,40T ext. ref 1 (°C)	6,15T ext. ref 2 (°C)	6,18length (m)	temperature (°C)	Stokes	anti-Stokes-744,400	-77,901	0,115	-0,029
-743,385	-167,911	-0,224	0,006
-742,371	732,012	0,016	0,031
-741,356	6,450	-0,224	0,124
-740,342	-200,000	-0,028	-0,108
-739,327	-170,666	-0,272	-0,007
-738,312	8,158	-0,083	-0,046
-737,298	-121,066	-0,306	0,038
-736,283	224,535	0,017	-0,021
-735,269	7,556	-0,172	0,095
-734,254	-19,628	0,051	-0,023
-733,239	38,457	-0,333	-0,221
-732,225	-36,240	0,098	0,039
-731,210	71,583	-0,065	-0,050
-730,196	800,000	0,015	-0,043
-729,181	149,818	-0,052	0,053
-728,167	800,000	0,064	-0,138
-727,152	800,000	-0,047	0,143
-726,137	800,000	-0,068	0,158
-725,123	-20,906	-0,162	0,074
-724,108	-36,644	-0,094	-0,037
-723,094	800,000	-0,029	-0,093
-722,079	122,446	-0,078	0,073
-721,064	-200,000	0,002	-0,091
-720,050	-65,607	-0,098	-0,029
-719,035	111,197	0,021	0,019
-718,021	426,722	-0,039	0,063
-717,006	258,414	-0,091	0,117
-715,991	631,366	0,078	-0,147
-714,977	-157,493	-0,146	0,006
-713,962	-30,612	-0,135	-0,056
-712,948	-52,255	0,062	-0,021
-711,933	-113,351	-0,080	0,012
-710,918	-120,035	-0,104	0,013
-709,904	-17,594	-0,073	-0,034
-708,889	-81,495	-0,158	-0,039
-707,875	-54,507	-0,122	-0,041
-706,860	-49,235	0,129	-0,046
-705,845	-55,164	0,093	-0,031
-704,831	-144,433	0,115	0,008
-703,816	-200,000	-0,005	0,035
-702,802	149,205	-0,046	-0,046
-701,787	105,399	-0,072	-0,063
-700,772	-200,000	-0,016	-0,173
-699,758	-141,923	0,047	-0,003
-698,743	-200,000	0,023	-0,130
-697,729	353,583	0,158	-0,235
-696,714	-62,218	0,039	-0,012
-695,699	147,610	-0,144	-0,144
-694,685	-65,673	-0,123	0,037
-693,670	-86,958	-0,061	0,014
-692,656	-175,220	0,100	-0,002
-691,641	121,554	-0,081	-0,076
-690,627	-200,000	0,017	0,065
-689,612	800,000	0,008	-0,018
-688,597	-200,000	-0,007	0,027
-687,583	-52,666	-0,136	-0,046
-686,568	63,234	0,045	0,034
-685,554	46,475	0,040	-0,027
-684,539	294,173	-0,075	0,102
-683,524	-161,758	0,096	-0,004
-682,510	-200,000	-0,001	-0,039
-681,495	-200,000	0,014	-0,053
-680,481	32,522	-0,082	-0,053
-679,466	555,104	0,057	-0,102
-678,451	-18,382	-0,057	-0,026
-677,437	241,533	-0,061	0,076
-676,422	-200,000	-0,003	0,035
-675,408	-200,000	-0,007	-0,055
-674,393	-93,026	-0,075	0,015
-673,378	-143,591	0,065	-0,005
-672,364	800,000	-0,017	-0,050
-671,349	161,756	0,025	-0,026
-670,335	209,699	0,022	-0,025
-669,320	800,000	-0,018	-0,057
-668,305	-137,597	0,091	-0,008
-667,291	-58,681	-0,176	0,056
-666,276	-128,210	-0,193	0,020
-665,262	-200,000	-0,003	-0,122
-664,247	-200,000	0,016	-0,094
-663,232	82,425	0,074	0,060
-662,218	-24,911	0,076	0,033
-661,203	800,000	0,053	0,110
-660,189	800,000	0,063	-0,152
-659,174	-111,374	-0,081	-0,012
-658,159	479,460	-0,033	-0,056
-657,145	348,763	0,047	0,069
-656,130	515,213	-0,039	-0,068
-655,116	386,335	0,070	0,107
-654,101	82,947	0,025	0,021
-653,086	39,442	-0,008	0,006
-652,072	-28,933	0,132	-0,056
-651,057	-200,000	-0,001	-0,120
-650,043	29,788	-0,056	-0,035
-649,028	118,058	0,016	0,014
-648,014	209,637	0,048	0,057
-646,999	-127,419	-0,076	0,008
-645,984	800,000	0,047	-0,117
-644,970	-136,410	0,058	-0,005
-643,955	-9,580	-0,115	-0,057
-642,941	-42,133	-0,090	-0,034
-641,926	235,490	0,066	-0,081
-640,911	447,468	0,017	0,027
-639,897	64,918	-0,077	-0,058
-638,882	-23,703	-0,045	-0,020
-637,868	-200,000	-0,008	0,100
-636,853	-22,421	-0,077	0,035
-635,838	-88,811	0,079	-0,017
-634,824	-41,068	-0,131	-0,050
-633,809	-177,127	-0,069	-0,001
-632,795	-200,000	0,012	-0,105
-631,780	-63,578	-0,108	0,033
-630,765	-200,000	0,004	0,108
-629,751	124,072	0,070	0,065
-628,736	297,743	-0,050	-0,069
-627,722	-200,000	-0,042	-0,146
-626,707	-31,106	0,059	-0,025
-625,692	-200,000	0,001	0,013
-624,678	-117,694	0,025	-0,003
-623,663	800,000	0,037	0,078
-622,649	-11,425	-0,210	-0,102
-621,634	-200,000	0,003	0,058
-620,619	-5,510	-0,163	-0,083
-619,605	-131,329	0,156	0,015
-618,590	800,000	0,036	-0,074
-617,576	122,119	0,063	-0,059
-616,561	-123,831	-0,180	0,021
-615,546	800,000	0,041	-0,092
-614,532	-200,000	-0,002	-0,085
-613,517	800,000	-0,046	-0,118
-612,503	672,155	0,039	-0,075
-611,488	-128,202	0,106	-0,011
-610,474	-200,000	0,024	0,079
-609,459	419,614	0,036	-0,057
-608,444	226,870	-0,053	0,064
-607,430	173,440	-0,040	-0,043
-606,415	164,319	-0,029	0,030
-605,401	30,942	-0,131	0,083
-604,386	-170,865	0,169	-0,004
-603,371	143,022	-0,047	0,046
-602,357	95,722	0,034	0,029
-601,342	-117,308	-0,165	0,022
-600,328	800,000	-0,044	-0,125
-599,313	-128,436	-0,117	0,012
-598,298	332,178	-0,050	-0,072
-597,284	388,225	0,041	-0,064
-596,269	178,591	-0,107	0,116
-595,255	-200,000	0,007	-0,104
-594,240	-200,000	-0,028	-0,128
-593,225	207,533	-0,052	-0,060
-592,211	187,084	-0,050	0,055
-591,196	-200,000	-0,034	-0,143
-590,182	173,837	0,059	-0,063
-589,167	800,000	-0,036	-0,079
-588,152	5,017	-0,122	0,067
-587,138	-99,288	-0,040	-0,007
-586,123	800,000	-0,019	0,045
-585,109	-37,763	-0,126	0,049
-584,094	-137,310	0,070	-0,006
-583,079	86,991	0,040	-0,033
-582,065	-34,311	0,068	0,028
-581,050	162,405	-0,033	0,034
-580,036	-200,000	-0,006	-0,145
-579,021	-200,000	0,007	-0,072
-578,006	-200,000	-0,028	-0,117
-576,992	-104,855	0,068	0,011
-575,977	-200,000	0,008	0,029
-574,963	80,729	-0,142	0,113
-573,948	400,192	-0,027	-0,042
-572,934	-200,000	-0,008	-0,088
-571,919	118,812	-0,087	-0,080
-570,904	-2,574	0,120	-0,062
-569,890	-146,192	0,017	-0,001
-568,875	-68,248	0,071	-0,020
-567,861	-200,000	0,000	0,068
-566,846	614,281	0,067	0,125
-565,831	44,099	-0,115	0,078
-564,817	68,734	-0,089	-0,067
-563,802	184,784	-0,092	-0,101
-562,788	-123,932	-0,173	-0,020
-561,773	-40,489	-0,072	0,028
-560,758	-200,000	-0,006	-0,101
-559,744	-200,000	0,027	0,113
-558,729	800,000	0,006	-0,016
-557,715	-200,000	-0,021	0,074
-556,700	27,812	-0,068	-0,043
-555,685	111,054	-0,092	0,082
-554,671	-37,690	0,096	-0,038
-553,656	84,215	-0,088	0,071
-552,642	408,505	0,058	-0,091
-551,627	213,210	-0,053	-0,062
-550,612	800,000	-0,017	-0,054
-549,598	192,113	-0,084	-0,094
-548,583	324,859	-0,006	0,008
-547,569	-200,000	0,040	-0,157
-546,554	-200,000	-0,026	-0,097
-545,539	-117,064	0,091	-0,012
-544,525	-200,000	0,011	0,143
-543,510	800,000	-0,030	-0,073
-542,496	-200,000	0,002	-0,061
-541,481	-101,891	0,081	-0,014
-540,466	-120,403	-0,019	0,002
-539,452	-161,553	0,093	0,003
-538,437	70,890	0,062	-0,047
-537,423	-129,525	-0,115	0,012
-536,408	-200,000	0,005	-0,033
-535,393	-200,000	0,019	-0,113
-534,379	-200,000	0,003	-0,065
-533,364	-99,375	0,093	-0,017
-532,350	-102,002	0,054	-0,009
-531,335	800,000	0,038	0,110
-530,321	800,000	0,023	0,051
-529,306	371,187	0,052	0,079
-528,291	201,832	-0,115	-0,131
-527,277	679,458	0,030	-0,057
-526,262	585,782	0,024	-0,043
-525,248	-49,885	0,085	0,030
-524,233	800,000	0,042	-0,131
-523,218	319,212	-0,025	-0,035
-522,204	-200,000	0,040	0,206
-521,189	-69,917	-0,085	-0,024
-520,175	800,000	-0,041	0,095
-519,160	-200,000	0,004	-0,047
-518,145	-41,950	0,098	0,037
-517,131	-200,000	0,032	-0,138
-516,116	-45,334	-0,052	-0,019
-515,102	-200,000	-0,002	0,097
-514,087	279,712	-0,008	0,011
-513,072	-200,000	0,015	-0,080
-512,058	190,248	-0,032	-0,035
-511,043	-50,490	-0,063	0,022
-510,029	29,975	0,180	0,113
-509,014	37,449	-0,074	0,049
-507,999	413,363	0,056	0,088
-506,985	-49,384	-0,146	-0,051
-505,970	-200,000	-0,026	-0,127
-504,956	387,687	-0,070	0,107
-503,941	-99,855	-0,113	0,021
-502,926	-82,746	0,202	-0,048
-501,912	608,289	0,028	-0,052
-500,897	268,369	0,028	0,036
-499,883	-26,784	-0,099	0,042
-498,868	-55,150	-0,089	-0,029
-497,853	101,112	-0,057	-0,049
-496,839	25,525	-0,123	-0,076
-495,824	128,960	0,083	0,078
-494,810	-6,740	-0,118	0,059
-493,795	78,810	-0,126	0,100
-492,781	-200,000	-0,006	-0,047
-491,766	19,112	-0,118	0,069
-490,751	-200,000	0,000	-0,092
-489,737	3,351	-0,154	0,083
-488,722	-82,513	0,120	-0,029
-487,708	-200,000	0,013	0,063
-486,693	-200,000	-0,001	0,069
-485,678	-200,000	-0,039	0,163
-484,664	-162,678	0,100	-0,004
-483,649	-123,079	-0,037	0,004
-482,635	-51,687	0,098	0,033
-481,620	43,442	0,082	-0,055
-480,605	121,876	0,014	-0,013
-479,591	35,259	0,068	-0,044
-478,576	-51,529	0,054	-0,018
-477,562	3,794	-0,081	-0,044
-476,547	-48,205	-0,075	-0,027
-475,532	22,842	-0,057	0,035
-474,518	-4,624	0,041	-0,021
-473,503	218,455	-0,021	-0,024
-472,489	560,315	0,034	0,060
-471,474	800,000	0,036	-0,082
-470,459	800,000	-0,032	0,090
-469,445	-200,000	-0,007	0,147
-468,430	137,333	-0,043	-0,041
-467,416	-38,547	0,157	0,061
-466,401	129,910	0,062	-0,058
-465,386	800,000	0,023	0,071
-464,372	-103,511	0,050	-0,009
-463,357	-111,404	0,090	-0,013
-462,343	68,774	-0,073	0,055
-461,328	277,142	0,036	0,047
-460,313	-135,473	0,037	-0,003
-459,299	-155,170	0,179	-0,008
-458,284	119,131	-0,009	-0,009
-457,270	-200,000	0,006	0,026
-456,255	-200,000	-0,005	0,094
-455,241	800,000	-0,064	0,135
-454,226	83,572	0,089	0,071
-453,211	17,641	0,053	-0,031
-452,197	-67,342	0,115	-0,033
-451,182	-109,231	0,147	0,023
-450,168	339,389	0,057	0,082
-449,153	749,664	0,052	0,105
-448,138	438,028	0,054	0,087
-447,124	67,400	-0,059	-0,044
-446,109	-27,897	0,107	-0,046
-445,095	143,431	-0,069	0,068
-444,080	124,673	0,057	0,053
-443,065	800,000	-0,073	0,203
-442,051	-143,331	-0,220	-0,015
-441,036	446,698	-0,061	0,099
-440,022	-200,000	0,020	0,072
-439,007	-131,016	0,079	0,008
-437,992	192,932	0,123	-0,137
-436,978	-159,785	0,129	-0,005
-435,963	800,000	-0,047	0,115
-434,949	-200,000	0,011	-0,049
-433,934	-200,000	-0,020	-0,102
-432,919	273,748	0,052	-0,068
-431,905	-76,050	-0,030	0,008
-430,890	149,769	0,119	-0,118
-429,876	315,175	0,077	0,108
-428,861	-200,000	-0,008	0,080
-427,846	-200,000	0,049	-0,163
-426,832	175,227	0,100	-0,107
-425,817	50,227	-0,138	-0,096
-424,803	182,027	-0,053	0,058
-423,788	333,389	-0,064	-0,092
-422,773	-41,172	-0,019	-0,007
-421,759	-17,592	0,061	-0,028
-420,744	88,289	0,088	0,072
-419,730	346,569	0,083	0,120
-418,715	-200,000	0,025	0,083
-417,701	800,000	-0,047	-0,138
-416,686	-200,000	-0,016	-0,075
-415,671	381,482	0,045	0,067
-414,657	-128,923	0,145	0,015
-413,642	800,000	-0,051	-0,117
-412,628	800,000	0,036	-0,085
-411,613	89,687	-0,098	-0,081
-410,598	109,533	0,078	-0,069
-409,584	682,475	0,094	-0,181
-408,569	42,549	0,024	-0,016
-407,555	52,719	-0,005	-0,003
-406,540	800,000	0,033	0,068
-405,525	26,119	-0,062	-0,038
-404,511	191,678	0,058	-0,064
-403,496	10,694	-0,098	0,055
-402,482	800,000	0,049	0,107
-401,467	-46,062	-0,166	0,060
-400,452	548,242	0,078	-0,139
-399,438	-113,432	0,079	-0,011
-398,423	-200,000	-0,013	-0,139
-397,409	249,319	-0,054	-0,068
-396,394	-200,000	0,006	-0,027
-395,379	65,565	0,056	0,042
-394,365	-200,000	-0,002	0,102
-393,350	21,604	0,064	0,038
-392,336	72,375	-0,036	0,028
-391,321	800,000	0,033	-0,089
-390,306	800,000	0,033	-0,069
-389,292	-200,000	-0,012	0,070
-388,277	199,278	-0,090	0,102
-387,263	395,841	0,074	0,115
-386,248	267,210	0,084	0,108
-385,233	-86,504	0,080	0,018
-384,219	800,000	0,025	-0,070
-383,204	-50,609	-0,091	0,031
-382,190	20,733	-0,092	-0,055
-381,175	-200,000	0,033	0,111
-380,160	129,800	-0,063	-0,059
-379,146	-21,245	0,153	0,068
-378,131	223,082	0,044	-0,052
-377,117	-142,076	0,153	-0,011
-376,102	-53,139	0,015	-0,005
-375,088	-190,210	-0,178	0,001
-374,073	-60,809	0,127	-0,039
-373,058	-120,314	0,024	-0,003
-372,044	-159,054	-0,083	0,003
-371,029	90,759	-0,074	0,061
-370,015	800,000	0,068	0,201
-369,000	461,044	0,030	0,050
-367,985	-30,623	-0,071	-0,029
-366,971	-23,758	-0,052	-0,023
-365,956	800,000	0,040	0,108
-364,942	39,634	0,195	0,128
-363,927	-200,000	-0,007	-0,042
-362,912	136,488	0,050	-0,048
-361,898	-125,314	-0,094	0,010
-360,883	122,754	-0,058	0,054
-359,869	-0,699	0,035	-0,018
-358,854	-132,334	-0,069	0,006
-357,839	-200,000	-0,007	0,045
-356,825	46,395	0,088	0,060
-355,810	305,214	-0,028	0,038
-354,796	-200,000	0,002	0,059
-353,781	143,663	-0,115	-0,113
-352,766	-149,540	-0,049	0,003
-351,752	123,024	-0,060	-0,055
-350,737	800,000	0,003	0,008
-349,723	800,000	0,020	0,063
-348,708	219,964	0,058	0,068
-347,693	692,864	0,081	0,157
-346,679	-200,000	-0,010	-0,045
-345,664	21,454	-0,073	-0,043
-344,650	-68,093	0,043	0,012
-343,635	800,000	0,060	0,150
-342,620	127,797	0,054	0,050
-341,606	-0,953	-0,173	-0,090
-340,591	-200,000	-0,035	0,120
-339,577	-200,000	0,008	0,061
-338,562	83,398	0,102	-0,082
-337,548	-59,816	0,082	-0,025
-336,533	-200,000	-0,019	0,130
-335,518	372,600	0,079	0,119
-334,504	800,000	-0,012	-0,040
-333,489	-75,672	-0,089	0,023
-332,475	-200,000	-0,015	-0,064
-331,460	31,800	0,045	-0,029
-330,445	246,525	0,011	0,014
-329,431	800,000	0,041	0,087
-328,416	446,794	0,015	0,024
-327,402	-80,343	0,085	-0,021
-326,387	-92,440	-0,088	-0,018
-325,372	154,814	-0,079	-0,080
-324,358	59,331	-0,067	-0,048
-323,343	800,000	-0,022	-0,059
-322,329	216,014	0,106	-0,124
-321,314	-91,819	0,071	-0,015
-320,299	89,451	-0,214	0,175
-319,285	-200,000	0,020	0,088
-318,270	82,338	0,060	-0,048
-317,256	-27,985	-0,099	-0,042
-316,241	189,768	0,067	-0,074
-315,226	189,530	0,023	0,026
-314,212	-200,000	0,023	0,105
-313,197	-115,117	0,175	0,024
-312,183	-68,570	-0,023	-0,006
-311,168	-109,514	-0,128	0,020
-310,153	155,972	-0,031	0,031
-309,139	800,000	0,036	-0,089
-308,124	128,363	0,088	-0,082
-307,110	-200,000	-0,002	-0,055
-306,095	-200,000	0,018	0,071
-305,080	142,195	-0,031	0,030
-304,066	-129,219	-0,089	0,009
-303,051	48,168	-0,103	-0,070
-302,037	217,969	0,027	-0,032
-301,022	-2,647	0,051	-0,026
-300,008	-200,000	0,003	0,021
-298,993	-158,268	-0,094	-0,004
-297,978	800,000	0,036	0,106
-296,964	-106,968	-0,010	-0,002
-295,949	547,162	-0,042	0,073
-294,935	-168,926	-0,070	0,002
-293,920	-1,793	-0,047	0,024
-292,905	534,944	-0,086	0,151
-291,891	-200,000	0,006	0,178
-290,876	-200,000	0,033	0,191
-289,862	-102,858	0,024	-0,004
-288,847	800,000	-0,056	-0,180
-287,832	-121,981	-0,155	0,018
-286,818	281,785	-0,055	0,072
-285,803	783,073	0,031	0,062
-284,789	495,867	-0,054	0,092
-283,774	104,814	0,105	0,091
-282,759	236,982	-0,018	-0,022
-281,745	35,726	-0,064	0,041
-280,730	307,651	0,022	-0,030
-279,716	74,621	0,010	0,008
-278,701	-186,353	-0,059	-0,001
-277,686	260,370	0,066	0,084
-276,672	106,368	-0,055	-0,048
-275,657	132,035	-0,075	0,071
-274,643	-20,923	-0,146	-0,065
-273,628	280,234	0,106	-0,139
-272,613	-120,970	-0,088	-0,011
-271,599	-1,190	0,027	-0,014
-270,584	-20,822	0,172	0,077
-269,570	-31,120	0,095	0,039
-268,555	-96,696	-0,112	-0,021
-267,540	800,000	-0,018	-0,058
-266,526	61,977	0,024	-0,017
-265,511	-33,153	0,032	0,013
-264,497	-200,000	-0,005	0,025
-263,482	-85,681	-0,044	0,010
-262,467	-110,996	0,071	0,011
-261,453	221,928	-0,077	-0,091
-260,438	29,314	-0,034	-0,021
-259,424	1,198	-0,069	-0,036
-258,409	-200,000	-0,024	0,093
-257,395	800,000	0,048	0,136
-256,380	285,638	0,030	-0,039
-255,365	-72,169	0,036	0,010
-254,351	-31,522	0,168	-0,069
-253,336	197,619	-0,050	-0,056
-252,322	39,863	-0,066	-0,043
-251,307	-200,000	0,028	-0,137
-250,292	89,168	-0,025	0,020
-249,278	346,425	0,009	0,013
-248,263	800,000	-0,062	-0,174
-247,249	-39,832	0,081	0,031
-246,234	-157,029	-0,077	0,003
-245,219	-35,745	0,103	-0,041
-244,205	5,377	0,108	-0,058
-243,190	-200,000	-0,013	0,151
-242,176	44,794	-0,010	-0,007
-241,161	191,043	-0,071	-0,078
-240,146	675,295	-0,050	0,095
-239,132	-88,644	0,106	-0,023
-238,117	128,683	-0,031	0,029
-237,103	-200,000	-0,007	0,030
-236,088	103,100	-0,041	0,035
-235,073	-200,000	-0,004	-0,016
-234,059	800,000	-0,031	0,075
-233,044	-5,493	0,076	0,038
-232,030	-14,719	-0,098	-0,046
-231,015	-99,026	0,042	0,008
-230,000	271,072	-0,087	-0,113
-228,986	-20,688	0,115	-0,051
-227,971	35,456	0,137	0,088
-226,957	404,935	0,055	-0,086
-225,942	210,157	-0,038	-0,044
-224,927	333,949	-0,043	0,061
-223,913	-200,000	-0,035	-0,126
-222,898	-186,780	-0,076	0,001
-221,884	-66,893	-0,052	0,015
-220,869	-197,381	0,170	0,001
-219,855	-74,443	-0,095	0,025
-218,840	123,610	0,070	-0,064
-217,825	19,788	0,064	0,038
-216,811	800,000	0,028	0,085
-215,796	-100,160	-0,064	0,011
-214,782	-30,976	0,171	-0,070
-213,767	-52,995	-0,033	-0,011
-212,752	190,436	-0,042	-0,046
-211,738	-200,000	0,004	0,098
-210,723	30,764	-0,066	0,041
-209,709	6,149	-0,056	-0,030
-208,694	-33,758	-0,117	0,047
-207,679	309,501	0,057	-0,078
-206,665	-200,000	0,001	0,055
-205,650	764,059	0,041	-0,081
-204,636	-200,000	-0,011	0,145
-203,621	-28,063	0,202	0,085
-202,606	-200,000	-0,035	0,130
-201,592	194,148	-0,056	0,061
-200,577	800,000	0,042	0,100
-199,563	-123,123	-0,078	0,009
-198,548	37,626	0,054	-0,035
-197,533	505,974	-0,031	0,053
-196,519	-44,073	-0,206	-0,075
-195,504	-84,578	0,034	0,008
-194,490	66,629	-0,114	-0,084
-193,475	-187,322	0,140	0,001
-192,460	-143,081	0,070	0,005
-191,446	-200,000	-0,009	0,084
-190,431	53,447	0,055	0,038
-189,417	-13,552	0,166	-0,078
-188,402	-200,000	-0,020	0,097
-187,387	295,164	-0,052	-0,069
-186,373	605,736	0,017	-0,031
-185,358	-143,921	0,073	-0,005
-184,344	-1,521	0,071	0,037
-183,329	-10,778	0,193	0,093
-182,315	162,148	0,051	-0,052
-181,300	-106,236	0,086	-0,014
-180,285	-89,505	-0,011	0,002
-179,271	35,614	-0,100	0,064
-178,256	227,014	0,056	-0,067
-177,242	800,000	-0,019	-0,042
-176,227	-73,159	-0,055	0,015
-175,212	-29,716	0,022	-0,009
-174,198	800,000	0,061	-0,178
-173,183	-70,508	0,129	-0,035
-172,169	-103,534	-0,038	-0,006
-171,154	-200,000	0,016	-0,054
-170,139	-4,946	0,089	-0,045
-169,125	124,898	0,021	-0,020
-168,110	800,000	-0,061	-0,125
-167,096	-83,730	-0,079	0,018
-166,081	-200,000	0,024	-0,086
-165,066	800,000	-0,038	-0,098
-164,052	251,700	-0,051	0,063
-163,037	-120,937	-0,148	-0,018
-162,023	800,000	0,044	-0,089
-161,008	405,543	0,048	0,074
-159,993	35,981	-0,110	0,071
-158,979	-200,000	0,003	-0,015
-157,964	-182,950	0,145	-0,002
-156,950	102,419	-0,036	-0,031
-155,935	417,982	-0,019	-0,029
-154,920	800,000	0,036	0,101
-153,906	344,797	0,042	0,061
-152,891	226,816	0,020	0,024
-151,877	-27,199	0,028	0,012
-150,862	-200,000	-0,036	0,117
-149,847	308,360	-0,028	0,038
-148,833	1,105	0,041	0,021
-147,818	257,671	0,064	0,080
-146,804	201,453	-0,093	0,104
-145,789	79,447	-0,038	-0,029
-144,775	-200,000	0,011	0,088
-143,760	-59,012	0,006	-0,002
-142,745	800,000	0,018	0,051
-141,731	-41,675	0,058	-0,022
-140,716	-200,000	-0,010	-0,056
-139,702	-200,000	-0,024	-0,131
-138,687	-129,182	0,153	0,015
-137,672	800,000	-0,074	0,162
-136,658	26,213	-0,070	0,042
-135,643	-76,932	-0,067	0,017
-134,629	470,857	0,011	-0,018
-133,614	24,784	0,101	0,061
-132,599	31,379	-0,061	0,038
-131,585	-54,941	0,138	0,045
-130,570	800,000	0,025	0,064
-129,556	800,000	-0,024	0,076
-128,541	64,396	-0,081	0,059
-127,526	18,997	0,105	0,061
-126,512	421,337	0,054	0,085
-125,497	-178,946	-0,040	-0,001
-124,483	126,369	-0,102	0,094
-123,468	42,525	0,115	-0,076
-122,453	157,895	-0,076	-0,077
-121,439	800,000	0,032	-0,088
-120,424	-200,000	0,016	-0,066
-119,410	-74,447	0,146	0,038
-118,395	639,470	0,087	0,163
-117,380	128,128	-0,013	-0,012
-116,366	-200,000	-0,010	-0,129
-115,351	336,338	0,049	0,069
-114,337	800,000	-0,090	0,192
-113,322	-47,535	-0,080	-0,028
-112,307	-200,000	0,003	-0,049
-111,293	118,965	-0,035	0,032
-110,278	45,076	-0,099	-0,066
-109,264	-5,703	0,052	-0,026
-108,249	800,000	-0,041	-0,096
-107,234	-81,540	0,058	0,014
-106,220	-181,323	0,074	-0,001
-105,205	-200,000	0,030	0,151
-104,191	-196,634	0,036	-0,000
-103,176	-200,000	-0,033	0,135
-102,162	-73,843	-0,044	-0,012
-101,147	-65,082	-0,216	-0,063
-100,132	-200,000	-0,008	-0,045
-99,118	-200,000	-0,014	-0,145
-98,103	-88,244	0,043	0,009
-97,089	81,474	0,119	0,093
-96,074	182,187	-0,121	0,130
-95,059	-84,301	0,036	0,008
-94,045	-200,000	0,021	0,118
-93,030	-200,000	-0,033	0,133
-92,016	-7,036	0,056	-0,028
-91,001	800,000	0,005	0,014
-89,986	318,493	0,030	0,041
-88,972	-200,000	-0,002	-0,094
-87,957	94,383	-0,076	0,063
-86,943	800,000	-0,070	-0,157
-85,928	-172,854	-0,041	0,001
-84,913	43,475	0,024	-0,016
-83,899	-41,583	-0,021	0,008
-82,884	530,554	-0,065	0,112
-81,870	-200,000	-0,023	0,101
-80,855	235,471	0,055	0,067
-79,840	-60,162	-0,133	-0,041
-78,826	75,204	-0,053	-0,040
-77,811	24,539	-0,084	0,051
-76,797	362,238	-0,024	-0,036
-75,782	68,645	0,005	-0,004
-74,767	-126,131	0,100	-0,011
-73,753	727,435	-0,029	0,056
-72,738	495,888	0,052	0,087
-71,724	800,000	0,014	0,031
-70,709	-200,000	0,034	-0,144
-69,694	406,404	-0,029	0,044
-68,680	17,696	0,077	0,044
-67,665	-54,867	0,064	0,021
-66,651	-65,220	0,077	0,022
-65,636	316,338	0,064	-0,088
-64,622	96,487	0,029	0,024
-63,607	234,592	0,026	-0,032
-62,592	247,999	-0,047	-0,057
-61,578	-92,697	0,085	0,017
-60,563	800,000	-0,070	0,172
-59,549	78,821	-0,107	0,083
-58,534	-140,836	-1,359	-0,100
-57,519	559,924	-0,874	-1,539
-56,505	-200,000	-0,748	-4,425
-55,490	60,200	0,577	-0,414
-54,476	800,000	5,019	11,837
-53,461	-200,000	13,841	253,463
-52,446	-200,000	689,426	2261,486
-51,432	592,785	1622,028	2919,999
-50,417	119,674	1635,016	1469,938
-49,403	73,372	1289,178	977,976
-48,388	38,120	1024,506	660,176
-47,373	24,350	981,849	587,399
-46,359	23,602	971,649	578,821
-45,344	22,619	967,324	573,010
-44,330	22,542	965,772	571,815
-43,315	22,474	964,329	570,718
-42,300	22,408	963,366	569,911
-41,286	22,430	962,394	569,385
-40,271	22,366	961,664	568,721
-39,257	22,464	960,519	568,340
-38,242	22,400	959,681	567,614
-37,227	22,359	958,756	566,913
-36,213	22,361	957,857	566,366
-35,198	22,354	956,959	565,789
-34,184	22,433	956,323	565,646
-33,169	22,354	955,539	564,905
-32,154	22,511	954,462	564,751
-31,140	22,461	953,633	564,077
-30,125	22,492	952,846	563,687
-29,111	22,476	952,144	563,201
-28,096	22,436	951,293	562,547
-27,082	22,429	950,735	562,170
-26,067	22,439	949,893	561,683
-25,052	22,430	949,154	561,196
-24,038	22,401	948,749	560,839
-23,023	22,493	947,795	560,546
-22,009	22,470	947,384	560,208
-20,994	22,465	946,763	559,802
-19,979	22,501	945,959	559,420
-18,965	22,471	945,406	558,977
-17,950	22,458	944,819	558,566
-16,936	22,395	944,152	557,949
-15,921	22,383	943,456	557,476
-14,906	22,349	942,735	556,919
-13,892	22,350	942,062	556,503
-12,877	22,306	941,553	556,042
-11,863	22,229	941,007	555,451
-10,848	22,245	940,395	555,118
-9,833	22,439	939,845	555,390
-8,819	22,440	939,191	554,981
-7,804	22,381	938,379	554,292
-6,790	22,257	938,017	553,666
-5,775	22,330	937,424	553,526
-4,760	22,350	936,846	553,225
-3,746	22,355	936,182	552,826
-2,731	22,214	935,471	551,941
-1,717	22,200	934,635	551,380
-0,702	22,190	933,989	550,946
0,313	21,933	933,577	550,723
1,327	24,966	931,445	558,956
2,342	34,520	796,046	503,155
3,356	32,355	451,422	282,042
4,371	1,841	293,293	152,845
5,386	-2,676	274,257	138,644
6,400	-4,098	268,351	134,329
7,415	-4,639	265,844	132,566
8,429	-4,444	264,702	132,164
9,444	-4,265	263,711	131,819
10,459	-4,375	263,309	131,507
11,473	-4,483	262,596	131,042
12,488	-4,402	262,026	130,819
13,502	-4,714	261,572	130,298
14,517	-4,734	261,109	130,038
15,531	-4,679	260,707	129,875
16,546	-4,613	260,512	129,826
17,561	-4,609	259,936	129,532
18,575	-4,523	259,804	129,531
19,590	-4,638	259,460	129,245
20,604	-4,711	259,174	129,026
21,619	-4,710	258,923	128,891
22,634	-4,734	258,521	128,658
23,648	-4,687	258,136	128,496
24,663	-4,448	257,795	128,528
25,677	-4,752	257,698	128,198
26,692	-4,663	257,325	128,079
27,707	-4,671	257,067	127,932
28,721	-4,749	257,010	127,824
29,736	-4,516	256,511	127,770
30,750	-4,618	256,346	127,587
31,765	-4,911	256,145	127,216
32,780	-4,710	255,957	127,289
33,794	-4,852	255,699	127,025
34,809	-4,809	255,525	126,965
35,823	-4,859	255,191	126,743
36,838	-4,835	254,965	126,640
37,853	-4,984	254,723	126,378
38,867	-4,767	254,519	126,456
39,882	-4,962	254,313	126,171
40,896	-5,034	254,171	126,027
41,911	-4,830	253,753	125,987
42,926	-4,899	253,636	125,858
43,940	-4,730	253,233	125,793
44,955	-4,807	253,240	125,719
45,969	-4,841	252,774	125,446
46,984	-5,131	252,585	125,090
47,999	-5,445	252,341	124,684
49,013	-5,585	252,244	124,504
50,028	-5,624	251,941	124,310
51,042	-5,818	251,693	124,008
52,057	-5,613	251,340	124,000
53,071	-5,717	251,241	123,850
54,086	-5,336	251,007	124,053
55,101	-5,369	250,834	123,928
56,115	-5,253	250,835	124,018
57,130	-4,974	250,831	124,245
58,144	-4,525	250,472	124,443
59,159	-4,471	250,345	124,415
60,174	-4,524	250,057	124,216
61,188	-4,426	249,879	124,200
62,203	-4,565	249,849	124,055
63,217	-4,770	249,597	123,742
64,232	-4,653	249,246	123,658
65,247	-4,426	249,104	123,771
66,261	-4,736	248,801	123,344
67,276	-4,643	248,534	123,280
68,290	-5,067	248,231	122,757
69,305	-5,208	248,050	122,537
70,320	-5,186	248,020	122,530
71,334	-4,805	247,741	122,705
72,349	-4,606	247,669	122,828
73,363	-4,520	247,385	122,749
74,378	-4,720	247,267	122,510
75,393	-4,883	247,078	122,267
76,407	-4,712	246,981	122,353
77,422	-4,649	246,633	122,223
78,436	-4,593	246,493	122,190
79,451	-4,477	246,210	122,137
80,466	-4,708	245,946	121,800
81,480	-4,693	245,721	121,690
82,495	-4,921	245,608	121,431
83,509	-4,962	245,555	121,360
84,524	-4,919	245,229	121,224
85,539	-5,096	244,944	120,924
86,553	-4,947	244,666	120,901
87,568	-5,195	244,688	120,693
88,582	-4,927	244,363	120,746
89,597	-4,927	244,295	120,702
90,611	-4,945	244,127	120,594
91,626	-4,869	244,035	120,601
92,641	-4,720	243,871	120,634
93,655	-4,809	243,749	120,488
94,670	-4,779	243,414	120,336
95,684	-4,761	243,085	120,178
96,699	-5,006	243,020	119,932
97,714	-4,876	242,901	119,970
98,728	-4,885	242,671	119,838
99,743	-5,125	242,406	119,498
100,757	-5,254	242,211	119,284
101,772	-5,120	242,049	119,304
102,787	-4,964	241,895	119,347
103,801	-4,941	241,727	119,273
104,816	-4,887	241,608	119,248
105,830	-4,555	241,418	119,417
106,845	-4,491	241,304	119,404
107,860	-4,739	241,133	119,103
108,874	-4,904	240,948	118,865
109,889	-4,730	240,637	118,845
110,903	-4,882	240,341	118,563
111,918	-4,901	240,310	118,522
112,933	-4,800	240,117	118,499
113,947	-5,049	240,092	118,271
114,962	-4,802	239,900	118,369
115,976	-4,768	239,592	118,235
116,991	-4,731	239,523	118,220
118,006	-4,897	239,365	117,996
119,020	-4,870	239,264	117,957
120,035	-4,702	239,075	117,991
121,049	-4,650	238,935	117,954
122,064	-4,732	238,830	117,825
123,079	-4,777	238,453	117,592
124,093	-4,850	238,245	117,419
125,108	-5,126	238,170	117,147
126,122	-5,124	237,990	117,049
127,137	-5,481	237,670	116,591
128,151	-5,347	237,643	116,677
129,166	-5,161	237,553	116,773
130,181	-5,220	237,225	116,553
131,195	-5,058	236,961	116,545
132,210	-5,094	236,776	116,415
133,224	-4,822	236,787	116,629
134,239	-4,688	236,645	116,658
135,254	-4,771	236,450	116,484
136,268	-4,850	236,189	116,281
137,283	-5,202	235,995	115,891
138,297	-5,330	235,619	115,594
139,312	-5,273	235,531	115,586
140,327	-5,074	235,483	115,712
141,341	-4,489	235,584	116,222
142,356	-4,559	235,528	116,127
143,370	-4,305	235,132	116,126
144,385	-4,404	235,019	115,980
145,400	-4,307	234,744	115,912
146,414	-4,378	234,664	115,805
147,429	-4,270	234,513	115,806
148,443	-4,659	234,486	115,472
149,458	-4,510	234,182	115,431
150,473	-4,549	233,996	115,297
151,487	-4,505	233,767	115,210
152,502	-4,671	233,794	115,080
153,516	-4,416	233,508	115,132
154,531	-4,290	233,354	115,146
155,546	-4,383	233,090	114,931
156,560	-4,517	233,050	114,795
157,575	-4,603	232,806	114,597
158,589	-4,759	232,488	114,307
159,604	-4,497	232,482	114,500
160,619	-4,298	232,393	114,604
161,633	-4,271	232,103	114,473
162,648	-4,403	232,094	114,354
163,662	-4,260	231,967	114,393
164,677	-4,696	231,724	113,919
165,692	-4,489	231,650	114,036
166,706	-4,430	231,440	113,969
167,721	-4,134	231,173	114,061
168,735	-4,426	231,022	113,746
169,750	-4,520	231,092	113,697
170,764	-4,409	230,834	113,647
171,779	-4,336	230,778	113,666
172,794	-4,338	230,663	113,598
173,808	-4,395	230,237	113,334
174,823	-4,898	230,045	112,835
175,837	-5,311	230,013	112,486
176,852	-4,848	229,811	112,739
177,867	-4,416	229,609	112,967
178,881	-4,623	229,518	112,751
179,896	-4,188	229,333	112,989
180,910	-4,353	229,322	112,846
181,925	-4,428	229,247	112,740
182,940	-4,480	229,101	112,618
183,954	-4,244	228,700	112,594
184,969	-4,180	228,740	112,653
185,983	-4,127	228,509	112,571
186,998	-4,140	228,296	112,446
188,013	-4,084	228,283	112,472
189,027	-4,139	228,153	112,356
190,042	-4,027	227,949	112,332
191,056	-3,987	227,701	112,231
192,071	-4,064	227,608	112,115
193,086	-4,291	227,439	111,847
194,100	-4,340	227,274	111,718
195,115	-4,386	226,836	111,457
196,129	-5,141	226,649	110,775
197,144	-2,527	227,559	113,228
198,159	1,333	228,622	116,736
199,173	3,980	229,341	119,145
200,188	4,565	229,246	119,537
201,202	4,299	229,074	119,231
202,217	4,416	228,974	119,258
203,232	4,551	228,987	119,359
204,246	4,747	228,658	119,328
205,261	4,716	228,723	119,328
206,275	5,087	228,487	119,480
207,290	5,020	228,423	119,384
208,304	4,869	228,215	119,149
209,319	4,806	228,159	119,060
210,334	4,753	227,922	118,885
211,348	4,853	227,652	118,811
212,363	4,246	227,428	118,218
213,377	3,984	227,110	117,841
214,392	3,900	227,029	117,724
215,407	3,890	226,981	117,682
216,421	4,216	226,693	117,771
217,436	3,951	226,717	117,570
218,450	3,775	226,426	117,274
219,465	3,771	226,056	117,069
220,480	3,783	226,072	117,076
221,494	3,858	226,013	117,093
222,509	3,988	225,879	117,111
223,523	4,078	225,567	117,008
224,538	3,929	225,455	116,826
225,553	4,044	225,399	116,874
226,567	4,114	225,331	116,881
227,582	4,386	225,084	116,949
228,596	4,099	225,155	116,758
229,611	4,040	224,914	116,578
230,626	4,050	224,610	116,418
231,640	4,000	224,479	116,301
232,655	4,121	224,492	116,389
233,669	4,698	224,432	116,784
234,684	4,610	224,239	116,606
235,699	4,255	224,118	116,265
236,713	4,169	223,824	116,037
237,728	4,072	223,642	115,859
238,742	4,037	223,439	115,718
239,757	4,194	223,361	115,785
240,772	4,091	223,095	115,560
241,786	4,096	222,983	115,495
242,801	4,259	222,923	115,576
243,815	4,677	222,721	115,774
244,830	4,395	222,782	115,584
245,844	3,878	222,624	115,105
246,859	4,067	222,490	115,166
247,874	4,251	222,210	115,149
248,888	4,167	222,139	115,040
249,903	4,179	221,969	114,950
250,917	4,322	221,779	114,948
251,932	4,067	221,665	114,689
252,947	3,915	221,440	114,449
253,961	3,736	221,357	114,262
254,976	3,980	221,158	114,331
255,990	4,221	221,055	114,446
257,005	4,315	220,951	114,452
258,020	4,423	220,831	114,460
259,034	4,282	220,925	114,394
260,049	4,336	220,664	114,288
261,063	4,067	220,483	113,985
262,078	4,413	220,207	114,089
263,093	4,391	220,227	114,072
264,107	4,502	220,007	114,030
265,122	4,375	219,820	113,829
266,136	4,450	219,789	113,859
267,151	4,505	219,654	113,819
268,166	4,312	219,295	113,481
269,180	3,876	219,175	113,088
270,195	3,894	219,092	113,048
271,209	4,100	218,838	113,058
272,224	3,902	218,897	112,933
273,239	4,232	218,690	113,058
274,253	4,036	218,491	112,802
275,268	3,772	218,208	112,452
276,282	3,856	218,181	112,489
277,297	3,621	217,947	112,187
278,312	3,838	217,870	112,296
279,326	3,935	217,814	112,328
280,341	3,956	217,664	112,256
281,355	4,215	217,446	112,322
282,370	3,899	217,531	112,126
283,384	3,827	217,251	111,919
284,399	3,800	217,001	111,760
285,414	3,634	216,870	111,563
286,428	3,919	216,853	111,751
287,443	4,111	216,719	111,811
288,457	4,152	216,541	111,739
289,472	4,046	216,404	111,582
290,487	3,639	216,067	111,104
291,501	3,680	215,906	111,041
292,516	3,723	215,857	111,037
293,530	3,875	215,808	111,111
294,545	3,673	215,643	110,871
295,560	3,905	215,584	110,998
296,574	3,772	215,353	110,773
297,589	3,935	215,343	110,876
298,603	4,231	215,197	111,004
299,618	4,158	215,029	110,855
300,633	4,035	214,833	110,656
301,647	4,337	214,918	110,906
302,662	4,344	214,593	110,734
303,676	4,256	214,539	110,633
304,691	4,099	214,430	110,454
305,706	4,207	214,382	110,497
306,720	4,365	214,124	110,467
307,735	4,153	213,881	110,181
308,749	3,861	213,759	109,899
309,764	4,239	213,622	110,089
310,779	4,375	213,648	110,190
311,793	4,187	213,323	109,878
312,808	4,063	213,392	109,816
313,822	4,118	213,161	109,726
314,837	4,185	212,991	109,677
315,852	3,941	212,741	109,364
316,866	3,903	212,819	109,368
317,881	4,165	212,584	109,423
318,895	4,335	212,419	109,449
319,910	3,949	212,446	109,180
320,925	3,856	212,025	108,888
321,939	3,583	211,913	108,627
322,954	3,544	211,827	108,545
323,968	4,163	211,689	108,903
324,983	4,106	211,669	108,843
325,997	4,157	211,555	108,810
327,012	4,264	211,386	108,789
328,027	3,940	211,299	108,506
329,041	4,252	211,230	108,681
330,056	4,471	211,130	108,774
331,070	4,343	210,748	108,478
332,085	3,878	210,659	108,095
333,100	3,947	210,445	108,024
334,114	4,012	210,485	108,081
335,129	4,274	210,285	108,152
336,143	4,228	210,111	108,021
337,158	3,915	209,942	107,706
338,173	4,274	209,766	107,857
339,187	3,984	209,504	107,510
340,202	4,073	209,329	107,472
341,216	3,559	209,241	107,059
342,231	3,928	209,225	107,298
343,246	3,952	209,066	107,224
344,260	3,746	209,009	107,042
345,275	4,038	208,853	107,156
346,289	4,071	208,745	107,114
347,304	4,193	208,756	107,194
348,319	3,911	208,525	106,871
349,333	3,946	208,425	106,834
350,348	4,239	208,404	107,017
351,362	4,180	208,317	106,922
352,377	4,029	208,054	106,673
353,392	4,267	207,871	106,734
354,406	4,044	207,812	106,541
355,421	194,322	1344,756	1434,810
356,435	155,049	1483,381	1434,927
