DTS Sentinel unit serial number:	SN410029Multiplexer serial number:	ORYXHardware model number:	OX2-SRSoftware version number:	ORYX F/W v4,00 Oryx Data Collector v3.7.2.0data status	okinstallation	B6 Nyhavnadifferential loss correction	single-endedforward channel	channel 2reverse channel	N/Adate	2023/12/07time	13:30:08forward acquisition time	300,00reverse acquisition time	0,00gamma	499,1914k internal	0,3202k external	0,3202temperature offset calibration	1,0000default loss term (dB/km)	0,3820temperature slope calibration	1,0000multiplexer offset coefficient	1,0000multiplexer slope coefficient	1,0000fibre end	0,00T internal ref (°C)	12,13T ext. ref 1 (°C)	-1,63T ext. ref 2 (°C)	-1,62length (m)	temperature (°C)	Stokes	anti-Stokes-744,400	231,063	0,150	0,179
-743,385	-158,098	-0,291	-0,012
-742,371	-8,303	0,119	0,058
-741,356	-124,931	-0,319	-0,035
-740,342	112,443	0,103	0,091
-739,327	-193,777	-0,343	0,002
-738,312	9,408	0,126	0,069
-737,298	-140,260	-0,439	0,033
-736,283	-106,008	0,135	0,022
-735,269	-155,615	-0,304	-0,014
-734,254	-173,936	0,241	0,005
-733,239	13,473	-0,491	-0,276
-732,225	-4,845	0,267	0,134
-731,210	800,000	-0,043	0,090
-730,196	558,973	-0,038	-0,066
-729,181	-81,766	-0,109	0,026
-728,167	-4,317	-0,086	-0,043
-727,152	443,302	-0,032	-0,051
-726,137	376,052	-0,078	-0,117
-725,123	242,810	-0,087	-0,106
-724,108	235,115	-0,025	0,030
-723,094	-19,683	-0,112	0,050
-722,079	11,590	0,138	0,077
-721,064	-133,595	0,041	0,004
-720,050	-28,222	0,130	-0,054
-719,035	108,816	-0,024	-0,021
-718,021	-57,039	-0,145	-0,046
-717,006	38,893	0,080	-0,052
-715,991	78,372	-0,114	-0,088
-714,977	-200,000	0,025	-0,124
-713,962	210,764	0,032	-0,036
-712,948	-200,000	-0,011	-0,069
-711,933	127,208	0,116	-0,107
-710,918	133,594	-0,139	-0,131
-709,904	800,000	-0,035	0,082
-708,889	-200,000	0,002	0,023
-707,875	-200,000	0,014	-0,144
-706,860	-129,051	-0,067	-0,007
-705,845	800,000	-0,035	-0,083
-704,831	-200,000	0,004	0,111
-703,816	800,000	-0,035	-0,074
-702,802	218,278	-0,026	-0,030
-701,787	-173,507	-0,034	0,001
-700,772	124,474	-0,122	-0,111
-699,758	-200,000	-0,006	0,030
-698,743	-176,207	0,139	0,003
-697,729	-200,000	-0,025	0,081
-696,714	-106,275	-0,151	-0,024
-695,699	97,425	-0,156	0,130
-694,685	-49,144	-0,117	0,040
-693,670	0,714	0,071	0,037
-692,656	53,087	-0,076	0,053
-691,641	-80,729	-0,064	0,015
-690,627	-18,395	0,036	0,016
-689,612	-200,000	-0,012	0,094
-688,597	-119,967	0,028	0,003
-687,583	175,327	-0,095	0,100
-686,568	383,877	0,022	-0,033
-685,554	-81,926	-0,059	-0,014
-684,539	-200,000	-0,015	0,145
-683,524	-200,000	-0,034	0,156
-682,510	2,709	-0,083	-0,044
-681,495	25,481	0,104	-0,063
-680,481	800,000	-0,046	-0,118
-679,466	800,000	0,063	-0,134
-678,451	-69,118	-0,095	-0,026
-677,437	800,000	-0,005	-0,011
-676,422	38,232	0,151	-0,097
-675,408	-13,517	0,071	0,033
-674,393	173,763	-0,070	0,074
-673,378	474,186	-0,046	-0,076
-672,364	210,597	-0,125	-0,142
-671,349	-200,000	-0,002	-0,117
-670,335	-97,878	-0,112	-0,021
-669,320	-170,600	-0,078	0,002
-668,305	166,707	0,062	0,064
-667,291	-200,000	0,042	-0,161
-666,276	491,578	-0,035	-0,058
-665,262	-106,402	-0,227	-0,036
-664,247	527,130	-0,123	-0,211
-663,232	-200,000	-0,002	-0,133
-662,218	41,041	-0,011	-0,007
-661,203	-33,390	-0,091	0,036
-660,189	285,613	0,041	-0,053
-659,174	92,417	-0,146	0,119
-658,159	346,546	-0,057	-0,081
-657,145	35,789	-0,058	-0,037
-656,130	152,089	0,071	-0,071
-655,116	800,000	-0,019	0,048
-654,101	11,010	0,070	-0,039
-653,086	-118,259	-0,076	-0,010
-652,072	-200,000	0,025	-0,107
-651,057	-25,871	-0,087	-0,037
-650,043	492,758	-0,107	-0,178
-649,028	-63,437	0,127	-0,037
-648,014	-200,000	0,015	-0,075
-646,999	87,204	0,054	-0,043
-645,984	36,644	-0,101	-0,064
-644,970	17,625	-0,097	-0,056
-643,955	-88,212	0,042	-0,009
-642,941	69,664	-0,105	-0,078
-641,926	137,899	0,043	-0,041
-640,911	15,193	-0,086	0,048
-639,897	647,053	-0,052	0,097
-638,882	31,512	-0,095	-0,059
-637,868	-200,000	-0,007	-0,048
-636,853	-200,000	-0,020	-0,154
-635,838	369,254	0,057	-0,083
-634,824	-200,000	0,026	-0,093
-633,809	164,858	0,108	0,110
-632,795	-200,000	-0,005	-0,110
-631,780	-129,580	0,109	-0,011
-630,765	-35,217	-0,139	-0,055
-629,751	-200,000	-0,018	0,073
-628,736	-3,986	-0,159	-0,079
-627,722	800,000	0,026	-0,066
-626,707	800,000	-0,040	0,105
-625,692	-50,133	-0,068	0,023
-624,678	-37,406	-0,084	0,032
-623,663	-20,071	0,123	-0,055
-622,649	800,000	-0,046	-0,125
-621,634	-3,515	-0,109	-0,055
-620,619	-200,000	0,009	0,057
-619,605	345,919	0,073	0,105
-618,590	800,000	0,025	-0,065
-617,576	-161,953	0,121	-0,004
-616,561	329,181	-0,046	-0,064
-615,546	32,690	-0,052	-0,033
-614,532	800,000	-0,028	-0,071
-613,517	800,000	-0,009	0,021
-612,503	782,261	0,019	0,037
-611,488	-200,000	0,019	-0,129
-610,474	-200,000	-0,003	-0,079
-609,459	800,000	-0,035	0,077
-608,444	-26,150	-0,073	0,031
-607,430	109,926	-0,119	-0,103
-606,415	-200,000	0,007	-0,051
-605,401	-200,000	-0,016	-0,169
-604,386	800,000	0,023	-0,055
-603,371	282,757	-0,073	0,095
-602,357	-67,350	0,091	-0,026
-601,342	-151,623	0,080	-0,004
-600,328	800,000	-0,023	-0,053
-599,313	-181,248	-0,055	-0,001
-598,298	356,916	0,090	-0,131
-597,284	466,094	0,011	0,018
-596,269	800,000	0,025	-0,052
-595,255	-81,950	0,076	0,018
-594,240	800,000	0,039	0,095
-593,225	687,401	-0,097	-0,184
-592,211	469,905	-0,010	0,017
-591,196	-9,837	-0,055	0,026
-590,182	169,485	0,042	-0,044
-589,167	800,000	0,025	-0,061
-588,152	-146,761	0,086	-0,005
-587,138	-200,000	-0,005	-0,117
-586,123	-200,000	0,018	0,062
-585,109	-200,000	-0,009	-0,059
-584,094	39,463	0,075	-0,049
-583,079	-200,000	0,014	0,059
-582,065	327,169	-0,049	0,068
-581,050	-200,000	-0,021	-0,091
-580,036	-4,595	0,093	-0,046
-579,021	800,000	0,013	-0,039
-578,006	-74,425	-0,146	-0,038
-576,992	619,065	0,018	-0,033
-575,977	374,103	0,065	0,095
-574,963	-200,000	-0,033	0,158
-573,948	800,000	0,031	-0,062
-572,934	-128,844	0,105	0,011
-571,919	18,518	0,060	-0,034
-570,904	-39,318	0,087	0,033
-569,890	-131,554	-0,047	-0,004
-568,875	470,430	-0,065	0,105
-567,861	-200,000	-0,032	-0,105
-566,846	-158,068	0,070	0,003
-565,831	183,577	-0,067	-0,071
-564,817	-200,000	0,003	-0,107
-563,802	279,990	-0,027	-0,035
-562,788	-132,589	-0,083	0,008
-561,773	119,399	-0,114	0,102
-560,758	800,000	0,051	-0,123
-559,744	-13,891	0,101	-0,047
-558,729	-200,000	0,014	-0,057
-557,715	-200,000	-0,005	0,016
-556,700	-200,000	0,028	0,102
-555,685	158,060	0,074	-0,074
-554,671	-27,236	0,099	0,041
-553,656	714,167	0,043	-0,083
-552,642	14,381	0,075	0,042
-551,627	800,000	-0,061	0,170
-550,612	-200,000	-0,015	0,071
-549,598	800,000	0,069	-0,187
-548,583	113,522	-0,079	-0,069
-547,569	493,693	-0,044	0,073
-546,554	-107,290	0,078	-0,012
-545,539	-200,000	-0,011	0,121
-544,525	-200,000	-0,003	0,085
-543,510	110,829	0,010	0,009
-542,496	14,596	-0,128	-0,072
-541,481	-51,428	0,063	-0,021
-540,466	4,002	-0,059	0,031
-539,452	70,232	-0,035	-0,026
-538,437	-117,716	0,164	-0,021
-537,423	273,245	-0,082	0,105
-536,408	-166,911	-0,101	-0,003
-535,393	314,454	0,053	-0,072
-534,379	-200,000	-0,025	0,093
-533,364	288,092	-0,085	0,112
-532,350	-200,000	-0,018	0,079
-531,335	-74,036	-0,047	0,012
-530,321	103,851	0,061	-0,052
-529,306	800,000	-0,070	0,165
-528,291	-200,000	0,019	-0,063
-527,277	-200,000	0,011	-0,036
-526,262	-46,184	0,061	-0,021
-525,248	-136,951	0,075	0,006
-524,233	-42,126	0,053	0,020
-523,218	-200,000	-0,014	0,130
-522,204	-22,101	-0,111	-0,048
-521,189	-200,000	0,001	0,070
-520,175	800,000	-0,028	-0,078
-519,160	-15,592	-0,061	0,028
-518,145	-200,000	-0,003	0,030
-517,131	-36,429	-0,060	0,023
-516,116	-200,000	0,007	0,040
-515,102	342,122	-0,043	0,061
-514,087	-200,000	-0,007	0,113
-513,072	-200,000	0,017	-0,055
-512,058	-143,132	-0,066	0,005
-511,043	800,000	0,053	-0,148
-510,029	138,418	-0,017	-0,016
-509,014	-200,000	-0,010	-0,111
-507,999	33,488	0,075	-0,047
-506,985	-200,000	-0,012	-0,147
-505,970	-15,135	-0,130	0,060
-504,956	-32,422	0,066	0,026
-503,941	-200,000	-0,005	0,083
-502,926	34,256	-0,054	-0,034
-501,912	214,734	0,018	0,020
-500,897	-76,056	0,046	-0,012
-499,883	-121,955	-0,112	0,013
-498,868	177,634	-0,041	-0,044
-497,853	800,000	-0,011	-0,033
-496,839	800,000	0,024	0,051
-495,824	-167,826	0,167	0,005
-494,810	546,914	-0,082	0,142
-493,795	60,883	-0,066	0,047
-492,781	299,895	-0,041	-0,055
-491,766	-31,202	0,066	-0,027
-490,751	-148,809	0,028	0,002
-489,737	36,133	-0,096	0,061
-488,722	-200,000	0,057	0,233
-487,708	-156,850	0,015	0,001
-486,693	55,607	-0,074	0,052
-485,678	800,000	0,060	0,142
-484,664	-33,365	-0,149	-0,059
-483,649	800,000	0,037	-0,073
-482,635	127,948	-0,038	0,035
-481,620	-200,000	-0,008	0,034
-480,605	-125,964	-0,064	0,007
-479,591	-200,000	0,010	0,114
-478,576	568,940	0,075	0,132
-477,562	-200,000	0,001	-0,021
-476,547	111,016	-0,073	0,063
-475,532	800,000	-0,023	0,053
-474,518	63,817	-0,021	-0,015
-473,503	29,497	0,064	0,039
-472,489	-70,463	0,050	0,013
-471,474	-173,120	-0,110	-0,002
-470,459	-44,561	-0,127	-0,045
-469,445	42,016	-0,059	0,039
-468,430	161,791	0,067	-0,068
-467,416	-64,245	0,040	0,012
-466,401	174,391	0,041	0,043
-465,386	-200,000	0,006	0,034
-464,372	-61,676	-0,045	-0,014
-463,357	-88,670	-0,091	0,019
-462,343	-72,555	0,050	-0,013
-461,328	-200,000	-0,002	-0,062
-460,313	217,773	-0,141	-0,162
-459,299	164,042	-0,043	-0,043
-458,284	336,830	-0,080	0,111
-457,270	-200,000	-0,001	-0,029
-456,255	23,653	0,077	-0,045
-455,241	-60,628	-0,027	-0,008
-454,226	99,309	0,024	-0,020
-453,211	-200,000	0,009	-0,056
-452,197	-31,563	0,091	-0,037
-451,182	-156,128	0,163	-0,007
-450,168	482,835	0,081	0,134
-449,153	-83,064	-0,140	-0,032
-448,138	-72,240	0,043	0,011
-447,124	800,000	0,003	0,006
-446,109	137,250	0,082	0,077
-445,095	271,110	0,075	0,095
-444,080	800,000	0,029	0,065
-443,065	-200,000	0,009	-0,049
-442,051	-128,913	-0,075	0,007
-441,036	-127,520	0,067	-0,007
-440,022	10,365	-0,086	-0,047
-439,007	98,168	-0,060	-0,050
-437,992	69,148	-0,059	-0,044
-436,978	-125,513	0,076	-0,008
-435,963	-169,852	-0,170	0,004
-434,949	800,000	-0,025	-0,067
-433,934	0,999	0,102	0,052
-432,919	138,329	-0,137	0,129
-431,905	-116,760	0,039	0,005
-430,890	-38,476	0,168	0,064
-429,876	-72,177	0,038	-0,010
-428,861	-125,633	-0,087	-0,009
-427,846	-200,000	0,009	0,077
-426,832	701,048	-0,031	0,058
-425,817	800,000	-0,063	-0,174
-424,803	551,773	-0,067	-0,116
-423,788	-36,611	-0,091	-0,035
-422,773	-44,232	0,099	-0,035
-421,759	-200,000	0,018	0,138
-420,744	-200,000	-0,020	0,116
-419,730	-200,000	0,006	0,079
-418,715	800,000	-0,050	-0,100
-417,701	151,124	-0,071	0,069
-416,686	40,698	-0,026	0,017
-415,671	51,229	-0,016	0,011
-414,657	800,000	-0,064	0,129
-413,642	-114,302	0,078	0,011
-412,628	241,774	0,052	-0,062
-411,613	-200,000	-0,023	-0,094
-410,598	341,546	-0,082	-0,115
-409,584	-27,599	0,028	0,012
-408,569	-200,000	-0,007	0,086
-407,555	342,176	-0,064	0,090
-406,540	800,000	0,038	-0,116
-405,525	-33,072	0,157	-0,062
-404,511	-46,513	0,126	-0,044
-403,496	-21,017	0,095	-0,041
-402,482	-50,184	-0,026	0,009
-401,467	22,308	0,054	-0,031
-400,452	-73,896	-0,133	-0,034
-399,438	-200,000	-0,019	-0,083
-398,423	-170,135	-0,070	-0,002
-397,409	-114,872	-0,055	-0,007
-396,394	266,045	0,011	-0,014
-395,379	-37,661	-0,149	0,057
-394,365	85,514	0,076	0,060
-393,350	8,295	0,119	0,064
-392,336	203,262	0,028	0,031
-391,321	135,454	-0,076	0,071
-390,306	-82,762	-0,095	-0,022
-389,292	800,000	0,063	0,142
-388,277	146,660	-0,038	-0,037
-387,263	584,435	0,049	0,087
-386,248	-100,500	-0,045	0,008
-385,233	-32,815	0,093	0,037
-384,219	250,900	0,088	-0,107
-383,204	732,244	-0,061	-0,117
-382,190	33,143	-0,017	-0,011
-381,175	800,000	-0,024	0,049
-380,160	195,127	-0,050	-0,054
-379,146	-200,000	0,044	0,158
-378,131	145,098	0,054	-0,052
-377,117	-75,339	0,138	0,035
-376,102	-101,048	-0,097	0,017
-375,088	32,782	-0,038	-0,024
-374,073	421,973	0,057	-0,088
-373,058	142,100	0,055	-0,052
-372,044	35,790	-0,089	-0,056
-371,029	557,124	0,034	-0,059
-370,015	-133,992	0,080	-0,007
-369,000	-84,128	-0,108	0,024
-367,985	-46,321	-0,071	-0,025
-366,971	-200,000	-0,023	-0,100
-365,956	-200,000	0,002	0,079
-364,942	-47,390	0,071	-0,025
-363,927	368,954	0,047	0,068
-362,912	141,142	0,049	0,046
-361,898	-200,000	0,006	-0,056
-360,883	74,600	0,080	-0,060
-359,869	-99,868	0,101	-0,018
-358,854	-27,771	0,132	-0,054
-357,839	615,699	0,051	-0,092
-356,825	171,326	0,123	0,127
-355,810	27,779	-0,039	0,023
-354,796	-200,000	-0,009	-0,079
-353,781	9,686	0,039	0,021
-352,766	96,116	-0,081	-0,066
-351,752	172,956	0,019	-0,020
-350,737	-200,000	0,012	0,105
-349,723	58,969	-0,064	0,045
-348,708	42,804	0,116	-0,075
-347,693	-44,997	-0,112	0,040
-346,679	607,777	0,058	-0,103
-345,664	450,534	-0,070	-0,111
-344,650	-181,378	-0,041	-0,001
-343,635	50,047	0,079	0,054
-342,620	148,311	0,030	-0,029
-341,606	-200,000	0,016	-0,070
-340,591	797,331	-0,014	-0,028
-339,577	-69,573	0,206	-0,056
-338,562	-200,000	0,018	-0,069
-337,548	800,000	0,027	0,080
-336,533	-23,705	0,067	-0,029
-335,518	-18,881	0,025	0,011
-334,504	104,041	0,150	0,127
-333,489	-200,000	-0,022	-0,150
-332,475	-165,800	0,074	0,002
-331,460	319,299	-0,081	-0,110
-330,445	-153,112	0,125	-0,006
-329,431	-200,000	-0,014	0,125
-328,416	-200,000	-0,024	0,149
-327,402	77,238	-0,026	0,020
-326,387	-200,000	-0,014	0,074
-325,372	202,004	-0,036	0,040
-324,358	62,094	0,033	-0,024
-323,343	647,374	-0,049	-0,090
-322,329	-159,037	0,106	-0,004
-321,314	432,985	0,099	-0,155
-320,299	599,914	0,009	-0,016
-319,285	800,000	-0,024	-0,063
-318,270	-200,000	0,005	-0,191
-317,256	-200,000	-0,020	-0,083
-316,241	207,177	-0,069	0,077
-315,226	104,624	0,019	0,016
-314,212	629,575	0,013	-0,024
-313,197	-200,000	-0,001	0,008
-312,183	-119,931	0,033	-0,004
-311,168	508,152	-0,029	-0,048
-310,153	126,785	-0,042	-0,038
-309,139	163,672	0,046	-0,046
-308,124	-13,394	-0,118	-0,055
-307,110	531,115	-0,051	0,086
-306,095	-78,333	-0,051	0,012
-305,080	459,067	0,061	0,098
-304,066	-127,511	-0,121	0,012
-303,051	-200,000	-0,023	0,098
-302,037	197,634	-0,104	0,113
-301,022	-200,000	-0,014	0,106
-300,008	246,087	0,117	-0,141
-298,993	61,159	0,131	0,093
-297,978	293,123	-0,037	0,048
-296,964	-5,181	-0,047	0,023
-295,949	119,295	-0,017	0,015
-294,935	800,000	0,032	-0,083
-293,920	444,712	-0,057	-0,089
-292,905	800,000	0,036	0,097
-291,891	800,000	-0,014	-0,029
-290,876	-36,219	-0,068	0,026
-289,862	-19,893	-0,091	0,040
-288,847	-1,625	-0,014	-0,007
-287,832	98,780	0,068	-0,056
-286,818	38,880	-0,025	0,016
-285,803	298,016	0,024	-0,031
-284,789	-200,000	0,053	0,188
-283,774	800,000	0,050	0,131
-282,759	-81,565	-0,019	0,004
-281,745	-26,292	-0,115	-0,048
-280,730	339,069	0,091	0,128
-279,716	-110,082	0,108	0,016
-278,701	-60,398	0,164	0,049
-277,686	3,137	0,023	0,012
-276,672	60,777	0,153	0,108
-275,657	13,025	0,035	0,020
-274,643	69,454	0,045	-0,033
-273,628	-200,000	0,012	-0,118
-272,613	-107,576	-0,173	0,027
-271,599	76,072	0,134	-0,101
-270,584	34,604	0,128	-0,080
-269,570	-200,000	-0,019	0,097
-268,555	-200,000	-0,028	0,118
-267,540	-200,000	0,012	0,120
-266,526	-63,793	0,026	0,008
-265,511	131,612	0,107	0,098
-264,497	-82,347	0,075	-0,017
-263,482	-115,782	0,046	0,006
-262,467	800,000	0,025	0,055
-261,453	479,046	-0,031	0,050
-260,438	-200,000	-0,007	-0,055
-259,424	145,867	-0,044	-0,042
-258,409	74,126	0,023	-0,017
-257,395	-38,636	-0,057	0,021
-256,380	-200,000	0,014	0,056
-255,365	-139,308	0,160	0,012
-254,351	800,000	-0,006	0,016
-253,336	800,000	0,021	0,047
-252,322	-36,322	-0,078	0,030
-251,307	-200,000	0,045	-0,152
-250,292	194,973	-0,083	-0,090
-249,278	310,382	0,100	0,134
-248,263	179,860	0,051	-0,053
-247,249	640,909	0,081	0,148
-246,234	-200,000	-0,007	-0,132
-245,219	-40,620	0,025	0,009
-244,205	20,968	-0,037	0,021
-243,190	-200,000	-0,006	0,098
-242,176	-200,000	0,014	0,087
-241,161	-69,849	0,129	-0,035
-240,146	-200,000	-0,035	-0,138
-239,132	162,375	-0,017	0,017
-238,117	58,047	0,055	-0,038
-237,103	13,051	-0,058	0,032
-236,088	40,694	-0,110	-0,071
-235,073	114,023	-0,154	0,134
-234,059	800,000	0,044	0,119
-233,044	-200,000	-0,043	0,254
-232,030	800,000	-0,009	0,018
-231,015	253,491	-0,090	-0,110
-230,000	527,310	-0,038	0,065
-228,986	334,658	-0,084	0,116
-227,971	-200,000	0,006	0,021
-226,957	45,023	0,116	-0,076
-225,942	408,606	0,048	-0,073
-224,927	29,816	-0,077	-0,046
-223,913	-200,000	0,002	-0,095
-222,898	-200,000	0,000	-0,064
-221,884	800,000	-0,012	-0,032
-220,869	-139,569	0,062	-0,005
-219,855	220,917	-0,026	-0,029
-218,840	230,569	-0,085	0,099
-217,825	465,186	0,034	-0,055
-216,811	-200,000	-0,007	-0,083
-215,796	-132,314	-0,107	-0,010
-214,782	-200,000	0,050	-0,174
-213,767	-200,000	0,009	0,100
-212,752	800,000	0,061	0,156
-211,738	800,000	0,045	0,101
-210,723	-150,066	-0,033	0,002
-209,709	800,000	-0,025	-0,063
-208,694	-200,000	0,012	0,147
-207,679	210,403	-0,076	-0,085
-206,665	-200,000	-0,009	-0,073
-205,650	-31,860	-0,059	0,023
-204,636	-114,935	0,035	-0,005
-203,621	249,622	-0,101	-0,122
-202,606	9,364	0,012	0,007
-201,592	125,579	-0,073	-0,066
-200,577	-1,748	-0,039	-0,020
-199,563	-200,000	-0,032	0,160
-198,548	160,953	-0,035	-0,034
-197,533	-115,447	0,116	0,015
-196,519	-188,181	0,083	0,001
-195,504	-200,000	-0,031	-0,117
-194,490	-200,000	-0,000	-0,087
-193,475	-200,000	0,000	0,169
-192,460	173,387	-0,024	0,025
-191,446	-200,000	0,026	0,114
-190,431	800,000	-0,034	-0,101
-189,417	-64,882	-0,094	0,027
-188,402	216,191	0,020	0,023
-187,387	30,428	0,054	-0,033
-186,373	68,872	-0,058	-0,042
-185,358	-73,715	0,005	0,001
-184,344	-147,837	0,081	0,005
-183,329	-84,025	0,165	0,037
-182,315	28,597	-0,068	-0,041
-181,300	800,000	0,005	-0,012
-180,285	-136,695	-0,022	0,002
-179,271	210,592	0,097	-0,109
-178,256	98,840	-0,054	0,044
-177,242	145,985	-0,065	-0,062
-176,227	-200,000	0,006	0,083
-175,212	97,670	-0,098	0,080
-174,198	-200,000	-0,017	-0,109
-173,183	366,246	-0,068	0,098
-172,169	94,513	-0,060	-0,048
-171,154	155,473	0,054	-0,053
-170,139	-89,290	-0,078	0,016
-169,125	-97,881	0,142	-0,026
-168,110	800,000	0,024	-0,058
-167,096	-115,509	-0,107	0,014
-166,081	339,083	-0,087	0,120
-165,066	-200,000	0,041	-0,136
-164,052	-31,183	-0,115	-0,046
-163,037	240,051	0,091	0,108
-162,023	85,103	0,080	-0,062
-161,008	100,302	-0,026	0,022
-159,993	800,000	0,034	0,100
-158,979	-17,067	-0,187	0,084
-157,964	-47,692	-0,098	-0,034
-156,950	-200,000	0,015	0,100
-155,935	-200,000	0,025	0,156
-154,920	-200,000	-0,029	0,101
-153,906	50,389	0,074	-0,050
-152,891	277,497	-0,019	0,024
-151,877	23,032	0,029	0,017
-150,862	-60,873	-0,068	-0,020
-149,847	177,014	-0,059	0,061
-148,833	-32,894	0,107	-0,042
-147,818	800,000	0,031	0,062
-146,804	-200,000	-0,004	-0,027
-145,789	-200,000	0,002	-0,044
-144,775	-126,081	0,035	0,004
-143,760	75,283	-0,034	0,025
-142,745	219,657	-0,068	-0,077
-141,731	800,000	0,035	0,081
-140,716	-90,541	-0,040	0,008
-139,702	-121,438	0,104	0,012
-138,687	-200,000	0,005	0,048
-137,672	89,169	0,066	-0,052
-136,658	-82,055	-0,013	-0,003
-135,643	-24,720	0,019	0,008
-134,629	267,251	0,078	0,097
-133,614	-200,000	0,047	0,151
-132,599	-200,000	-0,042	0,178
-131,585	-200,000	-0,000	0,042
-130,570	-103,488	0,143	0,024
-129,556	800,000	0,022	-0,066
-128,541	145,863	-0,080	-0,077
-127,526	774,681	0,037	-0,072
-126,512	132,175	-0,034	-0,031
-125,497	-200,000	-0,009	0,129
-124,483	800,000	-0,012	-0,030
-123,468	27,817	-0,021	-0,013
-122,453	215,060	-0,039	0,044
-121,439	154,517	0,130	-0,127
-120,424	-185,710	-0,094	-0,001
-119,410	-200,000	-0,003	0,134
-118,395	-200,000	-0,014	0,210
-117,380	351,993	0,037	0,051
-116,366	800,000	-0,066	-0,169
-115,351	-55,075	0,027	-0,008
-114,337	-200,000	-0,008	0,085
-113,322	167,113	0,021	0,022
-112,307	345,381	-0,086	0,121
-111,293	452,336	-0,066	0,104
-110,278	784,781	0,055	0,108
-109,264	278,509	-0,056	-0,070
-108,249	176,288	-0,059	0,061
-107,234	-200,000	0,008	0,054
-106,220	-200,000	-0,000	0,037
-105,205	-109,822	0,129	0,019
-104,191	800,000	0,021	0,058
-103,176	-123,601	-0,116	0,013
-102,162	-6,889	0,079	-0,038
-101,147	-121,952	0,041	-0,005
-100,132	-200,000	-0,009	-0,069
-99,118	121,959	-0,059	0,052
-98,103	553,320	-0,049	0,083
-97,089	-200,000	0,025	0,108
-96,074	-200,000	0,002	-0,091
-95,059	800,000	-0,026	0,051
-94,045	123,039	0,092	-0,081
-93,030	-200,000	-0,020	0,088
-92,016	-200,000	-0,030	-0,212
-91,001	-200,000	-0,005	-0,042
-89,986	99,977	0,162	0,133
-88,972	-69,560	0,078	-0,021
-87,957	29,022	-0,119	0,071
-86,943	-89,490	-0,097	0,020
-85,928	551,282	-0,054	-0,092
-84,913	800,000	0,040	-0,109
-83,899	-28,336	0,036	0,015
-82,884	-192,889	0,101	0,001
-81,870	506,129	-0,032	0,052
-80,855	-56,678	-0,059	0,018
-79,840	800,000	0,045	-0,104
-78,826	-53,102	0,036	0,012
-77,811	225,654	-0,024	-0,028
-76,797	95,274	-0,035	0,028
-75,782	-41,384	-0,063	0,023
-74,767	521,795	0,020	-0,033
-73,753	-43,314	-0,077	0,027
-72,738	-200,000	0,001	-0,036
-71,724	308,717	-0,118	0,157
-70,709	-200,000	-0,006	0,032
-69,694	-65,492	-0,107	-0,030
-68,680	800,000	-0,057	0,144
-67,665	534,812	0,029	0,050
-66,651	800,000	-0,065	-0,132
-65,636	-200,000	-0,026	0,096
-64,622	351,184	-0,117	-0,165
-63,607	-200,000	-0,002	-0,096
-62,592	-54,351	0,020	-0,006
-61,578	84,431	0,056	-0,043
-60,563	36,128	-0,079	0,049
-59,549	662,747	-0,068	0,125
-58,534	22,926	-2,271	-1,315
-57,519	-200,000	0,105	-0,533
-56,505	-200,000	-1,500	-5,260
-55,490	210,330	1,034	1,151
-54,476	800,000	5,235	11,776
-53,461	-200,000	19,339	329,817
-52,446	800,000	742,586	2318,005
-51,432	547,902	1651,179	2808,859
-50,417	74,653	1677,048	1247,329
-49,403	19,179	1599,808	906,149
-48,388	13,800	1554,229	852,564
-47,373	18,150	1546,027	870,349
-46,359	16,303	1535,180	854,814
-45,344	12,327	1530,571	831,985
-44,330	12,196	1528,857	830,356
-43,315	12,136	1527,425	829,237
-42,300	12,102	1525,685	828,089
-41,286	12,115	1524,457	827,453
-40,271	12,135	1522,647	826,540
-39,257	12,171	1521,139	825,869
-38,242	12,166	1519,747	825,058
-37,227	12,192	1518,560	824,511
-36,213	12,139	1517,165	823,454
-35,198	12,173	1515,891	822,903
-34,184	12,152	1514,730	822,132
-33,169	12,186	1513,146	821,409
-32,154	12,188	1511,657	820,579
-31,140	12,205	1510,222	819,854
-30,125	12,158	1509,135	818,997
-29,111	12,207	1507,823	818,499
-28,096	12,184	1506,708	817,745
-27,082	12,201	1505,552	817,168
-26,067	12,167	1504,266	816,269
-25,052	12,158	1503,290	815,662
-24,038	12,154	1502,151	814,992
-23,023	12,175	1500,883	814,375
-22,009	12,166	1500,061	813,852
-20,994	12,220	1499,125	813,583
-19,979	12,183	1497,805	812,649
-18,965	12,195	1496,922	812,197
-17,950	12,145	1496,079	811,459
-16,936	12,056	1495,178	810,498
-15,921	12,072	1493,771	809,779
-14,906	12,055	1492,821	809,150
-13,892	12,067	1491,663	808,549
-12,877	12,028	1490,746	807,825
-11,863	12,016	1489,633	807,129
-10,848	12,024	1488,982	806,788
-9,833	12,122	1488,057	806,740
-8,819	12,085	1486,936	805,917
-7,804	12,043	1485,798	805,059
-6,790	12,072	1485,074	804,779
-5,775	12,083	1484,208	804,329
-4,760	12,095	1483,367	803,901
-3,746	12,045	1482,167	802,973
-2,731	11,939	1481,185	801,889
-1,717	11,867	1480,213	800,977
-0,702	11,888	1479,149	800,473
0,313	11,696	1478,189	800,215
1,327	15,357	1475,229	816,499
2,342	24,707	1240,137	724,630
3,356	21,210	697,713	399,612
4,371	-7,312	467,967	223,418
5,386	-10,902	439,811	204,628
6,400	-12,135	430,732	198,592
7,415	-12,152	427,232	196,937
8,429	-12,932	424,602	194,588
9,444	-13,081	423,238	193,732
10,459	-13,166	422,103	193,075
11,473	-13,198	420,841	192,434
12,488	-13,589	420,041	191,498
13,502	-13,869	419,077	190,644
14,517	-13,936	418,320	190,188
15,531	-14,275	417,371	189,261
16,546	-14,321	416,759	188,903
17,561	-14,298	416,298	188,709
18,575	-14,467	415,599	188,138
19,590	-14,396	415,028	187,962
20,604	-14,237	414,358	187,865
21,619	-14,457	414,064	187,407
22,634	-14,398	413,359	187,154
23,648	-14,521	412,792	186,709
24,663	-14,501	412,513	186,593
25,677	-14,458	411,943	186,379
26,692	-14,606	411,595	186,000
27,707	-14,571	410,962	185,745
28,721	-14,567	410,846	185,683
29,736	-14,688	410,219	185,214
30,750	-14,632	409,877	185,121
31,765	-14,657	409,311	184,815
32,780	-14,559	409,110	184,842
33,794	-14,702	408,605	184,401
34,809	-14,625	408,192	184,304
35,823	-14,712	407,972	184,068
36,838	-14,614	407,347	183,904
37,853	-14,625	406,973	183,705
38,867	-14,696	406,564	183,406
39,882	-14,817	406,372	183,137
40,896	-14,637	405,844	183,130
41,911	-14,745	405,377	182,754
42,926	-14,764	404,995	182,541
43,940	-14,637	404,640	182,537
44,955	-14,750	404,276	182,203
45,969	-14,899	403,914	181,820
46,984	-15,073	403,597	181,424
47,999	-15,387	403,078	180,749
49,013	-15,332	402,720	180,647
50,028	-15,525	402,326	180,193
51,042	-15,511	401,808	179,964
52,057	-15,557	401,544	179,767
53,071	-15,316	401,066	179,863
54,086	-15,276	400,904	179,827
55,101	-15,213	400,659	179,787
56,115	-15,093	400,500	179,861
57,130	-14,465	400,444	180,666
58,144	-14,228	400,029	180,782
59,159	-14,116	399,873	180,846
60,174	-14,137	399,374	180,577
61,188	-14,285	398,970	180,179
62,203	-14,337	398,667	179,956
63,217	-14,334	398,249	179,756
64,232	-14,583	397,971	179,280
65,247	-14,209	397,633	179,613
66,261	-14,329	397,277	179,276
67,276	-14,679	396,672	178,520
68,290	-14,999	396,236	177,881
69,305	-15,010	395,813	177,660
70,320	-14,991	395,554	177,554
71,334	-14,609	395,362	177,960
72,349	-14,265	395,315	178,379
73,363	-14,116	395,060	178,446
74,378	-14,243	394,469	177,996
75,393	-14,346	394,214	177,727
76,407	-14,389	393,735	177,440
77,422	-14,463	393,298	177,129
78,436	-14,413	393,216	177,142
79,451	-14,306	392,780	177,071
80,466	-14,565	392,412	176,548
81,480	-14,690	391,960	176,165
82,495	-14,911	391,623	175,707
83,509	-14,744	391,400	175,811
84,524	-14,824	391,070	175,542
85,539	-14,972	390,585	175,115
86,553	-15,014	390,242	174,890
87,568	-14,795	390,112	175,102
88,582	-14,791	389,718	174,915
89,597	-14,893	389,557	174,693
90,611	-14,805	389,463	174,751
91,626	-14,586	389,103	174,860
92,641	-14,469	388,666	174,800
93,655	-14,587	388,318	174,475
94,670	-14,837	388,059	174,017
95,684	-14,557	387,644	174,180
96,699	-14,557	387,388	174,049
97,714	-14,688	387,132	173,748
98,728	-14,886	386,629	173,250
99,743	-15,046	386,278	172,871
100,757	-15,112	385,883	172,594
101,772	-14,840	385,773	172,881
102,787	-14,914	385,551	172,670
103,801	-14,605	385,335	172,957
104,816	-14,537	385,102	172,925
105,830	-14,472	384,719	172,821
106,845	-14,330	384,590	172,930
107,860	-14,345	384,233	172,736
108,874	-14,539	383,861	172,304
109,889	-14,481	383,448	172,177
110,903	-14,484	383,153	172,025
111,918	-14,585	382,898	171,766
112,933	-14,521	382,697	171,742
113,947	-14,393	382,471	171,790
114,962	-14,346	382,057	171,648
115,976	-14,419	381,826	171,436
116,991	-14,486	381,569	171,220
118,006	-14,414	381,199	171,130
119,020	-14,394	381,042	171,071
120,035	-14,333	380,754	171,004
121,049	-14,238	380,610	171,045
122,064	-14,398	380,283	170,679
123,079	-14,455	379,972	170,451
124,093	-14,418	379,379	170,217
125,108	-14,652	378,895	169,689
126,122	-14,982	378,533	169,093
127,137	-15,105	378,182	168,765
128,151	-14,861	378,053	169,002
129,166	-14,874	377,865	168,886
130,181	-14,763	377,358	168,784
131,195	-14,862	377,236	168,590
132,210	-14,543	377,000	168,871
133,224	-14,345	376,803	169,018
134,239	-14,237	376,668	169,078
135,254	-14,373	376,444	168,792
136,268	-14,698	376,049	168,191
137,283	-14,922	375,493	167,646
138,297	-15,069	375,111	167,276
139,312	-14,900	374,795	167,332
140,327	-14,493	374,836	167,846
141,341	-13,975	374,700	168,418
142,356	-13,941	374,514	168,362
143,370	-13,998	374,263	168,162
144,385	-13,837	373,891	168,181
145,400	-13,950	373,594	167,891
146,414	-13,984	373,381	167,738
147,429	-14,091	373,072	167,452
148,443	-14,166	372,863	167,250
149,458	-14,090	372,435	167,137
150,473	-14,030	372,273	167,123
151,487	-14,131	372,033	166,876
152,502	-14,102	371,732	166,763
153,516	-14,000	371,362	166,707
154,531	-13,961	371,146	166,644
155,546	-14,128	370,961	166,340
156,560	-14,248	370,625	166,025
157,575	-14,302	370,280	165,789
158,589	-14,144	369,931	165,814
159,604	-13,855	369,921	166,151
160,619	-13,809	369,695	166,091
161,633	-13,831	369,448	165,938
162,648	-13,926	369,231	165,709
163,662	-14,002	368,881	165,444
164,677	-14,104	368,522	165,143
165,692	-13,961	368,379	165,239
166,706	-13,900	368,234	165,234
167,721	-13,832	368,058	165,224
168,735	-13,743	367,850	165,225
169,750	-13,898	367,517	164,871
170,764	-13,849	367,072	164,717
171,779	-13,862	366,949	164,631
172,794	-13,745	366,854	164,716
173,808	-13,906	366,215	164,218
174,823	-14,491	365,664	163,245
175,837	-14,792	365,544	162,809
176,852	-14,115	365,446	163,576
177,867	-13,914	365,419	163,793
178,881	-13,804	365,103	163,770
179,896	-13,974	365,017	163,511
180,910	-13,760	364,582	163,562
181,925	-13,818	364,386	163,389
182,940	-13,696	364,217	163,446
183,954	-13,752	364,022	163,276
184,969	-13,829	363,611	162,984
185,983	-13,717	363,468	163,041
186,998	-13,697	363,219	162,939
188,013	-13,571	362,933	162,949
189,027	-13,639	362,676	162,736
190,042	-13,678	362,447	162,572
191,056	-13,436	362,348	162,805
192,071	-13,445	361,952	162,602
193,086	-13,434	361,804	162,534
194,100	-13,099	361,987	163,004
195,115	-12,405	361,514	163,611
196,129	-12,230	362,048	164,048
197,144	-8,153	363,859	169,779
198,159	-4,591	365,407	174,798
199,173	-1,155	366,875	179,655
200,188	-0,625	366,852	180,270
201,202	-0,798	366,567	179,904
202,217	-0,814	366,226	179,701
203,232	-0,685	366,310	179,883
204,246	-0,531	366,019	179,909
205,261	-0,325	365,741	180,006
206,275	-0,281	365,636	179,991
207,290	-0,364	365,419	179,768
208,304	-0,215	365,058	179,754
209,319	-0,222	364,947	179,674
210,334	-0,340	364,620	179,356
211,348	-0,378	364,315	179,145
212,363	-0,599	363,932	178,675
213,377	-0,579	363,556	178,498
214,392	-0,483	363,642	178,639
215,407	-0,403	363,303	178,553
216,421	-0,182	363,135	178,720
217,436	-0,377	362,785	178,298
218,450	-0,505	362,453	177,966
219,465	-0,512	362,149	177,792
220,480	-0,706	362,242	177,590
221,494	-0,615	361,790	177,461
222,509	-0,381	361,851	177,754
223,523	-0,180	361,485	177,798
224,538	-0,344	361,124	177,410
225,553	-0,526	361,020	177,127
226,567	-0,635	360,849	176,896
227,582	-0,223	360,712	177,304
228,596	0,171	360,442	177,623
229,611	-0,074	360,114	177,155
230,626	-0,599	359,643	176,286
231,640	-0,380	359,453	176,436
232,655	-0,151	359,334	176,633
233,669	0,054	359,223	176,805
234,684	0,330	359,136	177,073
235,699	-0,142	358,846	176,356
236,713	-0,400	358,371	175,803
237,728	-0,463	358,045	175,553
238,742	-0,572	357,781	175,280
239,757	-0,442	357,555	175,307
240,772	-0,545	357,341	175,064
241,786	-0,503	357,020	174,942
242,801	-0,172	357,024	175,316
243,815	0,214	356,832	175,660
244,830	-0,037	356,589	175,229
245,844	-0,452	356,213	174,542
246,859	-0,765	356,011	174,061
247,874	-0,171	355,696	174,588
248,888	-0,143	355,661	174,587
249,903	-0,178	355,362	174,384
250,917	-0,343	354,964	173,980
251,932	-0,563	354,807	173,632
252,947	-0,705	354,472	173,287
253,961	-0,613	354,174	173,232
254,976	-0,459	353,925	173,275
255,990	-0,213	353,833	173,500
257,005	-0,122	353,847	173,598
258,020	-0,147	353,465	173,366
259,034	-0,213	353,225	173,156
260,049	-0,218	353,171	173,108
261,063	-0,126	352,819	173,027
262,078	0,125	352,470	173,131
263,093	0,308	352,552	173,367
264,107	0,067	352,304	172,950
265,122	0,106	351,898	172,781
266,136	0,040	351,820	172,651
267,151	0,075	351,567	172,552
268,166	-0,363	351,142	171,823
269,180	-0,714	350,857	171,264
270,195	-0,323	350,546	171,547
271,209	-0,334	350,494	171,493
272,224	-0,352	350,341	171,383
273,239	-0,345	350,151	171,283
274,253	-0,217	349,652	171,170
275,268	-0,478	349,490	170,777
276,282	-0,611	349,270	170,501
277,297	-0,522	348,919	170,416
278,312	-0,281	348,867	170,651
279,326	-0,273	348,593	170,512
280,341	-0,191	348,361	170,477
281,355	-0,139	348,224	170,454
282,370	-0,079	347,970	170,382
283,384	-0,323	347,658	169,937
284,399	-0,564	347,354	169,499
285,414	-0,782	347,280	169,199
286,428	-0,390	347,001	169,494
287,443	-0,036	346,857	169,811
288,457	-0,002	346,660	169,738
289,472	-0,309	346,360	169,227
290,487	-0,569	345,915	168,700
291,501	-0,795	345,699	168,324
292,516	-0,581	345,655	168,529
293,530	-0,561	345,420	168,423
294,545	-0,458	345,231	168,432
295,560	-0,294	345,102	168,540
296,574	-0,165	344,883	168,563
297,589	-0,470	344,728	168,128
298,603	-0,310	344,501	168,183
299,618	-0,207	344,049	168,063
300,633	-0,154	344,074	168,120
301,647	-0,028	343,974	168,198
302,662	0,003	343,676	168,072
303,676	-0,061	343,528	167,913
304,691	0,029	343,288	167,882
305,706	-0,149	342,872	167,463
306,720	-0,153	342,802	167,409
307,735	-0,464	342,420	166,860
308,749	-0,502	342,279	166,735
309,764	-0,084	342,213	167,155
310,779	-0,213	341,765	166,777
311,793	-0,219	341,449	166,601
312,808	-0,094	341,385	166,695
313,822	-0,163	341,167	166,496
314,837	-0,335	340,898	166,159
315,852	-0,415	340,475	165,849
316,866	-0,058	340,354	166,171
317,881	-0,050	340,241	166,111
318,895	0,021	340,051	166,082
319,910	-0,510	339,685	165,300
320,925	-0,695	339,359	164,921
321,939	-0,797	339,081	164,657
322,954	-0,634	338,961	164,765
323,968	-0,078	338,984	165,377
324,983	-0,022	338,945	165,406
325,997	0,256	338,812	165,633
327,012	0,056	338,297	165,147
328,027	0,027	338,029	164,968
329,041	0,155	338,004	165,083
330,056	0,011	337,846	164,832
331,070	-0,149	337,367	164,408
332,085	-0,517	337,025	163,821
333,100	-0,374	336,899	163,903
334,114	-0,065	336,903	164,229
335,129	0,101	336,756	164,326
336,143	0,013	336,339	164,011
337,158	-0,085	336,274	163,857
338,173	-0,154	335,915	163,593
339,187	-0,271	335,642	163,317
340,202	-0,308	335,378	163,134
341,216	-0,216	335,068	163,068
342,231	-0,103	335,023	163,155
343,246	-0,174	334,790	162,950
344,260	-0,440	334,755	162,628
345,275	-0,176	334,580	162,817
346,289	-0,225	334,273	162,600
347,304	-0,370	333,860	162,226
348,319	-0,276	333,811	162,290
349,333	0,014	333,731	162,552
350,348	0,207	333,535	162,652
351,362	0,426	333,427	162,823
352,377	0,379	332,952	162,525
353,392	0,092	332,732	162,093
354,406	0,008	332,767	162,003
355,421	195,821	1328,634	1387,191
356,435	160,282	1449,858	1387,116
