DTS Sentinel unit serial number:	SN410029Multiplexer serial number:	ORYXHardware model number:	OX2-SRSoftware version number:	ORYX F/W v4,00 Oryx Data Collector v3.7.2.0data status	okinstallation	B6 Nyhavnadifferential loss correction	single-endedforward channel	channel 2reverse channel	N/Adate	2023/12/10time	08:35:08forward acquisition time	300,00reverse acquisition time	0,00gamma	499,1914k internal	0,3123k external	0,3123temperature offset calibration	1,0000default loss term (dB/km)	0,3820temperature slope calibration	1,0000multiplexer offset coefficient	1,0000multiplexer slope coefficient	1,0000fibre end	0,00T internal ref (°C)	22,56T ext. ref 1 (°C)	6,32T ext. ref 2 (°C)	6,34length (m)	temperature (°C)	Stokes	anti-Stokes-744,400	600,996	0,070	-0,130
-743,385	-92,968	-0,230	0,047
-742,371	-200,000	0,007	0,130
-741,356	244,367	-0,070	0,088
-740,342	617,214	0,011	-0,021
-739,327	-5,365	-0,200	0,102
-738,312	442,306	-0,086	-0,142
-737,298	-145,680	-0,149	-0,010
-736,283	-12,914	0,210	-0,101
-735,269	106,510	-0,169	0,149
-734,254	-25,591	0,003	0,001
-733,239	-143,105	-0,411	-0,029
-732,225	156,301	0,104	-0,107
-731,210	-122,804	0,091	0,011
-730,196	201,450	-0,032	-0,037
-729,181	78,047	-0,041	0,032
-728,167	-200,000	0,016	0,147
-727,152	-96,372	-0,113	0,022
-726,137	-200,000	-0,009	-0,050
-725,123	800,000	-0,066	-0,142
-724,108	-65,961	-0,065	-0,019
-723,094	-49,664	-0,182	0,064
-722,079	142,976	-0,075	-0,075
-721,064	-25,247	-0,048	0,021
-720,050	-42,696	-0,148	-0,056
-719,035	330,172	-0,030	-0,042
-718,021	800,000	-0,063	-0,166
-717,006	146,630	-0,070	-0,070
-715,991	356,047	0,050	0,074
-714,977	-93,092	-0,014	0,003
-713,962	208,267	0,078	0,091
-712,948	115,902	0,042	0,039
-711,933	-164,278	-0,055	-0,002
-710,918	-63,033	-0,081	0,025
-709,904	-44,106	-0,111	0,041
-708,889	-45,307	-0,052	0,019
-707,875	-200,000	0,003	-0,050
-706,860	800,000	-0,023	-0,055
-705,845	-46,309	0,183	0,067
-704,831	608,885	-0,052	0,097
-703,816	-31,887	-0,165	-0,068
-702,802	-142,414	-0,127	0,009
-701,787	-62,941	-0,082	-0,025
-700,772	-7,594	0,032	0,016
-699,758	-105,538	-0,072	0,012
-698,743	91,324	0,065	0,055
-697,729	49,257	-0,052	0,036
-696,714	-200,000	0,051	0,199
-695,699	100,175	0,071	0,062
-694,685	163,088	-0,060	-0,063
-693,670	-11,767	0,028	0,013
-692,656	800,000	0,029	-0,094
-691,641	234,784	-0,017	0,020
-690,627	-51,501	0,100	0,034
-689,612	63,078	0,053	-0,040
-688,597	-200,000	0,009	0,110
-687,583	-119,318	0,092	-0,012
-686,568	-38,183	0,037	-0,015
-685,554	192,946	-0,094	0,106
-684,539	-74,231	-0,151	0,040
-683,524	49,883	0,027	0,019
-682,510	-200,000	-0,015	-0,053
-681,495	-200,000	0,021	-0,081
-680,481	-200,000	-0,006	-0,124
-679,466	-11,443	-0,125	-0,061
-678,451	-47,842	0,092	0,033
-677,437	800,000	0,024	-0,049
-676,422	-140,750	0,096	-0,007
-675,408	12,280	-0,071	-0,041
-674,393	16,103	0,064	-0,038
-673,378	-200,000	0,008	0,070
-672,364	95,181	-0,025	-0,021
-671,349	253,882	-0,119	0,152
-670,335	158,935	-0,054	0,056
-669,320	26,943	0,074	0,046
-668,305	-83,387	0,111	0,026
-667,291	-141,299	-0,052	0,004
-666,276	-161,464	-0,081	-0,003
-665,262	-48,662	-0,100	-0,035
-664,247	-200,000	-0,007	-0,094
-663,232	293,470	0,030	-0,041
-662,218	291,709	-0,034	0,047
-661,203	140,037	-0,010	0,009
-660,189	800,000	0,048	-0,153
-659,174	-200,000	0,003	-0,133
-658,159	800,000	-0,039	-0,101
-657,145	93,797	0,046	-0,039
-656,130	-200,000	0,013	-0,099
-655,116	191,219	-0,081	0,090
-654,101	319,892	-0,015	-0,021
-653,086	-135,108	0,158	0,014
-652,072	800,000	-0,027	-0,086
-651,057	800,000	-0,055	-0,179
-650,043	36,873	-0,103	-0,067
-649,028	21,815	0,044	0,027
-648,014	-42,417	-0,058	-0,022
-646,999	51,582	0,001	0,001
-645,984	-57,151	0,098	-0,032
-644,970	-120,037	0,054	-0,007
-643,955	60,465	-0,074	0,055
-642,941	40,111	-0,064	0,042
-641,926	800,000	-0,041	0,108
-640,911	379,501	-0,077	0,118
-639,897	-103,244	0,169	0,029
-638,882	151,284	-0,012	0,012
-637,868	-200,000	0,035	0,168
-636,853	10,325	-0,141	0,080
-635,838	-200,000	-0,024	-0,089
-634,824	15,823	-0,024	-0,014
-633,809	800,000	0,030	0,072
-632,795	374,490	-0,076	0,116
-631,780	800,000	0,002	-0,006
-630,765	-200,000	-0,032	-0,138
-629,751	-116,372	-0,076	-0,010
-628,736	114,133	-0,042	-0,037
-627,722	436,089	0,049	-0,080
-626,707	800,000	0,025	-0,077
-625,692	800,000	0,046	0,105
-624,678	-200,000	0,015	-0,051
-623,663	-33,545	-0,081	-0,033
-622,649	800,000	0,036	-0,082
-621,634	-200,000	0,004	-0,036
-620,619	-200,000	0,015	0,056
-619,605	-98,142	0,103	0,019
-618,590	-2,552	-0,048	-0,025
-617,576	418,847	0,054	0,086
-616,561	96,236	-0,068	0,058
-615,546	67,791	-0,060	-0,046
-614,532	-200,000	0,014	0,082
-613,517	800,000	0,010	0,031
-612,503	137,339	0,030	-0,029
-611,488	-12,746	-0,067	-0,032
-610,474	-200,000	-0,027	0,116
-609,459	-110,961	0,138	0,021
-608,444	-41,604	-0,167	-0,063
-607,430	44,691	0,077	-0,053
-606,415	14,027	-0,053	-0,030
-605,401	-200,000	-0,000	-0,056
-604,386	-200,000	-0,005	0,070
-603,371	-48,121	-0,031	-0,011
-602,357	294,173	0,046	0,063
-601,342	12,145	0,050	0,028
-600,328	-69,832	-0,051	0,014
-599,313	-144,647	-0,281	-0,019
-598,298	-200,000	-0,009	0,059
-597,284	447,788	0,068	0,111
-596,269	-200,000	0,013	0,043
-595,255	293,930	0,057	0,077
-594,240	715,574	-0,069	-0,136
-593,225	-91,019	-0,075	0,016
-592,211	-200,000	-0,016	-0,097
-591,196	800,000	0,017	0,052
-590,182	131,549	0,040	-0,038
-589,167	613,233	0,010	0,018
-588,152	800,000	-0,030	-0,088
-587,138	80,498	-0,099	-0,079
-586,123	-200,000	0,010	-0,053
-585,109	784,268	-0,065	-0,132
-584,094	591,103	-0,011	0,021
-583,079	800,000	0,012	0,026
-582,065	19,006	-0,107	0,063
-581,050	-200,000	0,008	-0,055
-580,036	5,486	0,044	0,024
-579,021	123,002	-0,031	0,029
-578,006	-200,000	0,007	-0,074
-576,992	-200,000	0,019	0,126
-575,977	-200,000	0,008	-0,076
-574,963	800,000	0,048	0,104
-573,948	800,000	0,046	-0,112
-572,934	800,000	-0,020	0,041
-571,919	132,035	-0,051	0,048
-570,904	741,009	-0,061	-0,122
-569,890	755,708	0,046	-0,093
-568,875	150,985	0,028	-0,028
-567,861	-123,894	0,096	-0,011
-566,846	-102,151	0,005	-0,001
-565,831	-157,272	0,042	-0,002
-564,817	146,362	-0,121	-0,121
-563,802	-148,335	-0,039	0,002
-562,788	-151,428	-0,059	-0,003
-561,773	-117,434	-0,077	0,010
-560,758	137,045	0,083	0,080
-559,744	-200,000	0,004	0,085
-558,729	-200,000	0,003	0,102
-557,715	207,209	-0,076	-0,088
-556,700	-137,322	-0,214	-0,018
-555,685	800,000	0,016	-0,053
-554,671	-200,000	-0,003	-0,148
-553,656	-200,000	0,019	-0,088
-552,642	16,294	0,017	0,010
-551,627	800,000	-0,041	-0,085
-550,612	55,742	0,032	-0,023
-549,598	-61,460	0,102	0,032
-548,583	782,124	-0,046	-0,094
-547,569	-200,000	-0,023	-0,109
-546,554	314,605	0,010	0,015
-545,539	475,249	0,056	0,095
-544,525	26,540	-0,021	0,013
-543,510	-40,353	-0,113	0,043
-542,496	-195,067	0,111	0,001
-541,481	17,352	-0,059	0,034
-540,466	243,969	0,109	-0,135
-539,452	117,145	0,158	-0,143
-538,437	800,000	-0,021	-0,058
-537,423	-200,000	0,002	0,052
-536,408	735,366	-0,032	-0,064
-535,393	-51,170	-0,096	0,033
-534,379	800,000	-0,038	-0,080
-533,364	58,484	-0,047	0,034
-532,350	11,101	0,046	0,026
-531,335	41,584	0,106	-0,071
-530,321	-200,000	0,002	-0,059
-529,306	477,545	-0,072	-0,121
-528,291	67,232	0,083	-0,062
-527,277	178,123	0,023	-0,025
-526,262	625,971	0,028	-0,053
-525,248	-110,791	0,123	-0,018
-524,233	-93,018	0,111	0,023
-523,218	-68,997	-0,104	0,030
-522,204	-200,000	0,013	0,120
-521,189	123,643	0,019	0,017
-520,175	-23,593	-0,177	-0,078
-519,160	189,719	0,030	0,033
-518,145	224,152	-0,083	0,099
-517,131	-200,000	-0,020	0,199
-516,116	-200,000	0,013	0,122
-515,102	-200,000	-0,000	0,065
-514,087	-200,000	0,002	0,111
-513,072	270,181	-0,063	-0,082
-512,058	-200,000	0,017	-0,073
-511,043	800,000	-0,012	-0,034
-510,029	800,000	-0,038	0,084
-509,014	800,000	-0,015	-0,044
-507,999	64,838	-0,098	-0,073
-506,985	-183,714	-0,116	-0,001
-505,970	-200,000	0,018	-0,066
-504,956	-50,916	0,114	0,039
-503,941	-120,592	0,134	0,017
-502,926	491,089	0,106	-0,179
-501,912	472,296	-0,028	0,047
-500,897	800,000	0,011	0,031
-499,883	-200,000	-0,012	-0,048
-498,868	800,000	0,038	-0,123
-497,853	26,535	-0,157	-0,097
-496,839	377,887	0,103	-0,155
-495,824	-200,000	-0,031	-0,104
-494,810	-200,000	0,014	0,069
-493,795	207,389	0,084	-0,097
-492,781	62,067	-0,094	-0,069
-491,766	237,676	-0,035	0,043
-490,751	-103,533	0,074	-0,013
-489,737	-101,488	-0,143	0,025
-488,722	6,912	0,081	-0,044
-487,708	-81,714	0,016	0,004
-486,693	800,000	-0,056	0,121
-485,678	17,072	0,074	0,043
-484,664	-27,580	-0,086	0,037
-483,649	127,225	-0,142	-0,133
-482,635	103,516	-0,061	-0,053
-481,620	-11,202	0,049	0,024
-480,605	-200,000	0,006	0,153
-479,591	11,651	-0,119	0,067
-478,576	37,539	-0,085	-0,055
-477,562	-29,363	-0,072	-0,030
-476,547	130,542	-0,109	0,103
-475,532	90,301	0,038	0,031
-474,518	-56,957	0,062	-0,020
-473,503	-200,000	0,014	0,075
-472,489	-200,000	-0,027	0,153
-471,474	-17,334	-0,093	-0,043
-470,459	-69,235	0,087	-0,024
-469,445	-128,323	0,079	0,008
-468,430	-200,000	0,025	-0,230
-467,416	-60,762	0,109	0,034
-466,401	-49,837	0,130	0,045
-465,386	800,000	-0,060	0,146
-464,372	-145,156	0,064	0,004
-463,357	-200,000	0,004	-0,103
-462,343	-200,000	-0,017	-0,100
-461,328	-58,848	-0,032	0,010
-460,313	323,732	0,057	0,081
-459,299	-200,000	-0,039	-0,157
-458,284	-36,415	-0,062	-0,025
-457,270	375,119	0,024	0,037
-456,255	-114,110	-0,112	0,016
-455,241	-34,606	0,088	-0,035
-454,226	-200,000	-0,005	-0,022
-453,211	-53,087	-0,058	-0,019
-452,197	63,563	0,089	-0,065
-451,182	-3,644	0,071	0,036
-450,168	800,000	0,035	0,076
-449,153	-84,968	-0,128	-0,029
-448,138	-123,992	-0,153	0,017
-447,124	-200,000	-0,006	-0,029
-446,109	76,731	0,072	-0,056
-445,095	54,645	0,101	0,072
-444,080	-200,000	-0,023	0,116
-443,065	-200,000	-0,015	-0,057
-442,051	800,000	0,034	0,082
-441,036	-91,657	-0,117	0,024
-440,022	800,000	-0,052	0,107
-439,007	-62,792	-0,100	-0,030
-437,992	243,839	0,036	-0,044
-436,978	-200,000	-0,011	-0,046
-435,963	168,491	-0,023	-0,024
-434,949	215,326	0,041	-0,048
-433,934	15,548	0,065	0,038
-432,919	800,000	-0,054	-0,129
-431,905	-200,000	-0,002	0,128
-430,890	136,903	0,063	-0,061
-429,876	-200,000	0,014	-0,103
-428,861	-200,000	-0,151	-0,000
-427,846	91,387	0,040	-0,033
-426,832	144,601	-0,102	0,100
-425,817	261,999	-0,059	0,075
-424,803	-16,794	-0,015	-0,007
-423,788	142,772	-0,055	0,054
-422,773	-49,197	0,058	-0,020
-421,759	523,719	-0,015	-0,026
-420,744	-40,921	0,046	-0,017
-419,730	-47,690	0,076	0,027
-418,715	-10,822	-0,091	-0,044
-417,701	321,967	0,084	-0,118
-416,686	530,082	0,073	0,128
-415,671	503,603	-0,072	0,123
-414,657	33,653	0,070	0,045
-413,642	117,408	0,167	0,151
-412,628	15,831	-0,036	-0,021
-411,613	77,044	-0,066	0,052
-410,598	-26,633	-0,148	0,064
-409,584	215,939	0,068	-0,079
-408,569	-200,000	0,010	0,132
-407,555	-55,185	-0,042	0,014
-406,540	130,214	-0,079	-0,075
-405,525	-200,000	0,008	0,108
-404,511	-46,874	0,138	0,049
-403,496	-135,016	0,040	0,004
-402,482	-6,141	0,062	0,031
-401,467	-200,000	0,029	0,099
-400,452	-134,084	0,011	-0,001
-399,438	-129,140	-0,127	-0,013
-398,423	147,012	-0,056	-0,055
-397,409	136,906	-0,080	0,077
-396,394	128,732	-0,020	-0,018
-395,379	62,116	0,085	0,063
-394,365	-66,460	0,157	0,046
-393,350	-132,331	0,132	0,012
-392,336	-200,000	0,004	0,064
-391,321	13,444	0,019	-0,011
-390,306	-113,589	0,168	0,024
-389,292	-200,000	-0,004	-0,171
-388,277	-200,000	0,030	0,100
-387,263	800,000	-0,023	0,063
-386,248	-200,000	0,016	0,087
-385,233	800,000	-0,018	-0,051
-384,219	-41,841	0,062	0,023
-383,204	73,831	-0,132	-0,101
-382,190	800,000	-0,039	-0,097
-381,175	43,893	0,136	0,091
-380,160	-200,000	-0,004	0,086
-379,146	-125,032	0,068	-0,008
-378,131	-121,485	0,048	0,006
-377,117	-200,000	0,001	-0,042
-376,102	-143,719	-0,131	-0,009
-375,088	-71,237	-0,146	-0,040
-374,073	-200,000	-0,009	-0,049
-373,058	-3,472	0,119	0,061
-372,044	-200,000	0,001	-0,099
-371,029	178,126	0,154	0,165
-370,015	-200,000	0,012	0,063
-369,000	-48,625	0,002	0,001
-367,985	-180,882	-0,131	0,002
-366,971	73,436	0,125	-0,096
-365,956	337,741	0,062	-0,089
-364,942	301,244	0,153	-0,208
-363,927	-142,701	0,140	0,010
-362,912	-109,260	-0,091	0,014
-361,898	-123,277	-0,080	-0,009
-360,883	-59,666	-0,083	0,026
-359,869	-200,000	-0,005	-0,032
-358,854	157,490	0,102	0,104
-357,839	273,580	-0,063	0,082
-356,825	-61,409	0,108	0,033
-355,810	465,534	0,073	0,120
-354,796	-200,000	-0,038	-0,213
-353,781	800,000	-0,076	-0,165
-352,766	129,183	-0,125	-0,117
-351,752	-167,270	-0,083	-0,002
-350,737	-57,214	0,011	-0,004
-349,723	-23,278	-0,043	-0,019
-348,708	108,952	-0,077	-0,068
-347,693	162,137	0,055	-0,057
-346,679	31,389	-0,150	0,095
-345,664	128,214	-0,073	-0,068
-344,650	-10,139	-0,027	-0,013
-343,635	-14,017	0,057	-0,027
-342,620	-200,000	-0,011	0,158
-341,606	426,478	-0,037	0,059
-340,591	800,000	0,038	0,082
-339,577	800,000	0,014	0,042
-338,562	800,000	-0,073	-0,185
-337,548	394,609	0,028	-0,043
-336,533	-200,000	-0,019	-0,106
-335,518	-3,214	0,111	0,056
-334,504	-90,825	0,083	-0,017
-333,489	-200,000	-0,010	-0,033
-332,475	31,481	-0,082	-0,052
-331,460	-200,000	0,006	-0,056
-330,445	-3,924	-0,076	0,038
-329,431	-200,000	-0,015	0,133
-328,416	-176,652	0,152	0,003
-327,402	134,561	0,134	0,128
-326,387	-200,000	-0,026	0,125
-325,372	-89,772	-0,180	-0,038
-324,358	-116,307	-0,209	0,028
-323,343	-125,234	-0,154	0,017
-322,329	800,000	0,039	-0,099
-321,314	-33,379	0,184	0,074
-320,299	-72,981	-0,052	-0,014
-319,285	506,028	0,055	0,094
-318,270	-200,000	-0,001	-0,092
-317,256	155,315	0,078	-0,079
-316,241	628,559	-0,019	-0,034
-315,226	-200,000	-0,010	-0,114
-314,212	-52,275	-0,121	0,041
-313,197	131,799	-0,095	0,090
-312,183	-30,812	-0,036	0,015
-311,168	171,176	-0,126	0,133
-310,153	-10,905	0,125	0,060
-309,139	-33,582	0,078	-0,031
-308,124	88,430	0,072	-0,059
-307,110	-128,387	0,072	-0,007
-306,095	144,335	0,105	0,103
-305,080	643,301	0,045	0,084
-304,066	229,047	0,040	0,047
-303,051	549,311	0,040	-0,071
-302,037	-200,000	-0,014	-0,109
-301,022	-2,503	-0,043	-0,022
-300,008	5,001	0,086	-0,046
-298,993	396,513	0,073	-0,113
-297,978	109,976	0,030	-0,026
-296,964	-200,000	-0,027	0,120
-295,949	-200,000	-0,001	-0,147
-294,935	-13,949	0,097	-0,046
-293,920	800,000	-0,035	-0,079
-292,905	83,280	-0,086	-0,068
-291,891	-200,000	-0,009	0,036
-290,876	341,008	0,064	0,092
-289,862	-37,707	-0,034	-0,013
-288,847	193,552	-0,011	0,012
-287,832	800,000	0,016	0,052
-286,818	-76,510	-0,130	-0,033
-285,803	-200,000	0,034	-0,135
-284,789	86,091	-0,103	0,083
-283,774	-113,831	0,039	0,005
-282,759	3,043	-0,008	0,004
-281,745	-200,000	0,004	-0,059
-280,730	28,479	-0,074	-0,046
-279,716	-183,319	0,145	0,002
-278,701	96,569	0,111	-0,093
-277,686	-111,774	0,063	-0,009
-276,672	-163,292	0,084	0,003
-275,657	-73,819	-0,085	-0,022
-274,643	-200,000	0,015	-0,053
-273,628	401,558	0,049	-0,076
-272,613	347,108	-0,092	-0,134
-271,599	54,327	-0,028	-0,020
-270,584	-72,773	-0,040	-0,011
-269,570	136,138	0,065	0,062
-268,555	337,586	0,028	0,040
-267,540	-98,692	-0,065	0,012
-266,526	-161,611	-0,113	0,004
-265,511	-34,331	-0,009	0,004
-264,497	222,907	0,052	0,062
-263,482	121,734	-0,078	-0,071
-262,467	-57,044	0,026	-0,008
-261,453	-72,149	0,037	-0,010
-260,438	-79,074	-0,041	0,010
-259,424	-200,000	0,018	0,000
-258,409	382,064	-0,049	-0,074
-257,395	800,000	0,032	0,082
-256,380	-200,000	-0,002	0,041
-255,365	-74,025	0,070	-0,018
-254,351	95,053	-0,052	-0,043
-253,336	-200,000	-0,012	0,115
-252,322	42,868	-0,031	-0,020
-251,307	800,000	0,058	-0,159
-250,292	275,777	-0,016	-0,020
-249,278	661,734	0,085	0,160
-248,263	17,331	0,135	0,078
-247,249	-200,000	-0,008	0,059
-246,234	12,215	-0,069	-0,039
-245,219	-200,000	0,008	0,044
-244,205	515,012	-0,048	0,082
-243,190	11,801	0,111	0,062
-242,176	-78,985	-0,127	-0,031
-241,161	-200,000	0,000	0,019
-240,146	-4,734	0,050	-0,025
-239,132	189,859	0,043	0,048
-238,117	337,984	0,029	-0,042
-237,103	-86,652	0,045	-0,010
-236,088	-200,000	-0,022	0,081
-235,073	90,812	-0,161	0,132
-234,059	-200,000	0,028	0,122
-233,044	114,860	0,018	0,016
-232,030	-24,208	-0,069	0,030
-231,015	75,860	-0,082	-0,063
-230,000	800,000	-0,017	-0,040
-228,986	-200,000	-0,026	-0,110
-227,971	259,091	0,092	-0,117
-226,957	-200,000	0,019	0,093
-225,942	-17,510	-0,057	0,026
-224,927	351,324	-0,019	-0,027
-223,913	800,000	-0,032	-0,101
-222,898	-79,565	0,038	-0,009
-221,884	131,587	0,100	-0,094
-220,869	-87,603	0,031	0,007
-219,855	135,284	0,084	-0,080
-218,840	33,307	-0,130	-0,082
-217,825	-68,024	0,185	0,052
-216,811	269,120	0,057	-0,074
-215,796	-123,736	0,045	0,005
-214,782	69,965	0,079	-0,059
-213,767	36,263	-0,034	0,022
-212,752	-200,000	0,019	0,089
-211,738	-200,000	0,011	-0,056
-210,723	259,807	0,058	0,073
-209,709	-200,000	-0,001	-0,066
-208,694	-6,993	-0,082	-0,041
-207,679	169,943	0,025	0,026
-206,665	105,160	0,065	-0,056
-205,650	92,564	0,061	-0,050
-204,636	-200,000	0,033	0,187
-203,621	206,793	0,077	0,088
-202,606	-118,481	-0,085	0,011
-201,592	-52,832	0,062	-0,021
-200,577	263,139	-0,050	0,063
-199,563	35,321	-0,031	-0,020
-198,548	563,751	-0,018	0,032
-197,533	-200,000	0,028	0,111
-196,519	-200,000	0,000	0,003
-195,504	-112,721	-0,073	0,011
-194,490	-89,289	0,055	-0,012
-193,475	8,964	0,162	-0,089
-192,460	800,000	-0,033	-0,072
-191,446	-200,000	0,007	0,157
-190,431	-200,000	-0,004	0,064
-189,417	-200,000	0,043	0,142
-188,402	50,699	-0,011	0,008
-187,387	79,477	-0,140	-0,110
-186,373	518,525	-0,032	-0,056
-185,358	-79,395	0,090	-0,022
-184,344	506,561	0,072	0,123
-183,329	65,729	0,033	-0,025
-182,315	137,192	0,093	0,089
-181,300	-91,841	0,069	-0,014
-180,285	399,251	0,040	0,062
-179,271	47,144	0,090	-0,061
-178,256	30,860	-0,166	0,104
-177,242	-2,687	-0,071	-0,036
-176,227	800,000	0,016	0,045
-175,212	-200,000	-0,014	0,101
-174,198	-73,684	0,137	-0,036
-173,183	66,003	0,085	0,063
-172,169	-78,392	-0,188	-0,047
-171,154	-200,000	0,004	-0,016
-170,139	48,280	0,061	0,042
-169,125	-85,939	0,087	-0,019
-168,110	800,000	-0,048	-0,118
-167,096	-200,000	-0,006	0,028
-166,081	-200,000	0,004	0,051
-165,066	-200,000	0,001	-0,051
-164,052	-200,000	0,014	0,072
-163,037	141,784	-0,061	0,058
-162,023	800,000	-0,047	0,111
-161,008	-200,000	-0,002	0,066
-159,993	-142,688	-0,050	0,004
-158,979	-200,000	-0,000	0,170
-157,964	308,956	-0,022	-0,031
-156,950	800,000	0,040	-0,101
-155,935	216,582	-0,065	-0,075
-154,920	800,000	0,010	-0,023
-153,906	-194,396	0,042	-0,000
-152,891	-153,957	0,092	-0,004
-151,877	9,794	-0,070	0,039
-150,862	800,000	-0,047	-0,137
-149,847	67,723	0,060	-0,045
-148,833	-48,312	-0,074	-0,026
-147,818	443,544	0,041	-0,065
-146,804	65,393	-0,070	0,051
-145,789	-200,000	0,017	-0,078
-144,775	-200,000	0,005	-0,059
-143,760	800,000	0,044	0,091
-142,745	-122,027	-0,136	-0,016
-141,731	-100,393	0,097	0,017
-140,716	227,202	0,083	0,098
-139,702	-37,176	0,071	-0,028
-138,687	-200,000	0,026	0,096
-137,672	-200,000	0,002	-0,082
-136,658	800,000	-0,034	-0,091
-135,643	-154,620	-0,142	0,007
-134,629	-51,446	-0,039	0,013
-133,614	280,918	0,104	0,135
-132,599	-57,467	-0,077	-0,024
-131,585	-51,662	-0,068	0,023
-130,570	-87,039	-0,091	-0,020
-129,556	-34,834	-0,211	-0,083
-128,541	-67,308	-0,050	-0,014
-127,526	-106,582	0,089	0,014
-126,512	-200,000	0,009	-0,075
-125,497	392,010	0,036	0,054
-124,483	-13,469	0,058	0,027
-123,468	-145,262	-0,152	-0,010
-122,453	-200,000	0,003	-0,118
-121,439	88,454	0,050	0,041
-120,424	573,187	-0,009	-0,016
-119,410	564,743	0,100	0,177
-118,395	85,876	-0,118	-0,094
-117,380	-88,199	0,072	0,016
-116,366	-128,701	-0,149	0,015
-115,351	-74,115	-0,144	0,038
-114,337	139,475	0,046	-0,044
-113,322	-40,150	0,155	0,059
-112,307	0,733	-0,016	0,008
-111,293	266,135	-0,009	-0,011
-110,278	193,347	0,061	0,067
-109,264	-10,976	-0,104	0,050
-108,249	209,164	-0,102	-0,116
-107,234	-200,000	0,012	-0,154
-106,220	-200,000	-0,026	-0,176
-105,205	-53,458	0,027	-0,009
-104,191	57,300	0,134	0,095
-103,176	-56,884	0,091	-0,029
-102,162	-45,314	-0,106	0,038
-101,147	-141,006	0,056	0,004
-100,132	-50,820	-0,117	0,040
-99,118	-61,160	-0,139	-0,042
-98,103	-10,560	0,198	0,095
-97,089	-135,330	0,126	-0,011
-96,074	56,444	0,058	0,041
-95,059	192,333	0,126	-0,139
-94,045	-200,000	-0,005	0,065
-93,030	-129,894	-0,063	-0,006
-92,016	800,000	-0,026	-0,053
-91,001	-200,000	0,005	0,043
-89,986	-165,059	0,090	-0,003
-88,972	-197,894	-0,134	-0,001
-87,957	-200,000	0,009	0,058
-86,943	-200,000	-0,011	0,115
-85,928	-200,000	-0,006	0,064
-84,913	800,000	-0,027	-0,078
-83,899	800,000	0,040	0,108
-82,884	-100,455	0,138	-0,025
-81,870	-57,796	-0,016	-0,005
-80,855	-26,910	0,112	0,047
-79,840	-41,469	0,087	-0,032
-78,826	-200,000	0,027	-0,196
-77,811	102,014	0,076	-0,064
-76,797	211,493	-0,049	-0,056
-75,782	-196,907	0,109	0,001
-74,767	-163,629	-0,047	0,002
-73,753	800,000	0,037	0,104
-72,738	22,470	0,026	-0,016
-71,724	-10,769	-0,142	-0,068
-70,709	800,000	0,030	-0,091
-69,694	800,000	-0,009	-0,029
-68,680	-60,137	0,031	-0,009
-67,665	83,258	-0,017	-0,013
-66,651	249,919	0,059	0,072
-65,636	-200,000	0,028	0,141
-64,622	711,455	-0,077	-0,150
-63,607	-66,953	-0,184	0,052
-62,592	449,314	0,008	0,013
-61,578	277,667	0,041	0,053
-60,563	-200,000	-0,003	0,108
-59,549	137,068	-0,027	0,026
-58,534	-133,605	-1,319	-0,118
-57,519	632,473	-0,871	-1,609
-56,505	-200,000	-0,884	-4,421
-55,490	63,549	0,559	-0,407
-54,476	800,000	5,031	11,813
-53,461	-200,000	13,487	253,539
-52,446	-200,000	689,320	2268,806
-51,432	595,259	1623,107	2926,367
-50,417	120,702	1636,170	1475,669
-49,403	73,564	1290,164	979,380
-48,388	38,337	1024,991	661,139
-47,373	24,521	982,374	588,204
-46,359	23,674	972,423	579,445
-45,344	22,807	967,968	573,931
-44,330	22,740	966,542	572,846
-43,315	22,581	965,216	571,518
-42,300	22,590	964,084	570,854
-41,286	22,550	963,206	570,182
-40,271	22,570	962,339	569,710
-39,257	22,561	961,288	569,037
-38,242	22,565	960,238	568,405
-37,227	22,537	959,474	567,839
-36,213	22,534	958,528	567,249
-35,198	22,582	957,722	566,903
-34,184	22,603	957,145	566,608
-33,169	22,538	956,239	565,839
-32,154	22,608	955,155	565,400
-31,140	22,561	954,584	564,890
-30,125	22,662	953,598	564,608
-29,111	22,589	952,866	563,916
-28,096	22,590	952,051	563,415
-27,082	22,572	951,531	563,027
-26,067	22,627	950,661	562,667
-25,052	22,644	949,887	562,241
-24,038	22,621	949,272	561,781
-23,023	22,528	948,781	561,170
-22,009	22,644	948,138	561,139
-20,994	22,612	947,422	560,592
-19,979	22,656	946,661	560,260
-18,965	22,631	946,209	559,891
-17,950	22,637	945,422	559,421
-16,936	22,597	944,796	558,902
-15,921	22,496	944,201	558,205
-14,906	22,509	943,395	557,747
-13,892	22,542	942,875	557,524
-12,877	22,457	942,274	556,876
-11,863	22,476	941,651	556,544
-10,848	22,471	941,002	556,123
-9,833	22,588	940,520	556,189
-8,819	22,535	939,895	555,628
-7,804	22,494	939,300	555,124
-6,790	22,450	938,706	554,613
-5,775	22,565	937,757	554,394
-4,760	22,503	937,409	553,970
-3,746	22,463	936,882	553,511
-2,731	22,337	936,231	552,705
-1,717	22,307	935,630	552,234
-0,702	22,308	934,875	551,770
0,313	22,088	934,373	551,611
1,327	25,216	931,911	559,947
2,342	34,791	796,694	504,219
3,356	32,889	451,649	282,953
4,371	1,862	293,790	153,105
5,386	-2,631	274,608	138,846
6,400	-4,091	268,818	134,553
7,415	-4,772	266,515	132,762
8,429	-4,325	265,174	132,491
9,444	-4,396	264,329	131,992
10,459	-4,292	263,655	131,738
11,473	-4,292	263,163	131,481
12,488	-4,139	262,487	131,270
13,502	-4,732	262,197	130,577
14,517	-4,553	261,673	130,466
15,531	-4,284	261,245	130,483
16,546	-4,502	260,962	130,134
17,561	-4,268	260,481	130,093
18,575	-4,242	260,282	130,005
19,590	-4,357	259,923	129,711
20,604	-4,312	259,618	129,588
21,619	-4,441	259,281	129,293
22,634	-4,375	258,893	129,147
23,648	-4,479	258,661	128,927
24,663	-4,436	258,435	128,841
25,677	-4,446	258,121	128,664
26,692	-4,361	257,784	128,560
27,707	-4,417	257,652	128,432
28,721	-4,449	257,326	128,230
29,736	-4,360	257,118	128,194
30,750	-4,496	256,713	127,860
31,765	-4,488	256,575	127,788
32,780	-4,489	256,419	127,697
33,794	-4,541	256,436	127,649
34,809	-4,438	255,939	127,480
35,823	-4,471	255,604	127,273
36,838	-4,550	255,586	127,184
37,853	-4,699	255,288	126,893
38,867	-4,527	255,047	126,913
39,882	-4,700	254,775	126,614
40,896	-4,376	254,552	126,777
41,911	-4,485	254,388	126,587
42,926	-4,549	254,092	126,373
43,940	-4,502	253,748	126,232
44,955	-4,538	253,616	126,124
45,969	-4,669	253,500	125,940
46,984	-4,894	253,081	125,525
47,999	-5,009	252,884	125,317
49,013	-5,283	252,785	125,018
50,028	-5,329	252,458	124,805
51,042	-5,371	251,995	124,528
52,057	-5,278	251,971	124,586
53,071	-5,216	251,768	124,529
54,086	-5,125	251,674	124,550
55,101	-5,241	251,551	124,377
56,115	-4,908	251,290	124,524
57,130	-4,433	251,261	124,909
58,144	-4,423	251,168	124,861
59,159	-4,400	250,927	124,749
60,174	-4,136	250,616	124,812
61,188	-4,351	250,592	124,603
62,203	-4,611	250,330	124,238
63,217	-4,587	250,058	124,112
64,232	-4,369	249,770	124,146
65,247	-4,390	249,740	124,102
66,261	-4,500	249,431	123,843
67,276	-4,518	249,160	123,682
68,290	-5,011	249,002	123,171
69,305	-4,971	248,579	122,985
70,320	-4,948	248,561	122,984
71,334	-4,677	248,409	123,129
72,349	-4,356	248,282	123,329
73,363	-4,213	248,173	123,386
74,378	-4,215	247,832	123,203
75,393	-4,289	247,601	123,014
76,407	-4,462	247,439	122,776
77,422	-4,323	247,276	122,802
78,436	-4,474	246,947	122,501
79,451	-4,412	246,783	122,461
80,466	-4,400	246,532	122,335
81,480	-4,663	246,284	121,979
82,495	-4,667	246,070	121,859
83,509	-4,404	246,000	122,035
84,524	-4,639	245,925	121,789
85,539	-4,881	245,526	121,377
86,553	-4,797	245,400	121,374
87,568	-4,644	245,188	121,387
88,582	-4,682	244,972	121,237
89,597	-4,643	244,842	121,195
90,611	-4,666	244,671	121,080
91,626	-4,245	244,649	121,411
92,641	-4,397	244,258	121,080
93,655	-4,587	244,269	120,915
94,670	-4,565	243,994	120,786
95,684	-4,506	243,825	120,742
96,699	-4,359	243,491	120,688
97,714	-4,617	243,359	120,396
98,728	-4,798	243,264	120,188
99,743	-4,882	243,117	120,035
100,757	-4,881	242,904	119,920
101,772	-4,690	242,607	119,921
102,787	-4,665	242,411	119,834
103,801	-4,678	242,248	119,732
104,816	-4,370	242,129	119,918
105,830	-4,412	241,996	119,806
106,845	-4,453	241,833	119,681
107,860	-4,539	241,568	119,469
108,874	-4,485	241,408	119,424
109,889	-4,559	241,202	119,250
110,903	-4,985	241,054	118,814
111,918	-4,612	240,767	118,969
112,933	-4,582	240,769	118,985
113,947	-4,544	240,662	118,952
114,962	-4,589	240,460	118,805
115,976	-4,542	240,305	118,757
116,991	-4,695	240,110	118,524
118,006	-4,381	239,743	118,589
119,020	-4,510	239,720	118,462
120,035	-4,544	239,734	118,430
121,049	-4,451	239,505	118,383
122,064	-4,600	239,309	118,154
123,079	-4,283	239,196	118,346
124,093	-4,572	238,853	117,930
125,108	-4,647	238,610	117,739
126,122	-4,853	238,385	117,450
127,137	-4,913	238,366	117,380
128,151	-5,024	238,019	117,109
129,166	-4,685	237,913	117,322
130,181	-4,935	237,710	117,008
131,195	-4,881	237,418	116,898
132,210	-4,484	237,341	117,172
133,224	-4,474	237,237	117,118
134,239	-4,361	237,073	117,117
135,254	-4,463	236,848	116,914
136,268	-4,559	236,647	116,726
137,283	-4,721	236,479	116,502
138,297	-5,005	236,293	116,171
139,312	-4,912	236,092	116,137
140,327	-4,692	236,095	116,306
141,341	-4,360	236,073	116,552
142,356	-4,167	235,791	116,557
143,370	-4,343	235,659	116,340
144,385	-4,217	235,506	116,355
145,400	-4,120	235,560	116,450
146,414	-4,218	235,212	116,189
147,429	-4,170	234,929	116,077
148,443	-4,238	234,857	115,976
149,458	-4,144	234,588	115,909
150,473	-4,491	234,586	115,620
151,487	-4,277	234,340	115,660
152,502	-4,167	234,090	115,613
153,516	-4,011	234,072	115,719
154,531	-4,204	233,804	115,422
155,546	-4,124	233,542	115,346
156,560	-4,178	233,353	115,199
157,575	-4,458	233,390	114,984
158,589	-4,537	233,130	114,784
159,604	-4,306	233,097	114,940
160,619	-4,244	232,842	114,854
161,633	-3,985	232,687	114,972
162,648	-4,136	232,628	114,814
163,662	-4,148	232,417	114,690
164,677	-4,366	232,177	114,388
165,692	-4,174	232,151	114,517
166,706	-3,847	231,924	114,653
167,721	-4,205	231,817	114,307
168,735	-4,115	231,611	114,267
169,750	-4,317	231,566	114,075
170,764	-4,206	231,457	114,098
171,779	-4,187	231,355	114,054
172,794	-4,093	231,135	114,008
173,808	-4,231	230,879	113,764
174,823	-4,533	230,500	113,331
175,837	-4,768	230,438	113,105
176,852	-4,607	230,320	113,163
177,867	-4,265	230,213	113,368
178,881	-4,175	230,160	113,402
179,896	-4,001	229,974	113,437
180,910	-4,086	229,809	113,279
181,925	-4,234	229,613	113,057
182,940	-4,085	229,453	113,084
183,954	-3,810	229,233	113,180
184,969	-3,937	229,214	113,062
185,983	-4,079	229,199	112,933
186,998	-3,849	228,843	112,926
188,013	-3,940	228,849	112,849
189,027	-4,106	228,546	112,560
190,042	-3,958	228,408	112,597
191,056	-4,024	228,227	112,447
192,071	-3,911	228,122	112,473
193,086	-4,041	227,971	112,288
194,100	-4,169	227,901	112,144
195,115	-4,570	227,479	111,617
196,129	-5,026	227,250	111,143
197,144	-1,848	228,115	114,015
198,159	1,821	229,295	117,443
199,173	3,760	229,732	119,162
200,188	4,353	229,496	119,487
201,202	4,000	229,514	119,213
202,217	4,244	229,469	119,369
203,232	4,524	229,270	119,471
204,246	4,752	229,054	119,524
205,261	4,593	229,081	119,404
206,275	4,890	228,982	119,572
207,290	4,725	228,810	119,343
208,304	4,839	228,532	119,275
209,319	4,608	228,386	119,011
210,334	4,837	227,987	118,968
211,348	4,466	227,914	118,634
212,363	4,105	227,702	118,236
213,377	3,843	227,518	117,929
214,392	3,909	227,296	117,854
215,407	3,926	227,303	117,861
216,421	4,153	227,021	117,878
217,436	4,046	226,846	117,694
218,450	3,649	226,624	117,266
219,465	3,591	226,569	117,182
220,480	3,785	226,320	117,191
221,494	3,682	226,208	117,044
222,509	3,866	226,180	117,160
223,523	3,888	225,941	117,042
224,538	3,880	225,800	116,952
225,553	4,142	225,616	117,046
226,567	4,146	225,616	117,038
227,582	4,077	225,556	116,944
228,596	4,239	225,355	116,952
229,611	4,128	225,026	116,687
230,626	3,986	224,925	116,517
231,640	3,798	224,727	116,262
232,655	4,214	224,795	116,601
233,669	4,510	224,786	116,810
234,684	4,287	224,649	116,560
235,699	4,418	224,434	116,537
236,713	4,117	224,089	116,120
237,728	3,889	224,002	115,893
238,742	3,938	223,721	115,774
239,757	3,717	223,759	115,618
240,772	3,715	223,542	115,494
241,786	4,026	223,344	115,614
242,801	4,094	223,333	115,650
243,815	4,428	223,155	115,798
244,830	4,408	223,125	115,757
245,844	4,229	222,848	115,469
246,859	3,914	222,745	115,169
247,874	4,148	222,605	115,262
248,888	4,123	222,509	115,183
249,903	4,160	222,212	115,047
250,917	3,911	222,150	114,819
251,932	3,947	221,970	114,742
252,947	3,925	221,684	114,568
253,961	3,836	221,548	114,420
254,976	3,878	221,399	114,365
255,990	4,019	221,403	114,462
257,005	4,176	221,322	114,526
258,020	3,960	221,253	114,320
259,034	4,335	221,103	114,511
260,049	4,306	220,773	114,307
261,063	4,232	220,693	114,201
262,078	4,433	220,654	114,320
263,093	4,283	220,402	114,068
264,107	4,345	220,273	114,037
265,122	4,293	220,131	113,915
266,136	4,399	220,108	113,972
267,151	4,306	219,985	113,829
268,166	4,100	219,667	113,502
269,180	3,753	219,437	113,118
270,195	3,933	219,323	113,181
271,209	3,778	219,248	113,018
272,224	3,767	219,144	112,947
273,239	3,998	219,055	113,061
274,253	3,843	218,885	112,849
275,268	3,674	218,642	112,590
276,282	3,491	218,414	112,328
277,297	3,547	218,221	112,259
278,312	3,842	218,096	112,401
279,326	4,288	218,080	112,709
280,341	3,939	217,996	112,400
281,355	3,912	217,887	112,314
282,370	3,739	217,756	112,111
283,384	3,740	217,451	111,944
284,399	3,599	217,236	111,722
285,414	3,619	217,096	111,653
286,428	3,987	217,091	111,909
287,443	4,215	216,932	111,982
288,457	4,301	216,843	111,989
289,472	3,725	216,644	111,459
290,487	3,707	216,273	111,245
291,501	3,589	216,171	111,097
292,516	3,640	216,145	111,110
293,530	3,656	216,101	111,090
294,545	3,476	216,006	110,900
295,560	3,757	215,831	111,004
296,574	3,941	215,725	111,072
297,589	4,107	215,470	111,051
298,603	3,765	215,512	110,816
299,618	3,996	215,364	110,896
300,633	3,800	215,221	110,672
301,647	4,022	215,171	110,796
302,662	4,262	215,039	110,891
303,676	4,153	214,746	110,651
304,691	4,052	214,510	110,447
305,706	4,007	214,607	110,455
306,720	4,300	214,420	110,560
307,735	3,904	214,281	110,194
308,749	3,733	214,086	109,961
309,764	3,945	213,984	110,051
310,779	4,358	213,882	110,284
311,793	4,039	213,728	109,967
312,808	4,031	213,435	109,800
313,822	3,946	213,499	109,763
314,837	4,108	213,224	109,728
315,852	3,774	213,070	109,400
316,866	3,812	213,079	109,423
317,881	4,182	212,836	109,551
318,895	4,114	212,753	109,451
319,910	4,115	212,448	109,284
320,925	3,857	212,301	109,016
321,939	3,294	212,103	108,506
322,954	3,663	212,018	108,713
323,968	3,886	212,160	108,935
324,983	4,099	211,939	108,962
325,997	4,218	211,829	108,980
327,012	3,886	211,715	108,677
328,027	4,116	211,416	108,677
329,041	4,374	211,390	108,835
330,056	4,362	211,450	108,848
331,070	3,998	210,979	108,339
332,085	3,796	210,886	108,140
333,100	3,904	210,843	108,185
334,114	4,022	210,726	108,197
335,129	3,907	210,534	108,009
336,143	3,988	210,412	107,994
337,158	3,714	210,221	107,694
338,173	3,864	210,096	107,725
339,187	3,875	209,923	107,635
340,202	3,614	209,760	107,359
341,216	3,294	209,505	106,995
342,231	3,595	209,612	107,251
343,246	3,653	209,436	107,192
344,260	3,480	209,406	107,046
345,275	3,739	209,272	107,148
346,289	3,936	209,108	107,192
347,304	4,174	208,946	107,265
348,319	4,213	208,789	107,202
349,333	3,680	208,708	106,780
350,348	3,940	208,533	106,862
351,362	4,013	208,513	106,893
352,377	3,832	208,387	106,693
353,392	3,973	208,161	106,665
354,406	4,012	208,141	106,673
355,421	193,689	1346,722	1434,644
356,435	154,518	1485,546	1434,757
