DTS Sentinel unit serial number:	SN410029Multiplexer serial number:	ORYXHardware model number:	OX2-SRSoftware version number:	ORYX F/W v4,00 Oryx Data Collector v3.7.2.0data status	okinstallation	B6 Nyhavnadifferential loss correction	single-endedforward channel	channel 2reverse channel	N/Adate	2023/12/07time	15:15:08forward acquisition time	300,00reverse acquisition time	0,00gamma	499,1914k internal	0,3144k external	0,3144temperature offset calibration	1,0000default loss term (dB/km)	0,3820temperature slope calibration	1,0000multiplexer offset coefficient	1,0000multiplexer slope coefficient	1,0000fibre end	0,00T internal ref (°C)	14,28T ext. ref 1 (°C)	-1,88T ext. ref 2 (°C)	-1,87length (m)	temperature (°C)	Stokes	anti-Stokes-744,400	-88,202	0,225	-0,050
-743,385	-95,809	-0,321	-0,063
-742,371	-12,709	0,136	-0,066
-741,356	-200,000	-0,292	0,000
-740,342	136,453	0,082	0,079
-739,327	-72,774	-0,313	0,085
-738,312	-122,711	0,146	0,017
-737,298	-132,054	-0,290	-0,028
-736,283	-200,000	0,009	0,087
-735,269	-186,766	-0,296	-0,003
-734,254	78,639	0,111	0,088
-733,239	-18,501	-0,372	-0,171
-732,225	-74,335	0,262	0,070
-731,210	-148,465	-0,055	0,003
-730,196	462,181	-0,048	0,079
-729,181	-70,939	0,040	0,011
-728,167	-200,000	0,026	0,140
-727,152	1,195	-0,061	0,032
-726,137	43,129	-0,146	-0,099
-725,123	-200,000	0,001	-0,024
-724,108	144,491	0,047	-0,046
-723,094	93,120	-0,068	-0,057
-722,079	-30,695	-0,158	0,066
-721,064	-200,000	0,004	-0,024
-720,050	-120,281	0,121	0,015
-719,035	116,074	0,129	-0,116
-718,021	98,356	-0,094	0,080
-717,006	800,000	-0,054	-0,128
-715,991	319,161	-0,081	-0,114
-714,977	270,399	0,068	-0,088
-713,962	1,939	-0,017	0,009
-712,948	-200,000	-0,020	-0,090
-711,933	-200,000	-0,020	-0,073
-710,918	282,323	-0,031	0,041
-709,904	20,025	-0,089	0,053
-708,889	191,634	-0,078	0,087
-707,875	800,000	0,026	0,066
-706,860	82,378	0,011	0,008
-705,845	-178,111	-0,052	0,001
-704,831	800,000	-0,022	-0,055
-703,816	752,592	0,024	-0,049
-702,802	-66,457	0,084	-0,024
-701,787	-61,292	-0,128	-0,040
-700,772	-97,911	-0,055	-0,010
-699,758	-200,000	0,001	0,036
-698,743	783,357	0,010	-0,021
-697,729	227,091	-0,047	0,056
-696,714	311,833	-0,040	0,055
-695,699	-88,399	0,096	-0,021
-694,685	27,955	-0,120	0,075
-693,670	5,468	0,064	0,035
-692,656	-148,394	0,042	0,003
-691,641	73,135	-0,092	-0,071
-690,627	-115,066	0,122	0,017
-689,612	-200,000	0,009	0,099
-688,597	800,000	-0,032	0,072
-687,583	94,447	-0,146	0,123
-686,568	424,951	0,057	-0,091
-685,554	-73,224	0,086	0,023
-684,539	800,000	0,022	-0,049
-683,524	233,095	-0,128	0,156
-682,510	550,074	0,037	0,066
-681,495	554,882	0,062	0,111
-680,481	-200,000	0,039	-0,263
-679,466	132,861	0,048	0,045
-678,451	-94,768	-0,125	-0,025
-677,437	-111,200	-0,039	-0,006
-676,422	22,993	0,180	0,109
-675,408	52,312	0,094	-0,066
-674,393	11,782	-0,148	-0,084
-673,378	121,275	-0,145	-0,133
-672,364	-123,970	-0,077	-0,009
-671,349	233,170	0,053	0,065
-670,335	-200,000	0,027	0,094
-669,320	117,721	0,054	-0,050
-668,305	-40,896	0,053	0,020
-667,291	-66,184	0,140	-0,041
-666,276	-29,854	0,030	0,013
-665,262	49,023	-0,134	-0,093
-664,247	541,052	0,031	-0,055
-663,232	50,378	0,130	0,091
-662,218	-90,016	-0,088	-0,019
-661,203	-200,000	-0,020	-0,077
-660,189	-22,982	0,156	-0,069
-659,174	-200,000	-0,013	-0,111
-658,159	441,342	-0,059	-0,095
-657,145	120,541	0,083	-0,076
-656,130	800,000	0,073	-0,216
-655,116	-200,000	0,012	-0,114
-654,101	-200,000	0,011	-0,051
-653,086	-200,000	0,009	0,048
-652,072	-200,000	0,028	-0,096
-651,057	-200,000	-0,032	-0,178
-650,043	309,822	0,093	-0,129
-649,028	204,488	-0,029	-0,033
-648,014	-156,360	0,080	-0,004
-646,999	800,000	-0,009	-0,025
-645,984	-200,000	0,001	0,095
-644,970	45,267	-0,079	-0,054
-643,955	93,822	0,104	-0,087
-642,941	-86,408	-0,146	-0,033
-641,926	800,000	-0,021	-0,062
-640,911	-95,808	0,099	0,019
-639,897	167,955	-0,048	-0,050
-638,882	-200,000	-0,002	-0,083
-637,868	67,098	-0,056	-0,042
-636,853	440,055	-0,092	-0,149
-635,838	-46,189	0,067	-0,024
-634,824	-200,000	-0,009	-0,177
-633,809	56,453	0,049	-0,035
-632,795	-94,346	-0,091	-0,018
-631,780	233,360	0,121	0,147
-630,765	36,014	-0,053	0,034
-629,751	648,915	-0,087	-0,165
-628,736	-183,579	-0,033	-0,000
-627,722	307,931	-0,025	-0,035
-626,707	-200,000	-0,003	-0,044
-625,692	55,815	0,063	-0,045
-624,678	-61,661	-0,113	-0,035
-623,663	326,257	-0,032	-0,045
-622,649	19,712	0,098	-0,058
-621,634	-162,860	0,130	0,005
-620,619	274,046	-0,051	0,067
-619,605	-200,000	-0,003	0,032
-618,590	41,414	0,048	0,032
-617,576	-5,879	0,020	0,010
-616,561	-192,080	-0,027	-0,000
-615,546	35,874	-0,116	0,075
-614,532	-108,196	0,043	0,007
-613,517	50,496	-0,107	0,074
-612,503	71,996	-0,030	-0,023
-611,488	203,090	0,075	0,086
-610,474	-200,000	-0,017	0,147
-609,459	-101,540	0,122	-0,022
-608,444	189,928	-0,026	0,029
-607,430	-200,000	-0,014	-0,117
-606,415	-200,000	0,006	0,035
-605,401	126,672	0,005	-0,005
-604,386	84,441	0,085	-0,068
-603,371	2,920	0,057	0,030
-602,357	38,093	0,023	-0,015
-601,342	335,586	0,042	0,061
-600,328	-4,083	-0,120	-0,061
-599,313	500,639	-0,106	-0,180
-598,298	60,139	0,049	0,036
-597,284	800,000	0,024	0,059
-596,269	-45,551	-0,144	0,052
-595,255	21,876	0,069	0,042
-594,240	-125,749	-0,028	-0,003
-593,225	197,276	0,057	0,064
-592,211	366,973	-0,048	-0,072
-591,196	800,000	0,050	-0,115
-590,182	800,000	0,037	-0,102
-589,167	-200,000	-0,035	0,158
-588,152	85,273	-0,089	0,072
-587,138	-200,000	-0,018	-0,132
-586,123	800,000	0,043	-0,095
-585,109	218,087	0,102	-0,120
-584,094	240,545	0,045	-0,056
-583,079	340,439	0,037	0,054
-582,065	137,556	0,043	0,041
-581,050	33,895	0,033	-0,021
-580,036	237,884	-0,029	-0,036
-579,021	-200,000	-0,033	-0,119
-578,006	-113,248	-0,116	0,017
-576,992	34,724	0,126	0,081
-575,977	132,342	-0,042	0,040
-574,963	800,000	0,053	0,137
-573,948	-40,647	0,036	-0,014
-572,934	138,032	-0,057	-0,055
-571,919	56,091	0,087	-0,062
-570,904	-43,475	-0,075	0,028
-569,890	-1,641	-0,092	0,048
-568,875	79,996	0,061	0,048
-567,861	17,673	0,079	0,046
-566,846	231,965	-0,063	-0,077
-565,831	800,000	0,044	-0,138
-564,817	800,000	-0,038	-0,119
-563,802	-200,000	0,006	0,024
-562,788	-99,391	-0,061	0,011
-561,773	-174,928	-0,098	0,002
-560,758	-200,000	-0,027	0,115
-559,744	800,000	-0,042	-0,090
-558,729	-17,245	-0,119	-0,055
-557,715	101,961	0,011	-0,009
-556,700	-149,604	-0,088	0,005
-555,685	-200,000	0,011	-0,123
-554,671	134,170	-0,084	-0,080
-553,656	111,983	-0,021	0,019
-552,642	-73,721	0,098	0,026
-551,627	-153,541	-0,110	-0,005
-550,612	800,000	0,008	0,025
-549,598	-200,000	0,003	-0,028
-548,583	167,940	-0,028	0,029
-547,569	800,000	0,058	-0,136
-546,554	70,726	0,045	0,034
-545,539	77,115	-0,058	0,045
-544,525	800,000	0,035	-0,107
-543,510	28,508	-0,043	0,027
-542,496	-200,000	0,010	-0,125
-541,481	540,136	-0,033	0,059
-540,466	373,392	0,107	0,161
-539,452	180,857	0,047	-0,051
-538,437	-200,000	0,030	0,108
-537,423	-83,511	0,019	0,004
-536,408	-65,086	-0,144	0,042
-535,393	800,000	0,039	0,089
-534,379	-84,759	-0,088	0,020
-533,364	800,000	-0,035	0,112
-532,350	102,548	0,040	0,034
-531,335	800,000	0,045	0,136
-530,321	-200,000	0,001	-0,104
-529,306	-125,481	0,035	0,004
-528,291	-200,000	0,004	-0,099
-527,277	329,323	-0,067	-0,095
-526,262	-200,000	-0,028	-0,107
-525,248	108,928	-0,021	0,019
-524,233	-120,382	0,047	-0,006
-523,218	-200,000	0,003	0,104
-522,204	26,797	-0,062	0,038
-521,189	800,000	0,025	-0,068
-520,175	118,244	-0,117	-0,106
-519,160	121,327	-0,032	0,029
-518,145	-120,767	0,139	-0,017
-517,131	-200,000	-0,018	-0,074
-516,116	184,530	-0,087	0,095
-515,102	-21,640	-0,086	-0,038
-514,087	34,837	-0,061	-0,039
-513,072	-106,007	0,017	0,003
-512,058	800,000	0,051	0,166
-511,043	-146,906	0,080	0,005
-510,029	-200,000	0,022	-0,115
-509,014	-30,287	0,117	0,048
-507,999	370,814	0,017	0,025
-506,985	598,088	-0,016	-0,028
-505,970	104,323	0,074	0,064
-504,956	177,223	0,006	0,006
-503,941	664,931	0,043	-0,081
-502,926	183,953	0,063	0,068
-501,912	455,449	0,014	0,023
-500,897	-68,522	-0,097	-0,027
-499,883	800,000	-0,072	-0,189
-498,868	800,000	0,046	-0,147
-497,853	800,000	-0,036	-0,111
-496,839	-155,218	0,115	0,005
-495,824	-108,294	0,065	0,010
-494,810	-57,445	-0,030	-0,010
-493,795	644,186	0,051	-0,097
-492,781	800,000	-0,057	0,169
-491,766	800,000	-0,015	0,030
-490,751	41,412	-0,081	0,054
-489,737	474,708	0,051	0,085
-488,722	-200,000	-0,014	-0,078
-487,708	800,000	-0,093	0,192
-486,693	-61,468	-0,049	-0,015
-485,678	170,583	-0,113	-0,119
-484,664	-39,771	-0,087	0,033
-483,649	-47,015	0,090	-0,032
-482,635	-200,000	0,020	-0,167
-481,620	-200,000	0,004	-0,018
-480,605	-30,765	0,050	-0,021
-479,591	-13,468	0,099	0,047
-478,576	-200,000	0,019	-0,134
-477,562	214,142	-0,034	0,040
-476,547	-90,032	-0,078	0,017
-475,532	-200,000	0,033	-0,232
-474,518	-200,000	-0,006	0,025
-473,503	452,929	0,021	0,034
-472,489	-200,000	0,006	0,057
-471,474	209,131	0,023	-0,027
-470,459	800,000	0,033	-0,087
-469,445	-11,701	-0,118	-0,056
-468,430	-12,791	-0,108	-0,051
-467,416	800,000	-0,021	0,050
-466,401	-200,000	0,013	0,050
-465,386	52,869	-0,034	-0,024
-464,372	-125,456	0,061	-0,007
-463,357	-200,000	-0,005	0,049
-462,343	-7,430	-0,054	0,027
-461,328	25,785	-0,102	0,062
-460,313	-200,000	0,037	-0,141
-459,299	-200,000	-0,027	-0,134
-458,284	709,746	-0,113	0,219
-457,270	69,896	-0,076	-0,057
-456,255	187,745	0,045	-0,049
-455,241	-83,694	-0,148	0,034
-454,226	523,189	-0,067	-0,116
-453,211	-116,511	-0,062	-0,008
-452,197	454,313	0,094	0,153
-451,182	243,996	-0,055	0,068
-450,168	-87,778	-0,112	-0,024
-449,153	797,655	-0,054	-0,110
-448,138	-200,000	-0,000	0,030
-447,124	-65,830	-0,048	-0,014
-446,109	800,000	0,055	-0,170
-445,095	800,000	0,012	0,025
-444,080	117,674	0,021	-0,019
-443,065	-92,429	0,105	-0,021
-442,051	-18,430	-0,137	-0,063
-441,036	-56,743	-0,095	0,030
-440,022	92,647	0,093	-0,077
-439,007	-57,953	-0,046	-0,015
-437,992	226,578	0,131	0,155
-436,978	135,619	-0,068	-0,064
-435,963	609,848	0,064	0,117
-434,949	15,945	0,017	0,010
-433,934	-14,699	0,070	-0,033
-432,919	115,309	0,017	0,015
-431,905	-200,000	-0,001	0,157
-430,890	800,000	-0,004	-0,011
-429,876	800,000	-0,060	0,159
-428,861	139,981	0,016	0,016
-427,846	-98,683	0,174	0,032
-426,832	-142,287	-0,096	0,007
-425,817	-85,568	0,004	0,001
-424,803	800,000	0,016	0,040
-423,788	-92,317	0,160	0,033
-422,773	-200,000	0,034	0,139
-421,759	800,000	0,029	0,080
-420,744	-42,353	0,172	-0,064
-419,730	-200,000	-0,002	-0,069
-418,715	128,173	-0,149	-0,139
-417,701	343,443	0,026	0,037
-416,686	-29,720	0,050	0,021
-415,671	115,650	-0,127	0,114
-414,657	60,149	-0,046	0,033
-413,642	-200,000	0,019	0,134
-412,628	-138,860	0,084	-0,007
-411,613	-180,267	-0,114	-0,002
-410,598	-104,082	-0,047	-0,008
-409,584	-200,000	0,272	0,000
-408,569	800,000	0,045	0,106
-407,555	136,905	-0,012	0,012
-406,540	-51,069	0,059	-0,020
-405,525	800,000	0,053	0,109
-404,511	-102,340	-0,184	-0,032
-403,496	800,000	0,025	-0,066
-402,482	-133,625	0,040	-0,004
-401,467	-101,501	0,115	-0,020
-400,452	-5,794	0,041	0,021
-399,438	5,251	0,054	-0,029
-398,423	-200,000	-0,005	0,057
-397,409	104,498	-0,165	-0,142
-396,394	-200,000	0,000	0,018
-395,379	-93,362	-0,063	-0,013
-394,365	255,322	0,071	0,089
-393,350	-136,467	0,159	0,013
-392,336	-200,000	-0,003	0,107
-391,321	-112,137	0,075	-0,011
-390,306	-96,773	-0,095	-0,018
-389,292	-200,000	-0,005	0,025
-388,277	776,157	-0,057	-0,113
-387,263	-14,007	0,048	-0,023
-386,248	-12,934	0,055	0,026
-385,233	-14,758	-0,088	0,041
-384,219	27,367	-0,015	0,009
-383,204	-54,085	-0,064	0,021
-382,190	800,000	0,023	-0,071
-381,175	-200,000	-0,073	-0,000
-380,160	-59,468	0,064	-0,020
-379,146	395,054	0,057	0,087
-378,131	600,768	-0,075	0,136
-377,117	37,128	0,010	-0,006
-376,102	800,000	-0,003	0,009
-375,088	-73,915	-0,077	-0,020
-374,073	38,681	0,040	-0,026
-373,058	308,425	0,049	0,067
-372,044	107,380	-0,078	0,067
-371,029	85,972	0,032	0,026
-370,015	114,518	0,054	-0,048
-369,000	230,163	-0,026	0,032
-367,985	-63,454	-0,131	0,039
-366,971	-36,579	0,055	0,021
-365,956	-200,000	0,010	-0,075
-364,942	207,934	0,054	0,062
-363,927	-77,982	0,063	-0,016
-362,912	-72,750	0,028	-0,007
-361,898	-136,928	0,104	-0,009
-360,883	492,591	-0,127	-0,213
-359,869	297,602	0,081	0,109
-358,854	-200,000	0,007	0,034
-357,839	-138,627	0,047	0,004
-356,825	-200,000	0,010	0,072
-355,810	406,685	-0,011	0,018
-354,796	273,540	0,072	0,092
-353,781	-141,840	0,076	-0,005
-352,766	800,000	-0,038	-0,079
-351,752	63,648	-0,069	-0,050
-350,737	-200,000	0,001	-0,062
-349,723	-60,148	-0,110	0,034
-348,708	125,846	-0,030	-0,027
-347,693	-105,839	-0,069	-0,011
-346,679	-200,000	-0,003	0,011
-345,664	142,094	-0,047	0,045
-344,650	264,360	-0,032	-0,041
-343,635	-48,368	-0,022	-0,008
-342,620	127,893	-0,053	0,050
-341,606	77,340	-0,083	0,065
-340,591	-200,000	0,006	-0,110
-339,577	-125,566	0,030	-0,003
-338,562	-0,666	0,088	0,045
-337,548	62,368	0,095	-0,069
-336,533	-197,132	0,078	0,000
-335,518	103,653	0,064	0,055
-334,504	-200,000	0,005	-0,053
-333,489	166,236	-0,128	-0,133
-332,475	26,491	-0,054	-0,033
-331,460	800,000	0,023	-0,058
-330,445	-200,000	0,042	-0,142
-329,431	238,740	-0,024	0,029
-328,416	1,031	0,075	0,039
-327,402	-173,559	0,092	0,002
-326,387	265,750	0,055	-0,070
-325,372	55,937	-0,086	-0,061
-324,358	472,084	0,063	-0,104
-323,343	158,095	0,067	0,067
-322,329	-112,828	-0,106	0,015
-321,314	57,922	0,093	-0,066
-320,299	-123,350	0,183	0,021
-319,285	-200,000	0,002	0,104
-318,270	-200,000	-0,006	-0,027
-317,256	800,000	0,036	-0,078
-316,241	-200,000	-0,020	-0,083
-315,226	135,500	0,106	0,101
-314,212	18,837	0,104	-0,061
-313,197	-107,675	0,024	-0,004
-312,183	-70,482	0,152	0,042
-311,168	659,340	-0,009	0,016
-310,153	744,997	-0,045	-0,089
-309,139	-176,437	-0,025	0,000
-308,124	-47,356	0,034	0,012
-307,110	7,840	0,081	0,044
-306,095	-200,000	0,013	-0,048
-305,080	-123,942	-0,083	-0,009
-304,066	-200,000	0,003	0,139
-303,051	-200,000	0,009	-0,079
-302,037	303,890	0,021	0,028
-301,022	411,521	-0,010	0,016
-300,008	-200,000	0,014	0,099
-298,993	5,709	0,133	0,072
-297,978	-200,000	-0,019	0,063
-296,964	81,081	-0,143	-0,112
-295,949	171,275	-0,150	-0,157
-294,935	77,310	-0,068	-0,053
-293,920	93,388	-0,034	-0,028
-292,905	78,432	0,136	0,106
-291,891	800,000	0,064	0,182
-290,876	-46,140	-0,075	0,027
-289,862	32,991	0,010	-0,006
-288,847	-175,928	-0,032	-0,001
-287,832	41,480	-0,011	0,007
-286,818	117,785	-0,124	0,111
-285,803	800,000	0,088	0,200
-284,789	800,000	0,039	0,104
-283,774	-18,173	0,093	0,042
-282,759	-119,309	0,075	0,009
-281,745	-121,453	-0,119	0,014
-280,730	611,800	-0,089	0,162
-279,716	-120,284	0,137	0,017
-278,701	-38,115	-0,055	-0,021
-277,686	174,269	0,024	0,025
-276,672	56,810	-0,080	-0,057
-275,657	400,909	0,024	0,037
-274,643	406,282	-0,035	0,054
-273,628	-8,164	-0,103	0,050
-272,613	51,904	-0,111	0,077
-271,599	800,000	0,021	0,061
-270,584	141,539	0,050	-0,048
-269,570	-39,858	-0,030	0,011
-268,555	800,000	0,025	-0,061
-267,540	-77,302	-0,020	0,005
-266,526	224,289	-0,102	-0,120
-265,511	9,476	-0,054	-0,030
-264,497	259,726	-0,049	0,061
-263,482	800,000	-0,042	-0,114
-262,467	800,000	0,035	0,086
-261,453	800,000	-0,048	0,098
-260,438	-200,000	0,020	-0,194
-259,424	-200,000	-0,027	0,131
-258,409	-84,070	-0,049	0,011
-257,395	-41,500	-0,035	-0,013
-256,380	-70,718	0,156	0,042
-255,365	65,239	0,126	0,092
-254,351	244,602	-0,030	0,036
-253,336	-67,028	-0,137	0,039
-252,322	66,930	0,045	-0,033
-251,307	-200,000	0,001	-0,025
-250,292	-144,270	0,070	0,005
-249,278	340,358	0,044	0,063
-248,263	-200,000	0,020	0,120
-247,249	35,098	-0,119	0,076
-246,234	-200,000	-0,008	-0,057
-245,219	189,529	-0,106	-0,115
-244,205	-200,000	-0,014	-0,109
-243,190	391,817	-0,037	-0,056
-242,176	-18,131	0,038	0,017
-241,161	258,267	-0,043	0,054
-240,146	-102,066	0,055	0,010
-239,132	1,173	-0,055	-0,029
-238,117	-200,000	-0,022	-0,105
-237,103	800,000	0,014	-0,031
-236,088	-30,082	0,092	0,038
-235,073	125,437	-0,006	-0,005
-234,059	-33,259	0,092	0,037
-233,044	-116,872	0,113	0,015
-232,030	-200,000	0,006	0,082
-231,015	800,000	-0,041	-0,128
-230,000	247,603	-0,056	-0,069
-228,986	-200,000	0,001	0,006
-227,971	-93,535	-0,081	-0,016
-226,957	-200,000	-0,001	0,055
-225,942	800,000	0,040	0,121
-224,927	-200,000	-0,001	0,060
-223,913	-112,768	-0,027	-0,004
-222,898	800,000	0,028	-0,068
-221,884	-31,178	0,113	-0,046
-220,869	-200,000	-0,008	0,131
-219,855	-141,086	-0,092	0,007
-218,840	591,171	0,054	0,097
-217,825	192,096	0,100	0,110
-216,811	-120,826	-0,037	0,004
-215,796	-200,000	0,007	-0,083
-214,782	-200,000	0,009	-0,161
-213,767	98,534	-0,108	0,090
-212,752	-200,000	0,027	0,122
-211,738	-200,000	0,002	-0,022
-210,723	-51,017	0,039	-0,013
-209,709	357,029	-0,069	-0,100
-208,694	-200,000	-0,008	0,055
-207,679	1,183	0,036	-0,019
-206,665	-200,000	0,023	0,095
-205,650	-200,000	-0,020	0,134
-204,636	800,000	0,055	0,156
-203,621	-200,000	0,000	0,094
-202,606	324,322	-0,072	0,100
-201,592	800,000	-0,045	-0,139
-200,577	-160,814	-0,114	-0,004
-199,563	153,773	0,062	0,062
-198,548	-88,895	-0,123	0,026
-197,533	-26,072	0,133	0,056
-196,519	84,763	0,104	-0,082
-195,504	155,986	0,104	-0,104
-194,490	157,802	-0,096	-0,097
-193,475	375,591	0,032	0,047
-192,460	800,000	0,038	-0,122
-191,446	82,075	0,056	-0,044
-190,431	-137,732	-0,102	-0,008
-189,417	212,485	-0,048	0,055
-188,402	-141,738	0,087	-0,006
-187,387	-105,592	-0,104	0,017
-186,373	800,000	0,086	-0,190
-185,358	-0,062	0,177	-0,091
-184,344	-31,114	0,039	0,016
-183,329	-15,740	0,103	0,047
-182,315	564,353	0,142	-0,251
-181,300	-158,681	0,033	0,001
-180,285	800,000	-0,030	0,063
-179,271	-200,000	-0,061	-0,245
-178,256	-104,946	-0,105	-0,017
-177,242	34,461	0,062	0,039
-176,227	-137,743	-0,124	0,010
-175,212	-200,000	0,012	0,090
-174,198	-200,000	0,008	0,083
-173,183	680,915	0,031	-0,060
-172,169	290,041	0,029	0,039
-171,154	253,366	-0,066	0,082
-170,139	217,486	-0,040	0,046
-169,125	707,456	0,032	0,061
-168,110	-50,836	0,071	0,024
-167,096	122,976	0,040	-0,037
-166,081	-114,119	-0,096	-0,013
-165,066	110,789	-0,110	0,096
-164,052	-74,039	0,091	-0,024
-163,037	-150,209	-0,089	0,005
-162,023	-89,145	-0,170	0,036
-161,008	800,000	0,041	0,116
-159,993	110,373	-0,044	-0,039
-158,979	-200,000	0,002	-0,138
-157,964	11,331	0,144	-0,080
-156,950	114,096	-0,065	0,057
-155,935	-142,877	0,208	0,014
-154,920	-200,000	-0,033	0,162
-153,906	70,095	0,107	0,079
-152,891	-52,787	-0,027	-0,009
-151,877	-13,021	0,045	-0,021
-150,862	-200,000	0,003	-0,093
-149,847	-113,962	-0,106	0,015
-148,833	56,573	0,071	-0,050
-147,818	-200,000	0,011	-0,045
-146,804	129,837	0,074	0,069
-145,789	-200,000	0,041	0,176
-144,775	211,192	0,056	0,064
-143,760	315,984	0,017	-0,023
-142,745	800,000	-0,052	-0,115
-141,731	-97,943	-0,135	-0,025
-140,716	423,435	0,057	-0,089
-139,702	-200,000	0,017	-0,071
-138,687	-200,000	-0,024	0,098
-137,672	-200,000	0,011	-0,078
-136,658	711,825	0,060	-0,116
-135,643	527,476	0,030	-0,051
-134,629	206,493	0,131	0,148
-133,614	90,350	-0,045	0,036
-132,599	411,403	-0,031	0,047
-131,585	800,000	-0,005	-0,011
-130,570	106,382	-0,141	-0,121
-129,556	800,000	0,030	-0,075
-128,541	82,853	-0,123	-0,096
-127,526	370,336	-0,095	-0,139
-126,512	708,420	-0,054	0,104
-125,497	-200,000	-0,031	0,127
-124,483	426,919	-0,056	-0,087
-123,468	-32,163	-0,071	-0,028
-122,453	0,387	-0,153	-0,079
-121,439	-200,000	0,002	0,167
-120,424	-123,059	-0,137	-0,016
-119,410	-200,000	-0,030	-0,114
-118,395	-81,146	0,100	-0,024
-117,380	-29,550	-0,083	0,034
-116,366	-18,839	-0,022	0,010
-115,351	-62,960	-0,146	-0,043
-114,337	489,323	0,065	-0,108
-113,322	514,448	-0,042	-0,071
-112,307	-200,000	-0,007	-0,157
-111,293	-200,000	0,034	0,127
-110,278	800,000	0,028	0,074
-109,264	160,082	0,051	0,052
-108,249	256,839	-0,077	0,095
-107,234	-87,661	0,085	-0,018
-106,220	428,042	-0,038	-0,059
-105,205	-200,000	0,002	0,162
-104,191	800,000	-0,019	0,055
-103,176	800,000	0,072	0,148
-102,162	-107,975	-0,067	0,010
-101,147	338,187	-0,073	-0,103
-100,132	-169,332	-0,053	-0,001
-99,118	-177,595	-0,109	0,002
-98,103	111,408	0,064	-0,056
-97,089	404,697	-0,027	0,042
-96,074	-40,575	0,073	-0,027
-95,059	243,865	-0,087	0,106
-94,045	212,706	-0,051	0,059
-93,030	-200,000	0,001	-0,012
-92,016	-87,240	0,048	-0,010
-91,001	100,543	-0,010	0,008
-89,986	-200,000	-0,001	-0,009
-88,972	710,452	-0,024	-0,046
-87,957	267,119	0,052	0,066
-86,943	-70,055	-0,094	-0,026
-85,928	800,000	0,008	0,018
-84,913	244,137	0,108	-0,131
-83,899	507,566	0,059	-0,099
-82,884	-78,702	0,122	0,030
-81,870	-92,161	0,008	-0,002
-80,855	-200,000	0,007	0,091
-79,840	-200,000	0,035	-0,120
-78,826	-64,446	-0,225	-0,066
-77,811	-200,000	0,016	0,054
-76,797	-56,763	-0,036	-0,011
-75,782	101,687	-0,057	0,048
-74,767	-48,735	0,153	0,053
-73,753	75,197	0,040	-0,030
-72,738	425,832	0,024	0,038
-71,724	-200,000	0,015	-0,132
-70,709	-79,169	-0,070	0,017
-69,694	-200,000	-0,034	0,124
-68,680	800,000	0,017	0,044
-67,665	-16,038	0,125	0,057
-66,651	509,501	-0,054	0,090
-65,636	24,728	0,056	-0,033
-64,622	-154,271	-0,158	-0,008
-63,607	148,409	0,069	0,067
-62,592	800,000	-0,045	-0,128
-61,578	-24,036	0,044	-0,019
-60,563	-134,361	0,042	-0,004
-59,549	754,666	-0,068	-0,133
-58,534	3,017	-2,236	-1,168
-57,519	-200,000	-0,049	-0,781
-56,505	-200,000	-1,285	-5,089
-55,490	95,901	0,770	0,634
-54,476	800,000	5,374	11,976
-53,461	-200,000	18,106	295,191
-52,446	800,000	730,715	2225,503
-51,432	513,229	1643,346	2771,969
-50,417	76,289	1619,302	1234,943
-49,403	24,101	1290,889	766,065
-48,388	16,878	1072,026	610,099
-47,373	19,000	1042,940	600,991
-46,359	17,997	1030,731	590,446
-45,344	14,481	1025,966	575,505
-44,330	14,258	1024,503	573,885
-43,315	14,290	1023,252	573,274
-42,300	14,309	1022,306	572,788
-41,286	14,241	1021,440	572,043
-40,271	14,215	1020,463	571,384
-39,257	14,255	1019,458	570,937
-38,242	14,263	1018,548	570,433
-37,227	14,239	1017,560	569,774
-36,213	14,282	1016,341	569,216
-35,198	14,195	1015,594	568,476
-34,184	14,271	1014,638	568,181
-33,169	14,201	1013,793	567,445
-32,154	14,341	1012,721	567,302
-31,140	14,354	1011,521	566,650
-30,125	14,374	1010,605	566,185
-29,111	14,387	1009,681	565,687
-28,096	14,355	1008,864	565,099
-27,082	14,275	1008,516	564,607
-26,067	14,274	1007,774	564,165
-25,052	14,370	1006,512	563,766
-24,038	14,342	1005,798	563,249
-23,023	14,308	1005,032	562,681
-22,009	14,350	1004,192	562,329
-20,994	14,355	1003,519	561,949
-19,979	14,375	1002,908	561,651
-18,965	14,307	1002,274	561,043
-17,950	14,362	1001,490	560,768
-16,936	14,295	1000,938	560,210
-15,921	14,263	1000,025	559,571
-14,906	14,226	999,283	559,006
-13,892	14,264	998,553	558,704
-12,877	14,216	997,775	558,086
-11,863	14,217	997,193	557,742
-10,848	14,169	996,853	557,366
-9,833	14,290	996,054	557,305
-8,819	14,297	995,421	556,954
-7,804	14,239	994,887	556,437
-6,790	14,265	994,314	556,183
-5,775	14,246	993,668	555,733
-4,760	14,219	993,150	555,334
-3,746	14,216	992,315	554,834
-2,731	14,105	991,485	553,974
-1,717	14,096	990,623	553,441
-0,702	14,050	989,997	552,914
0,313	13,778	989,751	552,701
1,327	17,201	987,067	562,576
2,342	25,965	830,122	497,525
3,356	21,908	464,643	272,137
4,371	-7,406	308,325	149,826
5,386	-11,331	289,252	136,643
6,400	-12,533	283,206	132,604
7,415	-12,900	280,789	131,105
8,429	-13,094	279,460	130,286
9,444	-12,982	278,485	129,928
10,459	-12,971	277,823	129,618
11,473	-13,121	277,246	129,194
12,488	-13,567	276,663	128,487
13,502	-13,434	276,033	128,309
14,517	-13,442	275,633	128,104
15,531	-13,643	275,178	127,691
16,546	-13,474	274,744	127,638
17,561	-13,592	274,438	127,373
18,575	-13,376	273,894	127,312
19,590	-13,546	273,523	126,969
20,604	-13,544	273,334	126,872
21,619	-13,746	272,914	126,476
22,634	-13,582	272,698	126,518
23,648	-13,709	272,316	126,211
24,663	-13,664	272,000	126,094
25,677	-13,634	271,679	125,963
26,692	-13,709	271,368	125,737
27,707	-13,869	271,232	125,514
28,721	-13,544	270,822	125,616
29,736	-13,643	270,604	125,411
30,750	-13,805	270,262	125,092
31,765	-13,741	269,907	124,975
32,780	-13,904	269,841	124,782
33,794	-13,725	269,542	124,799
34,809	-13,836	269,301	124,573
35,823	-13,794	269,026	124,474
36,838	-13,734	268,726	124,379
37,853	-13,707	268,560	124,316
38,867	-13,621	268,184	124,211
39,882	-13,949	268,067	123,844
40,896	-13,696	267,776	123,930
41,911	-13,591	267,559	123,915
42,926	-13,932	267,354	123,496
43,940	-13,816	266,977	123,417
44,955	-13,777	266,639	123,286
45,969	-14,115	266,604	122,950
46,984	-14,009	266,309	122,900
47,999	-14,380	265,975	122,396
49,013	-14,349	265,713	122,293
50,028	-14,399	265,405	122,094
51,042	-14,461	265,108	121,891
52,057	-14,384	264,926	121,866
53,071	-14,371	264,627	121,730
54,086	-14,376	264,584	121,695
55,101	-14,282	264,363	121,667
56,115	-13,957	264,125	121,841
57,130	-13,755	264,198	122,047
58,144	-13,438	264,046	122,252
59,159	-13,345	263,563	122,101
60,174	-13,424	263,417	121,952
61,188	-13,623	263,265	121,691
62,203	-13,490	263,021	121,687
63,217	-13,485	262,771	121,565
64,232	-13,552	262,522	121,379
65,247	-13,490	262,307	121,324
66,261	-13,506	262,106	121,207
67,276	-13,730	261,911	120,904
68,290	-14,029	261,603	120,483
69,305	-13,998	261,271	120,348
70,320	-14,109	261,210	120,210
71,334	-13,809	260,962	120,353
72,349	-13,602	260,892	120,494
73,363	-13,309	260,504	120,566
74,378	-13,524	260,421	120,325
75,393	-13,550	260,162	120,172
76,407	-13,858	260,130	119,872
77,422	-13,551	259,601	119,891
78,436	-13,594	259,562	119,823
79,451	-13,586	259,263	119,681
80,466	-13,690	258,907	119,415
81,480	-13,859	258,826	119,217
82,495	-13,698	258,652	119,268
83,509	-13,640	258,427	119,205
84,524	-13,808	258,104	118,898
85,539	-13,995	257,922	118,638
86,553	-14,104	257,813	118,482
87,568	-13,902	257,468	118,490
88,582	-13,683	257,300	118,595
89,597	-13,844	257,108	118,355
90,611	-13,727	257,004	118,399
91,626	-13,580	256,866	118,453
92,641	-13,841	256,601	118,092
93,655	-13,618	256,309	118,143
94,670	-13,885	256,147	117,823
95,684	-13,869	256,104	117,808
96,699	-13,643	255,832	117,868
97,714	-13,749	255,599	117,659
98,728	-13,908	255,380	117,408
99,743	-13,962	255,195	117,267
100,757	-13,954	254,938	117,145
101,772	-13,843	254,650	117,098
102,787	-13,760	254,511	117,096
103,801	-13,931	254,419	116,895
104,816	-13,697	254,245	117,007
105,830	-13,469	254,108	117,132
106,845	-13,720	253,966	116,839
107,860	-13,677	253,710	116,748
108,874	-13,722	253,457	116,582
109,889	-13,729	253,270	116,479
110,903	-13,653	253,101	116,456
111,918	-13,922	252,870	116,108
112,933	-13,670	252,684	116,230
113,947	-13,870	252,694	116,051
114,962	-13,633	252,300	116,063
115,976	-13,600	252,020	115,953
116,991	-13,800	251,948	115,738
118,006	-13,650	251,821	115,798
119,020	-13,783	251,693	115,615
120,035	-13,577	251,527	115,705
121,049	-13,524	251,292	115,631
122,064	-13,460	251,103	115,589
123,079	-13,834	251,077	115,247
124,093	-13,631	250,662	115,220
125,108	-13,866	250,450	114,912
126,122	-14,098	250,261	114,617
127,137	-14,030	250,036	114,561
128,151	-13,968	249,763	114,479
129,166	-14,006	249,677	114,397
130,181	-13,945	249,444	114,332
131,195	-14,028	249,204	114,141
132,210	-13,636	249,020	114,379
133,224	-13,580	248,873	114,348
134,239	-13,654	248,793	114,239
135,254	-13,961	248,777	113,962
136,268	-13,653	248,487	114,079
137,283	-13,931	248,214	113,709
138,297	-14,188	247,898	113,336
139,312	-14,129	247,683	113,278
140,327	-13,972	247,728	113,421
141,341	-13,250	247,629	113,974
142,356	-13,314	247,564	113,880
143,370	-13,421	247,231	113,627
144,385	-13,285	247,104	113,673
145,400	-13,366	246,921	113,510
146,414	-13,291	246,676	113,450
147,429	-13,340	246,526	113,330
148,443	-13,381	246,222	113,145
149,458	-13,433	246,171	113,069
150,473	-13,262	245,907	113,080
151,487	-13,333	245,771	112,948
152,502	-13,420	245,653	112,812
153,516	-13,341	245,526	112,809
154,531	-13,451	245,297	112,601
155,546	-13,435	245,001	112,469
156,560	-13,492	244,909	112,370
157,575	-13,512	244,620	112,211
158,589	-13,559	244,541	112,125
159,604	-13,214	244,200	112,245
160,619	-13,232	244,254	112,245
161,633	-13,150	244,072	112,219
162,648	-13,289	243,954	112,039
163,662	-13,404	243,588	111,767
164,677	-13,382	243,519	111,743
165,692	-13,219	243,317	111,775
166,706	-13,171	243,092	111,701
167,721	-12,935	243,057	111,870
168,735	-12,913	242,909	111,809
169,750	-13,034	242,716	111,612
170,764	-13,102	242,502	111,447
171,779	-13,308	242,516	111,274
172,794	-13,270	242,251	111,174
173,808	-13,257	242,093	111,102
174,823	-13,786	241,602	110,433
175,837	-14,103	241,651	110,186
176,852	-13,667	241,524	110,476
177,867	-13,438	241,504	110,644
178,881	-13,336	241,300	110,624
179,896	-13,119	240,930	110,622
180,910	-13,351	240,982	110,446
181,925	-13,203	240,789	110,469
182,940	-13,335	240,530	110,232
183,954	-13,134	240,405	110,329
184,969	-13,005	240,263	110,359
185,983	-13,124	240,215	110,231
186,998	-13,005	240,033	110,234
188,013	-13,185	240,053	110,087
189,027	-12,973	239,577	110,031
190,042	-13,122	239,399	109,818
191,056	-13,125	239,366	109,791
192,071	-12,876	239,147	109,883
193,086	-13,027	239,072	109,716
194,100	-12,978	238,918	109,675
195,115	-12,866	238,536	109,580
196,129	-13,026	238,731	109,531
197,144	-8,344	240,222	114,009
198,159	-3,888	241,588	118,279
199,173	-0,721	242,627	121,365
200,188	0,155	242,700	122,106
201,202	0,176	242,322	121,922
202,217	-0,238	242,270	121,548
203,232	-0,060	242,103	121,599
204,246	0,214	242,040	121,779
205,261	0,306	241,799	121,722
206,275	0,432	241,807	121,817
207,290	0,562	241,450	121,732
208,304	0,467	241,393	121,615
209,319	0,397	241,146	121,423
210,334	0,382	241,007	121,330
211,348	0,188	240,885	121,101
212,363	0,035	240,524	120,785
213,377	-0,132	240,334	120,544
214,392	-0,131	240,223	120,479
215,407	0,042	240,217	120,604
216,421	0,339	239,851	120,649
217,436	0,049	239,732	120,345
218,450	-0,219	239,410	119,957
219,465	-0,087	239,218	119,956
220,480	-0,399	239,223	119,698
221,494	-0,301	239,135	119,721
222,509	0,154	239,136	120,077
223,523	0,308	238,869	120,055
224,538	-0,156	238,639	119,557
225,553	-0,037	238,482	119,563
226,567	-0,209	238,276	119,312
227,582	0,420	238,254	119,793
228,596	0,257	238,123	119,586
229,611	0,231	238,038	119,512
230,626	-0,272	237,726	118,943
231,640	-0,365	237,536	118,764
232,655	0,374	237,449	119,298
233,669	0,311	237,431	119,228
234,684	0,433	237,182	119,189
235,699	0,386	237,136	119,118
236,713	0,192	236,790	118,780
237,728	0,097	236,572	118,585
238,742	0,018	236,336	118,393
239,757	0,126	236,165	118,382
240,772	0,139	236,047	118,324
241,786	-0,074	236,029	118,135
242,801	0,412	235,853	118,421
243,815	0,585	235,959	118,600
244,830	0,577	235,503	118,354
245,844	0,139	235,331	117,912
246,859	0,032	235,242	117,773
247,874	0,208	235,128	117,843
248,888	0,132	235,055	117,737
249,903	0,336	234,710	117,714
250,917	0,300	234,616	117,627
251,932	0,091	234,487	117,388
252,947	-0,249	234,303	117,019
253,961	-0,236	234,157	116,946
254,976	-0,145	233,957	116,907
255,990	0,269	234,012	117,248
257,005	0,272	233,824	117,145
258,020	0,120	233,794	117,001
259,034	0,277	233,554	116,993
260,049	0,391	233,379	116,984
261,063	0,336	233,138	116,810
262,078	0,455	233,156	116,902
263,093	0,587	232,996	116,914
264,107	0,267	232,807	116,559
265,122	0,293	232,563	116,447
266,136	0,632	232,481	116,659
267,151	0,479	232,307	116,443
268,166	0,084	232,107	116,025
269,180	-0,235	231,749	115,589
270,195	-0,017	231,685	115,716
271,209	-0,112	231,563	115,571
272,224	-0,197	231,464	115,445
273,239	0,373	231,468	115,878
274,253	0,167	231,119	115,534
275,268	-0,262	230,935	115,100
276,282	-0,146	230,797	115,111
277,297	0,020	230,602	115,131
278,312	-0,150	230,687	115,032
279,326	0,294	230,533	115,287
280,341	0,155	230,316	115,062
281,355	0,320	230,211	115,125
282,370	0,402	230,052	115,099
283,384	-0,134	229,825	114,564
284,399	-0,008	229,580	114,529
285,414	-0,164	229,431	114,324
286,428	0,021	229,327	114,403
287,443	0,327	229,293	114,610
288,457	0,247	229,205	114,495
289,472	0,158	228,920	114,275
290,487	-0,144	228,690	113,919
291,501	-0,412	228,557	113,639
292,516	-0,358	228,413	113,598
293,530	-0,121	228,312	113,718
294,545	0,024	228,134	113,729
295,560	-0,041	228,052	113,629
296,574	0,279	227,910	113,791
297,589	0,191	227,782	113,651
298,603	0,115	227,709	113,546
299,618	0,167	227,455	113,449
300,633	0,381	227,425	113,586
301,647	0,510	227,257	113,590
302,662	0,308	227,168	113,383
303,676	0,464	226,991	113,401
304,691	0,515	226,870	113,369
305,706	0,305	226,738	113,135
306,720	0,335	226,664	113,110
307,735	0,153	226,325	112,795
308,749	0,110	226,185	112,682
309,764	0,072	226,180	112,641
310,779	0,382	225,884	112,717
311,793	0,093	225,788	112,441
312,808	0,245	225,689	112,496
313,822	0,263	225,558	112,435
314,837	-0,098	225,422	112,085
315,852	0,103	225,124	112,078
316,866	0,168	225,107	112,108
317,881	0,437	225,019	112,256
318,895	0,258	224,835	112,020
319,910	0,139	224,491	111,750
320,925	-0,358	224,261	111,255
321,939	-0,559	224,206	111,068
322,954	-0,393	224,248	111,202
323,968	0,315	224,218	111,705
324,983	0,414	224,069	111,695
325,997	0,470	223,996	111,691
327,012	0,393	223,806	111,529
328,027	0,235	223,616	111,307
329,041	0,410	223,506	111,372
330,056	0,498	223,206	111,277
331,070	0,050	223,049	110,858
332,085	-0,377	222,746	110,381
333,100	0,196	222,743	110,794
334,114	0,513	222,625	110,959
335,129	0,447	222,488	110,833
336,143	0,414	222,364	110,736
337,158	0,292	222,342	110,625
338,173	0,210	222,132	110,451
339,187	0,174	221,834	110,266
340,202	-0,172	221,687	109,928
341,216	0,016	221,571	109,999
342,231	-0,050	221,558	109,934
343,246	-0,040	221,330	109,819
344,260	0,102	221,153	109,826
345,275	0,126	221,097	109,806
346,289	0,335	220,976	109,889
347,304	0,425	220,985	109,950
348,319	0,702	220,523	109,913
349,333	0,425	220,563	109,720
350,348	0,510	220,369	109,676
351,362	0,513	220,379	109,674
352,377	0,662	220,251	109,709
353,392	0,328	219,958	109,309
354,406	0,360	219,919	109,303
355,421	194,083	1316,979	1394,941
356,435	155,347	1450,609	1394,902
