DTS Sentinel unit serial number:	SN410029Multiplexer serial number:	ORYXHardware model number:	OX2-SRSoftware version number:	ORYX F/W v4,00 Oryx Data Collector v3.7.2.0data status	okinstallation	B6 Nyhavnadifferential loss correction	single-endedforward channel	channel 2reverse channel	N/Adate	2023/12/11time	05:20:08forward acquisition time	300,00reverse acquisition time	0,00gamma	499,1914k internal	0,3126k external	0,3126temperature offset calibration	1,0000default loss term (dB/km)	0,3820temperature slope calibration	1,0000multiplexer offset coefficient	1,0000multiplexer slope coefficient	1,0000fibre end	0,00T internal ref (°C)	20,04T ext. ref 1 (°C)	3,10T ext. ref 2 (°C)	3,14length (m)	temperature (°C)	Stokes	anti-Stokes-744,400	-200,000	0,013	-0,107
-743,385	-141,204	-0,425	-0,032
-742,371	-51,659	0,067	-0,023
-741,356	-131,051	-0,294	0,029
-740,342	-38,963	0,027	0,011
-739,327	-42,228	-0,229	0,087
-738,312	27,869	0,011	0,007
-737,298	-117,640	-0,300	0,040
-736,283	153,104	0,084	-0,086
-735,269	-52,858	-0,231	0,079
-734,254	-139,847	0,034	0,003
-733,239	-161,948	-0,244	-0,009
-732,225	-138,366	0,188	0,015
-731,210	17,632	-0,050	-0,029
-730,196	106,286	-0,040	-0,035
-729,181	-200,000	-0,009	-0,232
-728,167	69,484	-0,100	0,076
-727,152	267,181	-0,068	-0,089
-726,137	-200,000	-0,027	0,090
-725,123	-200,000	0,024	-0,079
-724,108	543,097	-0,097	-0,173
-723,094	-200,000	0,011	-0,075
-722,079	-135,401	-0,164	-0,014
-721,064	656,429	-0,058	-0,112
-720,050	-17,777	0,049	-0,023
-719,035	800,000	-0,011	0,025
-718,021	40,781	-0,083	0,056
-717,006	-200,000	0,030	-0,161
-715,991	-79,302	-0,027	-0,007
-714,977	339,963	0,038	-0,055
-713,962	-89,831	0,004	-0,001
-712,948	-200,000	0,000	-0,034
-711,933	5,288	-0,007	0,004
-710,918	-126,905	-0,118	-0,013
-709,904	47,281	-0,096	-0,066
-708,889	800,000	-0,028	-0,062
-707,875	-143,178	-0,053	0,004
-706,860	-116,703	0,080	-0,011
-705,845	-111,884	-0,105	0,016
-704,831	-109,967	0,048	0,007
-703,816	-200,000	-0,018	-0,084
-702,802	-200,000	-0,040	-0,173
-701,787	800,000	-0,015	-0,040
-700,772	800,000	0,071	-0,193
-699,758	-176,001	0,035	-0,001
-698,743	-200,000	0,015	0,057
-697,729	248,298	-0,091	0,115
-696,714	-14,579	-0,063	0,030
-695,699	-27,101	0,049	-0,021
-694,685	-10,579	-0,042	-0,021
-693,670	122,145	0,058	0,054
-692,656	-200,000	0,004	-0,015
-691,641	435,062	-0,044	0,071
-690,627	800,000	-0,034	-0,072
-689,612	-112,545	0,104	0,015
-688,597	452,548	-0,095	-0,156
-687,583	-88,717	-0,100	-0,022
-686,568	800,000	0,038	-0,091
-685,554	-200,000	0,011	0,123
-684,539	237,285	-0,018	-0,022
-683,524	-111,361	0,020	-0,003
-682,510	-200,000	0,032	-0,119
-681,495	82,640	-0,042	-0,033
-680,481	-200,000	0,005	0,044
-679,466	800,000	-0,057	-0,136
-678,451	194,670	-0,055	0,062
-677,437	-30,112	0,054	0,023
-676,422	456,314	0,063	0,104
-675,408	-69,155	-0,145	-0,041
-674,393	800,000	0,025	-0,076
-673,378	194,789	0,047	-0,053
-672,364	-200,000	-0,014	-0,071
-671,349	-48,948	0,067	0,024
-670,335	-184,280	0,130	-0,002
-669,320	106,279	-0,093	0,082
-668,305	431,027	-0,004	-0,007
-667,291	-200,000	0,000	-0,129
-666,276	68,929	0,051	0,039
-665,262	-101,284	-0,097	0,017
-664,247	-66,826	-0,152	0,044
-663,232	-58,404	-0,077	-0,025
-662,218	21,078	-0,046	0,028
-661,203	-51,171	0,064	0,022
-660,189	-81,866	-0,087	-0,021
-659,174	348,561	-0,082	0,121
-658,159	-200,000	-0,026	-0,090
-657,145	51,226	-0,078	0,055
-656,130	800,000	-0,014	-0,034
-655,116	2,675	0,162	0,087
-654,101	-200,000	-0,026	-0,116
-653,086	500,932	-0,040	0,068
-652,072	800,000	-0,031	0,075
-651,057	-84,488	-0,151	0,035
-650,043	172,667	-0,069	-0,074
-649,028	-200,000	0,002	0,063
-648,014	800,000	-0,025	0,061
-646,999	-81,993	-0,027	0,006
-645,984	-200,000	0,012	0,106
-644,970	-64,493	0,144	-0,043
-643,955	253,249	-0,025	-0,031
-642,941	-135,368	-0,095	-0,008
-641,926	800,000	-0,023	-0,053
-640,911	-200,000	0,022	-0,122
-639,897	800,000	0,043	-0,124
-638,882	489,338	0,064	0,109
-637,868	-200,000	-0,004	-0,131
-636,853	-117,334	-0,110	-0,015
-635,838	-200,000	0,002	0,043
-634,824	205,603	0,085	-0,098
-633,809	621,639	-0,044	0,083
-632,795	664,405	0,055	0,106
-631,780	-188,216	-0,063	-0,001
-630,765	70,511	0,161	-0,123
-629,751	17,870	-0,164	-0,096
-628,736	800,000	-0,061	-0,140
-627,722	479,685	-0,103	-0,174
-626,707	296,491	0,080	-0,110
-625,692	-128,779	0,028	0,003
-624,678	-75,543	-0,078	0,020
-623,663	800,000	-0,079	-0,163
-622,649	-200,000	-0,009	-0,157
-621,634	114,106	-0,113	-0,102
-620,619	-58,868	-0,081	0,026
-619,605	-98,825	-0,108	-0,020
-618,590	326,080	-0,006	-0,009
-617,576	-200,000	-0,027	0,093
-616,561	-37,073	-0,018	0,007
-615,546	-93,716	0,033	-0,007
-614,532	526,753	-0,076	0,133
-613,517	-200,000	0,036	-0,132
-612,503	107,822	0,052	0,046
-611,488	800,000	-0,015	-0,037
-610,474	-141,780	0,208	-0,015
-609,459	282,402	0,089	0,118
-608,444	199,027	0,064	-0,073
-607,430	800,000	0,028	0,085
-606,415	517,967	-0,082	0,143
-605,401	-200,000	-0,021	0,107
-604,386	631,171	-0,008	-0,014
-603,371	-68,389	0,109	0,031
-602,357	460,917	-0,074	0,123
-601,342	-60,887	-0,057	0,018
-600,328	-145,965	-0,080	0,005
-599,313	-135,127	-0,089	-0,008
-598,298	104,935	0,089	-0,078
-597,284	-35,557	0,032	0,013
-596,269	343,983	0,086	0,125
-595,255	800,000	0,020	0,041
-594,240	203,462	-0,069	-0,079
-593,225	-200,000	-0,026	-0,087
-592,211	132,544	-0,051	-0,049
-591,196	-50,515	0,027	-0,009
-590,182	702,569	0,084	-0,164
-589,167	-200,000	0,002	-0,041
-588,152	-200,000	-0,005	-0,022
-587,138	278,103	0,066	-0,087
-586,123	-200,000	0,026	-0,119
-585,109	-98,776	-0,076	0,014
-584,094	219,576	0,025	0,030
-583,079	360,229	0,060	0,089
-582,065	178,715	-0,070	0,075
-581,050	-93,681	0,051	0,010
-580,036	-32,028	-0,019	0,008
-579,021	16,326	-0,017	-0,010
-578,006	800,000	0,011	-0,030
-576,992	-130,365	0,055	0,005
-575,977	800,000	0,028	-0,075
-574,963	-200,000	0,004	-0,113
-573,948	-133,584	0,059	0,005
-572,934	800,000	-0,034	-0,073
-571,919	220,276	-0,101	-0,119
-570,904	-15,393	-0,035	0,016
-569,890	-200,000	0,012	-0,055
-568,875	-121,124	-0,125	-0,015
-567,861	478,827	0,044	-0,074
-566,846	362,120	-0,020	0,030
-565,831	-200,000	0,013	-0,093
-564,817	-200,000	-0,009	-0,159
-563,802	-40,329	-0,178	-0,068
-562,788	93,134	0,034	-0,028
-561,773	800,000	-0,081	0,232
-560,758	212,770	0,053	-0,062
-559,744	311,550	-0,099	-0,138
-558,729	25,808	-0,041	-0,025
-557,715	-200,000	0,010	-0,057
-556,700	800,000	-0,033	-0,071
-555,685	800,000	-0,037	-0,111
-554,671	-65,146	0,028	-0,008
-553,656	800,000	0,044	-0,131
-552,642	317,846	0,050	-0,069
-551,627	-34,190	-0,159	0,064
-550,612	800,000	0,051	0,136
-549,598	-167,131	0,062	0,002
-548,583	-60,935	-0,071	0,022
-547,569	800,000	-0,035	-0,107
-546,554	96,626	0,029	-0,025
-545,539	67,871	-0,052	0,039
-544,525	600,472	-0,044	0,082
-543,510	174,142	0,020	-0,022
-542,496	110,788	-0,066	-0,059
-541,481	186,842	-0,041	0,046
-540,466	-200,000	0,011	-0,199
-539,452	-200,000	0,001	-0,023
-538,437	38,967	0,063	0,041
-537,423	-10,459	0,025	0,012
-536,408	70,462	-0,066	-0,050
-535,393	457,147	-0,079	-0,131
-534,379	498,067	-0,049	-0,083
-533,364	-200,000	-0,008	-0,137
-532,350	800,000	0,079	0,166
-531,335	-29,536	0,082	-0,034
-530,321	-200,000	0,017	0,080
-529,306	-200,000	-0,019	0,082
-528,291	800,000	-0,027	-0,079
-527,277	-200,000	0,010	0,088
-526,262	42,614	0,081	0,054
-525,248	147,374	-0,038	0,037
-524,233	-68,144	0,120	-0,034
-523,218	94,305	0,049	-0,041
-522,204	-200,000	0,006	0,098
-521,189	-76,546	0,131	-0,034
-520,175	-199,805	-0,189	-0,001
-519,160	34,142	0,034	-0,022
-518,145	-65,948	-0,102	-0,030
-517,131	457,978	0,057	0,094
-516,116	-23,763	0,099	-0,043
-515,102	536,940	0,048	0,084
-514,087	93,534	-0,037	0,031
-513,072	26,518	0,014	0,008
-512,058	24,176	0,071	0,043
-511,043	0,857	-0,080	-0,042
-510,029	15,261	0,091	0,053
-509,014	403,877	0,057	-0,088
-507,999	-63,905	-0,107	0,032
-506,985	-200,000	-0,010	-0,058
-505,970	-166,485	0,133	-0,004
-504,956	-181,719	0,092	0,001
-503,941	204,446	0,030	0,034
-502,926	315,697	-0,063	0,087
-501,912	-47,803	-0,049	0,017
-500,897	327,234	0,083	0,118
-499,883	-82,541	-0,045	-0,011
-498,868	-42,751	-0,039	-0,014
-497,853	800,000	-0,028	0,080
-496,839	242,740	0,058	0,072
-495,824	-75,395	0,067	0,017
-494,810	379,635	0,068	0,103
-493,795	-200,000	0,018	0,172
-492,781	184,308	0,074	-0,081
-491,766	110,687	0,059	-0,052
-490,751	-66,805	0,053	-0,015
-489,737	-127,254	0,067	-0,007
-488,722	556,001	-0,083	0,149
-487,708	-113,050	-0,072	0,010
-486,693	800,000	-0,036	0,106
-485,678	261,340	0,058	-0,074
-484,664	395,055	-0,066	-0,102
-483,649	800,000	0,049	-0,137
-482,635	800,000	0,020	-0,050
-481,620	-69,691	0,094	0,026
-480,605	-120,209	0,020	0,002
-479,591	488,049	-0,042	0,070
-478,576	-200,000	0,011	0,158
-477,562	-76,199	-0,130	0,033
-476,547	-200,000	0,000	-0,039
-475,532	-152,170	-0,020	0,001
-474,518	-93,835	0,012	-0,003
-473,503	543,998	0,039	0,069
-472,489	333,874	-0,034	0,049
-471,474	-75,337	0,085	0,022
-470,459	-200,000	-0,014	0,079
-469,445	-44,483	-0,111	0,041
-468,430	-100,349	-0,027	-0,005
-467,416	-16,150	0,146	-0,068
-466,401	-200,000	-0,015	0,072
-465,386	-88,419	-0,083	-0,018
-464,372	-139,826	0,129	-0,010
-463,357	-102,381	-0,114	-0,020
-462,343	-200,000	0,030	-0,128
-461,328	97,035	0,102	-0,086
-460,313	486,790	0,020	0,034
-459,299	800,000	-0,009	0,027
-458,284	-200,000	-0,016	0,103
-457,270	-187,330	0,108	0,001
-456,255	-86,485	-0,079	0,018
-455,241	-122,877	-0,152	-0,018
-454,226	38,358	0,030	-0,020
-453,211	393,421	-0,053	-0,082
-452,197	-200,000	-0,012	-0,104
-451,182	-150,433	-0,075	0,004
-450,168	-77,756	-0,121	0,031
-449,153	1,259	-0,103	-0,054
-448,138	-33,289	-0,033	-0,014
-447,124	-200,000	0,015	-0,099
-446,109	800,000	-0,023	0,073
-445,095	259,059	0,130	0,165
-444,080	-200,000	0,004	0,043
-443,065	-148,184	-0,114	-0,007
-442,051	278,846	-0,072	-0,095
-441,036	368,306	0,068	0,101
-440,022	37,464	0,113	0,074
-439,007	503,302	-0,023	0,040
-437,992	112,378	-0,100	-0,089
-436,978	-4,755	0,099	0,050
-435,963	-103,199	-0,089	-0,015
-434,949	-97,044	0,026	-0,005
-433,934	217,230	-0,044	-0,052
-432,919	31,222	0,053	0,033
-431,905	-200,000	-0,004	-0,186
-430,890	-43,988	0,030	0,011
-429,876	-163,766	0,159	0,005
-428,861	-1,896	-0,111	0,057
-427,846	-9,130	0,153	0,075
-426,832	139,490	-0,074	0,072
-425,817	532,909	-0,056	-0,098
-424,803	104,296	-0,050	0,043
-423,788	800,000	0,026	-0,079
-422,773	-2,395	-0,063	0,032
-421,759	-181,850	0,080	-0,001
-420,744	43,054	0,079	-0,053
-419,730	575,948	-0,018	-0,033
-418,715	380,699	-0,054	-0,081
-417,701	-101,125	-0,043	-0,008
-416,686	-53,110	-0,039	-0,013
-415,671	74,746	0,091	0,070
-414,657	-200,000	0,007	0,083
-413,642	358,492	0,056	-0,083
-412,628	34,455	-0,080	-0,052
-411,613	-200,000	-0,005	-0,056
-410,598	-54,710	0,078	-0,026
-409,584	-112,575	0,060	-0,009
-408,569	56,699	0,045	-0,032
-407,555	800,000	0,041	0,106
-406,540	76,086	0,142	0,111
-405,525	646,032	0,096	-0,181
-404,511	800,000	-0,052	-0,148
-403,496	-26,588	-0,034	0,015
-402,482	-200,000	-0,021	-0,075
-401,467	-15,235	0,030	0,014
-400,452	107,189	-0,017	0,015
-399,438	252,292	-0,059	0,074
-398,423	800,000	-0,057	0,119
-397,409	171,412	-0,034	-0,036
-396,394	-200,000	-0,002	0,018
-395,379	-27,269	0,088	0,037
-394,365	97,665	-0,010	-0,008
-393,350	-200,000	0,004	-0,039
-392,336	-51,926	0,047	-0,016
-391,321	215,407	0,051	-0,059
-390,306	63,709	-0,126	-0,092
-389,292	800,000	-0,048	0,148
-388,277	-200,000	0,013	0,046
-387,263	-200,000	-0,022	0,111
-386,248	551,936	0,038	-0,068
-385,233	800,000	0,031	0,064
-384,219	-200,000	0,051	0,167
-383,204	334,345	-0,029	0,042
-382,190	-20,211	-0,127	-0,057
-381,175	52,664	-0,029	-0,020
-380,160	800,000	0,046	0,133
-379,146	-115,575	0,089	-0,012
-378,131	-200,000	0,022	0,078
-377,117	19,307	0,142	0,084
-376,102	-48,210	0,096	0,034
-375,088	-75,274	0,152	-0,039
-374,073	800,000	0,023	-0,061
-373,058	-200,000	0,002	0,008
-372,044	-85,183	0,059	-0,013
-371,029	-10,015	0,062	-0,030
-370,015	-200,000	0,018	0,067
-369,000	-42,047	-0,055	0,021
-367,985	53,311	0,039	-0,027
-366,971	436,541	0,021	-0,034
-365,956	800,000	-0,073	0,179
-364,942	6,627	0,141	-0,077
-363,927	-200,000	0,002	-0,088
-362,912	47,430	0,036	0,024
-361,898	-111,106	-0,023	-0,003
-360,883	24,602	-0,019	0,011
-359,869	-200,000	-0,004	0,162
-358,854	97,117	0,146	-0,123
-357,839	-19,582	-0,046	0,021
-356,825	484,853	0,019	-0,031
-355,810	-200,000	-0,003	-0,121
-354,796	800,000	-0,023	0,057
-353,781	-77,055	-0,079	0,020
-352,766	800,000	-0,013	-0,034
-351,752	165,868	-0,066	0,068
-350,737	547,423	-0,060	-0,106
-349,723	-200,000	-0,009	0,061
-348,708	-168,494	-0,056	-0,002
-347,693	800,000	0,019	-0,043
-346,679	-200,000	0,007	0,026
-345,664	-200,000	-0,005	0,058
-344,650	-52,803	-0,135	0,045
-343,635	-2,931	0,020	-0,010
-342,620	-200,000	0,018	0,061
-341,606	800,000	0,031	-0,063
-340,591	-200,000	0,029	0,097
-339,577	-96,089	-0,024	-0,005
-338,562	632,326	-0,030	-0,055
-337,548	-34,276	-0,128	-0,051
-336,533	-103,768	0,093	0,016
-335,518	-100,964	0,060	-0,011
-334,504	-200,000	0,042	0,186
-333,489	-96,162	0,105	-0,020
-332,475	215,970	-0,016	-0,019
-331,460	519,733	0,048	0,083
-330,445	34,844	-0,085	-0,055
-329,431	594,218	0,065	0,118
-328,416	800,000	0,035	0,096
-327,402	-49,101	-0,106	0,037
-326,387	-200,000	-0,050	0,169
-325,372	67,906	0,034	-0,026
-324,358	800,000	-0,051	-0,132
-323,343	-200,000	0,040	-0,134
-322,329	-200,000	-0,031	-0,107
-321,314	-19,147	0,120	-0,054
-320,299	800,000	0,039	0,082
-319,285	-78,930	0,068	-0,017
-318,270	800,000	0,025	0,078
-317,256	-200,000	-0,007	-0,094
-316,241	-164,019	-0,152	0,005
-315,226	-6,915	0,040	-0,020
-314,212	-200,000	-0,015	0,101
-313,197	36,016	0,033	0,021
-312,183	-200,000	-0,010	0,049
-311,168	800,000	0,006	-0,016
-310,153	-200,000	-0,013	0,046
-309,139	548,360	-0,051	0,090
-308,124	-79,161	-0,098	0,024
-307,110	-151,973	0,036	-0,002
-306,095	-146,545	0,064	-0,004
-305,080	-200,000	0,003	0,092
-304,066	-195,395	-0,045	-0,000
-303,051	-200,000	-0,001	-0,117
-302,037	-71,209	0,116	0,032
-301,022	12,814	-0,079	0,045
-300,008	800,000	0,041	-0,085
-298,993	-101,094	0,060	-0,011
-297,978	-13,617	-0,070	0,033
-296,964	-200,000	-0,018	0,130
-295,949	-200,000	-0,051	-0,181
-294,935	178,009	0,047	-0,050
-293,920	-200,000	-0,035	0,134
-292,905	-51,284	-0,029	0,010
-291,891	220,033	0,058	0,068
-290,876	53,887	-0,033	0,023
-289,862	-200,000	-0,010	-0,051
-288,847	-200,000	-0,005	-0,025
-287,832	-98,499	-0,132	-0,024
-286,818	-37,868	-0,085	0,033
-285,803	152,013	0,031	0,031
-284,789	113,973	-0,071	0,063
-283,774	14,289	-0,070	-0,040
-282,759	146,300	0,051	-0,050
-281,745	-200,000	-0,001	-0,022
-280,730	523,220	0,018	0,031
-279,716	-7,092	0,056	0,028
-278,701	307,798	0,009	0,012
-277,686	800,000	-0,027	-0,060
-276,672	800,000	0,025	-0,074
-275,657	68,122	0,090	0,067
-274,643	154,182	-0,041	0,041
-273,628	10,097	-0,077	-0,042
-272,613	-200,000	0,026	-0,119
-271,599	103,005	0,151	-0,129
-270,584	-200,000	0,007	-0,036
-269,570	-81,135	-0,131	0,031
-268,555	-200,000	-0,005	0,017
-267,540	237,923	0,080	-0,097
-266,526	-112,114	-0,130	0,019
-265,511	800,000	0,005	0,013
-264,497	-200,000	-0,002	0,069
-263,482	800,000	0,034	-0,104
-262,467	-99,154	0,097	-0,018
-261,453	-32,371	-0,132	-0,054
-260,438	800,000	0,012	0,033
-259,424	142,914	-0,048	-0,047
-258,409	-200,000	-0,006	-0,094
-257,395	-108,199	0,041	0,006
-256,380	-54,066	0,108	0,036
-255,365	253,195	0,075	0,093
-254,351	-61,285	0,075	-0,023
-253,336	-200,000	-0,010	0,112
-252,322	800,000	0,052	-0,108
-251,307	-41,799	-0,015	-0,006
-250,292	-93,680	0,114	-0,023
-249,278	-33,612	0,140	0,056
-248,263	-192,550	0,104	-0,001
-247,249	-200,000	-0,015	0,050
-246,234	449,126	-0,098	0,158
-245,219	-200,000	0,000	-0,132
-244,205	80,628	0,153	-0,120
-243,190	-18,039	0,077	-0,035
-242,176	-170,131	0,163	-0,004
-241,161	-1,738	0,048	-0,025
-240,146	528,975	0,109	-0,188
-239,132	-85,467	-0,007	0,002
-238,117	-163,329	0,146	-0,005
-237,103	-46,036	-0,114	0,041
-236,088	93,954	0,021	-0,017
-235,073	800,000	-0,034	0,089
-234,059	-200,000	0,049	0,000
-233,044	530,598	0,057	-0,099
-232,030	85,036	-0,154	0,123
-231,015	-133,721	-0,166	-0,015
-230,000	733,040	-0,028	0,055
-228,986	226,647	0,013	-0,016
-227,971	-200,000	-0,027	-0,099
-226,957	45,407	-0,121	0,082
-225,942	-118,806	-0,100	0,013
-224,927	49,455	-0,067	0,046
-223,913	-109,997	-0,037	-0,006
-222,898	800,000	-0,059	-0,138
-221,884	800,000	0,023	-0,059
-220,869	800,000	0,025	0,071
-219,855	23,039	-0,039	-0,023
-218,840	800,000	0,038	0,101
-217,825	6,111	0,130	-0,070
-216,811	276,909	0,038	0,050
-215,796	800,000	0,059	0,153
-214,782	644,170	-0,028	-0,053
-213,767	-74,858	0,116	0,030
-212,752	-49,926	0,051	-0,018
-211,738	800,000	0,049	-0,103
-210,723	-63,020	-0,126	0,038
-209,709	-122,369	-0,043	-0,005
-208,694	-200,000	-0,005	-0,044
-207,679	277,452	-0,045	0,058
-206,665	-80,441	-0,115	0,028
-205,650	-147,886	0,060	-0,004
-204,636	-200,000	-0,007	0,067
-203,621	185,612	-0,101	-0,110
-202,606	322,627	-0,119	0,166
-201,592	-200,000	0,015	-0,178
-200,577	-135,427	-0,077	0,007
-199,563	16,024	-0,108	-0,062
-198,548	-78,457	-0,092	0,023
-197,533	800,000	0,024	-0,069
-196,519	-200,000	-0,010	0,142
-195,504	-200,000	0,010	0,059
-194,490	-52,463	0,124	-0,042
-193,475	-200,000	0,007	0,092
-192,460	65,951	0,035	-0,026
-191,446	66,030	0,079	0,058
-190,431	11,283	0,033	-0,018
-189,417	800,000	-0,065	0,158
-188,402	-22,947	-0,071	-0,031
-187,387	52,113	-0,113	-0,078
-186,373	90,618	-0,072	-0,059
-185,358	10,547	0,031	-0,017
-184,344	11,045	0,144	0,080
-183,329	-6,311	-0,081	0,040
-182,315	-19,695	-0,052	0,023
-181,300	-8,013	-0,107	0,052
-180,285	-124,390	-0,095	0,011
-179,271	-0,160	0,034	0,018
-178,256	775,714	-0,031	0,061
-177,242	-174,967	0,074	0,001
-176,227	-200,000	-0,030	0,106
-175,212	-144,209	-0,162	0,011
-174,198	-171,209	-0,067	0,002
-173,183	-102,527	-0,096	0,017
-172,169	800,000	0,034	0,094
-171,154	423,530	0,068	0,107
-170,139	40,772	-0,055	0,036
-169,125	-99,650	0,082	0,015
-168,110	18,834	0,061	0,036
-167,096	800,000	0,014	0,032
-166,081	-200,000	-0,010	-0,139
-165,066	352,844	-0,013	-0,018
-164,052	800,000	0,029	-0,062
-163,037	-200,000	-0,020	0,121
-162,023	800,000	0,064	0,130
-161,008	-200,000	0,008	0,031
-159,993	47,534	0,072	0,049
-158,979	-116,389	-0,068	-0,009
-157,964	800,000	-0,028	-0,077
-156,950	800,000	-0,042	-0,095
-155,935	-61,934	-0,027	-0,008
-154,920	-200,000	0,013	0,156
-153,906	-200,000	-0,026	0,118
-152,891	-200,000	-0,016	-0,070
-151,877	800,000	-0,067	-0,158
-150,862	418,649	0,089	-0,140
-149,847	-15,033	-0,067	-0,031
-148,833	125,739	0,083	-0,076
-147,818	650,462	0,038	0,072
-146,804	249,363	-0,031	0,038
-145,789	-142,057	-0,125	0,009
-144,775	209,712	0,123	-0,141
-143,760	-78,311	0,134	0,033
-142,745	36,214	-0,093	-0,059
-141,731	800,000	0,041	0,101
-140,716	46,336	0,031	0,021
-139,702	-197,701	0,071	0,000
-138,687	537,777	-0,102	-0,176
-137,672	50,821	0,061	0,042
-136,658	43,990	-0,118	-0,079
-135,643	-200,000	0,001	0,061
-134,629	175,560	0,062	-0,065
-133,614	-200,000	-0,009	0,180
-132,599	214,849	0,126	0,145
-131,585	800,000	0,047	0,099
-130,570	564,792	0,077	-0,137
-129,556	-100,393	-0,063	0,011
-128,541	-200,000	0,022	0,080
-127,526	-191,423	-0,184	-0,001
-126,512	-200,000	-0,022	-0,169
-125,497	-200,000	-0,017	0,114
-124,483	330,400	-0,073	0,102
-123,468	385,099	-0,060	0,090
-122,453	-77,880	-0,066	0,016
-121,439	101,389	-0,140	0,118
-120,424	742,237	0,032	-0,063
-119,410	-85,019	-0,078	0,018
-118,395	800,000	0,077	0,160
-117,380	-11,217	0,164	0,078
-116,366	587,805	-0,024	0,044
-115,351	-74,565	-0,093	0,024
-114,337	-8,628	-0,103	-0,050
-113,322	-2,101	0,033	0,017
-112,307	757,378	0,144	0,285
-111,293	366,842	-0,061	0,090
-110,278	196,253	-0,140	0,155
-109,264	42,493	0,042	0,028
-108,249	-43,109	0,075	0,027
-107,234	276,133	-0,060	-0,078
-106,220	70,021	0,056	0,042
-105,205	-200,000	0,022	0,156
-104,191	116,202	0,057	-0,051
-103,176	19,705	-0,040	0,023
-102,162	132,924	0,072	-0,068
-101,147	-28,768	0,233	-0,097
-100,132	-83,894	-0,090	-0,021
-99,118	202,499	-0,078	-0,088
-98,103	-95,242	-0,034	0,007
-97,089	22,702	0,072	0,043
-96,074	95,064	-0,060	-0,049
-95,059	-200,000	-0,007	0,180
-94,045	-200,000	-0,003	-0,116
-93,030	258,104	-0,009	0,012
-92,016	-200,000	-0,028	-0,133
-91,001	-34,119	0,093	-0,037
-89,986	-103,993	-0,116	0,020
-88,972	800,000	0,064	0,129
-87,957	43,409	0,075	0,050
-86,943	-126,210	-0,090	-0,010
-85,928	232,927	-0,051	-0,061
-84,913	80,089	-0,157	0,122
-83,899	158,206	-0,051	0,052
-82,884	11,633	0,029	-0,016
-81,870	800,000	-0,016	-0,032
-80,855	66,491	-0,113	-0,083
-79,840	800,000	-0,055	-0,150
-78,826	800,000	0,087	-0,184
-77,811	-200,000	0,009	0,038
-76,797	616,433	0,031	0,056
-75,782	315,908	-0,040	0,055
-74,767	-127,803	0,137	-0,014
-73,753	98,425	0,061	0,051
-72,738	-52,166	-0,111	0,037
-71,724	-155,602	0,069	-0,003
-70,709	251,500	-0,016	0,020
-69,694	-200,000	-0,013	0,124
-68,680	386,409	0,057	-0,085
-67,665	638,889	0,015	-0,027
-66,651	7,064	0,059	-0,032
-65,636	243,797	-0,086	-0,105
-64,622	-142,497	0,053	-0,004
-63,607	-200,000	-0,007	0,057
-62,592	-31,741	-0,123	0,050
-61,578	-200,000	0,003	0,063
-60,563	800,000	0,013	0,034
-59,549	800,000	-0,091	0,212
-58,534	-80,504	-1,615	-0,387
-57,519	584,724	-0,746	-1,334
-56,505	-200,000	-1,059	-4,627
-55,490	-26,600	0,551	-0,233
-54,476	800,000	5,149	11,944
-53,461	-200,000	15,066	263,164
-52,446	800,000	696,293	2223,827
-51,432	570,591	1618,867	2866,976
-50,417	121,128	1628,870	1469,510
-49,403	82,109	1284,848	1008,623
-48,388	37,988	1024,331	658,814
-47,373	22,674	984,581	582,757
-46,359	21,662	973,728	572,981
-45,344	20,274	969,515	565,926
-44,330	20,387	968,119	565,461
-43,315	20,128	966,577	563,689
-42,300	20,068	965,605	562,905
-41,286	20,101	964,663	562,443
-40,271	20,122	963,427	561,766
-39,257	20,073	962,877	561,265
-38,242	20,137	961,850	560,852
-37,227	20,095	960,902	560,139
-36,213	20,063	960,170	559,587
-35,198	20,023	959,193	558,865
-34,184	20,074	958,514	558,612
-33,169	20,101	957,537	558,111
-32,154	20,140	956,589	557,660
-31,140	20,132	955,697	557,094
-30,125	20,093	955,057	556,571
-29,111	20,125	954,151	556,125
-28,096	20,102	953,578	555,693
-27,082	20,027	952,856	555,010
-26,067	20,075	951,941	554,611
-25,052	20,027	951,284	554,052
-24,038	20,065	950,567	553,731
-23,023	20,101	949,954	553,470
-22,009	20,068	949,391	553,013
-20,994	20,104	948,567	552,628
-19,979	20,120	948,032	552,345
-18,965	20,079	947,298	551,763
-17,950	20,056	946,963	551,474
-16,936	20,063	946,116	550,980
-15,921	20,032	945,423	550,456
-14,906	19,913	944,831	549,708
-13,892	19,947	944,176	549,415
-12,877	19,996	943,435	549,118
-11,863	19,973	942,768	548,635
-10,848	19,924	942,441	548,265
-9,833	20,075	941,910	548,417
-8,819	20,018	941,308	547,862
-7,804	19,906	940,766	547,170
-6,790	19,941	940,327	547,004
-5,775	19,972	939,650	546,688
-4,760	19,953	938,881	546,158
-3,746	19,941	938,272	545,743
-2,731	19,811	937,592	544,914
-1,717	19,817	936,675	544,379
-0,702	19,806	936,078	543,974
0,313	19,608	935,547	543,862
1,327	22,668	933,742	552,421
2,342	31,956	794,788	494,956
3,356	29,206	450,902	276,628
4,371	-1,120	295,629	150,865
5,386	-5,372	276,857	137,215
6,400	-6,860	271,231	133,022
7,415	-7,098	268,808	131,601
8,429	-6,667	267,658	131,425
9,444	-6,832	266,840	130,860
10,459	-6,775	266,288	130,629
11,473	-6,898	265,466	130,102
12,488	-7,158	265,254	129,748
13,502	-7,091	264,544	129,451
14,517	-7,057	264,307	129,354
15,531	-6,934	263,787	129,200
16,546	-6,764	263,540	129,222
17,561	-6,701	263,176	129,089
18,575	-6,701	262,953	128,969
19,590	-6,895	262,441	128,530
20,604	-6,794	262,195	128,490
21,619	-6,758	261,913	128,372
22,634	-6,746	261,567	128,203
23,648	-6,907	261,358	127,943
24,663	-6,857	261,068	127,835
25,677	-6,799	260,721	127,706
26,692	-6,828	260,579	127,599
27,707	-6,802	260,300	127,474
28,721	-6,832	259,986	127,282
29,736	-6,748	259,656	127,184
30,750	-6,864	259,440	126,964
31,765	-6,916	259,171	126,775
32,780	-6,878	259,150	126,786
33,794	-7,007	258,859	126,519
34,809	-6,810	258,581	126,546
35,823	-6,889	258,263	126,309
36,838	-6,865	258,082	126,231
37,853	-6,926	257,790	126,022
38,867	-6,851	257,509	125,940
39,882	-6,982	257,445	125,781
40,896	-6,888	257,174	125,722
41,911	-6,774	256,905	125,679
42,926	-7,087	256,812	125,347
43,940	-6,982	256,369	125,211
44,955	-7,096	256,255	125,044
45,969	-6,844	255,937	125,099
46,984	-7,065	255,729	124,792
47,999	-7,381	255,619	124,450
49,013	-7,626	255,331	124,083
50,028	-7,555	255,018	123,982
51,042	-7,638	254,733	123,760
52,057	-7,753	254,478	123,525
53,071	-7,516	254,245	123,607
54,086	-7,521	254,228	123,583
55,101	-7,548	254,019	123,448
56,115	-7,338	253,894	123,559
57,130	-7,036	253,948	123,838
58,144	-6,685	253,609	123,967
59,159	-6,693	253,305	123,801
60,174	-6,760	253,129	123,646
61,188	-6,842	252,972	123,486
62,203	-6,779	252,774	123,434
63,217	-6,663	252,501	123,390
64,232	-6,860	252,429	123,173
65,247	-6,902	252,011	122,922
66,261	-6,941	251,922	122,833
67,276	-6,945	251,433	122,581
68,290	-7,164	251,475	122,401
69,305	-7,354	251,195	122,090
70,320	-7,249	250,947	122,049
71,334	-6,913	250,708	122,211
72,349	-6,626	250,656	122,422
73,363	-6,711	250,431	122,227
74,378	-6,697	250,198	122,115
75,393	-6,813	250,107	121,961
76,407	-6,733	249,918	121,926
77,422	-6,901	249,780	121,704
78,436	-6,680	249,404	121,699
79,451	-6,778	249,150	121,480
80,466	-6,880	248,904	121,262
81,480	-7,048	248,747	121,032
82,495	-7,151	248,630	120,877
83,509	-7,150	248,482	120,795
84,524	-7,025	248,150	120,729
85,539	-7,207	247,969	120,474
86,553	-7,147	247,850	120,458
87,568	-6,965	247,731	120,543
88,582	-6,828	247,252	120,416
89,597	-7,051	247,427	120,301
90,611	-7,155	247,062	120,025
91,626	-6,870	246,895	120,174
92,641	-6,739	246,763	120,210
93,655	-6,956	246,474	119,876
94,670	-6,989	246,388	119,794
95,684	-6,997	246,160	119,666
96,699	-7,074	245,924	119,476
97,714	-7,156	245,836	119,354
98,728	-7,246	245,633	119,169
99,743	-7,092	245,322	119,136
100,757	-7,071	245,139	119,055
101,772	-7,051	244,969	118,979
102,787	-7,184	244,828	118,788
103,801	-7,065	244,706	118,818
104,816	-7,052	244,621	118,777
105,830	-7,065	244,475	118,685
106,845	-6,958	244,183	118,622
107,860	-6,927	244,107	118,600
108,874	-7,059	243,724	118,293
109,889	-7,076	243,568	118,192
110,903	-7,041	243,267	118,066
111,918	-7,166	243,302	117,968
112,933	-7,014	243,096	117,984
113,947	-6,989	242,923	117,910
114,962	-6,729	242,638	117,977
115,976	-7,029	242,458	117,630
116,991	-6,738	242,309	117,789
118,006	-7,088	242,164	117,418
119,020	-7,110	242,211	117,412
120,035	-6,882	241,923	117,450
121,049	-6,994	241,997	117,384
122,064	-6,800	241,479	117,281
123,079	-6,938	241,403	117,120
124,093	-7,264	241,078	116,684
125,108	-7,161	240,845	116,645
126,122	-7,399	240,693	116,365
127,137	-7,351	240,431	116,268
128,151	-7,322	240,427	116,280
129,166	-7,261	240,248	116,232
130,181	-7,150	240,014	116,200
131,195	-7,165	239,861	116,103
132,210	-7,131	239,769	116,076
133,224	-7,008	239,552	116,062
134,239	-6,992	239,286	115,935
135,254	-6,970	239,255	115,927
136,268	-6,955	238,928	115,771
137,283	-7,501	238,782	115,246
138,297	-7,416	238,577	115,205
139,312	-7,413	238,184	115,007
140,327	-7,164	238,294	115,253
141,341	-6,620	238,311	115,693
142,356	-6,536	238,046	115,622
143,370	-6,784	237,993	115,385
144,385	-6,674	237,729	115,336
145,400	-6,621	237,549	115,281
146,414	-6,707	237,420	115,139
147,429	-6,816	237,286	114,975
148,443	-6,820	237,150	114,896
149,458	-7,056	236,967	114,606
150,473	-6,839	236,806	114,694
151,487	-6,704	236,358	114,575
152,502	-6,804	236,373	114,492
153,516	-6,605	236,178	114,547
154,531	-6,674	236,006	114,398
155,546	-6,909	235,823	114,110
156,560	-6,843	235,648	114,068
157,575	-6,877	235,487	113,953
158,589	-6,920	235,341	113,838
159,604	-6,602	235,157	113,993
160,619	-6,535	234,883	113,903
161,633	-6,478	234,920	113,957
162,648	-6,463	234,757	113,880
163,662	-6,499	234,498	113,716
164,677	-6,858	234,313	113,329
165,692	-6,792	234,423	113,424
166,706	-6,551	234,077	113,439
167,721	-6,682	234,048	113,311
168,735	-6,801	234,007	113,186
169,750	-6,496	233,663	113,253
170,764	-6,603	233,445	113,051
171,779	-6,570	233,416	113,053
172,794	-6,724	233,189	112,811
173,808	-6,639	232,983	112,769
174,823	-7,222	232,705	112,163
175,837	-7,151	232,665	112,190
176,852	-6,824	232,435	112,328
177,867	-6,863	232,415	112,277
178,881	-6,519	232,211	112,440
179,896	-6,537	232,148	112,385
180,910	-6,540	231,993	112,298
181,925	-6,621	231,858	112,159
182,940	-6,568	231,631	112,080
183,954	-6,502	231,502	112,060
184,969	-6,577	231,371	111,927
185,983	-6,293	231,260	112,087
186,998	-6,574	231,047	111,753
188,013	-6,533	230,780	111,647
189,027	-6,380	230,498	111,619
190,042	-6,528	230,469	111,480
191,056	-6,477	230,351	111,452
192,071	-6,620	230,299	111,306
193,086	-6,693	230,053	111,120
194,100	-6,551	229,850	111,123
195,115	-6,990	229,474	110,589
196,129	-7,129	229,502	110,484
197,144	-3,339	230,676	114,005
198,159	1,220	231,950	118,203
199,173	4,177	232,794	120,946
200,188	4,627	232,633	121,205
201,202	4,571	232,645	121,157
202,217	4,665	232,477	121,132
203,232	4,994	232,294	121,283
204,246	4,996	232,188	121,218
205,261	4,785	232,168	121,032
206,275	5,278	231,974	121,306
207,290	5,129	231,829	121,103
208,304	5,182	231,719	121,076
209,319	4,952	231,460	120,750
210,334	4,926	231,124	120,544
211,348	4,676	230,939	120,243
212,363	4,403	230,685	119,888
213,377	4,312	230,556	119,739
214,392	4,122	230,431	119,516
215,407	4,352	230,210	119,569
216,421	4,147	230,212	119,401
217,436	4,212	229,935	119,296
218,450	3,794	229,670	118,825
219,465	3,849	229,572	118,807
220,480	3,885	229,395	118,731
221,494	3,847	229,295	118,640
222,509	4,117	229,273	118,827
223,523	4,182	229,022	118,737
224,538	3,937	228,891	118,469
225,553	4,298	228,798	118,688
226,567	4,330	228,555	118,576
227,582	4,152	228,665	118,486
228,596	4,436	228,475	118,595
229,611	4,345	228,094	118,317
230,626	4,129	227,973	118,077
231,640	4,112	227,704	117,915
232,655	4,345	227,773	118,119
233,669	4,714	227,742	118,374
234,684	4,499	227,639	118,146
235,699	4,787	227,284	118,171
236,713	4,477	227,050	117,803
237,728	4,075	227,054	117,487
238,742	4,112	226,845	117,397
239,757	4,322	226,671	117,456
240,772	4,218	226,408	117,231
241,786	4,083	226,408	117,117
242,801	4,389	226,183	117,223
243,815	4,614	226,108	117,345
244,830	4,481	226,071	117,214
245,844	4,469	225,738	117,022
246,859	4,238	225,657	116,794
247,874	4,248	225,723	116,825
248,888	4,504	225,363	116,822
249,903	4,309	225,254	116,608
250,917	4,229	225,011	116,411
251,932	4,232	224,911	116,352
252,947	3,815	224,838	115,989
253,961	4,032	224,510	115,972
254,976	4,000	224,428	115,895
255,990	4,219	224,455	116,065
257,005	4,415	224,195	116,067
258,020	4,283	224,104	115,910
259,034	4,560	224,109	116,111
260,049	4,478	223,842	115,900
261,063	4,341	223,627	115,676
262,078	4,531	223,571	115,780
263,093	4,403	223,513	115,643
264,107	4,590	223,381	115,704
265,122	4,606	223,166	115,594
266,136	4,452	223,216	115,495
267,151	4,530	222,868	115,363
268,166	4,368	222,459	115,020
269,180	4,093	222,290	114,718
270,195	4,139	222,282	114,738
271,209	3,870	222,238	114,505
272,224	3,975	221,963	114,431
273,239	4,340	221,830	114,623
274,253	4,255	221,662	114,463
275,268	4,038	221,605	114,262
276,282	3,834	221,268	113,927
277,297	3,833	221,100	113,830
278,312	4,072	221,061	113,977
279,326	4,164	221,000	114,003
280,341	4,143	220,870	113,910
281,355	4,391	220,630	113,959
282,370	4,205	220,610	113,801
283,384	4,162	220,237	113,567
284,399	3,801	220,301	113,324
285,414	3,901	220,166	113,318
286,428	3,883	220,103	113,262
287,443	4,317	219,898	113,466
288,457	4,299	219,822	113,404
289,472	4,225	219,548	113,198
290,487	3,699	219,322	112,685
291,501	3,831	219,077	112,646
292,516	3,876	219,178	112,721
293,530	3,938	218,897	112,612
294,545	3,875	218,848	112,530
295,560	4,044	218,668	112,551
296,574	4,269	218,614	112,678
297,589	4,091	218,555	112,507
298,603	4,350	218,407	112,610
299,618	4,290	218,311	112,506
300,633	4,133	218,157	112,303
301,647	4,576	217,917	112,492
302,662	4,435	217,878	112,359
303,676	4,455	217,710	112,277
304,691	4,282	217,552	112,060
305,706	4,550	217,293	112,111
306,720	4,560	217,379	112,153
307,735	4,408	217,086	111,881
308,749	4,145	216,919	111,595
309,764	4,191	216,969	111,644
310,779	4,573	216,715	111,780
311,793	4,331	216,488	111,478
312,808	4,413	216,417	111,490
313,822	4,414	216,344	111,444
314,837	3,968	216,071	110,971
315,852	3,996	216,070	110,981
316,866	3,981	215,920	110,884
317,881	4,368	215,883	111,133
318,895	4,347	215,671	110,999
319,910	4,304	215,498	110,869
320,925	3,781	215,208	110,335
321,939	3,523	214,937	110,001
322,954	3,700	214,881	110,089
323,968	4,163	215,029	110,487
324,983	4,422	214,792	110,541
325,997	4,321	214,658	110,390
327,012	4,217	214,421	110,184
328,027	4,117	214,457	110,121
329,041	4,646	214,339	110,429
330,056	4,850	214,186	110,486
331,070	4,246	213,905	109,900
332,085	4,048	213,655	109,621
333,100	4,059	213,563	109,572
334,114	4,218	213,558	109,673
335,129	4,104	213,407	109,504
336,143	4,002	213,192	109,311
337,158	4,276	213,002	109,399
338,173	4,268	212,888	109,324
339,187	4,064	212,827	109,139
340,202	3,745	212,575	108,774
341,216	3,719	212,479	108,697
342,231	3,843	212,440	108,755
343,246	3,996	212,298	108,781
344,260	4,135	212,127	108,782
345,275	3,997	212,180	108,702
346,289	4,275	211,887	108,738
347,304	4,303	211,837	108,722
348,319	4,003	211,639	108,400
349,333	4,353	211,461	108,546
350,348	4,197	211,274	108,330
351,362	4,307	211,232	108,376
352,377	4,479	211,040	108,389
353,392	3,998	210,937	107,989
354,406	4,036	210,939	108,007
355,421	194,693	1342,791	1432,193
356,435	155,464	1480,753	1432,268
