DTS Sentinel unit serial number:	SN410029Multiplexer serial number:	ORYXHardware model number:	OX2-SRSoftware version number:	ORYX F/W v4,00 Oryx Data Collector v3.7.2.0data status	okinstallation	B6 Nyhavnadifferential loss correction	single-endedforward channel	channel 2reverse channel	N/Adate	2023/12/07time	21:30:08forward acquisition time	300,00reverse acquisition time	0,00gamma	499,1914k internal	0,3165k external	0,3165temperature offset calibration	1,0000default loss term (dB/km)	0,3820temperature slope calibration	1,0000multiplexer offset coefficient	1,0000multiplexer slope coefficient	1,0000fibre end	0,00T internal ref (°C)	13,69T ext. ref 1 (°C)	-3,19T ext. ref 2 (°C)	-3,17length (m)	temperature (°C)	Stokes	anti-Stokes-744,400	-18,879	0,150	-0,068
-743,385	-140,683	-0,253	0,019
-742,371	-200,000	0,075	0,252
-741,356	-134,859	-0,252	0,022
-740,342	-148,226	0,187	-0,011
-739,327	-11,859	-0,247	0,119
-738,312	80,579	0,069	0,055
-737,298	-12,620	-0,318	-0,152
-736,283	-110,170	0,215	0,033
-735,269	-193,763	-0,356	0,002
-734,254	-200,000	-0,024	0,138
-733,239	-86,408	-0,499	-0,112
-732,225	-84,324	0,129	-0,030
-731,210	-11,340	0,095	0,046
-730,196	1,656	0,044	-0,023
-729,181	761,692	0,015	-0,029
-728,167	800,000	0,046	0,100
-727,152	18,239	-0,070	-0,041
-726,137	-200,000	0,004	0,028
-725,123	53,329	-0,058	-0,041
-724,108	-0,106	-0,111	-0,058
-723,094	-200,000	0,023	-0,267
-722,079	55,699	-0,077	0,055
-721,064	800,000	0,017	0,038
-720,050	-200,000	-0,024	0,103
-719,035	315,094	-0,037	-0,051
-718,021	43,705	0,083	0,056
-717,006	-152,979	-0,121	-0,006
-715,991	-11,481	-0,166	0,080
-714,977	-36,114	-0,073	0,029
-713,962	19,775	0,067	0,039
-712,948	-111,912	-0,091	0,013
-711,933	-42,766	-0,099	-0,037
-710,918	483,510	0,015	-0,025
-709,904	318,243	-0,059	0,082
-708,889	-12,741	-0,097	0,046
-707,875	-135,006	-0,076	0,007
-706,860	98,028	-0,064	-0,054
-705,845	-13,652	-0,072	-0,034
-704,831	-200,000	0,012	-0,061
-703,816	-45,186	0,088	0,032
-702,802	-200,000	-0,009	-0,097
-701,787	570,157	-0,010	-0,017
-700,772	-8,417	-0,118	0,058
-699,758	-10,374	0,012	0,006
-698,743	47,642	0,071	0,048
-697,729	-58,588	-0,081	-0,026
-696,714	800,000	0,028	-0,068
-695,699	800,000	-0,043	-0,090
-694,685	-200,000	-0,032	-0,107
-693,670	279,249	-0,053	-0,069
-692,656	-200,000	-0,004	-0,056
-691,641	-200,000	-0,013	-0,105
-690,627	19,060	0,069	-0,041
-689,612	800,000	0,011	-0,022
-688,597	-197,203	-0,074	-0,000
-687,583	800,000	-0,086	-0,192
-686,568	-101,300	0,100	-0,018
-685,554	18,062	0,032	0,019
-684,539	-200,000	-0,011	0,052
-683,524	-67,388	0,109	0,031
-682,510	112,955	-0,052	0,046
-681,495	100,769	-0,070	-0,059
-680,481	163,747	-0,048	-0,050
-679,466	102,579	-0,093	-0,080
-678,451	-20,814	0,036	-0,016
-677,437	65,192	-0,029	0,022
-676,422	-200,000	0,009	0,072
-675,408	125,401	-0,010	-0,010
-674,393	99,952	-0,103	0,088
-673,378	-35,036	-0,072	-0,029
-672,364	-164,341	-0,072	-0,002
-671,349	308,738	0,059	-0,081
-670,335	-200,000	-0,023	0,135
-669,320	-200,000	-0,005	-0,029
-668,305	-200,000	0,017	0,114
-667,291	-89,897	-0,044	0,009
-666,276	215,349	-0,105	-0,122
-665,262	746,462	-0,038	-0,075
-664,247	261,847	0,027	0,034
-663,232	5,033	0,029	0,016
-662,218	67,656	0,065	-0,048
-661,203	451,837	0,022	-0,036
-660,189	187,690	0,086	-0,094
-659,174	-166,379	-0,117	0,004
-658,159	-36,008	0,097	-0,038
-657,145	-200,000	0,010	-0,062
-656,130	137,392	-0,089	0,085
-655,116	143,380	-0,074	-0,072
-654,101	405,935	0,060	0,093
-653,086	19,512	-0,151	0,089
-652,072	93,588	0,036	-0,030
-651,057	-200,000	-0,082	-0,270
-650,043	50,812	-0,103	-0,071
-649,028	-200,000	0,027	0,098
-648,014	-200,000	0,010	0,081
-646,999	7,336	-0,046	-0,025
-645,984	-43,869	0,045	0,017
-644,970	-200,000	-0,003	-0,116
-643,955	1,994	-0,107	-0,056
-642,941	-200,000	-0,012	-0,078
-641,926	627,771	0,016	0,029
-640,911	179,247	-0,021	-0,022
-639,897	-123,378	-0,041	-0,005
-638,882	-200,000	-0,007	0,159
-637,868	462,500	0,057	0,093
-636,853	-108,346	-0,209	0,033
-635,838	-99,575	-0,059	-0,011
-634,824	-10,121	0,057	0,028
-633,809	-66,723	-0,121	0,035
-632,795	-171,992	-0,101	0,002
-631,780	-84,396	-0,087	0,020
-630,765	410,170	0,040	-0,062
-629,751	514,034	0,026	-0,044
-628,736	-138,875	-0,061	-0,005
-627,722	-200,000	-0,005	-0,205
-626,707	238,601	-0,048	0,058
-625,692	-200,000	-0,003	0,082
-624,678	628,365	-0,146	-0,271
-623,663	-110,810	-0,106	-0,016
-622,649	188,193	-0,054	-0,059
-621,634	-81,991	0,054	0,013
-620,619	117,372	-0,020	-0,018
-619,605	181,508	-0,044	-0,048
-618,590	32,682	-0,048	0,030
-617,576	172,049	-0,049	-0,051
-616,561	800,000	0,018	0,051
-615,546	-35,856	0,077	0,030
-614,532	-78,815	0,088	0,022
-613,517	304,371	-0,050	-0,069
-612,503	800,000	0,004	-0,010
-611,488	-45,025	-0,117	0,043
-610,474	294,359	0,036	0,049
-609,459	743,182	0,031	-0,060
-608,444	-146,304	-0,041	0,003
-607,430	118,768	-0,028	-0,025
-606,415	-200,000	-0,004	-0,023
-605,401	800,000	0,063	0,129
-604,386	292,195	-0,014	0,018
-603,371	616,332	0,080	0,147
-602,357	-200,000	-0,025	0,104
-601,342	44,136	-0,083	0,056
-600,328	8,600	0,119	-0,066
-599,313	800,000	0,015	-0,049
-598,298	-200,000	0,005	-0,019
-597,284	-63,048	0,082	-0,025
-596,269	-200,000	0,008	-0,056
-595,255	214,893	0,078	-0,091
-594,240	174,312	-0,085	-0,090
-593,225	-172,506	-0,115	-0,003
-592,211	800,000	0,010	-0,030
-591,196	64,451	-0,089	0,065
-590,182	73,454	-0,057	0,043
-589,167	1,453	0,048	-0,025
-588,152	-200,000	-0,007	0,081
-587,138	795,700	0,029	0,058
-586,123	240,168	-0,077	0,094
-585,109	242,221	-0,006	0,007
-584,094	-160,312	-0,037	-0,001
-583,079	-64,340	0,088	-0,026
-582,065	627,544	0,028	-0,052
-581,050	116,874	0,053	0,047
-580,036	-58,632	-0,145	0,046
-579,021	-200,000	-0,022	-0,182
-578,006	-15,164	-0,126	0,058
-576,992	95,649	0,021	0,017
-575,977	-39,574	-0,040	0,015
-574,963	118,274	0,013	0,012
-573,948	-200,000	0,004	0,062
-572,934	-27,081	-0,085	0,036
-571,919	67,313	-0,035	0,026
-570,904	51,437	-0,169	-0,117
-569,890	-200,000	-0,028	-0,152
-568,875	-14,168	0,078	0,036
-567,861	149,236	0,112	0,110
-566,846	-81,853	0,096	0,023
-565,831	790,600	0,036	-0,073
-564,817	236,871	0,120	-0,145
-563,802	-2,729	0,028	-0,014
-562,788	-200,000	-0,023	0,000
-561,773	800,000	-0,057	-0,151
-560,758	563,870	-0,028	0,049
-559,744	-200,000	0,011	0,056
-558,729	187,812	-0,039	-0,042
-557,715	39,593	0,039	0,025
-556,700	8,758	-0,112	0,062
-555,685	126,834	-0,020	0,018
-554,671	-180,830	0,061	-0,001
-553,656	-119,187	-0,038	0,005
-552,642	71,679	0,068	0,051
-551,627	223,422	-0,065	0,077
-550,612	-33,192	-0,025	0,010
-549,598	-78,662	-0,146	0,036
-548,583	-20,979	-0,079	-0,035
-547,569	-69,470	0,181	-0,050
-546,554	-200,000	-0,009	0,042
-545,539	-100,260	0,092	-0,016
-544,525	337,916	-0,049	0,070
-543,510	-200,000	-0,042	0,145
-542,496	70,613	0,094	0,071
-541,481	-63,765	-0,082	-0,024
-540,466	184,845	0,073	-0,079
-539,452	-99,277	-0,137	0,025
-538,437	57,197	0,093	0,066
-537,423	132,054	0,060	-0,056
-536,408	92,362	0,111	0,091
-535,393	-200,000	0,016	-0,063
-534,379	-107,141	-0,083	0,013
-533,364	38,310	-0,099	0,064
-532,350	-200,000	0,027	0,095
-531,335	-131,809	0,189	-0,018
-530,321	800,000	-0,024	-0,072
-529,306	-47,380	-0,056	-0,020
-528,291	800,000	0,034	-0,079
-527,277	-200,000	-0,001	-0,092
-526,262	659,337	-0,071	0,134
-525,248	-143,010	-0,024	-0,002
-524,233	-136,797	0,038	-0,003
-523,218	-14,571	0,114	-0,053
-522,204	57,270	-0,147	-0,104
-521,189	-46,653	0,078	0,028
-520,175	-148,766	-0,033	0,002
-519,160	-200,000	0,011	-0,048
-518,145	-200,000	-0,008	0,033
-517,131	-118,734	0,110	0,014
-516,116	135,734	0,066	-0,062
-515,102	473,015	0,068	-0,113
-514,087	22,724	-0,085	-0,050
-513,072	559,518	-0,031	0,054
-512,058	395,508	-0,081	-0,124
-511,043	254,232	0,043	-0,054
-510,029	-79,228	0,111	0,027
-509,014	99,400	0,048	-0,040
-507,999	800,000	-0,035	0,088
-506,985	240,019	-0,037	-0,045
-505,970	-17,524	-0,066	0,030
-504,956	272,532	0,030	-0,039
-503,941	161,827	-0,101	-0,103
-502,926	739,743	-0,081	0,160
-501,912	-77,667	0,061	0,015
-500,897	139,713	0,111	0,107
-499,883	60,306	-0,065	0,047
-498,868	800,000	-0,042	-0,126
-497,853	-200,000	0,011	-0,056
-496,839	-2,053	0,015	0,008
-495,824	43,064	0,078	0,052
-494,810	85,111	0,071	0,056
-493,795	487,472	-0,066	0,110
-492,781	-200,000	0,037	-0,151
-491,766	560,024	-0,039	-0,069
-490,751	-200,000	0,012	-0,106
-489,737	-200,000	-0,026	-0,138
-488,722	314,323	0,057	0,078
-487,708	34,815	0,085	0,054
-486,693	12,488	0,088	0,049
-485,678	-200,000	-0,007	-0,096
-484,664	-200,000	0,014	-0,200
-483,649	-200,000	0,003	0,135
-482,635	-200,000	0,023	0,101
-481,620	314,152	-0,037	-0,052
-480,605	121,161	-0,108	0,098
-479,591	-200,000	0,015	0,080
-478,576	-200,000	-0,012	-0,104
-477,562	25,993	0,070	0,042
-476,547	800,000	-0,060	-0,153
-475,532	-28,329	0,046	0,019
-474,518	-200,000	0,035	0,140
-473,503	800,000	0,059	0,121
-472,489	322,825	-0,094	-0,130
-471,474	-200,000	-0,024	0,082
-470,459	206,608	-0,034	-0,039
-469,445	276,283	-0,038	-0,050
-468,430	-185,319	-0,081	-0,001
-467,416	-200,000	-0,016	0,160
-466,401	149,024	0,014	0,014
-465,386	-26,956	-0,059	0,025
-464,372	47,322	-0,112	-0,076
-463,357	-200,000	-0,001	-0,014
-462,343	53,696	0,062	-0,043
-461,328	613,049	0,043	0,078
-460,313	367,646	0,080	0,118
-459,299	-120,147	-0,048	0,006
-458,284	-200,000	-0,014	-0,068
-457,270	221,074	-0,030	-0,036
-456,255	-11,516	0,014	0,007
-455,241	-192,479	-0,129	0,001
-454,226	800,000	-0,025	-0,075
-453,211	69,828	0,131	-0,098
-452,197	-3,557	0,037	0,019
-451,182	800,000	-0,028	0,071
-450,168	-102,314	0,040	0,007
-449,153	-15,179	-0,028	-0,013
-448,138	-200,000	-0,111	-0,000
-447,124	137,654	-0,073	-0,069
-446,109	226,057	-0,105	-0,124
-445,095	31,519	0,083	-0,052
-444,080	-143,941	-0,101	-0,007
-443,065	66,946	-0,082	-0,060
-442,051	154,700	0,101	-0,101
-441,036	800,000	-0,020	-0,050
-440,022	-73,410	0,046	-0,012
-439,007	800,000	0,022	-0,058
-437,992	-61,472	-0,174	0,053
-436,978	46,400	0,063	0,043
-435,963	-200,000	-0,019	0,145
-434,949	800,000	0,037	0,076
-433,934	-29,958	-0,146	0,060
-432,919	49,940	0,032	0,022
-431,905	800,000	0,025	-0,056
-430,890	-26,279	-0,007	-0,003
-429,876	-200,000	0,035	0,116
-428,861	800,000	-0,044	-0,120
-427,846	-55,044	0,121	-0,039
-426,832	-150,199	-0,080	-0,004
-425,817	-122,230	-0,179	-0,021
-424,803	622,523	-0,028	0,051
-423,788	800,000	-0,020	-0,055
-422,773	-200,000	0,011	-0,035
-421,759	800,000	0,039	0,101
-420,744	7,273	-0,103	-0,056
-419,730	-174,383	-0,096	-0,002
-418,715	-62,512	0,072	-0,022
-417,701	-168,503	0,061	-0,002
-416,686	276,735	0,117	0,151
-415,671	800,000	0,003	0,008
-414,657	800,000	-0,008	-0,019
-413,642	-13,134	0,112	0,053
-412,628	191,043	0,033	-0,036
-411,613	-102,543	0,082	0,014
-410,598	-200,000	-0,028	-0,115
-409,584	-200,000	0,030	-0,157
-408,569	427,658	0,090	-0,142
-407,555	-87,811	-0,163	0,035
-406,540	800,000	0,026	0,057
-405,525	-39,038	0,048	-0,018
-404,511	800,000	-0,037	-0,090
-403,496	800,000	-0,042	-0,096
-402,482	-200,000	0,009	-0,062
-401,467	728,936	-0,031	0,060
-400,452	320,536	-0,098	0,136
-399,438	-166,342	0,050	0,001
-398,423	9,346	0,104	0,057
-397,409	72,031	-0,113	-0,085
-396,394	546,185	-0,017	0,030
-395,379	257,670	-0,009	-0,012
-394,365	800,000	0,017	0,038
-393,350	-200,000	0,014	0,103
-392,336	80,579	-0,034	-0,026
-391,321	-104,699	0,047	-0,008
-390,306	800,000	-0,010	0,030
-389,292	352,696	-0,050	-0,073
-388,277	-108,330	0,065	0,010
-387,263	398,859	0,085	0,129
-386,248	-200,000	-0,001	-0,031
-385,233	551,072	-0,067	-0,116
-384,219	-200,000	0,033	-0,123
-383,204	433,471	-0,051	0,080
-382,190	800,000	0,034	-0,089
-381,175	-200,000	0,024	0,107
-380,160	-28,469	-0,166	-0,069
-379,146	-200,000	-0,007	-0,104
-378,131	-200,000	0,000	0,006
-377,117	28,849	-0,045	-0,028
-376,102	683,165	0,066	-0,126
-375,088	-200,000	-0,008	0,084
-374,073	-80,066	-0,042	0,010
-373,058	418,368	-0,071	-0,110
-372,044	309,496	-0,120	0,163
-371,029	-162,459	-0,034	-0,001
-370,015	800,000	-0,058	-0,123
-369,000	-58,742	0,084	-0,026
-367,985	-31,337	0,133	-0,054
-366,971	-200,000	-0,011	-0,111
-365,956	5,678	0,064	-0,034
-364,942	-9,075	0,162	0,078
-363,927	-99,387	0,110	0,020
-362,912	-200,000	-0,029	0,097
-361,898	-200,000	-0,036	-0,119
-360,883	-200,000	-0,012	-0,092
-359,869	-200,000	0,014	-0,098
-358,854	110,582	-0,040	0,035
-357,839	-7,839	-0,122	0,060
-356,825	158,079	-0,110	0,110
-355,810	-200,000	0,020	-0,085
-354,796	-200,000	-0,012	0,061
-353,781	-200,000	0,020	-0,092
-352,766	-200,000	0,019	-0,079
-351,752	622,342	0,086	0,158
-350,737	-81,720	0,189	-0,045
-349,723	27,576	0,098	0,059
-348,708	108,150	0,061	-0,052
-347,693	-15,635	-0,039	0,018
-346,679	-59,629	-0,127	0,039
-345,664	648,043	0,010	0,018
-344,650	147,198	-0,057	-0,056
-343,635	2,983	0,085	-0,045
-342,620	229,542	0,050	-0,059
-341,606	270,718	0,085	0,108
-340,591	-200,000	0,005	0,133
-339,577	-200,000	-0,010	-0,109
-338,562	549,095	0,044	0,076
-337,548	92,231	0,184	0,150
-336,533	102,543	0,068	0,058
-335,518	25,280	-0,133	0,080
-334,504	800,000	0,059	0,125
-333,489	-22,038	-0,091	0,040
-332,475	16,614	-0,047	0,027
-331,460	-51,946	0,079	0,027
-330,445	268,669	0,070	0,088
-329,431	-200,000	-0,003	-0,114
-328,416	-106,822	0,054	-0,009
-327,402	-200,000	-0,011	0,061
-326,387	10,997	0,076	0,042
-325,372	-64,367	0,008	0,002
-324,358	800,000	-0,005	-0,011
-323,343	-134,553	-0,107	-0,009
-322,329	-179,167	0,180	-0,003
-321,314	333,179	0,025	0,035
-320,299	-200,000	0,129	0,000
-319,285	-117,076	0,093	0,012
-318,270	67,476	-0,071	0,052
-317,256	-16,778	0,013	0,006
-316,241	364,039	0,095	0,138
-315,226	389,260	-0,026	-0,039
-314,212	-128,993	0,081	-0,008
-313,197	277,408	0,081	-0,104
-312,183	180,983	-0,035	-0,038
-311,168	54,514	0,132	-0,092
-310,153	-200,000	-0,003	0,144
-309,139	-200,000	-0,048	0,167
-308,124	489,098	0,028	0,047
-307,110	50,124	0,098	0,067
-306,095	-118,806	0,128	-0,016
-305,080	142,002	0,026	0,025
-304,066	80,806	-0,099	-0,077
-303,051	-200,000	0,011	-0,063
-302,037	110,828	0,094	0,082
-301,022	-200,000	0,000	0,109
-300,008	800,000	0,011	0,031
-298,993	329,687	0,033	0,045
-297,978	800,000	-0,013	0,040
-296,964	657,478	-0,034	0,064
-295,949	-0,748	-0,092	-0,047
-294,935	-200,000	0,007	0,061
-293,920	-148,725	0,086	-0,005
-292,905	-29,092	0,134	-0,055
-291,891	-148,553	-0,086	-0,005
-290,876	800,000	-0,015	0,036
-289,862	-166,032	0,121	0,004
-288,847	130,611	-0,059	-0,055
-287,832	-200,000	0,025	0,082
-286,818	414,010	-0,028	0,043
-285,803	300,489	0,066	0,088
-284,789	483,158	-0,011	0,018
-283,774	800,000	0,015	-0,036
-282,759	-6,843	0,013	-0,006
-281,745	-200,000	0,002	0,137
-280,730	-200,000	-0,017	-0,061
-279,716	-73,312	-0,084	-0,022
-278,701	24,012	0,086	-0,051
-277,686	800,000	-0,058	-0,135
-276,672	800,000	0,052	-0,118
-275,657	154,016	-0,025	-0,025
-274,643	-26,523	-0,119	-0,050
-273,628	-158,490	-0,085	-0,003
-272,613	0,142	-0,116	0,060
-271,599	-106,238	0,115	0,018
-270,584	37,087	0,117	-0,075
-269,570	-64,490	-0,030	-0,009
-268,555	-200,000	-0,048	0,000
-267,540	-6,420	-0,172	-0,084
-266,526	-55,635	0,076	-0,024
-265,511	475,869	-0,084	-0,137
-264,497	509,506	0,054	0,090
-263,482	171,117	-0,050	-0,052
-262,467	-49,666	0,083	0,028
-261,453	-65,796	0,183	-0,052
-260,438	-38,852	0,025	-0,010
-259,424	-200,000	-0,009	-0,079
-258,409	800,000	-0,016	-0,049
-257,395	-32,792	0,091	0,036
-256,380	800,000	0,014	-0,033
-255,365	-200,000	0,029	0,115
-254,351	790,960	-0,074	0,147
-253,336	-200,000	0,000	-0,048
-252,322	-4,278	0,071	0,035
-251,307	-200,000	0,019	0,071
-250,292	-200,000	0,026	0,136
-249,278	173,363	0,114	0,119
-248,263	180,328	0,073	-0,077
-247,249	-78,172	-0,066	0,016
-246,234	60,597	0,105	-0,075
-245,219	57,636	0,082	0,058
-244,205	-14,130	0,039	-0,018
-243,190	-200,000	-0,007	-0,065
-242,176	-146,450	0,228	0,014
-241,161	800,000	-0,020	0,049
-240,146	-200,000	0,033	-0,147
-239,132	800,000	0,064	0,142
-238,117	800,000	-0,017	-0,051
-237,103	-37,620	-0,116	-0,044
-236,088	-172,153	0,080	0,002
-235,073	611,123	0,009	0,017
-234,059	28,223	-0,077	-0,047
-233,044	438,552	0,056	0,088
-232,030	800,000	-0,041	0,085
-231,015	800,000	-0,016	-0,041
-230,000	800,000	-0,022	0,054
-228,986	587,539	-0,047	-0,084
-227,971	-71,513	0,073	-0,019
-226,957	800,000	0,070	-0,143
-225,942	-138,983	0,093	-0,007
-224,927	-200,000	0,005	0,067
-223,913	800,000	-0,004	-0,010
-222,898	-200,000	-0,012	-0,048
-221,884	-200,000	-0,005	-0,052
-220,869	267,990	-0,017	0,021
-219,855	135,956	-0,116	0,109
-218,840	-200,000	0,032	-0,145
-217,825	247,886	-0,104	-0,127
-216,811	270,802	0,054	-0,068
-215,796	-103,803	0,036	0,006
-214,782	76,239	-0,061	-0,047
-213,767	9,805	-0,039	0,021
-212,752	800,000	0,055	0,121
-211,738	-200,000	0,015	0,083
-210,723	46,757	-0,170	-0,113
-209,709	36,137	-0,023	-0,014
-208,694	628,161	0,048	-0,089
-207,679	-200,000	0,023	-0,172
-206,665	30,672	0,133	0,082
-205,650	25,693	-0,084	-0,051
-204,636	-200,000	-0,014	0,058
-203,621	-200,000	-0,040	0,273
-202,606	326,542	0,048	0,066
-201,592	37,802	0,057	-0,036
-200,577	-28,556	-0,100	-0,041
-199,563	294,608	0,042	-0,056
-198,548	-200,000	0,017	0,065
-197,533	-92,652	-0,039	0,008
-196,519	205,379	0,051	-0,057
-195,504	-3,839	-0,126	0,063
-194,490	-200,000	-0,030	-0,164
-193,475	-72,693	-0,045	0,012
-192,460	6,683	-0,075	0,040
-191,446	214,261	-0,082	0,094
-190,431	20,357	0,120	0,070
-189,417	14,920	-0,105	-0,059
-188,402	36,007	0,069	0,044
-187,387	55,206	0,120	-0,083
-186,373	-15,961	-0,258	-0,118
-185,358	247,848	0,185	-0,225
-184,344	110,688	0,124	0,108
-183,329	-103,944	-0,070	-0,012
-182,315	-200,000	0,027	0,145
-181,300	-77,088	-0,021	-0,005
-180,285	145,818	0,056	0,054
-179,271	800,000	0,017	-0,038
-178,256	-200,000	0,022	-0,175
-177,242	-117,704	-0,079	0,010
-176,227	36,362	0,072	-0,045
-175,212	800,000	0,001	0,002
-174,198	415,444	-0,039	0,059
-173,183	83,035	-0,150	0,118
-172,169	52,687	-0,046	-0,031
-171,154	800,000	-0,034	-0,080
-170,139	132,855	0,027	0,025
-169,125	-200,000	-0,005	0,099
-168,110	35,977	0,043	0,027
-167,096	-200,000	0,010	0,182
-166,081	-92,663	-0,065	0,013
-165,066	87,411	-0,042	-0,034
-164,052	440,032	0,025	0,039
-163,037	-200,000	0,007	0,039
-162,023	232,646	0,085	0,100
-161,008	-200,000	0,006	0,078
-159,993	29,589	-0,098	-0,060
-158,979	-54,442	-0,144	0,047
-157,964	-125,750	-0,032	-0,003
-156,950	385,068	0,019	0,028
-155,935	-8,097	0,101	0,049
-154,920	682,555	-0,026	-0,049
-153,906	87,751	-0,022	-0,017
-152,891	-167,432	-0,111	-0,003
-151,877	17,767	0,078	-0,044
-150,862	-21,240	-0,111	-0,049
-149,847	767,546	-0,087	0,172
-148,833	-200,000	0,000	-0,073
-147,818	220,499	0,094	0,108
-146,804	-146,818	0,076	0,005
-145,789	-7,580	-0,061	-0,030
-144,775	171,825	0,079	-0,081
-143,760	800,000	0,026	-0,069
-142,745	800,000	0,040	-0,090
-141,731	581,280	-0,044	0,078
-140,716	264,886	-0,058	-0,072
-139,702	15,707	0,071	-0,040
-138,687	729,751	0,034	0,066
-137,672	800,000	-0,027	0,083
-136,658	159,606	-0,090	0,090
-135,643	-96,283	-0,154	0,029
-134,629	-192,576	-0,186	-0,001
-133,614	59,152	0,125	-0,089
-132,599	-200,000	-0,080	0,000
-131,585	286,201	0,065	-0,085
-130,570	127,921	0,045	0,041
-129,556	-81,044	-0,098	-0,023
-128,541	-25,662	-0,053	-0,022
-127,526	800,000	-0,078	-0,161
-126,512	8,309	0,172	-0,093
-125,497	-69,436	0,128	-0,035
-124,483	-18,270	-0,057	-0,026
-123,468	-200,000	0,012	-0,071
-122,453	-200,000	-0,003	-0,036
-121,439	-200,000	0,024	-0,089
-120,424	-200,000	-0,017	-0,094
-119,410	-200,000	-0,040	0,157
-118,395	-144,631	0,129	0,008
-117,380	-103,678	0,068	0,011
-116,366	-200,000	0,004	-0,041
-115,351	800,000	0,042	-0,123
-114,337	30,835	-0,135	-0,083
-113,322	-72,019	0,126	0,033
-112,307	-200,000	0,037	0,150
-111,293	-200,000	0,053	0,189
-110,278	-200,000	-0,048	-0,158
-109,264	92,561	0,099	0,080
-108,249	94,305	-0,047	0,039
-107,234	-61,318	-0,036	0,011
-106,220	74,880	0,051	0,038
-105,205	-87,051	0,040	0,009
-104,191	800,000	0,009	0,022
-103,176	52,069	0,097	0,066
-102,162	-200,000	-0,028	0,110
-101,147	800,000	-0,025	0,058
-100,132	472,575	-0,122	-0,198
-99,118	-200,000	0,005	-0,063
-98,103	-200,000	-0,004	0,157
-97,089	424,673	-0,057	0,089
-96,074	310,839	-0,020	0,028
-95,059	534,739	0,021	0,036
-94,045	131,158	-0,049	-0,046
-93,030	-106,289	-0,088	-0,014
-92,016	-132,372	0,235	0,021
-91,001	491,344	-0,029	-0,047
-89,986	-87,113	-0,097	-0,021
-88,972	154,454	0,123	0,121
-87,957	-200,000	-0,010	0,098
-86,943	-22,422	-0,055	0,024
-85,928	800,000	-0,043	-0,133
-84,913	-77,713	-0,058	-0,014
-83,899	-200,000	-0,018	0,060
-82,884	-200,000	-0,023	0,139
-81,870	-75,578	0,106	0,027
-80,855	800,000	-0,073	0,212
-79,840	-117,265	-0,018	0,002
-78,826	134,585	0,083	-0,077
-77,811	-200,000	0,010	0,128
-76,797	-200,000	-0,012	0,055
-75,782	236,669	0,067	0,080
-74,767	56,332	0,086	0,060
-73,753	27,586	0,026	0,016
-72,738	-200,000	0,014	0,053
-71,724	690,448	0,007	0,014
-70,709	800,000	-0,051	-0,162
-69,694	663,752	0,063	0,117
-68,680	74,816	0,068	-0,051
-67,665	800,000	-0,023	0,070
-66,651	-200,000	-0,022	-0,086
-65,636	517,038	-0,016	0,027
-64,622	23,815	-0,100	0,059
-63,607	800,000	-0,044	-0,090
-62,592	578,377	-0,077	-0,135
-61,578	-97,270	0,077	-0,014
-60,563	49,101	-0,049	-0,033
-59,549	800,000	0,032	0,068
-58,534	18,287	-2,186	-1,247
-57,519	-200,000	0,088	-0,757
-56,505	-200,000	-1,403	-5,123
-55,490	132,216	0,855	0,789
-54,476	800,000	5,345	12,135
-53,461	-200,000	18,612	307,096
-52,446	800,000	738,166	2280,339
-51,432	538,939	1651,194	2822,949
-50,417	108,565	1635,940	1398,503
-49,403	72,044	1286,766	957,833
-48,388	29,812	1027,796	625,364
-47,373	19,746	990,426	569,427
-46,359	17,383	977,958	554,496
-45,344	14,065	974,104	541,436
-44,330	14,432	972,524	541,735
-43,315	13,762	970,540	538,423
-42,300	13,678	969,756	537,693
-41,286	13,631	968,915	537,051
-40,271	13,661	968,055	536,652
-39,257	13,707	966,958	536,170
-38,242	13,646	966,353	535,617
-37,227	13,749	965,211	535,296
-36,213	13,809	964,317	534,975
-35,198	13,669	963,611	534,107
-34,184	13,763	962,752	533,914
-33,169	13,676	961,783	533,074
-32,154	13,793	960,681	532,818
-31,140	13,773	959,964	532,338
-30,125	13,679	959,609	531,815
-29,111	13,686	958,463	531,182
-28,096	13,734	957,849	530,974
-27,082	13,656	957,364	530,434
-26,067	13,680	956,564	530,047
-25,052	13,698	955,706	529,606
-24,038	13,737	955,037	529,340
-23,023	13,718	954,255	528,827
-22,009	13,709	953,872	528,564
-20,994	13,760	952,901	528,168
-19,979	13,682	952,486	527,666
-18,965	13,732	951,836	527,447
-17,950	13,697	951,368	527,053
-16,936	13,693	950,586	526,588
-15,921	13,703	949,732	526,125
-14,906	13,579	949,329	525,485
-13,892	13,609	948,499	525,102
-12,877	13,576	947,980	524,688
-11,863	13,593	947,183	524,280
-10,848	13,619	946,623	524,031
-9,833	13,740	946,148	524,133
-8,819	13,738	945,447	523,718
-7,804	13,640	945,123	523,205
-6,790	13,612	944,320	522,651
-5,775	13,660	943,687	522,433
-4,760	13,630	943,297	522,102
-3,746	13,672	942,583	521,818
-2,731	13,522	941,920	520,955
-1,717	13,489	941,042	520,344
-0,702	13,496	940,415	519,998
0,313	13,207	939,919	519,596
1,327	16,617	937,872	529,164
2,342	25,755	789,167	469,299
3,356	21,935	443,851	258,280
4,371	-7,460	296,639	143,140
5,386	-11,157	278,466	130,843
6,400	-12,698	272,580	126,630
7,415	-12,611	270,391	125,682
8,429	-12,700	268,896	124,894
9,444	-12,931	268,027	124,268
10,459	-12,627	267,405	124,246
11,473	-13,007	266,764	123,591
12,488	-12,964	266,062	123,294
13,502	-13,232	265,488	122,774
14,517	-13,400	265,404	122,572
15,531	-13,058	264,776	122,580
16,546	-12,913	264,496	122,570
17,561	-12,878	264,119	122,417
18,575	-12,889	263,779	122,238
19,590	-13,162	263,344	121,781
20,604	-12,959	263,121	121,849
21,619	-13,080	262,701	121,535
22,634	-13,052	262,377	121,399
23,648	-13,198	262,087	121,124
24,663	-13,086	261,814	121,087
25,677	-13,148	261,508	120,879
26,692	-13,196	261,283	120,722
27,707	-13,113	261,010	120,658
28,721	-13,255	260,714	120,385
29,736	-13,012	260,309	120,402
30,750	-13,055	260,235	120,319
31,765	-13,067	259,858	120,124
32,780	-13,162	259,721	119,965
33,794	-13,275	259,518	119,761
34,809	-13,149	259,233	119,730
35,823	-13,167	258,812	119,509
36,838	-13,244	258,596	119,331
37,853	-13,233	258,394	119,237
38,867	-13,308	258,282	119,108
39,882	-13,251	257,995	119,016
40,896	-13,134	257,932	119,079
41,911	-13,134	257,462	118,851
42,926	-13,034	257,197	118,806
43,940	-13,130	257,058	118,647
44,955	-13,278	256,738	118,359
45,969	-13,396	256,648	118,204
46,984	-13,468	256,396	118,015
47,999	-13,653	256,123	117,717
49,013	-13,765	255,917	117,514
50,028	-13,982	255,575	117,158
51,042	-13,977	255,101	116,934
52,057	-13,892	255,060	116,979
53,071	-13,780	254,759	116,928
54,086	-13,731	254,747	116,954
55,101	-13,640	254,512	116,915
56,115	-13,549	254,306	116,888
57,130	-13,209	254,308	117,174
58,144	-13,039	254,183	117,252
59,159	-13,014	253,877	117,122
60,174	-13,225	253,768	116,879
61,188	-13,144	253,493	116,812
62,203	-13,063	253,213	116,742
63,217	-13,063	253,141	116,699
64,232	-13,055	252,717	116,500
65,247	-12,991	252,692	116,533
66,261	-13,090	252,422	116,313
67,276	-13,128	252,065	116,105
68,290	-13,299	251,876	115,862
69,305	-13,464	251,566	115,568
70,320	-13,449	251,382	115,486
71,334	-13,266	251,142	115,522
72,349	-12,925	250,962	115,719
73,363	-12,885	250,922	115,725
74,378	-12,966	250,660	115,524
75,393	-13,030	250,396	115,338
76,407	-13,048	250,178	115,212
77,422	-12,977	249,971	115,166
78,436	-13,044	249,781	115,012
79,451	-13,088	249,762	114,956
80,466	-13,132	249,306	114,698
81,480	-13,324	249,174	114,465
82,495	-13,339	248,779	114,261
83,509	-13,354	248,818	114,255
84,524	-13,310	248,536	114,153
85,539	-13,310	248,301	114,035
86,553	-13,447	248,033	113,786
87,568	-13,187	247,877	113,924
88,582	-13,315	247,738	113,742
89,597	-13,361	247,505	113,585
90,611	-13,135	247,332	113,686
91,626	-12,990	247,190	113,732
92,641	-13,095	247,016	113,554
93,655	-13,059	246,724	113,440
94,670	-13,168	246,399	113,190
95,684	-13,362	246,526	113,076
96,699	-13,355	246,209	112,925
97,714	-13,150	246,105	113,039
98,728	-13,270	245,805	112,791
99,743	-13,366	245,608	112,611
100,757	-13,474	245,371	112,402
101,772	-13,329	245,135	112,405
102,787	-13,234	244,870	112,352
103,801	-13,262	245,025	112,390
104,816	-13,318	244,723	112,195
105,830	-13,011	244,567	112,368
106,845	-13,055	244,416	112,252
107,860	-12,988	244,132	112,167
108,874	-13,361	243,956	111,768
109,889	-13,132	243,854	111,900
110,903	-13,322	243,549	111,593
111,918	-13,296	243,344	111,511
112,933	-13,180	243,228	111,543
113,947	-13,021	242,884	111,506
114,962	-13,098	242,834	111,410
115,976	-13,082	242,673	111,339
116,991	-13,050	242,437	111,248
118,006	-13,121	242,236	111,087
119,020	-13,155	242,146	111,008
120,035	-13,041	242,048	111,047
121,049	-13,081	241,833	110,905
122,064	-13,150	241,677	110,767
123,079	-12,889	241,364	110,827
124,093	-13,222	241,278	110,507
125,108	-13,441	241,069	110,222
126,122	-13,372	240,803	110,146
127,137	-13,689	240,634	109,802
128,151	-13,560	240,533	109,850
129,166	-13,494	240,403	109,835
130,181	-13,400	240,129	109,776
131,195	-13,421	239,844	109,619
132,210	-13,144	239,719	109,777
133,224	-13,086	239,620	109,769
134,239	-13,195	239,457	109,596
135,254	-13,018	239,316	109,665
136,268	-13,189	239,071	109,405
137,283	-13,595	238,717	108,905
138,297	-13,598	238,535	108,811
139,312	-13,636	238,385	108,702
140,327	-13,373	238,294	108,862
141,341	-12,997	238,302	109,159
142,356	-12,849	238,128	109,189
143,370	-12,844	237,913	109,084
144,385	-12,710	237,693	109,082
145,400	-12,874	237,628	108,910
146,414	-12,833	237,347	108,804
147,429	-12,865	237,155	108,681
148,443	-13,058	237,086	108,485
149,458	-12,883	236,768	108,470
150,473	-12,955	236,512	108,285
151,487	-12,899	236,457	108,296
152,502	-12,837	236,351	108,286
153,516	-12,822	236,242	108,239
154,531	-12,812	235,981	108,118
155,546	-12,777	235,793	108,050
156,560	-13,095	235,609	107,703
157,575	-13,029	235,278	107,595
158,589	-13,044	235,337	107,600
159,604	-12,958	235,246	107,617
160,619	-12,847	234,882	107,529
161,633	-12,703	234,704	107,552
162,648	-12,810	234,821	107,511
163,662	-12,853	234,402	107,276
164,677	-12,930	234,388	107,199
165,692	-12,768	234,135	107,202
166,706	-12,711	233,920	107,138
167,721	-12,693	233,837	107,105
168,735	-12,637	233,856	107,148
169,750	-12,720	233,620	106,965
170,764	-12,775	233,391	106,808
171,779	-12,826	233,216	106,678
172,794	-12,634	233,112	106,772
173,808	-12,804	232,834	106,501
174,823	-13,464	232,633	105,883
175,837	-13,514	232,474	105,761
176,852	-12,978	232,461	106,166
177,867	-12,834	232,245	106,170
178,881	-12,976	232,114	105,990
179,896	-12,806	232,033	106,077
180,910	-12,838	231,840	105,954
181,925	-12,757	231,583	105,890
182,940	-12,535	231,279	105,915
183,954	-12,777	231,381	105,763
184,969	-12,643	231,317	105,829
185,983	-12,672	231,038	105,669
186,998	-12,709	230,979	105,604
188,013	-12,614	230,724	105,552
189,027	-12,777	230,731	105,419
190,042	-12,932	230,423	105,149
191,056	-12,833	230,280	105,151
192,071	-12,830	229,956	104,996
193,086	-12,789	229,901	104,993
194,100	-12,745	229,820	104,981
195,115	-13,200	229,287	104,377
196,129	-13,434	229,368	104,224
197,144	-7,711	231,206	109,495
198,159	-1,903	232,959	114,848
199,173	2,069	233,766	118,338
200,188	2,320	234,075	118,680
201,202	2,202	233,825	118,450
202,217	2,249	233,600	118,362
203,232	2,445	233,501	118,454
204,246	2,665	233,297	118,511
205,261	2,573	233,196	118,377
206,275	2,676	233,180	118,439
207,290	3,005	232,954	118,569
208,304	2,957	232,628	118,355
209,319	2,568	232,561	118,010
210,334	2,520	232,427	117,893
211,348	2,483	232,199	117,739
212,363	2,152	231,873	117,307
213,377	2,058	231,824	117,199
214,392	2,055	231,614	117,081
215,407	2,031	231,618	117,053
216,421	2,017	231,523	116,985
217,436	1,931	231,322	116,806
218,450	1,638	231,052	116,433
219,465	1,724	230,882	116,404
220,480	1,871	230,549	116,338
221,494	1,850	230,582	116,329
222,509	2,113	230,474	116,465
223,523	2,132	230,404	116,434
224,538	2,018	229,999	116,132
225,553	2,040	229,976	116,127
226,567	2,156	229,705	116,068
227,582	2,227	229,869	116,196
228,596	2,376	229,665	116,195
229,611	2,151	229,299	115,828
230,626	1,922	229,198	115,593
231,640	1,862	229,036	115,455
232,655	2,156	229,102	115,702
233,669	2,456	228,972	115,854
234,684	2,543	228,653	115,748
235,699	2,233	228,585	115,468
236,713	2,320	228,321	115,391
237,728	1,959	228,114	115,002
238,742	1,928	227,949	114,885
239,757	2,113	227,775	114,927
240,772	1,969	227,720	114,780
241,786	2,004	227,546	114,708
242,801	2,072	227,562	114,758
243,815	2,336	227,443	114,887
244,830	2,631	227,346	115,051
245,844	1,876	227,036	114,314
246,859	1,738	226,908	114,135
247,874	2,347	226,670	114,464
248,888	2,524	226,505	114,504
249,903	2,215	226,576	114,297
250,917	2,230	226,275	114,146
251,932	2,177	226,148	114,032
252,947	1,932	225,837	113,682
253,961	1,742	225,820	113,520
254,976	2,173	225,580	113,713
255,990	2,259	225,579	113,766
257,005	2,393	225,464	113,798
258,020	2,199	225,387	113,604
259,034	2,336	225,126	113,565
260,049	2,297	225,079	113,502
261,063	2,197	224,937	113,346
262,078	2,650	224,802	113,605
263,093	2,617	224,661	113,499
264,107	2,175	224,604	113,131
265,122	2,502	224,269	113,196
266,136	2,346	224,268	113,069
267,151	2,552	224,076	113,115
268,166	2,107	223,818	112,645
269,180	2,010	223,442	112,373
270,195	2,005	223,417	112,347
271,209	2,104	223,306	112,354
272,224	2,203	223,163	112,346
273,239	2,093	223,063	112,204
274,253	1,983	223,008	112,085
275,268	1,928	222,692	111,876
276,282	1,873	222,602	111,780
277,297	1,713	222,472	111,586
278,312	2,075	222,290	111,752
279,326	2,123	222,249	111,756
280,341	2,147	222,111	111,695
281,355	2,279	221,945	111,699
282,370	2,007	221,842	111,437
283,384	1,890	221,647	111,243
284,399	1,802	221,493	111,092
285,414	1,755	221,282	110,942
286,428	2,119	221,301	111,208
287,443	2,110	221,212	111,146
288,457	2,292	220,955	111,141
289,472	2,022	220,662	110,786
290,487	1,692	220,330	110,369
291,501	1,697	220,334	110,364
292,516	1,912	220,299	110,493
293,530	1,718	220,143	110,264
294,545	1,913	219,929	110,290
295,560	2,073	219,922	110,393
296,574	2,067	219,720	110,276
297,589	2,127	219,595	110,247
298,603	2,302	219,387	110,261
299,618	2,242	219,427	110,227
300,633	2,407	219,269	110,258
301,647	2,141	219,311	110,076
302,662	2,317	219,049	110,063
303,676	2,295	218,851	109,937
304,691	2,243	218,894	109,911
305,706	2,129	218,624	109,684
306,720	2,603	218,355	109,881
307,735	2,366	218,089	109,567
308,749	2,067	218,016	109,305
309,764	2,214	218,084	109,435
310,779	2,392	217,913	109,467
311,793	2,340	217,740	109,333
312,808	2,313	217,568	109,218
313,822	2,303	217,353	109,093
314,837	2,212	217,303	108,993
315,852	2,163	217,130	108,861
316,866	1,973	217,084	108,692
317,881	2,239	216,963	108,812
318,895	2,238	216,767	108,703
319,910	1,821	216,586	108,305
320,925	1,691	216,377	108,098
321,939	1,637	216,109	107,916
322,954	1,599	216,191	107,921
323,968	1,980	216,071	108,122
324,983	2,471	215,782	108,318
325,997	2,589	215,905	108,453
327,012	2,547	215,854	108,389
328,027	2,296	215,620	108,083
329,041	2,454	215,704	108,227
330,056	2,671	215,334	108,187
331,070	2,175	215,064	107,690
332,085	1,841	214,893	107,358
333,100	2,226	214,711	107,530
334,114	2,386	214,786	107,671
335,129	2,349	214,503	107,493
336,143	2,036	214,342	107,182
337,158	2,180	214,217	107,211
338,173	1,931	214,080	106,958
339,187	1,873	213,863	106,799
340,202	1,805	213,668	106,644
341,216	1,731	213,878	106,687
342,231	2,263	213,703	106,965
343,246	2,227	213,538	106,847
344,260	2,308	213,408	106,830
345,275	2,449	213,282	106,857
346,289	2,427	213,045	106,713
347,304	2,346	213,035	106,641
348,319	2,058	212,721	106,273
349,333	2,209	212,713	106,365
350,348	2,290	212,480	106,296
351,362	2,301	212,489	106,298
352,377	2,140	212,558	106,211
353,392	2,316	212,124	106,108
354,406	2,051	212,052	105,877
355,421	196,403	1315,474	1391,454
356,435	157,063	1449,847	1391,395
