DTS Sentinel unit serial number:	SN410029Multiplexer serial number:	ORYXHardware model number:	OX2-SRSoftware version number:	ORYX F/W v4,00 Oryx Data Collector v3.7.2.0data status	okinstallation	B6 Nyhavnadifferential loss correction	single-endedforward channel	channel 2reverse channel	N/Adate	2023/12/10time	10:15:08forward acquisition time	300,00reverse acquisition time	0,00gamma	499,1914k internal	0,3123k external	0,3123temperature offset calibration	1,0000default loss term (dB/km)	0,3820temperature slope calibration	1,0000multiplexer offset coefficient	1,0000multiplexer slope coefficient	1,0000fibre end	0,00T internal ref (°C)	22,56T ext. ref 1 (°C)	6,39T ext. ref 2 (°C)	6,39length (m)	temperature (°C)	Stokes	anti-Stokes-744,400	800,000	-0,029	-0,082
-743,385	800,000	-0,093	0,211
-742,371	-127,493	0,095	0,010
-741,356	20,155	-0,248	0,149
-740,342	-200,000	0,011	-0,039
-739,327	20,799	-0,293	0,176
-738,312	-200,000	-0,013	-0,061
-737,298	-43,623	-0,172	-0,064
-736,283	19,129	-0,089	0,053
-735,269	-47,498	-0,233	0,084
-734,254	800,000	0,017	-0,050
-733,239	-177,553	-0,503	0,009
-732,225	197,399	0,056	-0,064
-731,210	19,465	-0,013	0,008
-730,196	-105,011	-0,099	-0,017
-729,181	62,464	0,044	-0,033
-728,167	-83,576	0,137	-0,032
-727,152	-200,000	-0,035	0,118
-726,137	-200,000	-0,006	0,063
-725,123	-31,157	-0,135	-0,056
-724,108	800,000	0,032	-0,094
-723,094	800,000	-0,095	-0,198
-722,079	-125,655	-0,143	-0,016
-721,064	800,000	0,052	-0,171
-720,050	77,035	0,102	0,080
-719,035	284,376	0,060	0,080
-718,021	800,000	0,042	0,099
-717,006	99,613	0,031	-0,026
-715,991	-77,037	-0,031	0,008
-714,977	380,124	0,035	0,054
-713,962	180,317	-0,058	0,063
-712,948	-115,536	0,084	0,012
-711,933	-108,510	-0,016	-0,003
-710,918	-200,000	0,015	0,054
-709,904	319,216	0,030	0,043
-708,889	-13,007	0,043	-0,021
-707,875	40,752	-0,077	-0,052
-706,860	92,452	-0,106	-0,089
-705,845	-19,300	-0,097	0,045
-704,831	-118,485	-0,092	0,012
-703,816	-200,000	0,013	-0,112
-702,802	313,330	-0,022	0,030
-701,787	65,673	-0,159	-0,120
-700,772	-200,000	0,022	-0,234
-699,758	-86,499	0,114	-0,026
-698,743	48,301	0,084	0,058
-697,729	-160,451	0,013	-0,000
-696,714	-102,240	0,128	-0,023
-695,699	297,050	-0,104	-0,143
-694,685	800,000	-0,077	-0,160
-693,670	-72,637	-0,074	-0,020
-692,656	800,000	0,059	-0,188
-691,641	218,856	0,090	-0,107
-690,627	-200,000	0,024	0,117
-689,612	448,279	-0,044	-0,073
-688,597	-200,000	-0,012	0,152
-687,583	-164,523	-0,073	0,002
-686,568	-94,168	-0,137	-0,028
-685,554	447,266	-0,075	-0,123
-684,539	-170,869	-0,059	0,001
-683,524	-89,286	0,152	-0,033
-682,510	-86,459	-0,100	-0,023
-681,495	85,047	-0,248	0,202
-680,481	-200,000	0,009	-0,175
-679,466	-200,000	0,041	-0,179
-678,451	280,395	0,031	-0,041
-677,437	111,333	-0,023	-0,021
-676,422	-111,941	0,139	0,021
-675,408	-200,000	0,034	-0,158
-674,393	366,792	0,041	-0,062
-673,378	800,000	-0,009	0,020
-672,364	-200,000	0,026	-0,254
-671,349	-90,547	0,031	0,007
-670,335	-13,922	-0,088	0,042
-669,320	-200,000	-0,003	-0,046
-668,305	97,535	-0,050	0,043
-667,291	-52,916	-0,027	-0,009
-666,276	-10,450	-0,057	-0,028
-665,262	-135,402	0,075	0,007
-664,247	800,000	-0,031	-0,093
-663,232	75,722	-0,061	-0,048
-662,218	-148,157	0,109	-0,007
-661,203	367,756	0,016	0,024
-660,189	-88,320	-0,088	-0,019
-659,174	-200,000	-0,014	0,115
-658,159	47,504	0,010	0,007
-657,145	-200,000	0,002	0,029
-656,130	-160,973	-0,033	0,001
-655,116	-16,850	0,138	-0,065
-654,101	-200,000	-0,024	0,088
-653,086	246,882	-0,046	-0,057
-652,072	-115,352	-0,230	0,032
-651,057	222,935	-0,043	-0,052
-650,043	-200,000	-0,020	0,068
-649,028	-69,521	0,044	-0,012
-648,014	-101,619	-0,151	-0,027
-646,999	-200,000	0,011	-0,066
-645,984	-200,000	0,018	0,112
-644,970	-9,987	0,035	-0,017
-643,955	-184,025	-0,113	0,001
-642,941	-99,599	-0,114	-0,021
-641,926	-105,327	0,141	-0,024
-640,911	800,000	0,036	0,076
-639,897	620,451	0,099	0,186
-638,882	-112,548	0,097	0,014
-637,868	371,670	-0,017	-0,025
-636,853	800,000	-0,029	-0,069
-635,838	-112,423	-0,076	0,011
-634,824	228,429	-0,061	0,073
-633,809	35,346	-0,055	0,036
-632,795	147,271	-0,068	0,068
-631,780	9,127	-0,158	-0,088
-630,765	-96,667	-0,104	0,020
-629,751	-200,000	0,009	-0,071
-628,736	-200,000	-0,001	-0,041
-627,722	800,000	-0,038	-0,096
-626,707	-26,889	-0,098	0,042
-625,692	299,580	0,045	-0,061
-624,678	-137,473	-0,084	-0,007
-623,663	359,074	-0,042	0,062
-622,649	207,096	-0,154	-0,179
-621,634	-27,754	0,110	-0,047
-620,619	-37,280	0,063	0,025
-619,605	-146,738	0,215	0,014
-618,590	-9,415	0,094	-0,046
-617,576	50,291	-0,033	0,023
-616,561	-63,078	0,180	-0,055
-615,546	-66,244	-0,137	-0,040
-614,532	104,453	-0,079	0,069
-613,517	-200,000	0,025	-0,175
-612,503	-128,902	0,015	0,002
-611,488	189,977	0,081	0,090
-610,474	-200,000	0,030	0,113
-609,459	-44,242	0,036	-0,013
-608,444	705,473	-0,002	-0,004
-607,430	7,914	-0,109	-0,060
-606,415	-111,870	-0,094	0,014
-605,401	-100,155	-0,104	0,019
-604,386	-161,930	0,174	0,006
-603,371	800,000	-0,015	0,037
-602,357	60,685	-0,012	0,009
-601,342	116,424	0,062	-0,056
-600,328	-150,712	-0,201	0,011
-599,313	-62,789	0,068	-0,021
-598,298	270,422	-0,059	-0,077
-597,284	84,097	0,035	-0,028
-596,269	145,947	0,016	-0,016
-595,255	-200,000	-0,009	0,156
-594,240	-126,029	-0,123	0,014
-593,225	-73,636	-0,077	-0,021
-592,211	-200,000	0,035	-0,139
-591,196	-200,000	0,028	-0,123
-590,182	-155,445	0,036	-0,002
-589,167	-200,000	-0,005	0,106
-588,152	484,160	0,043	-0,073
-587,138	-200,000	-0,022	0,078
-586,123	103,430	0,151	-0,131
-585,109	789,630	-0,047	-0,096
-584,094	-92,232	-0,078	-0,016
-583,079	137,431	-0,067	0,065
-582,065	-147,773	-0,095	-0,006
-581,050	-58,144	0,080	-0,026
-580,036	-106,436	0,011	0,002
-579,021	-200,000	-0,000	0,062
-578,006	429,171	-0,016	-0,025
-576,992	800,000	-0,049	0,130
-575,977	568,877	-0,018	-0,032
-574,963	156,882	0,049	0,050
-573,948	185,359	0,068	0,074
-572,934	-200,000	0,009	-0,098
-571,919	38,358	-0,101	0,066
-570,904	308,132	0,043	0,059
-569,890	738,424	0,033	-0,066
-568,875	-45,675	0,075	-0,027
-567,861	381,453	0,015	-0,023
-566,846	-137,276	0,151	0,012
-565,831	48,251	0,076	-0,053
-564,817	-200,000	-0,005	-0,018
-563,802	-75,651	-0,047	0,012
-562,788	-200,000	0,029	-0,104
-561,773	-200,000	-0,006	0,055
-560,758	-45,438	0,096	0,035
-559,744	-200,000	-0,023	0,125
-558,729	-71,365	0,128	-0,035
-557,715	-200,000	-0,017	0,148
-556,700	-40,723	-0,042	-0,016
-555,685	-200,000	-0,007	0,047
-554,671	-200,000	0,001	0,120
-553,656	-32,668	-0,040	-0,017
-552,642	-200,000	0,013	0,065
-551,627	-38,207	0,077	0,030
-550,612	207,177	-0,066	-0,076
-549,598	-200,000	-0,018	-0,066
-548,583	-99,976	0,100	-0,018
-547,569	433,102	-0,057	0,092
-546,554	800,000	0,007	0,023
-545,539	540,152	0,026	-0,046
-544,525	84,561	-0,050	-0,041
-543,510	-8,452	0,086	-0,043
-542,496	-200,000	-0,019	-0,240
-541,481	-200,000	0,001	-0,028
-540,466	187,567	-0,068	-0,075
-539,452	-200,000	0,010	0,101
-538,437	150,156	0,043	-0,043
-537,423	-200,000	-0,010	-0,036
-536,408	81,600	0,042	-0,034
-535,393	-110,311	-0,034	0,005
-534,379	800,000	-0,059	-0,121
-533,364	-200,000	-0,027	0,112
-532,350	6,266	0,084	0,046
-531,335	103,143	0,139	0,120
-530,321	91,738	-0,024	-0,020
-529,306	4,982	0,133	0,072
-528,291	-200,000	0,017	-0,093
-527,277	9,438	-0,020	0,011
-526,262	-200,000	-0,002	-0,067
-525,248	-135,307	0,044	-0,004
-524,233	-200,000	0,028	-0,134
-523,218	190,173	0,067	-0,075
-522,204	326,903	0,014	-0,020
-521,189	40,591	-0,047	-0,031
-520,175	127,533	0,039	0,036
-519,160	-1,922	-0,098	-0,051
-518,145	660,837	0,038	0,072
-517,131	549,516	0,031	-0,055
-516,116	261,267	0,038	0,048
-515,102	599,022	-0,051	-0,093
-514,087	95,965	0,021	0,017
-513,072	92,770	0,071	0,060
-512,058	-176,995	-0,177	0,003
-511,043	-200,000	-0,014	0,066
-510,029	-92,486	0,122	0,025
-509,014	85,956	-0,075	0,061
-507,999	-200,000	0,016	-0,058
-506,985	95,646	0,052	-0,044
-505,970	-115,062	-0,130	-0,018
-504,956	-57,668	-0,050	0,016
-503,941	-200,000	-0,004	-0,040
-502,926	58,438	0,109	0,079
-501,912	-200,000	-0,018	0,090
-500,897	800,000	-0,043	-0,092
-499,883	163,096	0,050	-0,052
-498,868	-44,663	0,050	0,019
-497,853	800,000	-0,060	-0,123
-496,839	-93,972	-0,087	-0,017
-495,824	-167,584	-0,080	-0,002
-494,810	90,931	0,041	0,034
-493,795	-8,040	0,017	0,008
-492,781	-200,000	-0,001	-0,068
-491,766	-200,000	0,032	-0,132
-490,751	-92,222	0,028	-0,006
-489,737	800,000	-0,008	0,019
-488,722	-59,187	0,155	0,049
-487,708	50,405	0,057	0,040
-486,693	800,000	-0,058	-0,168
-485,678	800,000	-0,020	0,042
-484,664	800,000	-0,036	0,114
-483,649	647,350	-0,050	0,095
-482,635	93,319	-0,088	0,074
-481,620	-5,422	0,184	0,093
-480,605	78,568	0,090	-0,071
-479,591	13,881	-0,099	-0,057
-478,576	-29,253	-0,169	0,071
-477,562	-50,993	-0,047	-0,016
-476,547	-19,449	0,095	0,043
-475,532	-145,438	-0,126	-0,008
-474,518	-95,008	0,088	-0,017
-473,503	187,442	0,089	0,098
-472,489	-200,000	0,030	0,145
-471,474	-200,000	-0,011	-0,124
-470,459	410,036	-0,151	0,237
-469,445	-167,379	-0,105	-0,003
-468,430	171,521	-0,078	-0,082
-467,416	-103,971	0,135	0,023
-466,401	-200,000	0,038	0,136
-465,386	-200,000	-0,011	-0,061
-464,372	42,707	0,054	0,036
-463,357	-200,000	-0,017	-0,107
-462,343	416,856	0,072	-0,114
-461,328	89,688	-0,122	0,100
-460,313	-200,000	0,006	0,068
-459,299	-56,335	0,120	-0,039
-458,284	-77,327	0,055	-0,014
-457,270	-91,931	0,093	-0,019
-456,255	-59,800	-0,024	0,008
-455,241	-200,000	0,009	-0,120
-454,226	-47,196	-0,052	0,019
-453,211	-200,000	0,001	0,054
-452,197	800,000	0,033	0,102
-451,182	-200,000	0,005	-0,023
-450,168	-70,453	0,126	-0,035
-449,153	149,656	-0,092	0,092
-448,138	-200,000	0,008	-0,048
-447,124	-51,687	-0,072	-0,025
-446,109	-74,475	0,165	-0,043
-445,095	800,000	0,050	0,115
-444,080	7,148	-0,066	0,036
-443,065	-200,000	-0,003	-0,052
-442,051	-58,328	-0,167	-0,053
-441,036	-200,000	0,003	-0,011
-440,022	800,000	-0,007	-0,019
-439,007	-200,000	0,002	-0,065
-437,992	170,045	0,085	-0,090
-436,978	-115,813	0,092	-0,013
-435,963	0,994	0,083	0,043
-434,949	262,375	0,017	-0,022
-433,934	-113,519	-0,085	0,012
-432,919	-81,868	-0,100	-0,024
-431,905	45,979	-0,113	0,077
-430,890	12,102	0,135	0,076
-429,876	288,822	0,083	0,111
-428,861	132,990	0,082	0,078
-427,846	-162,076	-0,055	0,002
-426,832	255,521	0,018	0,022
-425,817	126,568	-0,096	0,090
-424,803	619,230	-0,058	-0,108
-423,788	46,153	0,178	-0,121
-422,773	-200,000	-0,028	0,128
-421,759	-105,163	0,078	0,013
-420,744	-53,554	0,115	0,038
-419,730	-79,173	-0,062	0,015
-418,715	269,400	0,048	-0,062
-417,701	-200,000	0,000	0,042
-416,686	-38,475	-0,106	0,041
-415,671	-29,568	0,149	0,062
-414,657	-115,621	0,178	0,024
-413,642	-200,000	-0,007	-0,054
-412,628	-120,490	0,056	-0,007
-411,613	-160,581	-0,046	0,002
-410,598	52,388	0,099	-0,069
-409,584	-18,457	-0,075	0,034
-408,569	37,984	0,077	0,050
-407,555	-107,529	0,072	0,011
-406,540	211,658	0,065	0,075
-405,525	-200,000	-0,003	-0,106
-404,511	134,230	-0,056	-0,054
-403,496	-200,000	0,028	-0,131
-402,482	-38,794	-0,093	-0,036
-401,467	-101,454	0,133	0,024
-400,452	-167,864	0,071	0,002
-399,438	-140,683	-0,083	-0,006
-398,423	440,754	-0,076	0,122
-397,409	120,485	-0,092	0,084
-396,394	-13,077	-0,100	0,048
-395,379	-200,000	0,013	-0,117
-394,365	-45,027	0,124	0,045
-393,350	529,927	-0,042	0,073
-392,336	-130,994	0,090	0,009
-391,321	138,330	0,077	-0,074
-390,306	81,723	-0,136	0,108
-389,292	72,752	0,104	0,080
-388,277	-128,266	-0,082	-0,008
-387,263	323,358	0,050	0,070
-386,248	-126,272	0,034	0,004
-385,233	800,000	-0,031	0,098
-384,219	800,000	0,028	-0,070
-383,204	18,935	-0,084	-0,049
-382,190	-8,501	0,069	-0,034
-381,175	-30,298	0,066	0,027
-380,160	-132,254	0,207	-0,019
-379,146	800,000	-0,063	0,181
-378,131	-83,745	0,169	0,039
-377,117	48,613	-0,065	0,045
-376,102	216,182	-0,120	-0,141
-375,088	-130,609	-0,092	-0,009
-374,073	16,924	0,038	0,022
-373,058	-47,757	0,150	0,053
-372,044	62,178	-0,171	-0,125
-371,029	800,000	0,050	-0,129
-370,015	-105,785	0,058	0,009
-369,000	212,108	-0,068	-0,079
-367,985	377,385	-0,060	-0,091
-366,971	-70,363	-0,027	0,008
-365,956	-127,527	0,077	0,008
-364,942	117,934	0,130	0,117
-363,927	-200,000	-0,001	-0,005
-362,912	197,215	-0,052	-0,058
-361,898	16,542	0,061	0,035
-360,883	-9,019	-0,094	-0,046
-359,869	79,580	-0,052	-0,041
-358,854	9,178	-0,076	-0,042
-357,839	-73,497	-0,048	0,013
-356,825	-132,135	0,073	0,007
-355,810	-152,995	0,052	-0,003
-354,796	-19,491	-0,080	0,036
-353,781	275,988	0,029	-0,038
-352,766	-46,613	0,088	-0,032
-351,752	-6,023	-0,056	-0,028
-350,737	-6,507	-0,129	-0,064
-349,723	72,439	-0,060	-0,046
-348,708	-200,000	0,006	-0,105
-347,693	90,576	0,151	-0,124
-346,679	800,000	-0,054	-0,133
-345,664	-200,000	-0,010	-0,109
-344,650	-13,609	0,103	-0,049
-343,635	31,297	-0,084	-0,053
-342,620	2,606	0,074	0,039
-341,606	35,265	-0,073	0,047
-340,591	537,479	-0,064	-0,113
-339,577	800,000	-0,058	-0,119
-338,562	160,424	-0,119	-0,122
-337,548	84,100	0,077	-0,062
-336,533	272,161	0,107	0,139
-335,518	-200,000	0,006	0,049
-334,504	800,000	0,024	0,066
-333,489	537,656	0,040	0,071
-332,475	11,826	-0,019	-0,011
-331,460	162,621	-0,061	-0,062
-330,445	-198,604	-0,069	-0,000
-329,431	-200,000	-0,077	0,000
-328,416	12,941	0,079	0,045
-327,402	-104,811	-0,133	0,022
-326,387	24,891	-0,086	0,052
-325,372	-64,501	-0,218	0,065
-324,358	800,000	0,032	-0,101
-323,343	-200,000	-0,030	-0,109
-322,329	-104,510	-0,094	-0,016
-321,314	-200,000	-0,000	0,142
-320,299	325,952	-0,049	-0,069
-319,285	800,000	-0,023	0,073
-318,270	-200,000	-0,012	0,111
-317,256	17,111	-0,156	0,090
-316,241	211,380	0,029	-0,034
-315,226	-200,000	-0,005	-0,072
-314,212	756,747	-0,078	-0,156
-313,197	607,798	0,049	0,091
-312,183	-167,743	0,108	0,003
-311,168	800,000	-0,084	-0,231
-310,153	25,187	0,086	0,052
-309,139	800,000	0,014	-0,041
-308,124	236,384	-0,054	-0,065
-307,110	-122,642	0,098	-0,011
-306,095	-155,191	0,022	-0,001
-305,080	-42,464	-0,092	0,034
-304,066	747,267	0,028	-0,056
-303,051	4,620	-0,164	-0,088
-302,037	800,000	0,055	-0,152
-301,022	-165,492	0,095	0,003
-300,008	220,648	-0,072	-0,085
-298,993	158,515	0,055	0,056
-297,978	-125,607	-0,167	0,018
-296,964	30,069	-0,038	0,024
-295,949	-125,125	0,037	0,004
-294,935	800,000	-0,012	-0,035
-293,920	-127,094	0,050	-0,005
-292,905	-49,143	0,037	-0,013
-291,891	-10,521	0,102	0,049
-290,876	83,977	0,031	-0,025
-289,862	556,440	-0,006	0,010
-288,847	-200,000	0,004	-0,032
-287,832	800,000	-0,016	0,043
-286,818	-200,000	-0,022	-0,088
-285,803	-200,000	0,008	-0,085
-284,789	-200,000	-0,010	0,080
-283,774	800,000	0,054	0,132
-282,759	-69,228	0,126	0,035
-281,745	-200,000	-0,000	0,061
-280,730	-17,752	-0,139	-0,064
-279,716	-200,000	0,016	0,081
-278,701	-200,000	0,054	-0,195
-277,686	207,738	0,032	-0,037
-276,672	-200,000	-0,052	0,171
-275,657	59,667	-0,073	0,053
-274,643	-40,218	0,128	0,048
-273,628	-200,000	0,014	-0,081
-272,613	-19,682	0,053	0,024
-271,599	800,000	-0,045	-0,130
-270,584	606,253	0,056	0,103
-269,570	53,724	-0,099	-0,070
-268,555	-142,097	0,081	0,006
-267,540	-200,000	0,009	-0,065
-266,526	-98,006	-0,128	-0,024
-265,511	-41,672	-0,076	-0,029
-264,497	-30,890	0,124	0,051
-263,482	-103,160	-0,012	0,002
-262,467	225,918	-0,041	0,049
-261,453	-17,762	-0,098	-0,045
-260,438	80,146	-0,027	0,021
-259,424	-61,035	-0,074	-0,023
-258,409	-105,875	0,122	0,020
-257,395	1,889	-0,026	0,013
-256,380	48,951	-0,054	-0,037
-255,365	332,836	-0,049	0,070
-254,351	-105,688	-0,027	0,004
-253,336	74,784	0,012	0,009
-252,322	478,623	-0,030	0,049
-251,307	7,511	-0,028	-0,015
-250,292	69,853	0,088	0,066
-249,278	-200,000	0,002	0,011
-248,263	800,000	0,013	-0,032
-247,249	286,479	0,011	0,015
-246,234	-49,257	-0,118	-0,041
-245,219	800,000	0,022	-0,064
-244,205	-200,000	0,028	0,106
-243,190	800,000	-0,064	-0,137
-242,176	-200,000	0,032	-0,130
-241,161	-200,000	-0,035	0,180
-240,146	273,349	0,038	0,049
-239,132	264,260	-0,040	-0,052
-238,117	186,335	-0,078	0,085
-237,103	29,665	-0,052	-0,032
-236,088	-45,203	-0,060	-0,022
-235,073	-124,180	0,034	-0,004
-234,059	-200,000	0,010	0,092
-233,044	350,196	0,037	0,054
-232,030	248,979	-0,011	0,014
-231,015	-200,000	0,007	0,030
-230,000	502,360	0,028	0,047
-228,986	-112,392	0,121	-0,018
-227,971	-99,565	0,094	0,017
-226,957	-200,000	-0,015	0,103
-225,942	-86,720	0,136	0,030
-224,927	800,000	-0,034	-0,089
-223,913	-36,185	0,062	0,024
-222,898	-200,000	-0,002	-0,012
-221,884	-126,572	-0,055	-0,006
-220,869	494,825	-0,051	0,087
-219,855	-12,606	-0,053	-0,025
-218,840	-157,537	0,117	0,005
-217,825	53,554	-0,051	0,035
-216,811	393,208	-0,104	-0,159
-215,796	-133,468	0,169	0,015
-214,782	44,149	-0,100	-0,067
-213,767	610,199	0,070	0,128
-212,752	-200,000	0,033	0,110
-211,738	-97,689	-0,072	0,013
-210,723	515,263	-0,048	-0,082
-209,709	310,978	-0,052	-0,072
-208,694	-200,000	0,023	-0,095
-207,679	800,000	0,018	-0,041
-206,665	-92,944	-0,095	0,019
-205,650	-200,000	0,038	0,123
-204,636	-200,000	-0,007	0,042
-203,621	-200,000	-0,030	0,121
-202,606	517,768	0,039	0,068
-201,592	-200,000	-0,003	0,038
-200,577	-200,000	-0,013	-0,081
-199,563	102,940	0,070	-0,060
-198,548	535,872	0,061	0,107
-197,533	-49,834	-0,041	0,014
-196,519	240,482	0,090	-0,109
-195,504	208,908	-0,077	0,088
-194,490	20,890	-0,111	0,065
-193,475	-185,144	0,036	0,000
-192,460	361,343	-0,043	-0,064
-191,446	-98,539	-0,053	-0,010
-190,431	532,751	0,004	-0,007
-189,417	800,000	-0,041	0,082
-188,402	-200,000	0,042	0,139
-187,387	412,592	0,024	-0,037
-186,373	800,000	0,029	-0,077
-185,358	-153,441	-0,189	-0,009
-184,344	-32,858	0,105	0,042
-183,329	800,000	0,048	0,123
-182,315	800,000	0,016	-0,044
-181,300	60,045	-0,126	0,091
-180,285	-200,000	-0,006	0,080
-179,271	-70,228	-0,036	0,010
-178,256	479,509	0,035	0,057
-177,242	-200,000	-0,017	0,165
-176,227	-50,153	0,048	-0,017
-175,212	800,000	-0,027	0,078
-174,198	141,295	0,071	-0,069
-173,183	503,067	0,069	-0,116
-172,169	126,361	0,120	-0,111
-171,154	60,204	-0,030	0,022
-170,139	259,238	0,035	-0,044
-169,125	226,510	-0,039	0,046
-168,110	76,491	-0,081	0,063
-167,096	498,332	0,019	-0,032
-166,081	-200,000	0,021	-0,113
-165,066	-26,655	0,064	0,027
-164,052	195,112	-0,090	0,099
-163,037	-120,436	-0,121	-0,015
-162,023	18,932	0,102	0,060
-161,008	-126,009	-0,147	0,016
-159,993	-200,000	-0,008	0,147
-158,979	-200,000	0,001	-0,083
-157,964	-15,443	0,054	-0,025
-156,950	-22,188	0,011	-0,005
-155,935	-200,000	0,002	-0,013
-154,920	37,201	-0,028	-0,018
-153,906	132,137	0,111	0,104
-152,891	402,941	-0,038	0,059
-151,877	245,976	-0,084	0,103
-150,862	800,000	0,049	-0,141
-149,847	-113,413	-0,065	0,009
-148,833	331,507	0,045	0,064
-147,818	-90,562	0,092	0,019
-146,804	79,123	0,045	0,035
-145,789	113,461	0,028	-0,025
-144,775	800,000	-0,059	0,129
-143,760	-151,553	-0,072	0,004
-142,745	1,949	-0,027	0,014
-141,731	-122,999	-0,048	-0,006
-140,716	316,760	0,063	-0,087
-139,702	-69,641	0,227	0,063
-138,687	-200,000	0,027	0,117
-137,672	-109,819	-0,107	-0,016
-136,658	800,000	-0,019	-0,055
-135,643	53,282	-0,172	-0,119
-134,629	586,319	-0,138	0,248
-133,614	-136,340	0,056	0,005
-132,599	-141,063	-0,093	-0,007
-131,585	143,361	0,049	0,048
-130,570	-50,230	-0,078	-0,027
-129,556	230,243	0,056	-0,067
-128,541	-7,996	-0,148	0,072
-127,526	72,501	-0,089	0,068
-126,512	800,000	-0,058	0,131
-125,497	83,793	0,081	0,064
-124,483	-200,000	-0,014	0,121
-123,468	579,764	0,038	-0,068
-122,453	428,295	0,099	-0,156
-121,439	-200,000	0,006	-0,137
-120,424	390,325	-0,080	-0,122
-119,410	-117,992	0,033	-0,004
-118,395	-78,361	-0,127	-0,032
-117,380	-200,000	-0,009	0,067
-116,366	196,679	0,069	0,076
-115,351	-35,996	0,044	0,017
-114,337	513,684	0,054	0,093
-113,322	332,028	0,049	-0,068
-112,307	599,089	-0,015	-0,027
-111,293	-200,000	-0,011	0,043
-110,278	-74,671	-0,088	0,023
-109,264	-93,694	0,069	-0,014
-108,249	-17,191	-0,126	-0,057
-107,234	181,423	-0,107	-0,114
-106,220	1,425	-0,074	0,039
-105,205	130,070	-0,060	0,056
-104,191	522,417	-0,038	0,065
-103,176	521,633	-0,041	0,069
-102,162	-200,000	-0,001	0,101
-101,147	307,470	-0,036	-0,049
-100,132	264,013	-0,051	0,065
-99,118	186,700	0,009	-0,010
-98,103	-18,118	0,062	-0,028
-97,089	205,067	0,120	0,136
-96,074	-126,069	-0,079	0,008
-95,059	187,456	-0,109	0,119
-94,045	385,032	-0,044	-0,066
-93,030	800,000	-0,009	0,028
-92,016	800,000	-0,032	-0,095
-91,001	-85,382	0,034	0,008
-89,986	219,975	-0,158	0,184
-88,972	420,947	0,059	0,092
-87,957	-99,296	-0,025	-0,004
-86,943	-200,000	0,056	0,182
-85,928	-96,011	-0,061	0,012
-84,913	282,697	0,122	-0,159
-83,899	177,208	0,050	0,053
-82,884	-121,936	0,106	0,013
-81,870	32,790	0,034	-0,022
-80,855	800,000	-0,029	0,070
-79,840	-200,000	0,002	0,046
-78,826	-165,751	-0,023	0,001
-77,811	-51,685	0,089	-0,030
-76,797	647,661	0,058	0,108
-75,782	65,660	-0,065	0,047
-74,767	800,000	0,072	-0,172
-73,753	51,417	-0,033	0,023
-72,738	-200,000	-0,001	0,093
-71,724	-115,853	0,101	0,014
-70,709	-18,253	0,057	-0,026
-69,694	-200,000	-0,007	-0,062
-68,680	325,760	0,046	-0,065
-67,665	-60,911	0,076	0,023
-66,651	-200,000	0,018	0,222
-65,636	-54,203	-0,055	0,018
-64,622	209,606	0,060	-0,069
-63,607	-57,989	-0,200	0,063
-62,592	-143,242	0,095	-0,007
-61,578	796,673	-0,050	-0,100
-60,563	646,959	-0,048	-0,089
-59,549	-84,706	-0,105	0,024
-58,534	-155,931	-1,255	-0,057
-57,519	642,624	-0,787	-1,462
-56,505	-200,000	-0,885	-4,300
-55,490	38,048	0,470	-0,303
-54,476	800,000	5,075	11,729
-53,461	-200,000	13,228	252,915
-52,446	-200,000	689,041	2267,291
-51,432	595,675	1622,780	2926,813
-50,417	120,629	1635,691	1475,007
-49,403	73,599	1289,858	979,368
-48,388	38,398	1024,633	661,170
-47,373	24,574	982,196	588,320
-46,359	23,758	971,891	579,450
-45,344	22,826	967,782	573,929
-44,330	22,713	966,331	572,678
-43,315	22,587	964,950	571,424
-42,300	22,633	963,780	570,859
-41,286	22,633	962,974	570,360
-40,271	22,604	961,927	569,622
-39,257	22,553	961,050	568,916
-38,242	22,608	960,059	568,486
-37,227	22,590	959,243	567,921
-36,213	22,564	958,352	567,287
-35,198	22,479	957,668	566,584
-34,184	22,520	957,063	566,336
-33,169	22,589	955,996	565,904
-32,154	22,615	955,118	565,447
-31,140	22,625	954,244	564,937
-30,125	22,611	953,393	564,367
-29,111	22,616	952,488	563,825
-28,096	22,621	951,753	563,383
-27,082	22,627	951,081	562,982
-26,067	22,640	950,335	562,561
-25,052	22,607	949,762	562,095
-24,038	22,538	949,143	561,483
-23,023	22,643	948,346	561,327
-22,009	22,644	947,806	560,988
-20,994	22,657	947,238	560,669
-19,979	22,671	946,450	560,227
-18,965	22,595	946,130	559,772
-17,950	22,581	945,433	559,291
-16,936	22,562	944,658	558,752
-15,921	22,548	943,919	558,249
-14,906	22,514	943,242	557,716
-13,892	22,469	942,753	557,262
-12,877	22,464	941,951	556,751
-11,863	22,458	941,421	556,397
-10,848	22,459	940,796	556,008
-9,833	22,606	940,263	556,136
-8,819	22,506	939,823	555,536
-7,804	22,471	939,109	554,983
-6,790	22,528	938,364	554,701
-5,775	22,499	937,921	554,324
-4,760	22,523	937,311	554,020
-3,746	22,477	936,646	553,457
-2,731	22,313	936,071	552,578
-1,717	22,278	935,300	551,991
-0,702	22,289	934,526	551,547
0,313	22,104	934,037	551,508
1,327	25,120	931,978	559,730
2,342	34,735	796,655	504,085
3,356	32,842	452,071	283,168
4,371	1,699	294,117	153,123
5,386	-2,415	274,834	139,176
6,400	-3,976	269,039	134,781
7,415	-4,533	266,663	133,066
8,429	-4,215	265,287	132,658
9,444	-4,176	264,432	132,255
10,459	-4,300	263,859	131,843
11,473	-4,348	263,213	131,465
12,488	-4,307	262,722	131,245
13,502	-4,485	262,054	130,739
14,517	-4,498	261,738	130,558
15,531	-4,329	261,410	130,535
16,546	-4,349	260,967	130,285
17,561	-4,348	260,732	130,157
18,575	-4,249	260,417	130,076
19,590	-4,488	260,027	129,655
20,604	-4,380	259,723	129,589
21,619	-4,355	259,423	129,450
22,634	-4,428	259,059	129,192
23,648	-4,435	258,831	129,060
24,663	-4,214	258,312	128,987
25,677	-4,509	258,316	128,715
26,692	-4,313	258,025	128,733
27,707	-4,222	257,696	128,638
28,721	-4,571	257,390	128,164
29,736	-4,478	257,124	128,103
30,750	-4,556	256,969	127,945
31,765	-4,354	256,728	127,992
32,780	-4,378	256,485	127,839
33,794	-4,228	256,156	127,796
34,809	-4,543	256,036	127,447
35,823	-4,566	255,780	127,288
36,838	-4,599	255,615	127,165
37,853	-4,414	255,354	127,187
38,867	-4,574	255,129	126,923
39,882	-4,534	254,949	126,856
40,896	-4,505	254,668	126,731
41,911	-4,624	254,558	126,561
42,926	-4,590	254,237	126,419
43,940	-4,627	254,015	126,265
44,955	-4,804	253,682	125,934
45,969	-4,579	253,372	125,965
46,984	-4,927	253,265	125,597
47,999	-5,271	253,063	125,187
49,013	-5,171	252,798	125,131
50,028	-5,199	252,369	124,884
51,042	-5,337	252,285	124,711
52,057	-5,329	252,060	124,596
53,071	-5,247	251,889	124,571
54,086	-5,241	251,703	124,473
55,101	-5,109	251,595	124,523
56,115	-4,873	251,404	124,621
57,130	-4,656	251,373	124,783
58,144	-4,323	251,188	124,967
59,159	-4,382	250,938	124,780
60,174	-4,278	250,739	124,760
61,188	-4,371	250,661	124,630
62,203	-4,289	250,347	124,533
63,217	-4,311	250,126	124,394
64,232	-4,364	249,966	124,257
65,247	-4,411	249,745	124,096
66,261	-4,475	249,435	123,876
67,276	-4,641	249,285	123,648
68,290	-4,841	248,946	123,298
69,305	-5,007	248,823	123,084
70,320	-4,856	248,535	123,060
71,334	-4,460	248,400	123,319
72,349	-4,169	248,302	123,508
73,363	-4,210	248,093	123,358
74,378	-4,475	247,921	123,036
75,393	-4,279	247,683	123,074
76,407	-4,544	247,613	122,803
77,422	-4,379	247,319	122,786
78,436	-4,312	247,143	122,745
79,451	-4,349	246,882	122,573
80,466	-4,510	246,650	122,310
81,480	-4,685	246,367	122,011
82,495	-5,018	246,480	121,774
83,509	-4,766	246,085	121,781
84,524	-4,690	245,835	121,711
85,539	-4,958	245,662	121,389
86,553	-4,732	245,452	121,465
87,568	-4,657	245,303	121,443
88,582	-4,605	245,007	121,329
89,597	-4,962	245,016	121,023
90,611	-4,645	244,740	121,142
91,626	-4,525	244,695	121,209
92,641	-4,514	244,613	121,167
93,655	-4,326	244,348	121,182
94,670	-4,503	244,034	120,868
95,684	-4,647	243,814	120,627
96,699	-4,572	243,679	120,613
97,714	-4,612	243,455	120,458
98,728	-4,795	243,456	120,295
99,743	-4,951	243,148	120,002
100,757	-4,823	242,939	119,995
101,772	-4,799	242,756	119,914
102,787	-4,646	242,483	119,896
103,801	-4,908	242,434	119,643
104,816	-4,642	242,421	119,846
105,830	-4,423	241,998	119,808
106,845	-4,265	241,936	119,898
107,860	-4,586	241,826	119,567
108,874	-4,509	241,507	119,462
109,889	-4,616	241,480	119,350
110,903	-4,525	241,161	119,256
111,918	-4,707	240,979	119,006
112,933	-4,651	240,871	118,988
113,947	-4,469	240,596	118,991
114,962	-4,449	240,573	118,985
115,976	-4,587	240,304	118,729
116,991	-4,547	240,157	118,678
118,006	-4,363	239,995	118,738
119,020	-4,449	239,863	118,592
120,035	-4,414	239,651	118,505
121,049	-4,396	239,552	118,460
122,064	-4,523	239,361	118,252
123,079	-4,663	239,368	118,130
124,093	-4,674	239,041	117,949
125,108	-4,742	238,734	117,732
126,122	-4,964	238,391	117,371
127,137	-4,808	238,320	117,453
128,151	-4,864	238,250	117,362
129,166	-4,838	238,099	117,298
130,181	-4,607	237,883	117,370
131,195	-4,965	237,629	116,942
132,210	-4,591	237,448	117,146
133,224	-4,546	237,299	117,099
134,239	-4,671	237,279	116,978
135,254	-4,339	237,072	117,134
136,268	-4,415	236,746	116,900
137,283	-4,928	236,552	116,380
138,297	-5,033	236,463	116,242
139,312	-4,932	236,205	116,186
140,327	-4,554	235,997	116,378
141,341	-4,160	236,068	116,719
142,356	-4,230	235,886	116,563
143,370	-4,002	235,790	116,689
144,385	-4,085	235,675	116,554
145,400	-4,260	235,513	116,323
146,414	-4,048	235,255	116,355
147,429	-4,190	235,139	116,174
148,443	-4,426	235,029	115,920
149,458	-4,222	234,853	115,986
150,473	-4,366	234,760	115,815
151,487	-4,410	234,514	115,648
152,502	-4,287	234,427	115,693
153,516	-4,105	234,056	115,645
154,531	-4,330	233,933	115,394
155,546	-4,281	233,838	115,376
156,560	-4,396	233,514	115,114
157,575	-4,406	233,361	115,021
158,589	-4,310	233,329	115,071
159,604	-4,137	233,074	115,072
160,619	-4,187	233,043	115,008
161,633	-4,041	232,762	114,974
162,648	-4,093	232,501	114,793
163,662	-4,127	232,445	114,729
164,677	-4,173	232,328	114,625
165,692	-4,209	232,216	114,531
166,706	-4,190	232,174	114,515
167,721	-4,077	231,863	114,441
168,735	-4,369	231,886	114,211
169,750	-4,180	231,643	114,230
170,764	-4,148	231,470	114,159
171,779	-4,036	231,339	114,173
172,794	-4,183	231,239	113,998
173,808	-4,104	230,784	113,825
174,823	-4,696	230,708	113,314
175,837	-4,774	230,543	113,160
176,852	-4,311	230,279	113,384
177,867	-4,106	230,303	113,546
178,881	-4,254	230,269	113,403
179,896	-4,240	230,122	113,332
180,910	-4,134	229,909	113,300
181,925	-4,184	229,601	113,098
182,940	-4,007	229,535	113,194
183,954	-4,182	229,576	113,068
184,969	-4,057	229,294	113,016
185,983	-3,872	229,240	113,124
186,998	-3,786	228,877	113,001
188,013	-3,857	228,803	112,899
189,027	-4,099	228,761	112,681
190,042	-4,054	228,555	112,604
191,056	-4,249	228,454	112,393
192,071	-3,999	228,193	112,449
193,086	-3,983	228,024	112,367
194,100	-4,097	227,932	112,224
195,115	-4,210	227,589	111,958
196,129	-5,028	227,486	111,265
197,144	-1,163	228,586	114,790
198,159	2,632	229,742	118,311
199,173	4,098	229,789	119,463
200,188	4,038	229,691	119,354
201,202	4,091	229,507	119,289
202,217	4,479	229,430	119,540
203,232	4,604	229,372	119,595
204,246	4,639	229,240	119,543
205,261	4,697	229,039	119,472
206,275	4,798	229,114	119,578
207,290	4,863	228,769	119,437
208,304	5,025	228,678	119,505
209,319	4,971	228,389	119,302
210,334	4,666	228,291	119,004
211,348	4,395	228,181	118,729
212,363	4,320	227,920	118,524
213,377	3,882	227,630	118,027
214,392	3,954	227,493	118,001
215,407	4,082	227,253	117,964
216,421	4,177	227,233	118,016
217,436	4,009	227,064	117,788
218,450	3,800	226,789	117,476
219,465	3,653	226,685	117,299
220,480	3,592	226,597	117,196
221,494	3,744	226,439	117,220
222,509	3,875	226,350	117,264
223,523	4,012	226,128	117,243
224,538	3,887	225,959	117,049
225,553	3,783	225,853	116,905
226,567	3,942	225,866	117,022
227,582	4,396	225,523	117,179
228,596	4,349	225,513	117,128
229,611	4,301	225,396	117,020
230,626	3,858	224,979	116,457
231,640	3,817	224,866	116,357
232,655	4,068	224,932	116,571
233,669	4,461	224,956	116,871
234,684	4,402	224,856	116,764
235,699	4,373	224,518	116,556
236,713	4,284	224,277	116,353
237,728	3,983	224,152	116,051
238,742	3,796	223,920	115,780
239,757	3,914	223,729	115,759
240,772	3,732	223,630	115,561
241,786	3,978	223,324	115,577
242,801	4,002	223,456	115,653
243,815	4,209	223,505	115,824
244,830	4,264	223,233	115,713
245,844	4,006	223,022	115,401
246,859	4,005	222,846	115,298
247,874	4,270	222,777	115,451
248,888	4,207	222,515	115,258
249,903	4,056	222,395	115,072
250,917	3,979	222,229	114,919
251,932	4,116	221,972	114,878
252,947	3,922	221,932	114,702
253,961	3,691	221,859	114,482
254,976	3,904	221,655	114,525
255,990	4,130	221,459	114,582
257,005	4,257	221,447	114,660
258,020	4,236	221,263	114,538
259,034	4,077	221,283	114,421
260,049	4,156	221,004	114,325
261,063	4,196	220,890	114,286
262,078	4,327	220,633	114,240
263,093	4,339	220,642	114,243
264,107	4,350	220,394	114,113
265,122	4,365	220,298	114,063
266,136	4,373	220,256	114,037
267,151	4,436	220,075	113,980
268,166	4,180	219,733	113,604
269,180	3,779	219,625	113,243
270,195	3,823	219,358	113,128
271,209	3,870	219,257	113,100
272,224	4,096	219,254	113,255
273,239	4,133	219,040	113,161
274,253	3,965	218,924	112,967
275,268	3,677	218,615	112,587
276,282	3,637	218,610	112,544
277,297	3,602	218,466	112,435
278,312	3,737	218,296	112,436
279,326	3,907	218,311	112,558
280,341	3,770	218,115	112,347
281,355	4,060	217,990	112,484
282,370	3,951	217,809	112,302
283,384	3,777	217,546	112,029
284,399	3,539	217,493	111,818
285,414	3,549	217,309	111,721
286,428	3,654	217,260	111,762
287,443	3,799	217,189	111,822
288,457	4,080	217,000	111,918
289,472	4,050	216,822	111,795
290,487	3,420	216,546	111,186
291,501	3,498	216,335	111,124
292,516	3,746	216,344	111,298
293,530	3,902	216,183	111,319
294,545	3,716	216,076	111,119
295,560	3,698	215,979	111,046
296,574	4,012	215,872	111,208
297,589	3,809	215,912	111,071
298,603	3,888	215,652	110,986
299,618	3,856	215,516	110,883
300,633	3,952	215,540	110,954
301,647	4,144	215,223	110,919
302,662	4,163	215,129	110,875
303,676	4,337	214,999	110,923
304,691	4,190	214,819	110,714
305,706	4,429	214,621	110,774
306,720	4,333	214,607	110,688
307,735	4,133	214,291	110,372
308,749	3,774	214,326	110,123
309,764	4,047	214,196	110,242
310,779	4,138	214,100	110,248
311,793	4,194	213,846	110,147
312,808	4,020	213,763	109,970
313,822	4,290	213,531	110,034
314,837	3,987	213,356	109,717
315,852	3,725	213,297	109,491
316,866	3,955	213,167	109,578
317,881	4,155	213,053	109,652
318,895	4,256	212,818	109,593
319,910	3,935	212,725	109,307
320,925	3,793	212,512	109,088
321,939	3,666	212,282	108,870
322,954	3,570	212,150	108,724
323,968	4,055	212,170	109,068
324,983	4,104	212,047	109,030
325,997	4,182	211,937	109,019
327,012	3,966	211,760	108,766
328,027	4,032	211,680	108,761
329,041	4,272	211,636	108,899
330,056	4,382	211,522	108,908
331,070	3,831	211,266	108,378
332,085	3,607	211,115	108,133
333,100	3,906	210,715	108,129
334,114	3,959	210,847	108,224
335,129	3,699	210,748	107,981
336,143	3,608	210,551	107,806
337,158	3,691	210,382	107,768
338,173	3,788	210,292	107,781
339,187	3,876	210,153	107,762
340,202	3,671	209,934	107,496
341,216	3,690	209,784	107,423
342,231	4,030	209,633	107,574
343,246	3,548	209,594	107,208
344,260	3,789	209,519	107,328
345,275	3,900	209,424	107,347
346,289	4,016	209,354	107,382
347,304	3,937	209,065	107,170
348,319	3,840	208,991	107,054
349,333	3,779	208,797	106,903
350,348	4,170	208,743	107,138
351,362	3,917	208,746	106,954
352,377	3,766	208,643	106,787
353,392	4,008	208,335	106,787
354,406	4,163	208,170	106,801
355,421	194,507	1345,910	1436,577
356,435	155,212	1484,633	1436,702
