DTS Sentinel unit serial number:	SN410029Multiplexer serial number:	ORYXHardware model number:	OX2-SRSoftware version number:	ORYX F/W v4,00 Oryx Data Collector v3.7.2.0data status	okinstallation	B6 Nyhavnadifferential loss correction	single-endedforward channel	channel 2reverse channel	N/Adate	2023/12/08time	21:40:08forward acquisition time	300,00reverse acquisition time	0,00gamma	499,1914k internal	0,3158k external	0,3158temperature offset calibration	1,0000default loss term (dB/km)	0,3820temperature slope calibration	1,0000multiplexer offset coefficient	1,0000multiplexer slope coefficient	1,0000fibre end	0,00T internal ref (°C)	15,25T ext. ref 1 (°C)	-1,30T ext. ref 2 (°C)	-1,30length (m)	temperature (°C)	Stokes	anti-Stokes-744,400	-67,913	0,070	0,020
-743,385	-52,257	-0,288	-0,098
-742,371	274,258	0,063	0,083
-741,356	-160,585	-0,227	0,009
-740,342	-135,020	0,185	0,016
-739,327	-91,340	-0,241	0,050
-738,312	321,691	-0,052	0,073
-737,298	-120,304	-0,217	-0,027
-736,283	253,354	0,062	-0,078
-735,269	-89,974	-0,318	0,068
-734,254	-46,871	0,103	0,037
-733,239	-17,660	-0,434	-0,200
-732,225	77,096	0,201	0,157
-731,210	120,693	0,017	0,015
-730,196	800,000	0,034	0,103
-729,181	-49,090	-0,157	0,055
-728,167	115,131	-0,050	0,045
-727,152	-173,245	-0,142	-0,003
-726,137	-200,000	-0,032	-0,230
-725,123	-87,335	0,096	0,021
-724,108	218,662	-0,114	-0,134
-723,094	160,301	-0,096	-0,099
-722,079	-17,460	0,006	-0,003
-721,064	722,113	-0,006	0,012
-720,050	-116,621	-0,098	0,013
-719,035	-162,378	-0,229	-0,008
-718,021	289,039	-0,053	-0,071
-717,006	105,948	0,035	-0,030
-715,991	33,937	-0,113	-0,073
-714,977	57,549	-0,063	0,045
-713,962	-17,773	-0,082	0,038
-712,948	800,000	-0,056	0,121
-711,933	64,648	-0,108	-0,080
-710,918	147,555	-0,113	-0,112
-709,904	800,000	-0,019	-0,047
-708,889	7,948	-0,190	-0,105
-707,875	287,224	0,065	0,086
-706,860	424,442	-0,040	-0,064
-705,845	98,773	-0,057	0,048
-704,831	800,000	-0,071	-0,171
-703,816	800,000	-0,056	-0,159
-702,802	22,213	0,077	0,046
-701,787	-140,045	-0,084	0,006
-700,772	-58,453	0,039	0,013
-699,758	47,055	0,090	-0,062
-698,743	-200,000	-0,013	0,115
-697,729	800,000	-0,030	0,070
-696,714	639,102	-0,021	-0,040
-695,699	-3,428	0,085	-0,043
-694,685	-75,092	-0,132	0,034
-693,670	644,252	-0,033	-0,063
-692,656	162,955	0,066	0,068
-691,641	87,446	-0,069	-0,057
-690,627	-130,048	-0,058	-0,006
-689,612	-200,000	-0,005	0,165
-688,597	397,293	0,051	-0,079
-687,583	-45,194	-0,093	-0,034
-686,568	-200,000	-0,040	-0,172
-685,554	1,635	-0,096	0,050
-684,539	-200,000	0,016	-0,055
-683,524	-72,872	0,088	-0,024
-682,510	-20,744	-0,064	-0,029
-681,495	-67,705	0,070	0,020
-680,481	800,000	-0,028	-0,061
-679,466	135,043	-0,115	-0,109
-678,451	-200,000	0,002	-0,042
-677,437	189,385	-0,083	-0,091
-676,422	14,431	-0,031	0,018
-675,408	-16,305	-0,039	-0,018
-674,393	800,000	-0,072	-0,150
-673,378	710,215	-0,019	-0,038
-672,364	119,316	-0,031	0,028
-671,349	114,145	-0,079	-0,070
-670,335	800,000	0,012	-0,031
-669,320	41,461	0,152	0,101
-668,305	-200,000	0,003	0,077
-667,291	24,764	-0,153	-0,093
-666,276	252,272	0,066	-0,083
-665,262	178,896	-0,077	0,083
-664,247	-154,047	-0,090	-0,004
-663,232	-118,282	0,053	-0,007
-662,218	160,808	-0,044	0,046
-661,203	621,937	0,029	0,055
-660,189	800,000	-0,041	0,091
-659,174	72,131	0,051	0,039
-658,159	231,045	0,013	-0,015
-657,145	-200,000	0,049	-0,162
-656,130	-200,000	0,000	0,014
-655,116	-200,000	-0,022	0,081
-654,101	-118,296	-0,033	-0,004
-653,086	-13,555	-0,032	0,015
-652,072	800,000	-0,084	0,173
-651,057	99,630	0,094	-0,080
-650,043	34,281	-0,066	-0,042
-649,028	361,153	-0,123	-0,182
-648,014	49,664	0,079	0,054
-646,999	12,636	0,044	0,025
-645,984	-48,450	0,088	-0,031
-644,970	76,934	0,037	-0,029
-643,955	-125,345	-0,078	0,009
-642,941	66,592	0,027	0,020
-641,926	-108,481	0,076	-0,012
-640,911	-54,261	-0,151	0,050
-639,897	-200,000	-0,005	0,183
-638,882	109,020	-0,104	-0,092
-637,868	-200,000	-0,014	0,126
-636,853	-200,000	-0,026	0,096
-635,838	45,503	-0,087	-0,059
-634,824	-81,068	-0,074	0,018
-633,809	-108,286	-0,035	-0,006
-632,795	-200,000	0,035	0,158
-631,780	-162,603	0,094	-0,003
-630,765	-200,000	-0,008	-0,180
-629,751	-63,000	-0,054	0,016
-628,736	415,330	-0,079	-0,124
-627,722	85,962	-0,026	0,021
-626,707	-112,881	0,088	0,013
-625,692	50,367	0,036	0,025
-624,678	14,214	-0,110	-0,062
-623,663	800,000	0,010	-0,028
-622,649	-200,000	0,021	-0,144
-621,634	39,999	-0,119	0,078
-620,619	79,334	-0,131	-0,103
-619,605	800,000	0,038	-0,119
-618,590	532,153	-0,051	0,089
-617,576	-64,402	-0,095	-0,028
-616,561	-200,000	0,001	0,006
-615,546	-200,000	-0,011	-0,076
-614,532	800,000	-0,082	-0,181
-613,517	-146,730	-0,073	0,005
-612,503	800,000	0,038	0,088
-611,488	800,000	-0,037	0,121
-610,474	-92,901	-0,207	0,042
-609,459	-200,000	-0,012	0,101
-608,444	-167,553	0,070	-0,002
-607,430	800,000	-0,033	-0,094
-606,415	-200,000	-0,019	-0,126
-605,401	26,306	0,026	0,016
-604,386	584,737	0,090	0,163
-603,371	259,596	-0,052	0,066
-602,357	-200,000	0,005	0,096
-601,342	-82,699	-0,117	-0,027
-600,328	256,656	0,032	0,040
-599,313	11,071	0,061	-0,034
-598,298	124,692	-0,036	-0,033
-597,284	93,652	0,046	-0,039
-596,269	-200,000	-0,007	-0,103
-595,255	495,136	0,075	-0,126
-594,240	-200,000	0,001	-0,047
-593,225	-122,768	-0,194	-0,023
-592,211	-43,304	-0,036	0,013
-591,196	-151,697	-0,031	0,002
-590,182	300,204	-0,034	-0,046
-589,167	243,856	-0,028	0,034
-588,152	287,675	-0,061	0,080
-587,138	41,207	-0,037	0,024
-586,123	-200,000	-0,017	0,083
-585,109	800,000	0,049	-0,109
-584,094	109,394	0,020	0,017
-583,079	-194,253	0,037	-0,000
-582,065	-145,122	-0,149	-0,010
-581,050	-200,000	0,007	-0,163
-580,036	40,916	-0,125	0,083
-579,021	-200,000	0,020	-0,238
-578,006	-134,941	-0,102	0,009
-576,992	-166,316	-0,107	0,003
-575,977	42,546	-0,082	-0,054
-574,963	800,000	0,032	0,090
-573,948	800,000	0,068	0,149
-572,934	310,160	-0,100	-0,138
-571,919	-200,000	0,018	0,105
-570,904	-200,000	0,013	-0,076
-569,890	-200,000	-0,024	-0,096
-568,875	-104,967	0,074	0,012
-567,861	-200,000	-0,007	-0,060
-566,846	69,693	-0,104	0,078
-565,831	-78,025	-0,064	-0,016
-564,817	-200,000	0,007	0,116
-563,802	87,601	-0,153	-0,124
-562,788	-20,208	-0,092	-0,041
-561,773	-95,503	-0,115	-0,022
-560,758	-45,445	0,045	-0,016
-559,744	158,596	-0,026	0,027
-558,729	246,650	0,074	0,091
-557,715	-200,000	0,017	0,058
-556,700	-51,044	-0,089	-0,030
-555,685	-200,000	-0,023	-0,148
-554,671	293,426	0,128	0,171
-553,656	-59,874	0,088	0,027
-552,642	421,338	0,042	0,067
-551,627	800,000	-0,051	0,140
-550,612	48,209	-0,149	0,102
-549,598	-4,982	0,185	-0,093
-548,583	332,298	0,071	0,101
-547,569	-13,913	0,107	0,050
-546,554	-200,000	0,026	0,136
-545,539	405,863	0,039	0,060
-544,525	458,179	0,038	-0,062
-543,510	800,000	-0,046	0,139
-542,496	345,857	-0,048	0,069
-541,481	800,000	-0,016	-0,040
-540,466	108,706	-0,089	-0,078
-539,452	800,000	0,033	0,079
-538,437	-36,349	0,109	0,043
-537,423	-28,951	-0,065	-0,027
-536,408	-61,837	-0,045	0,014
-535,393	81,734	0,036	0,029
-534,379	306,862	-0,072	-0,099
-533,364	602,414	0,082	0,149
-532,350	800,000	-0,012	-0,037
-531,335	398,546	-0,030	0,046
-530,321	-24,205	0,098	-0,043
-529,306	800,000	-0,035	-0,100
-528,291	-115,674	0,025	0,003
-527,277	-200,000	-0,030	-0,184
-526,262	800,000	-0,014	-0,046
-525,248	-112,261	-0,114	0,017
-524,233	-116,185	0,056	-0,007
-523,218	179,274	0,030	-0,033
-522,204	800,000	0,046	0,119
-521,189	-33,916	0,048	0,019
-520,175	-193,453	-0,158	-0,001
-519,160	78,883	-0,107	-0,084
-518,145	343,829	0,035	-0,051
-517,131	36,525	-0,051	0,033
-516,116	24,910	0,037	-0,022
-515,102	-104,719	0,070	-0,012
-514,087	-40,553	-0,122	-0,046
-513,072	-200,000	0,025	0,126
-512,058	-200,000	0,003	-0,064
-511,043	27,245	0,034	0,021
-510,029	599,820	0,032	0,058
-509,014	517,343	0,011	0,018
-507,999	-200,000	0,009	-0,056
-506,985	260,362	-0,022	-0,027
-505,970	-77,812	-0,066	-0,017
-504,956	48,516	-0,043	-0,030
-503,941	-37,491	0,080	-0,031
-502,926	800,000	0,028	-0,085
-501,912	800,000	-0,021	0,064
-500,897	23,790	0,057	-0,034
-499,883	-74,542	0,087	-0,023
-498,868	-79,923	-0,039	0,010
-497,853	-107,989	-0,169	-0,026
-496,839	-45,191	0,052	-0,019
-495,824	362,929	0,062	-0,091
-494,810	-1,867	-0,052	0,027
-493,795	-200,000	-0,031	-0,138
-492,781	-122,778	0,196	-0,023
-491,766	408,192	-0,023	-0,036
-490,751	276,736	-0,039	0,051
-489,737	638,725	0,059	0,110
-488,722	-83,173	0,144	0,034
-487,708	-16,526	-0,136	-0,063
-486,693	-53,470	-0,116	-0,038
-485,678	342,910	0,057	0,081
-484,664	-200,000	-0,054	-0,184
-483,649	-88,620	-0,065	0,014
-482,635	-157,998	-0,093	-0,004
-481,620	126,226	-0,022	-0,021
-480,605	525,712	0,052	-0,089
-479,591	800,000	-0,050	-0,114
-478,576	-110,827	-0,060	0,009
-477,562	-119,883	-0,084	-0,010
-476,547	45,524	-0,042	-0,028
-475,532	800,000	-0,029	0,090
-474,518	191,008	0,068	0,074
-473,503	6,937	0,078	-0,042
-472,489	-200,000	0,009	0,035
-471,474	-61,088	-0,134	0,041
-470,459	-200,000	0,016	0,051
-469,445	-104,209	0,033	0,006
-468,430	-35,319	0,127	-0,050
-467,416	-163,852	-0,052	-0,002
-466,401	-75,473	0,148	0,038
-465,386	-200,000	-0,010	-0,124
-464,372	-34,341	0,030	-0,012
-463,357	-145,914	-0,120	-0,008
-462,343	-200,000	-0,014	0,170
-461,328	800,000	-0,039	0,084
-460,313	-118,935	0,093	0,012
-459,299	-168,533	0,159	0,004
-458,284	44,020	0,026	-0,018
-457,270	-48,798	-0,067	0,023
-456,255	-80,692	0,064	-0,016
-455,241	800,000	0,064	-0,179
-454,226	76,679	-0,053	-0,041
-453,211	800,000	0,046	-0,119
-452,197	-200,000	0,024	-0,083
-451,182	-200,000	0,008	0,068
-450,168	-200,000	0,008	0,055
-449,153	77,055	-0,086	0,067
-448,138	110,353	-0,100	-0,087
-447,124	308,173	-0,044	-0,060
-446,109	-88,579	-0,067	-0,014
-445,095	-200,000	-0,031	0,151
-444,080	532,609	0,058	0,100
-443,065	-130,034	-0,011	0,001
-442,051	-200,000	-0,015	-0,151
-441,036	-36,528	0,071	-0,028
-440,022	124,118	-0,115	-0,105
-439,007	259,422	0,034	-0,042
-437,992	-115,155	-0,037	0,005
-436,978	-200,000	-0,004	0,013
-435,963	-30,412	-0,151	0,062
-434,949	40,801	0,091	-0,060
-433,934	481,265	0,028	0,047
-432,919	800,000	0,033	0,105
-431,905	800,000	0,054	0,120
-430,890	-200,000	-0,017	0,066
-429,876	800,000	-0,046	0,144
-428,861	-55,055	0,079	-0,026
-427,846	-81,853	0,028	0,007
-426,832	106,127	-0,060	-0,052
-425,817	-65,371	-0,105	0,031
-424,803	-39,050	-0,047	-0,018
-423,788	135,876	0,042	-0,040
-422,773	160,663	0,050	0,051
-421,759	9,893	0,029	0,016
-420,744	43,897	-0,141	0,094
-419,730	800,000	-0,032	-0,088
-418,715	10,935	-0,119	0,066
-417,701	627,124	-0,038	0,070
-416,686	-200,000	-0,028	-0,113
-415,671	86,749	0,047	-0,037
-414,657	-200,000	-0,014	-0,062
-413,642	-200,000	-0,033	-0,112
-412,628	593,328	0,052	-0,094
-411,613	-150,955	-0,035	-0,002
-410,598	-71,576	0,139	0,037
-409,584	-106,894	0,086	0,014
-408,569	-51,473	0,138	-0,047
-407,555	72,151	0,099	-0,075
-406,540	32,973	0,120	0,075
-405,525	800,000	0,021	-0,057
-404,511	-47,387	0,094	-0,033
-403,496	-200,000	0,004	-0,068
-402,482	704,869	0,060	0,116
-401,467	-200,000	0,002	0,039
-400,452	227,178	0,079	0,094
-399,438	211,481	0,060	0,068
-398,423	-138,107	-0,031	0,002
-397,409	281,217	-0,092	0,120
-396,394	136,470	-0,113	-0,107
-395,379	-65,784	0,139	-0,040
-394,365	163,554	-0,087	0,089
-393,350	800,000	0,044	0,122
-392,336	304,247	0,039	0,052
-391,321	-174,769	-0,051	0,001
-390,306	-104,682	0,066	0,011
-389,292	47,170	-0,091	-0,062
-388,277	212,662	0,061	-0,070
-387,263	-108,206	-0,056	-0,009
-386,248	-84,693	0,141	0,032
-385,233	621,343	-0,020	-0,037
-384,219	-60,661	0,069	0,021
-383,204	-123,171	0,035	0,004
-382,190	21,636	-0,110	-0,065
-381,175	181,102	-0,093	0,100
-380,160	-200,000	0,022	0,081
-379,146	800,000	-0,027	0,085
-378,131	-30,972	-0,036	0,015
-377,117	-200,000	-0,033	0,110
-376,102	-10,167	-0,093	-0,044
-375,088	800,000	0,048	-0,128
-374,073	72,485	0,080	0,061
-373,058	103,232	0,072	0,061
-372,044	50,171	0,050	0,035
-371,029	-200,000	-0,003	0,024
-370,015	-98,698	0,090	0,017
-369,000	416,376	-0,015	-0,023
-367,985	-200,000	0,015	-0,142
-366,971	-200,000	0,002	-0,041
-365,956	623,306	-0,036	-0,067
-364,942	253,788	0,083	0,103
-363,927	-200,000	0,006	0,042
-362,912	-73,922	-0,107	0,028
-361,898	-200,000	0,000	-0,042
-360,883	36,339	0,087	-0,056
-359,869	800,000	-0,058	-0,182
-358,854	-200,000	0,005	0,100
-357,839	666,743	-0,051	0,097
-356,825	-2,930	0,082	0,041
-355,810	567,940	-0,048	-0,086
-354,796	65,953	-0,047	0,035
-353,781	273,526	-0,027	0,035
-352,766	122,628	-0,062	-0,056
-351,752	110,563	0,079	0,069
-350,737	-198,137	0,145	-0,001
-349,723	800,000	0,042	0,101
-348,708	-60,513	-0,041	0,013
-347,693	-99,676	0,043	-0,008
-346,679	-17,599	-0,103	-0,047
-345,664	-200,000	0,010	0,153
-344,650	551,783	0,088	0,154
-343,635	-200,000	0,001	-0,013
-342,620	9,741	0,110	0,060
-341,606	-200,000	-0,020	0,150
-340,591	-56,001	-0,049	-0,016
-339,577	-101,566	0,043	0,007
-338,562	-200,000	0,005	-0,022
-337,548	150,388	-0,068	0,067
-336,533	-200,000	0,005	0,031
-335,518	-200,000	-0,017	0,117
-334,504	-108,339	0,102	-0,016
-333,489	-125,075	-0,108	0,012
-332,475	-170,454	-0,085	-0,002
-331,460	800,000	0,096	-0,198
-330,445	-200,000	-0,005	-0,024
-329,431	-68,747	-0,092	0,026
-328,416	142,097	0,136	-0,131
-327,402	-179,487	0,035	-0,001
-326,387	406,871	0,044	0,067
-325,372	-58,109	-0,011	0,003
-324,358	-200,000	-0,002	0,012
-323,343	170,041	0,056	0,058
-322,329	410,256	-0,048	0,074
-321,314	800,000	0,037	-0,081
-320,299	800,000	-0,052	0,111
-319,285	4,746	-0,099	0,053
-318,270	-131,974	-0,077	-0,007
-317,256	379,928	0,048	0,072
-316,241	60,328	-0,062	-0,044
-315,226	-73,318	0,101	-0,027
-314,212	-13,346	0,146	0,068
-313,197	15,778	0,061	-0,035
-312,183	251,719	0,061	0,075
-311,168	501,814	0,052	0,088
-310,153	-91,768	0,047	-0,010
-309,139	245,060	0,045	0,055
-308,124	-58,104	-0,037	-0,012
-307,110	127,338	0,068	0,062
-306,095	-200,000	0,016	0,061
-305,080	800,000	-0,035	0,092
-304,066	-200,000	0,005	0,035
-303,051	-16,901	-0,155	-0,071
-302,037	2,543	-0,029	0,015
-301,022	-76,400	-0,090	-0,023
-300,008	317,276	0,069	0,094
-298,993	165,524	0,055	0,057
-297,978	-71,078	0,018	-0,005
-296,964	85,517	-0,076	-0,061
-295,949	-200,000	0,001	-0,083
-294,935	-144,675	0,161	0,011
-293,920	-200,000	0,024	0,107
-292,905	319,364	-0,032	0,045
-291,891	-200,000	0,018	0,132
-290,876	-200,000	-0,038	0,123
-289,862	-200,000	-0,046	-0,155
-288,847	-72,588	-0,098	0,026
-287,832	158,855	0,044	0,045
-286,818	29,173	-0,030	-0,018
-285,803	322,606	0,076	-0,105
-284,789	24,808	0,072	-0,043
-283,774	800,000	-0,020	0,059
-282,759	-2,912	-0,174	0,088
-281,745	-15,939	0,102	0,047
-280,730	469,955	-0,048	-0,079
-279,716	-200,000	0,138	-0,000
-278,701	59,948	-0,059	0,042
-277,686	-200,000	0,014	-0,052
-276,672	-139,439	-0,018	-0,001
-275,657	31,087	-0,047	0,029
-274,643	-200,000	0,003	-0,140
-273,628	25,258	-0,104	-0,062
-272,613	44,061	0,147	-0,097
-271,599	-94,574	0,083	0,016
-270,584	-79,550	0,098	0,024
-269,570	637,126	0,015	-0,028
-268,555	800,000	-0,015	0,035
-267,540	-200,000	0,005	-0,060
-266,526	-200,000	0,011	0,182
-265,511	-200,000	-0,000	-0,210
-264,497	441,835	0,053	-0,084
-263,482	-200,000	-0,021	-0,071
-262,467	574,524	-0,047	0,084
-261,453	107,108	0,049	0,042
-260,438	-42,769	0,050	-0,018
-259,424	256,545	-0,085	-0,106
-258,409	-91,024	-0,025	-0,005
-257,395	-200,000	0,019	-0,064
-256,380	-74,913	0,087	0,022
-255,365	497,556	0,093	0,155
-254,351	-200,000	0,014	-0,071
-253,336	421,772	-0,074	-0,115
-252,322	-200,000	-0,048	-0,162
-251,307	-28,187	-0,071	-0,030
-250,292	516,350	0,072	-0,123
-249,278	137,549	0,055	0,052
-248,263	5,815	0,068	0,036
-247,249	-128,654	-0,147	-0,015
-246,234	670,154	-0,002	0,005
-245,219	121,706	-0,102	-0,092
-244,205	-51,842	0,083	-0,028
-243,190	-200,000	0,008	-0,168
-242,176	-200,000	0,045	0,271
-241,161	251,006	0,112	-0,138
-240,146	-35,304	0,112	0,044
-239,132	53,098	0,070	-0,048
-238,117	-200,000	0,016	-0,076
-237,103	800,000	0,025	-0,064
-236,088	800,000	0,017	0,054
-235,073	-48,441	0,039	-0,014
-234,059	233,703	-0,074	0,088
-233,044	800,000	0,024	0,049
-232,030	-78,106	-0,066	0,016
-231,015	45,706	0,082	0,055
-230,000	800,000	-0,028	-0,080
-228,986	-21,582	0,124	-0,055
-227,971	-8,152	-0,043	0,021
-226,957	-126,096	0,101	0,011
-225,942	341,503	-0,015	-0,021
-224,927	-200,000	0,006	-0,088
-223,913	800,000	0,014	-0,041
-222,898	800,000	-0,021	-0,058
-221,884	-129,624	-0,035	-0,003
-220,869	-200,000	-0,011	0,051
-219,855	309,539	-0,013	0,018
-218,840	181,316	0,072	-0,076
-217,825	-69,973	-0,063	0,017
-216,811	-141,768	-0,104	0,007
-215,796	586,978	-0,045	-0,080
-214,782	15,039	-0,023	-0,013
-213,767	-113,801	-0,172	0,024
-212,752	800,000	0,018	-0,044
-211,738	687,389	-0,044	0,084
-210,723	8,199	-0,057	-0,031
-209,709	-200,000	-0,002	-0,024
-208,694	-200,000	0,001	-0,046
-207,679	53,915	-0,087	0,060
-206,665	55,811	0,061	-0,042
-205,650	-48,432	0,104	-0,036
-204,636	-200,000	0,017	0,156
-203,621	-145,568	0,046	0,003
-202,606	770,358	-0,036	0,071
-201,592	800,000	0,040	-0,110
-200,577	-38,617	-0,118	0,045
-199,563	184,596	0,065	-0,070
-198,548	-200,000	-0,009	0,061
-197,533	-68,969	0,189	-0,052
-196,519	-200,000	-0,021	0,166
-195,504	-200,000	-0,008	0,096
-194,490	442,390	0,059	0,094
-193,475	18,511	-0,093	-0,053
-192,460	-64,307	0,078	0,023
-191,446	800,000	0,005	-0,014
-190,431	-200,000	-0,007	0,139
-189,417	-48,714	-0,026	-0,009
-188,402	763,939	-0,035	-0,069
-187,387	-200,000	-0,004	0,072
-186,373	85,629	-0,059	0,046
-185,358	209,988	0,026	0,029
-184,344	589,748	0,066	0,118
-183,329	1,463	0,047	0,024
-182,315	-141,551	0,025	0,002
-181,300	189,384	0,020	0,021
-180,285	51,511	-0,075	0,051
-179,271	208,857	0,035	-0,039
-178,256	41,185	-0,078	-0,051
-177,242	800,000	0,021	-0,056
-176,227	-144,958	0,069	-0,004
-175,212	208,972	0,035	0,039
-174,198	19,553	0,009	-0,005
-173,183	289,480	-0,152	-0,199
-172,169	-200,000	0,024	-0,132
-171,154	-200,000	0,021	0,083
-170,139	-105,328	0,072	-0,012
-169,125	-20,457	0,067	-0,029
-168,110	-200,000	-0,018	0,069
-167,096	90,481	0,095	-0,077
-166,081	536,253	0,066	-0,113
-165,066	75,620	0,030	0,023
-164,052	-3,258	-0,066	-0,033
-163,037	22,069	-0,079	-0,046
-162,023	-81,904	0,129	0,030
-161,008	-200,000	-0,025	-0,179
-159,993	476,627	-0,046	0,075
-158,979	196,734	0,040	0,044
-157,964	-124,137	0,108	0,012
-156,950	328,132	-0,022	-0,030
-155,935	-147,064	0,116	0,007
-154,920	-156,352	0,117	-0,005
-153,906	457,265	-0,053	-0,085
-152,891	-40,283	0,098	-0,037
-151,877	366,323	-0,102	-0,149
-150,862	-109,168	0,076	-0,012
-149,847	-200,000	-0,003	-0,128
-148,833	-121,177	0,048	0,006
-147,818	527,030	0,013	0,022
-146,804	217,452	0,046	0,053
-145,789	628,434	0,034	0,062
-144,775	764,215	0,023	-0,044
-143,760	246,060	-0,071	-0,086
-142,745	175,787	-0,057	0,060
-141,731	-101,011	0,163	0,029
-140,716	92,874	0,105	-0,085
-139,702	-29,303	-0,127	0,052
-138,687	-184,624	-0,028	-0,000
-137,672	800,000	-0,013	-0,027
-136,658	312,821	-0,050	-0,067
-135,643	800,000	0,018	-0,052
-134,629	393,420	0,097	-0,146
-133,614	-200,000	-0,003	0,038
-132,599	-200,000	-0,016	0,108
-131,585	383,368	-0,019	-0,028
-130,570	-176,412	0,089	0,002
-129,556	800,000	0,049	0,106
-128,541	440,480	-0,024	-0,037
-127,526	-200,000	-0,042	0,235
-126,512	4,768	-0,024	-0,013
-125,497	-200,000	0,021	-0,132
-124,483	380,634	-0,021	-0,032
-123,468	102,273	0,027	0,022
-122,453	-16,717	0,062	0,028
-121,439	136,532	-0,059	0,055
-120,424	-50,063	-0,128	0,044
-119,410	426,168	0,041	-0,063
-118,395	-102,296	-0,083	-0,014
-117,380	-200,000	-0,002	0,042
-116,366	-3,043	0,123	-0,062
-115,351	-200,000	-0,027	-0,156
-114,337	-125,897	-0,141	0,015
-113,322	68,468	-0,061	0,045
-112,307	125,323	0,054	-0,049
-111,293	-17,071	-0,103	0,047
-110,278	24,630	0,130	0,077
-109,264	-200,000	-0,015	0,121
-108,249	43,280	-0,133	0,087
-107,234	34,124	-0,109	0,068
-106,220	276,393	0,058	0,074
-105,205	374,642	0,091	0,134
-104,191	98,862	-0,132	0,109
-103,176	92,740	0,026	0,021
-102,162	800,000	-0,038	-0,100
-101,147	-131,752	0,053	-0,005
-100,132	800,000	-0,017	-0,046
-99,118	-200,000	0,019	-0,080
-98,103	-200,000	0,025	-0,173
-97,089	800,000	-0,083	-0,188
-96,074	800,000	-0,033	-0,092
-95,059	609,717	0,026	0,047
-94,045	148,425	0,075	0,073
-93,030	-200,000	-0,024	0,088
-92,016	37,713	0,089	0,056
-91,001	615,901	0,098	0,178
-89,986	800,000	-0,006	0,013
-88,972	169,264	-0,057	-0,059
-87,957	447,937	-0,017	0,028
-86,943	800,000	-0,042	-0,115
-85,928	-55,030	-0,049	-0,016
-84,913	27,572	-0,089	0,054
-83,899	800,000	-0,052	0,134
-82,884	39,357	0,055	-0,035
-81,870	-200,000	0,013	0,065
-80,855	177,213	-0,023	-0,024
-79,840	22,397	0,063	0,037
-78,826	641,948	-0,061	-0,112
-77,811	800,000	-0,034	0,102
-76,797	800,000	-0,023	0,051
-75,782	170,014	0,153	-0,158
-74,767	469,258	-0,035	0,057
-73,753	412,054	0,006	0,010
-72,738	-89,844	-0,053	0,011
-71,724	113,960	-0,025	-0,021
-70,709	141,995	-0,159	-0,152
-69,694	800,000	-0,019	-0,055
-68,680	-155,583	0,030	0,001
-67,665	-107,354	0,060	-0,009
-66,651	-200,000	-0,010	0,044
-65,636	111,271	-0,111	0,096
-64,622	-200,000	0,047	0,181
-63,607	-9,878	0,061	0,029
-62,592	-200,000	-0,028	-0,196
-61,578	-200,000	0,016	-0,058
-60,563	-41,449	0,137	-0,050
-59,549	-200,000	0,047	0,198
-58,534	43,855	-2,023	-1,328
-57,519	-200,000	-0,112	-0,725
-56,505	-200,000	-1,448	-4,955
-55,490	93,315	0,736	0,598
-54,476	800,000	5,318	11,801
-53,461	-200,000	17,872	290,033
-52,446	800,000	726,682	2230,106
-51,432	536,861	1639,523	2804,707
-50,417	109,673	1629,201	1401,082
-49,403	73,223	1283,483	962,205
-48,388	31,576	1026,287	631,810
-47,373	19,876	988,304	569,881
-46,359	18,264	976,270	557,641
-45,344	15,627	972,380	546,777
-44,330	15,762	971,047	546,448
-43,315	15,326	969,242	543,985
-42,300	15,225	968,115	543,004
-41,286	15,226	967,037	542,382
-40,271	15,189	966,104	541,716
-39,257	15,309	964,971	541,447
-38,242	15,274	964,293	540,931
-37,227	15,265	963,467	540,419
-36,213	15,349	962,535	540,146
-35,198	15,219	961,871	539,330
-34,184	15,260	961,067	538,993
-33,169	15,242	960,097	538,369
-32,154	15,300	959,025	537,932
-31,140	15,294	958,238	537,450
-30,125	15,297	957,628	537,096
-29,111	15,280	956,784	536,547
-28,096	15,256	956,127	536,081
-27,082	15,347	955,266	535,868
-26,067	15,240	954,707	535,192
-25,052	15,245	953,934	534,751
-24,038	15,331	953,121	534,550
-23,023	15,281	952,783	534,182
-22,009	15,283	951,876	533,656
-20,994	15,300	951,299	533,368
-19,979	15,274	950,582	532,860
-18,965	15,304	949,972	532,593
-17,950	15,341	949,474	532,412
-16,936	15,217	948,927	531,686
-15,921	15,192	948,145	531,149
-14,906	15,147	947,404	530,568
-13,892	15,170	946,697	530,225
-12,877	15,153	946,064	529,796
-11,863	15,122	945,526	529,375
-10,848	15,155	944,982	529,154
-9,833	15,211	944,641	529,118
-8,819	15,261	943,982	528,889
-7,804	15,215	943,261	528,317
-6,790	15,196	942,586	527,859
-5,775	15,225	942,058	527,633
-4,760	15,143	941,513	527,048
-3,746	15,132	941,057	526,737
-2,731	15,019	940,277	525,921
-1,717	15,027	939,512	525,499
-0,702	15,011	938,830	525,046
0,313	14,848	938,098	524,913
1,327	18,237	936,182	534,463
2,342	27,476	789,697	475,163
3,356	24,028	444,490	262,325
4,371	-5,540	295,207	144,698
5,386	-9,475	276,884	131,979
6,400	-10,803	271,334	128,088
7,415	-10,794	268,771	126,875
8,429	-10,914	267,435	126,123
9,444	-11,117	266,656	125,560
10,459	-10,975	266,003	125,370
11,473	-11,056	265,391	124,997
12,488	-11,245	264,903	124,585
13,502	-11,293	264,171	124,187
14,517	-11,269	263,897	124,067
15,531	-11,253	263,426	123,850
16,546	-11,171	263,103	123,761
17,561	-11,212	262,682	123,514
18,575	-11,095	262,409	123,481
19,590	-11,224	262,016	123,169
20,604	-10,889	261,719	123,318
21,619	-11,201	261,614	122,979
22,634	-11,373	261,237	122,637
23,648	-11,555	260,847	122,280
24,663	-11,203	260,431	122,388
25,677	-11,248	260,197	122,227
26,692	-11,388	260,009	122,004
27,707	-11,233	259,874	122,067
28,721	-11,481	259,520	121,670
29,736	-11,466	259,208	121,526
30,750	-11,324	258,842	121,469
31,765	-11,226	258,745	121,499
32,780	-11,342	258,389	121,219
33,794	-11,280	258,179	121,165
34,809	-11,366	257,993	120,990
35,823	-11,392	257,844	120,887
36,838	-11,329	257,582	120,808
37,853	-11,263	257,326	120,736
38,867	-11,250	256,988	120,578
39,882	-11,353	256,662	120,324
40,896	-11,408	256,570	120,222
41,911	-11,351	256,283	120,126
42,926	-11,260	255,965	120,046
43,940	-11,533	255,928	119,780
44,955	-11,406	255,447	119,655
45,969	-11,688	255,298	119,328
46,984	-11,782	255,092	119,140
47,999	-11,885	254,757	118,883
49,013	-12,089	254,660	118,650
50,028	-12,284	254,183	118,248
51,042	-12,230	254,091	118,242
52,057	-12,193	253,916	118,182
53,071	-12,167	253,645	118,067
54,086	-12,165	253,489	117,986
55,101	-11,862	253,362	118,179
56,115	-11,695	253,106	118,192
57,130	-11,503	253,292	118,435
58,144	-10,994	252,919	118,688
59,159	-10,873	252,748	118,702
60,174	-11,109	252,468	118,357
61,188	-11,074	252,354	118,322
62,203	-11,065	252,031	118,168
63,217	-11,381	251,939	117,843
64,232	-11,171	251,591	117,850
65,247	-11,077	251,414	117,837
66,261	-11,130	251,155	117,660
67,276	-11,523	250,773	117,135
68,290	-11,693	250,662	116,928
69,305	-11,807	250,577	116,780
70,320	-11,615	250,164	116,741
71,334	-11,430	250,065	116,841
72,349	-11,038	249,972	117,122
73,363	-10,831	249,752	117,184
74,378	-11,067	249,469	116,841
75,393	-11,235	249,504	116,704
76,407	-11,285	249,187	116,502
77,422	-11,142	249,015	116,533
78,436	-11,111	248,803	116,450
79,451	-11,260	248,524	116,183
80,466	-11,235	248,217	116,050
81,480	-11,631	248,032	115,619
82,495	-11,437	247,864	115,694
83,509	-11,456	247,658	115,571
84,524	-11,540	247,437	115,387
85,539	-11,747	247,190	115,088
86,553	-11,834	247,137	114,980
87,568	-11,751	247,053	115,000
88,582	-11,627	246,717	114,937
89,597	-11,706	246,604	114,808
90,611	-11,569	246,543	114,884
91,626	-11,376	246,405	114,971
92,641	-11,363	246,087	114,824
93,655	-11,330	245,812	114,713
94,670	-11,589	245,701	114,434
95,684	-11,433	245,479	114,451
96,699	-11,356	245,275	114,410
97,714	-11,798	245,109	113,954
98,728	-11,790	244,884	113,846
99,743	-11,704	244,409	113,687
100,757	-11,642	244,308	113,681
101,772	-11,698	244,188	113,568
102,787	-11,669	244,016	113,502
103,801	-11,580	243,985	113,551
104,816	-11,416	243,858	113,619
105,830	-11,273	243,763	113,682
106,845	-11,157	243,459	113,626
107,860	-11,270	243,325	113,461
108,874	-11,424	242,897	113,124
109,889	-11,433	242,728	113,027
110,903	-11,513	242,635	112,908
111,918	-11,502	242,374	112,785
112,933	-11,318	242,294	112,889
113,947	-11,494	242,176	112,680
114,962	-11,453	241,925	112,587
115,976	-11,532	241,783	112,446
116,991	-11,258	241,565	112,559
118,006	-11,387	241,340	112,338
119,020	-11,589	241,484	112,230
120,035	-11,351	241,109	112,240
121,049	-11,414	241,139	112,193
122,064	-11,296	240,865	112,151
123,079	-11,354	240,488	111,918
124,093	-11,595	240,401	111,671
125,108	-11,573	240,256	111,613
126,122	-11,696	239,801	111,291
127,137	-11,726	239,632	111,178
128,151	-11,865	239,487	110,989
129,166	-11,821	239,493	111,017
130,181	-11,666	239,196	110,995
131,195	-11,955	239,050	110,683
132,210	-11,471	238,893	110,992
133,224	-11,482	238,735	110,901
134,239	-11,453	238,595	110,849
135,254	-11,371	238,337	110,785
136,268	-11,587	238,118	110,499
137,283	-11,951	237,973	110,129
138,297	-11,881	237,712	110,055
139,312	-11,957	237,502	109,887
140,327	-11,587	237,512	110,178
141,341	-11,159	237,375	110,449
142,356	-10,843	237,236	110,628
143,370	-10,911	237,089	110,495
144,385	-11,002	236,849	110,301
145,400	-11,118	236,874	110,209
146,414	-10,856	236,398	110,188
147,429	-11,229	236,392	109,877
148,443	-11,244	236,302	109,813
149,458	-10,996	236,109	109,912
150,473	-11,085	235,883	109,726
151,487	-11,105	235,660	109,597
152,502	-11,194	235,531	109,456
153,516	-10,994	235,473	109,578
154,531	-11,000	235,141	109,410
155,546	-11,135	234,959	109,208
156,560	-11,338	234,860	108,991
157,575	-11,366	234,550	108,815
158,589	-11,187	234,432	108,892
159,604	-11,041	234,380	108,974
160,619	-11,072	234,344	108,923
161,633	-10,859	234,018	108,930
162,648	-11,038	234,023	108,781
163,662	-10,994	233,814	108,709
164,677	-11,091	233,506	108,480
165,692	-11,244	233,500	108,347
166,706	-11,019	233,372	108,455
167,721	-11,051	233,218	108,349
168,735	-10,840	232,918	108,365
169,750	-10,903	232,842	108,271
170,764	-11,277	232,751	107,925
171,779	-10,902	232,478	108,083
172,794	-10,893	232,450	108,068
173,808	-11,243	232,149	107,643
174,823	-11,492	231,836	107,295
175,837	-11,665	231,667	107,072
176,852	-11,284	231,599	107,328
177,867	-11,147	231,599	107,426
178,881	-11,052	231,444	107,418
179,896	-10,882	231,341	107,493
180,910	-10,954	231,077	107,305
181,925	-11,234	231,132	107,103
182,940	-11,011	230,771	107,099
183,954	-10,802	230,591	107,169
184,969	-10,698	230,500	107,198
185,983	-10,837	230,461	107,062
186,998	-10,825	230,139	106,912
188,013	-10,691	229,971	106,928
189,027	-10,711	229,722	106,787
190,042	-10,808	229,702	106,694
191,056	-10,709	229,513	106,673
192,071	-11,159	229,401	106,264
193,086	-10,788	229,221	106,457
194,100	-10,632	229,028	106,479
195,115	-11,220	228,806	105,913
196,129	-11,474	228,683	105,651
197,144	-5,535	230,540	111,105
198,159	0,503	232,428	116,710
199,173	3,221	232,771	118,988
200,188	3,151	232,946	119,013
201,202	3,342	232,737	119,044
202,217	3,712	232,681	119,292
203,232	3,896	232,677	119,422
204,246	3,822	232,446	119,235
205,261	3,946	232,367	119,280
206,275	3,964	232,230	119,214
207,290	4,197	232,008	119,269
208,304	4,185	231,884	119,186
209,319	4,132	231,728	119,054
210,334	3,784	231,574	118,695
211,348	3,718	231,297	118,492
212,363	3,154	231,133	117,963
213,377	3,075	230,888	117,766
214,392	3,057	230,768	117,680
215,407	3,445	230,621	117,893
216,421	3,232	230,574	117,694
217,436	3,133	230,266	117,451
218,450	3,270	230,046	117,434
219,465	2,946	229,949	117,125
220,480	3,095	229,854	117,180
221,494	3,161	229,732	117,158
222,509	3,062	229,659	117,035
223,523	3,226	229,531	117,084
224,538	3,341	229,153	116,969
225,553	3,220	229,156	116,868
226,567	3,304	229,051	116,868
227,582	3,488	228,993	116,968
228,596	3,657	228,792	116,984
229,611	3,297	228,593	116,598
230,626	3,221	228,262	116,361
231,640	3,184	228,114	116,247
232,655	3,382	228,072	116,366
233,669	3,795	228,102	116,684
234,684	3,943	227,961	116,713
235,699	3,640	227,770	116,376
236,713	3,413	227,657	116,136
237,728	3,186	227,386	115,815
238,742	3,504	226,904	115,800
239,757	3,359	226,932	115,694
240,772	3,269	226,720	115,508
241,786	3,177	226,787	115,462
242,801	3,320	226,661	115,496
243,815	3,895	226,546	115,860
244,830	3,798	226,295	115,649
245,844	3,386	226,253	115,307
246,859	3,384	226,088	115,211
247,874	3,512	225,921	115,212
248,888	3,517	225,656	115,070
249,903	3,320	225,716	114,942
250,917	3,250	225,439	114,738
251,932	3,467	225,185	114,762
252,947	3,114	225,107	114,447
253,961	3,156	224,912	114,369
254,976	3,016	224,907	114,252
255,990	3,443	224,768	114,490
257,005	3,440	224,617	114,401
258,020	3,251	224,594	114,238
259,034	3,464	224,485	114,331
260,049	3,616	224,185	114,282
261,063	3,584	224,035	114,171
262,078	3,458	223,971	114,034
263,093	3,505	223,831	113,988
264,107	3,741	223,602	114,036
265,122	3,686	223,527	113,947
266,136	3,928	223,371	114,037
267,151	3,686	223,205	113,763
268,166	3,235	222,951	113,289
269,180	2,965	222,664	112,934
270,195	3,093	222,679	113,026
271,209	3,104	222,502	112,934
272,224	3,041	222,417	112,834
273,239	3,169	222,393	112,906
274,253	3,343	221,955	112,802
275,268	3,040	221,851	112,516
276,282	2,931	221,701	112,350
277,297	2,945	221,624	112,311
278,312	3,168	221,470	112,387
279,326	3,247	221,326	112,362
280,341	3,311	221,232	112,351
281,355	3,370	221,063	112,298
282,370	3,185	220,984	112,113
283,384	2,956	220,780	111,832
284,399	3,021	220,594	111,775
285,414	2,967	220,485	111,670
286,428	3,275	220,397	111,841
287,443	3,665	220,361	112,098
288,457	3,615	220,125	111,931
289,472	3,257	219,950	111,571
290,487	2,748	219,625	111,026
291,501	2,651	219,610	110,937
292,516	3,076	219,425	111,143
293,530	3,100	219,230	111,052
294,545	2,889	219,249	110,898
295,560	3,186	219,053	111,005
296,574	3,340	219,020	111,090
297,589	3,170	218,853	110,872
298,603	3,102	218,697	110,734
299,618	3,232	218,578	110,758
300,633	3,278	218,426	110,705
301,647	3,302	218,422	110,710
302,662	3,600	218,184	110,794
303,676	3,512	218,137	110,697
304,691	3,553	217,933	110,614
305,706	3,474	217,766	110,461
306,720	3,476	217,603	110,371
307,735	3,232	217,311	110,038
308,749	3,207	217,304	110,006
309,764	3,429	217,192	110,099
310,779	3,503	217,073	110,082
311,793	3,409	216,911	109,923
312,808	3,679	216,668	109,984
313,822	3,458	216,544	109,752
314,837	3,241	216,360	109,494
315,852	3,119	216,284	109,358
316,866	3,380	216,102	109,443
317,881	3,673	216,161	109,673
318,895	3,618	215,924	109,503
319,910	3,276	215,815	109,194
320,925	3,106	215,626	108,968
321,939	2,860	215,438	108,688
322,954	2,856	215,355	108,634
323,968	3,377	215,191	108,912
324,983	3,200	214,990	108,674
325,997	3,276	214,974	108,711
327,012	3,462	214,860	108,775
328,027	3,378	214,851	108,701
329,041	3,598	214,829	108,837
330,056	3,766	214,562	108,811
331,070	3,169	214,298	108,245
332,085	2,895	214,185	107,984
333,100	3,209	214,017	108,112
334,114	3,312	213,985	108,159
335,129	3,328	213,870	108,102
336,143	3,183	213,655	107,882
337,158	3,206	213,437	107,778
338,173	3,419	213,408	107,904
339,187	3,295	213,112	107,657
340,202	3,142	212,888	107,427
341,216	3,147	212,854	107,404
342,231	3,024	212,715	107,238
343,246	2,934	212,654	107,134
344,260	3,057	212,453	107,110
345,275	3,058	212,330	107,039
346,289	3,343	212,299	107,214
347,304	3,238	212,187	107,074
348,319	3,396	211,882	107,021
349,333	3,229	211,984	106,946
350,348	3,591	211,785	107,089
351,362	3,632	211,636	107,033
352,377	3,303	211,500	106,724
353,392	3,272	211,451	106,669
354,406	3,181	211,206	106,472
355,421	196,946	1337,784	1419,896
356,435	157,379	1475,022	1419,865
