DTS Sentinel unit serial number:	SN410029Multiplexer serial number:	ORYXHardware model number:	OX2-SRSoftware version number:	ORYX F/W v4,00 Oryx Data Collector v3.7.2.0data status	okinstallation	B6 Nyhavnadifferential loss correction	single-endedforward channel	channel 2reverse channel	N/Adate	2023/12/10time	20:45:08forward acquisition time	300,00reverse acquisition time	0,00gamma	499,1914k internal	0,3122k external	0,3122temperature offset calibration	1,0000default loss term (dB/km)	0,3820temperature slope calibration	1,0000multiplexer offset coefficient	1,0000multiplexer slope coefficient	1,0000fibre end	0,00T internal ref (°C)	22,26T ext. ref 1 (°C)	5,82T ext. ref 2 (°C)	5,84length (m)	temperature (°C)	Stokes	anti-Stokes-744,400	68,383	-0,055	-0,042
-743,385	-171,882	-0,278	0,007
-742,371	-97,962	0,045	-0,009
-741,356	-6,789	-0,292	0,148
-740,342	800,000	0,028	0,066
-739,327	146,069	-0,219	0,219
-738,312	-57,244	0,027	-0,009
-737,298	44,608	-0,270	0,185
-736,283	-200,000	-0,053	-0,218
-735,269	145,315	-0,176	0,176
-734,254	-200,000	-0,000	0,098
-733,239	61,473	-0,361	-0,267
-732,225	-200,000	-0,010	-0,039
-731,210	150,551	-0,047	-0,048
-730,196	352,122	0,027	-0,041
-729,181	-200,000	0,008	0,081
-728,167	-102,616	-0,056	0,010
-727,152	-21,897	-0,102	-0,046
-726,137	800,000	-0,042	-0,113
-725,123	-154,119	-0,113	-0,006
-724,108	27,886	0,030	-0,019
-723,094	145,672	-0,122	-0,122
-722,079	-200,000	-0,035	-0,117
-721,064	800,000	0,029	-0,085
-720,050	-120,313	-0,105	-0,013
-719,035	560,175	-0,061	0,110
-718,021	800,000	-0,043	-0,090
-717,006	74,177	-0,152	-0,119
-715,991	-156,619	-0,053	-0,002
-714,977	-200,000	0,028	-0,111
-713,962	-8,541	0,166	-0,083
-712,948	-200,000	0,016	0,099
-711,933	238,859	0,092	0,114
-710,918	-16,433	-0,128	0,060
-709,904	186,106	0,044	-0,049
-708,889	144,844	-0,088	-0,088
-707,875	132,927	0,009	0,009
-706,860	-113,985	-0,043	0,006
-705,845	-200,000	0,048	-0,167
-704,831	-169,276	0,115	-0,003
-703,816	-200,000	0,004	0,081
-702,802	-200,000	-0,023	-0,102
-701,787	-200,000	-0,025	-0,141
-700,772	29,683	-0,121	-0,077
-699,758	-101,835	-0,151	0,027
-698,743	-5,561	0,047	0,024
-697,729	120,800	-0,100	-0,092
-696,714	-200,000	0,012	-0,084
-695,699	-40,317	0,012	-0,004
-694,685	800,000	-0,028	-0,073
-693,670	-200,000	0,001	-0,031
-692,656	-14,436	0,060	0,029
-691,641	-200,000	-0,013	-0,086
-690,627	-9,281	-0,125	-0,062
-689,612	522,068	0,036	0,062
-688,597	800,000	0,030	-0,089
-687,583	99,225	-0,066	-0,057
-686,568	432,297	-0,048	0,078
-685,554	306,789	-0,103	0,143
-684,539	-17,918	0,127	0,059
-683,524	68,571	-0,029	-0,022
-682,510	183,923	0,052	0,058
-681,495	512,095	0,020	0,035
-680,481	160,459	-0,059	0,062
-679,466	54,725	-0,034	0,024
-678,451	732,309	0,104	-0,208
-677,437	356,814	0,056	-0,083
-676,422	-200,000	-0,004	0,224
-675,408	-200,000	0,003	-0,072
-674,393	-200,000	-0,033	0,123
-673,378	575,899	0,056	-0,103
-672,364	18,856	-0,104	-0,062
-671,349	-200,000	-0,033	-0,147
-670,335	136,472	-0,056	-0,054
-669,320	-200,000	0,001	0,153
-668,305	44,759	-0,067	0,045
-667,291	-31,981	-0,134	-0,055
-666,276	195,280	-0,042	0,048
-665,262	-70,957	0,070	-0,020
-664,247	800,000	-0,041	-0,103
-663,232	800,000	-0,011	-0,023
-662,218	476,097	0,038	0,064
-661,203	248,332	0,032	0,041
-660,189	18,339	0,111	-0,066
-659,174	800,000	-0,034	-0,072
-658,159	-200,000	0,001	-0,021
-657,145	-137,191	-0,106	0,009
-656,130	-156,783	-0,103	-0,005
-655,116	413,832	0,013	0,021
-654,101	291,136	0,123	0,166
-653,086	28,816	0,075	0,047
-652,072	-118,468	0,040	0,005
-651,057	-86,524	0,124	-0,028
-650,043	-44,196	-0,123	-0,045
-649,028	-200,000	-0,005	-0,036
-648,014	-200,000	0,012	0,044
-646,999	300,491	-0,014	0,019
-645,984	-200,000	0,045	-0,157
-644,970	800,000	-0,025	-0,068
-643,955	-200,000	0,005	-0,080
-642,941	-88,752	-0,074	-0,016
-641,926	504,933	0,089	-0,153
-640,911	-47,253	0,055	0,020
-639,897	468,136	0,066	0,110
-638,882	-101,137	0,103	-0,018
-637,868	800,000	-0,046	-0,141
-636,853	-135,542	-0,160	-0,014
-635,838	800,000	0,026	-0,083
-634,824	-9,604	0,099	0,049
-633,809	800,000	-0,023	-0,055
-632,795	-29,482	0,109	-0,046
-631,780	-52,521	-0,105	0,036
-630,765	-200,000	0,010	-0,045
-629,751	800,000	-0,036	-0,093
-628,736	44,986	-0,099	0,068
-627,722	-188,235	-0,062	0,001
-626,707	79,542	0,068	0,054
-625,692	-140,500	0,072	-0,005
-624,678	211,201	0,139	-0,163
-623,663	-159,649	0,153	0,006
-622,649	-60,913	-0,096	-0,030
-621,634	366,046	-0,049	0,073
-620,619	-200,000	-0,021	-0,100
-619,605	-200,000	-0,031	-0,121
-618,590	2,142	0,062	-0,033
-617,576	78,559	-0,075	-0,059
-616,561	443,535	-0,039	-0,064
-615,546	800,000	-0,039	0,095
-614,532	-200,000	-0,013	-0,114
-613,517	-100,155	0,269	-0,049
-612,503	56,962	0,109	0,079
-611,488	13,687	-0,071	-0,041
-610,474	-200,000	0,001	0,069
-609,459	-200,000	0,009	-0,044
-608,444	-200,000	-0,021	-0,098
-607,430	-200,000	-0,025	-0,206
-606,415	207,551	-0,164	-0,190
-605,401	800,000	-0,019	0,041
-604,386	312,842	-0,045	-0,063
-603,371	-32,716	-0,032	-0,013
-602,357	-84,311	0,112	-0,026
-601,342	10,968	-0,020	0,011
-600,328	-53,868	0,141	-0,048
-599,313	-0,697	0,064	0,034
-598,298	44,350	-0,050	-0,034
-597,284	53,621	-0,109	-0,078
-596,269	-75,508	0,041	0,011
-595,255	-74,136	-0,105	-0,028
-594,240	-59,269	-0,106	0,034
-593,225	800,000	0,016	0,033
-592,211	800,000	0,032	0,086
-591,196	4,475	0,079	-0,043
-590,182	-200,000	-0,003	0,092
-589,167	270,044	-0,087	0,113
-588,152	-200,000	-0,001	0,174
-587,138	-200,000	0,008	-0,035
-586,123	234,260	-0,102	-0,125
-585,109	643,496	0,056	0,106
-584,094	-82,951	0,123	0,029
-583,079	800,000	0,019	-0,063
-582,065	-200,000	0,015	0,080
-581,050	10,093	0,052	-0,029
-580,036	47,386	-0,095	0,065
-579,021	-43,002	0,048	-0,018
-578,006	-111,538	0,074	0,011
-576,992	21,224	-0,124	0,075
-575,977	-200,000	0,016	0,241
-574,963	-62,506	-0,025	-0,008
-573,948	-200,000	-0,063	0,213
-572,934	-41,840	0,094	-0,035
-571,919	-79,330	0,053	-0,013
-570,904	-200,000	0,012	0,103
-569,890	-109,406	-0,034	-0,005
-568,875	-41,248	0,132	-0,050
-567,861	-200,000	0,007	0,037
-566,846	-104,897	0,106	-0,018
-565,831	-144,684	-0,147	-0,010
-564,817	759,808	0,029	0,058
-563,802	-153,122	-0,138	-0,007
-562,788	676,041	0,045	-0,087
-561,773	37,358	0,125	0,082
-560,758	50,452	-0,089	-0,062
-559,744	-200,000	-0,007	-0,038
-558,729	-16,301	0,170	0,079
-557,715	-200,000	0,004	-0,071
-556,700	252,462	-0,026	-0,033
-555,685	-200,000	-0,012	-0,098
-554,671	245,353	0,059	0,074
-553,656	-200,000	-0,005	0,039
-552,642	218,325	-0,023	-0,027
-551,627	-27,390	-0,180	0,077
-550,612	-30,132	-0,037	0,015
-549,598	-200,000	-0,003	-0,076
-548,583	-131,892	0,031	0,003
-547,569	791,362	0,031	0,064
-546,554	-200,000	0,012	0,089
-545,539	-76,211	0,021	-0,005
-544,525	699,216	-0,055	0,107
-543,510	800,000	-0,031	0,067
-542,496	800,000	0,008	0,018
-541,481	-86,946	0,070	-0,016
-540,466	-107,154	-0,080	0,013
-539,452	-90,285	0,187	0,040
-538,437	-150,989	0,062	0,003
-537,423	267,143	0,038	0,049
-536,408	-45,877	-0,157	0,057
-535,393	-139,188	-0,068	-0,005
-534,379	26,105	0,120	-0,074
-533,364	-200,000	0,007	0,036
-532,350	513,062	0,040	0,068
-531,335	-200,000	-0,002	0,006
-530,321	90,826	0,042	-0,035
-529,306	119,196	-0,054	-0,049
-528,291	198,167	0,068	-0,077
-527,277	-200,000	0,021	-0,073
-526,262	-143,961	0,118	-0,008
-525,248	152,772	0,046	0,047
-524,233	-32,841	0,064	0,026
-523,218	278,024	0,041	0,054
-522,204	-200,000	-0,025	0,107
-521,189	379,396	0,093	-0,142
-520,175	168,762	0,042	0,044
-519,160	-19,024	-0,040	0,018
-518,145	800,000	-0,080	0,257
-517,131	80,383	-0,122	0,097
-516,116	-67,612	0,144	0,041
-515,102	14,008	-0,047	0,027
-514,087	-100,197	-0,156	0,028
-513,072	180,429	0,025	0,027
-512,058	100,297	-0,059	0,050
-511,043	78,008	-0,051	-0,040
-510,029	800,000	-0,033	0,070
-509,014	-200,000	-0,022	0,120
-507,999	800,000	-0,049	0,142
-506,985	-188,429	-0,117	0,001
-505,970	20,420	0,119	-0,071
-504,956	-200,000	0,011	-0,059
-503,941	69,430	-0,090	0,068
-502,926	800,000	0,027	0,074
-501,912	429,087	-0,024	0,038
-500,897	-200,000	-0,075	0,000
-499,883	800,000	-0,057	0,171
-498,868	-20,514	-0,115	-0,052
-497,853	662,935	0,060	-0,114
-496,839	91,755	-0,071	-0,059
-495,824	-24,122	0,119	0,052
-494,810	-200,000	0,008	0,099
-493,795	487,539	0,025	0,042
-492,781	-125,486	-0,064	-0,007
-491,766	198,252	-0,059	-0,067
-490,751	-200,000	-0,014	-0,069
-489,737	13,919	0,037	-0,021
-488,722	256,151	-0,088	-0,112
-487,708	630,287	0,088	0,166
-486,693	-200,000	0,006	0,135
-485,678	800,000	0,031	0,067
-484,664	-38,354	-0,052	0,020
-483,649	-200,000	0,015	0,107
-482,635	-200,000	-0,008	0,028
-481,620	-200,000	0,006	0,097
-480,605	-11,915	0,083	0,040
-479,591	122,518	0,028	-0,026
-478,576	-16,109	0,087	-0,041
-477,562	-200,000	-0,011	-0,047
-476,547	14,822	-0,162	-0,094
-475,532	224,416	0,033	-0,039
-474,518	21,307	0,159	0,095
-473,503	26,912	-0,062	-0,039
-472,489	117,597	-0,017	0,015
-471,474	-178,129	-0,062	-0,001
-470,459	301,046	-0,087	-0,119
-469,445	-58,893	0,054	-0,017
-468,430	-200,000	-0,004	-0,140
-467,416	-11,473	0,037	0,018
-466,401	-137,205	-0,027	0,002
-465,386	800,000	0,036	0,097
-464,372	800,000	0,013	0,027
-463,357	-200,000	-0,035	0,182
-462,343	-72,575	-0,090	-0,024
-461,328	-142,043	-0,037	-0,003
-460,313	-26,866	-0,108	0,046
-459,299	-42,855	0,080	-0,030
-458,284	225,023	0,046	-0,055
-457,270	-200,000	-0,098	0,000
-456,255	-114,963	0,166	0,023
-455,241	-173,572	0,036	0,001
-454,226	-29,722	0,075	-0,031
-453,211	-6,917	-0,031	0,015
-452,197	-134,355	0,074	-0,007
-451,182	-200,000	-0,007	0,147
-450,168	208,967	-0,046	0,053
-449,153	-200,000	0,011	0,114
-448,138	-200,000	-0,007	0,085
-447,124	26,274	-0,100	-0,062
-446,109	-19,464	-0,100	0,045
-445,095	-30,212	0,035	-0,015
-444,080	-200,000	0,002	-0,022
-443,065	-186,151	0,281	0,003
-442,051	398,984	-0,081	-0,126
-441,036	-200,000	0,008	-0,042
-440,022	800,000	-0,025	-0,080
-439,007	259,515	0,056	0,071
-437,992	-122,497	0,116	0,014
-436,978	183,015	0,023	0,026
-435,963	-200,000	0,009	0,061
-434,949	-20,321	0,023	-0,010
-433,934	-22,398	-0,118	-0,052
-432,919	31,854	0,105	-0,066
-431,905	364,323	0,058	-0,086
-430,890	-200,000	-0,012	-0,186
-429,876	-200,000	0,016	0,056
-428,861	800,000	0,034	-0,094
-427,846	629,260	-0,081	0,151
-426,832	-200,000	0,030	-0,117
-425,817	-200,000	0,001	0,106
-424,803	38,835	-0,092	0,060
-423,788	800,000	-0,026	0,061
-422,773	-26,946	0,024	-0,010
-421,759	-200,000	0,018	0,097
-420,744	-200,000	0,001	-0,048
-419,730	800,000	-0,077	-0,177
-418,715	-200,000	-0,029	-0,142
-417,701	79,504	0,039	0,030
-416,686	-200,000	-0,009	-0,104
-415,671	-200,000	-0,004	0,018
-414,657	-91,904	-0,102	-0,021
-413,642	25,490	-0,034	-0,021
-412,628	800,000	0,028	-0,086
-411,613	254,318	-0,013	0,016
-410,598	96,484	0,084	-0,071
-409,584	-27,929	-0,060	-0,025
-408,569	6,497	-0,041	0,022
-407,555	-88,739	-0,058	-0,013
-406,540	258,573	-0,111	0,141
-405,525	-200,000	-0,002	0,034
-404,511	800,000	-0,016	0,048
-403,496	137,214	-0,058	0,056
-402,482	21,216	-0,110	0,066
-401,467	-73,527	0,053	0,014
-400,452	-101,817	-0,073	-0,013
-399,438	-200,000	0,010	0,041
-398,423	-74,100	0,104	-0,028
-397,409	289,024	-0,040	0,054
-396,394	375,975	-0,025	-0,037
-395,379	479,616	0,052	-0,086
-394,365	800,000	0,026	-0,056
-393,350	-124,349	0,089	0,010
-392,336	131,882	-0,086	-0,081
-391,321	-108,218	-0,137	-0,022
-390,306	678,578	-0,019	0,037
-389,292	-54,642	0,088	0,029
-388,277	69,150	0,155	0,117
-387,263	27,215	0,044	0,027
-386,248	-99,585	0,113	-0,021
-385,233	-200,000	-0,006	-0,144
-384,219	39,985	-0,078	0,052
-383,204	576,424	-0,059	0,107
-382,190	800,000	-0,039	0,106
-381,175	-67,105	0,090	0,026
-380,160	116,408	-0,148	0,134
-379,146	526,982	0,035	0,061
-378,131	-200,000	0,002	0,030
-377,117	536,912	0,021	0,036
-376,102	-200,000	-0,006	-0,056
-375,088	-200,000	-0,012	0,052
-374,073	800,000	-0,039	-0,087
-373,058	701,398	0,031	-0,060
-372,044	-3,852	-0,062	0,031
-371,029	800,000	0,026	0,058
-370,015	-200,000	-0,018	0,064
-369,000	289,502	-0,093	-0,124
-367,985	-79,247	-0,068	-0,017
-366,971	-164,385	-0,050	-0,002
-365,956	420,728	0,068	0,107
-364,942	101,919	-0,062	-0,053
-363,927	-43,152	0,053	0,019
-362,912	800,000	-0,012	0,032
-361,898	122,898	-0,069	-0,063
-360,883	79,034	-0,044	0,035
-359,869	4,604	-0,015	0,008
-358,854	-125,419	-0,080	0,009
-357,839	-200,000	0,006	0,040
-356,825	143,637	-0,032	0,031
-355,810	86,607	-0,082	0,066
-354,796	-24,806	0,043	-0,019
-353,781	-109,577	0,080	-0,012
-352,766	-200,000	0,020	-0,103
-351,752	-77,462	0,057	0,014
-350,737	-134,761	0,051	0,005
-349,723	-88,300	0,063	-0,014
-348,708	-200,000	-0,060	-0,232
-347,693	-111,467	-0,151	-0,022
-346,679	-90,120	-0,049	-0,010
-345,664	624,958	-0,028	-0,052
-344,650	114,249	0,036	0,032
-343,635	-200,000	0,006	0,129
-342,620	445,651	0,083	0,135
-341,606	800,000	-0,080	0,177
-340,591	281,262	0,074	-0,097
-339,577	-200,000	0,029	-0,124
-338,562	130,772	-0,096	-0,090
-337,548	-110,009	0,138	-0,021
-336,533	-113,615	0,268	0,038
-335,518	-139,499	0,051	0,004
-334,504	235,787	-0,068	0,083
-333,489	800,000	0,047	-0,109
-332,475	-136,651	-0,080	0,007
-331,460	154,742	-0,045	-0,046
-330,445	432,766	-0,042	-0,067
-329,431	104,892	0,195	0,168
-328,416	141,998	0,086	0,083
-327,402	234,407	0,033	0,040
-326,387	29,935	0,059	0,037
-325,372	-60,138	-0,100	0,031
-324,358	-200,000	-0,004	-0,085
-323,343	328,607	0,071	-0,100
-322,329	-71,748	-0,036	0,010
-321,314	-113,974	0,058	0,008
-320,299	800,000	0,038	0,088
-319,285	-129,390	-0,047	-0,005
-318,270	-100,344	0,058	-0,010
-317,256	-87,029	-0,131	0,029
-316,241	222,005	-0,064	-0,076
-315,226	-56,425	0,041	0,013
-314,212	174,982	0,098	0,104
-313,197	-200,000	0,021	0,143
-312,183	-25,985	-0,136	-0,058
-311,168	-41,325	0,072	0,027
-310,153	477,006	0,050	0,082
-309,139	800,000	-0,077	-0,166
-308,124	158,912	-0,141	-0,144
-307,110	97,952	0,062	0,053
-306,095	-116,974	0,119	0,016
-305,080	-162,025	-0,106	-0,004
-304,066	-200,000	0,011	-0,124
-303,051	456,408	-0,074	-0,120
-302,037	-12,813	0,074	-0,035
-301,022	-200,000	-0,028	0,103
-300,008	-116,060	0,045	0,006
-298,993	110,098	-0,176	0,155
-297,978	-106,596	0,159	0,026
-296,964	-83,063	-0,041	-0,010
-295,949	152,790	0,062	-0,062
-294,935	-55,209	0,072	-0,024
-293,920	-124,658	-0,069	0,008
-292,905	-200,000	-0,013	-0,043
-291,891	-17,556	-0,039	-0,018
-290,876	-28,735	0,068	-0,029
-289,862	-158,077	-0,041	-0,002
-288,847	800,000	-0,017	-0,037
-287,832	-200,000	0,005	0,029
-286,818	-38,815	-0,093	0,036
-285,803	-151,159	0,160	-0,009
-284,789	-7,697	0,036	-0,018
-283,774	-57,949	0,146	0,046
-282,759	57,442	-0,100	-0,071
-281,745	-197,938	-0,020	0,000
-280,730	10,646	-0,022	0,012
-279,716	-200,000	-0,026	0,175
-278,701	81,970	0,081	0,064
-277,686	-200,000	0,028	0,099
-276,672	-150,896	0,201	0,011
-275,657	-200,000	-0,037	-0,128
-274,643	-200,000	0,013	-0,106
-273,628	770,771	0,034	-0,067
-272,613	-200,000	-0,023	0,107
-271,599	-24,276	-0,082	0,036
-270,584	-120,782	0,031	0,004
-269,570	-200,000	0,018	0,084
-268,555	-42,903	0,124	0,046
-267,540	574,285	-0,088	0,157
-266,526	-200,000	-0,024	-0,106
-265,511	134,697	-0,045	-0,043
-264,497	155,845	-0,032	-0,032
-263,482	10,927	0,096	-0,054
-262,467	-200,000	-0,018	-0,086
-261,453	-200,000	0,002	-0,058
-260,438	-200,000	-0,028	-0,091
-259,424	-200,000	-0,025	-0,116
-258,409	-200,000	-0,024	0,088
-257,395	317,132	0,078	0,108
-256,380	-130,245	0,104	0,010
-255,365	800,000	0,011	-0,025
-254,351	216,262	0,019	0,022
-253,336	674,122	-0,064	-0,123
-252,322	-198,523	-0,154	-0,001
-251,307	800,000	-0,036	0,085
-250,292	-200,000	-0,006	-0,052
-249,278	-200,000	-0,045	0,208
-248,263	-99,113	0,125	-0,023
-247,249	-133,922	-0,073	0,007
-246,234	210,567	0,031	-0,036
-245,219	12,608	-0,070	-0,039
-244,205	-200,000	0,019	0,072
-243,190	288,527	-0,057	0,076
-242,176	147,757	-0,114	0,112
-241,161	-200,000	-0,021	0,083
-240,146	2,451	0,036	-0,019
-239,132	130,812	-0,062	-0,058
-238,117	276,022	-0,109	0,142
-237,103	800,000	-0,031	-0,079
-236,088	249,866	0,095	-0,118
-235,073	-9,841	0,083	-0,040
-234,059	-18,462	0,065	0,029
-233,044	-27,251	0,051	0,021
-232,030	-200,000	-0,013	-0,133
-231,015	-168,832	0,109	-0,003
-230,000	88,317	-0,025	-0,020
-228,986	-42,844	-0,134	0,050
-227,971	-41,574	0,144	0,054
-226,957	63,293	0,043	0,031
-225,942	-44,174	-0,125	0,046
-224,927	800,000	0,017	-0,049
-223,913	297,963	-0,111	-0,149
-222,898	-66,546	0,127	0,037
-221,884	-92,293	-0,106	0,022
-220,869	184,797	-0,053	-0,057
-219,855	-200,000	0,019	-0,101
-218,840	148,110	0,025	0,025
-217,825	-200,000	-0,015	0,055
-216,811	113,131	-0,089	0,079
-215,796	334,330	-0,062	-0,088
-214,782	326,635	-0,062	-0,087
-213,767	751,932	-0,022	0,044
-212,752	-200,000	0,004	0,045
-211,738	61,275	0,092	0,066
-210,723	54,770	0,051	-0,036
-209,709	800,000	-0,038	-0,078
-208,694	45,168	0,063	0,043
-207,679	-4,369	-0,074	-0,037
-206,665	-30,910	0,032	0,013
-205,650	57,021	0,030	-0,021
-204,636	135,573	0,065	-0,062
-203,621	-24,647	-0,076	-0,033
-202,606	210,180	0,061	0,070
-201,592	800,000	-0,043	-0,091
-200,577	603,770	0,031	-0,057
-199,563	-149,220	0,153	0,009
-198,548	800,000	-0,040	-0,094
-197,533	299,323	-0,102	-0,138
-196,519	-200,000	-0,000	-0,040
-195,504	215,266	-0,019	0,022
-194,490	615,773	0,074	-0,137
-193,475	186,026	-0,101	-0,110
-192,460	-136,095	0,048	-0,004
-191,446	663,279	0,051	-0,097
-190,431	-200,000	0,027	-0,123
-189,417	-79,374	-0,214	-0,052
-188,402	-118,579	0,077	0,010
-187,387	476,864	-0,013	-0,021
-186,373	467,961	-0,067	-0,110
-185,358	-33,993	0,095	-0,038
-184,344	-142,150	-0,106	-0,008
-183,329	-200,000	-0,006	0,104
-182,315	3,284	-0,016	0,008
-181,300	-200,000	-0,033	-0,149
-180,285	195,185	0,034	-0,037
-179,271	800,000	0,030	-0,076
-178,256	-200,000	-0,013	-0,127
-177,242	5,172	-0,014	-0,008
-176,227	54,377	-0,025	0,018
-175,212	-200,000	0,022	0,076
-174,198	147,241	0,103	0,102
-173,183	21,755	-0,104	-0,062
-172,169	-50,356	-0,158	0,054
-171,154	-200,000	-0,002	-0,066
-170,139	800,000	0,018	-0,045
-169,125	315,703	-0,043	-0,059
-168,110	-110,080	0,142	0,021
-167,096	-63,402	-0,100	0,030
-166,081	186,812	-0,019	-0,021
-165,066	-187,561	-0,049	0,000
-164,052	-158,497	0,058	-0,002
-163,037	256,421	0,022	-0,027
-162,023	-23,717	0,100	-0,044
-161,008	113,949	-0,030	-0,026
-159,993	-24,323	0,074	-0,032
-158,979	800,000	0,053	0,164
-157,964	-200,000	0,035	0,133
-156,950	585,868	-0,033	0,060
-155,935	57,920	-0,072	0,051
-154,920	606,767	0,052	-0,096
-153,906	60,644	0,044	0,032
-152,891	800,000	-0,059	0,128
-151,877	93,626	-0,058	-0,048
-150,862	-200,000	0,017	-0,142
-149,847	251,998	-0,052	-0,064
-148,833	-161,621	0,049	-0,002
-147,818	800,000	0,055	0,123
-146,804	-200,000	-0,023	0,101
-145,789	-38,992	0,109	0,041
-144,775	-79,711	-0,100	0,024
-143,760	-72,000	-0,112	0,030
-142,745	-96,228	0,053	-0,010
-141,731	46,297	0,028	-0,019
-140,716	-200,000	-0,042	0,134
-139,702	800,000	0,066	0,149
-138,687	23,392	0,087	-0,052
-137,672	-1,199	0,040	0,020
-136,658	184,575	-0,057	-0,062
-135,643	37,415	0,036	-0,023
-134,629	435,506	-0,027	-0,044
-133,614	-23,189	-0,137	-0,060
-132,599	473,504	0,081	0,134
-131,585	182,501	0,024	0,026
-130,570	-43,753	-0,132	0,048
-129,556	800,000	-0,059	-0,127
-128,541	-57,548	-0,086	0,027
-127,526	-200,000	0,014	-0,097
-126,512	-161,950	0,100	0,004
-125,497	36,904	-0,065	-0,042
-124,483	-200,000	0,019	0,112
-123,468	380,643	-0,027	0,041
-122,453	-200,000	-0,019	0,120
-121,439	-183,890	0,128	-0,002
-120,424	-107,844	0,085	-0,013
-119,410	-200,000	-0,006	0,163
-118,395	5,149	0,090	-0,048
-117,380	800,000	0,039	0,113
-116,366	-200,000	0,013	-0,111
-115,351	274,956	0,017	0,022
-114,337	-200,000	0,001	-0,135
-113,322	800,000	0,042	-0,098
-112,307	8,690	0,093	0,051
-111,293	-111,246	0,150	-0,022
-110,278	-105,625	0,065	-0,011
-109,264	-200,000	0,018	-0,114
-108,249	-9,676	-0,251	-0,121
-107,234	-92,823	-0,071	-0,014
-106,220	-95,310	-0,062	-0,012
-105,205	800,000	0,017	0,046
-104,191	-173,203	0,083	-0,002
-103,176	-200,000	-0,020	0,225
-102,162	-22,060	0,094	-0,042
-101,147	800,000	-0,028	-0,091
-100,132	416,889	-0,084	0,131
-99,118	15,069	0,128	-0,073
-98,103	-25,585	-0,130	0,055
-97,089	-40,107	0,191	-0,072
-96,074	-110,987	0,078	0,012
-95,059	800,000	-0,025	-0,064
-94,045	-200,000	0,025	0,118
-93,030	178,409	0,057	-0,061
-92,016	800,000	0,041	-0,095
-91,001	-133,477	0,102	0,009
-89,986	-117,648	-0,026	-0,003
-88,972	-161,175	0,114	-0,004
-87,957	126,219	0,072	0,066
-86,943	-148,531	0,102	-0,006
-85,928	-200,000	0,005	-0,109
-84,913	-200,000	0,014	0,079
-83,899	-186,526	0,110	0,001
-82,884	-128,582	-0,044	-0,004
-81,870	-52,667	-0,091	-0,030
-80,855	800,000	0,024	0,067
-79,840	70,864	-0,066	0,050
-78,826	139,778	-0,078	-0,075
-77,811	-75,977	-0,075	0,019
-76,797	-139,706	0,197	0,015
-75,782	245,072	0,072	0,089
-74,767	-200,000	-0,006	0,039
-73,753	127,158	0,115	0,106
-72,738	61,741	-0,046	-0,033
-71,724	567,314	0,063	0,112
-70,709	-50,495	0,067	-0,023
-69,694	150,382	-0,079	0,078
-68,680	198,264	0,071	0,079
-67,665	-200,000	-0,030	0,145
-66,651	199,760	0,080	0,089
-65,636	-200,000	0,005	0,093
-64,622	-200,000	0,019	0,143
-63,607	391,595	0,011	-0,016
-62,592	-200,000	-0,019	0,171
-61,578	800,000	-0,025	-0,069
-60,563	-200,000	0,045	-0,158
-59,549	27,750	0,060	-0,036
-58,534	-108,490	-1,298	-0,201
-57,519	620,954	-0,773	-1,418
-56,505	-200,000	-0,835	-4,429
-55,490	48,423	0,640	-0,435
-54,476	800,000	5,015	11,955
-53,461	-200,000	13,620	253,276
-52,446	-200,000	690,263	2256,339
-51,432	588,936	1622,487	2913,525
-50,417	118,817	1634,623	1465,608
-49,403	73,010	1288,628	976,160
-48,388	37,927	1024,140	659,329
-47,373	24,231	982,071	587,179
-46,359	23,423	971,550	578,217
-45,344	22,478	967,306	572,579
-44,330	22,491	965,723	571,662
-43,315	22,336	964,274	570,277
-42,300	22,294	963,340	569,566
-41,286	22,366	962,309	569,167
-40,271	22,289	961,340	568,319
-39,257	22,268	960,437	567,694
-38,242	22,335	959,444	567,305
-37,227	22,203	958,688	566,408
-36,213	22,227	957,776	565,922
-35,198	22,191	956,964	565,304
-34,184	22,261	956,296	565,112
-33,169	22,309	955,337	564,679
-32,154	22,302	954,366	564,059
-31,140	22,274	953,621	563,508
-30,125	22,299	952,918	563,152
-29,111	22,320	951,990	562,647
-28,096	22,322	951,334	562,245
-27,082	22,280	950,713	561,720
-26,067	22,267	949,929	561,192
-25,052	22,221	949,240	560,616
-24,038	22,290	948,393	560,313
-23,023	22,343	947,660	560,029
-22,009	22,388	947,082	559,808
-20,994	22,315	946,554	559,242
-19,979	22,205	946,012	558,546
-18,965	22,313	945,328	558,466
-17,950	22,366	944,649	558,212
-16,936	22,230	944,107	557,437
-15,921	22,283	943,126	557,004
-14,906	22,180	942,721	556,412
-13,892	22,156	942,045	555,917
-12,877	22,181	941,425	555,608
-11,863	22,140	940,767	555,067
-10,848	22,148	940,269	554,776
-9,833	22,296	939,737	554,912
-8,819	22,311	939,061	554,535
-7,804	22,239	938,444	553,923
-6,790	22,200	937,802	553,398
-5,775	22,214	937,395	553,179
-4,760	22,257	936,589	552,819
-3,746	22,149	936,011	552,114
-2,731	22,031	935,482	551,407
-1,717	21,993	934,687	550,796
-0,702	22,007	933,859	550,332
0,313	21,838	933,212	550,246
1,327	24,953	931,398	558,926
2,342	34,779	795,907	503,789
3,356	32,772	451,692	282,859
4,371	1,686	293,952	153,042
5,386	-2,943	274,961	138,757
6,400	-4,348	269,174	134,518
7,415	-4,941	266,594	132,671
8,429	-4,615	265,385	132,358
9,444	-4,646	264,605	131,927
10,459	-4,669	263,956	131,572
11,473	-4,536	263,248	131,328
12,488	-4,747	262,841	130,921
13,502	-4,919	262,455	130,562
14,517	-4,640	261,772	130,462
15,531	-4,585	261,369	130,300
16,546	-4,483	261,102	130,247
17,561	-4,699	260,846	129,914
18,575	-4,648	260,596	129,823
19,590	-5,021	260,282	129,320
20,604	-4,514	259,820	129,534
21,619	-4,744	259,544	129,179
22,634	-4,567	259,155	129,132
23,648	-4,742	258,923	128,848
24,663	-4,755	258,563	128,646
25,677	-4,695	258,491	128,652
26,692	-4,819	258,062	128,316
27,707	-4,853	257,868	128,178
28,721	-4,995	257,615	127,915
29,736	-4,771	257,360	127,976
30,750	-4,916	257,143	127,728
31,765	-4,921	256,981	127,632
32,780	-4,781	256,670	127,590
33,794	-4,828	256,458	127,431
34,809	-4,846	256,198	127,275
35,823	-4,846	255,947	127,139
36,838	-4,811	255,561	126,967
37,853	-4,732	255,475	126,983
38,867	-4,878	255,378	126,795
39,882	-4,977	255,029	126,523
40,896	-4,994	254,845	126,406
41,911	-4,837	254,544	126,382
42,926	-4,928	254,311	126,176
43,940	-4,922	254,000	126,015
44,955	-5,025	253,898	125,863
45,969	-4,985	253,641	125,760
46,984	-5,329	253,513	125,385
47,999	-5,512	253,242	125,081
49,013	-5,198	252,798	125,123
50,028	-5,383	252,573	124,839
51,042	-5,561	252,291	124,535
52,057	-5,792	252,150	124,254
53,071	-5,820	252,087	124,187
54,086	-5,544	251,819	124,283
55,101	-5,452	251,667	124,277
56,115	-5,138	251,430	124,421
57,130	-4,973	251,488	124,581
58,144	-4,521	251,202	124,818
59,159	-4,697	251,135	124,622
60,174	-4,682	250,822	124,468
61,188	-4,685	250,727	124,407
62,203	-4,472	250,309	124,372
63,217	-4,811	250,289	124,059
64,232	-4,681	250,080	124,056
65,247	-4,821	249,882	123,827
66,261	-4,974	249,570	123,530
67,276	-5,099	249,286	123,272
68,290	-5,230	249,161	123,087
69,305	-5,318	248,893	122,868
70,320	-5,284	248,819	122,849
71,334	-5,010	248,615	122,972
72,349	-4,820	248,457	123,044
73,363	-4,649	248,335	123,119
74,378	-4,547	248,040	123,049
75,393	-4,690	247,726	122,761
76,407	-4,718	247,662	122,694
77,422	-4,804	247,423	122,491
78,436	-4,671	247,297	122,531
79,451	-4,729	246,999	122,323
80,466	-4,818	246,755	122,117
81,480	-5,058	246,540	121,796
82,495	-5,118	246,412	121,671
83,509	-5,070	246,224	121,608
84,524	-5,070	245,955	121,465
85,539	-5,158	245,747	121,277
86,553	-5,031	245,325	121,165
87,568	-5,229	245,325	120,987
88,582	-5,099	245,191	121,020
89,597	-5,178	245,088	120,892
90,611	-4,956	244,953	121,000
91,626	-5,021	244,868	120,893
92,641	-4,774	244,488	120,902
93,655	-4,705	244,269	120,841
94,670	-4,841	244,131	120,648
95,684	-4,872	244,048	120,570
96,699	-4,710	243,683	120,515
97,714	-5,054	243,645	120,197
98,728	-5,152	243,437	120,003
99,743	-5,254	243,150	119,766
100,757	-5,257	243,054	119,705
101,772	-5,067	242,756	119,706
102,787	-5,128	242,668	119,601
103,801	-4,910	242,430	119,653
104,816	-4,956	242,458	119,618
105,830	-4,788	242,149	119,595
106,845	-4,745	242,031	119,561
107,860	-4,940	241,851	119,300
108,874	-5,074	241,685	119,098
109,889	-5,039	241,410	118,980
110,903	-4,999	241,146	118,872
111,918	-5,112	241,052	118,722
112,933	-5,026	240,899	118,707
113,947	-4,903	240,740	118,719
114,962	-4,900	240,390	118,538
115,976	-4,920	240,394	118,513
116,991	-4,636	240,209	118,645
118,006	-4,995	240,071	118,272
119,020	-4,620	239,814	118,442
120,035	-4,809	239,784	118,262
121,049	-4,891	239,679	118,133
122,064	-4,726	239,475	118,156
123,079	-4,894	239,229	117,887
124,093	-4,989	238,889	117,631
125,108	-5,088	238,745	117,469
126,122	-5,131	238,543	117,324
127,137	-5,469	238,539	117,036
128,151	-5,338	238,199	116,966
129,166	-5,268	238,113	116,969
130,181	-5,137	237,918	116,970
131,195	-5,105	237,542	116,801
132,210	-5,033	237,450	116,804
133,224	-5,068	237,462	116,770
134,239	-4,875	237,272	116,823
135,254	-4,809	237,042	116,752
136,268	-4,964	236,772	116,485
137,283	-5,211	236,650	116,214
138,297	-5,109	236,347	116,138
139,312	-5,321	236,239	115,903
140,327	-5,004	236,136	116,097
141,341	-4,481	236,102	116,492
142,356	-4,634	235,956	116,287
143,370	-4,584	235,897	116,287
144,385	-4,496	235,648	116,225
145,400	-4,549	235,582	116,140
146,414	-4,530	235,276	115,994
147,429	-4,683	235,323	115,883
148,443	-4,560	235,012	115,819
149,458	-4,617	234,704	115,610
150,473	-4,549	234,611	115,609
151,487	-4,821	234,496	115,324
152,502	-4,653	234,371	115,387
153,516	-4,597	234,160	115,318
154,531	-4,554	233,995	115,260
155,546	-4,607	233,821	115,122
156,560	-4,770	233,582	114,864
157,575	-4,930	233,453	114,663
158,589	-4,758	233,288	114,709
159,604	-4,595	233,206	114,788
160,619	-4,580	232,933	114,655
161,633	-4,590	232,966	114,654
162,648	-4,592	232,857	114,588
163,662	-4,439	232,672	114,608
164,677	-4,592	232,300	114,294
165,692	-4,553	232,216	114,272
166,706	-4,763	232,159	114,068
167,721	-4,378	231,750	114,161
168,735	-4,353	231,827	114,209
169,750	-4,576	231,739	113,979
170,764	-4,629	231,555	113,836
171,779	-4,493	231,287	113,802
172,794	-4,549	231,259	113,734
173,808	-4,645	231,046	113,543
174,823	-5,171	230,738	112,969
175,837	-5,165	230,430	112,813
176,852	-4,859	230,417	113,036
177,867	-4,920	230,535	113,036
178,881	-4,540	230,250	113,183
179,896	-4,580	230,088	113,062
180,910	-4,729	229,904	112,846
181,925	-4,472	229,841	113,006
182,940	-4,410	229,644	112,947
183,954	-4,427	229,508	112,857
184,969	-4,524	229,396	112,716
185,983	-4,372	229,242	112,749
186,998	-4,464	229,129	112,611
188,013	-4,331	228,918	112,601
189,027	-4,378	228,731	112,463
190,042	-4,369	228,612	112,401
191,056	-4,379	228,432	112,295
192,071	-4,215	228,233	112,314
193,086	-4,555	228,056	111,953
194,100	-4,601	227,890	111,827
195,115	-4,536	227,421	111,637
196,129	-5,255	227,343	111,033
197,144	-1,818	228,420	114,214
198,159	2,226	229,673	117,975
199,173	4,174	229,935	119,612
200,188	4,271	229,928	119,673
201,202	4,310	229,839	119,646
202,217	4,719	229,622	119,840
203,232	4,600	229,579	119,714
204,246	4,914	229,497	119,904
205,261	4,672	229,435	119,674
206,275	4,954	229,201	119,759
207,290	5,023	229,116	119,757
208,304	5,038	228,871	119,630
209,319	4,870	228,799	119,453
210,334	4,739	228,577	119,224
211,348	4,610	228,211	118,924
212,363	4,511	227,957	118,705
213,377	4,193	227,718	118,325
214,392	4,373	227,620	118,402
215,407	4,169	227,521	118,184
216,421	4,334	227,392	118,233
217,436	4,371	227,162	118,131
218,450	3,983	227,034	117,757
219,465	3,548	226,872	117,329
220,480	3,936	226,723	117,539
221,494	3,831	226,714	117,443
222,509	4,136	226,670	117,643
223,523	4,153	226,342	117,475
224,538	3,974	226,158	117,232
225,553	3,987	226,131	117,218
226,567	4,218	225,992	117,311
227,582	4,430	225,905	117,417
228,596	4,585	225,809	117,474
229,611	4,210	225,477	117,007
230,626	3,917	225,301	116,683
231,640	4,077	225,149	116,715
232,655	4,236	225,063	116,780
233,669	4,748	225,065	117,159
234,684	4,907	225,036	117,253
235,699	4,522	224,776	116,817
236,713	3,967	224,498	116,242
237,728	3,981	224,326	116,153
238,742	4,081	224,070	116,086
239,757	3,983	224,078	116,005
240,772	3,977	223,774	115,833
241,786	3,998	223,726	115,815
242,801	4,370	223,557	115,996
243,815	4,441	223,545	116,033
244,830	4,371	223,247	115,815
245,844	4,167	223,140	115,597
246,859	4,139	222,997	115,491
247,874	4,315	222,914	115,570
248,888	4,308	222,911	115,552
249,903	4,243	222,619	115,342
250,917	3,923	222,575	115,070
251,932	3,945	222,332	114,951
252,947	4,206	221,982	114,954
253,961	3,860	221,986	114,688
254,976	3,928	221,844	114,655
255,990	4,239	221,742	114,824
257,005	4,311	221,650	114,819
258,020	4,176	221,533	114,648
259,034	4,404	221,517	114,799
260,049	4,583	221,176	114,745
261,063	4,204	221,080	114,403
262,078	4,307	221,044	114,452
263,093	4,673	220,885	114,630
264,107	4,329	220,586	114,210
265,122	4,447	220,520	114,253
266,136	4,649	220,450	114,356
267,151	4,468	220,265	114,116
268,166	4,103	220,040	113,720
269,180	4,088	219,774	113,561
270,195	3,777	219,631	113,248
271,209	3,843	219,604	113,272
272,224	4,036	219,433	113,316
273,239	4,173	219,341	113,359
274,253	3,932	219,090	113,043
275,268	3,965	218,932	112,975
276,282	3,820	218,856	112,820
277,297	3,756	218,546	112,603
278,312	3,820	218,584	112,659
279,326	4,278	218,317	112,847
280,341	3,778	218,296	112,459
281,355	4,081	218,263	112,655
282,370	3,951	218,108	112,470
283,384	4,161	217,837	112,473
284,399	3,828	217,695	112,147
285,414	3,764	217,559	112,020
286,428	4,050	217,574	112,227
287,443	4,039	217,441	112,140
288,457	4,242	217,262	112,185
289,472	4,025	217,075	111,921
290,487	3,887	216,735	111,635
291,501	3,733	216,561	111,424
292,516	3,873	216,489	111,479
293,530	4,059	216,326	111,519
294,545	3,902	216,237	111,350
295,560	3,798	216,236	111,264
296,574	4,214	215,849	111,355
297,589	3,873	216,020	111,187
298,603	4,479	215,759	111,481
299,618	4,125	215,641	111,154
300,633	4,109	215,552	111,087
301,647	4,360	215,508	111,235
302,662	4,527	215,284	111,230
303,676	4,200	215,187	110,935
304,691	4,272	214,997	110,879
305,706	4,379	215,030	110,963
306,720	4,375	214,701	110,780
307,735	4,238	214,455	110,546
308,749	4,069	214,403	110,387
309,764	4,360	214,445	110,607
310,779	4,304	214,273	110,469
311,793	4,305	214,033	110,336
312,808	4,056	213,963	110,112
313,822	4,104	213,808	110,057
314,837	4,162	213,542	109,951
315,852	4,011	213,355	109,738
316,866	3,992	213,416	109,745
317,881	4,459	213,238	109,977
318,895	4,176	213,094	109,692
319,910	4,141	212,805	109,508
320,925	3,766	212,747	109,202
321,939	3,416	212,586	108,861
322,954	3,584	212,433	108,892
323,968	3,994	212,523	109,220
324,983	4,172	212,284	109,213
325,997	4,407	212,140	109,296
327,012	4,176	212,054	109,078
328,027	4,377	211,758	109,059
329,041	4,599	211,906	109,282
330,056	4,592	211,738	109,181
331,070	4,308	211,349	108,770
332,085	3,984	211,142	108,426
333,100	4,146	211,198	108,559
334,114	4,278	211,016	108,548
335,129	4,231	210,835	108,413
336,143	3,958	210,621	108,101
337,158	3,737	210,684	107,968
338,173	3,953	210,505	108,019
339,187	3,740	210,309	107,759
340,202	3,892	210,042	107,719
341,216	3,731	210,053	107,603
342,231	3,804	209,819	107,524
343,246	3,915	209,766	107,565
344,260	4,075	209,686	107,627
345,275	4,022	209,584	107,527
346,289	3,959	209,576	107,469
347,304	4,192	209,349	107,506
348,319	4,031	209,233	107,325
349,333	3,784	209,087	107,068
350,348	4,159	208,866	107,206
351,362	4,363	208,734	107,271
352,377	4,277	208,689	107,178
353,392	3,874	208,629	106,858
354,406	4,093	208,390	106,878
355,421	194,146	1344,828	1434,411
356,435	154,920	1483,391	1434,537
