DTS Sentinel unit serial number:	SN410029Multiplexer serial number:	ORYXHardware model number:	OX2-SRSoftware version number:	ORYX F/W v4,00 Oryx Data Collector v3.7.2.0data status	okinstallation	B6 Nyhavnadifferential loss correction	single-endedforward channel	channel 2reverse channel	N/Adate	2023/12/07time	16:20:08forward acquisition time	300,00reverse acquisition time	0,00gamma	499,1914k internal	0,3164k external	0,3164temperature offset calibration	1,0000default loss term (dB/km)	0,3820temperature slope calibration	1,0000multiplexer offset coefficient	1,0000multiplexer slope coefficient	1,0000fibre end	0,00T internal ref (°C)	14,51T ext. ref 1 (°C)	-2,12T ext. ref 2 (°C)	-2,12length (m)	temperature (°C)	Stokes	anti-Stokes-744,400	800,000	0,023	-0,063
-743,385	-91,793	-0,221	-0,046
-742,371	587,761	0,036	-0,066
-741,356	-116,028	-0,266	0,036
-740,342	-10,728	0,104	0,050
-739,327	-124,926	-0,377	-0,042
-738,312	-74,206	0,136	-0,036
-737,298	101,395	-0,205	0,176
-736,283	-99,231	0,085	-0,016
-735,269	-86,886	-0,315	-0,070
-734,254	498,718	0,067	0,115
-733,239	-22,450	-0,355	-0,157
-732,225	-52,992	0,236	0,079
-731,210	-200,000	0,004	0,055
-730,196	-79,798	-0,109	-0,027
-729,181	125,317	0,083	-0,077
-728,167	436,196	0,023	-0,036
-727,152	800,000	-0,025	-0,064
-726,137	-74,235	-0,117	-0,031
-725,123	24,517	0,148	-0,090
-724,108	800,000	-0,075	-0,172
-723,094	-47,560	-0,145	-0,051
-722,079	81,482	-0,071	-0,057
-721,064	-200,000	0,019	-0,068
-720,050	164,984	-0,115	-0,120
-719,035	78,653	-0,028	-0,022
-718,021	425,938	-0,022	-0,035
-717,006	5,678	-0,110	-0,060
-715,991	456,932	0,053	-0,086
-714,977	487,576	-0,038	-0,065
-713,962	-42,741	0,037	0,014
-712,948	-200,000	-0,001	-0,022
-711,933	-200,000	0,021	-0,094
-710,918	104,583	0,068	0,059
-709,904	237,569	-0,101	-0,123
-708,889	106,981	0,057	-0,050
-707,875	-9,535	-0,068	-0,033
-706,860	800,000	-0,056	-0,165
-705,845	213,507	0,052	0,061
-704,831	379,420	-0,014	0,022
-703,816	-200,000	0,025	-0,140
-702,802	102,243	0,027	0,023
-701,787	-200,000	0,013	-0,047
-700,772	800,000	-0,033	-0,088
-699,758	43,316	0,106	-0,071
-698,743	490,970	0,020	-0,034
-697,729	19,370	0,082	-0,048
-696,714	155,114	0,029	0,029
-695,699	-200,000	-0,008	0,159
-694,685	48,476	0,117	-0,081
-693,670	-200,000	0,022	-0,140
-692,656	-89,596	-0,078	-0,017
-691,641	172,736	0,060	-0,064
-690,627	-110,678	-0,061	-0,009
-689,612	800,000	-0,029	0,076
-688,597	130,732	0,049	-0,047
-687,583	7,170	-0,063	-0,035
-686,568	106,451	0,024	0,021
-685,554	-200,000	-0,002	-0,058
-684,539	-54,205	0,101	-0,033
-683,524	-7,721	0,051	-0,025
-682,510	90,109	0,100	0,082
-681,495	13,656	0,015	-0,009
-680,481	13,018	-0,151	-0,086
-679,466	103,834	0,083	-0,071
-678,451	-50,528	-0,027	0,009
-677,437	-97,092	-0,114	-0,022
-676,422	368,921	-0,027	-0,040
-675,408	218,855	-0,036	0,042
-674,393	137,137	-0,061	-0,059
-673,378	-79,105	-0,038	-0,009
-672,364	135,348	-0,079	0,076
-671,349	534,365	-0,033	0,057
-670,335	-2,086	-0,087	-0,044
-669,320	107,966	0,084	-0,074
-668,305	41,779	-0,058	0,038
-667,291	78,846	0,062	-0,048
-666,276	611,488	-0,076	0,140
-665,262	-200,000	0,001	-0,144
-664,247	-200,000	0,021	0,117
-663,232	-200,000	0,010	-0,073
-662,218	-161,591	0,075	-0,003
-661,203	565,298	-0,041	-0,073
-660,189	800,000	-0,070	0,148
-659,174	-114,867	-0,084	0,012
-658,159	-200,000	0,020	-0,066
-657,145	-92,141	0,026	-0,005
-656,130	154,155	0,047	0,047
-655,116	219,339	0,063	-0,074
-654,101	-41,100	0,073	0,027
-653,086	-4,646	-0,130	0,065
-652,072	104,943	0,076	-0,066
-651,057	504,334	-0,037	-0,063
-650,043	-200,000	-0,012	0,081
-649,028	20,171	0,007	-0,004
-648,014	297,636	0,095	0,128
-646,999	379,303	-0,049	0,073
-645,984	-10,449	-0,054	-0,026
-644,970	-69,373	-0,140	0,039
-643,955	800,000	-0,037	-0,110
-642,941	1,990	-0,147	-0,078
-641,926	-200,000	-0,014	0,069
-640,911	110,305	0,025	0,022
-639,897	-200,000	-0,001	0,088
-638,882	274,840	-0,037	-0,049
-637,868	-200,000	-0,102	0,000
-636,853	400,354	-0,093	-0,144
-635,838	463,586	-0,058	0,096
-634,824	-200,000	-0,009	-0,055
-633,809	-66,660	0,105	0,030
-632,795	-200,000	0,038	0,163
-631,780	121,026	-0,066	0,061
-630,765	800,000	-0,020	-0,055
-629,751	-97,849	-0,195	0,037
-628,736	326,971	0,043	0,061
-627,722	-200,000	0,008	-0,080
-626,707	-163,183	-0,016	-0,001
-625,692	-200,000	-0,004	0,070
-624,678	287,798	-0,056	0,075
-623,663	140,774	-0,049	0,047
-622,649	166,469	0,063	0,066
-621,634	339,287	-0,058	0,082
-620,619	154,443	-0,080	0,080
-619,605	-200,000	0,018	-0,155
-618,590	800,000	-0,039	0,103
-617,576	364,842	-0,073	0,108
-616,561	150,279	0,026	0,026
-615,546	-200,000	0,002	-0,069
-614,532	301,221	0,018	-0,025
-613,517	-200,000	0,001	0,043
-612,503	1,468	0,073	-0,038
-611,488	129,503	-0,078	0,073
-610,474	-200,000	0,008	0,032
-609,459	800,000	-0,027	0,088
-608,444	617,255	-0,063	-0,117
-607,430	-89,634	-0,110	0,023
-606,415	691,241	-0,047	-0,090
-605,401	231,211	0,025	0,030
-604,386	7,269	-0,046	0,025
-603,371	800,000	-0,027	0,059
-602,357	121,334	0,019	-0,017
-601,342	-8,123	0,135	0,066
-600,328	162,442	-0,125	-0,129
-599,313	41,904	0,037	-0,025
-598,298	-200,000	-0,004	0,085
-597,284	220,774	0,016	-0,019
-596,269	800,000	-0,037	-0,108
-595,255	-28,828	0,038	-0,016
-594,240	-171,317	-0,076	-0,002
-593,225	-63,790	-0,195	-0,058
-592,211	57,743	0,034	0,024
-591,196	62,151	-0,057	-0,041
-590,182	-100,132	0,035	-0,006
-589,167	-34,002	0,102	-0,041
-588,152	160,154	-0,024	0,024
-587,138	-200,000	0,011	-0,064
-586,123	231,955	0,029	-0,035
-585,109	-200,000	-0,004	-0,113
-584,094	261,044	-0,089	-0,113
-583,079	5,371	-0,067	-0,036
-582,065	69,049	-0,002	-0,001
-581,050	615,474	-0,008	-0,016
-580,036	800,000	0,042	0,105
-579,021	160,758	0,157	-0,161
-578,006	82,471	0,046	-0,036
-576,992	140,148	0,029	-0,028
-575,977	-53,898	0,088	0,029
-574,963	8,441	0,151	0,083
-573,948	285,831	0,103	-0,137
-572,934	100,931	-0,007	0,006
-571,919	72,855	-0,078	-0,059
-570,904	800,000	0,029	-0,063
-569,890	-128,509	0,108	0,011
-568,875	-19,462	0,034	-0,015
-567,861	112,003	0,123	0,108
-566,846	-200,000	-0,002	0,053
-565,831	16,716	0,116	0,067
-564,817	800,000	0,015	0,037
-563,802	239,938	0,033	0,041
-562,788	800,000	0,041	0,130
-561,773	131,495	-0,040	-0,038
-560,758	-121,453	0,152	0,018
-559,744	-54,867	0,134	0,044
-558,729	558,730	-0,072	0,128
-557,715	38,484	-0,057	-0,037
-556,700	-200,000	-0,025	-0,161
-555,685	-123,727	-0,159	0,018
-554,671	-100,763	0,144	0,026
-553,656	-109,947	-0,043	0,006
-552,642	41,985	-0,108	0,072
-551,627	-78,395	0,080	-0,020
-550,612	777,757	-0,031	-0,062
-549,598	32,559	-0,243	-0,153
-548,583	377,570	-0,080	-0,120
-547,569	88,563	-0,072	0,059
-546,554	-10,076	0,116	0,056
-545,539	-1,527	0,056	-0,029
-544,525	-60,313	0,077	0,024
-543,510	489,434	-0,090	-0,151
-542,496	-45,735	0,166	-0,060
-541,481	264,367	0,047	-0,060
-540,466	68,844	-0,062	-0,047
-539,452	369,262	0,068	0,101
-538,437	-78,527	-0,048	0,012
-537,423	-200,000	-0,051	0,228
-536,408	800,000	-0,008	-0,021
-535,393	112,449	0,088	-0,078
-534,379	-200,000	0,003	-0,058
-533,364	-37,831	-0,074	-0,029
-532,350	22,114	0,137	-0,081
-531,335	120,249	-0,040	-0,036
-530,321	-200,000	0,024	-0,079
-529,306	-2,322	-0,120	-0,061
-528,291	29,600	-0,068	0,042
-527,277	13,423	-0,056	-0,031
-526,262	-106,308	0,061	0,010
-525,248	148,909	0,095	0,093
-524,233	-89,540	0,053	0,011
-523,218	800,000	-0,064	0,202
-522,204	-144,721	0,068	-0,005
-521,189	287,952	-0,054	-0,071
-520,175	388,470	0,039	-0,060
-519,160	-200,000	-0,010	-0,077
-518,145	-200,000	0,002	-0,076
-517,131	206,584	0,043	0,049
-516,116	-178,567	0,126	0,002
-515,102	8,605	0,029	0,016
-514,087	10,427	-0,034	0,019
-513,072	344,396	-0,068	-0,098
-512,058	207,460	0,029	-0,033
-511,043	-25,599	-0,044	-0,019
-510,029	-174,908	-0,017	0,000
-509,014	800,000	0,035	0,073
-507,999	-200,000	-0,005	-0,054
-506,985	-200,000	0,012	-0,069
-505,970	800,000	-0,057	0,126
-504,956	108,403	0,061	-0,053
-503,941	234,977	0,044	0,053
-502,926	-200,000	0,036	-0,139
-501,912	99,037	0,149	0,126
-500,897	-121,251	-0,070	0,008
-499,883	-200,000	-0,056	-0,284
-498,868	-200,000	-0,021	-0,093
-497,853	46,379	0,109	0,073
-496,839	-160,009	0,099	-0,004
-495,824	439,364	0,066	-0,105
-494,810	800,000	0,021	0,063
-493,795	-10,920	0,078	0,038
-492,781	566,340	0,042	-0,075
-491,766	-200,000	-0,010	-0,144
-490,751	153,361	-0,034	-0,034
-489,737	112,480	-0,049	0,043
-488,722	263,702	-0,028	-0,035
-487,708	61,622	0,025	0,018
-486,693	199,215	-0,060	-0,067
-485,678	112,587	-0,133	0,117
-484,664	-200,000	-0,005	-0,019
-483,649	-200,000	0,050	-0,216
-482,635	-101,837	0,093	-0,016
-481,620	800,000	0,054	0,143
-480,605	-200,000	0,003	0,078
-479,591	570,001	0,033	0,059
-478,576	-185,809	0,183	-0,002
-477,562	117,198	-0,015	-0,014
-476,547	340,604	0,070	-0,099
-475,532	-200,000	-0,013	0,052
-474,518	339,103	0,006	-0,008
-473,503	-200,000	0,042	0,188
-472,489	800,000	-0,024	0,069
-471,474	-34,637	-0,117	-0,046
-470,459	285,523	-0,034	0,045
-469,445	-11,863	-0,076	-0,036
-468,430	800,000	0,087	0,201
-467,416	-200,000	0,006	0,091
-466,401	800,000	0,023	0,067
-465,386	532,459	-0,054	0,094
-464,372	27,463	-0,055	-0,033
-463,357	19,802	0,172	0,100
-462,343	-70,740	0,044	-0,012
-461,328	-46,821	0,064	-0,023
-460,313	-139,412	-0,016	0,001
-459,299	-200,000	0,033	-0,109
-458,284	68,954	0,068	-0,051
-457,270	-200,000	-0,020	-0,149
-456,255	-200,000	-0,019	-0,095
-455,241	800,000	0,052	-0,141
-454,226	25,651	-0,113	0,068
-453,211	-200,000	0,011	0,054
-452,197	-200,000	0,004	0,036
-451,182	-62,330	-0,103	0,031
-450,168	390,368	-0,032	-0,049
-449,153	-200,000	0,004	0,043
-448,138	177,851	-0,120	-0,127
-447,124	-200,000	0,003	-0,048
-446,109	800,000	-0,044	0,127
-445,095	192,137	0,093	-0,102
-444,080	-91,088	-0,055	0,011
-443,065	-200,000	-0,033	0,158
-442,051	-200,000	0,005	-0,105
-441,036	-136,030	-0,041	0,003
-440,022	800,000	0,096	-0,229
-439,007	27,469	0,141	-0,086
-437,992	62,066	0,116	0,084
-436,978	163,302	0,113	0,116
-435,963	419,011	-0,022	-0,035
-434,949	1,594	0,045	0,024
-433,934	800,000	0,016	-0,046
-432,919	-200,000	-0,026	-0,110
-431,905	235,585	-0,023	-0,028
-430,890	-200,000	-0,007	-0,053
-429,876	-200,000	0,011	0,073
-428,861	-200,000	-0,004	0,102
-427,846	623,910	-0,038	0,069
-426,832	35,813	-0,087	0,055
-425,817	-200,000	-0,026	-0,096
-424,803	349,455	-0,010	-0,015
-423,788	800,000	-0,003	-0,007
-422,773	97,866	0,116	0,097
-421,759	539,952	0,023	0,040
-420,744	-59,221	-0,127	0,040
-419,730	270,374	0,147	-0,188
-418,715	-200,000	0,025	-0,099
-417,701	-89,643	0,085	-0,018
-416,686	800,000	0,041	-0,087
-415,671	-127,036	0,090	-0,009
-414,657	-200,000	-0,021	-0,084
-413,642	36,856	-0,136	-0,087
-412,628	-133,722	-0,180	-0,016
-411,613	-103,065	-0,042	0,007
-410,598	-172,412	-0,044	0,001
-409,584	-1,325	0,067	0,034
-408,569	-200,000	-0,006	0,175
-407,555	160,726	0,034	0,035
-406,540	-93,417	0,130	-0,026
-405,525	-200,000	0,014	0,046
-404,511	66,438	-0,031	-0,023
-403,496	-200,000	0,003	-0,009
-402,482	-81,363	0,082	0,020
-401,467	-200,000	0,003	0,051
-400,452	800,000	-0,052	0,143
-399,438	441,592	-0,013	0,021
-398,423	34,869	-0,052	-0,033
-397,409	212,100	0,146	-0,168
-396,394	435,336	0,043	0,068
-395,379	800,000	0,023	0,054
-394,365	192,509	0,029	-0,032
-393,350	55,892	0,066	0,046
-392,336	-200,000	-0,007	0,065
-391,321	218,330	0,046	-0,054
-390,306	260,774	0,041	0,052
-389,292	-200,000	-0,252	0,001
-388,277	-186,697	-0,138	-0,001
-387,263	-43,465	0,190	0,069
-386,248	310,917	0,084	0,115
-385,233	-52,293	0,072	0,024
-384,219	564,254	-0,021	0,037
-383,204	-137,419	-0,035	0,003
-382,190	-48,680	0,075	0,026
-381,175	-52,043	0,032	-0,011
-380,160	108,564	-0,064	-0,056
-379,146	-178,215	0,052	0,001
-378,131	696,193	-0,070	0,134
-377,117	141,710	-0,144	0,139
-376,102	-158,798	0,157	0,006
-375,088	442,283	-0,074	0,119
-374,073	-200,000	0,001	-0,019
-373,058	468,668	-0,015	-0,025
-372,044	91,439	0,147	0,119
-371,029	800,000	-0,052	0,112
-370,015	-124,147	0,086	-0,010
-369,000	713,110	-0,043	-0,084
-367,985	31,758	-0,161	-0,100
-366,971	-200,000	0,019	-0,107
-365,956	800,000	-0,024	0,066
-364,942	-6,876	0,068	0,033
-363,927	673,381	0,064	0,120
-362,912	78,417	-0,103	0,080
-361,898	-200,000	0,033	0,120
-360,883	-200,000	0,027	-0,119
-359,869	149,363	0,105	-0,103
-358,854	32,829	-0,070	-0,044
-357,839	170,648	-0,118	0,122
-356,825	800,000	0,063	0,145
-355,810	79,776	-0,149	0,116
-354,796	148,390	-0,023	0,023
-353,781	6,987	-0,092	0,050
-352,766	-73,864	-0,054	0,014
-351,752	-61,560	0,064	-0,019
-350,737	-200,000	0,005	-0,069
-349,723	-200,000	-0,011	-0,036
-348,708	-177,783	0,095	-0,002
-347,693	-157,500	0,132	0,006
-346,679	-28,716	0,179	0,074
-345,664	-200,000	-0,000	-0,055
-344,650	800,000	-0,021	-0,044
-343,635	143,883	-0,043	0,041
-342,620	-200,000	0,016	-0,084
-341,606	100,294	-0,020	-0,016
-340,591	76,675	-0,140	-0,107
-339,577	-200,000	-0,007	-0,022
-338,562	231,331	-0,044	-0,052
-337,548	95,047	-0,093	-0,077
-336,533	-175,220	-0,050	0,001
-335,518	-101,964	0,093	-0,016
-334,504	331,914	0,070	0,099
-333,489	-47,000	0,059	-0,021
-332,475	-14,964	-0,123	0,057
-331,460	-200,000	-0,016	-0,102
-330,445	800,000	0,061	-0,147
-329,431	156,214	-0,076	0,076
-328,416	-200,000	-0,024	0,097
-327,402	-10,702	0,026	0,012
-326,387	-15,910	0,043	-0,020
-325,372	-36,079	-0,029	-0,011
-324,358	-200,000	-0,053	-0,181
-323,343	251,464	0,016	-0,020
-322,329	41,831	0,021	-0,014
-321,314	-84,125	0,054	-0,012
-320,299	361,617	0,059	0,086
-319,285	800,000	0,047	-0,105
-318,270	-200,000	0,020	-0,133
-317,256	421,376	-0,063	0,098
-316,241	-2,122	-0,019	-0,010
-315,226	228,378	0,019	-0,023
-314,212	22,658	0,060	-0,036
-313,197	81,911	0,073	-0,058
-312,183	333,001	0,016	0,022
-311,168	-200,000	0,000	-0,025
-310,153	-200,000	-0,017	-0,056
-309,139	-110,395	0,135	-0,020
-308,124	478,361	-0,024	-0,039
-307,110	373,258	-0,065	0,095
-306,095	-34,282	-0,022	0,009
-305,080	74,442	-0,088	0,067
-304,066	700,503	-0,017	0,033
-303,051	264,946	-0,074	-0,093
-302,037	-200,000	0,043	0,000
-301,022	681,353	0,030	0,056
-300,008	-171,511	0,124	0,003
-298,993	800,000	-0,047	0,108
-297,978	-187,646	-0,023	-0,000
-296,964	-138,840	-0,088	0,007
-295,949	321,847	0,035	0,049
-294,935	800,000	0,029	0,080
-293,920	-90,972	-0,130	0,027
-292,905	800,000	-0,084	0,171
-291,891	-200,000	0,014	0,077
-290,876	-200,000	0,023	0,098
-289,862	229,176	-0,087	0,102
-288,847	-200,000	0,003	0,056
-287,832	-200,000	-0,014	0,081
-286,818	-200,000	-0,012	-0,063
-285,803	80,929	0,090	0,070
-284,789	-20,783	-0,043	-0,019
-283,774	-163,666	-0,010	-0,000
-282,759	17,907	-0,101	-0,058
-281,745	-120,849	-0,119	0,014
-280,730	640,090	-0,015	-0,028
-279,716	-200,000	0,023	0,218
-278,701	-96,134	-0,135	0,026
-277,686	-78,110	0,060	0,015
-276,672	-200,000	0,029	-0,115
-275,657	659,324	-0,025	0,046
-274,643	-200,000	0,004	-0,054
-273,628	-64,151	-0,113	0,033
-272,613	690,612	0,010	-0,018
-271,599	-94,583	0,115	-0,022
-270,584	405,461	-0,060	0,092
-269,570	-200,000	0,019	0,064
-268,555	-18,956	-0,085	0,038
-267,540	-200,000	-0,002	0,111
-266,526	-9,841	-0,128	-0,061
-265,511	-200,000	0,012	-0,075
-264,497	237,989	-0,031	-0,037
-263,482	451,662	0,029	-0,047
-262,467	713,372	0,048	-0,093
-261,453	97,188	-0,044	0,037
-260,438	126,010	-0,040	0,037
-259,424	-200,000	-0,011	-0,051
-258,409	519,092	-0,067	-0,113
-257,395	-138,125	0,193	-0,015
-256,380	-131,128	-0,080	0,008
-255,365	-95,697	-0,041	0,008
-254,351	2,671	0,115	0,060
-253,336	800,000	-0,035	0,091
-252,322	800,000	-0,042	-0,085
-251,307	45,724	0,048	-0,032
-250,292	387,729	-0,048	0,072
-249,278	-112,418	0,079	-0,011
-248,263	-77,283	-0,049	-0,012
-247,249	-200,000	0,000	0,086
-246,234	-103,855	0,072	-0,012
-245,219	-36,349	-0,172	-0,067
-244,205	-83,590	-0,155	-0,035
-243,190	-23,047	-0,057	-0,025
-242,176	356,623	-0,035	0,050
-241,161	-86,055	-0,105	-0,023
-240,146	-60,784	0,100	0,030
-239,132	-155,662	-0,078	-0,004
-238,117	-174,088	-0,017	0,000
-237,103	-38,381	-0,027	-0,010
-236,088	-200,000	0,023	-0,125
-235,073	-200,000	0,024	-0,091
-234,059	372,699	0,075	0,111
-233,044	-121,245	0,128	0,015
-232,030	32,562	-0,053	0,033
-231,015	31,773	-0,089	0,055
-230,000	29,065	0,043	-0,026
-228,986	231,807	-0,157	-0,186
-227,971	240,042	-0,089	-0,107
-226,957	-68,080	0,118	0,033
-225,942	800,000	0,020	-0,062
-224,927	565,743	0,033	-0,058
-223,913	800,000	0,061	-0,133
-222,898	-49,970	-0,024	0,008
-221,884	402,601	0,025	0,037
-220,869	-200,000	-0,001	0,035
-219,855	-112,502	-0,030	0,004
-218,840	161,862	0,060	0,060
-217,825	-46,917	-0,034	0,012
-216,811	800,000	-0,007	0,016
-215,796	-60,008	-0,217	-0,066
-214,782	-92,428	-0,140	-0,028
-213,767	-200,000	0,015	-0,158
-212,752	-11,787	0,074	-0,035
-211,738	-200,000	0,036	-0,130
-210,723	113,097	0,140	0,122
-209,709	167,539	0,080	-0,082
-208,694	-84,914	0,117	0,026
-207,679	800,000	0,019	0,054
-206,665	800,000	0,021	0,059
-205,650	17,505	0,083	-0,047
-204,636	-200,000	0,043	0,176
-203,621	-108,795	0,043	0,007
-202,606	52,464	-0,052	0,036
-201,592	261,729	-0,099	-0,124
-200,577	-13,309	-0,091	-0,042
-199,563	0,970	0,033	0,017
-198,548	-69,680	-0,136	0,037
-197,533	-200,000	-0,029	0,098
-196,519	-200,000	0,007	0,072
-195,504	-151,710	-0,199	0,010
-194,490	-117,876	0,110	0,014
-193,475	87,609	-0,082	-0,066
-192,460	564,826	0,080	-0,140
-191,446	-84,661	-0,073	0,016
-190,431	524,475	0,082	0,139
-189,417	-110,055	-0,121	-0,018
-188,402	365,469	0,050	-0,073
-187,387	23,968	0,052	-0,031
-186,373	219,691	0,024	0,028
-185,358	-7,017	0,079	-0,038
-184,344	-82,904	0,020	0,005
-183,329	296,481	0,043	-0,056
-182,315	800,000	0,044	0,136
-181,300	-130,908	0,135	-0,013
-180,285	-200,000	-0,007	-0,097
-179,271	-17,733	0,200	-0,090
-178,256	-2,110	-0,033	-0,017
-177,242	176,799	0,007	0,007
-176,227	-126,778	0,105	0,011
-175,212	-127,122	-0,033	0,003
-174,198	301,497	-0,084	0,112
-173,183	-200,000	-0,031	-0,101
-172,169	800,000	-0,021	-0,059
-171,154	800,000	0,039	-0,088
-170,139	251,763	0,093	-0,114
-169,125	-200,000	-0,023	0,123
-168,110	-200,000	0,015	0,131
-167,096	-200,000	-0,040	0,144
-166,081	-163,246	-0,128	0,004
-165,066	289,275	0,028	-0,036
-164,052	371,307	-0,012	-0,017
-163,037	-164,258	0,121	0,004
-162,023	-45,703	-0,031	-0,011
-161,008	-200,000	0,004	-0,029
-159,993	800,000	0,046	-0,100
-158,979	215,398	-0,047	-0,054
-157,964	-9,147	-0,082	-0,040
-156,950	-200,000	-0,101	-0,000
-155,935	800,000	0,038	0,094
-154,920	2,839	0,110	0,057
-153,906	-17,196	0,083	0,037
-152,891	-112,057	-0,082	-0,012
-151,877	800,000	0,035	0,107
-150,862	-200,000	0,019	-0,139
-149,847	414,502	-0,033	-0,051
-148,833	-200,000	0,013	0,084
-147,818	419,781	0,107	0,166
-146,804	280,206	0,135	0,174
-145,789	800,000	-0,041	0,097
-144,775	-82,893	-0,068	0,016
-143,760	-88,522	-0,052	-0,011
-142,745	55,781	-0,087	-0,060
-141,731	419,887	0,023	0,036
-140,716	563,189	0,030	0,052
-139,702	-200,000	-0,024	-0,104
-138,687	-200,000	-0,005	0,058
-137,672	-132,596	-0,122	-0,011
-136,658	-127,526	0,082	-0,008
-135,643	-85,976	-0,132	-0,029
-134,629	701,534	0,009	0,018
-133,614	800,000	-0,041	0,099
-132,599	10,527	0,056	-0,030
-131,585	-56,549	0,189	0,060
-130,570	89,344	0,069	0,055
-129,556	21,005	-0,124	0,072
-128,541	800,000	0,028	-0,071
-127,526	-200,000	-0,004	-0,041
-126,512	278,528	-0,037	-0,048
-125,497	-17,893	0,127	-0,057
-124,483	800,000	-0,032	0,093
-123,468	-200,000	-0,024	-0,077
-122,453	601,266	-0,041	-0,073
-121,439	118,296	0,051	-0,046
-120,424	485,724	0,065	-0,108
-119,410	-59,507	0,126	0,039
-118,395	800,000	-0,041	0,126
-117,380	26,416	0,099	0,059
-116,366	164,860	-0,035	0,036
-115,351	-200,000	-0,024	-0,112
-114,337	-200,000	0,009	0,096
-113,322	-76,751	0,014	0,003
-112,307	-68,234	0,067	-0,019
-111,293	256,288	-0,045	0,055
-110,278	800,000	0,057	0,121
-109,264	-153,102	0,098	-0,005
-108,249	121,462	-0,131	-0,117
-107,234	-200,000	0,011	-0,088
-106,220	-140,554	0,046	0,003
-105,205	94,726	0,032	0,026
-104,191	66,642	-0,054	0,040
-103,176	74,914	-0,061	0,046
-102,162	-200,000	0,004	-0,050
-101,147	-42,297	-0,070	0,025
-100,132	800,000	0,033	-0,083
-99,118	-200,000	-0,015	-0,063
-98,103	247,152	-0,003	-0,004
-97,089	-200,000	-0,013	0,058
-96,074	-200,000	0,002	0,115
-95,059	800,000	0,049	0,098
-94,045	-200,000	0,035	-0,162
-93,030	90,548	0,025	-0,020
-92,016	-83,508	0,126	-0,029
-91,001	489,571	0,030	-0,049
-89,986	314,817	0,051	0,069
-88,972	800,000	-0,038	-0,098
-87,957	-200,000	-0,027	0,087
-86,943	800,000	0,020	-0,042
-85,928	-200,000	0,004	-0,062
-84,913	-16,808	0,032	-0,014
-83,899	-68,784	0,175	-0,048
-82,884	-200,000	-0,037	-0,144
-81,870	800,000	0,031	0,084
-80,855	8,865	-0,089	-0,048
-79,840	68,879	0,022	-0,016
-78,826	-26,681	-0,171	0,072
-77,811	172,269	0,066	-0,068
-76,797	168,936	-0,039	-0,040
-75,782	-200,000	0,012	0,100
-74,767	119,743	0,088	-0,078
-73,753	-14,883	0,081	-0,037
-72,738	800,000	0,042	-0,122
-71,724	388,295	0,033	0,050
-70,709	81,489	-0,080	-0,062
-69,694	92,687	-0,024	0,020
-68,680	-21,973	0,044	-0,019
-67,665	125,456	0,044	-0,039
-66,651	800,000	0,033	-0,079
-65,636	-200,000	-0,019	-0,131
-64,622	-72,609	-0,044	0,012
-63,607	-38,416	0,117	-0,044
-62,592	530,460	-0,047	-0,080
-61,578	96,276	-0,057	-0,047
-60,563	-200,000	0,017	0,101
-59,549	11,085	0,073	0,040
-58,534	36,713	-1,980	-1,250
-57,519	-200,000	0,017	-0,771
-56,505	-200,000	-1,278	-5,117
-55,490	65,658	0,864	0,626
-54,476	800,000	5,240	12,173
-53,461	-200,000	18,194	290,904
-52,446	800,000	728,669	2215,606
-51,432	524,173	1641,626	2775,309
-50,417	107,781	1630,684	1390,508
-49,403	72,142	1283,449	955,922
-48,388	30,699	1024,745	626,623
-47,373	19,857	986,752	567,781
-46,359	17,931	974,589	554,474
-45,344	14,849	970,548	542,110
-44,330	15,140	969,086	542,221
-43,315	14,615	967,274	539,481
-42,300	14,530	966,130	538,544
-41,286	14,517	965,060	537,885
-40,271	14,521	964,169	537,378
-39,257	14,560	963,279	536,989
-38,242	14,555	962,594	536,567
-37,227	14,619	961,593	536,197
-36,213	14,473	960,762	535,239
-35,198	14,481	959,924	534,778
-34,184	14,584	958,924	534,532
-33,169	14,504	958,112	533,799
-32,154	14,558	957,105	533,392
-31,140	14,548	956,307	532,892
-30,125	14,551	955,591	532,482
-29,111	14,533	954,700	531,909
-28,096	14,491	954,227	531,487
-27,082	14,509	953,535	531,141
-26,067	14,557	952,561	530,729
-25,052	14,543	951,963	530,330
-24,038	14,526	951,383	529,931
-23,023	14,496	950,807	529,495
-22,009	14,590	949,990	529,320
-20,994	14,523	949,402	528,755
-19,979	14,568	948,549	528,403
-18,965	14,538	948,008	527,984
-17,950	14,582	947,529	527,836
-16,936	14,538	946,766	527,250
-15,921	14,528	946,165	526,864
-14,906	14,478	945,282	526,193
-13,892	14,420	944,975	525,816
-12,877	14,405	944,213	525,325
-11,863	14,423	943,575	525,005
-10,848	14,458	943,025	524,789
-9,833	14,516	942,782	524,818
-8,819	14,527	941,702	524,230
-7,804	14,458	941,392	523,817
-6,790	14,375	940,853	523,234
-5,775	14,464	940,388	523,236
-4,760	14,477	939,464	522,743
-3,746	14,458	938,824	522,308
-2,731	14,287	938,249	521,427
-1,717	14,261	937,562	520,942
-0,702	14,250	936,918	520,530
0,313	14,072	936,465	520,503
1,327	17,394	934,139	529,585
2,342	26,179	787,300	469,381
3,356	22,501	442,941	258,632
4,371	-6,671	295,301	143,313
5,386	-10,641	277,187	130,754
6,400	-11,676	271,321	127,016
7,415	-12,011	269,013	125,616
8,429	-11,930	267,525	124,984
9,444	-12,053	266,611	124,433
10,459	-11,944	265,959	124,217
11,473	-12,232	265,469	123,716
12,488	-12,240	264,970	123,465
13,502	-12,606	264,360	122,840
14,517	-12,448	263,861	122,739
15,531	-12,346	263,533	122,668
16,546	-12,488	263,113	122,333
17,561	-12,394	262,712	122,220
18,575	-12,311	262,265	122,076
19,590	-12,511	262,030	121,776
20,604	-12,375	261,836	121,797
21,619	-12,393	261,473	121,602
22,634	-12,456	261,102	121,362
23,648	-12,641	260,794	121,043
24,663	-12,503	260,494	121,016
25,677	-12,591	260,218	120,799
26,692	-12,603	260,132	120,738
27,707	-12,477	259,593	120,588
28,721	-12,416	259,343	120,515
29,736	-12,585	259,169	120,274
30,750	-12,529	258,823	120,152
31,765	-12,561	258,726	120,068
32,780	-12,622	258,444	119,873
33,794	-12,366	258,120	119,938
34,809	-12,372	257,943	119,839
35,823	-12,619	257,665	119,482
36,838	-12,495	257,357	119,438
37,853	-12,590	257,180	119,261
38,867	-12,613	256,881	119,092
39,882	-12,359	256,721	119,230
40,896	-12,720	256,653	118,871
41,911	-12,627	256,217	118,740
42,926	-12,582	256,095	118,712
43,940	-12,788	255,699	118,338
44,955	-12,503	255,478	118,474
45,969	-12,612	255,276	118,275
46,984	-12,939	255,036	117,869
47,999	-12,941	254,793	117,745
49,013	-13,167	254,410	117,361
50,028	-13,305	254,195	117,132
51,042	-13,362	253,956	116,963
52,057	-13,396	253,688	116,799
53,071	-13,257	253,719	116,923
54,086	-13,240	253,459	116,807
55,101	-13,053	253,348	116,907
56,115	-12,759	253,069	117,021
57,130	-12,307	252,974	117,356
58,144	-12,374	252,852	117,231
59,159	-12,269	252,672	117,228
60,174	-12,290	252,362	117,056
61,188	-12,539	252,267	116,787
62,203	-12,492	251,886	116,640
63,217	-12,428	251,741	116,618
64,232	-12,616	251,573	116,368
65,247	-12,410	251,188	116,356
66,261	-12,495	251,052	116,210
67,276	-12,613	250,861	116,011
68,290	-12,840	250,578	115,676
69,305	-12,951	250,302	115,444
70,320	-12,933	250,141	115,375
71,334	-12,578	249,851	115,533
72,349	-12,656	249,934	115,494
73,363	-12,287	249,666	115,673
74,378	-12,217	249,293	115,549
75,393	-12,346	249,148	115,363
76,407	-12,670	249,098	115,055
77,422	-12,543	248,878	115,050
78,436	-12,467	248,515	114,936
79,451	-12,433	248,293	114,853
80,466	-12,458	248,030	114,699
81,480	-12,640	248,077	114,557
82,495	-12,554	247,646	114,421
83,509	-12,515	247,407	114,333
84,524	-12,623	247,384	114,221
85,539	-12,829	247,142	113,926
86,553	-12,824	247,020	113,864
87,568	-12,560	246,718	113,935
88,582	-12,800	246,651	113,694
89,597	-12,598	246,471	113,770
90,611	-12,803	246,314	113,516
91,626	-12,228	245,922	113,805
92,641	-12,479	245,872	113,562
93,655	-12,406	245,670	113,519
94,670	-12,508	245,398	113,299
95,684	-12,721	245,491	113,154
96,699	-12,477	245,020	113,130
97,714	-12,676	244,891	112,895
98,728	-12,760	244,604	112,683
99,743	-12,930	244,388	112,432
100,757	-12,871	244,279	112,421
101,772	-12,755	243,942	112,352
102,787	-12,663	243,848	112,375
103,801	-12,560	243,536	112,306
104,816	-12,627	243,578	112,260
105,830	-12,489	243,457	112,308
106,845	-12,264	243,325	112,422
107,860	-12,456	242,895	112,056
108,874	-12,702	242,896	111,844
109,889	-12,547	242,592	111,821
110,903	-12,556	242,348	111,691
111,918	-12,760	242,125	111,411
112,933	-12,696	242,104	111,445
113,947	-12,543	241,920	111,475
114,962	-12,539	241,747	111,389
115,976	-12,581	241,606	111,280
116,991	-12,670	241,422	111,112
118,006	-12,562	241,175	111,077
119,020	-12,484	241,141	111,114
120,035	-12,458	240,984	111,054
121,049	-12,470	240,771	110,935
122,064	-12,461	240,605	110,857
123,079	-12,531	240,258	110,630
124,093	-12,645	240,178	110,491
125,108	-12,691	239,832	110,285
126,122	-12,907	239,809	110,089
127,137	-13,018	239,467	109,832
128,151	-12,881	239,223	109,822
129,166	-12,690	239,121	109,919
130,181	-12,695	239,027	109,862
131,195	-12,894	238,705	109,543
132,210	-12,749	238,597	109,601
133,224	-12,424	238,545	109,830
134,239	-12,619	238,511	109,647
135,254	-12,449	238,121	109,594
136,268	-12,563	237,756	109,325
137,283	-12,933	237,666	108,977
138,297	-13,065	237,506	108,788
139,312	-12,931	237,195	108,743
140,327	-12,614	237,209	108,995
141,341	-12,366	237,132	109,148
142,356	-12,160	236,879	109,187
143,370	-12,449	236,923	108,966
144,385	-12,202	236,718	109,059
145,400	-12,296	236,574	108,908
146,414	-12,294	236,270	108,759
147,429	-12,321	235,972	108,591
148,443	-12,441	235,949	108,475
149,458	-12,342	235,650	108,407
150,473	-12,282	235,546	108,398
151,487	-12,566	235,546	108,162
152,502	-12,302	235,260	108,231
153,516	-12,020	234,970	108,311
154,531	-12,446	234,839	107,903
155,546	-12,355	234,728	107,915
156,560	-12,551	234,648	107,714
157,575	-12,531	234,340	107,578
158,589	-12,446	234,285	107,611
159,604	-12,202	234,124	107,720
160,619	-12,080	233,926	107,715
161,633	-12,293	233,810	107,485
162,648	-12,167	233,543	107,452
163,662	-12,413	233,342	107,155
164,677	-12,304	233,151	107,144
165,692	-12,220	233,127	107,189
166,706	-12,463	233,109	106,980
167,721	-12,125	232,774	107,083
168,735	-12,084	232,844	107,137
169,750	-12,192	232,533	106,900
170,764	-12,305	232,277	106,684
171,779	-12,214	232,349	106,779
172,794	-12,105	232,095	106,738
173,808	-12,353	231,843	106,419
174,823	-12,762	231,658	106,006
175,837	-12,761	231,377	105,868
176,852	-12,455	231,281	106,053
177,867	-12,267	231,357	106,225
178,881	-12,289	231,028	106,048
179,896	-12,404	230,909	105,894
180,910	-12,364	230,744	105,840
181,925	-12,179	230,569	105,894
182,940	-12,267	230,532	105,799
183,954	-12,173	230,347	105,777
184,969	-12,139	230,286	105,767
185,983	-12,052	229,981	105,684
186,998	-12,167	230,045	105,615
188,013	-12,089	229,824	105,565
189,027	-12,100	229,571	105,430
190,042	-12,169	229,482	105,327
191,056	-12,253	229,364	105,199
192,071	-11,931	229,094	105,314
193,086	-12,185	229,078	105,101
194,100	-11,868	228,846	105,229
195,115	-11,965	228,437	104,958
196,129	-12,245	228,772	104,887
197,144	-7,119	229,904	109,354
198,159	-2,772	231,475	113,464
199,173	0,782	232,543	116,740
200,188	1,498	232,540	117,284
201,202	1,251	232,250	116,936
202,217	1,324	232,014	116,863
203,232	1,376	231,987	116,879
204,246	1,633	231,715	116,930
205,261	1,666	231,847	117,013
206,275	1,976	231,687	117,160
207,290	2,044	231,462	117,089
208,304	1,784	231,385	116,839
209,319	1,776	231,121	116,688
210,334	1,696	230,797	116,453
211,348	1,638	230,750	116,375
212,363	1,074	230,511	115,810
213,377	1,030	230,415	115,718
214,392	1,151	230,290	115,737
215,407	1,304	230,210	115,805
216,421	1,378	229,898	115,694
217,436	1,558	229,622	115,683
218,450	1,139	229,517	115,299
219,465	0,924	229,507	115,119
220,480	1,365	229,195	115,289
221,494	1,011	229,159	114,991
222,509	1,299	229,142	115,192
223,523	1,385	228,878	115,114
224,538	1,252	228,742	114,934
225,553	1,059	228,651	114,731
226,567	1,410	228,337	114,830
227,582	1,294	228,395	114,761
228,596	1,717	228,216	114,982
229,611	1,483	228,150	114,761
230,626	1,089	227,742	114,247
231,640	1,268	227,480	114,241
232,655	1,499	227,566	114,449
233,669	1,558	227,630	114,515
234,684	1,939	227,481	114,719
235,699	1,813	227,185	114,464
236,713	1,541	226,887	114,098
237,728	1,684	226,630	114,067
238,742	1,163	226,525	113,610
239,757	1,415	226,612	113,835
240,772	1,242	226,263	113,518
241,786	1,416	226,169	113,593
242,801	1,521	226,210	113,682
243,815	2,025	226,021	113,955
244,830	1,617	225,842	113,548
245,844	1,363	225,543	113,198
246,859	1,299	225,334	113,035
247,874	1,611	225,350	113,266
248,888	1,705	225,188	113,245
249,903	1,398	225,155	112,989
250,917	1,224	224,895	112,718
251,932	1,099	224,823	112,579
252,947	1,014	224,498	112,342
253,961	1,257	224,357	112,444
254,976	1,101	224,233	112,255
255,990	1,472	224,330	112,570
257,005	1,684	224,013	112,558
258,020	1,569	223,990	112,451
259,034	1,667	223,746	112,392
260,049	1,637	223,717	112,345
261,063	1,543	223,423	112,117
262,078	1,752	223,347	112,224
263,093	2,036	223,239	112,370
264,107	1,859	223,091	112,154
265,122	1,484	223,030	111,837
266,136	1,710	222,856	111,907
267,151	1,608	222,720	111,753
268,166	1,273	222,334	111,302
269,180	1,083	222,205	111,087
270,195	1,228	222,052	111,108
271,209	1,277	221,930	111,073
272,224	1,502	221,819	111,173
273,239	1,501	221,717	111,111
274,253	1,412	221,549	110,952
275,268	1,296	221,269	110,716
276,282	1,265	221,052	110,575
277,297	1,073	221,036	110,417
278,312	1,047	220,972	110,355
279,326	1,321	220,833	110,477
280,341	1,367	220,694	110,431
281,355	1,772	220,459	110,600
282,370	1,587	220,406	110,428
283,384	1,250	220,134	110,037
284,399	1,094	220,142	109,917
285,414	1,066	219,946	109,789
286,428	1,241	219,879	109,873
287,443	1,584	219,700	110,023
288,457	1,515	219,641	109,934
289,472	1,359	219,288	109,634
290,487	0,862	219,104	109,171
291,501	0,891	218,862	109,062
292,516	0,882	218,825	109,028
293,530	0,965	218,740	109,036
294,545	1,191	218,605	109,122
295,560	1,163	218,659	109,119
296,574	1,300	218,462	109,110
297,589	1,370	218,309	109,075
298,603	1,318	218,248	108,997
299,618	1,428	218,039	108,962
300,633	1,492	217,920	108,939
301,647	1,680	217,907	109,058
302,662	1,553	217,716	108,862
303,676	1,807	217,483	108,918
304,691	1,724	217,268	108,741
305,706	1,630	217,256	108,658
306,720	1,602	217,138	108,569
307,735	1,337	216,813	108,207
308,749	1,518	216,762	108,302
309,764	1,566	216,744	108,317
310,779	1,660	216,585	108,295
311,793	1,465	216,292	108,000
312,808	1,514	216,244	108,001
313,822	1,482	216,024	107,859
314,837	1,319	215,998	107,720
315,852	1,353	215,674	107,573
316,866	1,411	215,767	107,651
317,881	1,557	215,607	107,666
318,895	1,678	215,394	107,636
319,910	1,251	215,144	107,198
320,925	0,964	215,017	106,921
321,939	0,709	214,820	106,633
322,954	0,766	214,893	106,700
323,968	1,468	214,691	107,088
324,983	1,680	214,764	107,265
325,997	2,072	214,348	107,325
327,012	1,628	214,368	107,012
328,027	1,639	214,150	106,901
329,041	1,963	214,004	107,047
330,056	1,476	213,895	106,639
331,070	0,994	213,704	106,195
332,085	1,041	213,503	106,119
333,100	1,458	213,423	106,363
334,114	1,702	213,421	106,524
335,129	1,741	213,280	106,472
336,143	1,502	213,065	106,187
337,158	1,431	213,014	106,103
338,173	1,373	212,981	106,036
339,187	1,337	212,703	105,862
340,202	1,212	212,423	105,626
341,216	1,262	212,348	105,614
342,231	1,405	212,161	105,612
343,246	1,359	212,029	105,504
344,260	1,138	211,861	105,258
345,275	1,285	211,874	105,357
346,289	1,623	211,911	105,602
347,304	2,031	211,646	105,745
348,319	1,590	211,631	105,421
349,333	1,592	211,428	105,312
350,348	1,780	211,052	105,245
351,362	1,734	211,166	105,261
352,377	1,798	210,971	105,199
353,392	1,633	210,760	104,970
354,406	1,822	210,740	105,082
355,421	195,902	1315,129	1389,756
356,435	156,604	1449,649	1389,727
