DTS Sentinel unit serial number:	SN410029Multiplexer serial number:	ORYXHardware model number:	OX2-SRSoftware version number:	ORYX F/W v4,00 Oryx Data Collector v3.7.2.0data status	okinstallation	B6 Nyhavnadifferential loss correction	single-endedforward channel	channel 2reverse channel	N/Adate	2023/12/09time	14:40:08forward acquisition time	300,00reverse acquisition time	0,00gamma	499,1914k internal	0,3133k external	0,3133temperature offset calibration	1,0000default loss term (dB/km)	0,3820temperature slope calibration	1,0000multiplexer offset coefficient	1,0000multiplexer slope coefficient	1,0000fibre end	0,00T internal ref (°C)	20,54T ext. ref 1 (°C)	4,30T ext. ref 2 (°C)	4,31length (m)	temperature (°C)	Stokes	anti-Stokes-744,400	216,750	0,123	0,145
-743,385	-101,959	-0,280	0,050
-742,371	800,000	-0,043	0,096
-741,356	-116,221	-0,273	0,037
-740,342	15,832	0,133	-0,078
-739,327	31,900	-0,286	0,183
-738,312	202,728	0,016	0,019
-737,298	-20,057	-0,194	0,088
-736,283	-200,000	0,008	0,122
-735,269	-47,384	-0,281	0,101
-734,254	-13,199	0,095	-0,046
-733,239	-8,522	-0,411	-0,204
-732,225	69,690	0,180	-0,137
-731,210	316,607	-0,021	0,029
-730,196	227,208	-0,073	0,088
-729,181	97,679	-0,034	0,029
-728,167	-200,000	0,018	0,062
-727,152	-90,677	-0,164	0,035
-726,137	-200,000	-0,006	0,050
-725,123	-41,080	-0,142	-0,054
-724,108	-177,945	-0,153	-0,003
-723,094	800,000	-0,021	-0,044
-722,079	-78,145	-0,190	0,048
-721,064	148,394	-0,104	-0,104
-720,050	-200,000	0,001	0,008
-719,035	-200,000	-0,021	-0,087
-718,021	15,566	-0,056	0,032
-717,006	251,850	0,014	0,018
-715,991	608,057	-0,090	-0,168
-714,977	169,123	-0,081	-0,086
-713,962	-200,000	-0,017	0,075
-712,948	64,743	0,044	0,033
-711,933	456,453	-0,070	0,115
-710,918	302,099	-0,068	-0,094
-709,904	121,116	-0,036	-0,033
-708,889	542,516	0,082	-0,146
-707,875	800,000	-0,089	-0,206
-706,860	-200,000	0,003	-0,069
-705,845	-200,000	0,021	-0,102
-704,831	-200,000	0,023	0,119
-703,816	-200,000	-0,009	-0,111
-702,802	166,570	-0,107	-0,112
-701,787	-200,000	0,015	-0,052
-700,772	-200,000	-0,021	0,072
-699,758	280,338	-0,061	0,081
-698,743	-27,741	-0,060	-0,026
-697,729	800,000	0,063	0,150
-696,714	800,000	0,024	0,068
-695,699	24,995	-0,059	-0,036
-694,685	-200,000	0,000	-0,096
-693,670	407,016	-0,035	-0,054
-692,656	-200,000	-0,000	0,049
-691,641	-135,185	-0,100	0,009
-690,627	800,000	-0,012	-0,030
-689,612	477,454	0,044	-0,073
-688,597	131,800	-0,023	0,022
-687,583	397,507	0,071	-0,111
-686,568	612,567	-0,083	-0,155
-685,554	800,000	-0,058	-0,145
-684,539	197,076	0,105	-0,118
-683,524	430,313	0,036	0,059
-682,510	68,532	0,086	0,065
-681,495	14,471	-0,093	-0,054
-680,481	-160,206	-0,161	-0,006
-679,466	-200,000	-0,010	-0,247
-678,451	80,400	0,052	-0,042
-677,437	-70,233	0,047	-0,013
-676,422	800,000	0,032	-0,070
-675,408	385,607	0,056	-0,086
-674,393	-96,240	-0,035	-0,007
-673,378	-62,302	-0,095	-0,029
-672,364	-200,000	0,011	-0,109
-671,349	-110,451	-0,095	-0,015
-670,335	102,153	0,069	-0,060
-669,320	-200,000	-0,018	-0,098
-668,305	800,000	0,006	-0,015
-667,291	-116,378	-0,093	-0,013
-666,276	-104,458	-0,071	0,012
-665,262	-102,065	0,094	0,017
-664,247	91,815	-0,064	0,053
-663,232	-16,504	0,040	-0,019
-662,218	214,138	0,029	0,034
-661,203	19,081	-0,120	-0,071
-660,189	800,000	-0,030	-0,067
-659,174	-22,255	-0,074	-0,033
-658,159	-200,000	-0,025	-0,163
-657,145	-170,625	-0,105	-0,003
-656,130	225,231	0,099	-0,119
-655,116	159,320	-0,062	0,063
-654,101	-159,623	0,056	-0,002
-653,086	568,887	0,051	0,092
-652,072	29,229	-0,162	-0,102
-651,057	234,361	-0,041	-0,050
-650,043	-200,000	0,004	0,018
-649,028	800,000	-0,027	0,060
-648,014	-123,031	-0,112	-0,013
-646,999	-130,596	-0,028	0,003
-645,984	-23,717	0,017	-0,007
-644,970	-28,980	-0,068	0,029
-643,955	712,118	-0,038	0,075
-642,941	144,635	-0,116	-0,115
-641,926	154,643	-0,086	-0,088
-640,911	84,098	0,037	0,030
-639,897	-200,000	-0,020	-0,142
-638,882	-200,000	0,011	0,047
-637,868	-131,434	-0,143	0,014
-636,853	-44,587	-0,109	-0,040
-635,838	800,000	0,019	-0,051
-634,824	800,000	0,023	-0,055
-633,809	-164,195	0,207	0,007
-632,795	-200,000	0,010	0,033
-631,780	194,042	0,077	0,087
-630,765	-28,967	0,055	0,023
-629,751	-200,000	-0,032	-0,196
-628,736	-200,000	-0,024	-0,146
-627,722	800,000	-0,015	0,043
-626,707	267,206	0,049	0,064
-625,692	-169,612	0,053	-0,001
-624,678	89,586	-0,077	-0,063
-623,663	-70,725	-0,051	-0,014
-622,649	277,386	0,048	-0,063
-621,634	-200,000	0,003	-0,126
-620,619	152,865	0,080	0,081
-619,605	-77,721	0,138	0,035
-618,590	185,632	-0,067	0,073
-617,576	149,903	0,074	0,074
-616,561	-200,000	0,007	-0,080
-615,546	-200,000	-0,015	0,174
-614,532	50,089	-0,035	0,025
-613,517	-107,459	-0,109	-0,017
-612,503	13,541	0,089	-0,051
-611,488	701,299	-0,039	0,076
-610,474	28,487	-0,039	0,024
-609,459	316,100	0,076	0,106
-608,444	28,771	-0,130	0,081
-607,430	-200,000	0,051	-0,206
-606,415	-200,000	0,000	0,058
-605,401	-200,000	0,035	-0,175
-604,386	-146,261	0,072	0,005
-603,371	35,499	0,136	0,088
-602,357	-200,000	0,023	0,101
-601,342	-200,000	0,006	0,021
-600,328	-137,336	-0,121	-0,010
-599,313	-18,207	0,045	-0,021
-598,298	-118,273	0,054	-0,007
-597,284	11,299	-0,028	0,016
-596,269	-200,000	0,000	-0,030
-595,255	800,000	0,033	0,098
-594,240	356,837	0,072	0,106
-593,225	-44,290	-0,189	-0,070
-592,211	-200,000	-0,033	-0,141
-591,196	256,681	0,047	-0,060
-590,182	67,659	0,122	0,092
-589,167	777,127	-0,044	0,088
-588,152	155,183	-0,120	0,122
-587,138	-182,054	-0,072	0,001
-586,123	-200,000	-0,013	-0,112
-585,109	800,000	0,062	-0,140
-584,094	-200,000	-0,026	-0,157
-583,079	-90,791	0,068	0,014
-582,065	143,447	-0,062	0,061
-581,050	-181,953	0,133	-0,002
-580,036	-151,871	-0,163	-0,009
-579,021	-200,000	-0,006	-0,079
-578,006	-46,659	-0,099	-0,036
-576,992	-176,750	0,082	-0,001
-575,977	-200,000	-0,001	-0,076
-574,963	97,787	0,068	0,057
-573,948	-200,000	-0,005	0,020
-572,934	800,000	0,033	-0,103
-571,919	-200,000	-0,003	-0,110
-570,904	-30,976	-0,050	-0,021
-569,890	377,314	-0,073	-0,111
-568,875	1,641	-0,095	0,050
-567,861	800,000	-0,032	0,081
-566,846	-200,000	0,000	-0,067
-565,831	-75,306	0,098	-0,026
-564,817	301,630	0,079	-0,108
-563,802	-101,346	-0,123	-0,022
-562,788	-133,088	0,060	0,006
-561,773	-26,057	-0,106	-0,046
-560,758	-32,915	0,049	-0,020
-559,744	-200,000	-0,025	0,241
-558,729	-200,000	0,030	0,222
-557,715	-172,859	-0,055	0,001
-556,700	-117,389	-0,097	0,013
-555,685	53,377	-0,088	0,062
-554,671	-200,000	-0,034	0,127
-553,656	337,803	-0,017	-0,024
-552,642	-87,053	-0,071	0,016
-551,627	-91,834	0,062	-0,013
-550,612	197,278	-0,121	-0,136
-549,598	304,497	-0,076	-0,104
-548,583	188,700	-0,107	-0,118
-547,569	278,103	0,077	-0,102
-546,554	506,667	-0,021	-0,035
-545,539	-98,689	-0,057	-0,011
-544,525	339,500	-0,035	0,050
-543,510	-37,395	0,030	0,012
-542,496	-152,870	-0,094	-0,005
-541,481	-63,688	-0,077	-0,023
-540,466	66,925	0,101	-0,075
-539,452	800,000	0,015	-0,044
-538,437	-87,007	0,095	0,021
-537,423	-45,387	0,144	-0,053
-536,408	44,235	-0,067	-0,045
-535,393	47,570	-0,047	-0,032
-534,379	-162,680	0,097	-0,003
-533,364	-200,000	-0,039	0,132
-532,350	-32,730	0,067	0,027
-531,335	-200,000	-0,026	0,165
-530,321	-200,000	0,038	0,131
-529,306	411,402	-0,002	-0,004
-528,291	800,000	-0,054	-0,155
-527,277	541,292	-0,114	-0,201
-526,262	-77,324	-0,112	0,028
-525,248	-80,856	-0,051	-0,012
-524,233	-18,516	-0,013	-0,006
-523,218	154,322	0,078	-0,079
-522,204	-34,373	-0,090	0,036
-521,189	-112,252	-0,181	-0,026
-520,175	5,234	0,041	0,022
-519,160	800,000	-0,056	-0,117
-518,145	-200,000	0,068	-0,000
-517,131	-105,986	-0,085	0,014
-516,116	419,660	0,059	-0,093
-515,102	-46,523	-0,080	0,029
-514,087	-200,000	0,001	-0,030
-513,072	-31,224	-0,071	-0,029
-512,058	324,082	-0,042	-0,059
-511,043	439,441	0,034	0,055
-510,029	800,000	0,098	0,230
-509,014	84,267	-0,059	0,047
-507,999	97,337	0,071	-0,060
-506,985	379,815	-0,049	-0,074
-505,970	176,754	0,039	-0,042
-504,956	204,657	0,040	-0,046
-503,941	800,000	0,036	-0,093
-502,926	42,620	0,057	-0,038
-501,912	-200,000	0,006	0,138
-500,897	329,929	0,029	-0,041
-499,883	-25,760	-0,126	-0,055
-498,868	-200,000	-0,005	0,054
-497,853	-200,000	-0,006	0,019
-496,839	448,293	0,052	0,084
-495,824	293,428	-0,048	0,065
-494,810	-29,173	0,173	0,073
-493,795	193,674	0,040	0,045
-492,781	17,395	0,040	-0,023
-491,766	195,065	-0,057	0,064
-490,751	322,554	-0,049	0,069
-489,737	34,307	-0,062	0,039
-488,722	69,200	0,127	0,096
-487,708	107,661	0,098	-0,086
-486,693	415,181	-0,083	-0,131
-485,678	-25,470	-0,162	-0,070
-484,664	48,313	0,016	-0,011
-483,649	-200,000	-0,049	-0,178
-482,635	225,518	-0,099	-0,118
-481,620	37,628	-0,056	0,037
-480,605	146,022	0,161	0,159
-479,591	-200,000	-0,015	0,113
-478,576	87,352	-0,063	0,051
-477,562	-200,000	-0,003	0,121
-476,547	-25,564	0,072	-0,031
-475,532	-200,000	0,003	-0,016
-474,518	-102,547	-0,157	0,027
-473,503	121,588	-0,057	-0,052
-472,489	-29,742	-0,062	-0,026
-471,474	-200,000	0,036	0,148
-470,459	-97,484	-0,122	-0,023
-469,445	800,000	-0,025	-0,070
-468,430	-200,000	0,006	-0,034
-467,416	477,743	0,052	-0,087
-466,401	800,000	0,070	0,162
-465,386	800,000	0,052	0,148
-464,372	-200,000	0,031	-0,112
-463,357	235,470	0,040	-0,049
-462,343	391,052	-0,002	0,003
-461,328	163,326	0,060	-0,062
-460,313	-63,985	-0,064	-0,019
-459,299	800,000	0,035	0,106
-458,284	800,000	-0,016	-0,042
-457,270	-48,932	-0,102	0,036
-456,255	-80,245	-0,071	-0,017
-455,241	-200,000	-0,014	0,072
-454,226	-200,000	0,020	-0,073
-453,211	800,000	0,027	-0,073
-452,197	68,186	0,134	-0,100
-451,182	499,205	0,025	-0,043
-450,168	153,353	0,079	0,079
-449,153	-53,711	0,144	0,048
-448,138	-200,000	0,004	0,046
-447,124	77,312	-0,058	-0,045
-446,109	800,000	0,014	0,040
-445,095	-200,000	-0,011	0,037
-444,080	-200,000	-0,006	0,041
-443,065	-200,000	-0,020	0,087
-442,051	-200,000	-0,004	-0,089
-441,036	-48,967	-0,090	0,032
-440,022	213,959	0,040	-0,046
-439,007	33,328	0,122	0,078
-437,992	59,603	0,025	0,018
-436,978	-200,000	0,012	-0,121
-435,963	-176,026	0,094	-0,002
-434,949	51,372	0,087	0,061
-433,934	-200,000	-0,015	-0,052
-432,919	-39,597	-0,169	0,065
-431,905	32,403	-0,071	0,045
-430,890	24,542	0,083	0,050
-429,876	396,489	0,097	0,150
-428,861	257,299	-0,027	0,034
-427,846	8,603	-0,098	-0,054
-426,832	-59,172	-0,037	-0,012
-425,817	-200,000	0,004	-0,156
-424,803	-107,730	0,118	-0,019
-423,788	-104,546	-0,084	0,014
-422,773	185,511	-0,062	0,067
-421,759	169,575	-0,017	-0,017
-420,744	-106,972	0,013	0,002
-419,730	-200,000	-0,006	-0,103
-418,715	800,000	0,015	0,045
-417,701	800,000	0,084	0,181
-416,686	76,596	0,099	0,077
-415,671	-39,461	-0,013	0,005
-414,657	135,081	-0,051	-0,049
-413,642	-200,000	-0,011	0,059
-412,628	29,556	0,036	-0,022
-411,613	368,948	0,079	-0,117
-410,598	-164,096	-0,146	0,005
-409,584	-176,405	0,084	-0,002
-408,569	800,000	-0,026	-0,073
-407,555	-13,396	-0,091	-0,043
-406,540	800,000	0,043	-0,117
-405,525	47,454	-0,245	-0,167
-404,511	497,223	0,060	-0,102
-403,496	800,000	-0,033	0,091
-402,482	127,003	0,045	-0,042
-401,467	-161,846	-0,149	-0,005
-400,452	-200,000	-0,001	0,033
-399,438	-200,000	-0,024	0,119
-398,423	800,000	-0,043	-0,098
-397,409	127,495	-0,082	-0,077
-396,394	800,000	0,046	-0,095
-395,379	-21,665	0,095	-0,042
-394,365	-200,000	-0,029	0,148
-393,350	-200,000	0,011	-0,073
-392,336	691,545	-0,033	0,064
-391,321	-200,000	-0,004	-0,033
-390,306	-200,000	-0,018	-0,132
-389,292	800,000	-0,055	-0,125
-388,277	-70,629	-0,049	-0,013
-387,263	-103,096	0,130	0,022
-386,248	-55,737	-0,064	0,021
-385,233	100,992	-0,058	-0,049
-384,219	-164,305	-0,076	0,002
-383,204	340,664	-0,069	-0,099
-382,190	800,000	-0,012	-0,032
-381,175	-136,100	0,086	0,007
-380,160	103,831	0,095	0,082
-379,146	800,000	-0,028	0,063
-378,131	-200,000	-0,003	0,010
-377,117	259,211	0,010	0,013
-376,102	373,014	-0,074	0,110
-375,088	-112,790	-0,056	-0,008
-374,073	250,570	-0,117	0,146
-373,058	-200,000	0,013	0,051
-372,044	-196,391	0,069	0,000
-371,029	800,000	-0,022	0,050
-370,015	-200,000	0,014	0,077
-369,000	-47,451	-0,119	-0,042
-367,985	-153,274	-0,093	0,005
-366,971	-47,676	-0,111	0,039
-365,956	800,000	0,037	-0,116
-364,942	-89,467	0,047	-0,010
-363,927	800,000	-0,061	0,130
-362,912	800,000	0,046	0,109
-361,898	-23,300	-0,127	-0,056
-360,883	524,715	0,079	-0,137
-359,869	-200,000	-0,003	-0,082
-358,854	29,803	-0,032	-0,020
-357,839	-47,985	-0,037	0,013
-356,825	-21,924	0,048	-0,021
-355,810	141,442	-0,008	-0,007
-354,796	578,978	-0,037	-0,066
-353,781	139,974	-0,117	0,113
-352,766	25,630	0,074	-0,045
-351,752	-98,374	-0,020	0,004
-350,737	-79,215	0,094	-0,023
-349,723	-10,559	0,079	-0,038
-348,708	464,886	0,055	-0,090
-347,693	-200,000	0,014	-0,073
-346,679	524,430	-0,052	-0,091
-345,664	-142,216	-0,169	-0,012
-344,650	-200,000	0,003	-0,118
-343,635	-200,000	-0,012	-0,049
-342,620	365,321	0,041	0,061
-341,606	257,550	0,070	0,088
-340,591	-113,718	-0,098	-0,014
-339,577	82,372	-0,067	-0,053
-338,562	95,480	0,119	-0,099
-337,548	555,393	-0,060	-0,106
-336,533	-200,000	0,007	-0,066
-335,518	68,391	0,046	-0,034
-334,504	-95,451	0,117	-0,023
-333,489	-200,000	-0,000	0,163
-332,475	204,618	-0,071	-0,080
-331,460	335,822	0,102	-0,145
-330,445	-105,016	-0,038	0,006
-329,431	-77,658	0,175	0,044
-328,416	-200,000	-0,010	0,053
-327,402	-200,000	0,018	-0,111
-326,387	-107,154	0,149	0,024
-325,372	27,870	-0,173	-0,106
-324,358	-139,086	0,063	0,005
-323,343	-200,000	-0,002	0,042
-322,329	57,217	0,063	-0,045
-321,314	-134,258	0,058	-0,005
-320,299	-99,569	0,089	0,016
-319,285	800,000	-0,024	0,057
-318,270	-200,000	0,022	0,202
-317,256	37,850	0,111	-0,072
-316,241	610,861	0,017	0,032
-315,226	-142,624	0,119	-0,008
-314,212	-77,953	-0,054	0,014
-313,197	-200,000	-0,002	0,097
-312,183	-200,000	0,016	-0,090
-311,168	-44,865	-0,257	0,093
-310,153	-200,000	-0,027	-0,100
-309,139	800,000	0,024	-0,054
-308,124	257,498	0,087	0,110
-307,110	800,000	0,006	0,020
-306,095	138,000	0,065	0,062
-305,080	334,885	-0,048	-0,068
-304,066	-72,895	-0,091	-0,024
-303,051	-69,667	-0,046	-0,013
-302,037	19,244	0,025	0,015
-301,022	-29,168	-0,015	0,006
-300,008	800,000	0,040	0,120
-298,993	800,000	0,045	0,101
-297,978	-25,970	0,097	0,042
-296,964	40,090	-0,015	0,010
-295,949	-79,046	-0,073	-0,018
-294,935	-199,072	-0,138	-0,001
-293,920	-200,000	-0,002	-0,073
-292,905	-23,849	0,193	0,084
-291,891	48,025	-0,106	0,072
-290,876	-158,091	0,136	-0,006
-289,862	112,330	0,132	0,117
-288,847	800,000	-0,033	0,075
-287,832	-200,000	-0,002	0,140
-286,818	-128,962	0,080	-0,008
-285,803	305,847	0,041	0,056
-284,789	800,000	-0,033	0,083
-283,774	-6,362	0,082	0,041
-282,759	-86,212	0,103	-0,023
-281,745	43,360	-0,106	0,070
-280,730	21,025	-0,073	-0,043
-279,716	-10,327	0,046	-0,022
-278,701	-92,900	0,116	0,023
-277,686	101,816	0,095	-0,081
-276,672	318,875	0,090	0,124
-275,657	-200,000	0,022	-0,102
-274,643	-41,879	-0,055	-0,020
-273,628	57,212	-0,080	0,057
-272,613	-200,000	0,011	0,068
-271,599	-119,469	-0,019	0,002
-270,584	-47,378	-0,036	-0,013
-269,570	-104,309	0,094	0,016
-268,555	-97,104	-0,113	0,021
-267,540	-130,609	0,226	-0,022
-266,526	-95,110	-0,120	0,023
-265,511	800,000	0,020	-0,059
-264,497	-200,000	0,007	-0,032
-263,482	-142,531	0,128	0,009
-262,467	-200,000	0,004	0,031
-261,453	-78,371	-0,118	-0,029
-260,438	155,879	-0,055	-0,055
-259,424	42,888	-0,092	0,061
-258,409	-1,603	0,106	-0,055
-257,395	-33,066	-0,093	-0,037
-256,380	153,334	-0,011	-0,011
-255,365	135,074	0,032	-0,030
-254,351	-44,985	0,032	0,011
-253,336	-127,516	-0,055	-0,006
-252,322	-200,000	-0,002	0,028
-251,307	-87,015	-0,038	0,008
-250,292	381,135	0,040	0,060
-249,278	6,589	0,136	0,073
-248,263	800,000	0,009	-0,023
-247,249	331,432	0,096	0,136
-246,234	-65,235	0,024	-0,007
-245,219	-111,731	-0,041	-0,006
-244,205	-187,147	0,057	0,001
-243,190	-148,862	-0,072	-0,004
-242,176	21,254	-0,068	-0,040
-241,161	-63,335	0,142	0,042
-240,146	-96,811	0,020	-0,004
-239,132	103,127	-0,075	-0,064
-238,117	-200,000	-0,013	-0,104
-237,103	86,311	-0,087	-0,070
-236,088	-200,000	-0,016	-0,081
-235,073	-37,376	0,071	-0,028
-234,059	620,788	0,064	0,118
-233,044	-200,000	0,002	0,134
-232,030	66,024	-0,078	-0,058
-231,015	-200,000	-0,014	0,120
-230,000	184,170	-0,044	0,047
-228,986	-166,615	0,144	0,004
-227,971	-200,000	0,017	-0,081
-226,957	290,821	-0,051	0,067
-225,942	800,000	-0,026	0,063
-224,927	53,676	0,167	-0,117
-223,913	251,435	-0,033	0,041
-222,898	383,148	0,044	-0,065
-221,884	-74,977	0,029	-0,008
-220,869	-86,538	-0,042	-0,009
-219,855	-200,000	0,005	-0,036
-218,840	504,322	-0,044	0,074
-217,825	800,000	0,013	0,040
-216,811	-200,000	-0,004	0,151
-215,796	-200,000	0,013	-0,090
-214,782	-113,700	-0,047	-0,007
-213,767	-77,534	-0,089	0,022
-212,752	-85,271	0,057	-0,013
-211,738	108,096	0,042	-0,037
-210,723	-200,000	-0,004	0,039
-209,709	-17,930	0,134	-0,061
-208,694	-200,000	0,012	0,040
-207,679	781,038	-0,004	0,008
-206,665	306,290	-0,091	-0,123
-205,650	161,494	0,081	-0,082
-204,636	800,000	0,067	0,142
-203,621	226,364	0,129	0,153
-202,606	22,095	0,115	-0,068
-201,592	-200,000	0,000	-0,012
-200,577	96,874	-0,013	-0,011
-199,563	-110,067	-0,038	0,006
-198,548	-67,775	0,022	0,006
-197,533	279,389	0,024	-0,031
-196,519	-109,910	0,121	0,018
-195,504	264,292	0,039	0,050
-194,490	800,000	-0,040	0,100
-193,475	125,777	-0,136	-0,125
-192,460	-200,000	0,000	0,047
-191,446	49,133	0,087	0,059
-190,431	12,318	0,045	0,025
-189,417	470,749	0,060	-0,099
-188,402	51,948	0,015	-0,011
-187,387	58,002	-0,074	-0,052
-186,373	-200,000	0,006	-0,124
-185,358	353,061	-0,009	-0,014
-184,344	196,797	0,044	-0,049
-183,329	800,000	0,033	-0,074
-182,315	-102,074	0,154	0,027
-181,300	649,637	0,062	0,116
-180,285	262,431	-0,010	-0,013
-179,271	-200,000	-0,017	0,115
-178,256	19,645	-0,075	-0,043
-177,242	-200,000	-0,002	0,037
-176,227	-200,000	-0,045	0,185
-175,212	800,000	-0,035	0,083
-174,198	74,049	-0,075	0,058
-173,183	311,784	-0,034	-0,047
-172,169	439,398	-0,050	0,080
-171,154	-58,060	0,077	-0,024
-170,139	-200,000	-0,010	-0,061
-169,125	800,000	-0,016	-0,037
-168,110	-184,262	0,088	0,001
-167,096	800,000	-0,017	-0,042
-166,081	800,000	0,060	0,148
-165,066	-110,631	-0,167	0,025
-164,052	-62,424	0,157	-0,047
-163,037	-200,000	0,001	-0,045
-162,023	-70,233	0,149	0,041
-161,008	164,286	-0,085	0,087
-159,993	800,000	-0,059	-0,143
-158,979	-175,896	0,121	0,002
-157,964	161,425	-0,088	0,090
-156,950	33,037	-0,050	-0,031
-155,935	182,454	0,074	0,080
-154,920	649,309	0,040	0,075
-153,906	302,762	-0,094	0,126
-152,891	-58,372	0,109	-0,034
-151,877	-25,257	-0,147	0,063
-150,862	50,460	0,074	0,051
-149,847	-82,115	-0,003	0,001
-148,833	-57,574	0,041	-0,013
-147,818	-47,580	-0,095	0,033
-146,804	800,000	0,048	0,111
-145,789	800,000	-0,074	0,151
-144,775	-132,078	-0,088	-0,008
-143,760	144,856	0,065	-0,063
-142,745	225,916	-0,044	-0,052
-141,731	-68,151	-0,065	0,018
-140,716	-60,457	0,107	0,033
-139,702	2,354	-0,095	-0,050
-138,687	-75,283	0,090	0,023
-137,672	-8,041	-0,064	0,031
-136,658	-162,496	-0,067	-0,002
-135,643	800,000	-0,013	0,033
-134,629	-121,672	0,075	-0,009
-133,614	-18,824	0,086	0,039
-132,599	-135,997	0,123	-0,010
-131,585	412,127	-0,054	-0,084
-130,570	94,199	-0,107	0,088
-129,556	219,196	0,096	-0,112
-128,541	-200,000	-0,009	-0,043
-127,526	-200,000	0,009	0,038
-126,512	32,009	0,074	-0,046
-125,497	139,925	-0,038	-0,037
-124,483	800,000	-0,033	0,066
-123,468	105,913	-0,116	-0,100
-122,453	67,519	0,029	-0,022
-121,439	38,014	-0,090	0,058
-120,424	800,000	0,025	-0,079
-119,410	-55,893	0,033	-0,011
-118,395	-200,000	-0,016	-0,079
-117,380	-200,000	0,001	-0,021
-116,366	144,113	-0,043	0,042
-115,351	-71,529	0,048	0,013
-114,337	258,666	0,077	-0,097
-113,322	567,927	-0,015	-0,027
-112,307	63,906	-0,106	0,077
-111,293	-148,579	-0,103	0,006
-110,278	82,913	0,125	0,098
-109,264	800,000	-0,033	-0,069
-108,249	-200,000	0,004	-0,042
-107,234	99,527	-0,134	0,112
-106,220	82,590	-0,068	-0,054
-105,205	-200,000	0,024	-0,187
-104,191	-200,000	-0,026	0,090
-103,176	-200,000	0,016	0,086
-102,162	-73,424	-0,092	0,024
-101,147	-200,000	0,032	-0,171
-100,132	-200,000	-0,021	-0,174
-99,118	-134,326	0,086	0,008
-98,103	-200,000	0,001	0,087
-97,089	-48,876	0,130	0,045
-96,074	-200,000	-0,013	0,095
-95,059	-35,378	0,062	0,024
-94,045	800,000	-0,045	0,109
-93,030	-53,106	-0,095	-0,032
-92,016	800,000	-0,008	-0,021
-91,001	425,989	0,052	0,082
-89,986	800,000	0,046	0,126
-88,972	800,000	-0,025	0,072
-87,957	191,071	0,070	-0,076
-86,943	487,921	-0,056	0,093
-85,928	800,000	-0,025	0,064
-84,913	800,000	0,011	0,027
-83,899	108,834	0,055	-0,048
-82,884	800,000	0,013	-0,030
-81,870	771,853	0,081	-0,161
-80,855	-200,000	-0,000	-0,028
-79,840	71,300	-0,103	-0,078
-78,826	-145,794	-0,052	0,003
-77,811	-50,655	-0,021	0,007
-76,797	-67,954	0,050	-0,014
-75,782	-200,000	-0,039	-0,135
-74,767	-200,000	-0,001	-0,005
-73,753	-200,000	0,026	0,094
-72,738	-200,000	0,006	-0,025
-71,724	68,828	0,058	0,043
-70,709	67,960	-0,098	-0,073
-69,694	-54,320	0,064	-0,021
-68,680	494,993	-0,059	-0,099
-67,665	-128,132	0,151	-0,015
-66,651	-200,000	0,018	-0,081
-65,636	269,468	-0,046	-0,058
-64,622	313,491	-0,070	-0,095
-63,607	-200,000	0,030	-0,145
-62,592	-200,000	0,032	-0,118
-61,578	800,000	0,017	0,049
-60,563	243,766	0,030	0,037
-59,549	-0,066	-0,041	0,021
-58,534	-60,953	-1,590	-0,483
-57,519	729,155	-0,678	-1,316
-56,505	-200,000	-1,238	-4,645
-55,490	-124,721	0,491	-0,054
-54,476	800,000	5,185	11,949
-53,461	-200,000	14,774	263,075
-52,446	-200,000	697,681	2238,327
-51,432	565,476	1621,776	2855,426
-50,417	119,026	1628,622	1456,108
-49,403	76,502	1282,703	982,317
-48,388	37,491	1022,109	654,244
-47,373	22,919	981,845	580,657
-46,359	22,001	971,002	571,216
-45,344	20,792	966,898	564,836
-44,330	20,836	965,440	564,108
-43,315	20,606	963,952	562,466
-42,300	20,579	963,017	561,811
-41,286	20,638	961,974	561,371
-40,271	20,631	960,895	560,697
-39,257	20,573	960,055	559,997
-38,242	20,599	959,218	559,569
-37,227	20,544	958,426	558,908
-36,213	20,560	957,470	558,382
-35,198	20,571	956,521	557,841
-34,184	20,573	955,863	557,441
-33,169	20,596	954,776	556,860
-32,154	20,552	954,074	556,285
-31,140	20,583	953,107	555,801
-30,125	20,595	952,416	555,414
-29,111	20,552	951,494	554,714
-28,096	20,626	950,605	554,412
-27,082	20,565	950,224	553,974
-26,067	20,626	949,250	553,577
-25,052	20,574	948,459	552,928
-24,038	20,607	947,890	552,680
-23,023	20,590	947,220	552,213
-22,009	20,621	946,645	551,955
-20,994	20,611	945,976	551,510
-19,979	20,538	945,541	551,003
-18,965	20,629	944,869	550,880
-17,950	20,594	944,297	550,414
-16,936	20,517	943,557	549,714
-15,921	20,527	942,891	549,336
-14,906	20,506	941,976	548,716
-13,892	20,500	941,597	548,453
-12,877	20,447	940,885	547,850
-11,863	20,393	940,293	547,313
-10,848	20,450	939,884	547,231
-9,833	20,526	939,436	547,189
-8,819	20,488	938,868	546,716
-7,804	20,452	938,257	546,226
-6,790	20,426	937,647	545,768
-5,775	20,531	937,051	545,729
-4,760	20,519	936,211	545,181
-3,746	20,484	935,592	544,690
-2,731	20,390	934,933	543,986
-1,717	20,317	934,353	543,397
-0,702	20,326	933,653	542,997
0,313	20,127	932,929	542,771
1,327	23,099	931,180	551,036
2,342	32,190	793,412	493,621
3,356	29,449	451,030	276,458
4,371	-0,273	296,117	151,639
5,386	-4,669	277,284	137,793
6,400	-5,965	271,651	133,770
7,415	-6,411	269,251	132,163
8,429	-6,209	268,099	131,772
9,444	-6,187	267,383	131,429
10,459	-6,007	266,495	131,145
11,473	-6,177	265,997	130,733
12,488	-6,347	265,529	130,336
13,502	-6,306	264,781	129,994
14,517	-6,229	264,392	129,862
15,531	-6,300	264,080	129,632
16,546	-6,468	263,856	129,359
17,561	-6,250	263,317	129,281
18,575	-6,361	263,257	129,139
19,590	-6,468	262,810	128,811
20,604	-6,168	262,362	128,851
21,619	-6,348	262,131	128,564
22,634	-6,189	261,715	128,491
23,648	-6,384	261,345	128,123
24,663	-6,346	261,232	128,091
25,677	-6,370	260,919	127,904
26,692	-6,294	260,714	127,860
27,707	-6,414	260,568	127,669
28,721	-6,389	260,113	127,457
29,736	-6,458	259,891	127,276
30,750	-6,501	259,695	127,130
31,765	-6,435	259,370	127,019
32,780	-6,438	259,339	126,989
33,794	-6,421	259,070	126,862
34,809	-6,358	258,713	126,731
35,823	-6,661	258,515	126,354
36,838	-6,635	258,216	126,220
37,853	-6,442	257,895	126,223
38,867	-6,504	257,656	126,039
39,882	-6,599	257,579	125,906
40,896	-6,504	257,306	125,846
41,911	-6,542	257,100	125,700
42,926	-6,514	256,707	125,522
43,940	-6,514	256,622	125,469
44,955	-6,648	256,421	125,241
45,969	-6,716	256,213	125,069
46,984	-6,809	255,831	124,790
47,999	-7,166	255,647	124,376
49,013	-7,066	255,316	124,291
50,028	-7,153	255,037	124,068
51,042	-7,276	254,689	123,780
52,057	-7,528	254,616	123,513
53,071	-7,316	254,348	123,557
54,086	-7,317	254,207	123,477
55,101	-7,243	254,142	123,499
56,115	-6,885	253,959	123,711
57,130	-6,600	253,826	123,883
58,144	-6,117	253,816	124,287
59,159	-6,035	253,395	124,142
60,174	-6,362	253,360	123,829
61,188	-6,213	253,075	123,808
62,203	-6,202	252,876	123,709
63,217	-6,273	252,516	123,461
64,232	-6,287	252,414	123,387
65,247	-6,217	252,344	123,403
66,261	-6,202	251,779	123,129
67,276	-6,680	251,632	122,634
68,290	-6,721	251,448	122,498
69,305	-7,087	251,156	122,029
70,320	-6,927	251,035	122,097
71,334	-6,805	250,932	122,141
72,349	-6,351	250,827	122,470
73,363	-6,210	250,571	122,455
74,378	-6,116	250,377	122,429
75,393	-6,314	250,080	122,103
76,407	-6,400	249,923	121,943
77,422	-6,520	249,713	121,727
78,436	-6,421	249,519	121,706
79,451	-6,280	249,339	121,728
80,466	-6,477	249,041	121,403
81,480	-6,548	248,805	121,217
82,495	-6,730	248,692	120,996
83,509	-6,609	248,548	121,018
84,524	-6,624	248,247	120,848
85,539	-6,863	247,999	120,514
86,553	-6,831	247,841	120,454
87,568	-6,707	247,614	120,438
88,582	-6,705	247,493	120,369
89,597	-6,809	247,319	120,186
90,611	-6,426	247,091	120,388
91,626	-6,201	247,021	120,534
92,641	-6,291	246,778	120,328
93,655	-6,496	246,682	120,098
94,670	-6,576	246,556	119,958
95,684	-6,734	246,328	119,703
96,699	-6,620	246,061	119,659
97,714	-6,778	245,853	119,415
98,728	-6,770	245,606	119,290
99,743	-6,911	245,469	119,095
100,757	-6,775	245,080	119,010
101,772	-6,713	245,034	119,029
102,787	-6,792	244,918	118,896
103,801	-6,630	244,673	118,902
104,816	-6,580	244,451	118,825
105,830	-6,321	244,499	119,054
106,845	-6,429	244,285	118,848
107,860	-6,548	244,030	118,615
108,874	-6,800	243,966	118,363
109,889	-6,705	243,630	118,269
110,903	-6,642	243,361	118,180
111,918	-6,740	243,245	118,032
112,933	-6,703	243,169	118,015
113,947	-6,625	242,927	117,952
114,962	-6,522	242,977	118,051
115,976	-6,438	242,551	117,903
116,991	-6,558	242,533	117,784
118,006	-6,425	242,363	117,801
119,020	-6,413	242,231	117,737
120,035	-6,468	242,005	117,570
121,049	-6,113	241,843	117,774
122,064	-6,416	241,643	117,417
123,079	-6,505	241,436	117,233
124,093	-6,843	241,268	116,863
125,108	-6,732	240,948	116,788
126,122	-6,945	240,690	116,478
127,137	-6,928	240,504	116,392
128,151	-6,803	240,527	116,495
129,166	-6,841	240,271	116,329
130,181	-6,890	240,038	116,166
131,195	-6,781	239,904	116,180
132,210	-6,619	239,832	116,267
133,224	-6,550	239,632	116,216
134,239	-6,664	239,433	116,017
135,254	-6,462	239,263	116,088
136,268	-6,614	238,967	115,811
137,283	-6,912	238,806	115,480
138,297	-7,176	238,659	115,183
139,312	-6,833	238,399	115,326
140,327	-6,646	238,457	115,496
141,341	-6,219	238,355	115,783
142,356	-6,305	238,272	115,663
143,370	-6,222	237,972	115,573
144,385	-5,987	237,982	115,758
145,400	-6,116	237,620	115,468
146,414	-5,843	237,360	115,552
147,429	-6,079	237,344	115,343
148,443	-6,125	237,104	115,179
149,458	-6,225	236,972	115,024
150,473	-6,167	236,898	115,025
151,487	-6,023	236,469	114,922
152,502	-6,210	236,530	114,791
153,516	-6,009	236,358	114,859
154,531	-6,254	236,124	114,537
155,546	-6,226	235,929	114,456
156,560	-6,183	235,842	114,437
157,575	-6,393	235,629	114,156
158,589	-6,466	235,530	114,040
159,604	-6,220	235,443	114,184
160,619	-6,107	235,225	114,158
161,633	-6,045	235,042	114,109
162,648	-6,115	234,759	113,906
163,662	-6,198	234,637	113,770
164,677	-6,357	234,588	113,610
165,692	-6,374	234,465	113,526
166,706	-6,083	234,270	113,653
167,721	-5,936	234,020	113,638
168,735	-6,128	233,992	113,462
169,750	-6,088	233,817	113,399
170,764	-6,340	233,722	113,143
171,779	-6,067	233,441	113,213
172,794	-6,104	233,297	113,103
173,808	-6,285	233,064	112,837
174,823	-6,743	232,785	112,330
175,837	-6,867	232,379	112,027
176,852	-6,412	232,620	112,492
177,867	-6,317	232,510	112,504
178,881	-6,251	232,320	112,454
179,896	-6,131	232,164	112,463
180,910	-6,271	232,099	112,311
181,925	-6,033	231,892	112,388
182,940	-6,223	231,843	112,205
183,954	-6,047	231,675	112,252
184,969	-5,766	231,522	112,388
185,983	-5,917	231,389	112,196
186,998	-6,059	231,168	111,967
188,013	-5,869	231,011	112,030
189,027	-5,859	230,869	111,959
190,042	-5,776	230,629	111,897
191,056	-5,843	230,460	111,753
192,071	-5,883	230,433	111,698
193,086	-5,992	230,146	111,464
194,100	-5,935	230,017	111,437
195,115	-6,200	229,838	111,133
196,129	-6,575	229,510	110,673
197,144	-3,093	230,682	113,947
198,159	1,361	231,959	118,056
199,173	3,495	232,405	119,943
200,188	3,719	232,412	120,111
201,202	3,709	232,294	120,031
202,217	4,019	232,176	120,202
203,232	4,096	232,049	120,185
204,246	4,099	231,914	120,107
205,261	4,320	231,819	120,219
206,275	4,444	231,632	120,209
207,290	4,136	231,582	119,932
208,304	4,397	231,353	120,006
209,319	4,437	231,155	119,923
210,334	4,288	230,892	119,660
211,348	4,075	230,756	119,414
212,363	3,818	230,583	119,115
213,377	3,439	230,433	118,734
214,392	3,454	230,242	118,636
215,407	3,791	229,910	118,714
216,421	3,880	229,816	118,724
217,436	3,786	229,536	118,497
218,450	3,358	229,381	118,076
219,465	3,455	229,238	118,067
220,480	3,379	229,039	117,896
221,494	3,341	229,093	117,883
222,509	3,348	229,094	117,878
223,523	3,652	228,744	117,921
224,538	3,544	228,704	117,807
225,553	3,397	228,492	117,575
226,567	3,529	228,355	117,595
227,582	3,857	228,173	117,742
228,596	3,961	228,156	117,802
229,611	3,539	227,962	117,369
230,626	3,419	227,657	117,110
231,640	3,519	227,568	117,130
232,655	3,586	227,558	117,166
233,669	3,996	227,463	117,419
234,684	4,388	227,202	117,572
235,699	4,138	227,137	117,338
236,713	3,728	226,784	116,833
237,728	3,404	226,701	116,534
238,742	3,369	226,629	116,460
239,757	3,396	226,389	116,347
240,772	3,460	226,186	116,280
241,786	3,545	225,999	116,238
242,801	3,823	226,018	116,449
243,815	4,022	225,995	116,577
244,830	4,005	225,763	116,434
245,844	3,862	225,593	116,228
246,859	3,529	225,302	115,816
247,874	3,732	225,231	115,922
248,888	3,862	225,107	115,946
249,903	3,568	225,037	115,678
250,917	3,556	224,830	115,552
251,932	3,644	224,642	115,512
252,947	3,727	224,432	115,456
253,961	3,790	224,322	115,437
254,976	3,395	224,187	115,060
255,990	3,583	224,160	115,177
257,005	3,866	224,078	115,337
258,020	3,597	223,983	115,076
259,034	3,777	223,801	115,107
260,049	3,924	223,622	115,115
261,063	3,859	223,459	114,972
262,078	3,892	223,448	114,981
263,093	3,987	223,174	114,901
264,107	4,046	222,977	114,833
265,122	3,795	222,851	114,571
266,136	3,983	222,859	114,705
267,151	4,327	222,554	114,793
268,166	3,868	222,247	114,284
269,180	3,567	222,119	113,984
270,195	3,293	222,151	113,787
271,209	3,472	221,869	113,765
272,224	3,830	221,740	113,954
273,239	3,610	221,658	113,739
274,253	3,685	221,326	113,614
275,268	3,401	221,338	113,400
276,282	3,373	221,004	113,198
277,297	3,372	220,820	113,093
278,312	3,590	220,796	113,231
279,326	3,558	220,799	113,199
280,341	3,614	220,706	113,183
281,355	3,809	220,480	113,200
282,370	3,513	220,433	112,948
283,384	3,319	220,084	112,616
284,399	3,217	219,938	112,457
285,414	3,289	219,859	112,459
286,428	3,585	219,774	112,623
287,443	3,670	219,730	112,653
288,457	3,771	219,703	112,704
289,472	3,665	219,386	112,452
290,487	3,162	219,151	111,955
291,501	3,466	218,834	112,004
292,516	3,289	218,854	111,875
293,530	3,193	218,769	111,751
294,545	3,343	218,619	111,775
295,560	3,472	218,523	111,810
296,574	3,436	218,526	111,775
297,589	3,637	218,176	111,732
298,603	3,815	218,199	111,863
299,618	3,612	217,929	111,568
300,633	3,634	217,826	111,521
301,647	4,016	217,723	111,736
302,662	3,804	217,708	111,564
303,676	3,681	217,494	111,355
304,691	3,571	217,369	111,201
305,706	3,813	216,999	111,178
306,720	3,249	217,024	110,772
307,735	3,633	216,786	110,918
308,749	3,761	216,729	110,971
309,764	3,799	216,635	110,941
310,779	3,981	216,492	110,989
311,793	3,874	216,317	110,813
312,808	3,915	216,175	110,759
313,822	3,951	216,080	110,728
314,837	3,754	215,896	110,481
315,852	3,564	215,718	110,243
316,866	3,648	215,624	110,246
317,881	3,774	215,485	110,256
318,895	3,888	215,297	110,231
319,910	3,698	215,203	110,037
320,925	3,304	215,011	109,647
321,939	3,112	214,799	109,391
322,954	3,332	214,621	109,448
323,968	3,657	214,630	109,676
324,983	3,799	214,649	109,777
325,997	3,631	214,563	109,604
327,012	3,690	214,295	109,499
328,027	3,810	214,057	109,453
329,041	4,076	214,153	109,682
330,056	4,059	213,989	109,576
331,070	3,998	213,716	109,383
332,085	3,409	213,585	108,887
333,100	3,595	213,327	108,879
334,114	3,369	213,286	108,688
335,129	3,418	213,344	108,742
336,143	3,594	212,990	108,676
337,158	3,579	212,847	108,583
338,173	3,671	212,724	108,576
339,187	3,493	212,500	108,326
340,202	3,328	212,304	108,100
341,216	3,425	212,172	108,092
342,231	3,329	212,061	107,958
343,246	3,329	212,009	107,921
344,260	3,507	211,907	107,985
345,275	3,527	211,849	107,960
346,289	3,600	211,671	107,911
347,304	3,800	211,654	108,034
348,319	3,831	211,359	107,895
349,333	3,670	211,289	107,737
350,348	3,962	211,043	107,807
351,362	3,936	211,036	107,775
352,377	3,757	210,832	107,537
353,392	3,508	210,816	107,344
354,406	3,902	210,649	107,525
355,421	195,076	1344,366	1431,936
356,435	155,769	1482,557	1432,012
