DTS Sentinel unit serial number:	SN410029Multiplexer serial number:	ORYXHardware model number:	OX2-SRSoftware version number:	ORYX F/W v4,00 Oryx Data Collector v3.7.2.0data status	okinstallation	B6 Nyhavnadifferential loss correction	single-endedforward channel	channel 2reverse channel	N/Adate	2023/12/10time	17:10:08forward acquisition time	300,00reverse acquisition time	0,00gamma	499,1914k internal	0,3123k external	0,3123temperature offset calibration	1,0000default loss term (dB/km)	0,3820temperature slope calibration	1,0000multiplexer offset coefficient	1,0000multiplexer slope coefficient	1,0000fibre end	0,00T internal ref (°C)	22,42T ext. ref 1 (°C)	6,14T ext. ref 2 (°C)	6,16length (m)	temperature (°C)	Stokes	anti-Stokes-744,400	-1,689	0,164	-0,086
-743,385	20,958	-0,178	0,107
-742,371	233,010	0,101	0,124
-741,356	-103,191	-0,200	-0,035
-740,342	113,179	0,098	-0,089
-739,327	-104,219	-0,197	0,034
-738,312	111,063	-0,119	-0,107
-737,298	-97,153	-0,213	0,041
-736,283	34,552	0,105	-0,068
-735,269	0,119	-0,258	0,137
-734,254	609,026	0,014	-0,026
-733,239	-111,263	-0,319	-0,048
-732,225	-200,000	0,018	0,200
-731,210	-28,776	0,049	0,021
-730,196	20,667	0,018	0,011
-729,181	357,244	-0,021	0,031
-728,167	-157,793	0,071	-0,003
-727,152	48,590	-0,061	-0,043
-726,137	302,985	-0,069	-0,096
-725,123	483,438	-0,088	-0,149
-724,108	-200,000	0,044	-0,182
-723,094	88,802	-0,047	-0,039
-722,079	800,000	0,031	0,069
-721,064	318,792	0,092	-0,131
-720,050	800,000	-0,037	-0,108
-719,035	553,872	-0,086	-0,155
-718,021	32,873	0,069	0,044
-717,006	800,000	-0,036	-0,113
-715,991	800,000	-0,061	-0,140
-714,977	800,000	0,022	-0,056
-713,962	437,523	-0,110	-0,180
-712,948	-79,444	-0,086	-0,022
-711,933	-40,864	0,153	0,059
-710,918	-135,605	0,033	0,003
-709,904	-46,156	-0,116	0,042
-708,889	800,000	-0,087	-0,189
-707,875	303,246	-0,082	-0,114
-706,860	15,834	0,122	-0,071
-705,845	56,133	-0,171	0,123
-704,831	-200,000	-0,009	-0,098
-703,816	-200,000	-0,012	0,041
-702,802	47,887	-0,032	0,022
-701,787	800,000	-0,057	-0,129
-700,772	101,894	0,112	0,097
-699,758	89,155	0,067	-0,056
-698,743	800,000	0,020	-0,056
-697,729	-67,005	-0,128	-0,037
-696,714	-45,484	-0,123	-0,045
-695,699	-8,402	0,184	-0,092
-694,685	800,000	0,011	-0,035
-693,670	-200,000	0,002	-0,147
-692,656	7,872	0,047	-0,026
-691,641	272,801	-0,074	-0,097
-690,627	344,049	-0,081	0,119
-689,612	-200,000	0,021	-0,096
-688,597	60,818	-0,144	-0,106
-687,583	-200,000	0,008	0,062
-686,568	-200,000	-0,015	-0,092
-685,554	758,280	0,042	-0,084
-684,539	277,916	-0,070	0,093
-683,524	800,000	-0,022	-0,065
-682,510	214,792	-0,034	-0,040
-681,495	161,316	0,038	0,039
-680,481	304,326	-0,028	0,038
-679,466	254,651	-0,091	-0,115
-678,451	800,000	-0,006	-0,017
-677,437	800,000	0,011	-0,026
-676,422	259,788	-0,021	-0,027
-675,408	127,523	-0,086	0,082
-674,393	-200,000	-0,005	-0,078
-673,378	-200,000	-0,023	-0,087
-672,364	-200,000	-0,044	-0,260
-671,349	-61,380	-0,134	0,041
-670,335	-200,000	0,016	-0,066
-669,320	-200,000	0,005	0,084
-668,305	336,849	-0,049	0,072
-667,291	-200,000	0,011	0,079
-666,276	67,770	-0,113	-0,086
-665,262	-79,710	0,084	-0,021
-664,247	-66,396	-0,228	0,067
-663,232	-200,000	-0,016	-0,055
-662,218	377,239	-0,036	0,054
-661,203	-69,261	0,056	0,016
-660,189	-58,426	-0,081	-0,026
-659,174	631,007	-0,076	-0,143
-658,159	127,811	0,017	0,016
-657,145	-3,898	-0,145	0,074
-656,130	565,531	0,045	-0,082
-655,116	45,501	0,027	-0,018
-654,101	9,396	0,099	-0,055
-653,086	362,086	-0,059	0,089
-652,072	-200,000	0,003	-0,127
-651,057	-77,207	-0,200	0,051
-650,043	800,000	-0,036	-0,085
-649,028	-73,330	0,076	-0,020
-648,014	-200,000	-0,016	0,068
-646,999	-182,008	0,105	0,001
-645,984	-166,476	-0,140	0,004
-644,970	-200,000	-0,019	-0,065
-643,955	-33,683	-0,053	-0,022
-642,941	-14,980	-0,028	-0,013
-641,926	-179,679	-0,032	-0,001
-640,911	-200,000	-0,034	-0,202
-639,897	243,775	-0,063	0,078
-638,882	800,000	0,013	0,032
-637,868	-73,508	-0,114	0,031
-636,853	463,003	-0,077	-0,129
-635,838	-18,866	0,067	-0,031
-634,824	2,199	0,155	-0,083
-633,809	1,663	0,047	-0,025
-632,795	6,019	-0,107	-0,059
-631,780	-26,344	0,092	-0,040
-630,765	-19,609	-0,111	-0,051
-629,751	6,243	-0,097	-0,053
-628,736	711,176	-0,085	-0,168
-627,722	-38,759	-0,049	-0,019
-626,707	800,000	0,053	0,144
-625,692	-190,736	0,033	0,000
-624,678	-200,000	-0,010	-0,059
-623,663	-50,705	0,229	-0,080
-622,649	74,968	-0,050	-0,039
-621,634	-11,178	-0,173	-0,084
-620,619	800,000	0,028	0,068
-619,605	8,173	0,035	-0,019
-618,590	-119,216	0,032	-0,004
-617,576	381,181	-0,038	0,058
-616,561	-34,907	-0,091	-0,037
-615,546	-200,000	0,005	-0,029
-614,532	330,599	-0,066	0,095
-613,517	64,026	-0,034	0,025
-612,503	-99,610	-0,123	-0,023
-611,488	-200,000	0,004	0,120
-610,474	-200,000	0,015	-0,079
-609,459	-70,231	-0,148	-0,042
-608,444	423,049	-0,021	-0,033
-607,430	-200,000	0,000	0,008
-606,415	258,820	0,049	-0,063
-605,401	-200,000	-0,034	-0,120
-604,386	-200,000	0,017	0,084
-603,371	-6,768	-0,089	-0,045
-602,357	-95,107	0,055	0,011
-601,342	-191,037	-0,038	-0,000
-600,328	59,355	-0,173	-0,126
-599,313	800,000	0,029	-0,067
-598,298	800,000	-0,026	-0,076
-597,284	800,000	-0,016	-0,040
-596,269	341,447	0,040	0,058
-595,255	-200,000	0,020	0,111
-594,240	-94,182	-0,133	0,027
-593,225	242,232	-0,018	-0,022
-592,211	42,496	-0,024	-0,016
-591,196	377,689	-0,042	0,064
-590,182	205,719	0,102	-0,117
-589,167	800,000	-0,039	0,088
-588,152	-200,000	0,011	-0,050
-587,138	800,000	0,034	-0,094
-586,123	800,000	-0,050	-0,161
-585,109	-200,000	0,001	-0,035
-584,094	60,024	-0,034	0,025
-583,079	-9,398	0,042	-0,020
-582,065	312,795	-0,023	0,031
-581,050	800,000	-0,037	0,080
-580,036	302,004	-0,063	0,087
-579,021	254,461	-0,031	0,039
-578,006	279,186	0,061	-0,081
-576,992	-36,819	0,080	-0,032
-575,977	78,352	0,135	-0,106
-574,963	206,982	0,049	0,057
-573,948	152,439	-0,089	-0,090
-572,934	38,827	0,042	-0,028
-571,919	-15,135	-0,077	-0,036
-570,904	-17,065	0,030	0,014
-569,890	52,857	-0,084	0,060
-568,875	800,000	-0,014	-0,041
-567,861	34,556	0,085	0,055
-566,846	-200,000	0,019	-0,099
-565,831	-119,998	-0,176	-0,022
-564,817	800,000	-0,036	-0,110
-563,802	-37,331	0,031	-0,012
-562,788	-200,000	-0,000	-0,011
-561,773	128,482	-0,084	-0,079
-560,758	-52,928	0,061	-0,021
-559,744	-43,573	0,079	0,029
-558,729	-200,000	0,008	-0,026
-557,715	-142,051	0,053	-0,004
-556,700	800,000	0,045	0,137
-555,685	-34,670	-0,163	-0,066
-554,671	618,515	-0,034	-0,063
-553,656	-16,996	0,083	0,039
-552,642	-132,625	0,031	-0,003
-551,627	-58,477	0,216	0,069
-550,612	314,874	0,061	0,086
-549,598	-200,000	0,014	-0,077
-548,583	499,263	-0,042	-0,072
-547,569	-200,000	-0,014	0,115
-546,554	290,237	-0,090	0,122
-545,539	-123,383	-0,094	0,011
-544,525	-72,000	-0,097	0,027
-543,510	73,552	0,111	-0,086
-542,496	-200,000	-0,003	-0,018
-541,481	47,241	-0,106	0,073
-540,466	502,277	-0,034	0,059
-539,452	113,480	0,150	0,135
-538,437	-200,000	0,030	0,158
-537,423	165,119	-0,082	0,086
-536,408	-10,772	-0,061	0,030
-535,393	-75,006	-0,178	-0,047
-534,379	-43,338	0,085	-0,032
-533,364	-19,380	-0,085	-0,039
-532,350	-200,000	0,027	0,117
-531,335	-18,569	0,115	0,053
-530,321	-200,000	0,005	0,066
-529,306	-124,447	-0,128	-0,015
-528,291	443,765	0,039	-0,064
-527,277	800,000	0,038	-0,084
-526,262	-200,000	-0,028	-0,125
-525,248	800,000	0,025	0,058
-524,233	51,089	-0,174	-0,122
-523,218	-52,092	0,105	-0,036
-522,204	-200,000	0,002	-0,012
-521,189	-12,194	-0,165	-0,079
-520,175	107,156	0,036	-0,032
-519,160	415,617	0,029	-0,046
-518,145	-157,468	0,135	-0,006
-517,131	800,000	-0,044	0,106
-516,116	800,000	0,015	-0,031
-515,102	9,582	0,044	0,025
-514,087	336,463	-0,067	0,097
-513,072	442,021	-0,019	-0,031
-512,058	-24,198	-0,067	-0,030
-511,043	272,840	-0,027	0,035
-510,029	-200,000	-0,007	0,086
-509,014	800,000	0,041	0,105
-507,999	247,789	0,088	0,111
-506,985	-136,784	-0,131	-0,011
-505,970	185,938	0,110	-0,120
-504,956	-84,083	0,099	0,023
-503,941	647,280	-0,068	0,130
-502,926	-42,609	-0,092	-0,034
-501,912	-123,002	0,047	-0,005
-500,897	800,000	-0,038	-0,103
-499,883	149,439	-0,035	0,035
-498,868	208,653	0,070	0,081
-497,853	40,634	-0,019	-0,013
-496,839	408,923	0,048	-0,076
-495,824	800,000	0,051	0,105
-494,810	-138,920	-0,051	-0,004
-493,795	240,028	-0,085	-0,105
-492,781	70,155	-0,073	0,056
-491,766	119,370	-0,060	0,055
-490,751	-143,048	-0,073	-0,005
-489,737	308,279	0,053	-0,073
-488,722	116,235	-0,064	0,058
-487,708	-200,000	-0,003	0,054
-486,693	108,008	0,020	-0,018
-485,678	75,424	-0,029	0,022
-484,664	-200,000	-0,013	0,055
-483,649	-62,761	-0,091	0,028
-482,635	-200,000	0,020	0,109
-481,620	-200,000	0,004	0,128
-480,605	68,020	0,064	0,048
-479,591	-3,082	-0,046	-0,024
-478,576	-50,900	-0,014	0,005
-477,562	-141,767	0,030	0,002
-476,547	800,000	-0,017	-0,036
-475,532	-200,000	-0,021	0,139
-474,518	-200,000	-0,006	0,108
-473,503	0,490	0,135	0,071
-472,489	123,202	0,092	0,085
-471,474	6,466	0,060	-0,033
-470,459	-107,985	0,022	0,003
-469,445	-200,000	-0,001	-0,062
-468,430	193,708	-0,100	-0,111
-467,416	-13,232	0,199	-0,095
-466,401	800,000	-0,042	0,097
-465,386	-110,443	-0,038	0,006
-464,372	227,268	0,025	0,030
-463,357	800,000	0,049	-0,108
-462,343	-200,000	0,006	-0,030
-461,328	4,744	0,037	0,020
-460,313	168,311	-0,080	-0,084
-459,299	-95,713	0,035	-0,007
-458,284	0,828	0,077	0,041
-457,270	-133,170	-0,146	-0,013
-456,255	800,000	0,074	-0,175
-455,241	65,774	-0,104	-0,078
-454,226	-200,000	-0,009	-0,031
-453,211	314,347	0,059	-0,082
-452,197	800,000	0,058	0,130
-451,182	-200,000	-0,009	0,213
-450,168	90,670	0,044	-0,036
-449,153	-72,797	-0,044	-0,012
-448,138	105,277	-0,133	-0,116
-447,124	742,093	-0,017	-0,035
-446,109	148,918	0,056	-0,056
-445,095	196,108	-0,064	-0,072
-444,080	126,367	0,045	0,041
-443,065	75,193	-0,059	0,046
-442,051	-118,732	-0,053	0,007
-441,036	-162,418	-0,121	0,004
-440,022	282,600	-0,086	-0,114
-439,007	-117,702	-0,065	0,009
-437,992	246,690	0,072	-0,090
-436,978	800,000	-0,025	0,066
-435,963	-200,000	0,009	0,054
-434,949	-200,000	-0,015	0,118
-433,934	416,693	-0,047	-0,074
-432,919	800,000	-0,029	-0,093
-431,905	800,000	-0,044	-0,141
-430,890	57,854	0,044	-0,032
-429,876	-200,000	0,008	0,094
-428,861	-82,629	-0,046	0,011
-427,846	-144,855	0,131	-0,009
-426,832	188,689	0,036	-0,040
-425,817	-94,362	0,088	-0,018
-424,803	-200,000	-0,012	-0,076
-423,788	-11,321	0,062	0,030
-422,773	-200,000	-0,003	-0,020
-421,759	800,000	0,038	0,095
-420,744	800,000	0,003	-0,008
-419,730	-55,434	0,093	-0,031
-418,715	-200,000	0,000	-0,108
-417,701	-200,000	-0,029	-0,102
-416,686	4,892	0,061	-0,033
-415,671	-68,834	0,076	0,022
-414,657	-200,000	0,004	0,111
-413,642	245,717	0,088	0,109
-412,628	169,797	-0,084	0,089
-411,613	-200,000	0,107	-0,000
-410,598	250,791	0,057	-0,072
-409,584	-200,000	-0,022	0,112
-408,569	-200,000	0,033	0,109
-407,555	800,000	0,010	-0,023
-406,540	-200,000	-0,007	-0,076
-405,525	-118,957	-0,144	-0,018
-404,511	-200,000	-0,018	-0,115
-403,496	-95,057	0,071	-0,014
-402,482	-55,864	0,036	-0,012
-401,467	800,000	0,031	0,095
-400,452	266,791	0,067	0,086
-399,438	-26,776	0,035	0,015
-398,423	800,000	0,025	-0,054
-397,409	-2,851	-0,042	-0,021
-396,394	-200,000	0,012	-0,074
-395,379	107,066	0,021	0,019
-394,365	-151,286	-0,035	-0,002
-393,350	-200,000	0,008	0,104
-392,336	-53,583	-0,074	-0,025
-391,321	800,000	0,029	-0,082
-390,306	-200,000	-0,030	-0,111
-389,292	-11,637	0,006	-0,003
-388,277	-200,000	-0,005	-0,064
-387,263	-200,000	0,014	-0,099
-386,248	-118,216	0,090	-0,012
-385,233	-167,870	0,112	0,003
-384,219	553,692	-0,069	0,123
-383,204	-101,150	-0,053	-0,009
-382,190	444,617	-0,037	-0,059
-381,175	-51,843	0,083	-0,028
-380,160	-12,098	0,149	-0,071
-379,146	201,520	-0,035	0,040
-378,131	23,024	0,016	0,010
-377,117	-3,518	0,037	0,019
-376,102	800,000	-0,058	-0,163
-375,088	29,426	0,097	-0,061
-374,073	305,625	-0,076	-0,104
-373,058	100,382	-0,112	0,095
-372,044	-200,000	-0,006	0,122
-371,029	688,093	0,072	0,140
-370,015	-125,259	-0,160	-0,018
-369,000	179,704	-0,064	0,069
-367,985	-200,000	-0,008	-0,113
-366,971	-63,812	0,020	-0,006
-365,956	193,067	0,118	0,132
-364,942	129,879	0,140	0,131
-363,927	-200,000	0,021	0,110
-362,912	-200,000	-0,037	0,163
-361,898	800,000	-0,020	-0,057
-360,883	800,000	0,031	-0,087
-359,869	156,983	-0,051	-0,052
-358,854	-80,290	0,096	0,023
-357,839	-200,000	0,011	0,048
-356,825	89,318	0,106	-0,087
-355,810	800,000	0,028	0,064
-354,796	371,456	0,051	-0,076
-353,781	13,032	-0,077	0,043
-352,766	86,315	-0,111	0,090
-351,752	-200,000	0,027	-0,096
-350,737	539,619	0,030	-0,053
-349,723	162,492	-0,068	0,070
-348,708	189,552	-0,094	0,103
-347,693	800,000	-0,025	-0,072
-346,679	15,667	0,064	-0,037
-345,664	-200,000	0,016	-0,156
-344,650	-105,763	0,106	-0,017
-343,635	-94,761	0,043	0,008
-342,620	-66,726	0,033	0,010
-341,606	31,294	0,150	0,094
-340,591	800,000	-0,041	-0,096
-339,577	725,645	0,006	-0,012
-338,562	-146,139	-0,043	-0,003
-337,548	92,342	-0,067	-0,055
-336,533	-152,343	0,063	0,003
-335,518	-17,083	0,141	0,065
-334,504	331,278	0,057	0,081
-333,489	494,655	-0,014	-0,023
-332,475	-86,022	-0,228	0,051
-331,460	-95,840	0,048	-0,009
-330,445	-93,343	-0,030	-0,006
-329,431	-57,101	-0,090	0,029
-328,416	-22,355	0,101	0,045
-327,402	800,000	0,038	0,094
-326,387	-107,100	-0,128	-0,021
-325,372	4,521	-0,134	-0,072
-324,358	-62,278	0,151	0,046
-323,343	45,379	-0,060	-0,040
-322,329	138,572	0,011	0,011
-321,314	-54,564	0,115	0,038
-320,299	87,569	0,025	0,020
-319,285	800,000	0,016	0,050
-318,270	351,858	-0,010	0,014
-317,256	-104,621	0,101	0,017
-316,241	-49,668	-0,046	-0,016
-315,226	800,000	0,042	-0,127
-314,212	64,029	0,076	0,056
-313,197	58,222	-0,118	-0,085
-312,183	-200,000	-0,033	-0,161
-311,168	-200,000	-0,020	-0,074
-310,153	70,496	-0,057	-0,043
-309,139	800,000	0,032	-0,084
-308,124	117,083	0,018	-0,016
-307,110	199,316	0,053	-0,060
-306,095	126,300	0,093	0,087
-305,080	698,018	0,041	0,079
-304,066	800,000	-0,049	0,116
-303,051	27,917	0,086	-0,053
-302,037	119,795	0,029	0,026
-301,022	-49,694	-0,038	-0,013
-300,008	-93,702	-0,088	-0,018
-298,993	-71,034	-0,138	0,038
-297,978	800,000	0,035	-0,073
-296,964	60,428	-0,062	-0,045
-295,949	800,000	-0,014	-0,045
-294,935	9,731	-0,054	-0,030
-293,920	-40,060	0,037	0,014
-292,905	-200,000	0,001	0,128
-291,891	362,111	0,070	0,103
-290,876	36,071	0,135	-0,087
-289,862	-50,135	-0,003	-0,001
-288,847	168,915	-0,096	0,100
-287,832	-65,235	-0,157	-0,046
-286,818	-91,936	-0,046	-0,009
-285,803	-59,560	-0,164	0,051
-284,789	618,210	-0,094	0,173
-283,774	-156,866	0,082	-0,004
-282,759	-54,553	-0,113	-0,037
-281,745	-131,358	0,024	-0,002
-280,730	81,685	-0,027	-0,021
-279,716	349,079	0,040	-0,057
-278,701	17,881	-0,105	-0,061
-277,686	441,255	-0,053	0,085
-276,672	540,837	-0,019	0,034
-275,657	-70,358	0,032	0,009
-274,643	114,571	-0,073	0,065
-273,628	-14,937	0,085	-0,040
-272,613	-23,123	0,084	-0,037
-271,599	141,528	-0,126	0,122
-270,584	311,033	-0,027	-0,037
-269,570	800,000	0,042	-0,105
-268,555	800,000	0,009	-0,029
-267,540	-102,260	-0,039	-0,007
-266,526	417,288	-0,068	-0,107
-265,511	-200,000	-0,011	0,117
-264,497	59,392	0,006	0,004
-263,482	-200,000	0,002	0,165
-262,467	125,334	-0,094	0,086
-261,453	-47,450	-0,120	-0,042
-260,438	-200,000	-0,026	0,156
-259,424	130,161	0,015	-0,014
-258,409	487,617	-0,033	0,055
-257,395	21,888	-0,068	0,041
-256,380	155,911	0,067	0,067
-255,365	604,550	0,016	-0,028
-254,351	17,008	0,054	0,031
-253,336	61,587	-0,051	0,037
-252,322	101,721	-0,036	0,030
-251,307	-200,000	0,017	-0,083
-250,292	353,845	-0,041	0,059
-249,278	257,292	-0,054	-0,067
-248,263	-101,187	0,098	0,017
-247,249	-200,000	-0,036	0,216
-246,234	-114,413	0,033	-0,005
-245,219	54,048	0,027	-0,019
-244,205	-1,142	0,107	0,055
-243,190	-200,000	-0,008	0,053
-242,176	-87,692	0,078	-0,017
-241,161	-5,694	0,097	0,049
-240,146	-101,675	0,119	-0,021
-239,132	-200,000	0,010	-0,082
-238,117	800,000	-0,016	-0,048
-237,103	-200,000	0,001	-0,143
-236,088	-7,723	0,064	-0,032
-235,073	715,992	0,014	0,028
-234,059	156,145	0,048	-0,048
-233,044	-200,000	-0,012	0,039
-232,030	126,282	0,030	-0,028
-231,015	-135,228	0,151	-0,013
-230,000	463,544	-0,076	0,124
-228,986	-122,514	-0,104	-0,012
-227,971	-67,221	0,146	0,042
-226,957	344,306	-0,063	0,091
-225,942	-115,986	0,068	-0,009
-224,927	-6,052	0,056	0,028
-223,913	-174,642	-0,078	-0,002
-222,898	800,000	0,021	0,051
-221,884	-17,823	-0,053	-0,024
-220,869	-200,000	0,159	-0,000
-219,855	800,000	0,035	0,097
-218,840	-184,675	-0,070	0,001
-217,825	800,000	0,017	0,051
-216,811	-119,654	-0,047	0,006
-215,796	-99,620	-0,073	0,013
-214,782	-200,000	0,006	-0,114
-213,767	-196,806	0,131	-0,001
-212,752	194,196	0,064	-0,070
-211,738	206,427	0,018	-0,020
-210,723	-200,000	-0,021	0,095
-209,709	800,000	-0,039	0,094
-208,694	-63,018	-0,155	-0,046
-207,679	253,906	0,080	-0,100
-206,665	-86,750	0,030	0,007
-205,650	800,000	-0,051	-0,146
-204,636	20,400	-0,061	0,036
-203,621	800,000	0,043	-0,101
-202,606	-87,882	-0,052	0,011
-201,592	18,972	0,102	0,060
-200,577	-200,000	0,002	0,061
-199,563	-200,000	0,036	0,129
-198,548	-179,218	0,140	-0,002
-197,533	194,649	0,089	-0,099
-196,519	-200,000	-0,002	-0,108
-195,504	-200,000	-0,014	0,057
-194,490	190,871	-0,086	-0,095
-193,475	149,018	0,062	-0,061
-192,460	800,000	-0,046	0,135
-191,446	-97,751	0,123	-0,023
-190,431	661,290	-0,035	0,066
-189,417	-24,608	0,062	0,027
-188,402	-95,136	0,226	-0,044
-187,387	-200,000	0,002	-0,059
-186,373	-119,887	-0,091	-0,011
-185,358	668,797	0,038	-0,073
-184,344	-200,000	0,022	0,098
-183,329	800,000	0,057	0,135
-182,315	-200,000	0,044	0,150
-181,300	-6,898	0,107	0,053
-180,285	309,994	0,063	-0,086
-179,271	49,580	-0,049	-0,034
-178,256	-193,658	-0,060	0,000
-177,242	800,000	0,040	0,122
-176,227	-200,000	0,014	0,091
-175,212	778,054	0,080	0,161
-174,198	-92,969	0,090	0,018
-173,183	-50,508	-0,104	-0,035
-172,169	-200,000	-0,027	0,156
-171,154	-200,000	-0,000	0,079
-170,139	-200,000	0,012	-0,130
-169,125	-52,125	-0,070	-0,024
-168,110	-175,700	0,065	-0,001
-167,096	-200,000	-0,002	0,122
-166,081	504,305	-0,025	-0,043
-165,066	800,000	-0,035	-0,084
-164,052	-200,000	0,017	-0,099
-163,037	-117,640	0,065	-0,008
-162,023	-111,751	-0,063	0,009
-161,008	6,181	0,054	-0,029
-159,993	161,180	0,029	0,030
-158,979	-139,680	-0,095	0,007
-157,964	154,920	-0,085	-0,085
-156,950	252,616	0,122	-0,151
-155,935	58,527	0,028	0,020
-154,920	677,137	-0,004	-0,008
-153,906	-0,463	0,066	-0,034
-152,891	-200,000	-0,002	0,021
-151,877	-46,036	-0,047	-0,017
-150,862	-29,871	-0,107	0,044
-149,847	-3,693	0,125	-0,063
-148,833	571,124	0,034	-0,061
-147,818	42,452	0,107	0,071
-146,804	-78,290	0,123	0,031
-145,789	-200,000	-0,021	-0,093
-144,775	-11,326	0,064	-0,031
-143,760	800,000	0,056	-0,121
-142,745	-200,000	-0,022	-0,156
-141,731	107,969	-0,029	0,025
-140,716	-166,797	0,100	0,003
-139,702	-200,000	0,024	0,141
-138,687	-200,000	0,015	-0,175
-137,672	73,380	-0,085	-0,064
-136,658	155,333	-0,146	-0,147
-135,643	59,343	0,141	-0,101
-134,629	800,000	0,014	-0,036
-133,614	82,636	0,039	0,031
-132,599	-116,147	-0,050	0,007
-131,585	-200,000	-0,017	0,088
-130,570	46,289	0,108	0,072
-129,556	-200,000	-0,004	-0,104
-128,541	-72,765	-0,071	-0,019
-127,526	240,027	0,076	0,092
-126,512	-15,550	0,044	0,020
-125,497	98,736	0,022	0,019
-124,483	-89,704	0,085	0,018
-123,468	800,000	-0,005	-0,009
-122,453	-190,336	-0,158	0,001
-121,439	-200,000	-0,008	-0,052
-120,424	-117,339	0,079	0,010
-119,410	-200,000	0,038	0,148
-118,395	-100,188	-0,138	0,025
-117,380	800,000	-0,026	0,082
-116,366	-58,260	-0,224	0,071
-115,351	-200,000	-0,021	0,113
-114,337	62,440	-0,052	-0,038
-113,322	-200,000	0,003	0,044
-112,307	78,251	-0,071	-0,055
-111,293	35,423	0,141	0,090
-110,278	80,706	-0,030	0,023
-109,264	-136,070	-0,084	-0,007
-108,249	-4,401	0,089	0,045
-107,234	717,012	-0,052	-0,100
-106,220	6,311	0,100	-0,054
-105,205	-85,440	0,094	-0,021
-104,191	-161,276	0,115	0,004
-103,176	-3,780	-0,007	-0,004
-102,162	45,935	0,032	0,021
-101,147	44,933	-0,174	0,116
-100,132	-200,000	0,004	-0,064
-99,118	-137,097	-0,068	-0,006
-98,103	278,889	0,059	0,076
-97,089	800,000	0,031	-0,081
-96,074	800,000	-0,037	-0,101
-95,059	800,000	0,028	-0,084
-94,045	45,760	0,100	-0,067
-93,030	18,368	0,020	0,012
-92,016	-108,901	0,069	-0,011
-91,001	-200,000	0,009	-0,041
-89,986	436,117	0,046	-0,073
-88,972	61,957	0,066	-0,048
-87,957	-69,143	-0,126	-0,035
-86,943	164,116	0,082	-0,084
-85,928	-200,000	-0,103	0,000
-84,913	-78,172	-0,095	0,024
-83,899	-200,000	-0,012	0,065
-82,884	-184,040	0,076	0,001
-81,870	-20,720	0,057	0,025
-80,855	800,000	-0,019	0,061
-79,840	800,000	0,023	-0,049
-78,826	314,707	-0,031	0,042
-77,811	-86,941	0,013	0,003
-76,797	800,000	-0,018	0,039
-75,782	303,184	0,103	0,138
-74,767	-78,847	-0,057	-0,014
-73,753	-200,000	-0,005	0,028
-72,738	-109,567	-0,061	-0,009
-71,724	800,000	-0,072	-0,147
-70,709	213,234	0,086	-0,099
-69,694	-125,119	-0,056	-0,006
-68,680	-138,632	0,152	-0,012
-67,665	-35,952	-0,095	0,037
-66,651	80,337	-0,045	0,035
-65,636	464,747	-0,054	-0,088
-64,622	794,623	0,039	0,079
-63,607	-60,908	-0,017	0,005
-62,592	619,096	0,024	-0,043
-61,578	141,905	-0,014	0,013
-60,563	-51,417	0,080	0,027
-59,549	276,582	-0,048	0,062
-58,534	-123,704	-1,311	-0,149
-57,519	428,829	-0,849	-1,337
-56,505	-200,000	-0,871	-4,343
-55,490	20,344	0,557	-0,326
-54,476	800,000	4,936	11,888
-53,461	-200,000	13,628	252,867
-52,446	-200,000	689,311	2261,542
-51,432	592,736	1622,376	2920,220
-50,417	119,680	1635,374	1470,128
-49,403	73,462	1289,349	978,368
-48,388	38,144	1024,451	660,150
-47,373	24,417	981,938	587,613
-46,359	23,636	971,725	578,916
-45,344	22,630	967,408	573,035
-44,330	22,640	966,005	572,212
-43,315	22,495	964,532	570,845
-42,300	22,422	963,517	569,985
-41,286	22,458	962,512	569,486
-40,271	22,403	961,605	568,745
-39,257	22,430	960,653	568,248
-38,242	22,423	959,632	567,599
-37,227	22,446	958,808	567,163
-36,213	22,355	958,207	566,492
-35,198	22,330	957,372	565,894
-34,184	22,386	956,663	565,634
-33,169	22,364	955,702	564,971
-32,154	22,456	954,656	564,627
-31,140	22,469	953,844	564,169
-30,125	22,487	952,999	563,702
-29,111	22,470	951,994	563,031
-28,096	22,459	951,422	562,636
-27,082	22,495	950,915	562,429
-26,067	22,494	949,970	561,845
-25,052	22,400	949,498	561,242
-24,038	22,398	948,741	560,766
-23,023	22,490	948,138	560,682
-22,009	22,474	947,486	560,221
-20,994	22,511	946,912	559,980
-19,979	22,527	946,136	559,549
-18,965	22,488	945,506	559,031
-17,950	22,469	944,917	558,599
-16,936	22,470	944,082	558,086
-15,921	22,444	943,527	557,654
-14,906	22,364	942,818	556,956
-13,892	22,346	942,152	556,484
-12,877	22,336	941,406	555,991
-11,863	22,322	940,919	555,636
-10,848	22,342	940,471	555,414
-9,833	22,416	940,024	555,360
-8,819	22,440	939,367	555,029
-7,804	22,379	938,592	554,356
-6,790	22,315	938,118	553,851
-5,775	22,402	937,439	553,702
-4,760	22,403	936,785	553,298
-3,746	22,326	936,247	552,713
-2,731	22,203	935,633	551,940
-1,717	22,200	934,773	551,404
-0,702	22,131	934,216	550,835
0,313	21,961	933,656	550,800
1,327	25,009	931,532	559,083
2,342	34,518	796,253	503,226
3,356	32,587	451,439	282,373
4,371	1,709	293,331	152,715
5,386	-2,752	274,220	138,538
6,400	-4,188	268,270	134,192
7,415	-4,829	265,958	132,434
8,429	-4,366	264,731	132,235
9,444	-4,480	263,868	131,688
10,459	-4,310	263,154	131,475
11,473	-4,489	262,444	130,946
12,488	-4,664	262,172	130,641
13,502	-4,821	261,516	130,161
14,517	-4,760	261,184	130,038
15,531	-4,576	260,613	129,908
16,546	-4,654	260,413	129,727
17,561	-4,652	259,936	129,479
18,575	-4,545	259,541	129,366
19,590	-4,617	259,190	129,115
20,604	-4,629	258,986	128,992
21,619	-4,615	258,702	128,852
22,634	-4,501	258,448	128,815
23,648	-4,526	257,975	128,545
24,663	-4,545	257,968	128,514
25,677	-4,556	257,459	128,239
26,692	-4,608	257,339	128,121
27,707	-4,798	257,093	127,820
28,721	-4,664	256,664	127,713
29,736	-4,722	256,486	127,562
30,750	-4,686	256,246	127,463
31,765	-4,696	256,058	127,350
32,780	-4,726	255,816	127,192
33,794	-4,662	255,732	127,195
34,809	-4,832	255,396	126,867
35,823	-4,763	254,996	126,717
36,838	-4,686	254,991	126,770
37,853	-4,776	254,624	126,498
38,867	-4,802	254,462	126,384
39,882	-4,739	254,174	126,285
40,896	-4,771	254,044	126,181
41,911	-4,789	253,776	126,021
42,926	-4,640	253,462	125,983
43,940	-4,818	253,342	125,758
44,955	-4,817	253,018	125,586
45,969	-5,133	253,070	125,326
46,984	-4,983	252,547	125,186
47,999	-5,441	252,380	124,694
49,013	-5,467	252,110	124,527
50,028	-5,478	251,805	124,356
51,042	-5,710	251,670	124,077
52,057	-5,620	251,250	123,937
53,071	-5,567	251,212	123,953
54,086	-5,305	250,997	124,061
55,101	-5,335	250,773	123,915
56,115	-5,103	250,781	124,107
57,130	-4,705	250,604	124,351
58,144	-4,615	250,529	124,381
59,159	-4,641	250,368	124,267
60,174	-4,537	250,025	124,175
61,188	-4,426	249,831	124,163
62,203	-4,664	249,593	123,829
63,217	-4,629	249,442	123,773
64,232	-4,664	249,205	123,615
65,247	-4,468	248,926	123,633
66,261	-4,474	248,682	123,496
67,276	-4,866	248,506	123,063
68,290	-5,045	248,317	122,806
69,305	-5,104	248,042	122,609
70,320	-5,200	247,779	122,386
71,334	-4,916	247,707	122,581
72,349	-4,561	247,514	122,776
73,363	-4,500	247,400	122,760
74,378	-4,516	247,197	122,635
75,393	-4,725	246,831	122,266
76,407	-4,534	246,788	122,395
77,422	-4,791	246,701	122,123
78,436	-4,659	246,505	122,127
79,451	-4,421	246,029	122,081
80,466	-4,723	245,949	121,776
81,480	-4,957	245,795	121,491
82,495	-5,057	245,638	121,318
83,509	-4,902	245,359	121,301
84,524	-5,018	245,183	121,105
85,539	-5,063	244,990	120,961
86,553	-5,165	244,841	120,792
87,568	-4,967	244,571	120,813
88,582	-4,999	244,527	120,754
89,597	-4,827	244,227	120,739
90,611	-4,770	244,123	120,725
91,626	-4,725	243,842	120,613
92,641	-4,611	243,927	120,739
93,655	-4,616	243,485	120,506
94,670	-4,945	243,396	120,177
95,684	-4,838	243,268	120,192
96,699	-4,919	242,965	119,964
97,714	-4,937	242,754	119,834
98,728	-4,950	242,515	119,694
99,743	-5,127	242,403	119,482
100,757	-4,991	242,125	119,447
101,772	-5,027	241,837	119,265
102,787	-5,011	241,885	119,290
103,801	-4,953	241,594	119,184
104,816	-4,753	241,545	119,315
105,830	-4,642	241,276	119,263
106,845	-4,556	241,318	119,345
107,860	-4,577	240,949	119,134
108,874	-4,805	240,837	118,880
109,889	-4,864	240,644	118,726
110,903	-4,812	240,424	118,649
111,918	-4,969	240,305	118,450
112,933	-4,915	240,222	118,444
113,947	-4,788	239,937	118,397
114,962	-4,745	239,823	118,365
115,976	-4,649	239,717	118,381
116,991	-4,858	239,451	118,068
118,006	-4,767	239,259	118,037
119,020	-4,608	239,174	118,115
120,035	-4,558	239,034	118,076
121,049	-4,596	238,869	117,953
122,064	-4,735	238,715	117,753
123,079	-4,620	238,529	117,745
124,093	-4,914	238,318	117,390
125,108	-4,918	237,936	117,189
126,122	-5,069	237,789	116,982
127,137	-5,252	237,625	116,743
128,151	-5,170	237,539	116,757
129,166	-5,032	237,319	116,751
130,181	-5,100	237,055	116,555
131,195	-5,236	236,943	116,380
132,210	-5,175	236,911	116,403
133,224	-4,846	236,723	116,566
134,239	-4,676	236,479	116,572
135,254	-4,676	236,343	116,495
136,268	-4,516	236,101	116,494
137,283	-4,975	235,950	116,040
138,297	-5,163	235,584	115,698
139,312	-5,438	235,550	115,451
140,327	-4,792	235,477	115,924
141,341	-4,282	235,319	116,245
142,356	-4,423	235,293	116,108
143,370	-4,372	235,256	116,121
144,385	-4,392	235,027	115,981
145,400	-4,292	234,714	115,896
146,414	-4,243	234,645	115,891
147,429	-4,644	234,530	115,504
148,443	-4,561	234,218	115,406
149,458	-4,532	234,199	115,409
150,473	-4,461	233,940	115,328
151,487	-4,444	233,604	115,166
152,502	-4,558	233,672	115,098
153,516	-4,425	233,418	115,069
154,531	-4,509	233,263	114,915
155,546	-4,422	232,959	114,824
156,560	-4,723	232,874	114,533
157,575	-4,620	232,761	114,549
158,589	-4,631	232,573	114,437
159,604	-4,544	232,468	114,445
160,619	-4,110	232,202	114,647
161,633	-4,236	232,096	114,484
162,648	-4,338	232,055	114,374
163,662	-4,412	231,820	114,189
164,677	-4,441	231,572	114,034
165,692	-4,324	231,532	114,096
166,706	-4,064	231,383	114,218
167,721	-4,412	231,293	113,888
168,735	-4,218	231,136	113,954
169,750	-4,338	230,933	113,750
170,764	-4,402	230,834	113,640
171,779	-4,218	230,574	113,646
172,794	-4,208	230,546	113,630
173,808	-4,431	230,300	113,325
174,823	-5,118	230,004	112,631
175,837	-5,073	229,895	112,603
176,852	-4,733	229,786	112,805
177,867	-4,204	229,547	113,090
178,881	-4,572	229,573	112,806
179,896	-4,234	229,311	112,931
180,910	-4,223	229,269	112,909
181,925	-4,247	229,042	112,768
182,940	-4,222	228,923	112,719
183,954	-4,097	228,855	112,773
184,969	-4,031	228,798	112,786
185,983	-4,291	228,626	112,489
186,998	-4,148	228,279	112,419
188,013	-4,162	228,165	112,342
189,027	-4,448	228,076	112,067
190,042	-4,122	227,888	112,217
191,056	-4,203	227,676	112,040
192,071	-4,230	227,629	111,986
193,086	-4,469	227,478	111,717
194,100	-4,100	227,300	111,904
195,115	-4,642	226,940	111,300
196,129	-5,264	226,588	110,638
197,144	-2,627	227,403	113,061
198,159	1,267	228,526	116,623
199,173	3,936	229,248	119,050
200,188	4,072	229,334	119,188
201,202	4,320	229,049	119,222
202,217	4,353	228,831	119,123
203,232	4,696	228,796	119,359
204,246	4,873	228,664	119,416
205,261	4,795	228,522	119,271
206,275	4,776	228,500	119,235
207,290	4,855	228,195	119,125
208,304	4,900	228,221	119,163
209,319	5,012	228,013	119,130
210,334	4,748	227,765	118,786
211,348	4,855	227,287	118,609
212,363	4,119	227,382	118,084
213,377	4,118	227,084	117,918
214,392	4,083	226,960	117,816
215,407	4,205	226,847	117,840
216,421	4,148	226,590	117,652
217,436	4,026	226,548	117,527
218,450	3,993	226,189	117,305
219,465	3,636	226,135	116,995
220,480	3,873	225,992	117,091
221,494	3,740	225,799	116,879
222,509	3,927	225,724	116,972
223,523	4,041	225,542	116,954
224,538	4,054	225,296	116,826
225,553	4,009	225,287	116,777
226,567	4,389	225,061	116,937
227,582	4,122	225,164	116,778
228,596	4,319	225,010	116,837
229,611	4,173	224,825	116,620
230,626	3,953	224,664	116,360
231,640	3,887	224,379	116,152
232,655	4,216	224,374	116,387
233,669	4,590	224,292	116,616
234,684	4,709	224,155	116,624
235,699	4,388	224,031	116,308
236,713	4,387	223,624	116,085
237,728	4,226	223,465	115,871
238,742	3,803	223,407	115,513
239,757	3,779	223,176	115,365
240,772	3,912	223,087	115,409
241,786	4,168	222,847	115,466
242,801	4,247	222,797	115,489
243,815	4,519	222,732	115,649
244,830	4,272	222,670	115,422
245,844	4,080	222,471	115,165
246,859	4,163	222,253	115,104
247,874	4,276	222,178	115,139
248,888	4,302	222,085	115,100
249,903	4,389	221,842	115,028
250,917	4,119	221,740	114,764
251,932	3,988	221,490	114,527
252,947	3,811	221,462	114,370
253,961	3,984	221,158	114,332
254,976	4,028	221,102	114,326
255,990	4,330	221,119	114,548
257,005	4,363	220,836	114,416
258,020	4,299	220,784	114,332
259,034	4,456	220,691	114,389
260,049	4,302	220,476	114,153
261,063	4,529	220,175	114,155
262,078	4,456	220,186	114,097
263,093	4,503	220,007	114,028
264,107	4,002	220,034	113,663
265,122	4,373	219,870	113,841
266,136	4,577	219,766	113,928
267,151	4,591	219,621	113,853
268,166	4,342	219,345	113,517
269,180	3,720	219,106	112,925
270,195	3,850	218,903	112,906
271,209	3,784	218,811	112,800
272,224	3,982	218,804	112,932
273,239	4,021	218,701	112,898
274,253	3,853	218,389	112,603
275,268	3,853	218,233	112,513
276,282	3,953	218,165	112,540
277,297	3,991	217,709	112,323
278,312	3,802	217,726	112,184
279,326	4,056	217,751	112,372
280,341	4,072	217,692	112,344
281,355	3,947	217,378	112,081
282,370	4,163	217,294	112,185
283,384	3,754	217,136	111,795
284,399	3,746	217,102	111,761
285,414	3,757	216,932	111,672
286,428	4,035	216,887	111,841
287,443	4,077	216,761	111,797
288,457	4,248	216,533	111,793
289,472	4,004	216,303	111,487
290,487	3,833	215,985	111,190
291,501	3,480	215,892	110,877
292,516	3,637	215,765	110,915
293,530	3,792	215,762	111,016
294,545	3,835	215,523	110,914
295,560	4,017	215,494	111,020
296,574	4,100	215,352	110,997
297,589	4,100	215,341	110,982
298,603	4,148	215,119	110,892
299,618	4,076	214,991	110,764
300,633	3,970	214,867	110,614
301,647	4,185	214,804	110,727
302,662	4,237	214,642	110,671
303,676	4,460	214,339	110,665
304,691	4,192	214,359	110,473
305,706	4,219	214,223	110,412
306,720	4,272	214,180	110,418
307,735	4,067	213,932	110,133
308,749	3,871	213,718	109,874
309,764	4,232	213,696	110,111
310,779	4,488	213,528	110,197
311,793	4,435	213,239	110,000
312,808	4,277	213,144	109,828
313,822	4,359	213,058	109,833
314,837	3,944	212,935	109,465
315,852	3,907	212,595	109,254
316,866	4,319	212,600	109,539
317,881	4,379	212,574	109,558
318,895	4,324	212,350	109,394
319,910	4,020	212,190	109,087
320,925	3,879	211,975	108,867
321,939	3,591	211,751	108,538
322,954	3,842	211,700	108,680
323,968	4,069	211,707	108,834
324,983	4,126	211,689	108,855
325,997	4,161	211,403	108,723
327,012	4,200	211,234	108,654
328,027	4,047	211,152	108,495
329,041	4,444	211,151	108,764
330,056	4,693	210,999	108,852
331,070	4,007	210,881	108,298
332,085	3,634	210,536	107,849
333,100	4,019	210,345	108,012
334,114	4,089	210,353	108,056
335,129	4,421	210,158	108,178
336,143	4,010	210,052	107,827
337,158	4,082	209,940	107,810
338,173	4,193	209,795	107,803
339,187	3,956	209,580	107,517
340,202	3,795	209,433	107,320
341,216	3,775	209,257	107,206
342,231	3,831	209,238	107,226
343,246	3,877	209,149	107,203
344,260	3,900	209,074	107,171
345,275	4,006	208,884	107,138
346,289	4,204	208,684	107,163
347,304	3,997	208,725	107,031
348,319	4,198	208,604	107,099
349,333	3,977	208,382	106,822
350,348	4,245	208,208	106,910
351,362	4,278	208,128	106,881
352,377	4,205	208,047	106,780
353,392	3,984	207,864	106,524
354,406	4,124	207,681	106,517
355,421	194,213	1342,121	1431,488
356,435	154,967	1480,437	1431,606
