DTS Sentinel unit serial number:	SN410029Multiplexer serial number:	ORYXHardware model number:	OX2-SRSoftware version number:	ORYX F/W v4,00 Oryx Data Collector v3.7.2.0data status	okinstallation	B6 Nyhavnadifferential loss correction	single-endedforward channel	channel 2reverse channel	N/Adate	2023/12/11time	00:35:08forward acquisition time	300,00reverse acquisition time	0,00gamma	499,1914k internal	0,3122k external	0,3122temperature offset calibration	1,0000default loss term (dB/km)	0,3820temperature slope calibration	1,0000multiplexer offset coefficient	1,0000multiplexer slope coefficient	1,0000fibre end	0,00T internal ref (°C)	22,31T ext. ref 1 (°C)	5,76T ext. ref 2 (°C)	5,78length (m)	temperature (°C)	Stokes	anti-Stokes-744,400	-139,296	-0,114	-0,009
-743,385	32,443	-0,296	0,190
-742,371	-105,205	0,073	0,012
-741,356	118,597	-0,203	0,187
-740,342	800,000	0,039	-0,124
-739,327	-0,616	-0,196	0,104
-738,312	-200,000	-0,016	-0,099
-737,298	56,098	-0,155	0,112
-736,283	95,329	-0,051	0,043
-735,269	-75,230	-0,181	0,048
-734,254	592,306	0,074	0,137
-733,239	-46,862	-0,355	-0,129
-732,225	15,218	-0,094	-0,055
-731,210	339,121	-0,094	0,136
-730,196	681,149	0,067	0,130
-729,181	381,284	-0,037	0,057
-728,167	-61,170	0,052	-0,016
-727,152	-21,216	0,164	-0,074
-726,137	800,000	-0,049	-0,144
-725,123	800,000	-0,015	-0,047
-724,108	745,101	-0,063	-0,127
-723,094	800,000	0,058	-0,134
-722,079	-200,000	-0,010	-0,104
-721,064	8,665	-0,094	0,053
-720,050	-200,000	-0,008	0,042
-719,035	-49,737	-0,058	-0,020
-718,021	-200,000	-0,010	-0,201
-717,006	800,000	-0,017	-0,043
-715,991	123,938	-0,112	-0,104
-714,977	369,525	-0,079	-0,120
-713,962	-200,000	0,001	-0,084
-712,948	-200,000	-0,005	0,033
-711,933	-46,066	-0,208	0,076
-710,918	-63,272	-0,089	0,027
-709,904	345,215	-0,040	0,059
-708,889	388,338	0,031	0,049
-707,875	-200,000	-0,024	-0,100
-706,860	800,000	0,062	-0,133
-705,845	-200,000	0,022	0,090
-704,831	60,236	-0,071	0,052
-703,816	-106,134	0,100	0,017
-702,802	-107,758	-0,113	-0,018
-701,787	512,566	-0,045	-0,078
-700,772	29,806	-0,207	-0,131
-699,758	800,000	0,025	-0,056
-698,743	-67,244	-0,037	-0,011
-697,729	-34,305	0,055	0,022
-696,714	21,675	0,088	-0,053
-695,699	-106,883	0,034	0,006
-694,685	-123,549	-0,134	-0,016
-693,670	-200,000	0,023	-0,098
-692,656	-200,000	-0,003	0,074
-691,641	236,535	0,034	-0,042
-690,627	192,295	0,016	0,018
-689,612	122,578	-0,070	0,065
-688,597	-200,000	0,002	-0,013
-687,583	41,006	0,026	0,017
-686,568	800,000	0,041	0,094
-685,554	255,550	0,023	-0,029
-684,539	-103,172	0,013	-0,002
-683,524	87,261	0,052	0,043
-682,510	-200,000	-0,019	0,142
-681,495	-200,000	-0,009	-0,033
-680,481	506,286	0,030	-0,051
-679,466	1,215	-0,088	0,047
-678,451	-200,000	-0,006	0,046
-677,437	-67,458	0,043	0,013
-676,422	-171,872	-0,027	0,001
-675,408	623,938	-0,036	-0,068
-674,393	66,230	-0,043	0,032
-673,378	184,683	-0,082	-0,090
-672,364	26,287	-0,097	-0,060
-671,349	470,904	-0,045	-0,076
-670,335	800,000	-0,052	-0,123
-669,320	800,000	0,021	-0,050
-668,305	336,629	0,111	0,161
-667,291	-200,000	0,043	0,151
-666,276	800,000	-0,070	-0,174
-665,262	-57,636	-0,126	0,041
-664,247	293,274	0,016	0,022
-663,232	-73,654	-0,045	-0,012
-662,218	-180,900	-0,154	0,002
-661,203	-34,215	-0,102	0,041
-660,189	-200,000	0,041	0,176
-659,174	85,524	-0,023	-0,019
-658,159	90,357	0,111	-0,092
-657,145	-36,122	0,056	0,022
-656,130	149,261	-0,083	0,083
-655,116	-13,011	0,131	-0,063
-654,101	-173,769	0,105	-0,002
-653,086	800,000	0,040	0,109
-652,072	147,132	0,019	-0,019
-651,057	78,265	-0,130	-0,103
-650,043	-97,186	-0,046	-0,009
-649,028	187,144	0,031	-0,034
-648,014	-135,135	0,060	-0,005
-646,999	-131,888	-0,070	-0,007
-645,984	129,311	-0,127	0,120
-644,970	-200,000	-0,004	-0,056
-643,955	800,000	0,078	-0,199
-642,941	800,000	0,052	-0,132
-641,926	-200,000	0,018	-0,079
-640,911	470,982	0,040	0,068
-639,897	-200,000	0,004	0,106
-638,882	800,000	-0,024	0,059
-637,868	-200,000	0,002	0,063
-636,853	-200,000	-0,052	-0,184
-635,838	800,000	0,029	-0,066
-634,824	760,083	-0,018	-0,036
-633,809	-200,000	-0,017	-0,063
-632,795	-151,258	0,008	-0,000
-631,780	100,403	-0,016	0,014
-630,765	-143,351	-0,037	-0,003
-629,751	800,000	-0,026	-0,058
-628,736	20,924	-0,054	0,032
-627,722	471,749	0,053	-0,089
-626,707	800,000	0,021	-0,052
-625,692	-129,539	0,119	0,012
-624,678	57,765	0,019	0,014
-623,663	104,693	0,100	-0,087
-622,649	-200,000	0,009	-0,041
-621,634	8,156	0,012	0,007
-620,619	11,691	-0,109	-0,062
-619,605	-149,658	0,032	0,002
-618,590	-200,000	-0,029	0,121
-617,576	182,519	0,023	-0,025
-616,561	-122,247	-0,092	-0,011
-615,546	41,050	0,125	0,084
-614,532	-200,000	0,038	-0,157
-613,517	-115,637	-0,022	-0,003
-612,503	800,000	0,012	0,030
-611,488	-200,000	0,004	-0,074
-610,474	643,835	-0,019	0,036
-609,459	-117,695	0,068	0,009
-608,444	679,000	0,031	0,061
-607,430	-126,849	-0,062	-0,007
-606,415	276,257	0,047	-0,062
-605,401	335,332	-0,036	0,052
-604,386	73,001	-0,071	-0,055
-603,371	111,319	-0,031	0,027
-602,357	518,464	-0,064	0,112
-601,342	-200,000	0,005	-0,061
-600,328	13,908	0,043	0,024
-599,313	-68,829	-0,126	-0,036
-598,298	-200,000	0,006	0,056
-597,284	800,000	0,044	-0,138
-596,269	-41,921	0,037	-0,014
-595,255	639,933	0,047	-0,089
-594,240	-200,000	0,022	-0,085
-593,225	800,000	-0,033	-0,103
-592,211	800,000	0,087	-0,225
-591,196	97,092	-0,037	-0,031
-590,182	-200,000	0,012	0,110
-589,167	54,794	0,120	0,086
-588,152	234,478	-0,031	-0,038
-587,138	-125,100	0,090	0,010
-586,123	-200,000	0,012	-0,125
-585,109	-200,000	-0,022	-0,106
-584,094	800,000	-0,001	-0,005
-583,079	11,849	0,072	-0,041
-582,065	-189,101	0,040	-0,000
-581,050	-200,000	0,010	-0,044
-580,036	-121,495	-0,199	-0,024
-579,021	-71,721	-0,052	-0,014
-578,006	-53,513	0,060	0,020
-576,992	-132,305	-0,175	-0,017
-575,977	83,116	0,058	-0,047
-574,963	60,796	-0,077	-0,056
-573,948	-53,434	0,177	0,060
-572,934	-19,994	-0,044	-0,020
-571,919	100,772	-0,125	0,107
-570,904	244,933	0,081	-0,101
-569,890	24,460	-0,036	0,022
-568,875	46,956	0,144	0,099
-567,861	-200,000	0,034	0,148
-566,846	135,818	0,059	0,056
-565,831	-200,000	-0,014	0,052
-564,817	70,673	0,025	-0,019
-563,802	-200,000	-0,014	-0,122
-562,788	602,987	-0,045	0,083
-561,773	-200,000	0,000	-0,103
-560,758	-154,468	-0,062	0,003
-559,744	-24,831	0,109	0,048
-558,729	80,565	-0,060	0,047
-557,715	-200,000	-0,041	-0,204
-556,700	98,790	-0,100	0,085
-555,685	-200,000	-0,026	0,092
-554,671	346,003	0,017	-0,025
-553,656	-85,098	0,035	-0,008
-552,642	84,698	-0,052	0,042
-551,627	-107,960	0,126	0,020
-550,612	759,472	-0,037	-0,075
-549,598	31,626	-0,040	-0,025
-548,583	-75,058	-0,175	-0,046
-547,569	246,179	-0,032	0,039
-546,554	-75,971	0,050	-0,013
-545,539	-26,335	0,078	-0,034
-544,525	-200,000	-0,021	-0,080
-543,510	151,668	-0,030	-0,031
-542,496	76,652	0,035	0,027
-541,481	19,436	0,089	-0,053
-540,466	27,334	-0,041	0,026
-539,452	169,417	-0,070	0,074
-538,437	310,745	0,162	0,225
-537,423	-36,087	0,132	-0,053
-536,408	-200,000	-0,016	-0,097
-535,393	59,978	0,183	-0,133
-534,379	-22,969	-0,073	0,033
-533,364	-112,880	-0,123	0,018
-532,350	-181,529	-0,085	-0,001
-531,335	167,834	-0,026	-0,027
-530,321	800,000	-0,003	-0,010
-529,306	-117,418	0,098	-0,013
-528,291	166,379	-0,027	0,028
-527,277	-200,000	-0,002	-0,168
-526,262	222,682	0,005	0,006
-525,248	-200,000	0,026	0,113
-524,233	-96,896	-0,123	0,024
-523,218	-44,962	0,075	-0,027
-522,204	206,809	-0,083	0,096
-521,189	-41,888	0,028	-0,010
-520,175	634,780	-0,068	0,127
-519,160	-200,000	0,030	0,122
-518,145	318,008	0,018	-0,025
-517,131	118,566	0,081	-0,074
-516,116	-123,698	0,205	0,024
-515,102	-114,424	0,038	0,005
-514,087	800,000	-0,027	0,067
-513,072	-19,985	-0,097	-0,044
-512,058	800,000	-0,055	-0,168
-511,043	-200,000	0,007	-0,058
-510,029	371,607	0,022	0,033
-509,014	326,798	0,053	-0,076
-507,999	201,549	0,023	-0,026
-506,985	-200,000	-0,053	-0,245
-505,970	174,438	0,067	-0,072
-504,956	258,957	0,060	0,077
-503,941	-200,000	0,010	0,053
-502,926	3,642	0,114	0,061
-501,912	90,497	0,112	0,093
-500,897	-174,209	-0,174	0,004
-499,883	800,000	-0,023	-0,066
-498,868	12,343	-0,152	-0,086
-497,853	-200,000	-0,018	0,183
-496,839	-200,000	-0,032	0,144
-495,824	-200,000	-0,005	0,176
-494,810	97,064	-0,028	-0,024
-493,795	49,642	-0,087	-0,061
-492,781	-139,609	-0,100	-0,008
-491,766	239,517	-0,058	0,071
-490,751	-63,289	0,023	-0,007
-489,737	-85,936	0,030	-0,007
-488,722	330,272	0,033	-0,047
-487,708	102,322	0,055	0,047
-486,693	-29,131	-0,109	0,046
-485,678	800,000	-0,024	-0,075
-484,664	-73,308	0,087	-0,023
-483,649	433,275	-0,022	-0,035
-482,635	800,000	0,012	0,033
-481,620	-142,262	0,210	0,015
-480,605	-200,000	-0,027	-0,159
-479,591	725,622	0,028	-0,055
-478,576	-153,249	0,051	0,003
-477,562	-200,000	-0,040	-0,185
-476,547	-200,000	-0,020	-0,093
-475,532	22,187	-0,057	0,034
-474,518	113,457	0,046	-0,041
-473,503	450,397	0,074	0,120
-472,489	202,078	0,080	0,091
-471,474	-173,929	0,066	-0,001
-470,459	-6,907	-0,023	0,011
-469,445	-72,705	0,029	-0,008
-468,430	800,000	-0,022	-0,049
-467,416	-12,840	-0,073	-0,035
-466,401	-200,000	0,004	-0,097
-465,386	800,000	0,033	0,092
-464,372	-200,000	0,006	0,083
-463,357	16,428	-0,094	-0,055
-462,343	285,287	-0,073	0,097
-461,328	92,288	0,122	-0,102
-460,313	-73,232	-0,090	0,024
-459,299	800,000	-0,010	-0,026
-458,284	-26,013	-0,042	0,018
-457,270	665,070	-0,038	-0,073
-456,255	148,150	-0,061	-0,060
-455,241	-109,894	0,138	0,021
-454,226	-200,000	-0,012	-0,072
-453,211	107,208	0,148	0,130
-452,197	-200,000	0,114	0,000
-451,182	196,729	-0,058	-0,065
-450,168	-32,536	0,153	0,063
-449,153	-52,116	0,091	-0,031
-448,138	359,235	-0,041	0,060
-447,124	264,844	-0,014	-0,018
-446,109	-200,000	0,009	-0,096
-445,095	-186,970	-0,097	0,001
-444,080	-86,968	0,028	-0,006
-443,065	92,117	-0,151	-0,126
-442,051	-200,000	-0,012	0,081
-441,036	306,387	0,020	0,028
-440,022	-200,000	-0,038	-0,181
-439,007	-101,052	-0,101	-0,018
-437,992	251,251	0,131	0,165
-436,978	-119,825	0,186	-0,023
-435,963	95,406	-0,062	-0,052
-434,949	-117,810	-0,076	-0,010
-433,934	-200,000	-0,002	0,029
-432,919	49,361	-0,088	0,061
-431,905	5,392	-0,033	-0,018
-430,890	189,141	0,089	-0,098
-429,876	800,000	-0,052	0,123
-428,861	800,000	0,025	-0,053
-427,846	22,516	-0,143	-0,086
-426,832	159,973	-0,076	0,078
-425,817	-141,629	0,173	0,013
-424,803	-200,000	-0,005	-0,079
-423,788	89,463	-0,079	-0,065
-422,773	-200,000	0,017	-0,109
-421,759	81,417	-0,075	-0,060
-420,744	-16,710	-0,020	0,009
-419,730	-47,596	-0,069	0,025
-418,715	-200,000	-0,022	-0,077
-417,701	-200,000	-0,003	-0,169
-416,686	-200,000	0,030	-0,165
-415,671	-200,000	0,003	0,085
-414,657	-104,102	-0,107	0,018
-413,642	307,959	0,029	0,039
-412,628	627,963	-0,078	0,145
-411,613	656,965	0,036	-0,068
-410,598	800,000	-0,051	-0,151
-409,584	277,927	0,062	-0,082
-408,569	-107,221	0,134	-0,021
-407,555	610,485	0,030	-0,055
-406,540	244,360	-0,070	0,087
-405,525	157,067	0,104	0,106
-404,511	160,126	-0,102	-0,105
-403,496	638,936	-0,039	0,074
-402,482	-4,953	0,019	0,010
-401,467	48,387	0,067	-0,046
-400,452	800,000	0,045	0,107
-399,438	-9,488	-0,060	0,030
-398,423	-52,153	-0,052	0,018
-397,409	-6,178	0,092	-0,046
-396,394	75,204	-0,053	0,041
-395,379	-200,000	-0,009	-0,108
-394,365	800,000	-0,079	-0,193
-393,350	-200,000	0,004	0,046
-392,336	393,031	-0,015	0,024
-391,321	501,685	-0,059	-0,101
-390,306	-200,000	0,040	-0,207
-389,292	-20,154	-0,101	-0,046
-388,277	11,558	0,086	-0,048
-387,263	-18,330	0,016	0,007
-386,248	-200,000	0,005	-0,020
-385,233	-52,326	0,064	-0,022
-384,219	-200,000	-0,004	-0,079
-383,204	40,362	-0,034	-0,023
-382,190	-1,731	0,061	-0,032
-381,175	382,068	0,084	-0,127
-380,160	-46,153	0,086	0,031
-379,146	-140,343	-0,090	0,007
-378,131	100,754	0,069	0,059
-377,117	91,095	-0,072	0,059
-376,102	204,089	-0,059	-0,068
-375,088	279,694	-0,102	-0,134
-374,073	9,047	-0,111	0,062
-373,058	-200,000	0,035	0,184
-372,044	-90,881	0,080	-0,017
-371,029	-200,000	-0,024	0,207
-370,015	377,496	0,048	0,072
-369,000	-200,000	0,011	-0,039
-367,985	-200,000	-0,003	-0,203
-366,971	3,505	-0,046	0,024
-365,956	-20,714	-0,044	-0,020
-364,942	-200,000	-0,014	0,072
-363,927	182,771	0,039	0,042
-362,912	121,166	-0,070	0,064
-361,898	-3,392	-0,016	0,008
-360,883	523,683	-0,043	0,074
-359,869	248,229	-0,055	0,069
-358,854	351,472	0,090	0,131
-357,839	800,000	0,022	0,067
-356,825	800,000	0,033	-0,105
-355,810	502,435	0,025	0,042
-354,796	-200,000	0,001	-0,037
-353,781	16,449	-0,109	0,063
-352,766	-200,000	-0,021	-0,114
-351,752	-200,000	0,010	0,055
-350,737	175,629	0,045	0,048
-349,723	-30,418	-0,115	0,047
-348,708	-185,100	-0,012	-0,000
-347,693	800,000	-0,030	-0,078
-346,679	34,373	-0,078	0,050
-345,664	-200,000	0,029	-0,172
-344,650	-93,905	-0,038	0,008
-343,635	82,364	0,084	0,067
-342,620	127,470	-0,063	-0,059
-341,606	-6,970	0,038	0,019
-340,591	-10,727	-0,087	-0,042
-339,577	-200,000	0,009	0,059
-338,562	223,300	0,019	-0,022
-337,548	-200,000	0,009	0,106
-336,533	97,346	-0,113	0,095
-335,518	-174,481	0,036	0,001
-334,504	108,897	0,065	0,057
-333,489	465,605	-0,025	-0,041
-332,475	150,169	-0,103	-0,103
-331,460	624,127	0,010	-0,018
-330,445	112,219	-0,063	0,056
-329,431	-77,101	-0,060	0,015
-328,416	-200,000	-0,003	0,033
-327,402	464,592	0,093	-0,153
-326,387	800,000	0,056	0,119
-325,372	-76,213	-0,134	0,034
-324,358	0,036	-0,108	0,056
-323,343	87,673	-0,100	-0,082
-322,329	-27,171	-0,071	0,030
-321,314	-95,663	0,068	0,013
-320,299	-26,951	0,132	0,056
-319,285	-27,623	-0,041	-0,017
-318,270	-9,408	-0,147	0,072
-317,256	-200,000	0,016	0,084
-316,241	800,000	0,052	0,120
-315,226	-125,634	-0,043	0,005
-314,212	-200,000	0,003	-0,050
-313,197	-33,723	-0,014	0,006
-312,183	25,683	-0,094	0,057
-311,168	359,884	0,062	-0,091
-310,153	-200,000	0,003	-0,022
-309,139	306,578	0,052	0,071
-308,124	-200,000	0,038	-0,167
-307,110	-98,051	0,026	-0,005
-306,095	-148,689	0,101	0,006
-305,080	93,615	-0,057	0,047
-304,066	73,798	-0,076	0,058
-303,051	176,733	-0,084	-0,090
-302,037	-18,410	0,023	0,010
-301,022	502,535	0,084	0,143
-300,008	61,743	-0,017	0,012
-298,993	-200,000	-0,003	0,066
-297,978	-119,842	0,065	-0,008
-296,964	257,844	-0,060	-0,076
-295,949	87,068	0,042	-0,034
-294,935	267,043	0,017	0,022
-293,920	435,936	-0,056	-0,089
-292,905	235,763	0,032	-0,039
-291,891	-112,338	0,029	-0,004
-290,876	800,000	0,045	0,091
-289,862	800,000	-0,017	0,052
-288,847	-200,000	0,036	-0,116
-287,832	-200,000	-0,007	-0,059
-286,818	800,000	0,012	-0,034
-285,803	-200,000	0,004	0,145
-284,789	-116,459	0,092	0,012
-283,774	363,792	0,014	0,021
-282,759	-90,940	0,101	-0,021
-281,745	-25,125	-0,085	-0,037
-280,730	274,379	-0,034	0,044
-279,716	195,374	-0,075	-0,084
-278,701	53,241	0,090	0,063
-277,686	-84,528	0,051	0,012
-276,672	-166,935	0,121	-0,004
-275,657	501,789	0,040	0,068
-274,643	169,964	-0,016	-0,017
-273,628	-9,841	-0,068	-0,033
-272,613	-184,100	-0,072	0,001
-271,599	51,257	-0,037	0,026
-270,584	-200,000	0,051	0,179
-269,570	-200,000	0,010	0,088
-268,555	-111,952	0,016	0,002
-267,540	226,501	0,074	0,088
-266,526	-141,637	-0,094	-0,007
-265,511	-200,000	0,057	-0,212
-264,497	48,145	-0,174	-0,119
-263,482	-200,000	0,011	0,083
-262,467	50,156	0,046	0,032
-261,453	-189,821	0,070	-0,001
-260,438	-200,000	0,014	0,070
-259,424	-56,011	0,066	-0,021
-258,409	-200,000	-0,005	-0,026
-257,395	-28,941	0,187	0,078
-256,380	72,857	-0,044	-0,033
-255,365	23,244	0,115	0,069
-254,351	118,288	-0,077	0,070
-253,336	244,767	-0,080	0,099
-252,322	114,813	-0,103	0,092
-251,307	-200,000	0,004	-0,191
-250,292	-0,248	-0,125	0,065
-249,278	53,243	0,083	-0,058
-248,263	278,373	0,015	0,020
-247,249	147,638	0,073	0,072
-246,234	663,991	0,016	0,030
-245,219	215,311	-0,058	-0,067
-244,205	106,728	-0,082	-0,071
-243,190	-200,000	0,010	0,045
-242,176	-50,798	0,111	0,038
-241,161	-112,097	-0,004	0,001
-240,146	433,115	-0,036	0,058
-239,132	-153,000	0,009	-0,000
-238,117	-200,000	-0,009	-0,047
-237,103	-174,608	0,134	-0,003
-236,088	14,274	-0,086	-0,049
-235,073	-93,620	-0,030	0,006
-234,059	-200,000	0,008	0,079
-233,044	46,448	0,116	0,079
-232,030	221,659	0,068	-0,081
-231,015	-123,471	-0,193	-0,022
-230,000	-31,065	0,104	-0,043
-228,986	373,666	-0,030	-0,045
-227,971	110,137	0,042	0,037
-226,957	-46,717	0,117	0,042
-225,942	-43,701	-0,125	0,046
-224,927	2,268	-0,009	-0,005
-223,913	-200,000	0,002	-0,117
-222,898	-31,302	-0,067	0,027
-221,884	29,879	0,137	0,085
-220,869	-76,354	0,097	0,025
-219,855	-124,833	-0,134	0,015
-218,840	82,065	-0,049	0,039
-217,825	-102,090	0,172	-0,030
-216,811	279,723	-0,058	0,076
-215,796	-129,367	-0,120	-0,012
-214,782	-200,000	-0,002	0,062
-213,767	-64,648	0,152	0,045
-212,752	-200,000	-0,021	0,136
-211,738	43,145	0,091	0,060
-210,723	-152,520	-0,128	0,007
-209,709	-55,798	0,125	0,041
-208,694	800,000	0,031	-0,082
-207,679	-16,258	-0,031	0,014
-206,665	800,000	-0,026	0,070
-205,650	37,394	-0,038	-0,024
-204,636	-200,000	0,016	0,060
-203,621	-66,420	0,021	0,006
-202,606	55,495	-0,062	-0,044
-201,592	-200,000	0,032	-0,129
-200,577	-200,000	0,011	-0,045
-199,563	44,448	0,070	-0,047
-198,548	-200,000	0,037	0,154
-197,533	-200,000	0,011	0,072
-196,519	800,000	0,055	0,140
-195,504	-19,489	0,049	0,022
-194,490	240,472	-0,041	0,050
-193,475	-150,820	0,046	-0,002
-192,460	-4,678	0,122	0,061
-191,446	483,101	-0,025	0,042
-190,431	-200,000	-0,020	0,109
-189,417	-77,723	0,094	0,024
-188,402	-166,949	-0,132	0,004
-187,387	222,920	-0,085	-0,100
-186,373	-138,678	0,104	0,008
-185,358	-200,000	-0,041	0,166
-184,344	-110,587	0,050	-0,007
-183,329	219,416	0,068	0,080
-182,315	-16,935	0,040	0,019
-181,300	240,222	-0,015	0,019
-180,285	73,965	-0,100	0,077
-179,271	-83,329	0,089	-0,021
-178,256	418,467	-0,029	-0,046
-177,242	-200,000	0,008	0,057
-176,227	174,190	0,056	0,059
-175,212	-200,000	-0,019	0,082
-174,198	-71,786	0,129	0,035
-173,183	187,133	-0,062	-0,068
-172,169	-200,000	0,004	-0,094
-171,154	59,513	-0,049	0,035
-170,139	-200,000	-0,008	-0,070
-169,125	49,038	-0,067	0,046
-168,110	96,970	0,100	0,084
-167,096	-200,000	-0,018	0,216
-166,081	-23,309	-0,104	-0,045
-165,066	800,000	-0,041	0,116
-164,052	-200,000	-0,005	-0,111
-163,037	-200,000	-0,006	0,096
-162,023	348,445	0,022	-0,032
-161,008	-200,000	-0,031	0,118
-159,993	118,126	0,015	-0,013
-158,979	-200,000	-0,013	-0,090
-157,964	122,821	-0,156	0,142
-156,950	24,569	-0,035	0,021
-155,935	-200,000	-0,016	0,119
-154,920	-200,000	0,002	-0,035
-153,906	553,543	0,034	-0,059
-152,891	-112,473	-0,133	0,019
-151,877	-100,820	-0,082	-0,014
-150,862	684,367	0,048	-0,092
-149,847	38,853	-0,077	-0,050
-148,833	270,833	0,051	-0,066
-147,818	-178,258	0,092	-0,002
-146,804	-69,689	0,078	-0,022
-145,789	713,020	0,077	0,149
-144,775	800,000	-0,026	0,071
-143,760	83,694	-0,096	-0,076
-142,745	-21,302	-0,058	0,026
-141,731	-200,000	0,017	-0,085
-140,716	-200,000	0,025	0,118
-139,702	-200,000	0,010	0,087
-138,687	102,766	0,101	-0,086
-137,672	800,000	-0,047	-0,112
-136,658	481,462	0,024	-0,039
-135,643	800,000	-0,010	0,029
-134,629	-70,402	0,050	-0,014
-133,614	-8,176	0,036	0,018
-132,599	-109,737	0,033	0,005
-131,585	-200,000	-0,015	0,087
-130,570	371,314	0,064	-0,095
-129,556	800,000	-0,028	-0,068
-128,541	800,000	0,029	-0,082
-127,526	36,156	0,077	0,049
-126,512	800,000	0,034	0,094
-125,497	800,000	0,030	0,072
-124,483	800,000	0,029	0,083
-123,468	-147,498	-0,241	-0,015
-122,453	228,353	0,062	-0,074
-121,439	-118,203	-0,094	-0,012
-120,424	-31,333	0,063	0,026
-119,410	-200,000	-0,008	-0,046
-118,395	377,012	-0,024	0,036
-117,380	800,000	-0,037	0,110
-116,366	-53,195	-0,091	0,030
-115,351	46,456	0,187	0,126
-114,337	49,737	0,054	0,037
-113,322	-110,840	-0,033	0,005
-112,307	110,919	0,024	0,021
-111,293	-200,000	-0,001	0,142
-110,278	166,833	0,030	-0,031
-109,264	-113,231	0,059	0,008
-108,249	101,338	0,070	-0,059
-107,234	213,163	-0,061	-0,071
-106,220	78,529	0,131	-0,102
-105,205	717,159	0,108	-0,209
-104,191	49,331	-0,115	0,078
-103,176	50,204	0,055	-0,038
-102,162	-71,456	-0,102	-0,028
-101,147	-64,267	-0,078	0,023
-100,132	59,018	0,126	-0,090
-99,118	272,850	0,048	0,062
-98,103	24,201	0,082	-0,049
-97,089	-107,948	0,068	0,011
-96,074	49,131	-0,058	0,040
-95,059	800,000	0,070	0,145
-94,045	800,000	0,024	0,060
-93,030	25,001	0,002	0,001
-92,016	-70,366	0,066	-0,018
-91,001	-200,000	0,004	-0,124
-89,986	22,181	0,015	-0,009
-88,972	-200,000	0,010	0,068
-87,957	121,515	0,044	-0,039
-86,943	-126,202	-0,071	-0,008
-85,928	730,447	-0,040	-0,077
-84,913	734,051	0,026	0,050
-83,899	113,722	0,034	0,030
-82,884	231,675	0,078	-0,093
-81,870	-140,931	0,217	0,016
-80,855	-25,927	0,065	0,028
-79,840	-200,000	-0,025	-0,133
-78,826	800,000	-0,052	0,131
-77,811	-67,478	0,021	-0,006
-76,797	800,000	-0,053	0,150
-75,782	167,878	0,019	0,019
-74,767	172,057	0,017	-0,017
-73,753	677,987	0,051	0,096
-72,738	8,684	0,076	0,042
-71,724	-189,256	0,182	-0,002
-70,709	-194,301	-0,072	0,000
-69,694	-111,860	-0,124	-0,018
-68,680	-200,000	0,023	0,104
-67,665	800,000	0,037	0,088
-66,651	-137,230	0,085	-0,007
-65,636	-167,765	-0,073	0,002
-64,622	295,672	-0,076	0,101
-63,607	-85,407	-0,150	0,034
-62,592	800,000	-0,069	-0,163
-61,578	-24,777	0,068	-0,029
-60,563	8,734	-0,020	0,011
-59,549	-51,256	0,083	0,028
-58,534	-131,491	-1,410	-0,133
-57,519	533,602	-0,768	-1,325
-56,505	-200,000	-0,843	-4,493
-55,490	-20,661	0,668	-0,297
-54,476	800,000	5,101	11,868
-53,461	-200,000	13,571	252,545
-52,446	-200,000	689,868	2256,851
-51,432	590,394	1622,217	2916,087
-50,417	119,078	1634,746	1467,061
-49,403	73,181	1288,778	977,033
-48,388	38,047	1023,997	659,691
-47,373	24,287	981,625	587,138
-46,359	23,496	971,360	578,384
-45,344	22,552	967,042	572,702
-44,330	22,490	965,627	571,641
-43,315	22,408	964,227	570,521
-42,300	22,375	963,321	569,857
-41,286	22,379	962,263	569,219
-40,271	22,336	961,299	568,488
-39,257	22,308	960,366	567,821
-38,242	22,271	959,564	567,204
-37,227	22,331	958,557	566,783
-36,213	22,292	957,630	566,086
-35,198	22,287	956,882	565,606
-34,184	22,307	956,160	565,219
-33,169	22,279	955,267	564,580
-32,154	22,304	954,513	564,190
-31,140	22,309	953,632	563,666
-30,125	22,406	952,622	563,358
-29,111	22,408	951,770	562,837
-28,096	22,397	950,973	562,308
-27,082	22,349	950,527	561,868
-26,067	22,342	949,684	561,327
-25,052	22,312	949,156	560,897
-24,038	22,359	948,456	560,611
-23,023	22,338	947,737	560,096
-22,009	22,403	947,120	559,917
-20,994	22,443	946,386	559,587
-19,979	22,371	945,961	559,085
-18,965	22,377	945,226	558,648
-17,950	22,361	944,694	558,261
-16,936	22,277	944,012	557,566
-15,921	22,323	943,189	557,204
-14,906	22,241	942,464	556,494
-13,892	22,294	941,898	556,308
-12,877	22,254	941,254	555,776
-11,863	22,208	940,518	555,173
-10,848	22,191	940,026	554,808
-9,833	22,327	939,611	554,972
-8,819	22,288	939,085	554,516
-7,804	22,269	938,430	554,046
-6,790	22,237	937,791	553,547
-5,775	22,313	937,083	553,347
-4,760	22,260	936,555	552,844
-3,746	22,236	935,885	552,351
-2,731	22,071	935,352	551,494
-1,717	22,106	934,399	551,020
-0,702	21,985	933,937	550,345
0,313	21,839	933,044	550,188
1,327	25,010	931,252	559,054
2,342	34,741	795,772	503,637
3,356	32,565	451,622	282,523
4,371	1,496	293,837	152,801
5,386	-3,124	274,922	138,575
6,400	-4,642	268,933	134,134
7,415	-5,161	266,546	132,454
8,429	-4,738	265,425	132,273
9,444	-4,629	264,482	131,891
10,459	-4,686	264,057	131,615
11,473	-4,687	263,407	131,279
12,488	-4,798	262,773	130,850
13,502	-5,070	262,249	130,331
14,517	-4,947	261,914	130,265
15,531	-4,796	261,479	130,174
16,546	-4,628	261,244	130,196
17,561	-4,552	260,841	130,052
18,575	-4,705	260,514	129,740
19,590	-4,904	260,216	129,401
20,604	-4,539	259,919	129,569
21,619	-4,712	259,535	129,211
22,634	-4,637	259,137	129,068
23,648	-4,943	258,947	128,690
24,663	-4,919	258,716	128,584
25,677	-4,817	258,385	128,500
26,692	-4,696	258,057	128,433
27,707	-4,710	257,764	128,263
28,721	-4,777	257,545	128,083
29,736	-4,924	257,417	127,877
30,750	-5,061	257,238	127,655
31,765	-4,838	256,851	127,650
32,780	-4,675	256,750	127,732
33,794	-4,791	256,446	127,467
34,809	-4,728	256,258	127,417
35,823	-4,986	256,139	127,119
36,838	-4,811	255,701	127,045
37,853	-4,938	255,490	126,817
38,867	-4,775	255,276	126,843
39,882	-4,917	255,083	126,611
40,896	-5,126	254,964	126,357
41,911	-4,958	254,569	126,297
42,926	-4,883	254,394	126,265
43,940	-4,877	254,135	126,131
44,955	-5,039	253,820	125,821
45,969	-5,062	253,675	125,718
46,984	-5,083	253,352	125,528
47,999	-5,378	252,986	125,079
49,013	-5,412	252,816	124,954
50,028	-5,697	252,728	124,651
51,042	-5,774	252,433	124,428
52,057	-5,631	252,162	124,408
53,071	-5,578	251,978	124,352
54,086	-5,535	251,796	124,288
55,101	-5,494	251,706	124,268
56,115	-5,433	251,609	124,261
57,130	-4,890	251,450	124,642
58,144	-4,661	251,338	124,774
59,159	-4,693	251,022	124,577
60,174	-4,634	250,749	124,482
61,188	-4,733	250,675	124,349
62,203	-4,798	250,512	124,201
63,217	-4,702	250,234	124,134
64,232	-4,663	250,052	124,067
65,247	-4,750	249,802	123,856
66,261	-4,850	249,629	123,675
67,276	-4,920	249,311	123,445
68,290	-5,259	249,089	123,034
69,305	-5,450	248,987	122,810
70,320	-5,434	248,746	122,693
71,334	-4,876	248,631	123,102
72,349	-4,936	248,374	122,914
73,363	-4,681	248,181	123,024
74,378	-4,663	247,955	122,916
75,393	-4,787	247,819	122,732
76,407	-4,791	247,713	122,666
77,422	-4,914	247,398	122,395
78,436	-4,771	247,317	122,464
79,451	-4,685	246,997	122,368
80,466	-4,931	246,836	122,070
81,480	-5,180	246,609	121,736
82,495	-5,071	246,483	121,755
83,509	-4,949	246,085	121,650
84,524	-5,079	245,987	121,481
85,539	-5,108	245,600	121,255
86,553	-5,176	245,512	121,143
87,568	-5,167	245,388	121,078
88,582	-5,098	245,256	121,061
89,597	-5,311	245,089	120,788
90,611	-4,834	244,865	121,068
91,626	-4,862	244,866	121,034
92,641	-4,892	244,626	120,880
93,655	-4,705	244,277	120,853
94,670	-4,889	244,156	120,628
95,684	-4,927	244,017	120,517
96,699	-4,927	243,914	120,455
97,714	-5,177	243,684	120,122
98,728	-5,188	243,424	119,974
99,743	-5,062	242,980	119,850
100,757	-5,111	242,949	119,783
101,772	-5,105	242,816	119,711
102,787	-5,015	242,664	119,701
103,801	-5,012	242,478	119,601
104,816	-5,052	242,441	119,539
105,830	-4,952	242,243	119,513
106,845	-4,683	242,156	119,683
107,860	-4,870	241,821	119,352
108,874	-4,937	241,483	119,119
109,889	-5,204	241,484	118,888
110,903	-5,172	241,229	118,778
111,918	-5,124	240,950	118,670
112,933	-5,075	241,000	118,724
113,947	-4,960	240,859	118,739
114,962	-4,838	240,624	118,713
115,976	-4,781	240,438	118,657
116,991	-5,109	240,225	118,272
118,006	-4,988	240,090	118,295
119,020	-4,726	239,939	118,424
120,035	-4,775	239,853	118,332
121,049	-4,708	239,572	118,237
122,064	-4,931	239,462	117,990
123,079	-4,840	239,302	117,975
124,093	-5,034	239,121	117,716
125,108	-5,167	238,877	117,478
126,122	-5,275	238,563	117,224
127,137	-5,287	238,371	117,110
128,151	-5,510	238,399	116,932
129,166	-5,037	237,998	117,109
130,181	-5,237	237,813	116,845
131,195	-5,332	237,656	116,680
132,210	-5,095	237,503	116,788
133,224	-4,813	237,340	116,925
134,239	-5,070	237,295	116,685
135,254	-4,872	237,027	116,702
136,268	-4,897	236,879	116,599
137,283	-5,361	236,706	116,128
138,297	-5,337	236,367	115,971
139,312	-5,306	236,186	115,897
140,327	-5,044	236,160	116,085
141,341	-4,695	236,182	116,367
142,356	-4,536	235,904	116,347
143,370	-4,587	235,831	116,260
144,385	-4,588	235,788	116,227
145,400	-4,489	235,611	116,210
146,414	-4,438	235,339	116,105
147,429	-4,542	235,144	115,916
148,443	-4,883	235,025	115,574
149,458	-4,619	234,894	115,711
150,473	-4,674	234,731	115,576
151,487	-4,666	234,595	115,505
152,502	-4,653	234,265	115,343
153,516	-4,510	234,169	115,400
154,531	-4,643	233,987	115,193
155,546	-4,730	233,784	115,013
156,560	-4,803	233,631	114,870
157,575	-4,704	233,509	114,878
158,589	-4,796	233,271	114,678
159,604	-4,485	233,188	114,874
160,619	-4,345	233,058	114,911
161,633	-4,407	232,872	114,760
162,648	-4,543	232,912	114,661
163,662	-4,728	232,581	114,341
164,677	-4,589	232,355	114,330
165,692	-4,649	232,244	114,218
166,706	-4,605	232,268	114,254
167,721	-4,395	232,026	114,291
168,735	-4,392	231,872	114,208
169,750	-4,657	231,741	113,924
170,764	-4,668	231,460	113,767
171,779	-4,623	231,500	113,812
172,794	-4,320	231,143	113,865
173,808	-4,648	231,045	113,548
174,823	-5,143	230,595	112,928
175,837	-5,187	230,462	112,819
176,852	-4,913	230,419	113,003
177,867	-4,624	230,395	113,207
178,881	-4,660	230,237	113,092
179,896	-4,279	230,055	113,290
180,910	-4,616	230,106	113,041
181,925	-4,381	229,810	113,070
182,940	-4,468	229,568	112,873
183,954	-4,291	229,402	112,919
184,969	-4,135	229,234	112,947
185,983	-4,147	229,101	112,862
186,998	-4,348	229,010	112,651
188,013	-4,189	228,873	112,698
189,027	-4,557	228,899	112,414
190,042	-4,414	228,671	112,402
191,056	-4,405	228,494	112,313
192,071	-4,440	228,229	112,145
193,086	-4,459	228,093	112,054
194,100	-4,475	227,879	111,927
195,115	-4,607	227,453	111,605
196,129	-6,013	227,065	110,320
197,144	-2,801	228,286	113,393
198,159	2,362	229,712	118,108
199,173	4,308	230,064	119,792
200,188	4,249	229,996	119,700
201,202	4,315	229,887	119,683
202,217	4,436	229,833	119,739
203,232	4,926	229,579	119,975
204,246	4,942	229,485	119,928
205,261	4,892	229,379	119,823
206,275	5,035	229,357	119,911
207,290	5,227	229,000	119,862
208,304	5,158	228,865	119,728
209,319	5,234	228,865	119,776
210,334	5,208	228,550	119,580
211,348	4,672	228,366	119,061
212,363	4,418	228,075	118,702
213,377	4,173	227,959	118,444
214,392	4,118	227,720	118,266
215,407	4,255	227,614	118,306
216,421	4,462	227,308	118,295
217,436	4,202	227,192	118,025
218,450	3,931	227,024	117,720
219,465	3,755	226,856	117,487
220,480	3,969	226,834	117,629
221,494	4,030	226,707	117,599
222,509	4,242	226,616	117,704
223,523	4,069	226,420	117,460
224,538	3,955	226,165	117,230
225,553	4,245	226,085	117,399
226,567	4,179	226,014	117,301
227,582	4,463	225,931	117,464
228,596	4,761	225,791	117,607
229,611	4,238	225,485	117,040
230,626	4,150	225,306	116,870
231,640	4,168	225,091	116,761
232,655	4,095	225,114	116,708
233,669	4,761	225,041	117,164
234,684	4,757	225,025	117,142
235,699	4,644	224,653	116,853
236,713	4,470	224,502	116,633
237,728	4,029	224,357	116,214
238,742	4,016	224,128	116,075
239,757	3,926	224,012	115,937
240,772	4,209	223,692	115,974
241,786	4,216	223,614	115,929
242,801	4,446	223,590	116,078
243,815	4,439	223,630	116,083
244,830	4,627	223,345	116,067
245,844	4,249	223,152	115,673
246,859	4,428	223,076	115,757
247,874	4,353	222,977	115,639
248,888	4,375	222,873	115,591
249,903	4,162	222,659	115,311
250,917	4,245	222,347	115,200
251,932	4,125	222,363	115,109
252,947	4,005	222,136	114,892
253,961	4,094	221,959	114,856
254,976	4,013	221,872	114,741
255,990	4,277	221,688	114,832
257,005	4,277	221,637	114,794
258,020	4,247	221,451	114,666
259,034	4,438	221,439	114,791
260,049	4,630	221,183	114,792
261,063	4,446	220,999	114,549
262,078	4,612	220,909	114,615
263,093	4,466	220,864	114,473
264,107	4,519	220,595	114,363
265,122	4,566	220,489	114,333
266,136	4,580	220,484	114,330
267,151	4,855	220,200	114,376
268,166	4,336	220,075	113,918
269,180	4,063	219,767	113,547
270,195	3,940	219,610	113,365
271,209	3,980	219,526	113,341
272,224	4,003	219,463	113,315
273,239	4,358	219,406	113,537
274,253	4,043	219,056	113,114
275,268	4,142	218,955	113,124
276,282	3,921	218,859	112,903
277,297	3,917	218,559	112,735
278,312	3,898	218,462	112,661
279,326	4,044	218,385	112,718
280,341	4,265	218,188	112,768
281,355	4,136	218,204	112,672
282,370	4,027	218,057	112,506
283,384	4,036	217,903	112,424
284,399	3,787	217,609	112,080
285,414	3,769	217,529	112,016
286,428	4,056	217,457	112,178
287,443	4,282	217,369	112,287
288,457	4,173	217,311	112,167
289,472	4,231	217,178	112,131
290,487	3,694	216,751	111,510
291,501	3,832	216,631	111,540
292,516	3,998	216,534	111,600
293,530	4,036	216,507	111,604
294,545	3,906	216,325	111,405
295,560	4,129	216,203	111,494
296,574	4,041	216,136	111,386
297,589	4,328	215,926	111,476
298,603	4,224	215,792	111,321
299,618	4,208	215,649	111,226
300,633	4,300	215,555	111,234
301,647	4,561	215,463	111,365
302,662	4,575	215,372	111,318
303,676	4,257	215,365	111,075
304,691	4,432	215,015	111,010
305,706	4,355	214,985	110,930
306,720	4,567	214,687	110,919
307,735	4,202	214,582	110,592
308,749	4,219	214,398	110,500
309,764	4,425	214,320	110,598
310,779	4,579	214,169	110,620
311,793	4,451	214,139	110,503
312,808	4,332	213,855	110,261
313,822	4,338	213,727	110,190
314,837	3,976	213,644	109,879
315,852	3,955	213,507	109,783
316,866	4,116	213,412	109,840
317,881	4,394	213,306	109,973
318,895	4,233	213,095	109,740
319,910	4,565	212,859	109,845
320,925	3,877	212,731	109,281
321,939	3,895	212,392	109,109
322,954	3,589	212,561	108,969
323,968	3,949	212,594	109,232
324,983	4,287	212,381	109,352
325,997	4,535	212,087	109,367
327,012	4,389	211,964	109,190
328,027	4,327	211,898	109,102
329,041	4,491	211,854	109,186
330,056	4,790	211,706	109,312
331,070	4,046	211,476	108,658
332,085	3,837	211,289	108,405
333,100	3,828	211,131	108,308
334,114	4,180	210,964	108,460
335,129	4,085	210,857	108,328
336,143	3,867	210,614	108,041
337,158	3,939	210,560	108,054
338,173	4,131	210,498	108,147
339,187	3,763	210,344	107,800
340,202	3,692	210,207	107,671
341,216	3,677	210,105	107,599
342,231	3,869	210,016	107,678
343,246	3,831	209,834	107,548
344,260	3,748	209,784	107,455
345,275	4,225	209,455	107,610
346,289	4,174	209,460	107,567
347,304	4,426	209,331	107,667
348,319	3,965	209,260	107,300
349,333	3,987	209,166	107,257
350,348	3,980	208,975	107,145
351,362	4,218	208,771	107,196
352,377	4,256	208,674	107,164
353,392	3,884	208,543	106,829
354,406	4,238	208,408	106,995
355,421	194,515	1344,259	1435,112
356,435	155,232	1482,751	1435,232
