DTS Sentinel unit serial number:	SN410029Multiplexer serial number:	ORYXHardware model number:	OX2-SRSoftware version number:	ORYX F/W v4,00 Oryx Data Collector v3.7.2.0data status	okinstallation	B6 Nyhavnadifferential loss correction	single-endedforward channel	channel 2reverse channel	N/Adate	2023/12/10time	16:20:08forward acquisition time	300,00reverse acquisition time	0,00gamma	499,1914k internal	0,3123k external	0,3123temperature offset calibration	1,0000default loss term (dB/km)	0,3820temperature slope calibration	1,0000multiplexer offset coefficient	1,0000multiplexer slope coefficient	1,0000fibre end	0,00T internal ref (°C)	22,37T ext. ref 1 (°C)	6,13T ext. ref 2 (°C)	6,13length (m)	temperature (°C)	Stokes	anti-Stokes-744,400	464,199	-0,033	-0,054
-743,385	-100,850	-0,329	-0,060
-742,371	800,000	0,044	0,120
-741,356	150,497	-0,250	0,253
-740,342	13,268	-0,072	-0,042
-739,327	-48,267	-0,237	0,085
-738,312	-94,041	0,068	0,014
-737,298	119,604	-0,154	0,143
-736,283	317,312	0,067	0,095
-735,269	-103,649	-0,118	0,020
-734,254	385,381	-0,028	-0,044
-733,239	-68,275	-0,464	-0,134
-732,225	-104,203	0,044	0,008
-731,210	-200,000	0,005	0,110
-730,196	9,805	-0,098	-0,055
-729,181	-15,412	0,068	-0,032
-728,167	800,000	0,016	-0,034
-727,152	-55,716	0,044	0,015
-726,137	-200,000	-0,016	0,139
-725,123	174,779	-0,056	-0,060
-724,108	-200,000	-0,019	-0,064
-723,094	60,994	-0,119	-0,088
-722,079	41,152	-0,099	-0,066
-721,064	800,000	0,018	-0,054
-720,050	724,491	0,009	-0,017
-719,035	347,028	-0,033	-0,048
-718,021	88,138	-0,084	-0,069
-717,006	-200,000	0,023	-0,096
-715,991	-200,000	-0,010	-0,056
-714,977	37,073	-0,042	-0,027
-713,962	800,000	0,012	0,025
-712,948	-18,821	0,042	0,019
-711,933	800,000	0,038	0,118
-710,918	-200,000	0,039	-0,134
-709,904	-53,764	-0,101	-0,034
-708,889	-31,592	-0,053	0,022
-707,875	-106,168	0,076	0,013
-706,860	-116,055	-0,036	0,005
-705,845	381,035	-0,073	-0,112
-704,831	-2,081	0,120	0,063
-703,816	-161,360	-0,043	0,002
-702,802	259,984	-0,028	0,036
-701,787	-132,823	-0,043	-0,004
-700,772	-29,436	0,034	-0,014
-699,758	250,354	0,062	0,079
-698,743	-75,139	0,158	0,042
-697,729	173,325	-0,020	-0,021
-696,714	800,000	0,052	-0,108
-695,699	38,187	-0,048	0,032
-694,685	519,297	0,025	0,044
-693,670	29,035	-0,086	-0,054
-692,656	-128,008	-0,009	0,001
-691,641	201,213	-0,028	-0,033
-690,627	800,000	-0,025	0,068
-689,612	-200,000	-0,004	-0,083
-688,597	587,322	-0,044	-0,080
-687,583	7,951	-0,096	-0,053
-686,568	-59,857	0,105	0,033
-685,554	800,000	-0,050	-0,128
-684,539	5,067	-0,090	-0,049
-683,524	-49,071	0,069	0,024
-682,510	211,130	-0,056	0,065
-681,495	20,862	-0,054	-0,032
-680,481	611,526	0,020	-0,037
-679,466	-86,114	-0,147	-0,033
-678,451	167,414	-0,119	0,126
-677,437	171,527	0,101	0,108
-676,422	130,001	-0,102	0,097
-675,408	-200,000	-0,006	-0,143
-674,393	32,279	-0,077	0,049
-673,378	615,442	-0,032	0,061
-672,364	-36,307	-0,070	-0,028
-671,349	-173,260	-0,044	0,001
-670,335	800,000	0,030	0,071
-669,320	-10,984	-0,093	0,046
-668,305	309,186	0,058	-0,080
-667,291	-191,751	-0,030	-0,000
-666,276	800,000	0,031	-0,063
-665,262	-172,527	0,108	0,002
-664,247	-200,000	0,007	-0,108
-663,232	537,084	0,046	-0,082
-662,218	227,341	0,048	-0,058
-661,203	-118,339	-0,025	0,003
-660,189	42,373	0,071	0,048
-659,174	-83,695	-0,192	-0,045
-658,159	-200,000	-0,001	0,015
-657,145	-200,000	0,002	-0,020
-656,130	49,318	0,134	-0,093
-655,116	-14,349	0,071	-0,034
-654,101	-200,000	0,044	0,159
-653,086	-91,324	0,054	0,011
-652,072	-161,192	-0,049	0,002
-651,057	-200,000	0,014	-0,057
-650,043	-200,000	0,002	-0,016
-649,028	-12,840	0,020	-0,010
-648,014	-155,719	-0,106	-0,005
-646,999	-21,547	-0,060	-0,027
-645,984	-69,802	0,109	0,031
-644,970	42,686	0,063	0,043
-643,955	202,950	-0,064	0,073
-642,941	800,000	0,021	-0,063
-641,926	65,402	0,061	-0,046
-640,911	-29,414	-0,068	-0,029
-639,897	-200,000	0,033	0,134
-638,882	-61,586	0,083	0,026
-637,868	800,000	0,009	0,029
-636,853	142,301	0,073	0,072
-635,838	610,603	-0,028	-0,053
-634,824	800,000	0,011	0,034
-633,809	100,193	0,031	-0,027
-632,795	800,000	-0,038	0,109
-631,780	93,758	0,060	-0,050
-630,765	22,129	0,020	0,012
-629,751	-21,599	-0,110	0,049
-628,736	-115,565	-0,059	-0,008
-627,722	85,218	-0,096	0,078
-626,707	-63,768	-0,154	0,047
-625,692	-169,254	0,065	0,002
-624,678	800,000	-0,021	0,053
-623,663	125,455	-0,078	0,073
-622,649	-79,796	-0,080	-0,020
-621,634	54,624	-0,072	-0,052
-620,619	800,000	-0,033	-0,075
-619,605	-200,000	-0,003	0,094
-618,590	367,076	0,047	-0,071
-617,576	800,000	0,035	0,106
-616,561	-125,055	0,081	-0,009
-615,546	-200,000	-0,016	-0,060
-614,532	-152,385	-0,049	0,003
-613,517	250,370	-0,089	-0,112
-612,503	39,963	0,076	-0,051
-611,488	800,000	-0,039	-0,097
-610,474	800,000	-0,017	-0,054
-609,459	-200,000	-0,008	0,029
-608,444	-170,024	-0,092	0,002
-607,430	341,133	0,061	-0,089
-606,415	-132,680	-0,072	0,007
-605,401	107,529	0,013	-0,012
-604,386	163,888	0,088	0,092
-603,371	180,971	-0,025	0,028
-602,357	800,000	0,029	-0,077
-601,342	-200,000	0,027	0,172
-600,328	46,146	0,043	-0,029
-599,313	19,171	-0,109	-0,065
-598,298	223,669	-0,038	-0,046
-597,284	-200,000	-0,047	0,158
-596,269	-200,000	0,023	0,167
-595,255	800,000	0,029	0,086
-594,240	-200,000	-0,019	-0,109
-593,225	-200,000	0,004	-0,086
-592,211	-3,685	-0,093	0,048
-591,196	-118,956	0,047	0,006
-590,182	800,000	0,008	-0,021
-589,167	-37,378	-0,129	0,051
-588,152	96,027	-0,060	-0,051
-587,138	-18,387	-0,027	-0,012
-586,123	-184,841	-0,179	0,002
-585,109	-0,670	0,039	0,021
-584,094	800,000	0,023	-0,071
-583,079	-200,000	-0,008	-0,052
-582,065	440,110	0,025	0,041
-581,050	800,000	-0,050	0,126
-580,036	21,711	-0,036	-0,022
-579,021	82,310	-0,062	-0,050
-578,006	-37,410	-0,073	-0,029
-576,992	-117,269	0,183	0,024
-575,977	800,000	-0,019	0,051
-574,963	-200,000	0,001	-0,094
-573,948	5,267	0,076	0,041
-572,934	430,240	-0,064	-0,104
-571,919	-89,995	-0,148	-0,032
-570,904	256,871	-0,046	-0,058
-569,890	622,366	0,041	-0,077
-568,875	-200,000	0,000	0,068
-567,861	-122,214	0,097	0,012
-566,846	-0,238	0,082	-0,043
-565,831	-200,000	0,104	0,000
-564,817	-46,101	-0,154	0,056
-563,802	2,187	-0,014	-0,007
-562,788	-200,000	0,020	0,109
-561,773	-31,489	-0,091	0,038
-560,758	-200,000	0,003	0,072
-559,744	51,922	0,043	0,030
-558,729	56,860	0,031	0,022
-557,715	-187,320	-0,045	0,000
-556,700	-33,615	0,062	-0,025
-555,685	34,713	-0,037	-0,024
-554,671	144,045	0,043	0,042
-553,656	-125,742	0,046	0,005
-552,642	458,082	0,018	0,030
-551,627	-5,811	-0,161	-0,081
-550,612	94,598	-0,114	0,096
-549,598	-200,000	-0,006	-0,098
-548,583	-200,000	0,008	-0,042
-547,569	120,416	-0,051	-0,047
-546,554	59,499	0,044	0,032
-545,539	-42,592	-0,123	-0,046
-544,525	-200,000	0,028	0,187
-543,510	-200,000	0,011	0,047
-542,496	-200,000	0,008	0,039
-541,481	460,349	-0,039	0,065
-540,466	-200,000	0,008	0,079
-539,452	-99,959	0,064	-0,012
-538,437	5,399	0,190	-0,103
-537,423	157,631	-0,090	-0,092
-536,408	-115,891	-0,098	-0,013
-535,393	-200,000	0,019	-0,081
-534,379	-123,954	-0,097	0,011
-533,364	-24,562	0,063	-0,028
-532,350	104,059	0,049	0,043
-531,335	-200,000	-0,000	-0,020
-530,321	213,135	0,054	0,063
-529,306	54,046	-0,153	-0,109
-528,291	142,280	-0,053	-0,052
-527,277	-10,645	0,020	0,010
-526,262	73,053	-0,090	-0,069
-525,248	-56,113	0,085	0,028
-524,233	-200,000	0,004	0,032
-523,218	-138,560	0,123	0,010
-522,204	64,277	0,127	0,095
-521,189	170,817	-0,093	0,099
-520,175	-30,403	0,043	0,018
-519,160	-5,837	0,108	0,055
-518,145	800,000	0,018	-0,038
-517,131	-200,000	0,061	-0,223
-516,116	-46,457	-0,011	-0,004
-515,102	87,760	-0,076	-0,062
-514,087	-63,321	-0,151	0,046
-513,072	63,800	-0,103	0,077
-512,058	116,889	0,087	-0,079
-511,043	137,055	-0,064	0,062
-510,029	-24,576	0,103	0,045
-509,014	52,565	-0,040	-0,028
-507,999	-35,406	0,044	-0,018
-506,985	800,000	-0,052	0,111
-505,970	800,000	-0,059	-0,133
-504,956	4,115	-0,187	-0,101
-503,941	-200,000	-0,039	0,128
-502,926	103,406	-0,068	0,059
-501,912	179,856	0,071	0,077
-500,897	4,404	0,139	0,075
-499,883	-52,236	0,033	-0,011
-498,868	539,641	-0,071	0,126
-497,853	137,789	0,041	-0,040
-496,839	784,857	0,062	-0,127
-495,824	428,296	-0,018	-0,029
-494,810	-200,000	-0,015	0,093
-493,795	459,799	0,034	0,056
-492,781	-48,493	0,049	-0,017
-491,766	-82,985	-0,100	-0,024
-490,751	-111,624	-0,155	0,023
-489,737	340,636	-0,112	-0,162
-488,722	637,283	-0,012	-0,022
-487,708	87,489	0,038	-0,031
-486,693	-119,373	0,036	-0,005
-485,678	-140,312	0,030	-0,002
-484,664	252,621	0,076	0,096
-483,649	59,234	-0,021	0,015
-482,635	31,538	0,124	-0,078
-481,620	-63,866	-0,086	-0,026
-480,605	-63,164	0,084	0,025
-479,591	146,495	-0,048	0,047
-478,576	-67,849	-0,137	0,039
-477,562	-64,992	-0,033	0,010
-476,547	-22,269	-0,030	0,013
-475,532	308,715	0,010	-0,014
-474,518	-200,000	0,008	0,029
-473,503	-200,000	-0,020	0,166
-472,489	-24,673	0,163	0,071
-471,474	-200,000	0,003	0,028
-470,459	163,108	-0,031	-0,032
-469,445	-200,000	-0,001	-0,044
-468,430	800,000	-0,026	-0,063
-467,416	800,000	-0,044	0,115
-466,401	-200,000	-0,005	0,219
-465,386	-200,000	0,014	-0,140
-464,372	-33,695	-0,054	-0,022
-463,357	696,055	-0,043	0,083
-462,343	21,424	-0,075	-0,045
-461,328	-200,000	0,000	0,008
-460,313	-82,236	-0,082	-0,019
-459,299	197,369	0,149	0,168
-458,284	149,115	0,093	0,093
-457,270	-66,786	-0,089	0,026
-456,255	-200,000	0,000	0,108
-455,241	-200,000	-0,042	-0,161
-454,226	-200,000	-0,035	-0,115
-453,211	-162,676	0,060	-0,002
-452,197	97,105	-0,007	-0,006
-451,182	-200,000	-0,010	0,068
-450,168	-131,725	0,085	-0,008
-449,153	800,000	-0,038	-0,113
-448,138	-195,004	-0,157	-0,001
-447,124	-98,331	-0,175	-0,033
-446,109	800,000	-0,011	-0,037
-445,095	109,896	0,070	0,062
-444,080	-200,000	0,001	0,101
-443,065	-200,000	0,002	0,234
-442,051	-200,000	0,007	0,113
-441,036	-57,357	0,121	-0,039
-440,022	262,426	-0,047	0,060
-439,007	87,989	-0,044	-0,036
-437,992	-138,829	0,033	-0,003
-436,978	293,449	-0,085	0,115
-435,963	329,378	0,063	0,090
-434,949	352,322	0,102	-0,149
-433,934	19,374	-0,058	-0,034
-432,919	800,000	0,048	0,123
-431,905	-200,000	-0,014	-0,132
-430,890	127,262	0,116	0,108
-429,876	-96,541	0,122	-0,023
-428,861	-200,000	0,005	0,072
-427,846	195,501	-0,034	-0,038
-426,832	-115,213	-0,203	-0,028
-425,817	800,000	-0,021	-0,056
-424,803	56,498	0,047	-0,034
-423,788	-112,872	-0,140	-0,020
-422,773	277,788	0,082	0,108
-421,759	-200,000	0,030	0,173
-420,744	800,000	-0,015	-0,046
-419,730	109,171	-0,065	-0,057
-418,715	-200,000	-0,023	-0,204
-417,701	-12,332	0,081	-0,039
-416,686	171,752	0,054	0,057
-415,671	-200,000	0,007	0,057
-414,657	-2,456	0,199	-0,102
-413,642	800,000	-0,068	0,153
-412,628	800,000	0,050	-0,150
-411,613	427,840	0,018	-0,029
-410,598	-88,903	0,062	-0,013
-409,584	-200,000	0,001	0,010
-408,569	19,207	0,159	-0,093
-407,555	-40,845	-0,093	0,035
-406,540	-200,000	-0,032	0,135
-405,525	-36,859	0,098	-0,039
-404,511	-200,000	-0,054	-0,189
-403,496	90,577	-0,075	-0,062
-402,482	-200,000	0,012	-0,177
-401,467	54,059	0,082	-0,058
-400,452	-110,630	0,101	0,015
-399,438	-142,544	-0,096	0,007
-398,423	98,103	-0,032	-0,027
-397,409	800,000	0,020	-0,044
-396,394	434,492	-0,091	-0,146
-395,379	-105,631	0,192	0,032
-394,365	191,578	-0,039	-0,043
-393,350	-200,000	-0,004	-0,115
-392,336	-6,992	0,109	0,054
-391,321	-36,424	-0,124	-0,049
-390,306	-13,282	0,066	0,031
-389,292	-200,000	0,014	-0,068
-388,277	-171,415	0,157	-0,004
-387,263	800,000	0,030	0,074
-386,248	-200,000	0,042	0,145
-385,233	-111,487	0,128	0,019
-384,219	-79,464	0,085	-0,021
-383,204	472,481	0,046	0,077
-382,190	143,961	-0,112	-0,110
-381,175	47,397	0,114	-0,078
-380,160	800,000	-0,018	-0,042
-379,146	-98,870	0,144	0,027
-378,131	-63,098	-0,181	0,054
-377,117	-62,606	0,033	-0,010
-376,102	800,000	-0,006	0,021
-375,088	800,000	0,045	0,095
-374,073	181,346	0,042	-0,045
-373,058	249,227	-0,049	0,061
-372,044	-200,000	-0,005	0,018
-371,029	538,628	-0,019	-0,034
-370,015	-24,141	0,064	0,028
-369,000	-131,118	0,026	-0,002
-367,985	-169,681	-0,009	0,000
-366,971	-200,000	0,015	0,085
-365,956	-200,000	0,024	-0,108
-364,942	75,256	0,147	-0,114
-363,927	-200,000	0,014	0,071
-362,912	-200,000	-0,034	-0,148
-361,898	742,696	-0,026	-0,052
-360,883	-21,888	-0,193	-0,086
-359,869	-38,710	-0,063	0,024
-358,854	50,355	0,087	0,060
-357,839	-102,650	0,021	0,004
-356,825	96,222	0,066	0,055
-355,810	-200,000	-0,001	0,066
-354,796	800,000	-0,027	-0,071
-353,781	396,568	0,069	-0,107
-352,766	-200,000	0,024	-0,081
-351,752	42,224	-0,135	0,090
-350,737	-84,928	-0,089	0,020
-349,723	28,625	0,091	0,056
-348,708	621,926	-0,052	-0,097
-347,693	-200,000	0,001	0,007
-346,679	800,000	-0,042	-0,094
-345,664	-14,435	-0,078	0,037
-344,650	-153,017	0,193	-0,010
-343,635	33,951	0,079	-0,051
-342,620	619,898	-0,022	-0,040
-341,606	800,000	0,026	-0,067
-340,591	61,153	0,061	0,044
-339,577	-78,515	-0,085	0,021
-338,562	189,852	0,069	-0,076
-337,548	588,378	-0,110	-0,199
-336,533	-108,596	0,109	-0,017
-335,518	323,772	0,081	0,113
-334,504	-200,000	0,019	-0,137
-333,489	-59,110	0,076	0,024
-332,475	-200,000	-0,005	-0,034
-331,460	800,000	-0,011	-0,034
-330,445	-200,000	-0,018	-0,063
-329,431	-200,000	0,007	0,198
-328,416	13,514	0,091	-0,052
-327,402	475,863	-0,020	0,033
-326,387	37,936	0,053	-0,035
-325,372	-7,347	-0,039	0,019
-324,358	-200,000	-0,023	-0,110
-323,343	114,906	0,055	-0,049
-322,329	203,911	0,087	-0,099
-321,314	-155,393	0,014	-0,001
-320,299	92,155	0,105	0,087
-319,285	-200,000	0,009	0,119
-318,270	-200,000	0,006	-0,038
-317,256	-90,527	-0,025	0,005
-316,241	800,000	-0,045	0,129
-315,226	-96,414	0,030	-0,006
-314,212	43,962	0,089	0,060
-313,197	-61,346	0,084	0,026
-312,183	421,501	-0,081	0,128
-311,168	-71,153	0,173	-0,047
-310,153	-198,946	-0,026	-0,000
-309,139	-200,000	-0,005	0,029
-308,124	0,406	0,046	0,024
-307,110	800,000	0,012	-0,026
-306,095	386,887	-0,067	0,101
-305,080	141,241	-0,047	-0,046
-304,066	11,495	0,044	-0,025
-303,051	-114,000	-0,079	-0,011
-302,037	56,953	-0,063	-0,045
-301,022	183,525	0,033	-0,036
-300,008	-51,860	0,173	-0,059
-298,993	-200,000	-0,019	-0,064
-297,978	163,370	0,162	0,167
-296,964	47,876	-0,045	0,031
-295,949	103,957	-0,113	-0,097
-294,935	-60,516	-0,063	-0,020
-293,920	674,772	-0,042	-0,079
-292,905	451,368	0,063	-0,102
-291,891	721,569	-0,037	-0,073
-290,876	22,338	0,033	0,020
-289,862	454,715	-0,072	-0,117
-288,847	-180,920	-0,111	-0,002
-287,832	122,920	0,114	-0,105
-286,818	-88,042	0,090	-0,020
-285,803	106,372	-0,040	0,035
-284,789	26,078	-0,063	0,038
-283,774	-46,143	0,106	-0,038
-282,759	-167,617	-0,105	-0,003
-281,745	437,700	-0,056	-0,090
-280,730	331,044	0,086	-0,122
-279,716	209,398	-0,138	-0,158
-278,701	-161,176	-0,122	0,005
-277,686	-200,000	0,018	0,131
-276,672	4,569	-0,071	-0,038
-275,657	239,890	0,040	0,049
-274,643	-21,266	-0,023	0,010
-273,628	-149,451	-0,068	-0,004
-272,613	-200,000	0,014	0,165
-271,599	800,000	-0,013	0,029
-270,584	-68,277	0,045	0,013
-269,570	800,000	0,024	0,078
-268,555	67,912	-0,069	0,052
-267,540	-25,763	0,122	-0,052
-266,526	-200,000	-0,017	-0,092
-265,511	-200,000	0,006	0,098
-264,497	113,018	0,074	-0,065
-263,482	91,159	0,107	0,088
-262,467	35,632	-0,060	-0,039
-261,453	531,745	0,114	0,199
-260,438	-76,577	0,186	0,047
-259,424	-102,811	0,166	0,029
-258,409	-200,000	0,007	-0,097
-257,395	-162,176	0,030	0,001
-256,380	319,420	0,120	0,167
-255,365	464,038	0,053	0,087
-254,351	764,011	-0,015	0,031
-253,336	430,436	-0,013	0,021
-252,322	422,063	-0,092	-0,144
-251,307	191,377	-0,042	-0,046
-250,292	800,000	0,024	0,052
-249,278	-19,152	0,090	-0,041
-248,263	31,821	0,053	0,033
-247,249	800,000	0,028	0,084
-246,234	-200,000	-0,009	-0,101
-245,219	68,567	-0,087	-0,066
-244,205	682,033	-0,023	-0,043
-243,190	-200,000	0,013	-0,043
-242,176	-200,000	-0,002	-0,067
-241,161	142,047	0,045	0,044
-240,146	-200,000	-0,016	0,086
-239,132	25,701	0,006	0,004
-238,117	-200,000	-0,033	-0,117
-237,103	-140,238	-0,107	-0,008
-236,088	800,000	0,053	-0,159
-235,073	-100,936	-0,034	0,006
-234,059	770,332	0,036	0,071
-233,044	-200,000	-0,000	0,057
-232,030	-138,261	0,092	0,007
-231,015	-107,989	-0,129	-0,020
-230,000	175,226	-0,009	-0,009
-228,986	-11,113	-0,158	-0,076
-227,971	666,274	-0,035	0,066
-226,957	800,000	-0,025	0,077
-225,942	-200,000	0,016	-0,092
-224,927	-42,030	-0,110	-0,041
-223,913	-200,000	-0,006	-0,114
-222,898	-200,000	0,025	-0,217
-221,884	-167,433	0,082	-0,002
-220,869	-200,000	-0,009	0,181
-219,855	-132,459	0,169	0,016
-218,840	497,817	-0,071	0,121
-217,825	-60,128	-0,055	0,017
-216,811	135,002	-0,037	0,035
-215,796	556,553	-0,080	-0,141
-214,782	51,041	-0,028	-0,019
-213,767	800,000	0,042	-0,093
-212,752	-76,855	0,078	-0,020
-211,738	800,000	0,027	0,061
-210,723	-200,000	-0,014	0,075
-209,709	-27,085	-0,158	0,067
-208,694	-13,235	-0,048	-0,022
-207,679	-154,044	-0,057	-0,003
-206,665	800,000	0,037	0,086
-205,650	141,140	0,064	-0,062
-204,636	281,566	-0,047	0,062
-203,621	-24,269	0,069	0,030
-202,606	-102,859	0,125	-0,021
-201,592	117,005	-0,042	-0,037
-200,577	171,140	0,028	0,029
-199,563	175,688	-0,025	-0,027
-198,548	-200,000	0,021	0,070
-197,533	800,000	-0,072	0,186
-196,519	238,391	0,109	0,132
-195,504	800,000	0,034	0,100
-194,490	207,815	0,028	-0,032
-193,475	-179,434	-0,015	0,000
-192,460	-88,150	0,069	-0,015
-191,446	-84,176	0,081	0,019
-190,431	265,840	-0,075	0,096
-189,417	192,144	-0,062	0,068
-188,402	-49,380	0,080	-0,028
-187,387	15,570	-0,032	-0,018
-186,373	157,737	-0,036	-0,036
-185,358	16,921	0,063	-0,037
-184,344	-200,000	0,004	-0,053
-183,329	-101,219	0,056	-0,010
-182,315	800,000	-0,096	0,248
-181,300	800,000	-0,044	-0,104
-180,285	-7,366	-0,176	-0,087
-179,271	81,413	-0,149	-0,117
-178,256	-23,055	0,047	0,021
-177,242	-41,365	-0,069	-0,026
-176,227	5,287	0,164	-0,088
-175,212	125,458	0,084	-0,078
-174,198	-200,000	0,018	0,140
-173,183	-200,000	-0,010	0,156
-172,169	23,896	-0,169	-0,102
-171,154	254,606	-0,092	-0,114
-170,139	192,020	0,012	0,013
-169,125	510,762	-0,078	0,133
-168,110	800,000	0,035	0,091
-167,096	90,833	0,096	-0,078
-166,081	-120,204	0,029	-0,004
-165,066	-177,902	-0,172	0,003
-164,052	355,192	0,017	-0,024
-163,037	-200,000	-0,040	0,217
-162,023	-200,000	0,005	0,103
-161,008	-16,053	0,055	0,025
-159,993	-200,000	-0,000	-0,042
-158,979	-200,000	0,025	-0,085
-157,964	-200,000	-0,018	-0,080
-156,950	297,928	-0,065	-0,087
-155,935	800,000	-0,033	-0,107
-154,920	433,766	0,072	-0,115
-153,906	108,980	0,029	-0,025
-152,891	-92,610	-0,053	-0,011
-151,877	71,101	0,022	-0,017
-150,862	1,728	-0,052	0,027
-149,847	800,000	0,013	-0,033
-148,833	22,242	-0,067	-0,040
-147,818	-60,787	-0,061	-0,019
-146,804	-120,805	-0,038	-0,005
-145,789	800,000	-0,064	0,140
-144,775	-25,767	-0,121	-0,052
-143,760	47,852	0,037	0,025
-142,745	-200,000	-0,014	0,048
-141,731	-200,000	0,004	-0,088
-140,716	-14,862	0,109	0,051
-139,702	-118,796	0,038	0,005
-138,687	-104,840	-0,033	0,005
-137,672	-158,855	-0,183	-0,007
-136,658	-161,991	-0,030	0,001
-135,643	132,214	-0,105	-0,099
-134,629	195,712	-0,041	-0,045
-133,614	-200,000	-0,051	0,167
-132,599	800,000	0,073	0,181
-131,585	12,859	-0,072	-0,040
-130,570	-200,000	-0,011	-0,151
-129,556	-200,000	-0,013	0,111
-128,541	-9,305	0,082	-0,040
-127,526	800,000	-0,049	-0,105
-126,512	-200,000	0,028	0,119
-125,497	574,924	0,061	0,108
-124,483	800,000	-0,035	-0,091
-123,468	70,551	-0,035	0,027
-122,453	268,981	-0,045	0,058
-121,439	-200,000	0,011	-0,143
-120,424	323,087	-0,016	-0,023
-119,410	-44,856	0,065	0,023
-118,395	68,161	0,048	0,036
-117,380	549,023	0,025	0,044
-116,366	-200,000	-0,006	-0,080
-115,351	800,000	0,028	-0,076
-114,337	274,871	-0,086	-0,111
-113,322	-94,624	0,024	0,005
-112,307	-200,000	0,018	-0,083
-111,293	-200,000	-0,007	0,048
-110,278	-113,627	-0,070	0,010
-109,264	-200,000	-0,008	-0,060
-108,249	634,846	-0,083	-0,154
-107,234	351,584	-0,094	-0,135
-106,220	-200,000	0,004	-0,127
-105,205	-140,153	0,055	0,004
-104,191	37,590	0,077	0,050
-103,176	15,418	0,038	0,021
-102,162	-59,865	0,088	0,027
-101,147	-74,545	-0,106	0,027
-100,132	-200,000	0,029	-0,188
-99,118	-193,368	0,141	0,001
-98,103	-101,686	-0,052	-0,009
-97,089	-104,481	-0,060	0,010
-96,074	669,314	0,012	-0,023
-95,059	53,935	-0,215	-0,150
-94,045	306,059	0,096	-0,130
-93,030	-161,584	0,147	-0,005
-92,016	73,507	-0,107	-0,082
-91,001	-200,000	0,025	-0,085
-89,986	13,084	0,087	0,049
-88,972	98,415	-0,053	-0,044
-87,957	-81,485	0,105	-0,025
-86,943	-31,730	-0,016	-0,006
-85,928	212,178	-0,109	-0,125
-84,913	39,237	-0,030	-0,019
-83,899	-23,325	-0,125	0,054
-82,884	800,000	-0,010	-0,026
-81,870	-200,000	-0,042	0,135
-80,855	475,856	0,018	-0,029
-79,840	225,415	-0,093	-0,110
-78,826	-88,746	-0,120	0,026
-77,811	800,000	-0,036	-0,106
-76,797	308,587	-0,014	0,019
-75,782	76,741	-0,082	-0,063
-74,767	800,000	0,052	-0,108
-73,753	-177,648	-0,087	-0,001
-72,738	-67,489	0,022	-0,006
-71,724	-87,630	-0,157	-0,034
-70,709	-200,000	0,001	-0,035
-69,694	22,453	-0,090	0,053
-68,680	151,395	-0,063	-0,063
-67,665	-161,332	-0,141	0,005
-66,651	800,000	0,019	0,042
-65,636	-200,000	-0,011	0,064
-64,622	-180,638	0,096	-0,001
-63,607	111,953	-0,135	0,118
-62,592	-200,000	0,026	0,122
-61,578	485,624	-0,043	-0,071
-60,563	-164,266	0,053	0,002
-59,549	9,241	-0,047	-0,026
-58,534	-183,200	-1,299	-0,016
-57,519	661,866	-0,835	-1,569
-56,505	-200,000	-1,010	-4,363
-55,490	21,452	0,618	-0,364
-54,476	800,000	4,997	11,783
-53,461	-200,000	13,498	253,193
-52,446	-200,000	689,606	2260,131
-51,432	591,980	1622,191	2918,508
-50,417	119,450	1634,849	1468,613
-49,403	73,304	1288,956	977,458
-48,388	38,085	1024,313	659,880
-47,373	24,300	981,948	587,251
-46,359	23,551	971,550	578,551
-45,344	22,582	967,250	572,803
-44,330	22,595	965,744	571,929
-43,315	22,463	964,354	570,653
-42,300	22,435	963,245	569,885
-41,286	22,415	962,339	569,259
-40,271	22,333	961,394	568,412
-39,257	22,383	960,472	568,007
-38,242	22,384	959,610	567,477
-37,227	22,382	958,704	566,914
-36,213	22,391	957,764	566,363
-35,198	22,402	956,795	565,804
-34,184	22,445	956,417	565,696
-33,169	22,359	955,563	564,892
-32,154	22,437	954,582	564,541
-31,140	22,411	953,606	563,858
-30,125	22,467	952,905	563,600
-29,111	22,433	952,026	562,949
-28,096	22,406	951,197	562,351
-27,082	22,369	950,811	561,980
-26,067	22,429	949,865	561,593
-25,052	22,423	949,219	561,168
-24,038	22,416	948,408	560,645
-23,023	22,405	947,972	560,328
-22,009	22,426	947,353	560,009
-20,994	22,453	946,601	559,628
-19,979	22,424	946,049	559,185
-18,965	22,392	945,533	558,757
-17,950	22,391	944,782	558,286
-16,936	22,373	943,965	557,726
-15,921	22,325	943,547	557,303
-14,906	22,313	942,617	556,694
-13,892	22,322	942,015	556,344
-12,877	22,239	941,580	555,803
-11,863	22,268	940,884	555,463
-10,848	22,330	940,121	555,187
-9,833	22,401	939,858	555,232
-8,819	22,386	939,208	554,782
-7,804	22,273	938,466	553,961
-6,790	22,304	938,014	553,770
-5,775	22,357	937,424	553,569
-4,760	22,325	936,824	553,091
-3,746	22,366	935,884	552,644
-2,731	22,195	935,429	551,815
-1,717	22,163	934,657	551,234
-0,702	22,145	934,036	550,789
0,313	21,970	933,233	550,597
1,327	25,060	931,493	559,237
2,342	34,801	796,027	503,850
3,356	32,933	451,536	282,964
4,371	1,824	293,741	153,049
5,386	-2,589	274,528	138,853
6,400	-4,198	268,659	134,381
7,415	-4,528	266,243	132,858
8,429	-4,398	265,126	132,407
9,444	-4,682	264,221	131,685
10,459	-4,629	263,597	131,410
11,473	-4,497	263,010	131,225
12,488	-4,607	262,466	130,843
13,502	-4,725	261,997	130,491
14,517	-4,646	261,575	130,340
15,531	-4,618	261,074	130,103
16,546	-4,658	260,775	129,908
17,561	-4,723	260,603	129,752
18,575	-4,476	260,142	129,732
19,590	-4,709	259,851	129,367
20,604	-4,625	259,491	129,251
21,619	-4,878	259,312	128,924
22,634	-4,807	258,850	128,746
23,648	-4,654	258,526	128,710
24,663	-4,643	258,211	128,552
25,677	-4,655	258,028	128,439
26,692	-4,728	257,793	128,245
27,707	-4,617	257,568	128,221
28,721	-4,693	257,274	127,995
29,736	-4,558	256,867	127,901
30,750	-4,809	256,738	127,603
31,765	-4,767	256,512	127,517
32,780	-4,882	256,314	127,305
33,794	-4,703	256,149	127,370
34,809	-4,687	255,657	127,128
35,823	-4,682	255,567	127,076
36,838	-4,862	255,355	126,801
37,853	-4,835	254,990	126,632
38,867	-4,746	254,904	126,657
39,882	-4,892	254,643	126,387
40,896	-4,646	254,437	126,490
41,911	-4,880	254,195	126,153
42,926	-5,006	254,024	125,947
43,940	-4,852	253,644	125,881
44,955	-4,849	253,444	125,773
45,969	-4,989	253,262	125,550
46,984	-5,207	253,000	125,220
47,999	-5,216	252,672	125,038
49,013	-5,329	252,484	124,835
50,028	-5,550	252,179	124,482
51,042	-5,809	252,010	124,163
52,057	-5,665	251,811	124,178
53,071	-5,613	251,488	124,054
54,086	-5,584	251,432	124,040
55,101	-5,534	251,228	123,971
56,115	-5,125	251,164	124,282
57,130	-4,763	251,198	124,600
58,144	-4,742	251,041	124,529
59,159	-4,604	250,783	124,509
60,174	-4,678	250,511	124,299
61,188	-4,572	250,318	124,283
62,203	-4,641	250,140	124,124
63,217	-4,799	249,982	123,900
64,232	-4,702	249,824	123,893
65,247	-4,639	249,341	123,697
66,261	-4,746	249,299	123,573
67,276	-4,759	248,956	123,381
68,290	-5,194	248,817	122,930
69,305	-5,242	248,563	122,752
70,320	-4,971	248,116	122,751
71,334	-4,927	248,250	122,844
72,349	-4,644	248,115	123,007
73,363	-4,654	247,958	122,910
74,378	-4,521	247,530	122,800
75,393	-4,470	247,361	122,749
76,407	-4,612	247,108	122,492
77,422	-4,761	246,920	122,261
78,436	-4,569	246,909	122,408
79,451	-4,691	246,597	122,138
80,466	-4,860	246,519	121,946
81,480	-4,963	246,105	121,643
82,495	-4,828	245,882	121,637
83,509	-4,843	245,757	121,551
84,524	-4,865	245,563	121,426
85,539	-5,077	245,434	121,173
86,553	-5,115	245,136	120,983
87,568	-5,070	245,003	120,944
88,582	-4,915	244,885	121,005
89,597	-5,058	244,759	120,812
90,611	-4,825	244,557	120,897
91,626	-4,756	244,397	120,865
92,641	-4,795	244,231	120,739
93,655	-4,756	244,026	120,660
94,670	-4,783	243,660	120,446
95,684	-4,639	243,530	120,491
96,699	-5,078	243,457	120,077
97,714	-5,118	243,315	119,964
98,728	-4,963	242,829	119,842
99,743	-5,136	242,803	119,675
100,757	-5,074	242,683	119,657
101,772	-4,983	242,356	119,561
102,787	-5,032	242,228	119,445
103,801	-4,865	242,130	119,525
104,816	-4,807	242,037	119,517
105,830	-4,592	241,857	119,595
106,845	-4,616	241,633	119,454
107,860	-4,838	241,508	119,199
108,874	-4,932	241,197	118,956
109,889	-4,900	241,057	118,904
110,903	-4,908	240,952	118,834
111,918	-4,964	240,549	118,579
112,933	-4,953	240,520	118,563
113,947	-4,861	240,467	118,602
114,962	-4,603	240,162	118,653
115,976	-4,752	240,061	118,470
116,991	-4,717	239,884	118,401
118,006	-4,674	239,592	118,281
119,020	-4,743	239,573	118,205
120,035	-4,525	239,446	118,310
121,049	-4,703	239,334	118,099
122,064	-4,700	239,172	118,011
123,079	-4,864	239,030	117,796
124,093	-4,842	238,706	117,644
125,108	-5,133	238,563	117,326
126,122	-5,107	238,245	117,180
127,137	-5,301	238,046	116,914
128,151	-5,243	237,979	116,917
129,166	-5,132	237,794	116,906
130,181	-5,007	237,621	116,912
131,195	-5,114	237,377	116,695
132,210	-5,013	237,381	116,769
133,224	-4,769	237,200	116,867
134,239	-4,870	237,000	116,676
135,254	-4,891	236,801	116,550
136,268	-5,029	236,737	116,397
137,283	-5,216	236,417	116,079
138,297	-5,158	236,195	116,006
139,312	-5,333	235,861	115,691
140,327	-5,098	235,922	115,900
141,341	-4,553	235,927	116,330
142,356	-4,393	235,712	116,343
143,370	-4,261	235,554	116,361
144,385	-4,349	235,338	116,172
145,400	-4,390	235,356	116,139
146,414	-4,531	235,080	115,879
147,429	-4,444	234,880	115,840
148,443	-4,489	234,688	115,698
149,458	-4,564	234,605	115,588
150,473	-4,544	234,430	115,507
151,487	-4,595	234,326	115,405
152,502	-4,611	234,053	115,248
153,516	-4,493	233,806	115,209
154,531	-4,667	233,687	115,002
155,546	-4,576	233,431	114,938
156,560	-4,687	233,383	114,815
157,575	-4,849	233,171	114,573
158,589	-4,601	232,920	114,635
159,604	-4,485	232,801	114,659
160,619	-4,476	232,618	114,565
161,633	-4,664	232,595	114,395
162,648	-4,420	232,392	114,478
163,662	-4,449	232,200	114,350
164,677	-4,707	232,171	114,122
165,692	-4,443	232,046	114,259
166,706	-4,215	231,744	114,280
167,721	-4,205	231,705	114,258
168,735	-4,466	231,646	114,014
169,750	-4,270	231,402	114,038
170,764	-4,517	231,237	113,752
171,779	-4,447	230,928	113,645
172,794	-4,468	231,003	113,655
173,808	-4,473	230,640	113,462
174,823	-4,871	230,378	113,012
175,837	-4,984	230,215	112,833
176,852	-4,736	230,176	112,998
177,867	-4,421	230,051	113,173
178,881	-4,485	229,968	113,072
179,896	-4,449	229,881	113,047
180,910	-4,431	229,641	112,933
181,925	-4,304	229,450	112,928
182,940	-4,442	229,273	112,723
183,954	-4,362	229,221	112,750
184,969	-4,426	229,157	112,659
185,983	-4,109	228,849	112,743
186,998	-4,472	228,732	112,394
188,013	-4,288	228,560	112,442
189,027	-4,223	228,371	112,389
190,042	-4,465	228,358	112,186
191,056	-4,340	228,119	112,155
192,071	-4,217	227,966	112,165
193,086	-4,193	227,816	112,100
194,100	-4,212	227,735	112,035
195,115	-4,648	227,270	111,460
196,129	-5,222	227,146	110,946
197,144	-2,179	227,988	113,702
198,159	1,606	229,032	117,148
199,173	4,116	229,502	119,325
200,188	4,312	229,474	119,451
201,202	4,192	229,503	119,363
202,217	4,477	229,372	119,505
203,232	4,711	229,295	119,635
204,246	4,791	229,147	119,608
205,261	4,640	228,923	119,364
206,275	4,877	228,937	119,544
207,290	4,711	228,778	119,322
208,304	4,952	228,677	119,445
209,319	4,952	228,301	119,238
210,334	4,925	228,169	119,137
211,348	4,595	227,860	118,712
212,363	4,324	227,560	118,337
213,377	3,882	227,518	117,966
214,392	3,879	227,373	117,878
215,407	4,184	227,179	118,000
216,421	4,351	227,080	118,066
217,436	4,184	226,978	117,875
218,450	3,871	226,705	117,483
219,465	3,848	226,484	117,341
220,480	3,930	226,390	117,344
221,494	3,809	226,218	117,152
222,509	4,137	226,218	117,392
223,523	4,296	225,960	117,369
224,538	3,956	225,884	117,060
225,553	4,031	225,821	117,074
226,567	3,990	225,736	116,988
227,582	4,266	225,531	117,082
228,596	4,657	225,469	117,335
229,611	4,129	225,217	116,793
230,626	4,033	224,929	116,561
231,640	3,819	224,810	116,327
232,655	4,346	224,814	116,718
233,669	4,871	224,653	117,020
234,684	4,845	224,620	116,973
235,699	4,485	224,536	116,647
236,713	4,293	224,143	116,288
237,728	3,923	223,998	115,923
238,742	4,018	223,847	115,906
239,757	4,177	223,684	115,931
240,772	4,117	223,559	115,811
241,786	4,271	223,382	115,824
242,801	3,952	223,435	115,602
243,815	4,451	223,325	115,909
244,830	4,625	223,085	115,905
245,844	4,050	222,883	115,359
246,859	4,145	222,751	115,351
247,874	4,124	222,713	115,306
248,888	4,300	222,544	115,339
249,903	4,072	222,205	114,983
250,917	4,197	222,128	115,026
251,932	3,975	222,034	114,802
252,947	4,112	221,685	114,713
253,961	3,993	221,584	114,562
254,976	4,147	221,460	114,602
255,990	4,123	221,397	114,542
257,005	4,158	221,281	114,498
258,020	4,182	221,209	114,468
259,034	4,387	221,166	114,588
260,049	4,024	220,937	114,190
261,063	4,195	220,852	114,263
262,078	4,493	220,633	114,360
263,093	4,619	220,523	114,386
264,107	4,457	220,467	114,226
265,122	4,592	220,142	114,148
266,136	4,497	220,079	114,034
267,151	4,672	220,032	114,129
268,166	4,140	219,667	113,537
269,180	3,931	219,534	113,304
270,195	3,976	219,349	113,233
271,209	3,990	219,077	113,092
272,224	4,057	219,192	113,191
273,239	4,041	219,023	113,081
274,253	3,883	218,816	112,849
275,268	4,097	218,511	112,838
276,282	3,816	218,434	112,583
277,297	3,682	218,283	112,396
278,312	3,807	218,241	112,456
279,326	4,033	218,095	112,536
280,341	3,920	218,071	112,431
281,355	4,167	217,862	112,494
282,370	4,155	217,671	112,377
283,384	3,920	217,506	112,110
284,399	4,052	217,219	112,048
285,414	3,811	217,261	111,884
286,428	3,806	217,241	111,861
287,443	4,286	217,081	112,117
288,457	4,218	216,999	112,016
289,472	3,896	216,703	111,618
290,487	3,685	216,519	111,361
291,501	3,612	216,291	111,181
292,516	3,826	216,240	111,300
293,530	3,907	216,115	111,284
294,545	3,784	215,958	111,104
295,560	3,826	215,894	111,092
296,574	3,974	215,934	111,210
297,589	3,877	215,632	110,974
298,603	4,193	215,405	111,076
299,618	4,043	215,454	110,982
300,633	4,034	215,260	110,866
301,647	4,234	215,203	110,971
302,662	4,213	215,089	110,887
303,676	4,200	214,944	110,793
304,691	4,036	214,922	110,655
305,706	4,525	214,516	110,786
306,720	4,226	214,472	110,539
307,735	4,120	214,217	110,322
308,749	4,064	214,157	110,241
309,764	4,302	214,085	110,364
310,779	4,254	214,076	110,315
311,793	4,083	213,889	110,087
312,808	4,182	213,587	109,992
313,822	3,911	213,634	109,814
314,837	4,162	213,279	109,800
315,852	3,690	213,266	109,448
316,866	4,073	213,022	109,585
317,881	4,273	212,935	109,673
318,895	4,169	212,820	109,530
319,910	4,179	212,670	109,450
320,925	3,737	212,396	108,986
321,939	3,730	212,193	108,866
322,954	3,822	212,202	108,927
323,968	4,285	212,084	109,185
324,983	3,897	212,057	108,886
325,997	4,125	212,028	109,023
327,012	4,062	211,614	108,756
328,027	4,261	211,484	108,819
329,041	4,362	211,411	108,843
330,056	4,703	211,316	109,025
331,070	4,097	211,115	108,485
332,085	3,796	210,942	108,174
333,100	3,953	210,872	108,240
334,114	4,173	210,741	108,317
335,129	4,023	210,655	108,158
336,143	4,110	210,365	108,060
337,158	4,086	210,306	108,004
338,173	3,954	210,269	107,883
339,187	3,790	210,000	107,620
340,202	3,591	209,910	107,425
341,216	3,580	209,755	107,329
342,231	3,810	209,612	107,407
343,246	3,835	209,520	107,367
344,260	3,935	209,295	107,312
345,275	4,042	209,219	107,338
346,289	4,080	209,252	107,373
347,304	4,131	209,083	107,311
348,319	4,113	208,912	107,201
349,333	4,214	208,742	107,175
350,348	4,046	208,494	106,922
351,362	4,200	208,548	107,047
352,377	4,134	208,429	106,930
353,392	3,880	208,284	106,670
354,406	3,934	208,178	106,644
355,421	194,626	1344,733	1435,673
356,435	155,318	1483,307	1435,799
