DTS Sentinel unit serial number:	SN410029Multiplexer serial number:	ORYXHardware model number:	OX2-SRSoftware version number:	ORYX F/W v4,00 Oryx Data Collector v3.7.2.0data status	okinstallation	B6 Nyhavnadifferential loss correction	single-endedforward channel	channel 2reverse channel	N/Adate	2023/12/08time	07:05:08forward acquisition time	300,00reverse acquisition time	0,00gamma	499,1914k internal	0,3166k external	0,3166temperature offset calibration	1,0000default loss term (dB/km)	0,3820temperature slope calibration	1,0000multiplexer offset coefficient	1,0000multiplexer slope coefficient	1,0000fibre end	0,00T internal ref (°C)	13,09T ext. ref 1 (°C)	-3,45T ext. ref 2 (°C)	-3,45length (m)	temperature (°C)	Stokes	anti-Stokes-744,400	98,229	0,093	0,078
-743,385	43,629	-0,185	-0,124
-742,371	800,000	0,002	-0,004
-741,356	-115,430	-0,325	-0,045
-740,342	-110,326	0,215	0,033
-739,327	-91,675	-0,302	-0,063
-738,312	265,727	0,068	0,088
-737,298	-56,274	-0,343	-0,111
-736,283	-41,087	-0,114	0,043
-735,269	53,471	-0,282	0,198
-734,254	-53,272	0,029	0,010
-733,239	-24,850	-0,454	-0,197
-732,225	399,029	0,048	0,074
-731,210	121,887	0,086	0,079
-730,196	272,374	-0,022	-0,028
-729,181	78,686	-0,058	-0,046
-728,167	-34,942	-0,066	-0,027
-727,152	-200,000	-0,017	-0,091
-726,137	60,494	-0,117	-0,085
-725,123	800,000	0,032	-0,078
-724,108	61,249	-0,035	0,026
-723,094	-200,000	-0,000	-0,079
-722,079	210,152	0,093	-0,108
-721,064	-24,767	-0,135	-0,059
-720,050	800,000	-0,036	0,114
-719,035	-150,557	0,044	0,002
-718,021	800,000	-0,016	-0,048
-717,006	800,000	-0,051	-0,126
-715,991	-124,396	-0,076	-0,009
-714,977	-179,584	-0,092	-0,001
-713,962	512,087	0,034	0,058
-712,948	49,112	0,019	0,013
-711,933	-154,695	-0,093	0,004
-710,918	45,993	-0,077	0,052
-709,904	800,000	-0,050	-0,130
-708,889	800,000	-0,049	-0,110
-707,875	-99,553	-0,134	-0,024
-706,860	-200,000	-0,041	-0,188
-705,845	663,126	-0,077	-0,147
-704,831	-37,651	0,064	-0,025
-703,816	447,730	0,062	0,100
-702,802	-59,846	0,177	-0,055
-701,787	118,440	-0,130	-0,117
-700,772	103,056	-0,105	0,091
-699,758	-140,562	0,087	0,007
-698,743	-46,480	0,138	-0,050
-697,729	227,295	0,020	0,024
-696,714	800,000	0,036	0,096
-695,699	-200,000	0,007	-0,068
-694,685	34,705	0,055	0,035
-693,670	185,795	-0,077	-0,084
-692,656	-169,608	-0,100	-0,003
-691,641	800,000	-0,035	0,100
-690,627	-78,511	-0,135	0,034
-689,612	71,801	-0,130	0,099
-688,597	-72,333	-0,192	0,052
-687,583	800,000	0,015	0,041
-686,568	-200,000	0,023	-0,120
-685,554	111,618	-0,088	-0,078
-684,539	-19,463	0,123	0,056
-683,524	67,621	0,040	-0,030
-682,510	-113,202	0,081	0,012
-681,495	-200,000	-0,027	-0,157
-680,481	-200,000	-0,028	-0,160
-679,466	-161,662	-0,269	-0,010
-678,451	-200,000	0,006	0,032
-677,437	800,000	0,019	0,044
-676,422	-83,617	-0,011	0,003
-675,408	239,235	0,048	-0,059
-674,393	-200,000	0,020	0,066
-673,378	-41,603	-0,120	-0,045
-672,364	117,265	0,065	-0,059
-671,349	-178,337	-0,191	-0,003
-670,335	-200,000	-0,014	-0,055
-669,320	-200,000	-0,015	-0,081
-668,305	-130,649	-0,087	-0,008
-667,291	-200,000	-0,034	0,132
-666,276	228,306	-0,088	0,105
-665,262	232,697	-0,118	-0,143
-664,247	-138,192	-0,097	-0,008
-663,232	96,955	-0,054	0,045
-662,218	-57,443	0,010	0,003
-661,203	800,000	-0,011	0,027
-660,189	-200,000	-0,004	0,113
-659,174	-21,573	-0,050	-0,022
-658,159	2,776	-0,141	-0,075
-657,145	800,000	0,057	-0,147
-656,130	-126,108	-0,031	-0,003
-655,116	57,477	0,121	-0,086
-654,101	800,000	-0,021	-0,054
-653,086	-200,000	0,011	-0,049
-652,072	450,505	-0,065	-0,105
-651,057	-17,959	0,052	-0,024
-650,043	-57,572	0,053	0,017
-649,028	61,305	-0,039	0,028
-648,014	69,551	0,068	0,052
-646,999	208,769	0,026	-0,030
-645,984	151,142	0,043	0,043
-644,970	383,640	0,007	0,010
-643,955	-200,000	-0,021	-0,084
-642,941	65,054	0,087	-0,065
-641,926	-200,000	0,009	-0,044
-640,911	-25,887	-0,037	-0,016
-639,897	675,397	0,030	-0,058
-638,882	585,050	0,064	0,116
-637,868	427,383	-0,017	0,028
-636,853	-127,337	0,048	-0,005
-635,838	-26,181	0,096	-0,041
-634,824	-109,597	-0,096	-0,015
-633,809	-200,000	-0,031	-0,128
-632,795	253,975	-0,033	-0,042
-631,780	-200,000	-0,010	0,156
-630,765	184,037	-0,189	0,205
-629,751	-102,415	-0,050	-0,009
-628,736	-141,726	0,033	0,002
-627,722	-24,905	0,025	0,011
-626,707	-90,954	0,188	-0,039
-625,692	-200,000	-0,021	0,097
-624,678	-158,239	0,120	-0,005
-623,663	-159,383	-0,079	-0,003
-622,649	138,148	-0,040	-0,038
-621,634	-28,811	-0,224	-0,094
-620,619	-55,822	-0,063	-0,020
-619,605	-200,000	0,001	0,109
-618,590	797,355	0,036	-0,073
-617,576	-200,000	-0,041	0,135
-616,561	736,681	-0,070	-0,138
-615,546	-39,519	0,131	-0,050
-614,532	77,167	-0,074	-0,058
-613,517	800,000	0,035	0,091
-612,503	-200,000	-0,010	0,072
-611,488	-200,000	-0,003	-0,059
-610,474	468,559	0,048	-0,079
-609,459	76,221	-0,093	-0,072
-608,444	-112,677	-0,066	-0,010
-607,430	-200,000	-0,023	-0,122
-606,415	240,081	0,046	0,056
-605,401	-130,877	-0,066	0,006
-604,386	-103,738	0,028	-0,005
-603,371	-200,000	0,002	0,035
-602,357	-44,778	-0,121	0,044
-601,342	-200,000	0,036	0,176
-600,328	-65,037	0,121	0,035
-599,313	-67,763	0,072	-0,020
-598,298	-38,934	-0,132	-0,050
-597,284	222,999	-0,030	-0,035
-596,269	-200,000	0,004	0,064
-595,255	773,279	-0,037	0,073
-594,240	-200,000	-0,004	-0,078
-593,225	304,943	-0,088	0,120
-592,211	-50,547	-0,215	-0,074
-591,196	51,900	-0,113	-0,078
-590,182	-114,818	0,118	0,016
-589,167	8,399	-0,157	0,086
-588,152	44,418	-0,143	0,096
-587,138	-76,896	-0,052	-0,013
-586,123	800,000	-0,028	-0,067
-585,109	-32,726	-0,056	0,023
-584,094	-158,153	-0,127	0,005
-583,079	-174,008	0,204	0,004
-582,065	337,705	0,055	0,078
-581,050	-142,033	-0,090	0,006
-580,036	-200,000	-0,034	0,121
-579,021	25,701	-0,118	-0,071
-578,006	800,000	0,022	-0,052
-576,992	71,942	0,002	0,001
-575,977	217,438	0,028	-0,032
-574,963	-200,000	0,023	-0,103
-573,948	195,575	-0,065	0,072
-572,934	-200,000	0,026	-0,209
-571,919	-30,947	0,084	-0,034
-570,904	102,659	-0,088	-0,075
-569,890	359,156	-0,019	-0,028
-568,875	-200,000	-0,001	0,099
-567,861	200,427	-0,032	0,036
-566,846	-89,138	0,167	-0,036
-565,831	-22,737	0,157	-0,069
-564,817	207,723	0,014	0,016
-563,802	29,300	0,078	-0,048
-562,788	-200,000	0,002	-0,012
-561,773	-11,606	0,130	-0,062
-560,758	-58,844	0,068	-0,021
-559,744	-145,356	-0,031	-0,002
-558,729	-103,202	0,160	0,027
-557,715	-161,123	-0,114	-0,004
-556,700	316,155	-0,049	-0,068
-555,685	-127,911	-0,099	-0,010
-554,671	515,703	0,074	0,126
-553,656	347,285	-0,050	-0,073
-552,642	-88,044	0,063	0,014
-551,627	-200,000	-0,016	-0,078
-550,612	106,191	-0,078	0,067
-549,598	-22,609	-0,050	0,022
-548,583	14,499	-0,100	-0,057
-547,569	697,060	0,050	0,096
-546,554	200,854	-0,041	-0,046
-545,539	-200,000	0,004	0,035
-544,525	-200,000	-0,001	0,120
-543,510	-112,534	0,045	0,007
-542,496	-83,844	-0,098	-0,022
-541,481	-94,154	0,067	-0,013
-540,466	-200,000	0,019	0,071
-539,452	-69,694	0,052	0,014
-538,437	13,760	0,136	-0,077
-537,423	-82,234	-0,066	-0,016
-536,408	516,562	-0,037	-0,064
-535,393	-103,366	-0,147	-0,025
-534,379	191,342	0,043	0,048
-533,364	608,940	0,026	0,047
-532,350	266,330	-0,103	0,132
-531,335	-200,000	0,013	0,095
-530,321	-3,719	0,062	0,032
-529,306	15,852	-0,080	-0,046
-528,291	12,183	0,076	0,042
-527,277	-71,001	0,087	-0,024
-526,262	192,809	0,086	-0,094
-525,248	-83,643	0,132	-0,031
-524,233	-9,520	-0,083	-0,040
-523,218	800,000	0,016	0,047
-522,204	-2,028	0,044	0,023
-521,189	5,355	-0,055	-0,030
-520,175	66,109	0,058	0,043
-519,160	-7,694	0,029	0,014
-518,145	64,983	-0,115	-0,085
-517,131	-71,218	0,041	0,011
-516,116	281,911	0,045	0,058
-515,102	401,836	-0,013	-0,019
-514,087	800,000	-0,064	-0,156
-513,072	519,944	0,030	0,051
-512,058	800,000	0,047	-0,101
-511,043	-64,142	0,110	0,033
-510,029	-7,872	0,105	0,052
-509,014	344,617	0,083	0,119
-507,999	800,000	-0,019	0,059
-506,985	52,289	0,148	-0,103
-505,970	574,747	-0,022	0,039
-504,956	800,000	0,029	-0,079
-503,941	-26,861	-0,038	-0,016
-502,926	-88,879	0,023	0,005
-501,912	394,305	0,044	0,066
-500,897	16,562	0,023	0,013
-499,883	775,856	-0,015	-0,031
-498,868	-154,547	0,146	-0,007
-497,853	-200,000	-0,000	-0,055
-496,839	155,831	0,093	-0,093
-495,824	-17,296	0,048	0,022
-494,810	-100,399	0,009	0,002
-493,795	-33,041	-0,081	-0,033
-492,781	-138,849	-0,090	0,007
-491,766	114,368	-0,110	-0,098
-490,751	501,633	-0,072	-0,121
-489,737	-200,000	-0,004	-0,074
-488,722	-200,000	0,000	0,118
-487,708	368,014	0,055	-0,081
-486,693	-200,000	-0,006	0,025
-485,678	208,873	-0,082	0,094
-484,664	465,426	-0,034	-0,055
-483,649	526,379	-0,042	-0,073
-482,635	-192,244	-0,122	-0,001
-481,620	-200,000	0,022	0,134
-480,605	800,000	0,021	-0,056
-479,591	40,232	0,083	0,054
-478,576	-200,000	-0,022	0,102
-477,562	-1,543	0,089	-0,046
-476,547	326,309	0,052	-0,073
-475,532	-120,043	0,075	-0,009
-474,518	-108,681	0,016	0,003
-473,503	-59,888	0,121	-0,037
-472,489	52,388	-0,071	0,050
-471,474	518,397	0,028	0,048
-470,459	379,404	-0,091	-0,137
-469,445	202,337	0,026	-0,029
-468,430	-200,000	-0,016	-0,106
-467,416	-200,000	0,001	0,177
-466,401	-26,558	0,086	0,037
-465,386	-78,069	0,067	-0,017
-464,372	-106,971	-0,148	-0,024
-463,357	-118,975	0,097	-0,012
-462,343	-54,198	-0,134	0,044
-461,328	-200,000	-0,016	-0,144
-460,313	780,908	0,049	0,099
-459,299	299,691	0,086	-0,115
-458,284	417,720	-0,019	0,030
-457,270	594,587	-0,084	0,151
-456,255	59,071	0,073	0,052
-455,241	-200,000	0,025	-0,176
-454,226	-28,599	-0,103	0,043
-453,211	-200,000	0,031	-0,134
-452,197	230,083	0,071	0,085
-451,182	-95,504	0,065	0,012
-450,168	-200,000	-0,001	-0,098
-449,153	40,137	0,097	-0,063
-448,138	-2,880	-0,191	-0,096
-447,124	-33,166	0,069	-0,028
-446,109	237,883	0,073	-0,088
-445,095	433,652	-0,034	0,054
-444,080	-82,344	0,135	-0,032
-443,065	-134,048	-0,059	0,005
-442,051	-200,000	-0,021	-0,152
-441,036	357,603	-0,126	-0,184
-440,022	-118,953	-0,098	0,012
-439,007	211,157	-0,069	-0,079
-437,992	51,155	-0,164	0,113
-436,978	489,730	0,083	-0,138
-435,963	-1,712	-0,026	-0,013
-434,949	-200,000	0,001	-0,081
-433,934	141,878	-0,082	0,079
-432,919	-90,317	-0,093	0,019
-431,905	-81,762	-0,029	0,007
-430,890	469,632	0,049	-0,080
-429,876	-107,948	0,069	0,011
-428,861	5,879	0,024	0,013
-427,846	69,004	-0,058	-0,043
-426,832	-200,000	0,025	0,098
-425,817	-200,000	0,000	-0,078
-424,803	-52,022	-0,128	-0,043
-423,788	217,536	0,063	0,074
-422,773	-122,774	-0,055	0,006
-421,759	96,864	0,097	-0,081
-420,744	-200,000	-0,007	0,055
-419,730	88,735	-0,065	0,052
-418,715	-200,000	-0,024	-0,090
-417,701	-4,801	-0,071	0,035
-416,686	-105,939	-0,130	0,021
-415,671	-175,237	0,069	-0,001
-414,657	-150,372	0,041	0,002
-413,642	-200,000	0,048	-0,165
-412,628	690,713	-0,074	-0,142
-411,613	-161,579	-0,052	0,002
-410,598	-79,258	-0,061	-0,015
-409,584	2,974	-0,006	-0,003
-408,569	709,343	0,034	0,066
-407,555	127,188	-0,038	-0,035
-406,540	-200,000	0,026	0,170
-405,525	235,415	-0,068	-0,082
-404,511	-200,000	0,054	-0,187
-403,496	-10,988	0,011	-0,005
-402,482	-37,979	0,070	-0,027
-401,467	527,701	0,040	0,068
-400,452	35,689	0,113	0,072
-399,438	-200,000	0,003	0,039
-398,423	372,759	0,040	-0,060
-397,409	-22,874	-0,045	0,020
-396,394	-112,990	0,108	-0,015
-395,379	67,935	-0,082	-0,061
-394,365	800,000	0,033	0,084
-393,350	118,788	0,010	0,009
-392,336	-200,000	0,008	0,176
-391,321	27,633	-0,088	0,054
-390,306	-200,000	0,021	-0,149
-389,292	800,000	0,009	-0,019
-388,277	-200,000	0,154	0,000
-387,263	-110,727	0,094	0,014
-386,248	800,000	-0,022	0,057
-385,233	800,000	0,006	-0,014
-384,219	276,358	-0,142	0,183
-383,204	185,457	-0,036	-0,039
-382,190	34,987	0,022	0,014
-381,175	800,000	0,028	-0,078
-380,160	-200,000	0,014	0,091
-379,146	-90,278	-0,085	-0,018
-378,131	-200,000	0,019	0,126
-377,117	-200,000	0,022	0,106
-376,102	-103,041	-0,127	-0,022
-375,088	578,884	-0,062	-0,111
-374,073	81,746	0,139	0,109
-373,058	159,517	0,098	0,099
-372,044	7,885	0,077	0,042
-371,029	-200,000	-0,013	0,047
-370,015	220,566	-0,019	0,022
-369,000	-41,995	-0,075	-0,028
-367,985	548,998	-0,021	0,036
-366,971	-200,000	-0,013	0,046
-365,956	800,000	0,042	-0,125
-364,942	800,000	0,034	-0,078
-363,927	-34,978	0,107	0,042
-362,912	-200,000	-0,033	0,108
-361,898	-200,000	0,023	-0,076
-360,883	141,783	0,050	0,048
-359,869	183,453	-0,079	0,084
-358,854	632,547	0,055	0,102
-357,839	-33,905	0,043	-0,017
-356,825	-200,000	0,016	0,087
-355,810	-200,000	0,031	-0,118
-354,796	26,544	-0,014	-0,009
-353,781	-200,000	-0,005	0,070
-352,766	231,177	-0,061	-0,072
-351,752	717,999	-0,032	-0,062
-350,737	210,512	0,099	0,113
-349,723	28,378	-0,062	-0,038
-348,708	-200,000	0,016	-0,098
-347,693	-200,000	0,016	0,131
-346,679	-165,961	0,044	0,001
-345,664	59,556	-0,127	0,091
-344,650	141,843	-0,015	-0,015
-343,635	800,000	0,029	0,077
-342,620	-200,000	-0,027	0,093
-341,606	-200,000	-0,022	-0,117
-340,591	-200,000	-0,005	-0,095
-339,577	-145,372	-0,185	-0,012
-338,562	184,753	0,075	-0,081
-337,548	-6,482	0,181	-0,089
-336,533	42,562	0,003	-0,002
-335,518	-200,000	0,009	0,067
-334,504	-200,000	-0,007	0,194
-333,489	-96,895	0,157	0,030
-332,475	213,935	0,045	0,052
-331,460	43,706	0,108	-0,071
-330,445	-200,000	0,004	-0,038
-329,431	-50,676	-0,071	0,024
-328,416	244,260	0,127	-0,155
-327,402	-126,829	-0,190	0,020
-326,387	-200,000	-0,004	0,069
-325,372	66,690	-0,040	0,030
-324,358	800,000	-0,032	-0,094
-323,343	282,799	-0,061	-0,079
-322,329	-200,000	0,007	0,060
-321,314	15,005	-0,024	-0,013
-320,299	38,966	0,037	-0,024
-319,285	756,355	0,039	-0,077
-318,270	-200,000	-0,013	-0,077
-317,256	90,704	0,021	0,017
-316,241	-200,000	0,009	0,194
-315,226	-200,000	-0,012	-0,118
-314,212	-160,289	0,030	-0,001
-313,197	-200,000	-0,014	-0,066
-312,183	648,406	0,076	0,141
-311,168	-46,054	0,025	0,009
-310,153	-200,000	-0,008	-0,213
-309,139	800,000	-0,070	-0,184
-308,124	434,811	0,086	-0,136
-307,110	285,449	-0,049	-0,064
-306,095	610,619	0,077	0,139
-305,080	800,000	0,027	-0,060
-304,066	427,085	-0,095	-0,148
-303,051	515,002	0,092	-0,156
-302,037	-162,609	-0,103	0,004
-301,022	-200,000	-0,031	0,122
-300,008	800,000	0,035	0,073
-298,993	-200,000	-0,001	-0,028
-297,978	-105,135	0,048	-0,008
-296,964	-17,036	-0,064	-0,029
-295,949	-108,507	0,149	0,023
-294,935	-121,995	-0,110	-0,013
-293,920	800,000	0,017	0,050
-292,905	-200,000	0,017	0,109
-291,891	105,869	0,104	0,089
-290,876	655,656	0,088	0,164
-289,862	800,000	0,022	0,067
-288,847	170,502	-0,095	-0,098
-287,832	68,684	0,065	-0,048
-286,818	1,777	-0,026	-0,014
-285,803	-74,295	-0,105	0,027
-284,789	-156,542	0,124	0,005
-283,774	-17,083	0,062	-0,028
-282,759	297,719	-0,021	0,028
-281,745	-32,344	-0,061	-0,024
-280,730	-200,000	-0,022	-0,109
-279,716	181,376	0,075	-0,080
-278,701	365,280	-0,016	-0,023
-277,686	800,000	-0,022	-0,047
-276,672	677,079	-0,047	-0,089
-275,657	277,007	0,036	0,046
-274,643	306,819	0,108	0,146
-273,628	800,000	0,050	-0,127
-272,613	-200,000	0,014	-0,046
-271,599	-200,000	-0,003	0,030
-270,584	156,673	-0,078	0,078
-269,570	563,729	0,005	-0,008
-268,555	-200,000	0,005	0,020
-267,540	6,221	0,068	-0,036
-266,526	687,548	-0,064	-0,122
-265,511	183,449	0,058	0,062
-264,497	152,932	0,052	0,051
-263,482	38,843	-0,011	-0,007
-262,467	-118,289	0,064	0,008
-261,453	443,325	0,082	0,131
-260,438	125,188	-0,104	0,094
-259,424	46,253	-0,047	-0,032
-258,409	800,000	-0,024	-0,060
-257,395	800,000	-0,040	0,086
-256,380	-27,711	0,063	-0,026
-255,365	-200,000	0,016	-0,063
-254,351	-200,000	0,016	0,112
-253,336	-200,000	-0,015	0,134
-252,322	21,741	-0,064	-0,038
-251,307	-200,000	0,011	0,078
-250,292	687,788	-0,092	0,174
-249,278	106,238	0,086	0,074
-248,263	-200,000	-0,004	-0,021
-247,249	51,301	0,114	0,078
-246,234	-200,000	-0,003	-0,073
-245,219	-200,000	0,016	-0,088
-244,205	800,000	0,028	0,066
-243,190	1,523	-0,152	0,079
-242,176	-164,984	0,080	-0,003
-241,161	196,833	0,068	-0,075
-240,146	420,143	-0,055	0,085
-239,132	395,409	0,034	0,052
-238,117	745,734	-0,058	0,114
-237,103	16,479	-0,059	-0,033
-236,088	-68,568	-0,131	0,036
-235,073	-200,000	-0,006	0,068
-234,059	-108,615	-0,016	0,002
-233,044	-200,000	-0,012	0,066
-232,030	167,348	-0,028	0,029
-231,015	-20,711	-0,061	-0,027
-230,000	-18,630	-0,068	0,030
-228,986	800,000	0,029	-0,072
-227,971	-200,000	-0,039	0,131
-226,957	800,000	0,088	0,178
-225,942	-87,844	0,060	0,013
-224,927	-80,747	-0,168	-0,040
-223,913	123,530	0,072	-0,065
-222,898	250,071	-0,054	-0,066
-221,884	-34,360	-0,061	0,024
-220,869	-19,147	0,147	0,066
-219,855	-200,000	-0,010	-0,093
-218,840	131,658	0,017	0,015
-217,825	609,634	0,033	-0,060
-216,811	127,635	-0,056	-0,051
-215,796	-100,753	-0,043	0,008
-214,782	-74,018	0,058	0,015
-213,767	800,000	0,016	0,043
-212,752	22,210	-0,146	0,086
-211,738	-200,000	-0,002	-0,008
-210,723	720,084	0,017	-0,033
-209,709	-112,933	-0,052	-0,007
-208,694	-9,839	0,023	-0,011
-207,679	-200,000	0,014	0,060
-206,665	-78,218	0,028	-0,007
-205,650	425,494	0,046	0,072
-204,636	-200,000	0,002	0,078
-203,621	443,700	-0,029	0,045
-202,606	242,360	-0,050	-0,060
-201,592	800,000	0,010	0,023
-200,577	-200,000	-0,036	-0,172
-199,563	-50,539	-0,075	0,025
-198,548	427,215	0,057	-0,089
-197,533	-80,773	0,143	-0,034
-196,519	-40,796	0,134	-0,050
-195,504	800,000	0,041	0,086
-194,490	-200,000	-0,006	-0,113
-193,475	582,851	-0,022	-0,039
-192,460	144,513	-0,050	0,048
-191,446	-9,820	0,034	0,016
-190,431	800,000	-0,029	-0,072
-189,417	-200,000	-0,015	0,061
-188,402	-200,000	-0,003	0,145
-187,387	-200,000	-0,001	-0,063
-186,373	416,549	0,080	-0,123
-185,358	-72,605	0,098	-0,026
-184,344	-147,264	-0,060	-0,004
-183,329	800,000	0,069	0,147
-182,315	269,730	0,037	-0,047
-181,300	393,646	0,093	0,139
-180,285	-36,013	0,048	-0,018
-179,271	641,442	0,051	0,093
-178,256	-4,564	-0,159	0,079
-177,242	22,151	-0,055	0,032
-176,227	600,473	0,094	0,169
-175,212	670,669	0,071	-0,132
-174,198	-139,281	0,077	0,006
-173,183	68,270	-0,131	-0,097
-172,169	-200,000	-0,012	0,090
-171,154	-200,000	0,020	-0,095
-170,139	-92,084	-0,068	0,014
-169,125	-12,040	0,111	0,052
-168,110	-141,549	-0,088	0,006
-167,096	623,789	-0,024	0,044
-166,081	69,248	-0,127	0,094
-165,066	147,091	-0,032	0,031
-164,052	-108,653	-0,085	-0,013
-163,037	-200,000	-0,025	0,172
-162,023	-200,000	0,019	-0,119
-161,008	19,562	-0,059	-0,034
-159,993	-8,168	0,052	0,025
-158,979	60,114	-0,047	-0,034
-157,964	-86,672	-0,031	-0,007
-156,950	45,162	-0,086	-0,057
-155,935	-200,000	-0,038	-0,187
-154,920	365,213	0,043	-0,063
-153,906	228,296	-0,113	0,133
-152,891	-68,150	0,068	-0,019
-151,877	800,000	-0,043	-0,129
-150,862	160,614	-0,088	-0,088
-149,847	800,000	-0,009	-0,023
-148,833	-103,493	0,070	0,012
-147,818	-130,517	-0,015	0,001
-146,804	800,000	0,018	-0,040
-145,789	800,000	-0,045	0,091
-144,775	-200,000	0,039	0,124
-143,760	-200,000	-0,005	0,109
-142,745	800,000	0,026	0,068
-141,731	800,000	0,017	0,054
-140,716	228,166	0,058	0,069
-139,702	266,087	0,039	-0,049
-138,687	81,950	0,061	-0,047
-137,672	91,813	0,069	0,056
-136,658	77,959	-0,076	-0,058
-135,643	247,607	-0,037	0,045
-134,629	800,000	-0,060	-0,156
-133,614	-200,000	0,014	0,135
-132,599	-200,000	-0,010	0,122
-131,585	-200,000	0,006	0,026
-130,570	26,217	-0,140	-0,084
-129,556	210,113	0,055	-0,062
-128,541	719,243	0,035	-0,068
-127,526	-30,553	-0,107	-0,043
-126,512	106,643	0,072	0,061
-125,497	-121,545	0,122	-0,014
-124,483	-200,000	0,013	0,113
-123,468	-124,074	0,060	0,007
-122,453	64,941	-0,068	0,049
-121,439	-20,930	0,013	-0,006
-120,424	800,000	-0,006	-0,013
-119,410	-117,996	0,019	-0,002
-118,395	-200,000	-0,016	-0,093
-117,380	-200,000	-0,023	0,077
-116,366	-63,752	0,021	0,006
-115,351	-200,000	-0,003	-0,173
-114,337	-200,000	-0,015	0,061
-113,322	-194,122	-0,197	0,001
-112,307	-139,238	-0,034	0,003
-111,293	-133,692	0,046	0,004
-110,278	106,673	0,049	-0,042
-109,264	800,000	0,017	-0,052
-108,249	-200,000	-0,042	-0,164
-107,234	190,008	-0,032	-0,035
-106,220	363,204	-0,030	-0,043
-105,205	-8,111	-0,047	-0,023
-104,191	-200,000	0,020	0,104
-103,176	146,883	-0,018	0,017
-102,162	233,852	-0,062	0,074
-101,147	530,425	-0,052	0,089
-100,132	74,403	-0,149	-0,113
-99,118	-200,000	0,026	0,106
-98,103	-105,142	-0,032	0,005
-97,089	597,774	-0,049	-0,087
-96,074	-166,742	0,144	0,004
-95,059	328,737	-0,019	0,026
-94,045	-200,000	-0,019	0,074
-93,030	800,000	0,025	-0,049
-92,016	800,000	0,066	0,173
-91,001	78,266	0,063	0,049
-89,986	-45,342	0,059	0,021
-88,972	-200,000	-0,016	0,114
-87,957	729,027	0,027	-0,052
-86,943	-200,000	0,000	0,047
-85,928	800,000	-0,028	-0,084
-84,913	101,157	-0,039	-0,032
-83,899	1,823	-0,059	-0,030
-82,884	99,642	-0,071	-0,059
-81,870	-78,142	0,075	0,018
-80,855	577,297	-0,030	0,052
-79,840	-22,884	-0,124	-0,053
-78,826	-88,105	0,067	0,014
-77,811	-34,063	-0,148	-0,058
-76,797	96,276	-0,086	0,071
-75,782	-36,248	-0,031	0,012
-74,767	262,766	-0,067	0,084
-73,753	-66,741	-0,090	-0,025
-72,738	-200,000	-0,004	0,038
-71,724	38,105	0,041	-0,026
-70,709	198,391	-0,074	-0,081
-69,694	-200,000	0,004	-0,041
-68,680	564,471	0,080	-0,140
-67,665	-123,116	0,139	0,016
-66,651	800,000	0,025	-0,076
-65,636	189,032	0,060	0,064
-64,622	-200,000	0,008	-0,048
-63,607	158,169	-0,086	-0,086
-62,592	-65,297	-0,134	-0,038
-61,578	86,009	0,055	-0,043
-60,563	569,799	0,039	-0,068
-59,549	-200,000	0,017	0,120
-58,534	46,132	-2,178	-1,442
-57,519	-200,000	-0,007	-0,687
-56,505	-200,000	-1,357	-5,205
-55,490	134,708	0,931	0,865
-54,476	800,000	5,363	12,174
-53,461	-200,000	19,068	320,012
-52,446	800,000	741,686	2324,291
-51,432	549,274	1654,424	2849,458
-50,417	109,747	1637,147	1404,731
-49,403	73,328	1287,812	963,443
-48,388	29,455	1029,391	624,909
-47,373	19,621	992,268	569,880
-46,359	16,889	980,190	553,955
-45,344	13,502	976,388	540,677
-44,330	13,842	974,601	540,778
-43,315	13,177	972,921	537,649
-42,300	13,148	971,739	536,881
-41,286	13,144	970,781	536,317
-40,271	13,093	970,098	535,751
-39,257	13,174	969,110	535,449
-38,242	13,122	968,257	534,785
-37,227	13,148	967,378	534,364
-36,213	13,109	966,398	533,673
-35,198	13,068	965,547	533,050
-34,184	13,134	964,871	532,870
-33,169	13,104	963,953	532,243
-32,154	13,218	962,757	531,934
-31,140	13,103	962,188	531,226
-30,125	13,163	961,178	530,840
-29,111	13,117	960,434	530,258
-28,096	13,115	959,950	529,966
-27,082	13,176	958,903	529,563
-26,067	13,091	958,418	529,000
-25,052	13,109	957,649	528,611
-24,038	13,154	956,954	528,353
-23,023	13,126	956,347	527,907
-22,009	13,129	955,761	527,572
-20,994	13,199	955,199	527,465
-19,979	13,212	954,342	527,013
-18,965	13,089	953,914	526,362
-17,950	13,103	953,461	526,136
-16,936	13,098	952,589	525,617
-15,921	13,074	952,064	525,228
-14,906	13,031	951,162	524,573
-13,892	13,018	950,532	524,163
-12,877	13,030	950,007	523,890
-11,863	12,966	949,306	523,279
-10,848	12,964	948,874	523,013
-9,833	13,090	948,323	523,094
-8,819	13,050	947,715	522,609
-7,804	13,087	946,769	522,183
-6,790	12,969	946,431	521,602
-5,775	12,996	945,897	521,372
-4,760	13,064	945,197	521,181
-3,746	13,052	944,565	520,774
-2,731	12,884	943,882	519,844
-1,717	12,892	942,960	519,340
-0,702	12,871	942,572	519,042
0,313	12,699	941,891	518,903
1,327	16,183	939,819	528,720
2,342	25,431	790,525	469,100
3,356	21,576	445,328	258,520
4,371	-7,672	298,780	143,909
5,386	-11,343	280,626	131,635
6,400	-12,600	275,020	127,814
7,415	-12,508	272,590	126,758
8,429	-12,571	271,093	125,993
9,444	-12,935	270,179	125,220
10,459	-12,934	269,487	124,889
11,473	-13,018	268,726	124,449
12,488	-12,994	268,222	124,226
13,502	-13,301	267,726	123,705
14,517	-13,253	267,290	123,536
15,531	-13,227	266,748	123,298
16,546	-13,214	266,598	123,230
17,561	-13,342	266,002	122,826
18,575	-13,063	265,797	122,975
19,590	-13,429	265,437	122,465
20,604	-13,288	265,181	122,464
21,619	-13,273	264,863	122,320
22,634	-13,435	264,472	121,982
23,648	-13,339	264,124	121,897
24,663	-13,489	263,860	121,630
25,677	-13,342	263,544	121,605
26,692	-13,451	263,399	121,430
27,707	-13,430	263,175	121,335
28,721	-13,383	262,722	121,157
29,736	-13,462	262,606	121,022
30,750	-13,305	262,118	120,926
31,765	-13,409	262,017	120,776
32,780	-13,325	261,715	120,701
33,794	-13,384	261,408	120,496
34,809	-13,296	261,105	120,424
35,823	-13,558	261,162	120,206
36,838	-13,425	260,719	120,110
37,853	-13,429	260,510	119,999
38,867	-13,488	260,148	119,770
39,882	-13,415	259,893	119,706
40,896	-13,552	259,718	119,493
41,911	-13,369	259,503	119,546
42,926	-13,459	259,432	119,423
43,940	-13,641	258,998	119,052
44,955	-13,482	258,740	119,063
45,969	-13,731	258,522	118,733
46,984	-13,852	258,373	118,548
47,999	-13,922	257,898	118,257
49,013	-14,081	257,613	117,977
50,028	-14,423	257,684	117,699
51,042	-14,395	257,303	117,538
52,057	-14,346	257,015	117,439
53,071	-14,220	256,820	117,449
54,086	-14,410	256,587	117,167
55,101	-14,192	256,602	117,354
56,115	-13,819	256,318	117,539
57,130	-13,231	256,202	117,987
58,144	-12,996	256,138	118,152
59,159	-12,904	255,770	118,052
60,174	-13,114	255,665	117,811
61,188	-13,182	255,505	117,667
62,203	-13,304	255,098	117,364
63,217	-13,237	254,996	117,364
64,232	-13,287	254,676	117,163
65,247	-13,256	254,560	117,126
66,261	-13,325	254,333	116,952
67,276	-13,535	254,039	116,624
68,290	-13,802	253,609	116,187
69,305	-13,968	253,429	115,951
70,320	-13,781	253,253	116,021
71,334	-13,649	253,116	116,061
72,349	-13,104	252,901	116,421
73,363	-13,105	252,898	116,408
74,378	-13,113	252,631	116,267
75,393	-13,289	252,271	115,942
76,407	-13,271	252,005	115,824
77,422	-13,546	251,930	115,544
78,436	-13,353	251,714	115,599
79,451	-13,273	251,497	115,558
80,466	-13,454	251,263	115,285
81,480	-13,519	250,980	115,090
82,495	-13,654	250,832	114,897
83,509	-13,526	250,640	114,908
84,524	-13,750	250,410	114,601
85,539	-13,871	250,062	114,330
86,553	-13,767	249,861	114,316
87,568	-13,749	249,791	114,289
88,582	-13,858	249,491	114,049
89,597	-13,631	249,414	114,196
90,611	-13,638	249,231	114,096
91,626	-13,386	249,189	114,280
92,641	-13,266	248,892	114,234
93,655	-13,427	248,636	113,971
94,670	-13,588	248,333	113,686
95,684	-13,536	248,357	113,731
96,699	-13,458	248,163	113,697
97,714	-13,650	247,906	113,408
98,728	-13,715	247,672	113,236
99,743	-13,942	247,466	112,942
100,757	-13,805	247,147	112,901
101,772	-13,654	247,041	112,968
102,787	-13,816	246,823	112,723
103,801	-13,654	246,729	112,806
104,816	-13,498	246,561	112,849
105,830	-13,376	246,540	112,932
106,845	-13,308	246,220	112,831
107,860	-13,418	246,098	112,674
108,874	-13,493	245,876	112,500
109,889	-13,724	245,650	112,194
110,903	-13,688	245,410	112,104
111,918	-13,673	245,312	112,063
112,933	-13,683	244,971	111,888
113,947	-13,421	244,844	112,037
114,962	-13,534	244,834	111,929
115,976	-13,401	244,580	111,913
116,991	-13,298	244,229	111,828
118,006	-13,354	244,289	111,799
119,020	-13,536	244,104	111,553
120,035	-13,354	243,957	111,627
121,049	-13,277	243,681	111,554
122,064	-13,262	243,489	111,469
123,079	-13,416	243,259	111,227
124,093	-13,458	243,078	111,100
125,108	-13,534	242,900	110,945
126,122	-13,973	242,675	110,473
127,137	-13,967	242,357	110,324
128,151	-13,865	242,250	110,348
129,166	-13,921	242,169	110,256
130,181	-13,728	241,803	110,237
131,195	-13,732	241,769	110,209
132,210	-13,798	241,651	110,090
133,224	-13,378	241,469	110,341
134,239	-13,496	241,186	110,106
135,254	-13,228	240,935	110,200
136,268	-13,682	240,870	109,790
137,283	-13,727	240,560	109,603
138,297	-13,613	240,276	109,556
139,312	-14,070	240,159	109,122
140,327	-13,641	240,231	109,493
141,341	-13,223	240,164	109,792
142,356	-13,020	240,013	109,878
143,370	-12,998	239,865	109,818
144,385	-12,989	239,653	109,718
145,400	-13,120	239,496	109,531
146,414	-13,102	239,277	109,436
147,429	-12,767	238,926	109,535
148,443	-13,265	239,000	109,158
149,458	-13,195	238,733	109,083
150,473	-13,218	238,572	108,981
151,487	-13,051	238,260	108,962
152,502	-13,162	238,218	108,845
153,516	-13,051	238,078	108,860
154,531	-13,045	237,854	108,753
155,546	-13,154	237,591	108,535
156,560	-13,066	237,484	108,547
157,575	-13,400	237,366	108,217
158,589	-13,351	237,159	108,152
159,604	-13,056	236,967	108,290
160,619	-12,958	236,774	108,271
161,633	-13,036	236,736	108,181
162,648	-13,040	236,538	108,078
163,662	-13,061	236,186	107,891
164,677	-13,224	236,223	107,768
165,692	-13,116	236,099	107,787
166,706	-13,030	235,993	107,798
167,721	-12,779	235,735	107,870
168,735	-12,872	235,632	107,740
169,750	-12,879	235,449	107,641
170,764	-13,239	235,286	107,271
171,779	-12,850	235,125	107,496
172,794	-12,881	234,889	107,354
173,808	-13,322	234,756	106,936
174,823	-13,733	234,409	106,443
175,837	-13,753	234,121	106,287
176,852	-13,280	234,251	106,710
177,867	-13,023	234,015	106,796
178,881	-12,882	233,914	106,850
179,896	-12,899	233,802	106,777
180,910	-12,751	233,756	106,863
181,925	-12,867	233,560	106,673
182,940	-12,785	233,287	106,602
183,954	-12,773	233,126	106,529
184,969	-12,921	233,126	106,403
185,983	-12,950	233,089	106,354
186,998	-12,879	232,670	106,209
188,013	-12,813	232,677	106,254
189,027	-12,952	232,383	106,002
190,042	-12,845	232,312	106,044
191,056	-12,679	232,060	106,049
192,071	-12,938	232,011	105,815
193,086	-12,868	231,861	105,792
194,100	-12,696	231,599	105,796
195,115	-12,935	231,282	105,457
196,129	-12,450	231,523	105,935
197,144	-6,668	233,357	111,294
198,159	-0,645	235,260	116,933
199,173	2,576	235,963	119,809
200,188	2,847	236,003	120,032
201,202	3,063	235,837	120,107
202,217	3,158	235,762	120,132
203,232	3,420	235,760	120,326
204,246	3,523	235,518	120,272
205,261	3,459	235,568	120,237
206,275	3,716	235,386	120,335
207,290	3,564	235,284	120,153
208,304	3,395	235,146	119,940
209,319	3,454	234,929	119,864
210,334	3,307	234,687	119,615
211,348	3,208	234,522	119,444
212,363	2,829	234,297	119,023
213,377	2,683	234,001	118,748
214,392	2,880	233,719	118,747
215,407	2,910	233,664	118,732
216,421	2,728	233,694	118,595
217,436	2,915	233,315	118,537
218,450	2,714	233,060	118,241
219,465	2,532	232,990	118,054
220,480	2,633	232,815	118,034
221,494	2,614	232,616	117,907
222,509	2,910	232,665	118,151
223,523	2,867	232,623	118,086
224,538	2,723	232,289	117,794
225,553	2,776	232,089	117,723
226,567	2,974	231,960	117,800
227,582	3,009	231,923	117,798
228,596	3,172	231,751	117,825
229,611	2,730	231,552	117,373
230,626	2,286	231,391	116,940
231,640	2,595	231,261	117,102
232,655	2,995	231,104	117,319
233,669	3,154	231,119	117,437
234,684	3,337	230,961	117,487
235,699	3,178	230,625	117,184
236,713	2,939	230,547	116,951
237,728	2,659	230,292	116,597
238,742	2,806	230,158	116,632
239,757	2,855	229,923	116,539
240,772	2,945	229,692	116,481
241,786	2,639	229,749	116,266
242,801	2,734	229,681	116,293
243,815	3,334	229,634	116,716
244,830	3,393	229,303	116,582
245,844	2,999	229,048	116,143
246,859	2,942	228,946	116,038
247,874	3,008	228,897	116,052
248,888	3,095	228,653	115,985
249,903	2,961	228,589	115,840
250,917	2,773	228,470	115,626
251,932	2,961	228,219	115,632
252,947	2,582	228,196	115,323
253,961	2,716	227,922	115,276
254,976	2,608	227,983	115,214
255,990	2,829	227,779	115,268
257,005	3,046	227,592	115,327
258,020	3,148	227,458	115,326
259,034	3,165	227,264	115,230
260,049	3,072	227,168	115,101
261,063	2,888	227,049	114,892
262,078	3,110	226,945	114,996
263,093	3,148	226,784	114,933
264,107	3,168	226,612	114,850
265,122	3,140	226,454	114,739
266,136	3,400	226,376	114,884
267,151	3,137	226,214	114,595
268,166	2,917	225,862	114,241
269,180	2,755	225,681	114,019
270,195	2,810	225,505	113,961
271,209	2,813	225,352	113,876
272,224	2,758	225,398	113,848
273,239	2,945	225,187	113,870
274,253	2,655	224,989	113,544
275,268	2,705	224,938	113,545
276,282	2,467	224,641	113,208
277,297	2,677	224,555	113,311
278,312	2,560	224,481	113,176
279,326	2,852	224,361	113,323
280,341	2,885	224,236	113,274
281,355	2,772	224,155	113,139
282,370	2,746	223,812	112,937
283,384	2,657	223,717	112,812
284,399	2,439	223,555	112,559
285,414	2,517	223,458	112,559
286,428	2,849	223,218	112,673
287,443	3,016	223,163	112,759
288,457	2,871	223,095	112,607
289,472	2,629	222,899	112,320
290,487	2,220	222,621	111,868
291,501	2,397	222,353	111,854
292,516	2,469	222,321	111,880
293,530	2,399	222,221	111,769
294,545	2,441	222,151	111,754
295,560	2,827	222,001	111,953
296,574	2,718	221,916	111,819
297,589	2,760	221,685	111,724
298,603	2,958	221,483	111,757
299,618	2,968	221,308	111,666
300,633	2,930	221,350	111,649
301,647	3,061	221,200	111,659
302,662	2,984	221,221	111,604
303,676	3,099	220,936	111,534
304,691	3,020	220,895	111,446
305,706	3,030	220,712	111,351
306,720	2,956	220,509	111,185
307,735	2,840	220,271	110,970
308,749	2,561	220,152	110,698
309,764	2,805	220,131	110,855
310,779	3,016	219,971	110,917
311,793	2,839	219,849	110,717
312,808	3,065	219,641	110,766
313,822	3,116	219,483	110,714
314,837	2,871	219,377	110,473
315,852	2,784	219,305	110,365
316,866	2,789	219,164	110,287
317,881	3,121	218,954	110,412
318,895	3,047	218,834	110,288
319,910	2,751	218,679	109,986
320,925	2,505	218,368	109,643
321,939	2,507	218,284	109,593
322,954	2,195	218,266	109,350
323,968	3,035	218,122	109,872
324,983	3,135	217,873	109,808
325,997	3,092	217,766	109,713
327,012	3,048	217,652	109,614
328,027	2,845	217,739	109,503
329,041	3,220	217,478	109,630
330,056	3,254	217,472	109,642
331,070	3,013	217,079	109,262
332,085	2,581	217,017	108,912
333,100	2,684	216,666	108,800
334,114	2,627	216,626	108,729
335,129	3,030	216,580	108,984
336,143	2,851	216,413	108,763
337,158	3,147	216,260	108,887
338,173	2,843	216,180	108,620
339,187	2,701	216,072	108,456
340,202	2,578	215,938	108,291
341,216	2,842	215,632	108,316
342,231	2,780	215,609	108,250
343,246	2,956	215,324	108,222
344,260	2,683	215,441	108,078
345,275	2,852	215,171	108,052
346,289	2,813	215,114	107,987
347,304	2,906	214,858	107,915
348,319	2,986	214,698	107,881
349,333	2,870	214,680	107,780
350,348	2,876	214,627	107,748
351,362	3,104	214,497	107,834
352,377	3,185	214,310	107,787
353,392	3,177	214,033	107,633
354,406	3,092	214,015	107,554
355,421	198,120	1314,449	1395,302
356,435	158,569	1448,460	1395,239
