DTS Sentinel unit serial number:	SN410029Multiplexer serial number:	ORYXHardware model number:	OX2-SRSoftware version number:	ORYX F/W v4,00 Oryx Data Collector v3.7.2.0data status	okinstallation	B6 Nyhavnadifferential loss correction	single-endedforward channel	channel 2reverse channel	N/Adate	2023/12/10time	23:50:08forward acquisition time	300,00reverse acquisition time	0,00gamma	499,1914k internal	0,3122k external	0,3122temperature offset calibration	1,0000default loss term (dB/km)	0,3820temperature slope calibration	1,0000multiplexer offset coefficient	1,0000multiplexer slope coefficient	1,0000fibre end	0,00T internal ref (°C)	22,37T ext. ref 1 (°C)	6,06T ext. ref 2 (°C)	6,08length (m)	temperature (°C)	Stokes	anti-Stokes-744,400	-200,000	0,009	0,042
-743,385	-173,214	-0,234	-0,005
-742,371	455,057	0,064	0,105
-741,356	23,149	-0,242	0,148
-740,342	-174,082	0,103	-0,002
-739,327	567,752	-0,168	0,306
-738,312	-200,000	-0,025	0,122
-737,298	162,722	-0,208	0,217
-736,283	96,190	0,066	-0,056
-735,269	246,737	-0,083	0,105
-734,254	175,731	0,035	0,038
-733,239	-96,477	-0,474	-0,092
-732,225	3,622	0,160	-0,087
-731,210	-29,819	-0,219	0,093
-730,196	-200,000	0,008	0,040
-729,181	98,343	0,002	0,001
-728,167	-200,000	-0,006	0,085
-727,152	134,692	-0,004	0,004
-726,137	0,591	-0,078	-0,041
-725,123	-152,179	-0,171	-0,009
-724,108	228,836	-0,030	-0,037
-723,094	45,894	-0,025	-0,017
-722,079	800,000	-0,041	-0,128
-721,064	-103,287	0,066	0,012
-720,050	800,000	0,025	-0,072
-719,035	-200,000	0,012	-0,040
-718,021	-200,000	0,025	-0,087
-717,006	769,286	-0,076	-0,154
-715,991	-200,000	-0,019	-0,259
-714,977	-136,433	-0,065	0,006
-713,962	105,114	0,075	-0,066
-712,948	-200,000	-0,009	0,121
-711,933	800,000	-0,031	-0,095
-710,918	99,530	-0,068	0,059
-709,904	-200,000	0,004	-0,046
-708,889	312,635	0,063	0,088
-707,875	303,348	0,032	-0,045
-706,860	256,931	-0,039	-0,050
-705,845	-200,000	0,013	0,074
-704,831	800,000	-0,039	0,110
-703,816	33,565	0,079	-0,051
-702,802	-200,000	0,019	-0,093
-701,787	-200,000	-0,016	-0,189
-700,772	8,848	-0,158	-0,088
-699,758	232,890	0,062	-0,076
-698,743	-116,346	-0,123	-0,017
-697,729	-200,000	-0,027	-0,119
-696,714	-107,968	0,053	-0,008
-695,699	-200,000	0,022	0,078
-694,685	-123,021	-0,040	0,005
-693,670	-183,103	0,089	0,001
-692,656	-200,000	-0,002	0,028
-691,641	-102,571	-0,098	-0,017
-690,627	-200,000	-0,006	0,060
-689,612	-200,000	0,014	0,052
-688,597	-200,000	0,001	-0,063
-687,583	-36,336	0,029	0,012
-686,568	-200,000	0,006	-0,084
-685,554	-200,000	0,002	-0,043
-684,539	275,941	0,052	-0,068
-683,524	-200,000	0,002	0,016
-682,510	-129,263	-0,169	-0,017
-681,495	-200,000	0,015	0,065
-680,481	800,000	0,014	-0,045
-679,466	328,855	0,094	-0,134
-678,451	66,255	-0,186	-0,140
-677,437	434,468	-0,052	-0,085
-676,422	-45,220	0,085	0,031
-675,408	-111,128	-0,217	0,033
-674,393	304,625	-0,057	-0,079
-673,378	445,006	0,043	-0,070
-672,364	-200,000	0,021	-0,093
-671,349	-73,659	-0,009	0,003
-670,335	-55,515	0,099	0,033
-669,320	-200,000	0,020	0,076
-668,305	52,874	0,137	0,097
-667,291	800,000	-0,029	-0,093
-666,276	-119,096	-0,085	-0,011
-665,262	800,000	0,015	-0,039
-664,247	800,000	0,017	0,041
-663,232	-200,000	0,001	-0,021
-662,218	113,647	-0,032	-0,029
-661,203	283,995	0,064	0,085
-660,189	-200,000	0,021	0,197
-659,174	-200,000	0,010	0,067
-658,159	800,000	0,038	-0,109
-657,145	800,000	-0,024	-0,067
-656,130	55,686	0,029	-0,021
-655,116	-200,000	-0,002	-0,041
-654,101	181,574	-0,056	-0,062
-653,086	-73,498	0,116	-0,031
-652,072	442,800	0,022	-0,036
-651,057	-200,000	0,008	-0,158
-650,043	-200,000	0,012	-0,094
-649,028	-21,560	0,078	0,035
-648,014	-200,000	0,107	0,000
-646,999	800,000	0,035	-0,098
-645,984	-55,182	-0,035	-0,011
-644,970	379,804	-0,019	0,030
-643,955	214,937	0,045	-0,053
-642,941	464,911	-0,119	-0,199
-641,926	115,199	-0,111	-0,101
-640,911	164,721	0,003	0,003
-639,897	41,575	0,056	0,038
-638,882	-119,756	0,049	0,006
-637,868	-200,000	-0,018	0,156
-636,853	-200,000	-0,017	-0,088
-635,838	-200,000	0,010	-0,066
-634,824	-79,643	-0,025	0,006
-633,809	-107,548	0,080	0,013
-632,795	258,836	0,049	-0,063
-631,780	796,775	0,033	-0,069
-630,765	800,000	-0,050	0,121
-629,751	-129,863	-0,043	0,004
-628,736	-97,956	0,099	-0,019
-627,722	-124,254	0,119	0,014
-626,707	66,914	-0,095	-0,071
-625,692	800,000	-0,021	0,047
-624,678	112,453	-0,113	-0,101
-623,663	800,000	-0,052	-0,109
-622,649	-200,000	-0,030	-0,116
-621,634	-200,000	0,004	-0,096
-620,619	-200,000	0,013	-0,072
-619,605	388,999	-0,058	0,089
-618,590	-25,086	0,041	0,018
-617,576	209,028	-0,116	-0,135
-616,561	-200,000	-0,002	0,151
-615,546	-196,365	-0,148	0,001
-614,532	-70,325	-0,098	0,027
-613,517	-200,000	-0,005	-0,046
-612,503	-103,047	-0,147	0,026
-611,488	-114,712	0,150	-0,021
-610,474	280,118	-0,074	0,098
-609,459	-200,000	-0,005	0,074
-608,444	82,273	-0,068	0,055
-607,430	-88,649	0,045	-0,010
-606,415	201,759	0,054	-0,062
-605,401	800,000	0,061	-0,160
-604,386	203,229	0,045	0,052
-603,371	48,330	-0,127	0,088
-602,357	-200,000	-0,028	0,112
-601,342	223,075	-0,051	0,061
-600,328	-37,695	-0,130	0,051
-599,313	2,067	0,034	0,018
-598,298	186,305	0,092	-0,102
-597,284	-28,371	-0,030	-0,013
-596,269	-22,012	0,050	-0,022
-595,255	800,000	-0,009	0,019
-594,240	160,335	-0,040	0,041
-593,225	206,807	-0,096	0,111
-592,211	178,845	-0,109	-0,118
-591,196	-77,725	0,079	-0,020
-590,182	-164,469	0,115	-0,004
-589,167	270,523	-0,033	0,044
-588,152	-70,018	-0,066	0,019
-587,138	-93,339	0,150	-0,031
-586,123	800,000	-0,105	-0,233
-585,109	-105,761	0,117	-0,019
-584,094	181,047	0,053	0,058
-583,079	800,000	-0,043	-0,106
-582,065	35,224	-0,086	0,056
-581,050	41,219	-0,137	0,092
-580,036	-83,771	-0,085	-0,020
-579,021	65,414	-0,068	-0,051
-578,006	800,000	0,037	-0,096
-576,992	-200,000	0,027	0,097
-575,977	73,853	-0,032	-0,025
-574,963	264,605	0,007	0,009
-573,948	-200,000	0,002	-0,056
-572,934	-19,381	-0,146	-0,067
-571,919	-200,000	-0,002	-0,118
-570,904	5,640	-0,082	0,045
-569,890	-180,802	-0,152	0,002
-568,875	42,090	0,113	0,076
-567,861	297,912	0,055	0,075
-566,846	773,174	-0,029	0,058
-565,831	394,742	0,057	-0,088
-564,817	800,000	0,015	0,030
-563,802	81,673	-0,077	-0,062
-562,788	114,216	0,112	-0,101
-561,773	513,668	-0,025	0,044
-560,758	68,826	0,118	0,089
-559,744	461,607	0,045	0,074
-558,729	-58,302	0,058	-0,018
-557,715	-33,585	0,030	-0,012
-556,700	800,000	-0,025	-0,059
-555,685	-78,973	-0,164	-0,041
-554,671	81,876	-0,014	0,011
-553,656	158,937	-0,109	-0,112
-552,642	-95,320	0,150	-0,030
-551,627	-25,087	0,101	0,044
-550,612	661,467	-0,055	0,106
-549,598	62,337	0,040	0,030
-548,583	-161,639	0,039	-0,001
-547,569	-91,129	-0,187	0,039
-546,554	-157,555	0,122	-0,005
-545,539	184,116	-0,059	-0,064
-544,525	23,045	-0,032	-0,019
-543,510	205,241	0,050	-0,058
-542,496	-111,389	-0,133	-0,020
-541,481	417,012	0,023	-0,037
-540,466	89,716	0,102	-0,084
-539,452	-48,120	0,129	0,046
-538,437	240,060	0,075	-0,092
-537,423	-200,000	0,003	-0,018
-536,408	-200,000	0,003	0,080
-535,393	-200,000	0,002	-0,017
-534,379	18,720	-0,142	-0,084
-533,364	423,238	0,052	0,083
-532,350	550,995	0,013	0,024
-531,335	-200,000	0,012	-0,048
-530,321	-200,000	-0,008	-0,037
-529,306	18,881	-0,112	0,066
-528,291	-200,000	-0,001	-0,019
-527,277	14,230	0,052	-0,030
-526,262	-27,458	0,165	-0,071
-525,248	181,348	0,064	0,070
-524,233	154,739	-0,031	0,031
-523,218	745,621	-0,034	0,068
-522,204	-103,855	-0,063	0,011
-521,189	-200,000	-0,026	-0,108
-520,175	-136,542	-0,104	-0,009
-519,160	299,226	-0,069	-0,094
-518,145	800,000	0,043	0,092
-517,131	-24,775	-0,042	0,018
-516,116	-200,000	0,007	0,112
-515,102	-37,827	-0,085	0,033
-514,087	-1,695	-0,065	-0,034
-513,072	-134,691	-0,038	-0,003
-512,058	-81,297	-0,063	0,015
-511,043	-5,216	0,035	0,018
-510,029	-29,408	0,024	-0,010
-509,014	800,000	0,021	-0,049
-507,999	800,000	-0,045	-0,124
-506,985	-49,511	-0,095	0,033
-505,970	5,842	0,070	-0,038
-504,956	-82,690	-0,049	0,012
-503,941	-65,412	-0,032	0,009
-502,926	2,726	-0,045	0,024
-501,912	-200,000	0,000	-0,015
-500,897	-26,384	-0,037	0,016
-499,883	82,692	0,052	0,042
-498,868	800,000	-0,042	0,125
-497,853	800,000	-0,029	0,064
-496,839	43,045	0,071	0,048
-495,824	-200,000	0,013	-0,047
-494,810	-35,316	0,107	-0,043
-493,795	289,601	0,060	-0,080
-492,781	-97,068	-0,141	-0,027
-491,766	-200,000	-0,018	-0,154
-490,751	115,611	-0,095	-0,086
-489,737	-70,853	0,099	0,027
-488,722	-75,375	0,097	0,025
-487,708	-152,864	0,036	-0,002
-486,693	800,000	-0,049	0,142
-485,678	-200,000	0,028	0,096
-484,664	316,848	-0,042	0,058
-483,649	-185,078	-0,031	-0,000
-482,635	50,906	-0,113	-0,079
-481,620	157,208	0,083	0,085
-480,605	-200,000	0,012	0,138
-479,591	-200,000	0,020	0,065
-478,576	270,704	0,031	-0,040
-477,562	-200,000	-0,005	-0,087
-476,547	-101,995	-0,137	-0,024
-475,532	-140,840	0,088	0,007
-474,518	60,256	0,126	0,092
-473,503	-200,000	-0,019	0,091
-472,489	-45,855	-0,065	0,023
-471,474	-200,000	0,056	-0,242
-470,459	-25,604	-0,147	-0,064
-469,445	-38,226	-0,040	0,016
-468,430	-200,000	0,003	0,117
-467,416	-15,194	-0,036	0,017
-466,401	183,606	0,062	0,067
-465,386	131,372	0,113	0,107
-464,372	95,256	-0,051	-0,043
-463,357	78,249	0,037	-0,029
-462,343	-81,522	0,135	0,032
-461,328	158,991	0,083	0,085
-460,313	222,787	-0,087	-0,104
-459,299	-200,000	-0,017	-0,062
-458,284	800,000	0,011	-0,024
-457,270	-159,990	-0,066	-0,003
-456,255	-200,000	-0,001	0,048
-455,241	-98,603	-0,095	-0,018
-454,226	800,000	0,011	-0,033
-453,211	74,239	0,010	-0,008
-452,197	-200,000	0,010	0,051
-451,182	-200,000	-0,001	0,066
-450,168	44,436	0,270	0,183
-449,153	585,712	0,066	-0,120
-448,138	-200,000	-0,018	-0,158
-447,124	44,326	-0,105	-0,071
-446,109	800,000	-0,023	-0,075
-445,095	-92,822	-0,125	0,025
-444,080	-8,239	0,134	0,066
-443,065	598,183	-0,098	0,180
-442,051	641,211	0,061	0,114
-441,036	-128,407	0,034	-0,003
-440,022	-111,688	-0,064	0,009
-439,007	448,044	0,040	0,065
-437,992	122,140	-0,021	-0,019
-436,978	-59,002	0,056	0,018
-435,963	-200,000	-0,002	0,048
-434,949	37,570	-0,115	-0,075
-433,934	-152,017	-0,050	-0,003
-432,919	-116,722	-0,068	0,009
-431,905	81,155	0,046	-0,036
-430,890	203,822	0,097	-0,111
-429,876	-189,344	0,056	-0,000
-428,861	369,076	0,090	0,134
-427,846	-200,000	-0,015	-0,051
-426,832	727,711	-0,055	-0,108
-425,817	-139,711	-0,037	-0,003
-424,803	90,282	-0,051	-0,042
-423,788	100,014	-0,050	-0,043
-422,773	-43,392	0,222	0,082
-421,759	800,000	-0,008	-0,019
-420,744	-152,418	0,068	0,004
-419,730	-87,359	-0,018	-0,004
-418,715	-108,329	-0,100	-0,016
-417,701	-200,000	0,017	-0,086
-416,686	-200,000	-0,025	0,093
-415,671	51,628	0,069	0,048
-414,657	-99,912	0,080	-0,014
-413,642	39,556	-0,057	0,038
-412,628	-183,336	-0,153	0,002
-411,613	800,000	0,032	-0,082
-410,598	800,000	-0,020	-0,051
-409,584	-116,753	0,110	-0,015
-408,569	-108,334	0,098	0,015
-407,555	93,096	0,149	0,124
-406,540	768,002	0,016	0,032
-405,525	-200,000	-0,004	0,054
-404,511	129,237	-0,096	-0,090
-403,496	325,025	0,027	-0,038
-402,482	15,336	0,064	-0,037
-401,467	-200,000	0,002	0,157
-400,452	241,132	-0,036	0,045
-399,438	21,776	-0,077	-0,046
-398,423	-7,459	0,036	0,018
-397,409	-104,063	-0,027	-0,005
-396,394	-200,000	-0,033	-0,145
-395,379	219,053	0,119	0,140
-394,365	-200,000	-0,002	0,072
-393,350	383,410	0,045	-0,068
-392,336	46,030	0,140	-0,095
-391,321	-200,000	-0,003	-0,036
-390,306	-17,785	0,107	-0,049
-389,292	355,418	0,032	0,047
-388,277	55,677	0,017	-0,012
-387,263	131,407	0,072	0,068
-386,248	800,000	-0,047	0,142
-385,233	538,137	0,048	-0,085
-384,219	7,351	0,048	-0,026
-383,204	-200,000	0,009	0,059
-382,190	-200,000	0,007	-0,105
-381,175	3,960	0,079	0,042
-380,160	-200,000	0,004	0,052
-379,146	-129,052	0,025	-0,003
-378,131	-88,129	0,080	0,017
-377,117	800,000	-0,049	0,145
-376,102	-200,000	0,012	-0,082
-375,088	-7,257	-0,148	0,073
-374,073	655,365	0,044	0,083
-373,058	800,000	0,019	0,039
-372,044	-101,809	0,052	0,009
-371,029	-200,000	0,009	-0,118
-370,015	-45,591	-0,081	-0,029
-369,000	-67,536	0,066	-0,019
-367,985	-121,837	-0,225	0,027
-366,971	-151,134	0,119	0,006
-365,956	374,275	-0,054	-0,080
-364,942	106,194	0,072	-0,063
-363,927	-6,120	-0,100	0,050
-362,912	-200,000	0,002	0,030
-361,898	-6,863	-0,056	-0,028
-360,883	322,660	-0,039	-0,055
-359,869	-112,123	0,110	0,016
-358,854	49,315	-0,108	-0,075
-357,839	-78,391	0,023	0,006
-356,825	136,042	0,072	0,069
-355,810	-39,508	-0,120	-0,046
-354,796	-200,000	0,030	-0,111
-353,781	-200,000	0,002	0,093
-352,766	-200,000	-0,016	-0,060
-351,752	165,661	0,140	-0,146
-350,737	800,000	-0,046	0,095
-349,723	-66,593	0,048	-0,014
-348,708	-29,754	0,081	0,034
-347,693	800,000	0,005	0,012
-346,679	-38,778	-0,047	-0,018
-345,664	39,404	0,053	-0,035
-344,650	-125,190	-0,049	0,005
-343,635	-35,531	0,021	0,008
-342,620	705,276	0,043	0,084
-341,606	593,649	-0,025	0,046
-340,591	-200,000	0,000	0,027
-339,577	45,664	0,056	0,038
-338,562	800,000	0,057	-0,130
-337,548	691,580	-0,056	0,107
-336,533	800,000	0,025	0,064
-335,518	-113,191	-0,149	0,021
-334,504	9,729	0,054	0,030
-333,489	-53,945	0,042	-0,014
-332,475	179,876	0,018	0,019
-331,460	-200,000	0,024	0,117
-330,445	-65,626	0,029	-0,008
-329,431	1,187	-0,083	-0,044
-328,416	43,557	-0,060	0,040
-327,402	235,115	0,085	0,103
-326,387	-122,611	0,071	-0,008
-325,372	305,376	-0,003	0,005
-324,358	-200,000	0,010	-0,094
-323,343	-172,793	-0,194	-0,004
-322,329	247,164	0,054	0,066
-321,314	171,499	0,084	0,088
-320,299	-200,000	0,023	0,127
-319,285	-94,327	-0,051	0,010
-318,270	42,439	0,048	-0,032
-317,256	-200,000	-0,044	0,184
-316,241	508,114	-0,049	-0,084
-315,226	118,663	-0,028	0,025
-314,212	512,069	0,045	0,078
-313,197	157,356	0,026	0,027
-312,183	20,293	-0,066	0,039
-311,168	767,751	-0,020	0,040
-310,153	-200,000	-0,006	-0,099
-309,139	-200,000	0,003	-0,066
-308,124	-200,000	-0,003	0,013
-307,110	68,514	0,089	0,067
-306,095	-63,505	-0,065	-0,019
-305,080	136,814	0,042	0,040
-304,066	141,397	-0,179	-0,173
-303,051	-200,000	-0,015	-0,242
-302,037	321,866	0,089	-0,125
-301,022	-123,013	-0,044	-0,005
-300,008	-200,000	-0,026	0,107
-298,993	800,000	-0,024	0,058
-297,978	-200,000	-0,006	0,040
-296,964	475,364	0,035	0,058
-295,949	478,780	-0,078	-0,130
-294,935	-34,298	-0,175	-0,070
-293,920	546,546	0,038	0,067
-292,905	-55,509	0,115	-0,038
-291,891	-200,000	0,015	0,082
-290,876	17,491	0,087	0,051
-289,862	-129,088	-0,107	0,011
-288,847	-98,503	-0,068	-0,013
-287,832	31,122	0,062	0,039
-286,818	-200,000	-0,006	0,049
-285,803	-121,121	0,062	-0,007
-284,789	125,925	-0,080	0,074
-283,774	-200,000	-0,008	-0,028
-282,759	-127,599	-0,091	0,010
-281,745	-151,530	-0,122	-0,007
-280,730	158,466	-0,065	-0,066
-279,716	-68,303	-0,073	0,021
-278,701	281,682	-0,074	0,097
-277,686	192,251	-0,021	0,023
-276,672	-81,848	-0,031	-0,007
-275,657	-200,000	0,027	-0,161
-274,643	-200,000	0,024	-0,204
-273,628	226,174	-0,048	-0,057
-272,613	-0,053	-0,092	-0,048
-271,599	251,691	0,025	0,031
-270,584	432,464	0,063	0,101
-269,570	800,000	0,023	0,070
-268,555	-200,000	-0,025	0,151
-267,540	112,564	0,082	0,073
-266,526	-4,802	0,010	-0,005
-265,511	5,585	-0,073	-0,039
-264,497	276,478	0,052	0,068
-263,482	-119,979	0,083	0,010
-262,467	-84,283	-0,178	0,041
-261,453	-17,417	-0,048	0,022
-260,438	-62,463	-0,081	-0,025
-259,424	-51,364	-0,111	-0,038
-258,409	-200,000	-0,020	-0,102
-257,395	36,676	-0,078	0,050
-256,380	-196,115	-0,060	0,000
-255,365	-136,948	0,108	-0,009
-254,351	-135,569	-0,052	-0,004
-253,336	-12,865	-0,070	-0,033
-252,322	800,000	0,017	0,036
-251,307	-200,000	0,010	0,062
-250,292	800,000	0,029	0,073
-249,278	-158,289	-0,076	0,003
-248,263	800,000	0,066	0,142
-247,249	152,517	-0,048	0,048
-246,234	-34,708	0,092	-0,037
-245,219	21,018	0,037	0,022
-244,205	531,658	0,070	-0,121
-243,190	-79,479	-0,082	0,020
-242,176	800,000	0,022	0,046
-241,161	-27,713	0,037	0,016
-240,146	-200,000	-0,002	-0,057
-239,132	-102,642	0,148	-0,026
-238,117	-50,750	-0,102	-0,035
-237,103	166,652	0,047	-0,049
-236,088	443,544	0,020	0,032
-235,073	800,000	-0,024	0,060
-234,059	446,699	-0,063	0,102
-233,044	-200,000	-0,016	-0,126
-232,030	184,706	-0,097	-0,105
-231,015	-200,000	-0,002	-0,107
-230,000	59,016	-0,042	0,030
-228,986	163,643	-0,033	0,034
-227,971	800,000	0,012	0,029
-226,957	340,083	0,063	-0,090
-225,942	800,000	0,021	0,044
-224,927	78,724	0,037	0,029
-223,913	356,130	0,010	-0,014
-222,898	-200,000	0,012	0,080
-221,884	-200,000	-0,035	-0,183
-220,869	415,200	-0,031	-0,048
-219,855	36,505	0,125	0,081
-218,840	800,000	0,057	-0,173
-217,825	-146,488	0,118	0,007
-216,811	184,219	-0,027	-0,029
-215,796	-86,456	0,072	0,016
-214,782	-200,000	0,029	-0,094
-213,767	7,301	-0,062	-0,034
-212,752	-200,000	0,019	-0,113
-211,738	129,923	0,080	0,074
-210,723	136,551	-0,024	0,023
-209,709	-12,519	0,059	-0,028
-208,694	166,885	0,039	-0,040
-207,679	-14,394	-0,073	0,034
-206,665	-200,000	0,004	0,084
-205,650	242,920	0,054	-0,066
-204,636	77,900	0,056	0,043
-203,621	228,174	0,089	0,106
-202,606	107,636	0,058	0,050
-201,592	-200,000	-0,037	-0,129
-200,577	-30,322	0,051	0,021
-199,563	155,297	-0,047	-0,047
-198,548	-152,288	0,049	-0,003
-197,533	-200,000	-0,005	0,017
-196,519	82,393	0,062	0,049
-195,504	-8,327	0,134	0,065
-194,490	211,526	-0,041	0,048
-193,475	800,000	0,015	-0,041
-192,460	-200,000	-0,016	-0,217
-191,446	-88,438	0,128	0,028
-190,431	42,321	0,074	0,049
-189,417	30,907	-0,144	0,090
-188,402	48,250	0,069	0,047
-187,387	71,202	-0,104	0,079
-186,373	-100,085	0,091	0,016
-185,358	349,933	-0,040	-0,058
-184,344	800,000	0,029	0,065
-183,329	105,791	-0,066	0,057
-182,315	566,324	-0,100	0,177
-181,300	-200,000	0,005	-0,067
-180,285	-200,000	0,021	-0,110
-179,271	140,337	-0,031	-0,030
-178,256	-36,529	-0,104	0,041
-177,242	-200,000	0,028	-0,095
-176,227	-92,427	0,030	-0,006
-175,212	49,459	0,103	0,071
-174,198	-200,000	0,039	0,152
-173,183	589,357	0,049	-0,089
-172,169	184,730	-0,055	-0,059
-171,154	-106,722	-0,041	-0,007
-170,139	127,488	0,064	-0,059
-169,125	-9,407	0,164	-0,079
-168,110	-200,000	0,014	0,109
-167,096	35,960	-0,010	-0,006
-166,081	93,555	-0,075	0,062
-165,066	131,734	-0,085	-0,080
-164,052	-83,465	0,164	-0,038
-163,037	-200,000	-0,013	-0,047
-162,023	180,676	0,154	0,165
-161,008	-24,317	-0,079	0,034
-159,993	-141,010	0,065	0,005
-158,979	-70,675	0,013	-0,003
-157,964	800,000	0,019	-0,057
-156,950	345,865	-0,085	-0,122
-155,935	-200,000	-0,012	-0,041
-154,920	148,787	-0,070	0,069
-153,906	-92,307	0,085	0,017
-152,891	23,167	0,125	0,074
-151,877	324,694	0,032	-0,045
-150,862	20,034	-0,065	-0,038
-149,847	74,621	0,010	0,008
-148,833	2,457	0,148	0,078
-147,818	-100,813	0,040	-0,007
-146,804	-129,463	0,110	-0,011
-145,789	-45,770	0,070	0,025
-144,775	-52,334	-0,074	0,025
-143,760	-45,159	-0,116	0,042
-142,745	610,634	0,044	0,080
-141,731	190,117	0,048	0,053
-140,716	148,968	0,035	-0,035
-139,702	-200,000	-0,003	-0,020
-138,687	382,520	0,048	-0,072
-137,672	-200,000	-0,017	-0,092
-136,658	205,077	-0,046	0,052
-135,643	800,000	0,076	-0,179
-134,629	-200,000	0,001	-0,030
-133,614	94,933	0,107	0,088
-132,599	78,767	0,017	0,013
-131,585	-200,000	0,021	0,106
-130,570	385,117	0,042	0,063
-129,556	122,754	-0,082	0,074
-128,541	800,000	0,056	-0,114
-127,526	191,597	-0,143	-0,157
-126,512	89,169	0,076	0,062
-125,497	-79,833	-0,051	0,012
-124,483	-104,860	-0,147	0,024
-123,468	57,729	0,105	0,074
-122,453	127,250	-0,104	-0,096
-121,439	-200,000	-0,028	0,102
-120,424	-117,567	-0,083	0,011
-119,410	-104,288	0,022	0,004
-118,395	160,296	0,116	0,118
-117,380	12,071	0,140	-0,078
-116,366	-2,736	-0,102	-0,052
-115,351	800,000	0,032	0,079
-114,337	47,319	-0,101	-0,068
-113,322	66,984	-0,095	-0,070
-112,307	460,744	0,021	-0,034
-111,293	598,417	-0,031	0,056
-110,278	-200,000	-0,006	0,174
-109,264	27,646	0,053	0,032
-108,249	97,199	0,043	0,036
-107,234	800,000	0,045	-0,106
-106,220	-130,874	0,043	-0,004
-105,205	-42,712	0,103	0,038
-104,191	287,752	0,028	-0,036
-103,176	800,000	0,044	0,114
-102,162	-200,000	-0,008	0,065
-101,147	-43,463	-0,088	0,032
-100,132	-15,815	-0,050	-0,023
-99,118	-135,528	-0,043	0,004
-98,103	69,020	-0,126	-0,094
-97,089	-127,063	-0,009	0,001
-96,074	659,424	0,077	0,145
-95,059	94,394	0,060	-0,049
-94,045	257,231	0,034	0,042
-93,030	-200,000	0,012	-0,089
-92,016	-200,000	0,030	-0,100
-91,001	154,000	0,075	-0,075
-89,986	422,080	0,025	-0,040
-88,972	102,582	0,171	0,145
-87,957	348,283	-0,027	0,039
-86,943	-58,255	-0,066	-0,021
-85,928	-200,000	0,011	-0,278
-84,913	-200,000	-0,004	-0,097
-83,899	-137,168	0,080	-0,007
-82,884	-53,193	0,085	-0,028
-81,870	800,000	0,021	0,065
-80,855	193,933	0,057	0,062
-79,840	-51,767	-0,043	-0,015
-78,826	-10,605	0,048	-0,023
-77,811	99,229	-0,039	0,033
-76,797	140,835	-0,067	-0,064
-75,782	-88,090	0,092	-0,020
-74,767	-109,266	0,108	-0,016
-73,753	-128,977	0,181	0,018
-72,738	175,277	-0,090	0,095
-71,724	57,049	-0,113	-0,080
-70,709	-47,202	0,017	-0,006
-69,694	-21,665	-0,103	0,045
-68,680	493,487	0,034	0,057
-67,665	-96,822	-0,076	-0,014
-66,651	-27,046	0,061	-0,026
-65,636	-68,002	0,102	0,029
-64,622	35,032	-0,074	0,047
-63,607	-200,000	-0,111	-0,000
-62,592	278,192	-0,072	-0,094
-61,578	-200,000	-0,004	0,057
-60,563	-88,039	0,215	-0,046
-59,549	-123,236	-0,131	0,015
-58,534	-184,284	-1,322	0,015
-57,519	535,108	-0,827	-1,429
-56,505	-200,000	-0,869	-4,440
-55,490	11,400	0,553	-0,307
-54,476	800,000	5,015	11,881
-53,461	-200,000	13,496	252,796
-52,446	-200,000	689,271	2260,115
-51,432	592,499	1622,034	2919,945
-50,417	119,515	1635,014	1469,425
-49,403	73,303	1289,158	977,847
-48,388	38,161	1024,077	660,149
-47,373	24,347	981,737	587,421
-46,359	23,585	971,428	578,732
-45,344	22,568	967,324	572,940
-44,330	22,537	965,736	571,875
-43,315	22,404	964,432	570,646
-42,300	22,380	963,403	569,936
-41,286	22,448	962,251	569,455
-40,271	22,399	961,430	568,787
-39,257	22,344	960,358	567,950
-38,242	22,366	959,555	567,526
-37,227	22,365	958,592	566,930
-36,213	22,359	957,822	566,433
-35,198	22,340	956,923	565,815
-34,184	22,413	956,262	565,640
-33,169	22,349	955,476	564,944
-32,154	22,434	954,407	564,566
-31,140	22,415	953,477	563,930
-30,125	22,421	952,658	563,444
-29,111	22,373	951,938	562,842
-28,096	22,387	951,378	562,532
-27,082	22,372	950,600	562,001
-26,067	22,457	949,781	561,768
-25,052	22,435	949,021	561,226
-24,038	22,443	948,381	560,852
-23,023	22,394	947,928	560,405
-22,009	22,440	947,188	560,093
-20,994	22,426	946,577	559,662
-19,979	22,458	946,093	559,458
-18,965	22,456	945,339	558,982
-17,950	22,420	944,568	558,390
-16,936	22,399	944,218	558,093
-15,921	22,401	943,375	557,581
-14,906	22,320	942,627	556,858
-13,892	22,339	941,959	556,500
-12,877	22,291	941,428	556,014
-11,863	22,225	940,758	555,384
-10,848	22,321	940,435	555,476
-9,833	22,417	939,771	555,366
-8,819	22,425	939,062	554,951
-7,804	22,312	938,482	554,228
-6,790	22,246	937,981	553,702
-5,775	22,360	937,183	553,569
-4,760	22,404	936,518	553,293
-3,746	22,243	936,170	552,558
-2,731	22,218	935,246	551,913
-1,717	22,091	934,623	551,121
-0,702	22,153	933,933	550,888
0,313	21,915	933,321	550,609
1,327	25,027	931,463	559,252
2,342	34,632	796,195	503,630
3,356	32,728	451,427	282,655
4,371	1,644	293,563	152,812
5,386	-2,836	274,547	138,662
6,400	-4,146	268,689	134,476
7,415	-4,884	266,250	132,566
8,429	-4,428	264,954	132,326
9,444	-4,379	264,142	131,953
10,459	-4,504	263,593	131,554
11,473	-4,635	263,023	131,139
12,488	-4,823	262,419	130,655
13,502	-5,008	262,060	130,297
14,517	-4,700	261,511	130,291
15,531	-4,688	261,199	130,135
16,546	-4,599	260,676	129,943
17,561	-4,631	260,481	129,805
18,575	-4,621	260,098	129,612
19,590	-4,529	259,685	129,477
20,604	-4,526	259,412	129,332
21,619	-4,594	259,037	129,073
22,634	-4,636	258,724	128,867
23,648	-4,592	258,301	128,684
24,663	-4,713	258,256	128,543
25,677	-4,839	257,955	128,270
26,692	-4,677	257,715	128,283
27,707	-4,606	257,492	128,223
28,721	-4,884	257,097	127,769
29,736	-4,765	256,845	127,738
30,750	-4,784	256,762	127,668
31,765	-4,843	256,466	127,457
32,780	-4,987	256,371	127,272
33,794	-4,770	256,140	127,337
34,809	-4,705	255,740	127,184
35,823	-4,708	255,448	127,025
36,838	-4,880	255,411	126,844
37,853	-4,908	255,134	126,670
38,867	-4,922	254,985	126,573
39,882	-4,732	254,638	126,556
40,896	-4,970	254,375	126,206
41,911	-4,896	254,231	126,188
42,926	-4,807	253,883	126,081
43,940	-5,033	253,653	125,759
44,955	-5,034	253,482	125,662
45,969	-4,955	253,247	125,602
46,984	-5,267	252,868	125,132
47,999	-5,437	252,714	124,897
49,013	-5,442	252,343	124,698
50,028	-5,494	252,214	124,578
51,042	-5,846	252,087	124,199
52,057	-5,683	251,765	124,170
53,071	-5,709	251,515	124,014
54,086	-5,609	251,431	124,047
55,101	-5,249	251,319	124,292
56,115	-5,199	251,111	124,222
57,130	-4,676	251,016	124,614
58,144	-4,448	250,787	124,687
59,159	-4,613	250,552	124,416
60,174	-4,725	250,548	124,307
61,188	-4,739	250,243	124,133
62,203	-4,597	249,956	124,101
63,217	-4,638	249,858	124,006
64,232	-4,552	249,584	123,933
65,247	-4,593	249,452	123,821
66,261	-4,687	249,183	123,596
67,276	-4,905	248,799	123,208
68,290	-5,077	248,748	123,025
69,305	-5,351	248,502	122,659
70,320	-5,029	248,252	122,799
71,334	-4,914	248,032	122,777
72,349	-4,610	247,984	123,001
73,363	-4,599	247,834	122,926
74,378	-4,654	247,613	122,758
75,393	-4,949	247,436	122,409
76,407	-4,753	247,077	122,386
77,422	-4,721	246,988	122,359
78,436	-4,737	246,878	122,279
79,451	-4,655	246,624	122,212
80,466	-4,774	246,294	121,937
81,480	-5,023	246,127	121,633
82,495	-5,077	246,004	121,516
83,509	-5,038	245,801	121,438
84,524	-4,952	245,507	121,354
85,539	-5,219	245,363	121,048
86,553	-5,234	245,149	120,919
87,568	-5,156	245,118	120,959
88,582	-4,929	244,888	121,024
89,597	-5,044	244,655	120,802
90,611	-4,942	244,424	120,763
91,626	-4,935	244,496	120,794
92,641	-4,687	244,222	120,855
93,655	-4,651	243,788	120,659
94,670	-4,941	243,771	120,398
95,684	-4,892	243,593	120,340
96,699	-4,906	243,412	120,229
97,714	-4,990	243,178	120,032
98,728	-5,166	243,024	119,799
99,743	-5,038	242,676	119,723
100,757	-5,115	242,435	119,530
101,772	-5,169	242,339	119,427
102,787	-5,053	242,194	119,441
103,801	-4,884	242,005	119,477
104,816	-4,926	242,004	119,431
105,830	-4,952	241,789	119,293
106,845	-4,693	241,580	119,393
107,860	-4,899	241,491	119,168
108,874	-4,984	241,190	118,939
109,889	-5,143	241,067	118,737
110,903	-4,834	240,768	118,834
111,918	-5,071	240,533	118,511
112,933	-5,000	240,490	118,539
113,947	-4,905	240,458	118,590
114,962	-4,769	240,178	118,553
115,976	-4,825	240,088	118,452
116,991	-4,922	239,856	118,247
118,006	-4,743	239,647	118,281
119,020	-4,767	239,520	118,187
120,035	-4,736	239,552	118,218
121,049	-4,762	239,403	118,113
122,064	-4,714	239,026	117,955
123,079	-4,817	238,875	117,787
124,093	-4,913	238,730	117,626
125,108	-5,139	238,399	117,268
126,122	-5,433	238,175	116,908
127,137	-5,304	238,142	116,987
128,151	-5,242	237,890	116,903
129,166	-5,012	237,635	116,954
130,181	-5,218	237,521	116,721
131,195	-5,180	237,280	116,622
132,210	-4,963	237,195	116,746
133,224	-4,817	237,077	116,795
134,239	-5,045	236,890	116,509
135,254	-4,825	236,791	116,628
136,268	-4,900	236,544	116,435
137,283	-5,217	236,311	116,054
138,297	-5,433	236,147	115,789
139,312	-5,346	235,853	115,705
140,327	-4,989	235,893	116,002
141,341	-4,533	235,839	116,332
142,356	-4,391	235,652	116,343
143,370	-4,412	235,424	116,203
144,385	-4,661	235,443	116,002
145,400	-4,459	235,258	116,063
146,414	-4,304	235,017	116,058
147,429	-4,552	234,767	115,726
148,443	-4,445	234,508	115,673
149,458	-4,479	234,471	115,618
150,473	-4,358	234,301	115,620
151,487	-4,633	234,178	115,329
152,502	-4,490	234,052	115,371
153,516	-4,541	233,885	115,238
154,531	-4,508	233,728	115,177
155,546	-4,558	233,498	115,013
156,560	-4,468	233,315	114,984
157,575	-4,675	233,037	114,673
158,589	-4,717	233,036	114,629
159,604	-4,529	232,704	114,604
160,619	-4,321	232,629	114,722
161,633	-4,296	232,516	114,676
162,648	-4,479	232,490	114,508
163,662	-4,485	232,292	114,395
164,677	-4,719	232,127	114,119
165,692	-4,494	231,921	114,185
166,706	-4,227	231,783	114,318
167,721	-4,130	231,655	114,321
168,735	-4,441	231,629	114,053
169,750	-4,489	231,440	113,912
170,764	-4,644	231,168	113,646
171,779	-4,427	230,940	113,694
172,794	-4,459	231,020	113,698
173,808	-4,394	230,623	113,543
174,823	-5,087	230,358	112,859
175,837	-5,155	230,217	112,727
176,852	-4,926	230,157	112,867
177,867	-4,440	230,007	113,163
178,881	-4,630	230,042	113,022
179,896	-4,540	229,767	112,947
180,910	-4,438	229,687	112,977
181,925	-4,069	229,357	113,093
182,940	-4,351	229,340	112,855
183,954	-4,366	229,080	112,705
184,969	-4,307	229,045	112,724
185,983	-4,313	228,931	112,652
186,998	-4,203	228,670	112,600
188,013	-4,133	228,531	112,576
189,027	-4,055	228,263	112,494
190,042	-4,430	228,236	112,180
191,056	-4,412	228,181	112,157
192,071	-4,415	227,845	111,980
193,086	-4,340	227,893	112,051
194,100	-4,286	227,601	111,939
195,115	-4,647	227,329	111,517
196,129	-5,273	227,165	110,944
197,144	-1,512	228,267	114,385
198,159	2,708	229,472	118,257
199,173	4,168	229,696	119,494
200,188	4,118	229,762	119,479
201,202	4,291	229,364	119,396
202,217	4,513	229,301	119,524
203,232	4,704	229,211	119,615
204,246	4,631	229,112	119,496
205,261	4,815	228,984	119,561
206,275	5,181	228,801	119,737
207,290	4,972	228,880	119,606
208,304	4,853	228,650	119,383
209,319	4,867	228,352	119,228
210,334	4,853	228,143	119,097
211,348	4,469	228,043	118,739
212,363	4,512	227,567	118,514
213,377	4,205	227,483	118,224
214,392	4,174	227,304	118,096
215,407	4,193	227,227	118,061
216,421	4,206	227,177	118,034
217,436	4,313	226,743	117,880
218,450	3,899	226,806	117,585
219,465	3,758	226,588	117,355
220,480	3,927	226,384	117,368
221,494	3,827	226,358	117,267
222,509	4,056	226,195	117,347
223,523	4,164	225,983	117,308
224,538	4,132	225,896	117,229
225,553	4,138	225,684	117,112
226,567	4,187	225,629	117,111
227,582	4,431	225,584	117,263
228,596	4,477	225,500	117,244
229,611	4,115	225,252	116,830
230,626	3,930	225,015	116,556
231,640	4,119	224,850	116,603
232,655	4,061	224,909	116,579
233,669	4,746	224,657	116,956
234,684	4,806	224,503	116,911
235,699	4,473	224,350	116,569
236,713	4,276	224,184	116,324
237,728	3,913	224,018	115,954
238,742	3,961	223,811	115,873
239,757	3,974	223,744	115,837
240,772	4,182	223,416	115,814
241,786	3,782	223,366	115,477
242,801	4,282	223,370	115,845
243,815	4,461	223,146	115,852
244,830	4,397	223,166	115,804
245,844	4,169	222,871	115,470
246,859	4,221	222,698	115,409
247,874	4,242	222,645	115,387
248,888	4,360	222,477	115,378
249,903	4,288	222,127	115,133
250,917	4,253	222,104	115,084
251,932	4,198	221,979	114,967
252,947	4,183	221,644	114,773
253,961	3,946	221,641	114,585
254,976	4,028	221,499	114,562
255,990	4,249	221,333	114,630
257,005	4,256	221,419	114,670
258,020	4,226	221,245	114,547
259,034	4,387	221,083	114,572
260,049	4,368	220,805	114,404
261,063	4,101	220,756	114,170
262,078	4,385	220,780	114,383
263,093	4,501	220,485	114,307
264,107	4,386	220,327	114,129
265,122	4,616	220,250	114,249
266,136	4,576	220,168	114,167
267,151	4,757	219,953	114,179
268,166	4,187	219,731	113,633
269,180	3,790	219,415	113,167
270,195	3,733	219,398	113,106
271,209	4,040	219,252	113,247
272,224	4,050	219,068	113,149
273,239	4,220	218,929	113,191
274,253	4,123	218,805	113,047
275,268	3,900	218,727	112,832
276,282	3,887	218,449	112,669
277,297	3,797	218,252	112,493
278,312	3,606	218,192	112,311
279,326	3,914	218,153	112,507
280,341	4,176	218,071	112,645
281,355	4,139	217,864	112,502
282,370	4,001	217,763	112,339
283,384	4,107	217,487	112,263
284,399	3,913	217,271	112,001
285,414	4,034	217,187	112,036
286,428	4,099	217,090	112,023
287,443	4,316	216,872	112,058
288,457	4,340	216,732	111,994
289,472	4,090	216,654	111,761
290,487	3,477	216,510	111,233
291,501	3,858	216,336	111,410
292,516	3,813	216,198	111,296
293,530	4,254	216,012	111,509
294,545	3,841	215,992	111,190
295,560	4,071	215,948	111,325
296,574	4,046	215,779	111,209
297,589	4,124	215,616	111,171
298,603	4,142	215,535	111,133
299,618	4,239	215,211	111,026
300,633	4,209	215,233	111,005
301,647	4,381	215,213	111,110
302,662	4,306	215,198	111,037
303,676	4,211	214,923	110,817
304,691	4,242	214,709	110,719
305,706	4,478	214,565	110,804
306,720	4,358	214,533	110,692
307,735	3,973	214,405	110,340
308,749	4,042	214,129	110,238
309,764	4,255	214,031	110,330
310,779	4,334	213,900	110,309
311,793	4,425	213,654	110,237
312,808	4,413	213,387	110,081
313,822	4,375	213,425	110,064
314,837	4,145	213,248	109,798
315,852	4,029	213,125	109,643
316,866	4,240	212,953	109,695
317,881	4,292	212,844	109,666
318,895	4,365	212,698	109,632
319,910	4,246	212,575	109,475
320,925	3,918	212,338	109,111
321,939	3,662	212,197	108,846
322,954	3,651	212,144	108,802
323,968	4,092	212,085	109,075
324,983	4,180	211,953	109,059
325,997	4,395	211,786	109,116
327,012	4,288	211,826	109,051
328,027	4,187	211,634	108,871
329,041	4,413	211,488	108,946
330,056	4,365	211,479	108,898
331,070	4,189	211,190	108,615
332,085	3,857	210,901	108,223
333,100	3,888	210,881	108,225
334,114	4,046	210,583	108,173
335,129	3,779	210,475	107,920
336,143	3,757	210,229	107,770
337,158	3,849	210,257	107,839
338,173	3,997	210,007	107,805
339,187	3,712	210,007	107,596
340,202	3,626	209,792	107,415
341,216	3,648	209,771	107,411
342,231	3,900	209,445	107,410
343,246	4,054	209,446	107,508
344,260	3,836	209,435	107,341
345,275	3,913	209,288	107,310
346,289	4,249	209,151	107,464
347,304	4,242	208,998	107,371
348,319	3,941	208,835	107,068
349,333	4,068	208,699	107,077
350,348	4,010	208,703	107,030
351,362	4,382	208,571	107,211
352,377	4,242	208,338	106,984
353,392	4,087	208,276	106,836
354,406	4,172	208,175	106,833
355,421	193,701	1346,379	1434,743
356,435	154,535	1485,152	1434,869
