DTS Sentinel unit serial number:	SN410029Multiplexer serial number:	ORYXHardware model number:	OX2-SRSoftware version number:	ORYX F/W v4,00 Oryx Data Collector v3.7.2.0data status	okinstallation	B6 Nyhavnadifferential loss correction	single-endedforward channel	channel 2reverse channel	N/Adate	2023/12/10time	19:55:08forward acquisition time	300,00reverse acquisition time	0,00gamma	499,1914k internal	0,3123k external	0,3123temperature offset calibration	1,0000default loss term (dB/km)	0,3820temperature slope calibration	1,0000multiplexer offset coefficient	1,0000multiplexer slope coefficient	1,0000fibre end	0,00T internal ref (°C)	22,31T ext. ref 1 (°C)	5,97T ext. ref 2 (°C)	6,00length (m)	temperature (°C)	Stokes	anti-Stokes-744,400	800,000	0,002	0,006
-743,385	135,542	-0,075	-0,073
-742,371	0,548	0,110	0,058
-741,356	49,732	-0,161	0,113
-740,342	120,503	0,039	0,036
-739,327	-47,919	-0,205	0,074
-738,312	-57,947	0,041	-0,013
-737,298	-82,448	-0,277	0,067
-736,283	56,455	0,039	0,028
-735,269	34,774	-0,104	0,068
-734,254	381,701	-0,057	0,087
-733,239	-26,610	-0,336	-0,146
-732,225	174,122	0,070	0,075
-731,210	-93,259	-0,143	0,029
-730,196	86,763	-0,036	0,029
-729,181	-106,817	0,092	0,015
-728,167	397,340	0,062	0,096
-727,152	-200,000	-0,004	0,085
-726,137	-200,000	0,016	-0,171
-725,123	62,962	-0,065	0,048
-724,108	13,171	-0,046	0,027
-723,094	32,512	-0,109	-0,070
-722,079	800,000	0,024	-0,073
-721,064	-200,000	0,016	-0,157
-720,050	800,000	0,028	0,088
-719,035	185,539	-0,039	-0,044
-718,021	-200,000	0,007	-0,152
-717,006	-200,000	0,028	-0,108
-715,991	-200,000	-0,030	-0,121
-714,977	-102,900	-0,078	-0,014
-713,962	32,858	0,008	0,005
-712,948	-200,000	0,010	0,124
-711,933	-70,976	-0,109	-0,030
-710,918	-130,517	-0,055	-0,005
-709,904	0,573	-0,084	0,045
-708,889	-56,329	0,069	-0,023
-707,875	234,051	-0,045	-0,055
-706,860	44,036	-0,026	-0,018
-705,845	-113,289	-0,138	-0,020
-704,831	483,334	0,066	0,113
-703,816	-120,920	0,040	-0,005
-702,802	102,175	-0,081	0,071
-701,787	-200,000	0,002	0,072
-700,772	611,483	0,025	-0,046
-699,758	800,000	-0,024	-0,070
-698,743	117,444	0,054	-0,050
-697,729	599,859	0,047	0,087
-696,714	-15,998	-0,146	-0,069
-695,699	360,525	-0,039	0,058
-694,685	-123,463	-0,125	0,015
-693,670	22,746	-0,154	-0,093
-692,656	52,652	-0,064	-0,045
-691,641	-200,000	0,000	-0,042
-690,627	183,359	0,092	0,101
-689,612	168,516	-0,095	0,101
-688,597	374,538	-0,027	-0,042
-687,583	40,866	-0,025	-0,016
-686,568	-40,174	-0,048	0,019
-685,554	-200,000	-0,027	-0,136
-684,539	800,000	0,027	0,063
-683,524	10,254	-0,069	0,039
-682,510	800,000	0,041	0,102
-681,495	-54,033	-0,094	-0,031
-680,481	-200,000	-0,047	-0,185
-679,466	18,799	-0,246	-0,146
-678,451	476,693	0,034	0,057
-677,437	-96,098	0,040	-0,008
-676,422	174,731	-0,037	-0,040
-675,408	-29,964	0,085	0,036
-674,393	-200,000	-0,004	0,026
-673,378	-66,769	-0,034	0,010
-672,364	-48,897	-0,023	0,008
-671,349	257,853	-0,054	0,069
-670,335	800,000	-0,031	0,069
-669,320	800,000	-0,045	-0,128
-668,305	-200,000	0,009	0,057
-667,291	102,445	-0,038	0,033
-666,276	104,753	0,072	-0,063
-665,262	273,364	0,088	-0,116
-664,247	199,813	0,112	-0,128
-663,232	105,548	-0,087	0,077
-662,218	-112,736	-0,056	-0,008
-661,203	-200,000	-0,002	0,073
-660,189	-200,000	-0,015	0,069
-659,174	303,734	-0,027	0,037
-658,159	216,485	-0,041	-0,048
-657,145	-145,991	-0,198	-0,013
-656,130	-152,951	-0,040	0,002
-655,116	800,000	0,042	-0,099
-654,101	-200,000	0,026	0,180
-653,086	-200,000	0,005	-0,092
-652,072	-52,441	-0,091	-0,031
-651,057	-173,175	-0,066	-0,001
-650,043	800,000	-0,005	-0,012
-649,028	665,975	0,020	-0,039
-648,014	547,525	0,063	0,113
-646,999	800,000	-0,057	0,126
-645,984	169,073	0,021	0,022
-644,970	225,361	0,018	-0,021
-643,955	-133,169	-0,129	-0,012
-642,941	-200,000	-0,010	-0,171
-641,926	-200,000	-0,001	0,055
-640,911	458,321	0,115	0,191
-639,897	-30,069	0,139	0,058
-638,882	-102,270	0,080	-0,014
-637,868	370,875	-0,019	0,028
-636,853	591,911	-0,025	-0,046
-635,838	98,801	-0,052	-0,045
-634,824	-200,000	-0,009	-0,229
-633,809	-127,202	0,081	0,009
-632,795	-117,539	0,058	0,008
-631,780	382,127	-0,092	-0,141
-630,765	-3,632	-0,109	-0,056
-629,751	15,324	0,031	-0,018
-628,736	759,635	-0,062	-0,124
-627,722	117,474	0,040	-0,037
-626,707	3,467	0,044	0,023
-625,692	-125,195	-0,080	-0,009
-624,678	-200,000	0,014	-0,161
-623,663	135,504	-0,080	0,078
-622,649	-51,274	-0,093	-0,032
-621,634	613,372	-0,060	-0,113
-620,619	40,740	-0,069	0,046
-619,605	800,000	0,066	-0,145
-618,590	165,281	0,091	0,095
-617,576	800,000	-0,020	0,052
-616,561	-200,000	0,000	-0,053
-615,546	-142,793	-0,084	0,006
-614,532	224,659	-0,074	-0,089
-613,517	-53,579	-0,076	-0,026
-612,503	-101,988	-0,089	0,016
-611,488	391,342	0,049	0,076
-610,474	-200,000	-0,019	0,085
-609,459	-200,000	0,016	-0,055
-608,444	2,823	-0,143	-0,077
-607,430	275,276	0,078	-0,102
-606,415	-200,000	-0,001	-0,027
-605,401	-115,970	-0,037	0,005
-604,386	-200,000	-0,016	-0,069
-603,371	-145,261	0,067	0,004
-602,357	12,436	-0,074	-0,042
-601,342	800,000	-0,026	-0,081
-600,328	214,906	-0,045	0,053
-599,313	-90,382	0,167	-0,036
-598,298	-153,844	0,019	-0,001
-597,284	-42,153	-0,053	0,020
-596,269	-44,594	0,133	-0,049
-595,255	188,990	-0,046	-0,051
-594,240	652,325	0,049	0,094
-593,225	244,732	-0,021	0,026
-592,211	-200,000	-0,005	0,145
-591,196	57,812	-0,096	0,070
-590,182	-40,404	0,070	-0,027
-589,167	-200,000	-0,010	0,057
-588,152	-37,270	-0,164	-0,065
-587,138	182,876	0,020	-0,022
-586,123	-36,285	0,143	-0,057
-585,109	44,605	-0,102	-0,069
-584,094	608,263	-0,043	0,080
-583,079	88,930	0,151	0,125
-582,065	435,621	-0,037	0,060
-581,050	-110,339	-0,081	0,012
-580,036	359,684	0,030	0,044
-579,021	-200,000	0,038	-0,192
-578,006	-74,950	-0,196	-0,052
-576,992	97,483	-0,060	-0,051
-575,977	146,201	0,035	0,034
-574,963	-158,917	0,105	0,004
-573,948	-63,228	0,040	0,012
-572,934	424,388	-0,031	0,049
-571,919	-58,803	-0,082	0,026
-570,904	53,628	-0,105	-0,075
-569,890	800,000	0,027	-0,072
-568,875	-95,031	0,024	-0,005
-567,861	202,070	0,088	0,101
-566,846	608,130	0,077	0,144
-565,831	800,000	-0,013	-0,029
-564,817	-28,351	-0,118	-0,050
-563,802	458,311	-0,069	-0,114
-562,788	800,000	0,092	-0,218
-561,773	800,000	-0,010	-0,027
-560,758	-200,000	-0,004	0,101
-559,744	171,141	-0,088	-0,093
-558,729	-181,460	0,093	0,001
-557,715	-22,047	-0,037	-0,016
-556,700	8,708	-0,087	-0,048
-555,685	-84,391	0,103	-0,024
-554,671	327,613	0,061	0,086
-553,656	345,055	-0,055	-0,079
-552,642	62,217	-0,057	0,042
-551,627	178,586	0,098	0,106
-550,612	800,000	-0,040	-0,097
-549,598	-200,000	0,032	-0,124
-548,583	182,107	-0,030	-0,033
-547,569	-57,556	0,063	-0,020
-546,554	72,919	0,004	0,003
-545,539	-5,929	-0,071	0,036
-544,525	-200,000	-0,015	-0,065
-543,510	-200,000	-0,005	-0,033
-542,496	800,000	-0,031	-0,077
-541,481	-200,000	0,026	-0,203
-540,466	-200,000	-0,010	-0,068
-539,452	-125,615	0,036	-0,004
-538,437	85,501	-0,075	0,061
-537,423	-200,000	0,002	0,082
-536,408	44,835	-0,091	0,062
-535,393	83,633	-0,107	-0,087
-534,379	180,600	-0,028	-0,030
-533,364	-200,000	-0,010	0,119
-532,350	258,180	0,087	0,111
-531,335	-200,000	0,037	-0,203
-530,321	-85,528	0,012	0,003
-529,306	43,480	-0,101	-0,068
-528,291	-200,000	-0,007	0,043
-527,277	-200,000	-0,004	0,043
-526,262	-86,681	0,115	0,026
-525,248	-175,418	0,111	0,002
-524,233	84,276	-0,099	-0,080
-523,218	58,388	-0,062	-0,045
-522,204	-200,000	-0,013	-0,065
-521,189	257,809	0,052	-0,066
-520,175	-200,000	-0,000	0,105
-519,160	49,822	0,125	0,087
-518,145	-200,000	-0,008	0,140
-517,131	377,836	-0,101	0,154
-516,116	-200,000	0,006	0,021
-515,102	800,000	0,062	0,136
-514,087	96,547	0,060	0,051
-513,072	-10,073	-0,087	-0,043
-512,058	6,368	-0,047	0,026
-511,043	-200,000	-0,012	-0,088
-510,029	-200,000	-0,002	0,061
-509,014	-27,637	0,201	0,086
-507,999	-200,000	-0,001	0,111
-506,985	26,609	-0,105	0,065
-505,970	-64,615	-0,087	0,026
-504,956	-200,000	0,010	-0,088
-503,941	-112,467	-0,175	-0,025
-502,926	5,589	0,052	0,028
-501,912	0,777	-0,184	-0,097
-500,897	234,367	0,017	-0,020
-499,883	-200,000	0,001	-0,162
-498,868	-39,875	-0,055	-0,021
-497,853	-200,000	-0,005	-0,064
-496,839	-200,000	0,019	0,084
-495,824	-29,917	-0,095	0,040
-494,810	37,591	-0,056	-0,036
-493,795	341,094	0,068	0,099
-492,781	800,000	-0,038	0,088
-491,766	-71,028	-0,097	-0,027
-490,751	-200,000	-0,001	0,013
-489,737	-200,000	0,037	-0,126
-488,722	72,515	0,026	0,020
-487,708	0,505	-0,033	0,017
-486,693	209,859	0,092	0,107
-485,678	-141,185	-0,031	0,002
-484,664	800,000	-0,016	0,038
-483,649	24,222	0,127	-0,077
-482,635	104,787	0,036	-0,031
-481,620	800,000	-0,024	0,056
-480,605	313,846	0,064	0,089
-479,591	71,411	-0,033	0,025
-478,576	246,655	-0,028	0,035
-477,562	349,742	0,086	-0,126
-476,547	-150,337	-0,185	-0,010
-475,532	-66,897	-0,018	0,005
-474,518	-200,000	0,000	0,005
-473,503	91,599	0,184	0,152
-472,489	-20,190	0,016	-0,007
-471,474	756,631	-0,052	-0,104
-470,459	800,000	-0,077	-0,159
-469,445	-131,493	-0,050	-0,005
-468,430	22,404	0,046	-0,028
-467,416	94,341	0,089	0,075
-466,401	-62,628	0,062	0,019
-465,386	-37,634	0,092	0,036
-464,372	99,087	-0,051	0,043
-463,357	-200,000	0,018	-0,061
-462,343	307,389	-0,037	-0,051
-461,328	74,762	-0,093	-0,072
-460,313	31,302	0,137	-0,087
-459,299	-122,619	0,136	-0,016
-458,284	141,077	-0,130	0,127
-457,270	182,668	0,003	0,004
-456,255	-30,563	0,092	-0,038
-455,241	37,068	-0,046	0,030
-454,226	-43,649	0,028	-0,010
-453,211	229,815	0,042	-0,050
-452,197	-65,231	0,061	-0,018
-451,182	101,292	0,065	0,056
-450,168	-200,000	-0,013	-0,055
-449,153	66,564	0,069	-0,051
-448,138	-200,000	-0,011	0,053
-447,124	800,000	-0,054	-0,117
-446,109	17,907	0,047	0,028
-445,095	800,000	-0,016	-0,047
-444,080	59,325	0,050	-0,036
-443,065	434,611	0,035	0,057
-442,051	-9,809	-0,117	-0,057
-441,036	-82,567	0,087	0,021
-440,022	800,000	0,016	0,048
-439,007	-200,000	0,002	-0,016
-437,992	800,000	0,041	-0,084
-436,978	-200,000	-0,007	0,082
-435,963	-141,947	0,105	0,008
-434,949	-200,000	0,019	-0,080
-433,934	212,443	0,074	0,086
-432,919	800,000	-0,060	-0,139
-431,905	199,318	-0,078	0,088
-430,890	-200,000	0,033	0,117
-429,876	-200,000	-0,012	-0,093
-428,861	-66,838	0,099	-0,028
-427,846	-54,212	0,051	0,017
-426,832	14,319	0,112	-0,064
-425,817	183,437	-0,066	-0,072
-424,803	-39,425	-0,128	-0,049
-423,788	451,923	0,024	0,039
-422,773	81,850	0,084	0,067
-421,759	220,003	-0,049	0,058
-420,744	24,317	-0,078	0,047
-419,730	-200,000	-0,006	0,082
-418,715	-99,525	0,100	0,018
-417,701	26,313	0,043	-0,026
-416,686	35,548	0,219	-0,142
-415,671	118,113	0,035	-0,032
-414,657	800,000	-0,061	0,129
-413,642	-200,000	0,001	-0,037
-412,628	114,156	-0,024	-0,022
-411,613	-200,000	-0,044	-0,145
-410,598	628,301	-0,026	-0,049
-409,584	800,000	0,018	-0,053
-408,569	40,945	0,150	0,100
-407,555	800,000	-0,042	0,097
-406,540	79,654	-0,038	-0,030
-405,525	-200,000	-0,009	0,093
-404,511	-43,152	-0,084	-0,031
-403,496	800,000	0,030	0,083
-402,482	-146,750	-0,009	0,001
-401,467	391,485	0,080	-0,122
-400,452	-72,148	0,132	0,036
-399,438	800,000	-0,065	0,156
-398,423	-58,938	-0,146	-0,046
-397,409	83,955	0,089	0,071
-396,394	-183,527	-0,141	0,002
-395,379	-110,114	0,080	0,012
-394,365	-200,000	0,002	-0,161
-393,350	-200,000	0,005	0,042
-392,336	-200,000	-0,015	-0,063
-391,321	34,775	-0,039	0,025
-390,306	-52,998	0,049	0,016
-389,292	-97,116	-0,157	-0,030
-388,277	-53,184	-0,108	0,036
-387,263	-200,000	-0,024	-0,108
-386,248	637,248	0,028	0,052
-385,233	17,783	-0,028	-0,016
-384,219	-200,000	0,000	0,021
-383,204	340,980	0,052	0,074
-382,190	182,847	-0,074	-0,081
-381,175	-155,133	0,099	0,005
-380,160	800,000	0,033	0,086
-379,146	-125,695	0,059	-0,006
-378,131	-200,000	-0,028	0,124
-377,117	87,408	0,086	0,070
-376,102	192,460	-0,019	-0,021
-375,088	594,717	-0,017	-0,032
-374,073	219,841	-0,057	0,067
-373,058	-200,000	0,016	0,085
-372,044	121,279	0,096	0,088
-371,029	-123,542	0,145	-0,017
-370,015	-82,055	-0,187	0,044
-369,000	-99,609	0,079	0,015
-367,985	130,402	-0,062	-0,059
-366,971	-200,000	0,006	-0,125
-365,956	-200,000	-0,028	-0,129
-364,942	79,833	0,026	-0,021
-363,927	-35,315	0,100	0,040
-362,912	27,999	0,037	-0,023
-361,898	432,131	0,027	0,043
-360,883	-200,000	-0,011	-0,063
-359,869	-88,065	-0,164	0,036
-358,854	-200,000	0,038	0,220
-357,839	-200,000	-0,003	-0,036
-356,825	-134,374	0,041	-0,004
-355,810	273,861	0,065	0,085
-354,796	-50,418	-0,035	-0,012
-353,781	368,838	-0,021	-0,031
-352,766	131,321	-0,016	0,015
-351,752	-200,000	0,007	0,134
-350,737	-200,000	0,025	0,093
-349,723	-200,000	-0,001	0,016
-348,708	47,509	0,008	0,006
-347,693	-200,000	-0,000	0,040
-346,679	-46,918	-0,020	0,007
-345,664	79,694	-0,058	-0,046
-344,650	800,000	-0,030	0,090
-343,635	-200,000	0,005	0,081
-342,620	96,529	0,086	-0,072
-341,606	800,000	-0,026	0,079
-340,591	-200,000	-0,010	0,060
-339,577	-46,225	-0,078	-0,028
-338,562	-200,000	0,019	0,115
-337,548	-101,640	0,178	0,031
-336,533	461,283	0,047	0,077
-335,518	133,978	0,075	0,071
-334,504	800,000	-0,036	-0,083
-333,489	800,000	0,030	-0,088
-332,475	-200,000	0,005	-0,073
-331,460	71,209	0,071	-0,054
-330,445	-200,000	0,015	0,086
-329,431	259,311	0,058	0,074
-328,416	800,000	-0,027	0,074
-327,402	79,326	0,071	0,056
-326,387	-200,000	-0,049	0,173
-325,372	-131,766	-0,037	0,003
-324,358	800,000	-0,033	-0,080
-323,343	117,386	-0,057	0,051
-322,329	-50,823	-0,072	-0,025
-321,314	346,204	0,093	0,135
-320,299	105,065	-0,033	0,029
-319,285	-12,088	-0,147	-0,070
-318,270	-47,494	0,125	0,044
-317,256	72,536	-0,048	-0,037
-316,241	185,029	-0,087	-0,095
-315,226	443,076	0,069	0,112
-314,212	633,665	-0,038	-0,071
-313,197	800,000	-0,042	-0,087
-312,183	800,000	-0,042	-0,121
-311,168	800,000	-0,014	0,044
-310,153	398,551	-0,073	-0,112
-309,139	800,000	-0,051	0,114
-308,124	-200,000	0,034	0,154
-307,110	-70,756	0,124	-0,034
-306,095	214,991	-0,098	-0,114
-305,080	299,916	0,104	0,140
-304,066	718,533	-0,018	0,036
-303,051	99,802	-0,069	0,058
-302,037	-7,221	-0,017	-0,008
-301,022	9,918	0,065	-0,036
-300,008	-52,787	0,132	-0,044
-298,993	-129,387	0,042	0,004
-297,978	69,437	0,072	0,054
-296,964	32,035	-0,071	-0,045
-295,949	558,300	-0,068	-0,121
-294,935	454,321	0,019	-0,031
-293,920	800,000	0,021	0,046
-292,905	-25,674	-0,124	-0,054
-291,891	-200,000	-0,015	-0,068
-290,876	-200,000	-0,022	-0,082
-289,862	-43,770	-0,117	0,043
-288,847	800,000	-0,042	-0,112
-287,832	253,009	-0,024	0,030
-286,818	-85,698	0,111	0,025
-285,803	83,986	0,042	0,034
-284,789	122,972	0,034	0,031
-283,774	4,428	0,121	-0,065
-282,759	800,000	0,039	-0,092
-281,745	800,000	-0,043	0,118
-280,730	41,719	-0,039	0,026
-279,716	300,115	-0,034	-0,045
-278,701	323,702	0,029	-0,041
-277,686	356,488	-0,057	0,083
-276,672	25,920	-0,103	0,063
-275,657	800,000	0,031	0,064
-274,643	425,153	-0,037	0,058
-273,628	-92,625	-0,059	-0,012
-272,613	-145,492	-0,097	0,006
-271,599	19,635	0,130	-0,076
-270,584	-200,000	0,000	0,056
-269,570	-79,316	0,076	-0,019
-268,555	298,156	0,040	0,053
-267,540	-95,876	-0,115	-0,022
-266,526	-60,352	0,034	-0,011
-265,511	-78,486	0,077	0,019
-264,497	169,976	-0,037	-0,039
-263,482	800,000	-0,018	0,055
-262,467	-57,703	0,088	-0,028
-261,453	800,000	0,010	0,031
-260,438	-79,707	0,084	-0,021
-259,424	-9,320	0,027	0,013
-258,409	88,184	-0,127	0,103
-257,395	-123,540	0,038	0,004
-256,380	-96,900	0,114	0,022
-255,365	107,446	0,046	-0,040
-254,351	74,338	-0,068	0,052
-253,336	452,493	-0,034	-0,055
-252,322	-200,000	0,005	-0,170
-251,307	-35,614	0,169	-0,067
-250,292	-84,769	-0,073	-0,017
-249,278	-5,641	0,176	0,088
-248,263	-19,872	0,153	0,069
-247,249	-200,000	0,041	0,143
-246,234	-31,377	0,020	0,008
-245,219	-146,372	0,093	0,006
-244,205	262,808	-0,078	-0,099
-243,190	79,484	-0,075	0,059
-242,176	-200,000	-0,003	-0,104
-241,161	800,000	0,070	0,156
-240,146	713,775	0,090	0,175
-239,132	326,186	-0,044	0,061
-238,117	-51,868	-0,166	-0,056
-237,103	312,729	-0,034	-0,047
-236,088	-59,823	0,072	-0,022
-235,073	-139,244	0,115	0,009
-234,059	41,118	0,040	0,026
-233,044	800,000	0,047	0,118
-232,030	-200,000	-0,004	-0,073
-231,015	-191,209	0,099	-0,001
-230,000	800,000	-0,034	-0,088
-228,986	119,792	-0,052	-0,047
-227,971	-200,000	0,006	0,027
-226,957	-200,000	0,018	0,115
-225,942	-200,000	-0,006	0,079
-224,927	81,365	-0,106	-0,084
-223,913	164,711	0,016	0,017
-222,898	-32,718	-0,013	-0,005
-221,884	-139,780	-0,081	0,006
-220,869	161,917	0,042	0,043
-219,855	64,212	-0,052	0,038
-218,840	105,365	-0,029	0,025
-217,825	22,199	-0,141	-0,084
-216,811	-200,000	0,013	0,056
-215,796	-54,061	0,044	-0,015
-214,782	-100,687	-0,069	-0,012
-213,767	-200,000	0,034	0,166
-212,752	-63,568	0,070	0,021
-211,738	-200,000	-0,021	0,104
-210,723	-166,798	0,060	0,002
-209,709	-109,920	-0,112	0,017
-208,694	394,604	-0,016	-0,024
-207,679	94,900	-0,008	0,007
-206,665	327,368	-0,054	-0,076
-205,650	-55,907	0,171	0,055
-204,636	-169,550	0,072	0,002
-203,621	-96,381	-0,063	-0,012
-202,606	708,052	-0,034	0,065
-201,592	305,674	-0,080	-0,109
-200,577	-200,000	-0,007	-0,039
-199,563	-29,167	-0,078	0,032
-198,548	226,000	0,066	-0,078
-197,533	490,663	0,043	0,072
-196,519	-104,161	-0,084	0,014
-195,504	75,486	0,032	0,025
-194,490	-53,059	-0,043	-0,014
-193,475	-75,380	0,096	0,025
-192,460	5,263	-0,093	0,050
-191,446	436,335	0,048	0,077
-190,431	-200,000	0,043	-0,178
-189,417	-113,433	0,051	0,007
-188,402	-200,000	0,002	-0,013
-187,387	-79,960	0,051	0,012
-186,373	-185,946	0,038	-0,000
-185,358	-200,000	0,001	-0,100
-184,344	557,953	-0,007	-0,013
-183,329	-200,000	-0,000	-0,037
-182,315	108,296	0,025	0,022
-181,300	-200,000	-0,018	-0,128
-180,285	-200,000	0,017	-0,113
-179,271	-7,987	-0,029	0,014
-178,256	-102,559	0,006	-0,001
-177,242	-18,136	-0,029	0,013
-176,227	-53,917	0,084	0,028
-175,212	61,360	-0,042	0,030
-174,198	67,220	-0,148	0,110
-173,183	-200,000	0,015	-0,090
-172,169	152,965	-0,096	-0,096
-171,154	-127,960	0,084	-0,009
-170,139	228,218	-0,036	-0,043
-169,125	-53,468	0,106	-0,035
-168,110	316,375	-0,105	-0,144
-167,096	-200,000	-0,005	-0,121
-166,081	-83,441	-0,146	-0,034
-165,066	-200,000	-0,011	-0,052
-164,052	370,427	-0,088	-0,131
-163,037	-104,807	0,067	-0,011
-162,023	-124,622	-0,071	-0,008
-161,008	485,463	0,053	0,089
-159,993	-74,760	0,075	0,019
-158,979	-64,400	0,051	-0,015
-157,964	306,644	-0,069	0,094
-156,950	63,311	0,050	0,037
-155,935	-83,535	-0,091	-0,021
-154,920	-18,658	0,115	-0,052
-153,906	260,020	-0,128	0,161
-152,891	800,000	-0,031	0,080
-151,877	143,690	-0,109	-0,106
-150,862	-65,138	-0,108	0,031
-149,847	-200,000	-0,017	-0,058
-148,833	254,641	-0,084	-0,105
-147,818	55,206	0,073	-0,051
-146,804	-122,331	0,049	-0,006
-145,789	800,000	0,034	0,107
-144,775	-50,419	-0,135	-0,046
-143,760	62,004	-0,038	-0,027
-142,745	73,800	-0,012	0,009
-141,731	-200,000	0,011	-0,192
-140,716	59,999	-0,060	-0,043
-139,702	-200,000	-0,003	0,068
-138,687	800,000	-0,042	0,136
-137,672	370,685	0,087	0,129
-136,658	175,315	-0,116	-0,123
-135,643	-14,028	-0,128	-0,060
-134,629	340,915	-0,037	0,053
-133,614	4,142	0,075	0,040
-132,599	800,000	-0,054	0,129
-131,585	357,975	0,030	0,043
-130,570	-84,878	-0,058	0,013
-129,556	797,592	-0,053	-0,107
-128,541	177,896	-0,120	0,128
-127,526	-88,053	-0,079	0,017
-126,512	9,449	0,068	-0,038
-125,497	207,164	0,038	-0,044
-124,483	725,293	-0,026	-0,050
-123,468	800,000	-0,008	-0,018
-122,453	93,622	0,066	-0,055
-121,439	-73,104	0,050	-0,013
-120,424	78,063	0,085	-0,066
-119,410	-175,140	-0,037	-0,001
-118,395	-200,000	0,001	0,042
-117,380	-59,946	-0,043	0,013
-116,366	180,835	0,097	-0,104
-115,351	-200,000	-0,004	0,054
-114,337	-200,000	0,008	-0,147
-113,322	-200,000	-0,039	-0,129
-112,307	800,000	0,033	0,074
-111,293	-200,000	-0,004	-0,087
-110,278	714,668	0,041	0,079
-109,264	54,400	-0,028	-0,019
-108,249	158,282	-0,074	0,075
-107,234	411,104	0,023	-0,035
-106,220	59,952	0,072	-0,051
-105,205	-200,000	-0,018	-0,119
-104,191	-102,196	0,067	-0,012
-103,176	709,324	0,030	0,057
-102,162	-31,470	-0,048	-0,020
-101,147	-150,979	-0,135	0,007
-100,132	503,996	-0,123	-0,208
-99,118	800,000	-0,043	-0,093
-98,103	470,827	0,071	-0,117
-97,089	-200,000	0,005	0,080
-96,074	-20,400	0,033	0,015
-95,059	-200,000	0,017	0,102
-94,045	-200,000	0,005	0,029
-93,030	800,000	-0,082	0,196
-92,016	-28,729	0,059	0,025
-91,001	647,266	0,055	-0,103
-89,986	-22,720	0,134	-0,058
-88,972	800,000	-0,027	0,077
-87,957	-200,000	0,027	0,141
-86,943	-200,000	-0,016	0,057
-85,928	-200,000	0,004	-0,059
-84,913	-70,857	-0,041	0,011
-83,899	800,000	0,025	-0,070
-82,884	-129,652	0,091	0,009
-81,870	-200,000	0,009	0,049
-80,855	682,922	0,032	0,061
-79,840	-200,000	-0,019	0,138
-78,826	229,872	-0,168	-0,200
-77,811	283,953	0,126	-0,164
-76,797	777,848	0,029	-0,058
-75,782	-152,596	-0,118	-0,006
-74,767	241,852	0,083	0,101
-73,753	-200,000	-0,023	0,170
-72,738	128,686	-0,041	-0,038
-71,724	392,675	0,071	-0,108
-70,709	-200,000	0,012	0,042
-69,694	-166,527	-0,054	-0,002
-68,680	-200,000	-0,014	0,068
-67,665	-200,000	0,011	0,144
-66,651	48,969	-0,037	0,025
-65,636	-200,000	-0,057	-0,197
-64,622	800,000	0,002	0,007
-63,607	245,145	0,100	-0,122
-62,592	-200,000	0,000	-0,062
-61,578	-2,962	0,077	-0,039
-60,563	798,643	0,048	0,096
-59,549	23,856	-0,171	0,102
-58,534	-112,960	-1,370	-0,195
-57,519	393,081	-0,916	-1,388
-56,505	-200,000	-0,923	-4,359
-55,490	82,642	0,614	-0,484
-54,476	800,000	5,064	11,859
-53,461	-200,000	13,598	253,498
-52,446	-200,000	689,994	2257,876
-51,432	589,895	1622,542	2914,979
-50,417	119,048	1635,099	1466,874
-49,403	73,150	1288,883	976,745
-48,388	38,022	1024,272	659,620
-47,373	24,337	981,978	587,373
-46,359	23,529	971,593	578,487
-45,344	22,569	967,374	572,816
-44,330	22,515	965,852	571,715
-43,315	22,414	964,428	570,520
-42,300	22,329	963,355	569,584
-41,286	22,365	962,340	569,080
-40,271	22,327	961,571	568,480
-39,257	22,391	960,460	568,007
-38,242	22,382	959,409	567,335
-37,227	22,282	958,956	566,721
-36,213	22,277	957,948	566,086
-35,198	22,298	957,041	565,596
-34,184	22,328	956,186	565,165
-33,169	22,314	955,369	564,614
-32,154	22,410	954,555	564,421
-31,140	22,343	953,703	563,677
-30,125	22,424	952,748	563,352
-29,111	22,370	952,047	562,740
-28,096	22,356	951,341	562,256
-27,082	22,394	950,707	561,981
-26,067	22,351	949,809	561,290
-25,052	22,320	949,185	560,800
-24,038	22,304	948,670	560,422
-23,023	22,338	948,041	560,138
-22,009	22,408	947,358	559,934
-20,994	22,359	946,770	559,407
-19,979	22,344	946,069	558,926
-18,965	22,386	945,338	558,605
-17,950	22,375	944,765	558,210
-16,936	22,329	944,141	557,670
-15,921	22,308	943,464	557,182
-14,906	22,284	942,590	556,568
-13,892	22,199	942,058	555,961
-12,877	22,232	941,451	555,686
-11,863	22,221	940,789	555,239
-10,848	22,229	940,333	554,974
-9,833	22,311	939,804	554,898
-8,819	22,282	939,282	554,475
-7,804	22,208	938,671	553,859
-6,790	22,186	937,978	553,359
-5,775	22,231	937,396	553,135
-4,760	22,223	936,771	552,718
-3,746	22,255	936,152	552,433
-2,731	22,133	935,302	551,525
-1,717	22,009	934,919	550,885
-0,702	22,046	934,207	550,561
0,313	21,905	933,457	550,504
1,327	25,027	931,400	559,059
2,342	34,772	795,757	503,585
3,356	32,745	451,859	282,873
4,371	1,552	294,217	153,017
5,386	-2,732	275,134	139,020
6,400	-4,336	269,243	134,540
7,415	-4,806	266,694	132,822
8,429	-4,565	265,526	132,450
9,444	-4,536	264,721	132,063
10,459	-4,616	264,038	131,637
11,473	-4,663	263,488	131,309
12,488	-4,735	262,856	130,917
13,502	-4,821	262,409	130,604
14,517	-4,805	262,062	130,434
15,531	-4,504	261,556	130,443
16,546	-4,580	261,227	130,198
17,561	-4,625	260,736	129,901
18,575	-4,341	260,492	130,024
19,590	-4,723	260,267	129,557
20,604	-4,674	259,957	129,435
21,619	-4,721	259,581	129,194
22,634	-4,703	259,140	128,980
23,648	-4,691	258,947	128,882
24,663	-4,751	258,668	128,679
25,677	-4,626	258,473	128,682
26,692	-4,584	258,131	128,537
27,707	-4,555	257,912	128,442
28,721	-4,776	257,789	128,173
29,736	-4,678	257,466	128,088
30,750	-4,918	257,308	127,785
31,765	-4,729	256,839	127,709
32,780	-4,888	256,725	127,500
33,794	-4,872	256,582	127,432
34,809	-4,794	256,341	127,369
35,823	-4,901	256,063	127,125
36,838	-4,894	255,793	126,986
37,853	-4,714	255,569	127,022
38,867	-5,009	255,289	126,612
39,882	-4,845	255,113	126,658
40,896	-4,887	254,959	126,533
41,911	-4,890	254,685	126,383
42,926	-4,863	254,376	126,243
43,940	-4,795	254,124	126,165
44,955	-5,047	253,956	125,850
45,969	-4,765	253,654	125,936
46,984	-5,178	253,314	125,396
47,999	-5,281	253,135	125,207
49,013	-5,411	252,991	125,011
50,028	-5,557	252,711	124,734
51,042	-5,650	252,428	124,503
52,057	-5,642	252,162	124,367
53,071	-5,801	252,269	124,271
54,086	-5,479	251,790	124,303
55,101	-5,358	251,811	124,407
56,115	-5,159	251,757	124,542
57,130	-4,740	251,477	124,754
58,144	-4,446	251,413	124,965
59,159	-4,525	251,170	124,765
60,174	-4,707	251,008	124,517
61,188	-4,574	250,682	124,458
62,203	-4,613	250,506	124,327
63,217	-4,715	250,191	124,071
64,232	-4,609	250,183	124,148
65,247	-4,497	249,770	124,028
66,261	-4,758	249,752	123,783
67,276	-4,792	249,289	123,514
68,290	-5,068	249,129	123,187
69,305	-5,201	248,927	122,963
70,320	-5,018	248,603	122,948
71,334	-5,001	248,681	122,990
72,349	-4,725	248,596	123,173
73,363	-4,413	248,216	123,239
74,378	-4,591	248,072	123,005
75,393	-4,609	247,936	122,911
76,407	-4,670	247,558	122,662
77,422	-4,606	247,471	122,662
78,436	-4,704	247,253	122,460
79,451	-4,605	246,954	122,384
80,466	-4,783	246,832	122,163
81,480	-4,945	246,596	121,898
82,495	-4,875	246,361	121,830
83,509	-4,835	246,174	121,761
84,524	-4,884	246,056	121,650
85,539	-5,094	245,818	121,344
86,553	-5,174	245,661	121,188
87,568	-5,185	245,545	121,111
88,582	-4,950	245,238	121,147
89,597	-5,039	245,076	120,981
90,611	-4,642	244,854	121,193
91,626	-4,785	244,855	121,063
92,641	-4,880	244,746	120,919
93,655	-4,980	244,400	120,654
94,670	-4,842	244,023	120,573
95,684	-5,063	244,014	120,372
96,699	-4,943	243,796	120,354
97,714	-5,129	243,673	120,127
98,728	-4,927	243,329	120,116
99,743	-5,030	243,121	119,916
100,757	-5,194	243,008	119,713
101,772	-5,214	242,948	119,657
102,787	-4,891	242,571	119,728
103,801	-5,003	242,603	119,640
104,816	-4,749	242,238	119,660
105,830	-4,771	242,273	119,649
106,845	-4,481	241,972	119,729
107,860	-4,731	241,913	119,483
108,874	-4,844	241,575	119,211
109,889	-4,934	241,412	119,046
110,903	-4,860	241,275	119,029
111,918	-4,920	241,026	118,847
112,933	-4,907	240,906	118,787
113,947	-4,852	240,794	118,767
114,962	-5,090	240,667	118,498
115,976	-4,865	240,402	118,541
116,991	-4,888	240,409	118,515
118,006	-4,919	240,007	118,281
119,020	-4,883	239,970	118,282
120,035	-4,846	239,820	118,228
121,049	-4,467	239,728	118,483
122,064	-4,802	239,547	118,108
123,079	-4,820	239,289	117,956
124,093	-5,020	239,089	117,684
125,108	-4,957	238,793	117,579
126,122	-5,341	238,689	117,204
127,137	-5,236	238,463	117,168
128,151	-5,200	238,407	117,159
129,166	-4,897	237,997	117,194
130,181	-5,045	237,957	117,043
131,195	-5,087	237,689	116,867
132,210	-4,947	237,583	116,918
133,224	-4,942	237,459	116,851
134,239	-4,732	237,376	116,969
135,254	-4,772	237,051	116,766
136,268	-4,988	236,703	116,410
137,283	-5,068	236,617	116,293
138,297	-5,154	236,423	116,117
139,312	-5,208	236,251	115,980
140,327	-4,831	236,061	116,180
141,341	-4,484	236,073	116,454
142,356	-4,360	235,982	116,499
143,370	-4,344	235,795	116,410
144,385	-4,464	235,717	116,264
145,400	-4,265	235,526	116,319
146,414	-4,309	235,338	116,181
147,429	-4,496	235,219	115,961
148,443	-4,617	234,905	115,699
149,458	-4,536	234,838	115,721
150,473	-4,576	234,730	115,625
151,487	-4,496	234,495	115,564
152,502	-4,534	234,353	115,452
153,516	-4,593	234,234	115,336
154,531	-4,390	234,168	115,455
155,546	-4,711	233,845	115,031
156,560	-4,540	233,537	115,005
157,575	-4,706	233,504	114,847
158,589	-4,627	233,246	114,772
159,604	-4,296	233,155	114,980
160,619	-4,418	233,049	114,820
161,633	-4,444	232,995	114,762
162,648	-4,325	232,835	114,768
163,662	-4,458	232,636	114,554
164,677	-4,553	232,256	114,281
165,692	-4,484	232,267	114,331
166,706	-4,404	232,210	114,357
167,721	-4,431	232,061	114,252
168,735	-4,167	231,785	114,314
169,750	-4,523	231,780	114,021
170,764	-4,555	231,579	113,886
171,779	-4,315	231,321	113,938
172,794	-4,345	231,368	113,928
173,808	-4,687	231,098	113,515
174,823	-4,963	230,604	113,046
175,837	-5,331	230,625	112,757
176,852	-4,839	230,482	113,063
177,867	-4,491	230,518	113,344
178,881	-4,429	230,463	113,356
179,896	-4,359	230,279	113,309
180,910	-4,538	230,044	113,044
181,925	-4,408	229,848	113,039
182,940	-4,329	229,647	112,992
183,954	-4,330	229,553	112,934
184,969	-4,323	229,417	112,863
185,983	-4,340	229,372	112,818
186,998	-4,284	229,013	112,674
188,013	-4,389	228,983	112,568
189,027	-4,364	228,755	112,465
190,042	-4,313	228,605	112,422
191,056	-4,233	228,449	112,396
192,071	-4,143	228,347	112,406
193,086	-4,233	228,126	112,217
194,100	-4,053	227,997	112,283
195,115	-4,390	227,567	111,802
196,129	-5,268	227,440	111,051
197,144	-1,866	228,551	114,222
198,159	2,566	229,566	118,163
199,173	4,311	230,097	119,781
200,188	4,380	230,022	119,786
201,202	4,275	229,972	119,667
202,217	4,690	229,656	119,814
203,232	4,723	229,608	119,803
204,246	4,829	229,377	119,754
205,261	4,806	229,291	119,681
206,275	5,116	229,185	119,855
207,290	5,008	229,044	119,687
208,304	5,082	228,863	119,638
209,319	5,082	228,699	119,542
210,334	5,146	228,418	119,434
211,348	4,668	228,281	118,984
212,363	4,477	228,146	118,756
213,377	4,086	227,954	118,345
214,392	3,989	227,662	118,108
215,407	4,162	227,540	118,167
216,421	4,228	227,382	118,125
217,436	4,292	227,240	118,090
218,450	3,996	226,989	117,723
219,465	3,887	226,844	117,553
220,480	3,874	226,863	117,543
221,494	3,985	226,654	117,509
222,509	4,121	226,554	117,551
223,523	3,925	226,442	117,332
224,538	4,047	226,324	117,354
225,553	4,100	226,071	117,252
226,567	4,215	226,080	117,334
227,582	4,452	225,898	117,409
228,596	4,495	225,903	117,434
229,611	4,167	225,618	117,027
230,626	3,957	225,383	116,735
231,640	4,197	225,251	116,838
232,655	4,443	225,007	116,887
233,669	4,662	225,166	117,125
234,684	4,872	224,970	117,172
235,699	4,605	224,704	116,821
236,713	4,274	224,608	116,511
237,728	4,006	224,386	116,183
238,742	3,923	224,141	115,983
239,757	4,327	223,892	116,149
240,772	4,015	223,865	115,889
241,786	3,957	223,626	115,711
242,801	4,193	223,720	115,927
243,815	4,408	223,669	116,052
244,830	4,683	223,395	116,106
245,844	4,291	223,248	115,725
246,859	4,235	223,043	115,567
247,874	4,483	223,066	115,754
248,888	4,479	222,807	115,606
249,903	4,239	222,600	115,309
250,917	4,191	222,534	115,229
251,932	4,018	222,254	114,944
252,947	4,046	222,131	114,891
253,961	4,086	222,047	114,867
254,976	4,197	221,806	114,815
255,990	4,486	221,798	115,016
257,005	4,300	221,584	114,757
258,020	4,219	221,595	114,691
259,034	4,580	221,507	114,904
260,049	4,347	221,253	114,590
261,063	4,429	221,015	114,516
262,078	4,461	220,892	114,466
263,093	4,698	220,876	114,623
264,107	4,410	220,712	114,315
265,122	4,546	220,428	114,258
266,136	4,819	220,318	114,393
267,151	4,673	220,409	114,321
268,166	4,311	220,113	113,891
269,180	3,907	219,773	113,407
270,195	4,073	219,695	113,479
271,209	4,096	219,533	113,402
272,224	4,204	219,434	113,420
273,239	4,323	219,269	113,412
274,253	4,069	219,217	113,189
275,268	3,923	218,892	112,904
276,282	3,851	218,754	112,769
277,297	3,873	218,643	112,719
278,312	3,779	218,631	112,634
279,326	3,985	218,418	112,664
280,341	3,985	218,309	112,598
281,355	4,102	218,153	112,593
282,370	3,977	218,039	112,433
283,384	3,989	217,870	112,345
284,399	3,977	217,696	112,236
285,414	3,766	217,590	112,017
286,428	3,911	217,512	112,073
287,443	4,185	217,248	112,127
288,457	4,255	217,068	112,075
289,472	4,057	216,982	111,876
290,487	3,566	216,810	111,421
291,501	3,733	216,658	111,454
292,516	3,797	216,463	111,390
293,530	3,859	216,437	111,412
294,545	3,911	216,318	111,378
295,560	4,077	216,267	111,462
296,574	4,135	216,032	111,373
297,589	4,267	215,982	111,433
298,603	4,244	215,785	111,305
299,618	4,264	215,623	111,226
300,633	4,142	215,526	111,078
301,647	4,381	215,551	111,253
302,662	4,574	215,341	111,273
303,676	4,472	215,136	111,084
304,691	4,391	215,003	110,948
305,706	4,349	214,937	110,873
306,720	4,428	214,712	110,804
307,735	4,192	214,623	110,579
308,749	4,070	214,502	110,419
309,764	4,230	214,355	110,448
310,779	4,245	214,301	110,422
311,793	4,355	214,057	110,365
312,808	4,095	214,015	110,147
313,822	4,255	213,711	110,095
314,837	4,294	213,504	110,007
315,852	3,784	213,498	109,629
316,866	4,030	213,322	109,705
317,881	4,446	213,262	109,960
318,895	4,286	213,173	109,791
319,910	4,155	212,881	109,537
320,925	3,988	212,753	109,344
321,939	3,373	212,619	108,827
322,954	3,657	212,577	108,999
323,968	4,005	212,523	109,208
324,983	4,179	212,376	109,247
325,997	4,287	212,345	109,297
327,012	4,044	212,094	108,986
328,027	4,225	211,803	108,955
329,041	4,463	211,926	109,177
330,056	4,494	211,853	109,151
331,070	4,062	211,438	108,623
332,085	3,999	211,344	108,520
333,100	4,179	211,129	108,528
334,114	4,261	211,024	108,521
335,129	4,323	210,826	108,453
336,143	3,813	210,852	108,098
337,158	3,873	210,646	108,026
338,173	3,907	210,588	108,010
339,187	3,959	210,384	107,932
340,202	3,821	210,169	107,715
341,216	3,690	210,003	107,529
342,231	3,874	209,800	107,544
343,246	3,761	209,824	107,468
344,260	3,747	209,764	107,418
345,275	3,947	209,611	107,469
346,289	4,257	209,384	107,560
347,304	3,940	209,351	107,312
348,319	4,129	209,290	107,404
349,333	4,028	208,984	107,166
350,348	3,996	209,033	107,160
351,362	4,356	208,753	107,257
352,377	4,319	208,766	107,228
353,392	3,833	208,614	106,802
354,406	4,193	208,331	106,898
355,421	193,263	1344,846	1431,279
356,435	154,175	1483,422	1431,398
