DTS Sentinel unit serial number:	SN410029Multiplexer serial number:	ORYXHardware model number:	OX2-SRSoftware version number:	ORYX F/W v4,00 Oryx Data Collector v3.7.2.0data status	okinstallation	B6 Nyhavnadifferential loss correction	single-endedforward channel	channel 2reverse channel	N/Adate	2023/12/10time	06:55:08forward acquisition time	300,00reverse acquisition time	0,00gamma	499,1914k internal	0,3123k external	0,3123temperature offset calibration	1,0000default loss term (dB/km)	0,3820temperature slope calibration	1,0000multiplexer offset coefficient	1,0000multiplexer slope coefficient	1,0000fibre end	0,00T internal ref (°C)	22,62T ext. ref 1 (°C)	6,42T ext. ref 2 (°C)	6,40length (m)	temperature (°C)	Stokes	anti-Stokes-744,400	338,832	-0,093	-0,135
-743,385	6,503	-0,302	0,167
-742,371	198,589	-0,108	-0,123
-741,356	-13,756	-0,212	0,102
-740,342	-38,748	0,152	0,060
-739,327	23,509	-0,274	0,167
-738,312	291,447	-0,114	-0,155
-737,298	36,965	-0,200	0,131
-736,283	-50,761	0,067	0,023
-735,269	15,099	-0,161	0,094
-734,254	150,579	-0,066	-0,067
-733,239	-40,037	-0,390	-0,151
-732,225	-35,599	0,091	-0,037
-731,210	-125,918	0,157	0,017
-730,196	-200,000	-0,003	0,080
-729,181	-200,000	0,005	0,076
-728,167	-20,709	0,090	-0,041
-727,152	800,000	0,033	-0,100
-726,137	-24,830	-0,189	-0,083
-725,123	-200,000	-0,013	-0,126
-724,108	-75,619	-0,175	-0,046
-723,094	-200,000	-0,005	-0,136
-722,079	47,172	0,051	-0,035
-721,064	152,295	0,023	-0,023
-720,050	314,770	-0,053	0,074
-719,035	-74,925	-0,078	0,021
-718,021	16,362	-0,087	-0,051
-717,006	185,380	-0,019	-0,021
-715,991	760,668	-0,072	-0,147
-714,977	11,387	-0,093	0,053
-713,962	800,000	-0,059	-0,127
-712,948	-200,000	-0,005	-0,075
-711,933	440,936	-0,069	-0,113
-710,918	47,505	0,024	-0,017
-709,904	-36,857	-0,160	-0,063
-708,889	-165,341	-0,126	0,004
-707,875	-164,170	-0,055	0,002
-706,860	454,146	0,027	-0,045
-705,845	800,000	-0,039	-0,095
-704,831	-200,000	-0,026	-0,120
-703,816	17,111	0,035	-0,021
-702,802	-114,913	-0,150	0,021
-701,787	-24,659	-0,015	-0,007
-700,772	39,101	0,015	0,010
-699,758	-200,000	0,007	-0,051
-698,743	58,035	-0,031	-0,022
-697,729	800,000	0,021	0,047
-696,714	-200,000	-0,005	0,071
-695,699	57,660	-0,106	-0,077
-694,685	95,561	-0,087	-0,074
-693,670	116,379	-0,042	-0,038
-692,656	-200,000	0,003	-0,059
-691,641	800,000	-0,020	-0,041
-690,627	-0,715	-0,084	0,044
-689,612	-171,922	0,076	-0,002
-688,597	-32,637	0,120	-0,049
-687,583	30,891	-0,149	0,095
-686,568	-200,000	-0,048	0,000
-685,554	263,756	-0,106	-0,137
-684,539	800,000	-0,065	0,143
-683,524	-121,100	-0,014	0,002
-682,510	-108,312	0,051	0,008
-681,495	21,643	-0,067	0,040
-680,481	184,065	-0,066	-0,073
-679,466	-200,000	-0,001	0,053
-678,451	-69,791	-0,026	0,007
-677,437	-200,000	0,004	-0,042
-676,422	162,948	-0,040	0,041
-675,408	329,078	-0,051	0,074
-674,393	22,944	-0,068	-0,041
-673,378	373,026	-0,037	-0,057
-672,364	-126,298	-0,109	0,012
-671,349	275,082	-0,010	0,014
-670,335	136,466	0,067	0,065
-669,320	328,428	0,121	0,173
-668,305	-200,000	-0,004	0,107
-667,291	-104,005	0,020	0,003
-666,276	52,632	-0,123	-0,087
-665,262	800,000	-0,024	0,074
-664,247	800,000	-0,022	0,056
-663,232	784,273	-0,075	-0,153
-662,218	-200,000	-0,021	0,129
-661,203	85,358	-0,008	-0,006
-660,189	800,000	-0,065	0,149
-659,174	318,098	-0,132	0,186
-658,159	-35,329	0,060	0,024
-657,145	-200,000	-0,006	0,106
-656,130	-200,000	0,007	-0,047
-655,116	-200,000	0,037	0,157
-654,101	-12,930	0,042	0,020
-653,086	-141,799	-0,087	0,006
-652,072	156,679	-0,125	-0,128
-651,057	558,689	-0,074	-0,134
-650,043	-131,614	-0,029	-0,003
-649,028	800,000	-0,024	-0,067
-648,014	77,719	0,188	-0,149
-646,999	318,093	-0,119	0,167
-645,984	200,024	-0,071	0,081
-644,970	121,721	0,119	-0,110
-643,955	-87,929	-0,061	-0,013
-642,941	297,039	-0,042	-0,057
-641,926	-200,000	0,059	-0,218
-640,911	146,053	-0,078	0,078
-639,897	800,000	-0,027	-0,056
-638,882	203,220	-0,096	-0,110
-637,868	-35,259	0,109	-0,044
-636,853	-35,870	-0,056	0,022
-635,838	800,000	-0,026	-0,055
-634,824	29,050	0,086	0,054
-633,809	-28,774	0,109	-0,046
-632,795	6,681	-0,095	-0,052
-631,780	-77,751	-0,073	-0,019
-630,765	353,997	-0,042	0,063
-629,751	127,330	-0,073	-0,069
-628,736	-200,000	0,035	-0,115
-627,722	175,127	-0,038	-0,041
-626,707	267,197	0,113	-0,147
-625,692	266,249	-0,024	0,032
-624,678	138,040	0,037	-0,036
-623,663	800,000	0,039	0,128
-622,649	800,000	0,040	-0,099
-621,634	262,881	0,078	-0,100
-620,619	-23,712	0,099	0,044
-619,605	-166,021	0,033	0,001
-618,590	-107,012	0,142	-0,023
-617,576	263,687	-0,082	-0,106
-616,561	5,515	-0,153	0,084
-615,546	-200,000	0,019	-0,064
-614,532	-10,577	0,038	0,019
-613,517	-48,923	0,048	-0,017
-612,503	-200,000	0,028	-0,135
-611,488	-200,000	-0,014	-0,056
-610,474	-9,043	0,175	0,086
-609,459	235,388	-0,014	-0,017
-608,444	310,940	-0,096	-0,133
-607,430	-28,946	-0,077	-0,033
-606,415	-200,000	-0,047	-0,170
-605,401	149,496	0,059	-0,060
-604,386	-200,000	-0,012	0,057
-603,371	800,000	0,008	-0,018
-602,357	-30,975	-0,063	0,026
-601,342	-200,000	0,019	0,069
-600,328	23,997	0,072	-0,044
-599,313	231,506	0,012	0,015
-598,298	-200,000	0,097	0,000
-597,284	-128,692	-0,135	-0,014
-596,269	-200,000	-0,017	-0,067
-595,255	-200,000	-0,020	-0,081
-594,240	691,355	-0,055	0,107
-593,225	-91,567	-0,109	-0,023
-592,211	156,950	-0,086	-0,088
-591,196	130,866	0,093	-0,089
-590,182	-75,659	0,053	0,014
-589,167	73,743	0,064	-0,050
-588,152	-7,471	-0,061	0,031
-587,138	155,276	-0,116	-0,119
-586,123	19,943	0,023	-0,014
-585,109	-200,000	0,011	-0,085
-584,094	-97,954	0,073	0,014
-583,079	-200,000	0,017	0,155
-582,065	407,415	0,052	-0,082
-581,050	18,076	0,041	-0,024
-580,036	800,000	-0,027	0,086
-579,021	86,005	-0,136	-0,111
-578,006	88,898	-0,086	-0,071
-576,992	588,383	0,038	0,069
-575,977	-199,540	-0,080	-0,000
-574,963	177,006	-0,082	0,088
-573,948	-116,537	0,197	-0,027
-572,934	-152,745	0,013	0,001
-571,919	-200,000	0,007	-0,038
-570,904	90,546	-0,082	-0,068
-569,890	98,498	-0,095	0,081
-568,875	23,616	0,114	0,069
-567,861	-200,000	0,011	-0,042
-566,846	-200,000	0,018	-0,179
-565,831	-57,343	0,030	0,010
-564,817	716,638	0,068	0,135
-563,802	-200,000	0,021	0,075
-562,788	49,379	-0,034	-0,024
-561,773	-93,825	0,117	-0,024
-560,758	-83,547	-0,110	0,026
-559,744	-159,009	0,151	-0,006
-558,729	800,000	-0,058	0,160
-557,715	290,918	-0,100	-0,134
-556,700	-200,000	-0,000	0,095
-555,685	-200,000	-0,006	0,067
-554,671	314,600	-0,042	-0,059
-553,656	800,000	-0,029	0,085
-552,642	247,191	0,039	0,049
-551,627	688,395	-0,052	-0,100
-550,612	-65,184	-0,157	0,046
-549,598	-93,564	-0,096	-0,019
-548,583	-10,879	-0,159	-0,077
-547,569	135,938	0,078	0,075
-546,554	20,139	-0,033	0,019
-545,539	293,746	0,110	0,148
-544,525	-200,000	0,020	0,100
-543,510	404,157	-0,047	-0,074
-542,496	-200,000	-0,021	-0,084
-541,481	-200,000	-0,012	-0,049
-540,466	-176,884	-0,091	0,002
-539,452	17,458	0,131	0,077
-538,437	6,612	0,071	0,039
-537,423	-200,000	0,006	0,035
-536,408	71,771	-0,016	0,012
-535,393	-74,333	-0,140	-0,037
-534,379	800,000	-0,022	-0,063
-533,364	-17,922	-0,119	0,055
-532,350	126,785	-0,044	0,041
-531,335	-165,647	0,130	-0,004
-530,321	800,000	0,029	0,064
-529,306	346,488	-0,120	-0,175
-528,291	-88,335	-0,041	0,009
-527,277	178,108	-0,100	0,108
-526,262	-118,202	0,010	-0,001
-525,248	25,549	-0,053	-0,033
-524,233	-25,499	0,064	0,028
-523,218	-135,550	0,125	-0,011
-522,204	-106,971	-0,121	0,020
-521,189	-200,000	-0,039	-0,149
-520,175	-112,127	0,051	0,007
-519,160	68,238	-0,084	0,063
-518,145	-130,101	-0,122	0,012
-517,131	-200,000	0,041	0,207
-516,116	-63,827	0,053	-0,016
-515,102	-200,000	0,028	-0,137
-514,087	-98,955	-0,061	0,011
-513,072	800,000	-0,019	-0,044
-512,058	-183,130	-0,122	0,002
-511,043	55,345	-0,134	0,096
-510,029	-200,000	0,007	0,099
-509,014	58,297	-0,071	-0,051
-507,999	-11,111	0,111	0,054
-506,985	-38,486	0,059	-0,023
-505,970	342,519	-0,045	-0,066
-504,956	43,321	-0,076	0,051
-503,941	-200,000	-0,015	-0,069
-502,926	800,000	-0,013	-0,038
-501,912	-62,424	0,141	0,043
-500,897	438,382	-0,056	0,091
-499,883	-200,000	0,004	-0,034
-498,868	259,612	-0,052	0,067
-497,853	410,247	-0,023	-0,036
-496,839	117,232	-0,117	-0,106
-495,824	800,000	-0,053	0,129
-494,810	-200,000	-0,019	0,081
-493,795	638,533	0,059	0,111
-492,781	-200,000	0,033	0,225
-491,766	297,725	-0,096	-0,131
-490,751	78,673	0,021	0,017
-489,737	-52,649	0,067	0,023
-488,722	800,000	0,027	0,059
-487,708	573,062	0,053	0,095
-486,693	-200,000	-0,003	-0,065
-485,678	-75,292	0,136	0,036
-484,664	-200,000	0,026	-0,132
-483,649	-21,660	0,098	-0,044
-482,635	27,004	0,019	-0,012
-481,620	-200,000	0,027	-0,270
-480,605	242,811	0,066	-0,082
-479,591	66,382	0,057	0,043
-478,576	-2,046	-0,126	0,065
-477,562	800,000	0,045	0,111
-476,547	-66,912	-0,115	0,033
-475,532	86,538	0,074	-0,060
-474,518	192,272	0,049	-0,054
-473,503	-72,692	0,109	-0,029
-472,489	12,349	0,105	-0,060
-471,474	35,005	0,012	-0,008
-470,459	-29,090	-0,052	-0,022
-469,445	413,272	-0,048	0,076
-468,430	-85,896	0,096	-0,022
-467,416	-200,000	0,006	0,078
-466,401	800,000	0,031	0,073
-465,386	12,097	0,018	0,010
-464,372	-169,390	0,121	-0,003
-463,357	-61,213	-0,092	0,028
-462,343	327,837	-0,118	-0,167
-461,328	450,895	-0,071	-0,117
-460,313	96,495	-0,061	-0,052
-459,299	-200,000	-0,029	0,103
-458,284	-200,000	0,009	-0,038
-457,270	-200,000	-0,006	0,106
-456,255	-32,111	0,078	0,032
-455,241	-200,000	-0,002	-0,095
-454,226	-200,000	0,008	-0,122
-453,211	777,542	-0,030	0,061
-452,197	-200,000	0,005	-0,039
-451,182	-200,000	0,012	0,197
-450,168	-200,000	-0,004	-0,069
-449,153	728,852	-0,058	0,115
-448,138	-133,563	-0,121	-0,011
-447,124	40,983	-0,080	-0,053
-446,109	800,000	0,031	-0,088
-445,095	102,140	0,068	0,058
-444,080	281,412	-0,028	0,037
-443,065	246,827	0,068	0,085
-442,051	-54,310	-0,126	-0,042
-441,036	27,044	-0,052	-0,032
-440,022	-113,128	0,086	0,012
-439,007	800,000	-0,005	0,011
-437,992	800,000	0,024	-0,051
-436,978	290,028	-0,044	0,058
-435,963	216,818	0,088	0,104
-434,949	-49,358	-0,067	0,024
-433,934	301,443	0,027	0,037
-432,919	649,261	-0,079	0,149
-431,905	-12,864	-0,194	0,093
-430,890	193,299	0,061	-0,068
-429,876	-146,392	-0,075	-0,005
-428,861	-200,000	-0,027	0,130
-427,846	-200,000	-0,011	0,084
-426,832	-82,892	0,035	-0,008
-425,817	2,497	-0,065	0,034
-424,803	30,599	0,085	-0,053
-423,788	800,000	-0,036	0,090
-422,773	54,997	-0,040	-0,028
-421,759	800,000	0,013	0,038
-420,744	241,570	0,006	0,007
-419,730	-200,000	0,005	-0,052
-418,715	80,451	0,060	0,048
-417,701	-200,000	-0,027	-0,115
-416,686	-4,601	-0,087	-0,044
-415,671	800,000	-0,037	0,103
-414,657	-200,000	0,002	-0,018
-413,642	218,194	-0,055	0,065
-412,628	800,000	-0,017	-0,040
-411,613	-30,274	0,047	-0,019
-410,598	-200,000	0,007	-0,063
-409,584	29,847	0,119	-0,074
-408,569	-107,345	0,018	0,003
-407,555	332,335	-0,022	-0,031
-406,540	-82,432	0,058	0,014
-405,525	154,745	0,105	0,106
-404,511	-194,771	-0,065	0,000
-403,496	343,437	0,060	-0,087
-402,482	-200,000	-0,008	-0,051
-401,467	-103,057	-0,017	0,003
-400,452	65,378	0,161	0,120
-399,438	30,326	-0,127	0,080
-398,423	670,028	0,017	0,032
-397,409	800,000	0,040	-0,122
-396,394	225,887	-0,052	-0,062
-395,379	-77,793	0,036	-0,009
-394,365	-73,666	0,110	0,029
-393,350	-200,000	-0,009	-0,055
-392,336	-178,272	-0,022	0,000
-391,321	-26,258	-0,014	0,006
-390,306	342,414	0,066	0,095
-389,292	174,451	0,015	0,016
-388,277	-65,185	-0,016	0,005
-387,263	209,321	-0,040	0,046
-386,248	-200,000	0,003	0,185
-385,233	-161,716	0,189	0,007
-384,219	189,867	-0,042	-0,047
-383,204	-18,923	-0,077	-0,035
-382,190	-200,000	0,022	0,081
-381,175	175,408	0,030	-0,032
-380,160	167,944	0,062	-0,065
-379,146	142,481	-0,073	-0,071
-378,131	416,827	-0,021	-0,033
-377,117	-200,000	0,027	0,112
-376,102	652,569	0,018	0,034
-375,088	800,000	0,036	-0,084
-374,073	55,581	0,028	-0,020
-373,058	-104,519	0,163	-0,027
-372,044	-200,000	0,007	0,059
-371,029	-200,000	0,001	-0,042
-370,015	-160,254	0,054	0,002
-369,000	-76,685	0,184	0,047
-367,985	-200,000	0,019	-0,072
-366,971	-83,062	-0,082	0,019
-365,956	-155,457	-0,131	-0,006
-364,942	388,954	0,074	0,113
-363,927	800,000	-0,052	0,155
-362,912	-200,000	0,006	-0,071
-361,898	-36,354	-0,125	-0,049
-360,883	-119,594	-0,069	0,009
-359,869	800,000	-0,009	-0,023
-358,854	800,000	0,043	0,093
-357,839	-200,000	0,032	-0,118
-356,825	15,015	-0,002	0,001
-355,810	-200,000	0,040	-0,139
-354,796	72,718	0,038	0,029
-353,781	322,067	0,054	-0,076
-352,766	-96,638	0,131	0,025
-351,752	-42,439	0,053	0,020
-350,737	5,076	0,142	0,077
-349,723	-200,000	0,005	0,058
-348,708	-200,000	0,005	-0,036
-347,693	457,796	-0,019	-0,031
-346,679	19,749	-0,052	0,030
-345,664	800,000	-0,009	-0,022
-344,650	48,334	-0,117	0,080
-343,635	-200,000	0,022	0,143
-342,620	541,913	-0,036	0,063
-341,606	195,287	-0,043	0,048
-340,591	-146,895	-0,069	-0,004
-339,577	-200,000	-0,001	-0,048
-338,562	-200,000	-0,024	0,094
-337,548	-23,515	-0,077	-0,034
-336,533	140,855	0,044	-0,043
-335,518	376,875	0,042	-0,063
-334,504	149,017	-0,024	0,024
-333,489	562,667	0,024	-0,042
-332,475	-164,852	-0,106	-0,003
-331,460	-77,634	0,125	-0,031
-330,445	-132,227	-0,075	-0,007
-329,431	-51,904	0,024	-0,008
-328,416	800,000	0,024	0,052
-327,402	-200,000	0,041	-0,147
-326,387	3,389	-0,061	-0,032
-325,372	-102,541	-0,244	-0,042
-324,358	-200,000	0,012	-0,167
-323,343	-200,000	0,022	-0,134
-322,329	-200,000	0,002	0,138
-321,314	-200,000	0,021	0,096
-320,299	93,440	-0,022	-0,018
-319,285	315,634	0,064	-0,089
-318,270	69,839	0,050	0,038
-317,256	-200,000	0,004	-0,215
-316,241	11,380	0,099	-0,056
-315,226	83,322	0,039	-0,031
-314,212	-53,596	0,068	0,023
-313,197	-98,992	0,071	-0,013
-312,183	-72,487	-0,119	-0,032
-311,168	162,342	0,108	0,111
-310,153	1,756	-0,046	0,024
-309,139	-200,000	0,005	-0,028
-308,124	139,697	-0,035	-0,034
-307,110	-200,000	0,024	0,164
-306,095	-32,145	0,081	0,033
-305,080	-200,000	0,002	0,051
-304,066	-43,032	-0,059	-0,022
-303,051	215,620	0,093	0,109
-302,037	628,642	0,016	-0,029
-301,022	254,885	0,025	0,031
-300,008	-64,132	-0,114	-0,034
-298,993	-144,155	0,022	-0,001
-297,978	203,081	-0,066	0,075
-296,964	366,813	-0,046	0,069
-295,949	635,473	0,015	-0,028
-294,935	-93,447	-0,087	-0,018
-293,920	-200,000	0,000	-0,006
-292,905	-110,349	-0,088	-0,013
-291,891	584,623	-0,043	0,077
-290,876	800,000	0,035	0,077
-289,862	45,296	0,102	0,069
-288,847	192,538	-0,049	-0,054
-287,832	800,000	0,040	0,102
-286,818	656,481	0,050	-0,095
-285,803	-200,000	0,021	-0,085
-284,789	-200,000	-0,023	-0,090
-283,774	734,000	0,066	0,131
-282,759	-200,000	-0,012	0,123
-281,745	-61,738	-0,078	0,024
-280,730	-200,000	-0,022	-0,080
-279,716	395,472	0,046	-0,070
-278,701	165,033	0,090	-0,093
-277,686	800,000	0,032	0,087
-276,672	-15,552	0,142	0,066
-275,657	409,960	0,060	0,093
-274,643	150,354	0,013	0,013
-273,628	580,498	-0,022	0,040
-272,613	-145,206	0,087	0,006
-271,599	74,898	0,006	-0,005
-270,584	159,961	-0,103	0,105
-269,570	-13,387	-0,098	0,046
-268,555	-120,740	0,104	0,013
-267,540	-200,000	-0,019	-0,123
-266,526	35,869	0,038	0,025
-265,511	-200,000	0,017	-0,079
-264,497	277,778	-0,040	-0,052
-263,482	233,550	0,025	-0,031
-262,467	-88,437	0,083	0,018
-261,453	549,057	0,041	0,073
-260,438	-113,409	-0,070	0,010
-259,424	0,237	-0,031	0,016
-258,409	800,000	0,020	-0,063
-257,395	-101,733	0,096	0,017
-256,380	-200,000	0,004	-0,043
-255,365	-200,000	-0,067	0,000
-254,351	-74,441	0,060	0,016
-253,336	-20,045	-0,027	0,012
-252,322	800,000	-0,015	-0,043
-251,307	427,135	0,045	-0,071
-250,292	32,463	0,093	-0,059
-249,278	-40,801	-0,098	-0,037
-248,263	-99,817	0,018	-0,003
-247,249	54,323	-0,051	-0,036
-246,234	-200,000	-0,021	0,075
-245,219	-200,000	0,024	-0,148
-244,205	-7,284	-0,082	-0,041
-243,190	-80,376	0,067	0,016
-242,176	-200,000	0,048	-0,161
-241,161	45,569	0,077	0,052
-240,146	-68,524	0,045	-0,013
-239,132	-200,000	-0,033	-0,162
-238,117	-10,338	-0,141	-0,068
-237,103	-13,080	0,009	0,004
-236,088	52,779	-0,133	0,093
-235,073	800,000	-0,041	0,094
-234,059	104,334	0,206	0,177
-233,044	243,675	0,056	0,069
-232,030	-83,643	-0,064	0,015
-231,015	-148,168	0,040	-0,002
-230,000	5,674	-0,175	-0,094
-228,986	-7,454	0,102	0,050
-227,971	-165,539	0,092	-0,003
-226,957	73,126	0,024	-0,019
-225,942	-200,000	0,002	0,066
-224,927	346,054	-0,086	0,123
-223,913	800,000	0,014	0,030
-222,898	-61,673	0,083	-0,025
-221,884	112,372	0,124	-0,110
-220,869	-200,000	-0,039	0,134
-219,855	800,000	0,048	0,104
-218,840	185,952	0,091	0,099
-217,825	-200,000	-0,022	0,114
-216,811	30,516	-0,080	-0,050
-215,796	-200,000	0,010	-0,115
-214,782	106,668	0,101	-0,088
-213,767	800,000	-0,021	-0,048
-212,752	105,172	0,063	0,054
-211,738	659,055	0,026	0,050
-210,723	261,760	-0,112	0,141
-209,709	-137,705	0,031	0,003
-208,694	-104,557	-0,168	-0,028
-207,679	-59,996	0,006	0,002
-206,665	-125,618	0,054	0,006
-205,650	-200,000	-0,011	0,157
-204,636	239,914	-0,066	-0,080
-203,621	-200,000	0,042	0,155
-202,606	420,463	-0,096	-0,150
-201,592	-200,000	-0,040	-0,139
-200,577	670,541	0,058	-0,110
-199,563	-200,000	0,016	0,068
-198,548	-127,113	-0,013	-0,001
-197,533	198,823	0,035	-0,039
-196,519	-54,344	0,079	0,026
-195,504	89,891	-0,098	-0,080
-194,490	37,054	-0,155	-0,100
-193,475	-50,100	0,063	-0,022
-192,460	-86,697	-0,113	0,025
-191,446	-200,000	0,004	-0,123
-190,431	800,000	0,027	0,077
-189,417	-200,000	-0,000	-0,075
-188,402	153,753	0,083	0,083
-187,387	-4,533	0,031	-0,016
-186,373	-55,230	-0,109	-0,035
-185,358	-142,796	-0,102	0,007
-184,344	1,131	0,101	-0,052
-183,329	-200,000	-0,008	-0,053
-182,315	800,000	-0,020	0,059
-181,300	-74,039	0,032	-0,008
-180,285	205,429	-0,054	-0,061
-179,271	-19,987	0,077	-0,034
-178,256	800,000	0,019	0,055
-177,242	86,496	-0,059	0,047
-176,227	304,778	0,038	-0,051
-175,212	800,000	-0,035	-0,093
-174,198	27,040	0,053	0,032
-173,183	20,396	-0,105	0,061
-172,169	208,593	-0,076	0,087
-171,154	-10,367	0,072	-0,035
-170,139	-22,584	0,224	-0,098
-169,125	-102,250	-0,065	0,011
-168,110	-200,000	-0,014	0,058
-167,096	185,856	0,101	0,110
-166,081	-132,644	-0,122	-0,011
-165,066	800,000	-0,040	-0,105
-164,052	342,616	-0,029	0,041
-163,037	253,162	-0,064	0,079
-162,023	-200,000	0,005	-0,020
-161,008	-200,000	-0,038	0,237
-159,993	475,756	-0,049	0,082
-158,979	-126,983	-0,063	-0,007
-157,964	-51,619	0,080	-0,027
-156,950	156,114	-0,074	-0,075
-155,935	-68,299	0,168	-0,047
-154,920	800,000	-0,049	0,122
-153,906	346,358	0,084	0,121
-152,891	-200,000	-0,008	0,072
-151,877	690,092	0,079	0,151
-150,862	293,372	-0,126	-0,167
-149,847	14,364	-0,074	0,042
-148,833	-200,000	-0,016	-0,102
-147,818	361,355	-0,075	0,110
-146,804	602,087	-0,014	0,025
-145,789	84,793	-0,090	0,072
-144,775	-174,229	0,065	0,001
-143,760	13,523	0,061	-0,034
-142,745	-200,000	0,007	-0,042
-141,731	129,923	0,039	0,037
-140,716	32,018	0,081	-0,051
-139,702	244,712	0,039	0,048
-138,687	800,000	0,056	0,155
-137,672	12,423	-0,127	-0,071
-136,658	-7,533	-0,013	0,006
-135,643	-200,000	0,025	0,094
-134,629	128,868	0,087	0,081
-133,614	-9,242	0,168	0,082
-132,599	489,302	0,048	0,079
-131,585	195,917	-0,076	0,084
-130,570	-66,672	0,104	0,030
-129,556	58,862	-0,079	0,057
-128,541	-152,308	-0,028	0,001
-127,526	-200,000	-0,006	-0,054
-126,512	-200,000	-0,006	0,020
-125,497	-142,605	-0,032	-0,002
-124,483	-200,000	-0,005	0,066
-123,468	354,856	-0,084	0,122
-122,453	-106,284	-0,056	0,009
-121,439	368,281	-0,075	-0,111
-120,424	189,434	0,045	-0,050
-119,410	-200,000	-0,003	0,029
-118,395	-73,191	0,097	-0,026
-117,380	800,000	0,028	0,065
-116,366	-23,935	0,090	-0,039
-115,351	204,113	-0,109	0,123
-114,337	-89,008	-0,183	0,039
-113,322	63,558	-0,077	0,056
-112,307	-127,099	0,031	-0,003
-111,293	-200,000	-0,010	0,077
-110,278	242,545	0,039	-0,047
-109,264	-200,000	-0,031	-0,173
-108,249	-200,000	0,002	-0,033
-107,234	165,805	-0,126	0,130
-106,220	220,584	-0,032	-0,037
-105,205	800,000	-0,015	-0,034
-104,191	800,000	0,034	0,069
-103,176	172,879	0,069	-0,072
-102,162	37,353	0,135	0,087
-101,147	-200,000	0,025	0,165
-100,132	8,782	-0,086	0,047
-99,118	198,201	-0,009	-0,009
-98,103	59,329	0,091	-0,065
-97,089	800,000	0,082	0,170
-96,074	-99,359	0,124	0,022
-95,059	-200,000	0,016	-0,099
-94,045	65,561	0,055	-0,040
-93,030	800,000	0,009	-0,026
-92,016	-113,786	-0,060	0,008
-91,001	-8,044	-0,074	-0,036
-89,986	444,340	0,058	0,093
-88,972	-200,000	0,010	-0,123
-87,957	-64,372	0,057	-0,017
-86,943	59,737	-0,081	-0,058
-85,928	800,000	-0,041	-0,127
-84,913	40,314	0,008	-0,005
-83,899	800,000	-0,046	-0,097
-82,884	33,762	0,018	-0,011
-81,870	800,000	-0,046	0,117
-80,855	-116,638	0,074	0,010
-79,840	95,853	-0,135	-0,112
-78,826	72,629	-0,103	0,078
-77,811	-200,000	0,015	0,059
-76,797	194,830	-0,054	0,059
-75,782	-118,495	0,121	0,015
-74,767	737,004	-0,017	-0,033
-73,753	800,000	-0,029	-0,081
-72,738	34,158	-0,032	0,020
-71,724	800,000	-0,022	-0,062
-70,709	102,632	-0,030	0,025
-69,694	-37,515	-0,123	-0,047
-68,680	800,000	0,060	0,131
-67,665	-123,119	-0,087	0,010
-66,651	28,734	0,084	0,052
-65,636	430,848	-0,041	-0,065
-64,622	800,000	0,037	-0,105
-63,607	-34,573	-0,003	-0,001
-62,592	-35,903	-0,095	0,037
-61,578	40,137	-0,068	-0,044
-60,563	-49,612	0,132	-0,045
-59,549	-75,684	-0,101	0,026
-58,534	-112,321	-1,396	-0,201
-57,519	494,092	-0,890	-1,488
-56,505	-200,000	-0,869	-4,357
-55,490	21,395	0,747	-0,440
-54,476	800,000	4,859	11,897
-53,461	-200,000	13,383	253,399
-52,446	-200,000	688,806	2269,676
-51,432	596,415	1622,998	2927,973
-50,417	121,067	1636,042	1477,068
-49,403	73,561	1290,361	979,372
-48,388	38,481	1025,066	661,581
-47,373	24,514	982,737	588,313
-46,359	23,811	972,324	579,751
-45,344	22,772	968,144	573,837
-44,330	22,819	966,721	573,125
-43,315	22,687	965,359	571,865
-42,300	22,673	964,292	571,164
-41,286	22,647	963,317	570,478
-40,271	22,607	962,462	569,819
-39,257	22,597	961,517	569,205
-38,242	22,680	960,409	568,797
-37,227	22,634	959,718	568,214
-36,213	22,641	958,770	567,655
-35,198	22,630	957,930	567,097
-34,184	22,657	957,382	566,839
-33,169	22,572	956,486	566,011
-32,154	22,684	955,456	565,740
-31,140	22,648	954,676	565,140
-30,125	22,694	953,714	564,698
-29,111	22,654	953,150	564,210
-28,096	22,663	952,347	563,742
-27,082	22,674	951,593	563,308
-26,067	22,696	950,811	562,895
-25,052	22,655	950,151	562,351
-24,038	22,591	949,614	561,804
-23,023	22,642	948,790	561,459
-22,009	22,727	948,170	561,340
-20,994	22,699	947,582	560,882
-19,979	22,690	946,920	560,438
-18,965	22,645	946,373	559,948
-17,950	22,687	945,681	559,653
-16,936	22,611	945,028	558,999
-15,921	22,689	944,146	558,704
-14,906	22,555	943,466	557,853
-13,892	22,586	942,953	557,626
-12,877	22,562	942,323	557,155
-11,863	22,481	941,793	556,562
-10,848	22,507	941,207	556,278
-9,833	22,721	940,615	556,583
-8,819	22,654	940,231	556,123
-7,804	22,524	939,419	555,208
-6,790	22,516	938,947	554,882
-5,775	22,553	938,242	554,561
-4,760	22,592	937,627	554,298
-3,746	22,518	937,013	553,678
-2,731	22,428	936,299	552,952
-1,717	22,351	935,727	552,347
-0,702	22,397	934,956	552,017
0,313	22,176	934,326	551,779
1,327	25,241	932,288	560,169
2,342	34,837	796,595	504,201
3,356	32,581	451,877	282,588
4,371	1,720	293,553	152,816
5,386	-2,689	274,277	138,603
6,400	-4,124	268,748	134,467
7,415	-4,430	266,326	132,962
8,429	-4,284	265,134	132,489
9,444	-4,297	264,289	132,042
10,459	-4,221	263,694	131,803
11,473	-4,225	262,927	131,404
12,488	-4,296	262,570	131,150
13,502	-4,447	262,040	130,737
14,517	-4,393	261,570	130,539
15,531	-4,194	261,036	130,440
16,546	-4,304	260,917	130,270
17,561	-4,422	260,533	129,961
18,575	-4,265	260,201	129,925
19,590	-4,384	259,946	129,679
20,604	-4,342	259,460	129,462
21,619	-4,204	259,305	129,497
22,634	-4,414	258,907	129,100
23,648	-4,373	258,562	128,952
24,663	-4,259	258,440	128,982
25,677	-4,301	258,114	128,770
26,692	-4,196	257,781	128,686
27,707	-4,457	257,805	128,454
28,721	-4,342	257,302	128,294
29,736	-4,318	257,048	128,178
30,750	-4,302	256,853	128,083
31,765	-4,573	256,721	127,766
32,780	-4,506	256,511	127,709
33,794	-4,351	256,183	127,671
34,809	-4,478	255,874	127,394
35,823	-4,344	255,703	127,415
36,838	-4,348	255,426	127,263
37,853	-4,367	255,105	127,075
38,867	-4,442	254,978	126,934
39,882	-4,499	254,704	126,737
40,896	-4,521	254,545	126,627
41,911	-4,230	254,326	126,761
42,926	-4,623	254,154	126,320
43,940	-4,420	253,913	126,367
44,955	-4,545	253,711	126,147
45,969	-4,372	253,366	126,114
46,984	-4,733	253,229	125,720
47,999	-4,801	252,785	125,430
49,013	-5,095	252,654	125,098
50,028	-5,019	252,274	124,964
51,042	-5,212	252,161	124,730
52,057	-5,240	251,891	124,562
53,071	-5,264	251,775	124,471
54,086	-5,148	251,580	124,465
55,101	-4,887	251,364	124,572
56,115	-4,706	251,357	124,714
57,130	-4,448	251,032	124,764
58,144	-4,289	251,079	124,913
59,159	-4,045	250,682	124,915
60,174	-4,192	250,527	124,700
61,188	-4,286	250,383	124,536
62,203	-4,253	250,168	124,446
63,217	-4,329	249,874	124,224
64,232	-4,265	249,810	124,236
65,247	-4,246	249,516	124,095
66,261	-4,284	249,420	124,004
67,276	-4,654	248,986	123,461
68,290	-4,605	248,709	123,355
69,305	-4,620	248,500	123,227
70,320	-4,711	248,295	123,036
71,334	-4,473	248,421	123,291
72,349	-4,192	248,070	123,345
73,363	-4,274	248,017	123,238
74,378	-4,220	247,727	123,129
75,393	-4,249	247,374	122,918
76,407	-4,358	247,392	122,823
77,422	-4,311	247,038	122,676
78,436	-4,168	247,014	122,775
79,451	-4,385	246,797	122,472
80,466	-4,259	246,226	122,285
81,480	-4,769	246,330	121,894
82,495	-4,595	246,099	121,916
83,509	-4,436	245,833	121,907
84,524	-4,532	245,625	121,713
85,539	-4,490	245,406	121,628
86,553	-4,701	245,235	121,355
87,568	-4,506	245,117	121,450
88,582	-4,736	244,883	121,130
89,597	-4,614	244,788	121,175
90,611	-4,523	244,636	121,165
91,626	-4,307	244,557	121,296
92,641	-4,383	244,393	121,140
93,655	-4,334	244,029	120,990
94,670	-4,494	243,991	120,827
95,684	-4,160	243,561	120,881
96,699	-4,355	243,479	120,667
97,714	-4,789	243,365	120,238
98,728	-4,729	243,218	120,205
99,743	-4,591	242,884	120,144
100,757	-4,650	242,710	119,998
101,772	-4,543	242,500	119,972
102,787	-4,599	242,381	119,857
103,801	-4,431	242,068	119,830
104,816	-4,488	241,958	119,718
105,830	-4,266	241,844	119,834
106,845	-4,203	241,705	119,807
107,860	-4,452	241,653	119,565
108,874	-4,631	241,364	119,264
109,889	-4,592	241,160	119,184
110,903	-4,357	240,985	119,280
111,918	-4,527	240,721	118,999
112,933	-4,602	240,804	118,968
113,947	-4,405	240,407	118,923
114,962	-4,301	240,396	118,993
115,976	-4,532	240,140	118,666
116,991	-4,540	239,865	118,513
118,006	-4,640	239,965	118,469
119,020	-4,247	239,654	118,627
120,035	-4,258	239,621	118,591
121,049	-4,221	239,394	118,498
122,064	-4,359	239,251	118,304
123,079	-4,459	238,993	118,084
124,093	-4,519	238,869	117,964
125,108	-4,590	238,433	117,680
126,122	-4,628	238,349	117,597
127,137	-4,924	238,172	117,259
128,151	-4,653	238,002	117,385
129,166	-4,506	237,776	117,382
130,181	-4,674	237,648	117,172
131,195	-4,670	237,317	117,002
132,210	-4,476	237,267	117,124
133,224	-4,335	237,111	117,150
134,239	-4,233	237,072	117,204
135,254	-4,398	236,977	117,013
136,268	-4,400	236,681	116,855
137,283	-4,793	236,337	116,357
138,297	-4,630	236,053	116,339
139,312	-4,800	235,949	116,140
140,327	-4,547	235,875	116,296
141,341	-4,158	235,922	116,623
142,356	-3,955	235,779	116,705
143,370	-4,194	235,650	116,438
144,385	-4,025	235,335	116,408
145,400	-4,014	235,336	116,406
146,414	-4,058	235,201	116,294
147,429	-4,015	234,934	116,186
148,443	-4,020	234,741	116,076
149,458	-4,086	234,559	115,923
150,473	-4,214	234,362	115,714
151,487	-4,075	234,203	115,736
152,502	-4,198	234,081	115,567
153,516	-3,989	233,988	115,678
154,531	-3,955	233,715	115,559
155,546	-4,073	233,465	115,331
156,560	-4,212	233,409	115,183
157,575	-4,165	233,101	115,058
158,589	-4,209	232,971	114,948
159,604	-4,039	232,885	115,030
160,619	-3,927	232,723	115,029
161,633	-3,887	232,614	114,997
162,648	-4,175	232,467	114,686
163,662	-3,936	232,268	114,767
164,677	-4,320	232,158	114,399
165,692	-4,254	231,949	114,337
166,706	-4,074	231,856	114,424
167,721	-3,934	231,635	114,414
168,735	-4,036	231,521	114,268
169,750	-4,000	231,449	114,250
170,764	-3,862	231,153	114,202
171,779	-3,936	231,072	114,094
172,794	-4,055	230,866	113,888
173,808	-4,219	230,737	113,687
174,823	-4,628	230,414	113,197
175,837	-4,704	230,156	113,000
176,852	-4,438	230,267	113,253
177,867	-4,079	230,180	113,481
178,881	-4,031	230,049	113,443
179,896	-4,225	229,904	113,211
180,910	-4,041	229,847	113,316
181,925	-4,094	229,529	113,108
182,940	-3,773	229,281	113,225
183,954	-3,947	229,201	113,040
184,969	-3,978	229,011	112,913
185,983	-3,829	228,757	112,893
186,998	-3,943	228,845	112,838
188,013	-3,657	228,486	112,872
189,027	-3,760	228,323	112,703
190,042	-3,791	228,229	112,621
191,056	-3,753	228,105	112,580
192,071	-3,967	228,067	112,386
193,086	-3,660	227,732	112,447
194,100	-3,816	227,691	112,297
195,115	-4,201	227,239	111,767
196,129	-4,615	227,103	111,371
197,144	-2,281	227,809	113,511
198,159	1,313	228,943	116,852
199,173	4,104	229,522	119,302
200,188	4,309	229,546	119,462
201,202	4,219	229,454	119,334
202,217	4,351	229,152	119,268
203,232	4,612	228,995	119,378
204,246	4,659	228,887	119,347
205,261	4,739	228,724	119,313
206,275	4,821	228,708	119,357
207,290	4,728	228,552	119,194
208,304	4,925	228,349	119,229
209,319	4,984	228,127	119,147
210,334	4,650	228,090	118,860
211,348	4,522	227,812	118,607
212,363	4,203	227,561	118,221
213,377	4,049	227,386	118,001
214,392	3,830	227,218	117,736
215,407	4,170	227,052	117,900
216,421	4,387	226,879	117,965
217,436	3,882	226,872	117,565
218,450	3,913	226,565	117,419
219,465	3,858	226,312	117,235
220,480	3,788	226,349	117,191
221,494	3,750	226,040	116,992
222,509	4,027	226,104	117,225
223,523	3,819	226,004	117,004
224,538	3,756	225,710	116,794
225,553	4,118	225,546	116,973
226,567	4,149	225,429	116,926
227,582	4,246	225,396	116,972
228,596	4,339	225,255	116,959
229,611	3,966	225,117	116,594
230,626	3,794	224,705	116,240
231,640	3,875	224,698	116,288
232,655	3,958	224,694	116,338
233,669	4,604	224,511	116,721
234,684	4,593	224,495	116,694
235,699	4,540	224,238	116,510
236,713	4,206	224,018	116,134
237,728	3,929	223,900	115,853
238,742	3,592	223,686	115,479
239,757	4,123	223,516	115,780
240,772	3,929	223,354	115,540
241,786	4,092	223,204	115,575
242,801	4,247	223,219	115,688
243,815	4,332	223,138	115,700
244,830	4,284	222,960	115,561
245,844	4,050	222,684	115,233
246,859	3,939	222,572	115,081
247,874	4,303	222,416	115,263
248,888	4,431	222,289	115,282
249,903	4,248	222,049	115,011
250,917	4,174	221,888	114,862
251,932	3,978	221,841	114,681
252,947	3,685	221,616	114,337
253,961	3,966	221,438	114,444
254,976	4,084	221,300	114,449
255,990	4,241	221,178	114,493
257,005	3,911	221,297	114,299
258,020	4,167	221,070	114,362
259,034	4,420	220,975	114,490
260,049	4,333	220,704	114,275
261,063	4,183	220,604	114,102
262,078	4,308	220,529	114,146
263,093	4,397	220,342	114,104
264,107	4,241	220,230	113,921
265,122	4,233	220,149	113,862
266,136	4,492	219,988	113,961
267,151	4,174	219,781	113,609
268,166	3,995	219,622	113,384
269,180	3,867	219,323	113,126
270,195	3,889	219,069	113,001
271,209	3,738	219,012	112,851
272,224	3,918	218,883	112,906
273,239	4,039	218,790	112,937
274,253	4,055	218,704	112,894
275,268	3,873	218,441	112,615
276,282	3,754	218,212	112,400
277,297	3,782	218,154	112,381
278,312	3,851	218,029	112,357
279,326	3,646	218,011	112,187
280,341	3,947	217,945	112,364
281,355	4,084	217,699	112,326
282,370	4,003	217,504	112,157
283,384	3,825	217,330	111,927
284,399	3,749	217,229	111,810
285,414	3,665	217,100	111,673
286,428	3,913	217,026	111,805
287,443	4,086	216,824	111,817
288,457	4,248	216,628	111,823
289,472	4,137	216,488	111,660
290,487	3,443	216,263	111,031
291,501	3,318	216,091	110,843
292,516	3,660	215,944	111,005
293,530	3,837	215,879	111,089
294,545	3,850	215,727	111,011
295,560	3,815	215,739	110,982
296,574	3,931	215,682	111,026
297,589	4,095	215,443	111,012
298,603	4,061	215,402	110,956
299,618	3,860	215,123	110,658
300,633	3,793	215,127	110,602
301,647	4,137	215,105	110,828
302,662	4,480	214,791	110,902
303,676	4,135	214,817	110,659
304,691	4,168	214,591	110,556
305,706	4,335	214,454	110,596
306,720	4,055	214,367	110,340
307,735	4,172	214,041	110,246
308,749	3,973	213,899	110,021
309,764	3,972	213,844	109,982
310,779	4,188	213,813	110,111
311,793	3,937	213,643	109,834
312,808	4,170	213,435	109,883
313,822	4,040	213,369	109,747
314,837	3,914	213,143	109,531
315,852	3,870	212,944	109,388
316,866	4,081	212,816	109,463
317,881	4,231	212,643	109,470
318,895	4,125	212,626	109,376
319,910	4,125	212,354	109,227
320,925	3,891	212,173	108,958
321,939	3,465	212,072	108,595
322,954	3,544	211,970	108,589
323,968	4,018	212,099	108,981
324,983	3,860	211,792	108,702
325,997	4,051	211,652	108,755
327,012	3,896	211,715	108,668
328,027	4,156	211,409	108,685
329,041	4,397	211,367	108,823
330,056	4,402	211,361	108,814
331,070	4,047	211,066	108,403
332,085	4,089	210,697	108,233
333,100	3,885	210,618	108,040
334,114	3,908	210,607	108,040
335,129	4,060	210,392	108,027
336,143	4,010	210,174	107,871
337,158	4,119	210,051	107,874
338,173	3,927	209,986	107,697
339,187	3,753	209,812	107,476
340,202	3,439	209,729	107,204
341,216	3,426	209,590	107,115
342,231	3,755	209,567	107,324
343,246	3,957	209,263	107,299
344,260	3,915	209,167	107,211
345,275	3,841	209,145	107,139
346,289	4,050	209,058	107,230
347,304	4,069	208,873	107,139
348,319	4,092	208,644	107,027
349,333	3,915	208,639	106,893
350,348	3,995	208,315	106,772
351,362	4,064	208,374	106,842
352,377	3,968	208,275	106,714
353,392	4,047	208,148	106,694
354,406	4,007	207,996	106,579
355,421	194,425	1345,613	1435,663
356,435	155,137	1484,323	1435,782
