DTS Sentinel unit serial number:	SN410029Multiplexer serial number:	ORYXHardware model number:	OX2-SRSoftware version number:	ORYX F/W v4,00 Oryx Data Collector v3.7.2.0data status	okinstallation	B6 Nyhavnadifferential loss correction	single-endedforward channel	channel 2reverse channel	N/Adate	2023/12/07time	17:20:08forward acquisition time	300,00reverse acquisition time	0,00gamma	499,1914k internal	0,3164k external	0,3164temperature offset calibration	1,0000default loss term (dB/km)	0,3820temperature slope calibration	1,0000multiplexer offset coefficient	1,0000multiplexer slope coefficient	1,0000fibre end	0,00T internal ref (°C)	14,48T ext. ref 1 (°C)	-2,41T ext. ref 2 (°C)	-2,43length (m)	temperature (°C)	Stokes	anti-Stokes-744,400	800,000	0,024	-0,057
-743,385	-89,894	-0,269	0,057
-742,371	-96,554	0,110	0,021
-741,356	-102,388	-0,309	0,054
-740,342	57,669	0,148	0,107
-739,327	-74,813	-0,271	-0,071
-738,312	-107,580	0,108	0,017
-737,298	-135,935	-0,360	-0,031
-736,283	-200,000	0,142	0,000
-735,269	-158,235	-0,332	0,014
-734,254	-18,884	0,131	0,060
-733,239	-1,896	-0,354	-0,183
-732,225	-20,235	0,209	0,094
-731,210	800,000	0,040	0,086
-730,196	-85,298	-0,070	0,016
-729,181	-200,000	-0,003	-0,018
-728,167	172,995	0,066	0,070
-727,152	-200,000	0,003	-0,031
-726,137	62,318	-0,168	-0,123
-725,123	76,848	-0,175	-0,136
-724,108	800,000	-0,037	-0,102
-723,094	-200,000	-0,001	0,080
-722,079	-151,284	-0,029	-0,002
-721,064	-106,246	0,131	0,021
-720,050	-32,158	-0,048	0,020
-719,035	-83,866	0,046	0,011
-718,021	-33,782	-0,051	-0,021
-717,006	216,373	-0,129	-0,151
-715,991	145,656	-0,126	-0,124
-714,977	800,000	0,017	0,038
-713,962	-69,035	-0,092	-0,026
-712,948	-150,342	0,053	0,003
-711,933	-54,984	0,022	0,007
-710,918	-200,000	-0,018	-0,071
-709,904	-200,000	-0,010	-0,075
-708,889	800,000	-0,016	0,039
-707,875	-34,979	-0,059	0,023
-706,860	-118,678	-0,097	0,012
-705,845	617,237	0,022	-0,041
-704,831	289,261	0,063	-0,084
-703,816	800,000	0,041	0,084
-702,802	108,569	-0,035	-0,031
-701,787	352,792	-0,145	-0,211
-700,772	111,358	-0,099	-0,088
-699,758	800,000	0,046	-0,105
-698,743	302,729	0,030	0,041
-697,729	258,454	0,029	0,037
-696,714	174,518	-0,027	0,029
-695,699	122,147	-0,081	-0,074
-694,685	800,000	-0,011	0,028
-693,670	144,414	0,110	-0,108
-692,656	-33,003	0,062	0,025
-691,641	800,000	-0,035	-0,080
-690,627	415,004	-0,079	-0,124
-689,612	794,153	-0,030	-0,061
-688,597	432,555	0,068	0,109
-687,583	-151,621	-0,070	0,004
-686,568	800,000	-0,068	-0,140
-685,554	800,000	0,033	-0,070
-684,539	174,093	-0,068	-0,072
-683,524	800,000	-0,033	0,087
-682,510	-1,681	-0,065	0,033
-681,495	-200,000	-0,001	-0,158
-680,481	800,000	-0,041	0,101
-679,466	543,850	-0,041	0,072
-678,451	-200,000	0,011	0,081
-677,437	-200,000	0,021	-0,110
-676,422	426,472	-0,098	0,156
-675,408	504,402	-0,061	0,105
-674,393	383,524	-0,072	0,109
-673,378	-117,183	-0,222	0,029
-672,364	85,908	-0,047	-0,038
-671,349	-147,371	-0,088	0,005
-670,335	-96,922	0,164	-0,031
-669,320	158,747	0,031	-0,031
-668,305	-49,588	-0,136	0,047
-667,291	-200,000	0,068	-0,223
-666,276	-130,065	0,055	-0,005
-665,262	800,000	0,054	-0,122
-664,247	800,000	-0,023	-0,064
-663,232	663,466	0,057	0,108
-662,218	552,795	0,034	0,060
-661,203	-78,614	0,127	-0,032
-660,189	57,845	-0,072	0,052
-659,174	-11,701	-0,026	-0,013
-658,159	173,336	-0,046	-0,048
-657,145	-200,000	-0,002	0,069
-656,130	-200,000	-0,016	0,098
-655,116	506,766	0,042	0,071
-654,101	800,000	-0,050	0,109
-653,086	105,963	-0,068	-0,059
-652,072	-12,857	0,085	0,040
-651,057	-38,828	0,068	-0,026
-650,043	684,536	-0,061	-0,117
-649,028	49,353	0,065	-0,045
-648,014	200,066	-0,073	-0,082
-646,999	-200,000	-0,001	-0,066
-645,984	-180,370	0,069	-0,001
-644,970	-126,184	-0,086	0,009
-643,955	-150,601	-0,091	-0,005
-642,941	200,081	-0,034	0,039
-641,926	800,000	0,026	0,061
-640,911	181,857	0,059	0,064
-639,897	0,929	0,112	-0,058
-638,882	8,234	-0,006	0,003
-637,868	205,151	0,064	-0,073
-636,853	-84,964	-0,167	-0,038
-635,838	362,668	0,006	0,009
-634,824	-45,506	-0,042	-0,015
-633,809	-99,378	-0,060	-0,011
-632,795	-92,070	0,064	0,013
-631,780	53,932	-0,027	-0,019
-630,765	-74,509	0,021	-0,006
-629,751	323,660	0,114	-0,160
-628,736	102,869	-0,058	0,050
-627,722	256,404	-0,101	-0,128
-626,707	800,000	-0,037	0,089
-625,692	20,913	0,174	0,103
-624,678	-36,400	0,078	0,031
-623,663	-200,000	0,003	0,113
-622,649	-200,000	0,067	0,219
-621,634	-200,000	-0,017	0,077
-620,619	-200,000	0,005	0,073
-619,605	-70,375	-0,111	0,031
-618,590	-147,721	-0,045	-0,003
-617,576	-200,000	-0,015	-0,057
-616,561	416,717	0,047	0,074
-615,546	-119,676	-0,032	-0,004
-614,532	517,268	-0,031	0,053
-613,517	-32,947	-0,077	0,031
-612,503	61,695	0,031	0,022
-611,488	-200,000	-0,015	0,064
-610,474	-34,581	-0,174	0,070
-609,459	463,021	-0,038	0,063
-608,444	283,647	-0,051	0,067
-607,430	51,095	-0,014	0,010
-606,415	800,000	-0,019	-0,056
-605,401	56,963	0,128	-0,091
-604,386	-200,000	0,015	-0,145
-603,371	-134,675	0,088	0,008
-602,357	138,294	0,050	-0,048
-601,342	-75,272	0,142	-0,037
-600,328	-175,338	-0,073	-0,001
-599,313	-43,249	-0,094	-0,035
-598,298	-200,000	-0,002	-0,061
-597,284	595,053	0,020	-0,036
-596,269	-85,921	-0,098	0,022
-595,255	-99,928	0,067	0,012
-594,240	-18,138	0,069	0,032
-593,225	800,000	-0,039	0,107
-592,211	186,130	0,050	-0,055
-591,196	126,045	-0,041	-0,038
-590,182	30,231	0,103	-0,064
-589,167	-27,038	-0,110	-0,047
-588,152	132,469	-0,036	-0,034
-587,138	-94,741	-0,095	-0,019
-586,123	-47,463	-0,115	-0,041
-585,109	78,893	0,040	0,031
-584,094	-200,000	0,014	0,082
-583,079	-200,000	0,027	0,116
-582,065	-23,492	-0,166	0,073
-581,050	-143,300	-0,234	-0,016
-580,036	800,000	0,045	-0,118
-579,021	800,000	0,026	-0,079
-578,006	-200,000	0,010	-0,073
-576,992	127,225	-0,051	-0,047
-575,977	137,561	0,089	-0,085
-574,963	34,571	0,055	0,035
-573,948	-49,430	-0,144	0,050
-572,934	-68,717	0,111	0,031
-571,919	-122,725	-0,055	-0,006
-570,904	-130,192	-0,015	0,001
-569,890	800,000	-0,079	-0,172
-568,875	196,331	0,081	-0,090
-567,861	-200,000	0,002	0,041
-566,846	-41,026	-0,023	0,009
-565,831	-200,000	0,007	-0,059
-564,817	-6,875	-0,144	0,071
-563,802	800,000	-0,035	0,088
-562,788	185,045	-0,066	-0,071
-561,773	113,486	0,036	-0,032
-560,758	61,823	0,114	-0,083
-559,744	-89,697	0,037	0,008
-558,729	236,335	-0,028	-0,034
-557,715	-23,720	-0,034	-0,015
-556,700	-200,000	-0,012	0,111
-555,685	-19,420	-0,166	0,075
-554,671	-200,000	0,018	0,067
-553,656	209,803	-0,086	0,099
-552,642	-29,192	0,061	0,025
-551,627	-121,395	-0,160	-0,019
-550,612	502,368	0,045	-0,077
-549,598	-121,501	-0,078	0,009
-548,583	-200,000	-0,012	-0,089
-547,569	-200,000	-0,008	0,051
-546,554	-200,000	0,015	0,128
-545,539	111,961	0,095	0,084
-544,525	470,727	-0,023	0,038
-543,510	8,224	-0,185	-0,101
-542,496	98,930	-0,148	-0,124
-541,481	-108,192	0,021	-0,003
-540,466	-11,499	0,080	0,038
-539,452	88,233	0,155	-0,126
-538,437	416,248	0,076	0,118
-537,423	-31,931	-0,060	0,024
-536,408	800,000	0,076	0,171
-535,393	95,547	-0,100	-0,084
-534,379	196,149	-0,063	-0,070
-533,364	-200,000	0,010	-0,141
-532,350	-200,000	-0,021	0,076
-531,335	-106,271	0,063	-0,010
-530,321	314,585	0,086	0,119
-529,306	-200,000	-0,004	-0,029
-528,291	-200,000	0,019	-0,120
-527,277	800,000	-0,037	-0,119
-526,262	-108,411	0,178	-0,028
-525,248	-6,080	0,036	-0,018
-524,233	463,759	-0,012	0,019
-523,218	-1,171	0,120	-0,062
-522,204	-112,624	-0,093	0,013
-521,189	464,652	-0,037	0,061
-520,175	125,158	-0,108	-0,099
-519,160	285,895	-0,030	-0,040
-518,145	79,735	-0,009	0,007
-517,131	-5,406	0,125	0,062
-516,116	-182,779	-0,080	0,001
-515,102	386,457	0,120	0,181
-514,087	585,333	0,005	-0,010
-513,072	800,000	0,013	0,026
-512,058	-102,634	0,127	0,022
-511,043	471,796	0,012	-0,020
-510,029	108,688	0,117	0,102
-509,014	16,349	-0,054	0,031
-507,999	352,370	0,032	0,046
-506,985	183,723	-0,068	-0,073
-505,970	-37,699	0,049	-0,019
-504,956	-100,189	0,080	-0,014
-503,941	379,519	0,046	-0,069
-502,926	-152,985	0,060	-0,003
-501,912	307,917	0,078	0,107
-500,897	177,767	0,025	-0,026
-499,883	590,834	-0,056	-0,101
-498,868	-162,059	0,083	0,003
-497,853	132,347	-0,111	0,104
-496,839	800,000	-0,018	0,039
-495,824	-78,254	-0,077	0,019
-494,810	-16,702	-0,087	0,040
-493,795	100,948	-0,093	0,079
-492,781	-200,000	-0,029	-0,125
-491,766	-142,652	-0,136	0,010
-490,751	-83,512	-0,177	-0,041
-489,737	-200,000	0,000	-0,131
-488,722	768,167	-0,030	-0,061
-487,708	-155,698	0,072	-0,003
-486,693	81,898	0,039	-0,031
-485,678	383,512	-0,070	0,105
-484,664	37,703	-0,142	0,092
-483,649	-200,000	-0,004	0,089
-482,635	-38,060	-0,141	-0,054
-481,620	-75,992	0,047	0,012
-480,605	111,792	0,070	0,061
-479,591	265,991	-0,078	0,099
-478,576	-32,329	0,078	0,031
-477,562	536,713	0,018	0,032
-476,547	-200,000	0,011	-0,053
-475,532	-200,000	-0,018	0,072
-474,518	37,968	0,031	-0,020
-473,503	-55,123	0,177	0,058
-472,489	-67,396	0,098	-0,028
-471,474	346,513	0,060	-0,086
-470,459	-200,000	0,008	-0,185
-469,445	-47,055	0,090	-0,032
-468,430	-145,611	-0,030	0,002
-467,416	-200,000	-0,009	-0,128
-466,401	800,000	-0,031	-0,066
-465,386	-200,000	-0,012	-0,094
-464,372	226,755	-0,092	-0,108
-463,357	272,128	0,059	0,076
-462,343	800,000	-0,063	0,130
-461,328	1,628	0,118	0,062
-460,313	-173,066	0,159	-0,003
-459,299	-5,430	0,130	0,065
-458,284	-85,812	-0,098	-0,022
-457,270	-200,000	0,000	0,012
-456,255	-2,242	-0,075	-0,038
-455,241	-23,762	-0,007	0,003
-454,226	-200,000	0,049	-0,214
-453,211	-200,000	0,012	-0,105
-452,197	-7,329	0,080	-0,039
-451,182	-200,000	0,004	-0,078
-450,168	108,394	0,078	0,068
-449,153	-129,122	-0,146	0,015
-448,138	76,940	-0,072	0,056
-447,124	800,000	-0,032	-0,078
-446,109	459,286	-0,022	-0,036
-445,095	800,000	-0,019	0,053
-444,080	-95,367	-0,092	0,018
-443,065	124,995	0,081	0,074
-442,051	266,481	0,027	-0,034
-441,036	-115,981	0,068	-0,009
-440,022	188,602	-0,031	-0,034
-439,007	-200,000	-0,001	0,089
-437,992	413,429	0,026	0,040
-436,978	-200,000	-0,016	0,060
-435,963	-66,210	-0,092	0,026
-434,949	-140,110	-0,107	-0,008
-433,934	-200,000	0,004	-0,039
-432,919	800,000	0,031	0,080
-431,905	800,000	0,065	0,132
-430,890	-200,000	0,013	0,108
-429,876	196,906	0,071	0,079
-428,861	38,315	0,079	-0,051
-427,846	-71,692	-0,222	0,060
-426,832	-200,000	0,033	0,171
-425,817	552,472	-0,076	-0,134
-424,803	143,893	0,091	-0,088
-423,788	21,349	-0,091	0,054
-422,773	23,790	0,043	-0,025
-421,759	39,004	0,067	0,043
-420,744	800,000	0,016	-0,041
-419,730	63,654	-0,067	-0,049
-418,715	-56,876	-0,056	-0,018
-417,701	354,999	-0,049	0,071
-416,686	162,991	-0,112	0,114
-415,671	-76,296	0,137	0,035
-414,657	462,614	0,041	0,066
-413,642	9,474	0,028	-0,015
-412,628	578,101	-0,036	0,065
-411,613	616,956	0,073	-0,133
-410,598	27,308	-0,091	-0,055
-409,584	-33,645	-0,039	0,016
-408,569	225,652	-0,036	0,043
-407,555	68,090	0,122	0,091
-406,540	-20,702	-0,155	0,069
-405,525	627,898	0,037	-0,068
-404,511	785,500	-0,010	0,020
-403,496	164,978	-0,077	0,079
-402,482	-42,404	0,098	0,036
-401,467	-54,583	0,036	-0,012
-400,452	-58,756	-0,112	-0,035
-399,438	-40,627	-0,035	0,013
-398,423	-200,000	0,000	0,074
-397,409	67,638	-0,099	-0,073
-396,394	295,966	0,103	-0,138
-395,379	-117,733	-0,165	-0,021
-394,365	-200,000	0,026	-0,122
-393,350	-200,000	-0,019	0,066
-392,336	800,000	0,017	0,043
-391,321	129,331	-0,073	0,068
-390,306	500,686	-0,030	0,051
-389,292	800,000	0,013	0,037
-388,277	179,683	0,048	0,051
-387,263	78,485	0,043	0,033
-386,248	175,398	0,068	-0,072
-385,233	-58,952	0,048	-0,015
-384,219	-115,628	-0,073	-0,010
-383,204	-128,758	0,097	0,010
-382,190	-200,000	0,040	-0,176
-381,175	32,100	0,042	0,026
-380,160	-200,000	-0,003	0,056
-379,146	-116,298	0,047	-0,006
-378,131	150,314	0,093	0,092
-377,117	10,735	-0,174	-0,096
-376,102	-137,322	-0,042	-0,003
-375,088	-200,000	-0,039	0,131
-374,073	-200,000	-0,002	-0,039
-373,058	722,100	0,051	0,098
-372,044	-200,000	0,003	0,031
-371,029	12,896	0,062	-0,035
-370,015	-200,000	-0,028	0,098
-369,000	-200,000	-0,001	-0,051
-367,985	272,785	-0,061	0,078
-366,971	364,526	0,043	-0,063
-365,956	800,000	-0,024	-0,065
-364,942	-200,000	-0,005	0,074
-363,927	103,896	0,076	0,064
-362,912	-200,000	-0,007	0,054
-361,898	800,000	-0,020	0,048
-360,883	800,000	0,004	-0,013
-359,869	800,000	0,075	0,194
-358,854	-200,000	0,025	0,106
-357,839	-200,000	0,027	-0,120
-356,825	800,000	0,061	-0,143
-355,810	-136,918	0,031	-0,003
-354,796	349,422	0,015	0,022
-353,781	800,000	-0,037	-0,105
-352,766	-78,643	-0,104	0,026
-351,752	33,505	0,047	0,029
-350,737	-23,019	0,223	0,097
-349,723	26,511	-0,056	-0,034
-348,708	-69,122	0,067	0,019
-347,693	-58,125	-0,158	-0,050
-346,679	-200,000	0,009	-0,067
-345,664	-88,317	-0,111	0,024
-344,650	800,000	0,015	-0,038
-343,635	385,019	0,023	-0,034
-342,620	-200,000	-0,005	0,074
-341,606	227,318	0,140	0,165
-340,591	-200,000	-0,002	-0,083
-339,577	800,000	-0,018	-0,047
-338,562	22,846	-0,056	-0,033
-337,548	-200,000	-0,020	-0,068
-336,533	446,551	-0,045	-0,072
-335,518	-129,542	0,044	-0,004
-334,504	30,534	0,106	0,066
-333,489	109,805	-0,053	0,046
-332,475	219,839	0,058	0,068
-331,460	800,000	-0,018	0,042
-330,445	-134,164	0,168	-0,015
-329,431	-200,000	-0,032	-0,215
-328,416	-200,000	0,030	0,100
-327,402	-200,000	-0,005	0,052
-326,387	800,000	-0,031	-0,076
-325,372	55,986	-0,128	-0,090
-324,358	27,037	0,086	-0,052
-323,343	800,000	-0,039	-0,086
-322,329	-72,842	-0,149	0,039
-321,314	800,000	0,023	0,063
-320,299	3,427	0,059	-0,031
-319,285	673,612	-0,017	-0,032
-318,270	86,876	-0,090	-0,072
-317,256	-200,000	0,027	0,136
-316,241	-49,843	-0,107	0,037
-315,226	3,494	0,063	0,033
-314,212	800,000	0,033	0,101
-313,197	172,783	-0,067	-0,070
-312,183	800,000	0,048	-0,126
-311,168	-99,824	0,064	-0,011
-310,153	43,939	-0,039	0,026
-309,139	-200,000	-0,010	-0,072
-308,124	-200,000	-0,005	0,029
-307,110	-30,847	-0,121	-0,049
-306,095	-74,478	0,099	-0,026
-305,080	163,803	-0,039	-0,039
-304,066	98,577	0,049	0,041
-303,051	-69,544	-0,091	0,025
-302,037	-72,131	-0,057	-0,015
-301,022	53,047	0,094	-0,065
-300,008	96,012	0,074	0,061
-298,993	43,249	0,100	-0,066
-297,978	-10,463	0,117	-0,056
-296,964	-200,000	0,002	-0,101
-295,949	-54,568	-0,119	-0,039
-294,935	-200,000	0,030	-0,165
-293,920	-200,000	-0,006	0,088
-292,905	269,883	0,053	0,067
-291,891	800,000	-0,028	0,071
-290,876	-50,774	0,137	0,046
-289,862	221,098	-0,055	0,064
-288,847	639,541	-0,050	-0,092
-287,832	175,414	0,018	0,019
-286,818	-184,857	-0,034	0,000
-285,803	-90,525	0,052	0,011
-284,789	21,907	-0,028	-0,016
-283,774	800,000	-0,010	-0,025
-282,759	-77,088	-0,103	0,026
-281,745	255,322	0,035	0,044
-280,730	-200,000	-0,017	-0,252
-279,716	-76,073	0,034	0,009
-278,701	129,586	0,092	-0,085
-277,686	-103,459	0,051	0,009
-276,672	278,053	-0,120	0,154
-275,657	-200,000	-0,001	-0,038
-274,643	-114,022	0,114	0,016
-273,628	176,558	-0,122	-0,129
-272,613	-18,191	-0,092	0,041
-271,599	-62,990	0,157	-0,047
-270,584	-119,393	0,051	-0,006
-269,570	-2,159	0,019	-0,010
-268,555	-81,176	0,086	0,020
-267,540	-200,000	-0,005	0,022
-266,526	441,228	-0,052	-0,083
-265,511	-50,986	0,136	-0,046
-264,497	-200,000	-0,003	0,009
-263,482	-200,000	0,010	0,100
-262,467	-128,114	0,140	-0,014
-261,453	267,216	-0,059	0,075
-260,438	-86,773	0,104	0,023
-259,424	-51,792	-0,058	-0,019
-258,409	800,000	-0,023	0,071
-257,395	-88,432	-0,114	0,024
-256,380	-40,208	-0,084	0,031
-255,365	221,091	-0,077	0,089
-254,351	8,358	-0,041	-0,022
-253,336	-31,138	0,017	-0,007
-252,322	-200,000	0,005	-0,150
-251,307	599,853	0,107	-0,193
-250,292	-134,704	0,070	-0,006
-249,278	-200,000	0,013	0,061
-248,263	-64,940	0,068	-0,020
-247,249	186,094	-0,048	0,052
-246,234	-200,000	-0,025	-0,082
-245,219	75,012	-0,051	-0,039
-244,205	83,430	0,052	0,041
-243,190	-168,920	0,058	-0,002
-242,176	371,664	0,102	-0,150
-241,161	238,008	-0,036	-0,043
-240,146	800,000	-0,020	-0,043
-239,132	-4,640	0,047	0,023
-238,117	-62,379	-0,018	0,005
-237,103	91,166	-0,078	-0,063
-236,088	-34,521	-0,114	-0,045
-235,073	800,000	-0,034	0,083
-234,059	17,773	0,049	0,028
-233,044	-200,000	0,004	-0,185
-232,030	-55,681	-0,057	0,018
-231,015	-200,000	-0,011	-0,117
-230,000	-11,501	-0,037	-0,017
-228,986	-74,899	0,030	-0,008
-227,971	800,000	-0,065	-0,135
-226,957	179,536	0,021	0,022
-225,942	113,310	0,047	0,041
-224,927	-8,794	0,051	0,024
-223,913	180,898	-0,062	-0,066
-222,898	148,014	-0,040	-0,039
-221,884	-79,158	0,144	-0,035
-220,869	237,135	-0,099	0,119
-219,855	-200,000	0,011	0,081
-218,840	200,109	0,124	0,137
-217,825	-89,860	0,007	-0,002
-216,811	-200,000	-0,014	-0,046
-215,796	8,631	-0,061	-0,033
-214,782	206,827	0,050	0,057
-213,767	-123,011	-0,119	-0,014
-212,752	419,253	-0,012	0,018
-211,738	-4,195	-0,192	0,095
-210,723	-200,000	-0,022	0,095
-209,709	-193,359	-0,026	-0,000
-208,694	800,000	0,013	0,026
-207,679	-151,232	0,131	0,007
-206,665	117,526	0,067	0,060
-205,650	-34,643	0,164	0,065
-204,636	0,461	0,140	-0,072
-203,621	-13,474	-0,105	0,049
-202,606	36,568	0,106	-0,067
-201,592	-73,072	-0,101	-0,026
-200,577	143,717	0,087	0,083
-199,563	800,000	-0,072	0,168
-198,548	125,810	0,048	0,044
-197,533	50,524	0,056	-0,038
-196,519	69,783	0,094	0,070
-195,504	-71,515	-0,039	-0,010
-194,490	28,167	0,097	-0,059
-193,475	-33,123	-0,135	0,054
-192,460	9,568	0,081	-0,044
-191,446	209,770	0,112	-0,127
-190,431	6,105	0,052	-0,028
-189,417	-148,407	-0,233	-0,014
-188,402	-200,000	0,015	0,077
-187,387	94,475	-0,121	-0,099
-186,373	-118,422	-0,200	-0,025
-185,358	663,086	0,078	0,146
-184,344	481,906	0,044	-0,072
-183,329	-200,000	0,021	-0,098
-182,315	-200,000	-0,012	-0,054
-181,300	-158,682	0,076	0,003
-180,285	255,307	-0,011	-0,013
-179,271	31,864	-0,125	0,078
-178,256	-108,205	0,112	0,017
-177,242	234,945	0,076	0,091
-176,227	-200,000	0,013	-0,111
-175,212	-200,000	0,027	0,100
-174,198	108,800	-0,046	0,039
-173,183	179,825	0,078	-0,083
-172,169	-55,204	-0,037	0,012
-171,154	30,484	0,071	0,043
-170,139	800,000	-0,055	0,137
-169,125	-7,823	0,223	0,108
-168,110	-200,000	-0,001	0,043
-167,096	520,156	-0,025	0,042
-166,081	567,103	-0,038	-0,066
-165,066	541,410	-0,026	0,045
-164,052	567,957	0,033	0,058
-163,037	-200,000	-0,004	-0,045
-162,023	800,000	0,026	-0,082
-161,008	724,376	-0,066	-0,128
-159,993	-175,802	0,105	-0,002
-158,979	-200,000	0,002	0,061
-157,964	137,108	0,034	0,032
-156,950	250,154	-0,024	0,029
-155,935	-200,000	-0,004	0,090
-154,920	-50,880	-0,023	-0,008
-153,906	33,011	0,045	-0,028
-152,891	-200,000	-0,032	-0,165
-151,877	520,507	-0,048	-0,081
-150,862	-25,089	0,058	0,025
-149,847	-200,000	-0,005	-0,135
-148,833	670,908	0,026	0,048
-147,818	94,206	-0,019	0,015
-146,804	207,833	0,041	-0,046
-145,789	-200,000	0,017	-0,110
-144,775	-76,113	-0,133	0,033
-143,760	200,990	0,044	0,049
-142,745	-10,601	-0,165	0,078
-141,731	182,065	0,057	-0,061
-140,716	-69,051	0,055	-0,015
-139,702	-106,472	0,110	0,017
-138,687	-200,000	0,032	0,122
-137,672	186,098	0,084	0,089
-136,658	-104,973	0,020	0,003
-135,643	-200,000	0,021	-0,120
-134,629	-130,366	0,070	0,007
-133,614	133,895	0,078	0,072
-132,599	54,697	0,133	0,092
-131,585	-40,072	0,059	-0,022
-130,570	224,984	-0,076	0,089
-129,556	381,162	0,045	-0,066
-128,541	36,880	0,088	-0,056
-127,526	-200,000	0,019	-0,076
-126,512	45,116	-0,055	-0,036
-125,497	170,762	0,100	-0,103
-124,483	-60,703	0,115	0,035
-123,468	-22,735	-0,101	-0,043
-122,453	-51,850	-0,107	0,036
-121,439	-13,072	-0,076	0,035
-120,424	9,754	0,015	0,008
-119,410	-18,688	0,188	0,084
-118,395	212,566	-0,062	0,070
-117,380	-123,148	0,101	-0,011
-116,366	-200,000	0,006	0,096
-115,351	255,016	0,046	-0,057
-114,337	-93,778	-0,106	-0,021
-113,322	-200,000	0,008	-0,059
-112,307	-137,259	0,081	0,007
-111,293	635,240	-0,064	-0,116
-110,278	-122,432	0,043	0,005
-109,264	296,744	-0,028	-0,037
-108,249	-200,000	0,023	-0,101
-107,234	-200,000	0,019	-0,068
-106,220	170,145	-0,109	-0,112
-105,205	23,768	-0,054	-0,032
-104,191	-86,720	0,104	0,023
-103,176	537,380	-0,059	-0,101
-102,162	-116,241	0,027	0,004
-101,147	-176,533	-0,058	0,001
-100,132	-200,000	0,020	-0,067
-99,118	83,737	0,016	-0,013
-98,103	373,042	-0,030	-0,043
-97,089	800,000	-0,024	-0,074
-96,074	800,000	-0,028	-0,058
-95,059	111,686	0,026	0,022
-94,045	91,907	0,043	0,035
-93,030	-95,724	-0,104	-0,020
-92,016	-120,114	-0,120	0,015
-91,001	-5,882	0,155	-0,076
-89,986	-54,863	0,074	-0,024
-88,972	-200,000	-0,054	0,194
-87,957	-88,885	0,050	0,011
-86,943	800,000	0,025	0,067
-85,928	54,300	-0,066	-0,046
-84,913	-45,502	-0,093	-0,033
-83,899	800,000	0,042	-0,093
-82,884	-75,090	0,055	-0,014
-81,870	800,000	0,016	0,034
-80,855	-200,000	-0,006	0,078
-79,840	108,189	0,040	0,034
-78,826	151,181	-0,061	0,060
-77,811	253,177	0,075	-0,092
-76,797	238,843	0,082	-0,098
-75,782	-200,000	-0,027	-0,101
-74,767	800,000	0,045	-0,111
-73,753	194,564	0,059	-0,064
-72,738	-88,953	0,113	0,024
-71,724	208,076	-0,032	0,036
-70,709	120,172	-0,098	-0,087
-69,694	50,236	-0,051	0,035
-68,680	800,000	-0,037	-0,081
-67,665	-75,379	0,122	0,031
-66,651	334,304	0,055	0,076
-65,636	-46,545	-0,162	0,057
-64,622	800,000	0,068	0,171
-63,607	-38,477	-0,096	0,036
-62,592	800,000	-0,037	-0,112
-61,578	-88,316	0,096	0,020
-60,563	-200,000	-0,026	0,129
-59,549	-200,000	0,002	-0,025
-58,534	20,864	-2,103	-1,217
-57,519	-200,000	-0,129	-0,679
-56,505	-200,000	-1,274	-5,174
-55,490	73,189	0,885	0,662
-54,476	800,000	5,318	12,100
-53,461	-200,000	18,253	291,769
-52,446	800,000	729,685	2219,586
-51,432	525,636	1642,280	2779,570
-50,417	107,733	1631,732	1391,154
-49,403	72,284	1283,776	956,726
-48,388	30,682	1024,680	626,520
-47,373	19,894	986,601	567,810
-46,359	17,905	974,412	554,282
-45,344	14,825	970,321	541,901
-44,330	15,137	968,804	542,047
-43,315	14,611	966,948	539,277
-42,300	14,478	965,945	538,265
-41,286	14,424	965,179	537,642
-40,271	14,493	964,021	537,200
-39,257	14,499	963,414	536,860
-38,242	14,492	962,413	536,256
-37,227	14,510	961,508	535,791
-36,213	14,467	960,638	535,146
-35,198	14,474	959,797	534,677
-34,184	14,556	959,149	534,561
-33,169	14,408	958,190	533,527
-32,154	14,500	957,106	533,200
-31,140	14,534	956,207	532,787
-30,125	14,564	955,555	532,499
-29,111	14,566	954,592	531,947
-28,096	14,566	954,064	531,632
-27,082	14,513	953,361	531,050
-26,067	14,529	952,645	530,680
-25,052	14,497	952,021	530,208
-24,038	14,498	951,400	529,847
-23,023	14,483	950,659	529,364
-22,009	14,569	949,883	529,186
-20,994	14,546	949,192	528,706
-19,979	14,514	948,808	528,368
-18,965	14,523	947,992	527,921
-17,950	14,500	947,388	527,492
-16,936	14,506	946,856	527,196
-15,921	14,481	946,181	526,718
-14,906	14,446	945,235	526,059
-13,892	14,405	944,794	525,662
-12,877	14,409	943,972	525,196
-11,863	14,347	943,518	524,726
-10,848	14,377	943,026	524,529
-9,833	14,436	942,712	524,518
-8,819	14,445	942,000	524,131
-7,804	14,486	941,308	523,853
-6,790	14,329	940,752	523,027
-5,775	14,436	940,092	522,978
-4,760	14,407	939,584	522,583
-3,746	14,449	938,644	522,171
-2,731	14,233	938,165	521,204
-1,717	14,239	937,558	520,866
-0,702	14,273	936,696	520,471
0,313	14,089	935,990	520,289
1,327	17,548	934,121	530,052
2,342	26,756	786,788	470,579
3,356	22,941	442,706	259,141
4,371	-6,460	294,815	143,288
5,386	-10,345	276,541	130,727
6,400	-11,942	271,002	126,618
7,415	-12,027	268,692	125,450
8,429	-11,963	267,267	124,832
9,444	-12,219	266,451	124,206
10,459	-12,135	265,883	124,007
11,473	-12,404	265,232	123,449
12,488	-12,284	264,594	123,249
13,502	-12,524	263,970	122,731
14,517	-12,557	263,548	122,494
15,531	-12,454	263,115	122,374
16,546	-12,235	262,743	122,387
17,561	-12,272	262,415	122,190
18,575	-12,368	262,109	121,951
19,590	-12,415	261,652	121,686
20,604	-12,414	261,429	121,571
21,619	-12,347	261,102	121,469
22,634	-12,402	260,701	121,222
23,648	-12,692	260,414	120,820
24,663	-12,429	260,101	120,898
25,677	-12,603	259,934	120,655
26,692	-12,412	259,612	120,664
27,707	-12,362	259,228	120,519
28,721	-12,602	259,046	120,211
29,736	-12,573	258,808	120,116
30,750	-12,325	258,530	120,195
31,765	-12,561	258,239	119,841
32,780	-12,464	258,065	119,835
33,794	-12,616	257,930	119,628
34,809	-12,474	257,472	119,529
35,823	-12,533	257,366	119,418
36,838	-12,609	257,112	119,223
37,853	-12,571	256,744	119,075
38,867	-12,505	256,623	119,066
39,882	-12,705	256,325	118,742
40,896	-12,657	256,103	118,671
41,911	-12,545	255,920	118,673
42,926	-12,532	255,561	118,507
43,940	-12,481	255,335	118,436
44,955	-12,737	255,265	118,170
45,969	-12,647	255,015	118,122
46,984	-12,820	254,887	117,902
47,999	-13,075	254,573	117,525
49,013	-13,053	254,296	117,406
50,028	-13,067	253,889	117,196
51,042	-13,114	253,743	117,077
52,057	-13,322	253,386	116,722
53,071	-13,263	253,324	116,734
54,086	-13,101	253,043	116,734
55,101	-12,963	252,932	116,791
56,115	-12,754	252,877	116,935
57,130	-12,467	252,767	117,121
58,144	-12,230	252,426	117,156
59,159	-12,262	252,265	117,043
60,174	-12,507	252,109	116,750
61,188	-12,187	251,700	116,824
62,203	-12,494	251,571	116,491
63,217	-12,397	251,477	116,521
64,232	-12,328	251,284	116,480
65,247	-12,670	251,153	116,116
66,261	-12,433	250,849	116,168
67,276	-12,475	250,437	115,931
68,290	-12,691	250,252	115,651
69,305	-12,764	249,978	115,453
70,320	-12,948	249,909	115,254
71,334	-12,613	249,708	115,436
72,349	-12,462	249,677	115,539
73,363	-12,424	249,367	115,417
74,378	-12,517	249,157	115,230
75,393	-12,466	248,905	115,147
76,407	-12,408	248,596	115,043
77,422	-12,397	248,436	114,968
78,436	-12,293	248,271	114,969
79,451	-12,526	248,089	114,678
80,466	-12,353	247,738	114,652
81,480	-12,548	247,639	114,431
82,495	-12,609	247,413	114,265
83,509	-12,498	247,261	114,278
84,524	-12,593	246,995	114,065
85,539	-12,692	246,748	113,858
86,553	-12,659	246,545	113,782
87,568	-12,726	246,495	113,693
88,582	-12,683	246,294	113,626
89,597	-12,783	246,088	113,437
90,611	-12,574	245,963	113,544
91,626	-12,401	245,831	113,617
92,641	-12,367	245,577	113,518
93,655	-12,266	245,244	113,438
94,670	-12,426	245,332	113,335
95,684	-12,200	244,761	113,249
96,699	-12,557	244,744	112,935
97,714	-12,614	244,624	112,822
98,728	-12,711	244,413	112,634
99,743	-12,683	244,181	112,540
100,757	-12,711	243,964	112,407
101,772	-12,679	243,737	112,319
102,787	-12,733	243,534	112,171
103,801	-12,769	243,489	112,110
104,816	-12,446	243,335	112,296
105,830	-12,499	243,152	112,158
106,845	-12,511	243,094	112,111
107,860	-12,547	242,768	111,921
108,874	-12,536	242,532	111,811
109,889	-12,636	242,334	111,628
110,903	-12,498	242,050	111,601
111,918	-12,617	241,872	111,411
112,933	-12,706	241,830	111,308
113,947	-12,490	241,678	111,406
114,962	-12,482	241,439	111,292
115,976	-12,675	241,285	111,054
116,991	-12,568	241,204	111,094
118,006	-12,604	241,016	110,968
119,020	-12,571	240,813	110,891
120,035	-12,346	240,703	111,014
121,049	-12,423	240,558	110,875
122,064	-12,364	240,317	110,801
123,079	-12,245	240,048	110,765
124,093	-12,653	239,913	110,361
125,108	-12,553	239,665	110,318
126,122	-12,801	239,464	110,015
127,137	-13,093	239,256	109,673
128,151	-12,850	239,035	109,759
129,166	-12,703	238,907	109,809
130,181	-12,608	238,664	109,764
131,195	-12,753	238,547	109,584
132,210	-12,763	238,460	109,526
133,224	-12,345	238,153	109,711
134,239	-12,445	238,107	109,600
135,254	-12,625	237,920	109,359
136,268	-12,697	237,629	109,158
137,283	-12,857	237,464	108,944
138,297	-12,991	237,177	108,695
139,312	-12,977	237,078	108,651
140,327	-12,515	236,931	108,944
141,341	-12,208	236,946	109,187
142,356	-12,233	236,741	109,063
143,370	-12,176	236,578	109,024
144,385	-12,361	236,503	108,832
145,400	-12,192	236,199	108,817
146,414	-12,131	236,015	108,771
147,429	-12,489	235,757	108,357
148,443	-12,358	235,632	108,394
149,458	-12,159	235,565	108,513
150,473	-12,362	235,363	108,249
151,487	-12,363	235,049	108,093
152,502	-12,255	234,935	108,117
153,516	-12,257	234,785	108,037
154,531	-12,413	234,676	107,853
155,546	-12,346	234,387	107,764
156,560	-12,407	234,249	107,643
157,575	-12,356	234,058	107,586
158,589	-12,312	233,867	107,523
159,604	-12,076	233,728	107,636
160,619	-12,119	233,584	107,525
161,633	-12,149	233,592	107,496
162,648	-12,047	233,409	107,483
163,662	-12,423	233,126	107,047
164,677	-12,250	233,000	107,116
165,692	-12,275	232,952	107,064
166,706	-12,051	232,733	107,130
167,721	-11,986	232,599	107,109
168,735	-11,993	232,423	107,014
169,750	-12,226	232,342	106,784
170,764	-12,216	232,302	106,765
171,779	-12,236	231,891	106,551
172,794	-12,229	231,760	106,486
173,808	-12,075	231,575	106,512
174,823	-12,651	231,235	105,897
175,837	-12,768	231,068	105,721
176,852	-12,539	231,107	105,906
177,867	-12,409	230,925	105,915
178,881	-12,477	231,002	105,888
179,896	-12,463	230,745	105,771
180,910	-12,389	230,522	105,717
181,925	-12,118	230,438	105,879
182,940	-12,503	230,233	105,477
183,954	-12,267	230,041	105,563
184,969	-12,239	230,004	105,559
185,983	-12,003	229,766	105,622
186,998	-11,831	229,591	105,665
188,013	-12,021	229,549	105,490
189,027	-12,020	229,285	105,360
190,042	-12,049	229,113	105,249
191,056	-12,190	229,018	105,087
192,071	-12,168	228,834	105,011
193,086	-12,005	228,663	105,048
194,100	-12,026	228,499	104,947
195,115	-12,543	228,147	104,380
196,129	-12,379	228,211	104,526
197,144	-7,481	229,759	109,005
198,159	-2,443	231,278	113,620
199,173	1,287	232,279	116,998
200,188	1,732	232,299	117,342
201,202	1,485	232,045	117,013
202,217	1,711	231,927	117,118
203,232	1,957	231,727	117,197
204,246	1,973	231,639	117,154
205,261	1,994	231,595	117,137
206,275	2,294	231,417	117,268
207,290	2,241	231,197	117,105
208,304	2,098	231,190	116,981
209,319	2,193	230,902	116,898
210,334	2,156	230,660	116,737
211,348	1,846	230,360	116,337
212,363	1,526	230,401	116,101
213,377	1,291	230,188	115,803
214,392	1,326	230,051	115,750
215,407	1,667	229,886	115,918
216,421	1,743	229,733	115,890
217,436	1,601	229,483	115,644
218,450	1,527	229,246	115,458
219,465	1,324	229,299	115,319
220,480	1,453	228,951	115,232
221,494	1,454	228,917	115,206
222,509	1,643	228,929	115,346
223,523	1,718	228,700	115,277
224,538	1,620	228,482	115,082
225,553	1,672	228,301	115,020
226,567	1,601	228,215	114,913
227,582	1,647	228,246	114,953
228,596	2,095	228,053	115,185
229,611	1,803	227,723	114,788
230,626	1,285	227,576	114,311
231,640	1,514	227,372	114,372
232,655	1,785	227,405	114,583
233,669	1,990	227,197	114,623
234,684	2,246	227,253	114,835
235,699	2,059	226,943	114,527
236,713	1,724	226,719	114,151
237,728	1,709	226,458	113,998
238,742	1,443	226,331	113,723
239,757	1,568	226,296	113,789
240,772	1,757	225,890	113,717
241,786	1,500	225,951	113,545
242,801	1,837	225,915	113,770
243,815	2,245	225,799	114,007
244,830	2,109	225,618	113,803
245,844	1,792	225,334	113,413
246,859	1,672	225,321	113,306
247,874	1,801	225,184	113,324
248,888	2,061	225,017	113,424
249,903	1,761	224,901	113,132
250,917	1,710	224,709	112,987
251,932	1,499	224,511	112,720
252,947	1,670	224,167	112,664
253,961	1,510	224,132	112,518
254,976	1,729	223,969	112,588
255,990	1,920	223,888	112,679
257,005	1,951	223,830	112,663
258,020	1,785	223,697	112,463
259,034	1,771	223,519	112,353
260,049	1,953	223,418	112,427
261,063	1,837	223,120	112,182
262,078	2,011	223,112	112,297
263,093	1,969	223,180	112,290
264,107	2,156	222,852	112,252
265,122	2,090	222,626	112,080
266,136	2,190	222,587	112,125
267,151	2,166	222,557	112,081
268,166	1,700	222,128	111,513
269,180	1,308	222,010	111,155
270,195	1,537	221,833	111,224
271,209	1,527	221,703	111,142
272,224	1,605	221,682	111,179
273,239	1,836	221,389	111,191
274,253	1,586	221,414	111,011
275,268	1,088	221,117	110,487
276,282	1,330	220,901	110,546
277,297	1,557	220,908	110,706
278,312	1,618	220,672	110,623
279,326	1,715	220,590	110,642
280,341	1,729	220,490	110,593
281,355	1,686	220,425	110,519
282,370	1,730	220,212	110,435
283,384	1,548	219,979	110,175
284,399	1,407	219,789	109,967
285,414	1,522	219,809	110,051
286,428	1,630	219,550	109,990
287,443	1,678	219,626	110,053
288,457	1,757	219,433	110,005
289,472	1,617	219,218	109,785
290,487	1,263	218,934	109,377
291,501	1,111	218,805	109,192
292,516	1,362	218,556	109,240
293,530	1,203	218,670	109,172
294,545	1,440	218,379	109,188
295,560	1,399	218,353	109,136
296,574	1,780	218,215	109,332
297,589	1,760	218,082	109,241
298,603	1,698	217,998	109,145
299,618	1,573	217,759	108,926
300,633	1,781	217,711	109,042
301,647	2,110	217,519	109,173
302,662	1,944	217,597	109,082
303,676	2,047	217,370	109,032
304,691	1,963	217,241	108,898
305,706	1,722	217,045	108,617
306,720	1,995	216,973	108,767
307,735	1,624	216,741	108,375
308,749	1,791	216,454	108,342
309,764	1,905	216,503	108,438
310,779	1,872	216,382	108,344
311,793	1,718	216,165	108,116
312,808	1,796	216,129	108,144
313,822	1,786	215,994	108,060
314,837	1,807	215,722	107,929
315,852	1,439	215,621	107,607
316,866	1,656	215,516	107,699
317,881	2,009	215,432	107,899
318,895	1,936	215,102	107,671
319,910	1,476	214,923	107,246
320,925	1,358	214,761	107,072
321,939	1,209	214,458	106,807
322,954	1,227	214,625	106,892
323,968	1,711	214,544	107,185
324,983	2,019	214,478	107,361
325,997	1,947	214,295	107,209
327,012	1,972	214,036	107,087
328,027	1,675	214,089	106,895
329,041	1,931	214,038	107,041
330,056	2,013	213,596	106,867
331,070	1,899	213,533	106,746
332,085	1,618	213,406	106,475
333,100	1,488	213,390	106,366
334,114	2,036	213,083	106,589
335,129	1,849	213,038	106,425
336,143	1,806	212,894	106,314
337,158	1,888	212,683	106,256
338,173	1,631	212,576	106,014
339,187	1,487	212,444	105,838
340,202	1,417	212,106	105,610
341,216	1,653	212,141	105,783
342,231	1,501	212,067	105,631
343,246	1,419	211,908	105,485
344,260	1,336	211,822	105,375
345,275	1,958	211,846	105,812
346,289	2,565	211,755	106,180
347,304	2,362	211,433	105,868
348,319	1,940	211,316	105,506
349,333	1,947	211,208	105,448
350,348	1,842	211,174	105,348
351,362	1,918	211,094	105,352
352,377	2,063	210,688	105,240
353,392	1,908	210,638	105,098
354,406	1,908	210,416	104,979
355,421	197,768	1313,708	1394,105
356,435	158,165	1448,102	1394,077
