DTS Sentinel unit serial number:	SN410029Multiplexer serial number:	ORYXHardware model number:	OX2-SRSoftware version number:	ORYX F/W v4,00 Oryx Data Collector v3.7.2.0data status	okinstallation	B6 Nyhavnadifferential loss correction	single-endedforward channel	channel 2reverse channel	N/Adate	2023/12/08time	01:05:08forward acquisition time	300,00reverse acquisition time	0,00gamma	499,1914k internal	0,3165k external	0,3165temperature offset calibration	1,0000default loss term (dB/km)	0,3820temperature slope calibration	1,0000multiplexer offset coefficient	1,0000multiplexer slope coefficient	1,0000fibre end	0,00T internal ref (°C)	13,28T ext. ref 1 (°C)	-3,59T ext. ref 2 (°C)	-3,59length (m)	temperature (°C)	Stokes	anti-Stokes-744,400	538,964	0,024	0,042
-743,385	-98,362	-0,347	0,065
-742,371	-44,795	0,123	0,045
-741,356	-2,000	-0,235	0,121
-740,342	800,000	0,050	0,136
-739,327	-111,308	-0,323	-0,048
-738,312	8,379	0,075	-0,042
-737,298	6,123	-0,282	-0,153
-736,283	130,724	0,141	0,133
-735,269	-137,050	-0,373	0,031
-734,254	-33,744	0,126	0,051
-733,239	-17,485	-0,499	-0,230
-732,225	-63,201	0,130	0,039
-731,210	640,659	-0,023	0,042
-730,196	-200,000	-0,023	-0,111
-729,181	800,000	-0,078	-0,230
-728,167	178,323	-0,141	-0,151
-727,152	-170,403	-0,065	0,002
-726,137	-98,252	-0,147	0,027
-725,123	-200,000	0,017	0,081
-724,108	339,025	-0,061	-0,088
-723,094	6,705	-0,055	-0,030
-722,079	-200,000	0,007	-0,258
-721,064	-200,000	-0,026	-0,165
-720,050	-200,000	-0,003	0,039
-719,035	157,660	0,046	-0,047
-718,021	-147,119	-0,075	0,005
-717,006	-200,000	-0,014	-0,129
-715,991	35,818	-0,139	-0,090
-714,977	800,000	-0,041	-0,114
-713,962	-54,561	0,069	0,023
-712,948	92,625	0,042	-0,035
-711,933	-29,725	-0,116	0,048
-710,918	94,126	-0,154	-0,128
-709,904	-75,446	-0,188	-0,049
-708,889	-200,000	0,005	-0,078
-707,875	3,679	0,042	-0,022
-706,860	-134,896	0,069	0,006
-705,845	-31,999	-0,068	-0,028
-704,831	314,759	0,026	0,037
-703,816	-15,154	-0,096	-0,045
-702,802	3,160	0,126	-0,067
-701,787	-84,985	-0,053	0,012
-700,772	244,749	-0,110	-0,136
-699,758	319,406	-0,077	0,107
-698,743	-31,460	0,119	0,049
-697,729	-200,000	0,010	0,111
-696,714	-40,874	-0,042	-0,016
-695,699	-200,000	-0,020	0,110
-694,685	-200,000	-0,014	0,090
-693,670	384,385	0,058	-0,088
-692,656	-200,000	0,018	0,060
-691,641	61,783	-0,024	-0,017
-690,627	-28,428	0,161	0,068
-689,612	294,697	0,050	0,067
-688,597	800,000	-0,034	-0,088
-687,583	-49,205	-0,108	-0,037
-686,568	87,941	0,033	-0,027
-685,554	800,000	-0,026	-0,055
-684,539	800,000	0,020	-0,053
-683,524	800,000	-0,013	-0,032
-682,510	-200,000	-0,011	0,036
-681,495	800,000	-0,036	0,084
-680,481	39,423	0,104	-0,068
-679,466	-200,000	-0,019	-0,140
-678,451	-126,365	-0,100	0,011
-677,437	-200,000	-0,037	0,145
-676,422	362,086	0,041	0,060
-675,408	71,551	-0,060	0,046
-674,393	92,944	0,028	-0,024
-673,378	-159,681	-0,075	0,003
-672,364	-183,612	-0,099	0,001
-671,349	59,345	-0,076	-0,055
-670,335	3,457	0,126	0,067
-669,320	-149,467	-0,063	-0,004
-668,305	-47,834	0,094	-0,033
-667,291	-44,742	-0,017	-0,006
-666,276	207,766	0,040	0,046
-665,262	-200,000	-0,028	-0,118
-664,247	533,072	0,048	-0,083
-663,232	-200,000	0,013	0,079
-662,218	-39,092	0,024	-0,009
-661,203	-113,033	0,033	0,005
-660,189	-200,000	0,015	0,069
-659,174	800,000	-0,043	-0,133
-658,159	-193,345	-0,092	0,001
-657,145	-200,000	-0,023	-0,089
-656,130	509,262	-0,031	0,054
-655,116	-169,506	0,145	-0,004
-654,101	800,000	0,024	-0,061
-653,086	-200,000	0,030	0,116
-652,072	285,623	0,035	0,046
-651,057	-200,000	0,000	0,005
-650,043	-14,682	-0,034	-0,016
-649,028	686,237	-0,017	0,032
-648,014	34,221	-0,012	0,008
-646,999	-200,000	0,010	0,057
-645,984	-20,717	-0,073	-0,033
-644,970	-166,124	-0,045	0,001
-643,955	37,419	-0,131	-0,085
-642,941	-200,000	-0,030	-0,125
-641,926	-200,000	-0,005	0,044
-640,911	210,720	0,072	-0,084
-639,897	-200,000	-0,004	-0,048
-638,882	-200,000	-0,165	0,000
-637,868	786,367	0,023	-0,046
-636,853	-200,000	-0,004	-0,019
-635,838	-200,000	-0,034	-0,113
-634,824	800,000	-0,062	-0,152
-633,809	-165,958	0,131	0,004
-632,795	494,319	0,049	0,082
-631,780	32,593	-0,018	0,011
-630,765	125,459	-0,033	-0,031
-629,751	-77,099	-0,163	-0,041
-628,736	7,498	-0,127	-0,069
-627,722	-92,144	0,242	-0,050
-626,707	-200,000	0,009	-0,033
-625,692	195,839	-0,052	0,058
-624,678	212,990	0,023	0,027
-623,663	249,387	-0,118	0,147
-622,649	19,644	0,028	-0,016
-621,634	-200,000	-0,005	-0,070
-620,619	800,000	0,010	0,020
-619,605	551,566	0,056	-0,099
-618,590	-13,011	0,105	0,050
-617,576	46,591	-0,132	-0,090
-616,561	-200,000	-0,033	-0,179
-615,546	126,348	-0,064	0,060
-614,532	-200,000	0,023	-0,094
-613,517	249,262	0,080	-0,099
-612,503	800,000	-0,025	-0,064
-611,488	290,801	-0,075	0,100
-610,474	32,607	-0,024	0,015
-609,459	-200,000	-0,043	0,175
-608,444	457,718	0,021	-0,034
-607,430	-200,000	0,015	-0,093
-606,415	290,922	-0,048	-0,063
-605,401	-114,409	0,011	-0,002
-604,386	-39,227	0,156	-0,060
-603,371	-92,435	0,053	-0,011
-602,357	-20,051	-0,097	-0,044
-601,342	185,665	-0,044	-0,047
-600,328	132,695	-0,110	-0,104
-599,313	-125,157	0,103	-0,011
-598,298	-37,680	0,032	-0,012
-597,284	166,734	0,032	0,034
-596,269	38,749	0,093	0,061
-595,255	163,343	0,043	0,044
-594,240	40,522	-0,081	0,053
-593,225	800,000	0,036	0,082
-592,211	800,000	-0,020	-0,053
-591,196	70,164	-0,110	0,083
-590,182	126,757	0,042	0,039
-589,167	-112,914	0,053	-0,008
-588,152	20,801	-0,031	-0,018
-587,138	800,000	-0,013	0,030
-586,123	79,663	0,089	0,069
-585,109	269,745	0,007	0,008
-584,094	-200,000	0,019	-0,139
-583,079	494,123	0,049	0,083
-582,065	800,000	-0,058	-0,160
-581,050	-70,281	0,141	0,039
-580,036	-4,565	-0,090	0,045
-579,021	800,000	0,030	-0,068
-578,006	126,076	-0,071	0,065
-576,992	-200,000	0,008	0,049
-575,977	-106,903	0,047	0,008
-574,963	-200,000	0,019	0,091
-573,948	96,433	0,097	0,081
-572,934	-200,000	0,006	-0,099
-571,919	290,488	0,078	-0,104
-570,904	-25,210	-0,127	-0,055
-569,890	-172,574	-0,154	-0,003
-568,875	800,000	0,061	0,188
-567,861	343,975	0,024	0,035
-566,846	800,000	0,057	-0,156
-565,831	-200,000	-0,003	0,023
-564,817	-200,000	-0,028	0,131
-563,802	800,000	-0,066	-0,151
-562,788	-200,000	-0,011	-0,076
-561,773	800,000	-0,025	0,079
-560,758	-55,899	0,039	0,013
-559,744	-200,000	0,007	0,097
-558,729	66,498	0,059	0,044
-557,715	-64,473	-0,177	-0,052
-556,700	-200,000	-0,004	-0,083
-555,685	195,917	0,049	0,055
-554,671	-200,000	-0,030	-0,120
-553,656	-200,000	-0,019	0,148
-552,642	54,110	0,054	-0,038
-551,627	-200,000	0,009	-0,065
-550,612	156,338	-0,151	-0,153
-549,598	-95,986	-0,126	-0,024
-548,583	-200,000	0,018	-0,115
-547,569	-32,246	-0,049	0,020
-546,554	-73,323	0,065	-0,017
-545,539	451,328	-0,021	0,034
-544,525	-200,000	-0,018	-0,147
-543,510	-109,385	-0,135	0,021
-542,496	-88,963	-0,154	-0,033
-541,481	22,888	0,039	-0,024
-540,466	-200,000	0,005	-0,028
-539,452	-200,000	0,024	0,081
-538,437	800,000	0,027	0,069
-537,423	17,949	-0,051	0,029
-536,408	59,326	-0,069	0,050
-535,393	120,153	0,039	0,035
-534,379	72,154	-0,064	-0,049
-533,364	800,000	-0,044	-0,094
-532,350	-200,000	0,006	0,051
-531,335	107,664	-0,017	-0,014
-530,321	800,000	0,013	-0,037
-529,306	232,508	0,046	0,055
-528,291	-200,000	0,007	0,095
-527,277	-200,000	-0,011	-0,047
-526,262	505,118	0,037	-0,063
-525,248	101,344	-0,138	-0,117
-524,233	97,493	0,050	0,042
-523,218	-70,913	-0,052	0,014
-522,204	800,000	0,041	0,102
-521,189	35,867	0,035	0,022
-520,175	666,463	0,073	-0,139
-519,160	-200,000	0,014	-0,049
-518,145	-114,697	0,053	0,007
-517,131	391,717	0,044	0,066
-516,116	-117,215	0,138	-0,018
-515,102	-200,000	0,006	-0,021
-514,087	-26,198	-0,133	0,057
-513,072	168,153	-0,102	0,106
-512,058	800,000	-0,072	0,151
-511,043	759,620	0,032	0,063
-510,029	-20,630	-0,060	0,027
-509,014	183,969	0,035	-0,037
-507,999	800,000	-0,023	0,072
-506,985	-200,000	-0,003	0,113
-505,970	-200,000	-0,003	-0,112
-504,956	-109,521	-0,082	0,013
-503,941	-175,942	0,050	-0,001
-502,926	133,356	0,096	-0,091
-501,912	-114,126	-0,200	-0,028
-500,897	-200,000	0,024	0,145
-499,883	603,816	-0,024	0,043
-498,868	71,137	0,075	-0,057
-497,853	163,963	0,024	-0,024
-496,839	261,345	0,057	-0,072
-495,824	-52,421	-0,132	0,044
-494,810	-200,000	0,021	0,114
-493,795	800,000	0,010	0,022
-492,781	-8,661	0,135	0,066
-491,766	-200,000	-0,003	-0,112
-490,751	-200,000	0,009	-0,103
-489,737	-200,000	-0,007	0,035
-488,722	-67,155	-0,073	-0,021
-487,708	-200,000	0,011	0,066
-486,693	-191,523	0,064	-0,000
-485,678	-200,000	0,006	0,026
-484,664	-97,558	-0,161	0,030
-483,649	-200,000	0,003	-0,051
-482,635	-20,358	-0,017	0,008
-481,620	146,320	0,143	-0,140
-480,605	-200,000	0,006	-0,046
-479,591	-146,979	-0,039	0,002
-478,576	-200,000	0,009	-0,038
-477,562	466,321	-0,043	0,071
-476,547	195,364	-0,019	0,022
-475,532	160,219	0,034	-0,034
-474,518	262,945	-0,117	0,148
-473,503	283,513	-0,091	0,120
-472,489	339,817	-0,034	-0,049
-471,474	-200,000	0,026	0,088
-470,459	417,244	-0,038	-0,060
-469,445	-117,254	-0,053	-0,007
-468,430	-166,946	-0,038	-0,001
-467,416	386,044	-0,096	0,144
-466,401	180,300	-0,051	0,055
-465,386	37,478	0,073	-0,047
-464,372	-186,296	0,065	-0,001
-463,357	-200,000	0,022	0,072
-462,343	462,078	0,054	-0,088
-461,328	321,856	-0,060	-0,083
-460,313	522,646	0,016	-0,027
-459,299	-168,742	0,095	-0,003
-458,284	-11,545	0,198	0,094
-457,270	-200,000	0,062	0,216
-456,255	135,858	0,096	-0,091
-455,241	-194,491	0,071	-0,000
-454,226	-117,947	-0,112	-0,014
-453,211	42,058	0,089	0,058
-452,197	-70,760	0,072	0,020
-451,182	236,372	0,041	0,050
-450,168	800,000	0,046	-0,120
-449,153	-12,431	-0,127	-0,060
-448,138	443,823	-0,050	-0,080
-447,124	-200,000	0,001	0,108
-446,109	-196,735	0,065	0,000
-445,095	98,034	0,076	0,064
-444,080	-113,315	0,080	0,011
-443,065	-163,133	0,106	-0,004
-442,051	71,438	-0,059	-0,044
-441,036	800,000	-0,021	-0,063
-440,022	300,093	0,029	-0,039
-439,007	-200,000	-0,049	-0,184
-437,992	296,364	0,128	0,171
-436,978	-200,000	0,003	0,016
-435,963	800,000	-0,033	0,093
-434,949	800,000	0,040	0,083
-433,934	-103,339	0,078	0,013
-432,919	23,349	0,142	0,084
-431,905	-200,000	-0,004	-0,013
-430,890	29,499	-0,021	-0,013
-429,876	60,179	0,048	-0,035
-428,861	-200,000	0,005	-0,132
-427,846	126,885	0,046	0,043
-426,832	115,382	-0,039	0,035
-425,817	307,554	0,032	-0,044
-424,803	619,362	0,029	-0,053
-423,788	-200,000	0,004	0,089
-422,773	559,853	0,113	0,198
-421,759	100,602	-0,155	0,131
-420,744	-200,000	0,006	-0,066
-419,730	124,709	0,039	0,036
-418,715	-40,069	-0,045	0,017
-417,701	460,128	-0,064	-0,103
-416,686	-70,379	0,114	0,031
-415,671	-131,799	0,087	-0,008
-414,657	358,954	-0,018	-0,027
-413,642	-200,000	-0,005	-0,109
-412,628	-200,000	-0,095	0,000
-411,613	-94,703	0,051	0,010
-410,598	618,163	-0,047	-0,086
-409,584	203,251	-0,023	0,026
-408,569	-200,000	0,011	0,077
-407,555	-39,346	0,008	0,003
-406,540	-200,000	-0,001	0,102
-405,525	800,000	-0,012	-0,031
-404,511	-140,918	0,142	-0,010
-403,496	590,390	-0,070	-0,126
-402,482	-18,593	0,055	0,025
-401,467	-108,408	0,055	-0,009
-400,452	-119,949	0,119	0,015
-399,438	-84,817	0,165	-0,037
-398,423	151,454	-0,024	-0,024
-397,409	-118,052	-0,039	-0,005
-396,394	-200,000	-0,029	0,112
-395,379	-200,000	0,006	-0,091
-394,365	1,327	0,122	0,063
-393,350	-36,333	0,123	0,048
-392,336	3,940	0,140	0,074
-391,321	-125,968	-0,096	-0,010
-390,306	145,696	-0,026	-0,025
-389,292	0,808	-0,073	0,038
-388,277	124,324	0,048	-0,044
-387,263	-48,696	-0,124	-0,043
-386,248	188,487	0,033	0,036
-385,233	-200,000	-0,016	0,085
-384,219	-163,927	0,138	0,005
-383,204	800,000	-0,028	-0,073
-382,190	130,766	-0,007	-0,006
-381,175	800,000	-0,039	0,111
-380,160	178,198	0,072	0,076
-379,146	32,153	0,107	-0,067
-378,131	235,235	-0,054	-0,065
-377,117	663,610	-0,070	0,131
-376,102	-200,000	0,007	-0,088
-375,088	800,000	-0,059	-0,173
-374,073	-200,000	-0,011	-0,056
-373,058	-152,142	0,086	-0,004
-372,044	-109,649	0,110	0,017
-371,029	-115,809	0,065	-0,009
-370,015	800,000	-0,024	0,049
-369,000	-56,244	-0,025	0,008
-367,985	90,350	-0,075	-0,061
-366,971	256,172	0,058	0,073
-365,956	-200,000	0,004	-0,089
-364,942	111,819	0,029	0,026
-363,927	800,000	-0,026	0,068
-362,912	-35,156	-0,057	0,022
-361,898	103,626	-0,073	-0,062
-360,883	587,168	0,016	0,028
-359,869	370,654	-0,116	-0,172
-358,854	387,528	-0,059	-0,089
-357,839	-79,717	0,149	0,036
-356,825	-200,000	0,029	0,244
-355,810	-186,458	-0,125	-0,001
-354,796	800,000	-0,033	-0,077
-353,781	356,490	0,022	0,031
-352,766	16,922	0,058	0,033
-351,752	-200,000	-0,019	-0,194
-350,737	59,103	0,115	0,082
-349,723	-78,927	0,076	0,018
-348,708	800,000	0,039	0,124
-347,693	190,531	-0,071	0,077
-346,679	-64,466	-0,061	-0,018
-345,664	-151,848	-0,116	0,006
-344,650	800,000	0,004	0,008
-343,635	-67,054	0,090	-0,025
-342,620	68,695	-0,111	-0,082
-341,606	-200,000	0,003	0,037
-340,591	-200,000	0,009	0,185
-339,577	-200,000	-0,007	-0,053
-338,562	800,000	-0,035	0,096
-337,548	-200,000	-0,128	0,000
-336,533	800,000	0,027	-0,058
-335,518	-200,000	0,035	0,132
-334,504	254,635	-0,121	0,151
-333,489	-200,000	0,003	0,029
-332,475	-9,181	0,089	-0,043
-331,460	3,446	-0,065	-0,034
-330,445	403,131	0,044	0,068
-329,431	-23,965	0,065	-0,028
-328,416	314,836	0,077	0,106
-327,402	-61,375	-0,114	0,034
-326,387	-129,861	0,026	0,003
-325,372	-57,754	-0,120	-0,038
-324,358	-28,675	0,016	-0,007
-323,343	263,465	0,076	0,096
-322,329	60,832	-0,093	-0,066
-321,314	497,580	0,008	-0,013
-320,299	-97,222	-0,051	-0,010
-319,285	48,225	0,034	-0,023
-318,270	190,912	0,027	-0,030
-317,256	59,235	-0,011	0,008
-316,241	143,526	0,100	-0,096
-315,226	371,303	-0,021	0,031
-314,212	237,497	0,057	0,069
-313,197	800,000	0,034	0,074
-312,183	-106,234	-0,116	0,019
-311,168	58,179	-0,062	0,044
-310,153	800,000	-0,062	-0,150
-309,139	268,659	-0,093	-0,118
-308,124	-139,294	-0,100	0,008
-307,110	-200,000	0,015	0,126
-306,095	800,000	0,063	0,191
-305,080	-49,134	0,106	0,036
-304,066	-200,000	-0,012	0,049
-303,051	-21,802	-0,044	0,019
-302,037	-200,000	0,024	-0,092
-301,022	138,694	-0,081	-0,077
-300,008	-42,544	0,125	0,046
-298,993	800,000	-0,025	0,061
-297,978	158,969	0,064	0,064
-296,964	-61,465	-0,117	-0,035
-295,949	465,397	0,058	-0,094
-294,935	800,000	-0,020	-0,047
-293,920	-66,885	0,036	0,010
-292,905	131,663	0,092	0,085
-291,891	800,000	0,066	0,202
-290,876	800,000	-0,022	-0,045
-289,862	203,724	0,030	-0,034
-288,847	-5,408	-0,125	-0,062
-287,832	400,255	-0,043	-0,066
-286,818	800,000	-0,013	0,038
-285,803	-36,670	-0,049	-0,019
-284,789	-9,336	0,049	0,023
-283,774	-15,493	-0,076	-0,035
-282,759	800,000	-0,022	0,060
-281,745	47,565	0,049	0,033
-280,730	383,145	-0,112	-0,167
-279,716	651,733	-0,054	-0,101
-278,701	23,266	0,037	-0,022
-277,686	-60,457	0,051	0,016
-276,672	800,000	0,022	-0,045
-275,657	28,501	0,026	-0,016
-274,643	1,178	0,079	-0,041
-273,628	800,000	0,099	-0,211
-272,613	-200,000	0,014	0,105
-271,599	800,000	0,023	0,061
-270,584	800,000	-0,023	0,062
-269,570	800,000	-0,007	-0,016
-268,555	331,458	-0,033	-0,046
-267,540	137,287	0,028	-0,027
-266,526	624,302	0,051	-0,094
-265,511	24,712	-0,095	-0,057
-264,497	800,000	0,040	0,111
-263,482	180,776	0,097	0,103
-262,467	58,350	0,132	-0,094
-261,453	800,000	-0,002	0,007
-260,438	-30,475	-0,143	-0,058
-259,424	800,000	0,027	-0,067
-258,409	-200,000	-0,008	-0,175
-257,395	-3,056	-0,087	0,044
-256,380	-154,275	0,139	-0,007
-255,365	800,000	0,014	-0,033
-254,351	-200,000	-0,006	0,054
-253,336	-200,000	0,001	-0,030
-252,322	800,000	-0,082	-0,191
-251,307	192,809	-0,051	-0,055
-250,292	191,288	-0,070	0,077
-249,278	36,294	0,145	0,092
-248,263	292,879	0,063	0,083
-247,249	-6,755	-0,049	-0,024
-246,234	109,164	-0,081	0,070
-245,219	107,139	-0,045	-0,038
-244,205	-200,000	-0,011	-0,041
-243,190	-99,374	0,109	-0,020
-242,176	-50,961	0,108	-0,036
-241,161	151,679	0,071	0,070
-240,146	116,475	0,173	0,153
-239,132	-113,666	-0,042	0,006
-238,117	226,599	0,093	-0,109
-237,103	-48,058	-0,114	0,039
-236,088	-200,000	0,025	-0,139
-235,073	153,500	0,031	-0,031
-234,059	800,000	0,026	0,080
-233,044	800,000	0,031	0,071
-232,030	800,000	0,015	0,031
-231,015	-162,042	-0,090	0,003
-230,000	546,418	-0,038	-0,066
-228,986	-36,935	-0,126	-0,049
-227,971	-29,414	0,059	0,024
-226,957	800,000	0,016	0,036
-225,942	-32,344	0,050	-0,020
-224,927	800,000	0,051	0,156
-223,913	-71,609	-0,087	0,023
-222,898	-185,177	-0,136	0,001
-221,884	13,458	0,049	-0,028
-220,869	800,000	0,036	-0,096
-219,855	307,571	0,055	-0,074
-218,840	-200,000	0,052	-0,000
-217,825	-200,000	0,010	-0,169
-216,811	94,310	0,066	-0,054
-215,796	800,000	-0,037	0,080
-214,782	-29,047	-0,099	-0,041
-213,767	141,899	0,083	-0,079
-212,752	-102,201	0,026	0,005
-211,738	507,587	-0,056	-0,094
-210,723	-132,085	-0,019	-0,002
-209,709	452,968	0,037	-0,059
-208,694	279,478	0,082	-0,105
-207,679	-5,143	-0,033	-0,016
-206,665	-62,251	-0,055	-0,016
-205,650	183,505	0,078	0,083
-204,636	-200,000	0,000	-0,055
-203,621	-200,000	-0,040	0,154
-202,606	-116,645	0,047	0,006
-201,592	-89,493	-0,057	0,012
-200,577	-58,589	0,182	-0,057
-199,563	-200,000	0,005	0,017
-198,548	-70,595	0,099	0,027
-197,533	217,118	-0,039	0,045
-196,519	316,672	0,033	0,045
-195,504	-161,340	-0,014	-0,001
-194,490	60,266	-0,059	0,042
-193,475	-136,919	-0,124	0,010
-192,460	221,112	0,067	-0,077
-191,446	-3,889	-0,043	-0,021
-190,431	757,294	-0,044	0,086
-189,417	611,936	-0,041	0,074
-188,402	213,328	0,054	-0,062
-187,387	800,000	-0,018	-0,051
-186,373	-71,410	-0,085	0,023
-185,358	-84,776	-0,132	-0,030
-184,344	-141,337	-0,036	0,003
-183,329	340,212	0,058	0,081
-182,315	-200,000	0,007	0,118
-181,300	-29,275	-0,050	0,021
-180,285	800,000	-0,051	-0,144
-179,271	733,439	0,025	0,049
-178,256	-14,119	0,098	0,045
-177,242	800,000	0,014	-0,044
-176,227	-53,031	-0,025	0,008
-175,212	7,768	-0,041	0,022
-174,198	-0,895	0,084	0,042
-173,183	-178,362	-0,077	-0,001
-172,169	800,000	-0,067	-0,177
-171,154	279,456	-0,126	-0,163
-170,139	-64,262	0,079	0,023
-169,125	30,209	0,067	0,041
-168,110	-200,000	0,019	0,108
-167,096	176,086	0,078	-0,082
-166,081	571,665	-0,057	0,101
-165,066	-18,500	-0,106	0,047
-164,052	-46,714	-0,133	-0,046
-163,037	-67,769	0,038	-0,011
-162,023	800,000	0,015	0,036
-161,008	483,116	0,030	0,049
-159,993	192,608	-0,128	0,140
-158,979	-97,369	0,092	0,017
-157,964	2,046	-0,053	-0,027
-156,950	25,370	-0,184	0,110
-155,935	198,821	0,058	0,064
-154,920	95,266	0,112	0,092
-153,906	800,000	0,027	0,060
-152,891	226,433	-0,089	-0,105
-151,877	800,000	-0,042	-0,083
-150,862	-147,888	0,068	0,004
-149,847	-200,000	0,000	-0,017
-148,833	780,153	0,013	-0,025
-147,818	-200,000	0,002	-0,141
-146,804	-39,808	-0,089	0,033
-145,789	800,000	0,029	0,082
-144,775	25,335	-0,104	0,062
-143,760	-200,000	-0,009	-0,079
-142,745	-153,801	-0,114	0,006
-141,731	-200,000	0,025	0,100
-140,716	800,000	0,036	0,096
-139,702	160,035	0,063	0,063
-138,687	611,126	0,023	0,042
-137,672	-167,356	-0,050	-0,001
-136,658	221,344	-0,050	-0,057
-135,643	40,831	-0,124	-0,080
-134,629	-55,187	-0,113	0,036
-133,614	-185,233	0,132	-0,001
-132,599	800,000	-0,064	0,165
-131,585	-200,000	0,012	0,115
-130,570	-200,000	0,027	-0,154
-129,556	-200,000	-0,024	-0,129
-128,541	-71,240	-0,129	-0,034
-127,526	1,996	-0,039	-0,020
-126,512	-56,024	-0,070	0,022
-125,497	203,889	-0,038	0,042
-124,483	-90,259	-0,035	0,007
-123,468	69,078	0,038	-0,028
-122,453	-49,292	0,135	-0,046
-121,439	-125,116	-0,068	0,007
-120,424	-80,462	-0,075	-0,018
-119,410	-200,000	-0,000	-0,046
-118,395	-200,000	-0,017	-0,122
-117,380	-91,205	0,124	-0,025
-116,366	-200,000	0,001	-0,040
-115,351	255,730	-0,056	-0,070
-114,337	-129,160	-0,149	-0,015
-113,322	-136,774	0,208	0,017
-112,307	133,821	0,064	-0,060
-111,293	-63,098	0,058	-0,017
-110,278	-5,244	-0,159	-0,078
-109,264	-2,432	-0,046	-0,023
-108,249	226,766	-0,043	0,051
-107,234	800,000	-0,034	0,091
-106,220	-86,301	0,178	0,039
-105,205	357,118	0,046	0,066
-104,191	563,091	0,034	-0,059
-103,176	-84,620	0,075	0,017
-102,162	377,402	0,086	-0,127
-101,147	119,534	0,074	-0,066
-100,132	-16,498	-0,052	-0,024
-99,118	259,382	0,048	-0,060
-98,103	18,535	0,045	0,026
-97,089	800,000	-0,105	0,267
-96,074	122,002	-0,021	0,018
-95,059	-200,000	0,020	-0,119
-94,045	518,058	-0,069	0,116
-93,030	-105,461	0,047	0,008
-92,016	576,829	-0,073	-0,128
-91,001	-69,608	0,174	-0,047
-89,986	-200,000	0,014	0,078
-88,972	-108,020	-0,022	0,003
-87,957	-58,863	-0,139	-0,043
-86,943	-106,182	-0,042	-0,007
-85,928	-85,335	-0,033	0,007
-84,913	140,508	-0,112	-0,106
-83,899	-138,599	-0,066	0,005
-82,884	-142,239	0,097	0,007
-81,870	-200,000	-0,027	0,185
-80,855	-129,554	-0,169	0,017
-79,840	-200,000	0,013	-0,194
-78,826	-200,000	-0,027	-0,095
-77,811	145,301	0,058	0,056
-76,797	-52,127	-0,068	0,023
-75,782	-200,000	-0,018	-0,109
-74,767	-200,000	-0,024	-0,142
-73,753	-11,266	-0,045	0,021
-72,738	-105,135	-0,126	0,020
-71,724	800,000	-0,021	0,058
-70,709	-82,117	-0,062	-0,014
-69,694	-200,000	-0,015	0,054
-68,680	62,095	0,036	-0,026
-67,665	-51,037	0,157	0,053
-66,651	317,899	0,042	0,056
-65,636	-200,000	-0,010	-0,064
-64,622	260,466	-0,079	-0,098
-63,607	-200,000	-0,006	-0,208
-62,592	-41,797	0,088	0,032
-61,578	-200,000	0,004	-0,037
-60,563	161,948	0,059	0,059
-59,549	464,770	0,012	-0,019
-58,534	56,200	-2,200	-1,528
-57,519	-200,000	-0,066	-0,745
-56,505	-200,000	-1,366	-5,190
-55,490	108,584	0,839	0,718
-54,476	800,000	5,300	12,185
-53,461	-200,000	18,733	318,470
-52,446	800,000	740,989	2322,008
-51,432	549,573	1654,398	2850,918
-50,417	109,994	1637,486	1406,636
-49,403	73,566	1288,016	964,846
-48,388	29,723	1029,514	626,091
-47,373	19,636	992,421	570,195
-46,359	17,016	980,040	554,455
-45,344	13,657	976,027	541,150
-44,330	14,018	974,492	541,461
-43,315	13,371	972,768	538,365
-42,300	13,274	971,701	537,436
-41,286	13,344	970,554	537,010
-40,271	13,295	969,818	536,422
-39,257	13,310	968,989	535,990
-38,242	13,349	968,027	535,563
-37,227	13,322	967,279	535,042
-36,213	13,279	966,424	534,404
-35,198	13,286	965,314	533,794
-34,184	13,306	964,675	533,486
-33,169	13,221	963,949	532,787
-32,154	13,315	962,853	532,462
-31,140	13,317	961,947	531,948
-30,125	13,381	961,181	531,710
-29,111	13,292	960,513	531,031
-28,096	13,336	959,715	530,712
-27,082	13,335	959,057	530,323
-26,067	13,263	958,379	529,694
-25,052	13,328	957,426	529,358
-24,038	13,286	956,809	528,859
-23,023	13,316	956,163	528,577
-22,009	13,356	955,502	528,320
-20,994	13,311	955,007	527,880
-19,979	13,325	954,375	527,555
-18,965	13,313	953,628	527,082
-17,950	13,304	953,162	526,776
-16,936	13,301	952,413	526,331
-15,921	13,301	951,712	525,925
-14,906	13,223	950,923	525,218
-13,892	13,230	950,301	524,875
-12,877	13,214	949,918	524,591
-11,863	13,195	949,163	524,094
-10,848	13,169	948,650	523,707
-9,833	13,292	948,183	523,819
-8,819	13,194	947,603	523,168
-7,804	13,249	946,725	522,837
-6,790	13,212	946,134	522,370
-5,775	13,279	945,678	522,312
-4,760	13,249	944,934	521,783
-3,746	13,255	944,443	521,511
-2,731	13,082	943,787	520,580
-1,717	13,001	943,171	519,963
-0,702	12,997	942,440	519,525
0,313	12,767	941,898	519,283
1,327	16,314	939,716	529,237
2,342	25,568	790,143	469,378
3,356	21,624	444,677	258,293
4,371	-7,689	297,562	143,349
5,386	-11,501	279,309	130,908
6,400	-12,834	273,700	127,020
7,415	-12,977	271,266	125,747
8,429	-13,152	269,791	124,891
9,444	-13,268	269,015	124,414
10,459	-13,209	268,363	124,155
11,473	-13,254	267,566	123,734
12,488	-13,242	267,023	123,482
13,502	-13,418	266,543	123,090
14,517	-13,310	266,199	123,017
15,531	-13,348	265,816	122,795
16,546	-13,166	265,243	122,684
17,561	-13,325	264,921	122,381
18,575	-13,154	264,454	122,309
19,590	-13,300	264,286	122,088
20,604	-13,008	263,947	122,184
21,619	-13,380	263,748	121,746
22,634	-13,341	263,288	121,558
23,648	-13,494	263,063	121,305
24,663	-13,322	262,669	121,268
25,677	-13,171	262,440	121,286
26,692	-13,421	262,260	120,968
27,707	-13,387	261,880	120,813
28,721	-13,489	261,673	120,615
29,736	-13,387	261,238	120,496
30,750	-13,433	261,079	120,370
31,765	-13,360	260,794	120,293
32,780	-13,359	260,584	120,186
33,794	-13,416	260,416	120,047
34,809	-13,520	260,050	119,776
35,823	-13,314	259,852	119,856
36,838	-13,530	259,697	119,583
37,853	-13,375	259,265	119,510
38,867	-13,475	259,114	119,342
39,882	-13,564	258,884	119,147
40,896	-13,556	258,735	119,075
41,911	-13,499	258,385	118,953
42,926	-13,466	258,182	118,877
43,940	-13,462	257,866	118,725
44,955	-13,462	257,693	118,635
45,969	-13,557	257,331	118,375
46,984	-13,948	257,199	117,960
47,999	-13,969	256,850	117,771
49,013	-14,190	256,614	117,460
50,028	-14,310	256,477	117,282
51,042	-14,021	256,145	117,372
52,057	-14,372	255,795	116,894
53,071	-14,324	255,715	116,890
54,086	-14,157	255,591	116,968
55,101	-13,965	255,374	117,025
56,115	-13,670	255,187	117,186
57,130	-13,401	255,150	117,392
58,144	-13,191	255,116	117,548
59,159	-13,017	254,663	117,479
60,174	-13,163	254,439	117,239
61,188	-13,119	254,268	117,188
62,203	-13,429	254,113	116,838
63,217	-13,273	253,875	116,853
64,232	-13,248	253,643	116,757
65,247	-13,377	253,616	116,623
66,261	-13,338	253,076	116,398
67,276	-13,531	253,024	116,198
68,290	-13,632	252,657	115,932
69,305	-13,963	252,404	115,521
70,320	-13,873	252,189	115,490
71,334	-13,522	252,110	115,744
72,349	-13,364	251,833	115,742
73,363	-13,222	251,749	115,815
74,378	-13,084	251,515	115,815
75,393	-13,405	251,346	115,452
76,407	-13,529	251,137	115,240
77,422	-13,323	250,829	115,264
78,436	-13,421	250,748	115,133
79,451	-13,368	250,384	115,001
80,466	-13,393	250,221	114,894
81,480	-13,666	250,113	114,602
82,495	-13,772	249,741	114,332
83,509	-13,463	249,476	114,462
84,524	-13,488	249,424	114,407
85,539	-13,648	248,985	114,061
86,553	-13,897	248,993	113,843
87,568	-13,833	248,877	113,834
88,582	-13,616	248,530	113,848
89,597	-13,679	248,304	113,682
90,611	-13,745	248,136	113,540
91,626	-13,273	247,963	113,847
92,641	-13,534	247,918	113,597
93,655	-13,323	247,582	113,610
94,670	-13,417	247,516	113,490
95,684	-13,658	247,315	113,186
96,699	-13,581	247,146	113,163
97,714	-13,599	246,932	113,040
98,728	-13,540	246,596	112,926
99,743	-13,838	246,481	112,614
100,757	-13,813	246,280	112,533
101,772	-13,618	246,052	112,581
102,787	-13,629	245,829	112,460
103,801	-13,297	245,643	112,641
104,816	-13,473	245,599	112,464
105,830	-13,354	245,385	112,455
106,845	-13,288	245,196	112,414
107,860	-13,359	245,057	112,281
108,874	-13,284	244,781	112,207
109,889	-13,388	244,515	111,988
110,903	-13,501	244,379	111,823
111,918	-13,606	244,314	111,696
112,933	-13,527	244,045	111,629
113,947	-13,592	243,938	111,515
114,962	-13,526	243,675	111,440
115,976	-13,240	243,577	111,621
116,991	-13,383	243,287	111,360
118,006	-13,356	243,230	111,347
119,020	-13,503	243,199	111,202
120,035	-13,413	243,086	111,214
121,049	-13,191	242,677	111,199
122,064	-13,303	242,656	111,088
123,079	-13,202	242,296	110,996
124,093	-13,649	242,083	110,522
125,108	-13,641	242,005	110,483
126,122	-13,735	241,603	110,213
127,137	-13,973	241,384	109,909
128,151	-13,607	241,082	110,060
129,166	-13,710	241,090	109,970
130,181	-13,831	240,969	109,807
131,195	-13,840	240,683	109,660
132,210	-13,538	240,522	109,822
133,224	-13,495	240,391	109,786
134,239	-13,356	240,317	109,856
135,254	-13,525	240,075	109,599
136,268	-13,443	239,706	109,487
137,283	-13,916	239,591	109,041
138,297	-13,874	239,298	108,932
139,312	-13,982	239,194	108,788
140,327	-13,568	239,047	109,046
141,341	-13,129	239,090	109,411
142,356	-13,268	239,079	109,284
143,370	-13,114	238,639	109,197
144,385	-13,121	238,511	109,123
145,400	-13,429	238,469	108,846
146,414	-12,877	238,015	109,072
147,429	-13,303	238,021	108,723
148,443	-13,184	237,880	108,745
149,458	-13,283	237,606	108,531
150,473	-12,983	237,391	108,663
151,487	-13,113	237,156	108,442
152,502	-13,176	237,143	108,376
153,516	-12,985	236,877	108,397
154,531	-13,257	236,736	108,106
155,546	-13,045	236,523	108,167
156,560	-13,481	236,412	107,759
157,575	-13,461	236,257	107,695
158,589	-13,347	236,148	107,727
159,604	-13,064	235,851	107,807
160,619	-12,916	235,742	107,865
161,633	-12,984	235,610	107,741
162,648	-12,942	235,398	107,668
163,662	-13,254	235,329	107,379
164,677	-13,298	235,200	107,276
165,692	-13,187	234,777	107,161
166,706	-12,862	234,826	107,431
167,721	-12,869	234,719	107,368
168,735	-12,967	234,582	107,217
169,750	-13,076	234,397	107,037
170,764	-13,017	234,177	106,974
171,779	-13,286	234,070	106,703
172,794	-12,963	233,963	106,899
173,808	-12,947	233,535	106,707
174,823	-13,636	233,431	106,108
175,837	-13,840	233,149	105,810
176,852	-13,374	233,152	106,168
177,867	-13,196	233,100	106,275
178,881	-13,169	232,957	106,221
179,896	-13,081	232,908	106,258
180,910	-12,988	232,576	106,170
181,925	-12,999	232,435	106,088
182,940	-12,938	232,212	106,025
183,954	-12,848	232,061	106,016
184,969	-13,063	232,069	105,842
185,983	-13,007	232,008	105,849
186,998	-13,033	231,728	105,692
188,013	-13,023	231,642	105,650
189,027	-12,994	231,379	105,544
190,042	-12,919	231,220	105,520
191,056	-12,944	231,076	105,426
192,071	-12,962	230,843	105,296
193,086	-12,869	230,856	105,365
194,100	-13,097	230,662	105,090
195,115	-13,220	229,976	104,673
196,129	-13,576	230,241	104,508
197,144	-8,045	231,744	109,487
198,159	-2,810	233,622	114,463
199,173	1,602	234,899	118,542
200,188	2,697	235,021	119,452
201,202	2,715	234,846	119,366
202,217	2,718	234,709	119,288
203,232	2,873	234,526	119,305
204,246	3,152	234,290	119,393
205,261	3,081	234,221	119,292
206,275	3,127	234,134	119,272
207,290	3,300	234,037	119,347
208,304	2,997	233,789	118,974
209,319	3,116	233,648	118,985
210,334	3,066	233,400	118,809
211,348	2,907	233,149	118,547
212,363	2,347	233,104	118,078
213,377	2,276	232,768	117,843
214,392	2,297	232,625	117,776
215,407	2,583	232,385	117,866
216,421	2,696	232,329	117,914
217,436	2,608	232,152	117,746
218,450	2,205	231,923	117,308
219,465	2,053	231,821	117,128
220,480	2,108	231,636	117,067
221,494	2,279	231,387	117,063
222,509	2,386	231,392	117,136
223,523	2,339	231,397	117,092
224,538	2,402	231,182	117,022
225,553	2,349	231,022	116,890
226,567	2,373	230,846	116,809
227,582	2,513	230,768	116,866
228,596	2,762	230,652	116,988
229,611	2,399	230,483	116,614
230,626	2,311	230,080	116,332
231,640	2,144	230,154	116,231
232,655	2,589	229,850	116,408
233,669	2,682	229,873	116,480
234,684	3,044	229,666	116,641
235,699	2,752	229,583	116,366
236,713	2,686	229,322	116,172
237,728	2,490	229,202	115,953
238,742	2,471	228,932	115,790
239,757	2,406	228,887	115,708
240,772	2,447	228,705	115,638
241,786	2,398	228,386	115,428
242,801	2,622	228,526	115,658
243,815	2,743	228,390	115,671
244,830	2,736	228,416	115,669
245,844	2,425	228,087	115,256
246,859	2,536	227,864	115,218
247,874	2,558	227,796	115,190
248,888	2,715	227,716	115,258
249,903	2,533	227,455	114,978
250,917	2,373	227,235	114,736
251,932	2,430	227,109	114,705
252,947	2,352	226,784	114,472
253,961	2,276	226,673	114,348
254,976	2,169	226,678	114,260
255,990	2,690	226,607	114,606
257,005	2,566	226,459	114,428
258,020	2,583	226,375	114,388
259,034	2,684	226,351	114,441
260,049	2,573	225,943	114,141
261,063	2,745	225,830	114,203
262,078	2,760	225,665	114,120
263,093	2,871	225,771	114,247
264,107	2,799	225,451	114,021
265,122	2,624	225,443	113,876
266,136	2,745	225,360	113,915
267,151	2,876	225,080	113,861
268,166	2,518	224,736	113,410
269,180	2,392	224,441	113,158
270,195	2,147	224,573	113,031
271,209	2,162	224,422	112,957
272,224	2,325	224,185	112,948
273,239	2,432	224,200	113,025
274,253	2,299	223,917	112,774
275,268	2,377	223,622	112,673
276,282	2,456	223,453	112,636
277,297	2,107	223,217	112,249
278,312	2,287	223,401	112,465
279,326	2,239	223,265	112,351
280,341	2,582	223,144	112,533
281,355	2,556	223,105	112,484
282,370	2,540	222,810	112,313
283,384	2,110	222,589	111,876
284,399	1,789	222,387	111,528
285,414	2,210	222,292	111,780
286,428	2,564	222,303	112,036
287,443	2,765	222,102	112,072
288,457	2,477	221,983	111,791
289,472	2,508	221,687	111,654
290,487	2,094	221,502	111,247
291,501	1,913	221,278	110,992
292,516	1,926	221,204	110,956
293,530	2,028	221,067	110,952
294,545	2,123	220,795	110,875
295,560	2,216	220,968	111,020
296,574	2,734	220,799	111,303
297,589	2,359	220,662	110,951
298,603	2,565	220,574	111,046
299,618	2,534	220,390	110,921
300,633	2,331	220,397	110,767
301,647	2,899	220,126	111,034
302,662	2,385	220,052	110,613
303,676	2,630	219,877	110,693
304,691	2,680	219,765	110,663
305,706	2,535	219,639	110,484
306,720	2,639	219,361	110,410
307,735	2,418	219,290	110,204
308,749	2,518	218,954	110,098
309,764	2,445	218,965	110,041
310,779	2,835	218,861	110,261
311,793	2,725	218,671	110,076
312,808	2,445	218,572	109,814
313,822	2,370	218,499	109,714
314,837	2,649	218,163	109,736
315,852	2,152	218,220	109,397
316,866	2,618	218,047	109,635
317,881	2,554	217,876	109,494
318,895	2,610	217,683	109,427
319,910	2,294	217,499	109,099
320,925	2,084	217,209	108,793
321,939	1,615	217,028	108,356
322,954	1,908	216,959	108,523
323,968	2,512	217,066	108,998
324,983	2,615	216,970	109,015
325,997	2,634	216,843	108,954
327,012	2,605	216,649	108,827
328,027	2,699	216,551	108,835
329,041	2,836	216,374	108,834
330,056	2,852	216,371	108,834
331,070	2,511	216,082	108,436
332,085	2,242	215,865	108,126
333,100	2,281	215,871	108,147
334,114	2,477	215,561	108,121
335,129	2,593	215,477	108,152
336,143	2,410	215,274	107,911
337,158	2,348	215,133	107,787
338,173	2,369	215,095	107,773
339,187	1,983	214,917	107,400
340,202	1,950	214,782	107,301
341,216	2,719	214,811	107,849
342,231	2,666	214,660	107,726
343,246	2,686	214,408	107,604
344,260	2,562	214,450	107,528
345,275	2,464	214,322	107,385
346,289	2,650	214,079	107,385
347,304	2,729	213,865	107,324
348,319	2,555	213,678	107,098
349,333	2,454	213,618	106,987
350,348	2,425	213,634	106,965
351,362	3,094	213,438	107,328
352,377	2,755	213,261	106,991
353,392	2,333	213,199	106,655
354,406	2,619	212,894	106,693
355,421	197,726	1313,564	1393,558
356,435	158,209	1447,607	1393,502
