DTS Sentinel unit serial number:	SN410029Multiplexer serial number:	ORYXHardware model number:	OX2-SRSoftware version number:	ORYX F/W v4,00 Oryx Data Collector v3.7.2.0data status	okinstallation	B6 Nyhavnadifferential loss correction	single-endedforward channel	channel 2reverse channel	N/Adate	2023/12/10time	04:40:08forward acquisition time	300,00reverse acquisition time	0,00gamma	499,1914k internal	0,3125k external	0,3125temperature offset calibration	1,0000default loss term (dB/km)	0,3820temperature slope calibration	1,0000multiplexer offset coefficient	1,0000multiplexer slope coefficient	1,0000fibre end	0,00T internal ref (°C)	22,25T ext. ref 1 (°C)	6,31T ext. ref 2 (°C)	6,28length (m)	temperature (°C)	Stokes	anti-Stokes-744,400	-9,073	0,086	-0,043
-743,385	-148,384	-0,194	0,012
-742,371	406,127	-0,025	-0,039
-741,356	144,376	-0,144	0,143
-740,342	46,342	0,081	-0,056
-739,327	-61,669	-0,234	0,073
-738,312	37,042	0,199	-0,131
-737,298	-13,359	-0,146	0,071
-736,283	-200,000	-0,003	-0,038
-735,269	226,469	-0,147	0,178
-734,254	-65,097	0,084	0,025
-733,239	-103,142	-0,428	-0,075
-732,225	-200,000	0,009	-0,108
-731,210	-200,000	0,028	-0,094
-730,196	-25,328	-0,066	-0,029
-729,181	-17,249	0,022	-0,010
-728,167	-51,456	0,037	0,013
-727,152	-200,000	-0,011	0,131
-726,137	787,323	-0,037	-0,077
-725,123	800,000	-0,031	-0,094
-724,108	150,280	-0,103	-0,104
-723,094	105,722	-0,109	-0,096
-722,079	586,698	-0,085	-0,156
-721,064	562,981	-0,073	0,131
-720,050	33,700	-0,124	0,080
-719,035	-130,833	0,032	-0,003
-718,021	322,773	0,058	0,083
-717,006	-200,000	-0,028	-0,112
-715,991	-134,410	-0,223	-0,020
-714,977	500,307	-0,019	-0,032
-713,962	-73,833	-0,070	0,019
-712,948	-200,000	-0,010	0,094
-711,933	553,528	0,046	-0,082
-710,918	800,000	-0,065	-0,142
-709,904	287,155	-0,096	-0,130
-708,889	-200,000	-0,007	-0,140
-707,875	800,000	-0,014	0,044
-706,860	-5,780	0,060	-0,031
-705,845	-44,716	0,034	0,013
-704,831	800,000	-0,030	0,096
-703,816	101,799	-0,030	0,026
-702,802	-54,278	-0,121	-0,041
-701,787	313,449	-0,092	-0,129
-700,772	-32,301	-0,105	-0,043
-699,758	185,690	-0,083	-0,092
-698,743	218,322	0,087	0,103
-697,729	43,297	-0,060	-0,041
-696,714	-200,000	0,000	0,070
-695,699	287,255	-0,054	0,072
-694,685	44,099	-0,088	-0,060
-693,670	-200,000	0,024	-0,084
-692,656	713,988	-0,121	-0,240
-691,641	779,558	0,003	-0,007
-690,627	-162,835	0,107	0,004
-689,612	-200,000	-0,000	0,020
-688,597	-200,000	0,020	-0,150
-687,583	-200,000	0,007	-0,025
-686,568	237,102	-0,121	-0,149
-685,554	-200,000	0,043	-0,146
-684,539	-200,000	-0,018	0,080
-683,524	501,738	0,021	0,036
-682,510	373,392	-0,049	0,075
-681,495	-157,373	-0,018	0,001
-680,481	800,000	0,055	-0,145
-679,466	133,298	-0,029	-0,028
-678,451	-10,276	-0,040	0,020
-677,437	800,000	-0,007	-0,017
-676,422	800,000	0,032	0,078
-675,408	-110,972	-0,049	-0,007
-674,393	29,950	-0,058	0,037
-673,378	-98,842	0,069	-0,013
-672,364	-36,405	-0,135	0,054
-671,349	-200,000	0,020	0,083
-670,335	-105,531	0,164	-0,027
-669,320	127,928	-0,034	-0,032
-668,305	597,121	0,013	0,024
-667,291	-200,000	0,003	0,014
-666,276	-200,000	0,008	0,074
-665,262	800,000	-0,041	-0,115
-664,247	-31,438	0,126	-0,053
-663,232	6,281	-0,080	0,044
-662,218	-139,019	0,006	0,000
-661,203	-109,603	0,106	-0,016
-660,189	800,000	0,044	0,102
-659,174	-56,636	-0,039	-0,013
-658,159	-40,555	-0,124	0,048
-657,145	-10,249	-0,129	-0,063
-656,130	-91,334	-0,108	-0,023
-655,116	304,436	-0,049	-0,068
-654,101	-200,000	-0,005	0,025
-653,086	-151,895	0,063	0,003
-652,072	285,527	-0,116	-0,156
-651,057	455,114	0,050	-0,082
-650,043	-99,615	-0,138	0,025
-649,028	368,805	-0,110	-0,166
-648,014	-30,841	0,017	-0,007
-646,999	-5,360	0,100	0,051
-645,984	376,809	-0,033	-0,050
-644,970	130,514	0,028	0,026
-643,955	306,136	-0,125	-0,173
-642,941	334,154	0,081	-0,116
-641,926	356,203	-0,030	-0,044
-640,911	-44,807	0,066	-0,024
-639,897	222,890	-0,013	0,016
-638,882	-28,415	0,028	0,012
-637,868	557,142	-0,078	-0,140
-636,853	752,237	0,061	-0,123
-635,838	-200,000	-0,012	0,074
-634,824	-200,000	-0,004	-0,112
-633,809	-97,053	-0,117	-0,023
-632,795	86,865	0,033	0,027
-631,780	-50,087	-0,129	0,045
-630,765	800,000	0,026	-0,066
-629,751	-200,000	0,009	-0,045
-628,736	-200,000	0,018	-0,064
-627,722	213,678	-0,040	-0,047
-626,707	80,373	0,094	-0,075
-625,692	588,080	-0,052	0,095
-624,678	-200,000	0,014	-0,137
-623,663	-200,000	0,063	0,000
-622,649	22,930	-0,118	0,072
-621,634	-40,513	-0,127	-0,049
-620,619	162,502	0,043	-0,044
-619,605	-106,775	0,152	-0,025
-618,590	800,000	-0,028	-0,057
-617,576	800,000	0,011	0,037
-616,561	53,755	-0,044	-0,031
-615,546	800,000	-0,043	-0,126
-614,532	-32,757	0,138	0,057
-613,517	115,501	-0,061	-0,055
-612,503	-75,161	0,103	-0,027
-611,488	37,950	0,067	0,044
-610,474	54,107	0,043	0,031
-609,459	41,367	-0,131	-0,087
-608,444	-200,000	-0,001	-0,036
-607,430	-149,680	-0,103	-0,006
-606,415	51,405	-0,096	-0,067
-605,401	800,000	-0,031	-0,084
-604,386	-54,039	0,109	-0,037
-603,371	-200,000	-0,009	0,198
-602,357	246,816	0,051	-0,064
-601,342	482,153	0,013	0,021
-600,328	-200,000	-0,001	-0,050
-599,313	-56,568	-0,054	0,018
-598,298	-23,769	0,119	0,053
-597,284	185,137	0,061	0,067
-596,269	-200,000	-0,018	0,060
-595,255	-200,000	0,012	-0,063
-594,240	-153,280	-0,014	-0,001
-593,225	800,000	-0,015	-0,036
-592,211	-86,241	-0,093	-0,021
-591,196	-200,000	0,028	0,143
-590,182	-96,988	-0,062	-0,012
-589,167	78,811	0,026	-0,021
-588,152	-72,589	0,054	-0,015
-587,138	108,685	-0,046	-0,040
-586,123	-35,442	-0,121	0,048
-585,109	680,495	0,047	-0,090
-584,094	-200,000	0,009	-0,092
-583,079	-133,001	0,044	-0,004
-582,065	41,178	0,107	0,072
-581,050	-200,000	0,001	0,036
-580,036	75,407	-0,083	-0,065
-579,021	-200,000	-0,007	0,086
-578,006	-200,000	-0,039	-0,133
-576,992	-101,975	-0,150	-0,027
-575,977	114,188	-0,043	-0,039
-574,963	-138,255	0,079	-0,006
-573,948	800,000	-0,021	-0,056
-572,934	800,000	0,014	0,031
-571,919	-21,563	-0,121	0,054
-570,904	-200,000	-0,014	0,087
-569,890	-40,172	-0,112	-0,043
-568,875	20,036	0,094	-0,056
-567,861	-27,197	0,082	-0,035
-566,846	-60,382	0,050	0,016
-565,831	800,000	0,078	0,170
-564,817	800,000	0,011	0,034
-563,802	-73,114	-0,127	0,034
-562,788	324,228	0,088	-0,124
-561,773	-69,766	0,066	0,018
-560,758	270,038	-0,052	0,067
-559,744	171,264	0,090	0,095
-558,729	-160,126	-0,041	0,002
-557,715	44,336	-0,068	-0,046
-556,700	140,397	-0,069	-0,067
-555,685	379,746	-0,007	-0,011
-554,671	800,000	-0,018	-0,047
-553,656	-200,000	0,029	0,119
-552,642	-200,000	0,043	0,160
-551,627	-67,799	0,089	0,026
-550,612	-114,744	0,079	0,011
-549,598	6,557	-0,145	-0,079
-548,583	-160,524	0,041	-0,002
-547,569	177,934	0,085	-0,091
-546,554	-26,226	-0,048	-0,021
-545,539	-104,695	-0,020	0,003
-544,525	204,435	0,033	-0,038
-543,510	-125,309	0,073	0,008
-542,496	-56,329	-0,048	-0,016
-541,481	231,000	0,041	-0,050
-540,466	200,044	0,007	0,008
-539,452	-16,897	0,041	0,019
-538,437	581,393	-0,029	-0,052
-537,423	-200,000	0,031	0,143
-536,408	-200,000	0,002	0,015
-535,393	800,000	-0,096	-0,217
-534,379	-200,000	-0,040	-0,193
-533,364	-200,000	0,030	-0,122
-532,350	93,036	0,063	0,052
-531,335	485,010	0,071	0,120
-530,321	322,765	0,045	0,064
-529,306	-138,226	-0,160	0,013
-528,291	175,733	-0,071	-0,077
-527,277	154,579	-0,039	-0,040
-526,262	-44,912	-0,099	0,036
-525,248	55,294	0,020	-0,014
-524,233	800,000	0,009	0,024
-523,218	163,758	-0,044	-0,046
-522,204	158,435	0,033	-0,033
-521,189	206,793	0,071	-0,082
-520,175	-200,000	0,017	-0,114
-519,160	-6,884	-0,161	-0,081
-518,145	45,826	0,166	-0,113
-517,131	-49,147	-0,063	-0,022
-516,116	-200,000	-0,006	0,039
-515,102	141,468	0,037	0,036
-514,087	-200,000	-0,024	-0,172
-513,072	800,000	-0,043	-0,138
-512,058	-200,000	-0,015	0,072
-511,043	-100,073	-0,079	0,014
-510,029	20,393	0,021	0,012
-509,014	19,733	0,031	-0,018
-507,999	-200,000	0,002	0,034
-506,985	-173,283	0,082	-0,002
-505,970	79,611	-0,026	-0,020
-504,956	55,787	-0,034	0,024
-503,941	544,034	0,091	-0,161
-502,926	-200,000	0,007	-0,054
-501,912	800,000	0,037	0,096
-500,897	178,485	-0,037	0,040
-499,883	102,849	0,109	0,094
-498,868	572,490	0,011	0,019
-497,853	279,373	0,022	0,029
-496,839	76,862	0,076	0,060
-495,824	69,617	-0,102	0,078
-494,810	-200,000	0,008	0,076
-493,795	-114,556	0,084	-0,012
-492,781	190,189	-0,015	0,016
-491,766	136,785	0,033	-0,032
-490,751	-200,000	-0,024	-0,113
-489,737	-41,387	-0,086	-0,033
-488,722	-102,175	-0,040	0,007
-487,708	-141,006	0,080	0,006
-486,693	800,000	-0,057	-0,167
-485,678	800,000	-0,035	0,099
-484,664	271,252	-0,073	-0,095
-483,649	214,482	-0,078	-0,092
-482,635	-155,443	0,176	0,008
-481,620	-107,352	0,115	0,018
-480,605	800,000	0,029	0,069
-479,591	-200,000	0,012	0,072
-478,576	441,608	-0,023	-0,038
-477,562	800,000	-0,033	-0,086
-476,547	800,000	-0,026	0,062
-475,532	-115,024	0,107	-0,015
-474,518	-25,767	-0,029	-0,012
-473,503	205,640	-0,069	0,079
-472,489	123,724	0,066	0,061
-471,474	800,000	0,055	0,137
-470,459	164,509	-0,050	-0,052
-469,445	800,000	-0,009	0,022
-468,430	-6,932	0,009	-0,005
-467,416	-200,000	-0,025	0,180
-466,401	-200,000	0,007	0,095
-465,386	-107,498	0,048	0,008
-464,372	-200,000	0,011	0,163
-463,357	107,464	0,076	-0,067
-462,343	114,466	-0,036	-0,033
-461,328	87,726	0,030	-0,024
-460,313	11,068	0,136	0,077
-459,299	-105,923	0,073	0,012
-458,284	164,505	-0,090	0,093
-457,270	-200,000	-0,040	0,181
-456,255	205,524	0,022	0,025
-455,241	800,000	-0,036	-0,091
-454,226	-150,260	-0,126	0,007
-453,211	0,468	-0,017	-0,009
-452,197	163,098	0,056	0,058
-451,182	-200,000	0,011	0,040
-450,168	800,000	0,024	-0,064
-449,153	-200,000	-0,011	0,096
-448,138	800,000	0,030	0,082
-447,124	790,107	0,018	-0,037
-446,109	16,937	-0,038	0,022
-445,095	-68,207	-0,024	0,007
-444,080	120,365	0,082	0,075
-443,065	-200,000	-0,024	0,126
-442,051	243,346	0,061	-0,076
-441,036	-106,524	0,099	-0,016
-440,022	38,116	-0,078	0,051
-439,007	46,705	0,037	-0,025
-437,992	197,200	0,045	0,050
-436,978	51,481	0,142	0,099
-435,963	-64,643	-0,049	0,014
-434,949	800,000	0,021	-0,047
-433,934	-200,000	0,022	-0,121
-432,919	-129,515	-0,067	0,007
-431,905	-200,000	0,001	-0,117
-430,890	221,086	-0,033	0,039
-429,876	-73,797	-0,107	0,028
-428,861	12,728	-0,074	0,042
-427,846	146,154	-0,071	0,070
-426,832	-200,000	0,024	0,000
-425,817	-200,000	0,033	0,159
-424,803	233,010	0,026	0,032
-423,788	-105,297	-0,024	0,004
-422,773	-5,355	0,063	0,032
-421,759	-123,379	0,078	0,009
-420,744	800,000	0,015	0,032
-419,730	413,255	0,049	-0,077
-418,715	-200,000	0,004	-0,123
-417,701	-200,000	0,004	0,056
-416,686	30,807	0,053	0,033
-415,671	361,619	0,007	-0,010
-414,657	-200,000	0,007	-0,054
-413,642	334,245	0,021	0,030
-412,628	-200,000	-0,005	0,128
-411,613	800,000	-0,016	0,034
-410,598	-25,118	-0,018	0,008
-409,584	-72,823	-0,121	0,033
-408,569	239,647	-0,060	0,074
-407,555	-5,235	0,070	-0,035
-406,540	242,725	0,034	0,042
-405,525	20,947	-0,059	-0,035
-404,511	291,243	-0,062	0,083
-403,496	164,204	0,043	0,044
-402,482	-153,012	-0,051	-0,003
-401,467	800,000	0,011	0,034
-400,452	-32,514	-0,107	0,044
-399,438	582,194	-0,036	-0,066
-398,423	-91,032	-0,103	-0,022
-397,409	800,000	-0,029	-0,070
-396,394	800,000	-0,027	-0,089
-395,379	54,089	-0,119	0,084
-394,365	-108,284	0,239	0,038
-393,350	-64,533	-0,052	-0,015
-392,336	-107,121	0,047	0,008
-391,321	266,440	0,028	-0,036
-390,306	800,000	-0,075	-0,178
-389,292	-17,405	0,058	0,027
-388,277	423,287	0,044	-0,070
-387,263	-165,176	0,145	-0,005
-386,248	-172,978	0,098	0,002
-385,233	800,000	0,018	0,040
-384,219	83,334	0,134	-0,107
-383,204	-65,313	0,048	-0,014
-382,190	-200,000	-0,016	0,122
-381,175	374,115	-0,036	-0,054
-380,160	57,488	0,101	-0,073
-379,146	282,197	-0,062	0,082
-378,131	300,376	0,048	0,066
-377,117	800,000	-0,092	0,196
-376,102	-140,153	0,132	-0,010
-375,088	154,553	0,048	-0,049
-374,073	40,589	-0,109	-0,072
-373,058	27,077	0,047	0,029
-372,044	-200,000	-0,003	0,073
-371,029	215,387	0,072	0,083
-370,015	-127,073	0,115	0,012
-369,000	800,000	0,087	-0,188
-367,985	-109,494	-0,074	-0,011
-366,971	65,162	-0,029	-0,022
-365,956	27,663	0,085	0,053
-364,942	92,970	0,029	0,024
-363,927	120,964	0,076	0,069
-362,912	243,342	-0,106	-0,131
-361,898	101,058	-0,061	-0,052
-360,883	-200,000	0,007	-0,052
-359,869	43,808	0,090	0,060
-358,854	-23,092	0,058	-0,025
-357,839	798,190	0,039	0,079
-356,825	-178,463	0,099	0,002
-355,810	-200,000	-0,027	0,090
-354,796	-200,000	0,006	-0,055
-353,781	604,970	-0,016	0,029
-352,766	-32,000	-0,163	0,066
-351,752	394,844	-0,053	0,082
-350,737	800,000	0,049	0,125
-349,723	253,070	0,037	0,047
-348,708	126,469	-0,062	0,058
-347,693	-200,000	0,026	0,109
-346,679	-200,000	0,007	-0,048
-345,664	800,000	0,043	-0,134
-344,650	451,952	0,035	0,057
-343,635	712,395	-0,026	0,050
-342,620	-171,903	0,153	0,004
-341,606	-200,000	-0,011	0,038
-340,591	11,109	-0,148	0,083
-339,577	-101,139	-0,172	-0,031
-338,562	-44,326	0,099	0,036
-337,548	-200,000	0,008	-0,035
-336,533	-110,192	0,043	-0,007
-335,518	-200,000	0,007	-0,069
-334,504	239,843	0,060	0,074
-333,489	209,429	-0,059	0,068
-332,475	-141,108	-0,054	0,004
-331,460	-5,212	0,075	0,037
-330,445	43,179	-0,152	0,102
-329,431	800,000	-0,008	0,022
-328,416	101,452	0,012	0,010
-327,402	206,473	0,056	0,064
-326,387	-200,000	0,002	-0,031
-325,372	148,400	-0,011	-0,011
-324,358	-8,211	-0,179	-0,088
-323,343	-200,000	-0,010	-0,152
-322,329	800,000	0,036	0,075
-321,314	-23,559	-0,087	0,038
-320,299	-174,574	0,028	0,001
-319,285	-39,404	-0,108	0,041
-318,270	800,000	0,011	0,022
-317,256	-169,259	-0,135	0,004
-316,241	-12,287	-0,056	-0,027
-315,226	-43,523	0,151	0,056
-314,212	-30,355	0,088	-0,036
-313,197	-91,409	0,057	0,012
-312,183	-200,000	0,019	0,164
-311,168	-200,000	0,012	-0,072
-310,153	-99,345	-0,069	0,013
-309,139	-57,155	0,103	-0,033
-308,124	589,420	-0,022	0,039
-307,110	-17,333	0,101	0,046
-306,095	111,137	0,016	-0,014
-305,080	-85,393	-0,031	-0,007
-304,066	-200,000	0,007	-0,023
-303,051	-43,511	-0,142	-0,052
-302,037	497,050	-0,060	-0,101
-301,022	172,540	0,047	-0,049
-300,008	24,990	0,065	-0,039
-298,993	-39,391	0,048	0,018
-297,978	-160,342	0,056	0,002
-296,964	54,862	0,199	-0,141
-295,949	-53,290	-0,128	0,043
-294,935	96,959	-0,037	0,031
-293,920	-69,252	-0,059	-0,016
-292,905	-74,420	0,094	-0,025
-291,891	-99,779	0,096	0,018
-290,876	-57,465	0,104	-0,033
-289,862	-56,627	0,047	-0,015
-288,847	-28,282	-0,076	-0,032
-287,832	338,041	0,047	-0,067
-286,818	800,000	-0,075	0,155
-285,803	-115,884	0,140	0,019
-284,789	-200,000	0,007	-0,079
-283,774	800,000	-0,051	0,123
-282,759	46,203	-0,117	0,079
-281,745	295,553	-0,096	-0,129
-280,730	108,280	-0,177	-0,155
-279,716	-200,000	-0,037	0,124
-278,701	-12,120	0,108	0,052
-277,686	438,020	0,073	0,116
-276,672	-200,000	-0,013	0,057
-275,657	34,392	-0,091	-0,058
-274,643	800,000	-0,024	0,075
-273,628	-196,843	-0,064	-0,000
-272,613	800,000	-0,005	-0,014
-271,599	-179,089	0,035	0,001
-270,584	50,939	-0,028	0,019
-269,570	108,155	-0,099	0,087
-268,555	-200,000	-0,013	0,049
-267,540	462,298	-0,029	0,048
-266,526	-200,000	-0,003	-0,056
-265,511	97,399	0,061	-0,051
-264,497	-200,000	0,001	-0,061
-263,482	382,345	-0,080	0,120
-262,467	85,521	0,087	0,070
-261,453	358,497	0,068	0,099
-260,438	-200,000	0,029	0,117
-259,424	20,652	0,053	0,031
-258,409	800,000	0,065	-0,138
-257,395	334,799	0,056	-0,079
-256,380	29,789	-0,049	0,031
-255,365	788,742	-0,044	0,088
-254,351	-200,000	-0,004	-0,033
-253,336	-101,544	-0,049	0,009
-252,322	-41,421	-0,031	-0,011
-251,307	-29,731	-0,094	-0,039
-250,292	-12,905	-0,092	0,044
-249,278	-200,000	0,011	0,090
-248,263	-102,975	-0,082	0,014
-247,249	11,343	-0,074	0,041
-246,234	476,053	-0,010	-0,017
-245,219	62,123	0,035	-0,026
-244,205	-200,000	0,009	-0,129
-243,190	87,889	0,042	-0,034
-242,176	8,695	0,032	0,018
-241,161	357,597	0,050	0,073
-240,146	641,760	0,026	0,048
-239,132	237,816	-0,036	0,044
-238,117	241,581	0,041	-0,050
-237,103	-200,000	0,006	-0,028
-236,088	12,398	-0,040	-0,023
-235,073	321,553	-0,065	0,091
-234,059	-175,189	0,028	0,001
-233,044	108,409	0,079	0,069
-232,030	-109,782	-0,086	0,013
-231,015	72,279	-0,126	0,096
-230,000	-112,531	-0,115	0,017
-228,986	-70,071	0,106	-0,029
-227,971	800,000	0,066	-0,204
-226,957	-200,000	-0,008	0,030
-225,942	-34,125	-0,072	-0,029
-224,927	-154,382	0,101	0,005
-223,913	-200,000	-0,003	0,081
-222,898	-200,000	0,013	-0,138
-221,884	25,569	-0,144	-0,087
-220,869	639,134	0,051	-0,095
-219,855	-53,690	-0,100	0,033
-218,840	23,730	-0,061	-0,036
-217,825	800,000	-0,020	-0,049
-216,811	-200,000	0,001	0,065
-215,796	443,484	-0,013	-0,021
-214,782	175,090	0,053	0,056
-213,767	38,071	0,043	-0,028
-212,752	800,000	0,046	0,123
-211,738	466,577	0,066	-0,108
-210,723	98,304	-0,071	0,060
-209,709	-97,673	-0,059	-0,011
-208,694	91,030	-0,152	0,125
-207,679	20,664	0,078	0,046
-206,665	24,185	0,039	-0,024
-205,650	106,322	0,134	0,115
-204,636	32,695	0,081	-0,051
-203,621	206,654	-0,085	0,097
-202,606	-200,000	0,014	-0,076
-201,592	147,753	0,061	-0,060
-200,577	9,059	-0,219	-0,120
-199,563	-200,000	0,013	0,062
-198,548	-49,642	0,068	0,023
-197,533	-134,755	0,057	0,005
-196,519	800,000	-0,033	-0,070
-195,504	84,015	-0,193	-0,154
-194,490	-200,000	0,007	-0,088
-193,475	-200,000	-0,026	-0,099
-192,460	-160,836	0,116	-0,004
-191,446	-71,322	-0,079	0,021
-190,431	298,697	0,053	-0,071
-189,417	203,548	0,091	0,103
-188,402	-200,000	-0,007	-0,100
-187,387	-99,154	-0,137	0,025
-186,373	800,000	-0,039	-0,117
-185,358	-116,888	-0,053	0,007
-184,344	65,607	-0,101	0,075
-183,329	-145,066	0,149	-0,010
-182,315	-150,736	0,051	-0,003
-181,300	-67,201	0,112	-0,032
-180,285	-200,000	-0,006	-0,029
-179,271	800,000	-0,033	-0,098
-178,256	28,452	-0,072	-0,044
-177,242	103,128	0,079	0,067
-176,227	-85,173	-0,071	-0,016
-175,212	800,000	0,041	-0,129
-174,198	800,000	-0,022	-0,052
-173,183	-37,526	-0,136	-0,053
-172,169	493,493	-0,015	0,025
-171,154	800,000	-0,049	0,112
-170,139	118,723	0,079	0,071
-169,125	-122,729	0,044	-0,005
-168,110	201,289	0,081	0,091
-167,096	-41,000	-0,068	-0,025
-166,081	-200,000	-0,002	0,128
-165,066	-200,000	-0,033	-0,142
-164,052	-8,241	0,039	0,019
-163,037	118,878	-0,053	0,047
-162,023	-199,241	0,035	0,000
-161,008	-200,000	0,022	0,125
-159,993	-200,000	0,001	-0,135
-158,979	800,000	-0,048	-0,113
-157,964	630,737	-0,030	-0,056
-156,950	508,860	-0,041	0,069
-155,935	-136,415	-0,092	0,008
-154,920	-49,834	0,074	-0,025
-153,906	88,967	0,118	0,095
-152,891	-200,000	0,005	0,070
-151,877	254,783	-0,056	-0,070
-150,862	800,000	-0,024	-0,060
-149,847	-134,584	-0,114	-0,010
-148,833	-200,000	0,020	0,077
-147,818	-200,000	-0,003	0,012
-146,804	-198,411	-0,050	-0,000
-145,789	36,793	0,142	0,091
-144,775	-157,111	-0,033	0,001
-143,760	-177,364	0,060	-0,001
-142,745	3,329	-0,103	-0,055
-141,731	-86,035	0,043	0,010
-140,716	156,951	0,029	-0,030
-139,702	73,410	0,057	0,043
-138,687	-48,689	0,054	0,019
-137,672	-200,000	-0,002	0,090
-136,658	800,000	-0,056	-0,139
-135,643	25,712	0,091	-0,055
-134,629	800,000	-0,019	-0,060
-133,614	-200,000	0,026	0,103
-132,599	171,768	0,076	0,079
-131,585	193,906	0,020	0,023
-130,570	-115,696	-0,069	0,009
-129,556	-200,000	-0,016	-0,072
-128,541	20,088	-0,022	0,013
-127,526	-92,428	-0,098	-0,020
-126,512	532,759	0,013	-0,022
-125,497	-200,000	-0,017	0,168
-124,483	800,000	-0,018	-0,038
-123,468	-153,538	-0,113	-0,006
-122,453	-119,866	-0,087	0,011
-121,439	98,145	0,068	-0,057
-120,424	65,790	0,079	-0,058
-119,410	211,584	0,065	-0,075
-118,395	162,182	0,054	-0,055
-117,380	-200,000	0,001	-0,149
-116,366	-54,000	-0,103	0,034
-115,351	571,882	-0,024	0,043
-114,337	-6,315	0,064	0,032
-113,322	-200,000	0,020	-0,072
-112,307	102,791	-0,072	-0,061
-111,293	179,230	-0,003	-0,003
-110,278	-200,000	-0,005	-0,060
-109,264	-200,000	0,000	0,079
-108,249	-200,000	-0,011	0,077
-107,234	-70,022	-0,143	-0,039
-106,220	-200,000	0,018	-0,070
-105,205	-73,504	0,066	0,017
-104,191	-20,961	0,169	0,075
-103,176	800,000	-0,029	0,084
-102,162	-184,266	0,103	0,001
-101,147	-134,020	-0,030	-0,003
-100,132	-110,465	0,108	0,016
-99,118	117,188	0,041	-0,037
-98,103	-106,982	0,082	-0,013
-97,089	-200,000	-0,011	0,100
-96,074	451,426	-0,048	0,078
-95,059	-31,184	0,124	0,050
-94,045	-200,000	0,022	-0,079
-93,030	512,548	-0,045	-0,077
-92,016	226,353	-0,037	0,043
-91,001	84,372	-0,087	0,069
-89,986	800,000	-0,043	0,122
-88,972	800,000	0,026	-0,070
-87,957	246,447	0,023	-0,028
-86,943	-69,750	-0,096	0,026
-85,928	800,000	0,032	-0,093
-84,913	206,336	-0,058	-0,065
-83,899	223,655	0,047	0,056
-82,884	-59,682	-0,049	0,015
-81,870	89,120	0,109	0,088
-80,855	181,223	0,027	-0,029
-79,840	-41,289	0,031	-0,012
-78,826	-13,934	0,022	0,010
-77,811	123,313	0,032	0,029
-76,797	560,632	0,042	-0,074
-75,782	-176,662	-0,136	-0,002
-74,767	-200,000	-0,012	0,153
-73,753	-79,919	-0,122	0,029
-72,738	211,856	0,057	-0,065
-71,724	426,904	-0,033	-0,052
-70,709	193,015	-0,066	0,073
-69,694	290,122	-0,053	-0,070
-68,680	800,000	-0,006	0,016
-67,665	68,557	0,032	-0,024
-66,651	34,512	0,102	0,065
-65,636	800,000	-0,018	-0,057
-64,622	-200,000	0,006	-0,080
-63,607	-55,422	-0,071	0,023
-62,592	-200,000	0,001	-0,060
-61,578	138,313	-0,049	0,046
-60,563	115,742	0,053	0,047
-59,549	-200,000	0,023	0,152
-58,534	-136,124	-1,372	-0,115
-57,519	800,000	-0,729	-1,522
-56,505	-200,000	-0,939	-4,448
-55,490	-45,218	0,521	-0,187
-54,476	800,000	4,982	11,769
-53,461	-200,000	13,637	252,592
-52,446	-200,000	690,028	2249,712
-51,432	584,516	1622,099	2901,412
-50,417	118,866	1634,105	1463,996
-49,403	72,725	1288,260	973,800
-48,388	37,924	1023,449	658,254
-47,373	24,235	981,351	586,209
-46,359	23,447	971,220	577,555
-45,344	22,497	966,808	571,808
-44,330	22,431	965,192	570,615
-43,315	22,332	963,780	569,433
-42,300	22,302	963,014	568,861
-41,286	22,302	961,881	568,169
-40,271	22,262	960,994	567,493
-39,257	22,279	960,091	566,991
-38,242	22,278	959,117	566,390
-37,227	22,249	958,235	565,754
-36,213	22,253	957,414	565,260
-35,198	22,232	956,492	564,624
-34,184	22,284	955,877	564,406
-33,169	22,236	955,015	563,721
-32,154	22,342	954,030	563,459
-31,140	22,304	952,958	562,682
-30,125	22,265	952,423	562,216
-29,111	22,227	951,716	561,655
-28,096	22,327	950,881	561,463
-27,082	22,269	950,247	560,880
-26,067	22,305	949,429	560,488
-25,052	22,299	948,624	559,973
-24,038	22,330	947,983	559,672
-23,023	22,268	947,474	559,150
-22,009	22,350	946,780	558,979
-20,994	22,327	946,200	558,542
-19,979	22,311	945,615	558,123
-18,965	22,305	945,046	557,747
-17,950	22,289	944,363	557,270
-16,936	22,248	943,598	556,667
-15,921	22,205	942,906	556,100
-14,906	22,159	942,279	555,561
-13,892	22,178	941,632	555,218
-12,877	22,163	941,046	554,801
-11,863	22,164	940,279	554,333
-10,848	22,141	939,923	554,026
-9,833	22,234	939,513	554,059
-8,819	22,250	938,722	553,620
-7,804	22,177	938,046	552,967
-6,790	22,165	937,573	552,631
-5,775	22,258	936,768	552,428
-4,760	22,145	936,288	551,766
-3,746	22,195	935,689	551,547
-2,731	22,002	934,964	550,490
-1,717	21,985	934,388	550,075
-0,702	22,011	933,508	549,618
0,313	21,760	933,126	549,433
1,327	24,914	931,040	558,061
2,342	34,589	795,558	502,590
3,356	32,612	451,240	282,069
4,371	1,633	293,779	152,755
5,386	-2,835	274,642	138,567
6,400	-4,305	269,105	134,397
7,415	-4,500	266,524	132,917
8,429	-4,311	265,335	132,486
9,444	-4,336	264,750	132,159
10,459	-4,180	263,918	131,874
11,473	-4,429	263,443	131,398
12,488	-4,464	262,817	131,043
13,502	-4,599	262,309	130,656
14,517	-4,542	261,887	130,485
15,531	-4,456	261,371	130,294
16,546	-4,422	261,066	130,161
17,561	-4,522	260,736	129,895
18,575	-4,472	260,332	129,728
19,590	-4,627	259,994	129,408
20,604	-4,595	259,855	129,356
21,619	-4,423	259,480	129,312
22,634	-4,557	259,091	128,987
23,648	-4,535	258,670	128,785
24,663	-4,719	258,620	128,585
25,677	-4,425	258,243	128,647
26,692	-4,518	258,101	128,483
27,707	-4,687	257,734	128,139
28,721	-4,724	257,535	127,996
29,736	-4,758	257,325	127,850
30,750	-4,515	256,942	127,862
31,765	-4,627	256,705	127,635
32,780	-4,686	256,530	127,484
33,794	-4,757	256,317	127,304
34,809	-4,606	256,010	127,273
35,823	-4,716	255,728	127,025
36,838	-4,847	255,618	126,844
37,853	-4,803	255,359	126,743
38,867	-4,832	255,118	126,586
39,882	-4,734	254,873	126,539
40,896	-4,752	254,661	126,407
41,911	-4,760	254,426	126,272
42,926	-4,741	254,106	126,118
43,940	-4,709	253,980	126,073
44,955	-4,942	253,864	125,800
45,969	-4,977	253,489	125,572
46,984	-4,919	253,304	125,520
47,999	-5,243	252,940	125,048
49,013	-5,329	252,689	124,837
50,028	-5,501	252,577	124,622
51,042	-5,666	252,411	124,385
52,057	-5,528	252,238	124,409
53,071	-5,253	251,795	124,417
54,086	-5,373	251,771	124,290
55,101	-5,132	251,466	124,337
56,115	-5,156	251,518	124,331
57,130	-4,747	251,399	124,614
58,144	-4,413	251,015	124,700
59,159	-4,505	250,980	124,592
60,174	-4,445	250,760	124,524
61,188	-4,602	250,557	124,277
62,203	-4,452	250,213	124,225
63,217	-4,790	250,173	123,903
64,232	-4,534	249,945	123,999
65,247	-4,355	249,694	124,016
66,261	-4,565	249,502	123,730
67,276	-4,921	249,199	123,265
68,290	-4,901	248,991	123,168
69,305	-4,975	248,615	122,908
70,320	-4,980	248,647	122,909
71,334	-4,814	248,388	122,911
72,349	-4,559	248,197	123,022
73,363	-4,516	248,069	122,985
74,378	-4,523	247,850	122,859
75,393	-4,701	247,632	122,589
76,407	-4,586	247,435	122,578
77,422	-4,595	247,299	122,492
78,436	-4,495	246,981	122,408
79,451	-4,643	246,778	122,171
80,466	-4,714	246,578	122,002
81,480	-4,694	246,299	121,869
82,495	-4,809	246,141	121,684
83,509	-5,042	246,154	121,483
84,524	-5,100	245,868	121,282
85,539	-4,877	245,514	121,284
86,553	-4,761	245,346	121,287
87,568	-4,950	245,374	121,132
88,582	-4,977	245,208	121,016
89,597	-4,933	244,985	120,933
90,611	-4,904	244,786	120,848
91,626	-4,792	244,693	120,884
92,641	-4,556	244,382	120,917
93,655	-4,748	244,192	120,653
94,670	-4,717	243,933	120,540
95,684	-4,556	243,684	120,541
96,699	-4,812	243,820	120,383
97,714	-4,930	243,446	120,090
98,728	-4,769	243,157	120,070
99,743	-5,064	243,156	119,814
100,757	-5,220	242,811	119,503
101,772	-5,014	242,649	119,584
102,787	-4,969	242,527	119,551
103,801	-5,155	242,330	119,289
104,816	-4,752	242,286	119,590
105,830	-4,754	242,190	119,530
106,845	-4,496	241,740	119,511
107,860	-4,637	241,634	119,331
108,874	-4,637	241,467	119,238
109,889	-4,588	241,140	119,107
110,903	-4,677	241,103	119,005
111,918	-4,921	240,924	118,705
112,933	-4,738	240,801	118,784
113,947	-4,749	240,638	118,683
114,962	-4,508	240,405	118,756
115,976	-4,428	240,131	118,676
116,991	-4,826	240,064	118,306
118,006	-4,678	239,847	118,309
119,020	-4,642	239,845	118,327
120,035	-4,634	239,621	118,213
121,049	-4,653	239,633	118,193
122,064	-4,706	239,342	117,996
123,079	-4,691	239,238	117,946
124,093	-4,822	238,766	117,596
125,108	-4,777	238,621	117,551
126,122	-5,181	238,476	117,140
127,137	-5,204	238,181	116,966
128,151	-5,107	238,126	117,007
129,166	-4,818	237,958	117,149
130,181	-4,966	237,847	116,963
131,195	-5,050	237,566	116,747
132,210	-4,784	237,391	116,866
133,224	-4,851	237,286	116,750
134,239	-4,537	237,160	116,931
135,254	-4,669	236,965	116,718
136,268	-4,691	236,782	116,599
137,283	-4,981	236,616	116,274
138,297	-5,118	236,368	116,031
139,312	-5,255	236,176	115,816
140,327	-4,637	235,974	116,204
141,341	-4,350	235,973	116,424
142,356	-4,383	235,882	116,342
143,370	-4,464	235,744	116,199
144,385	-4,241	235,499	116,247
145,400	-4,390	235,409	116,072
146,414	-4,238	235,139	116,050
147,429	-4,314	234,932	115,877
148,443	-4,380	234,906	115,801
149,458	-4,381	234,678	115,677
150,473	-4,224	234,551	115,730
151,487	-4,439	234,323	115,436
152,502	-4,226	234,151	115,511
153,516	-4,353	234,117	115,383
154,531	-4,407	233,943	115,243
155,546	-4,265	233,684	115,218
156,560	-4,435	233,492	114,978
157,575	-4,454	233,252	114,835
158,589	-4,441	233,113	114,766
159,604	-4,187	233,106	114,954
160,619	-4,238	232,933	114,818
161,633	-4,153	232,755	114,787
162,648	-4,466	232,614	114,460
163,662	-4,249	232,363	114,498
164,677	-4,524	232,179	114,179
165,692	-4,459	232,003	114,135
166,706	-4,380	231,900	114,136
167,721	-4,260	231,805	114,173
168,735	-4,243	231,634	114,092
169,750	-4,256	231,563	114,037
170,764	-4,348	231,270	113,810
171,779	-4,363	231,202	113,755
172,794	-4,259	231,125	113,789
173,808	-4,351	230,953	113,621
174,823	-4,875	230,648	113,051
175,837	-5,116	230,301	112,682
176,852	-4,700	230,400	113,046
177,867	-4,388	230,260	113,211
178,881	-4,295	230,221	113,255
179,896	-4,151	229,842	113,171
180,910	-4,307	229,827	113,031
181,925	-4,295	229,627	112,932
182,940	-3,926	229,427	113,111
183,954	-4,333	229,340	112,741
184,969	-4,165	229,192	112,789
185,983	-4,192	229,167	112,746
186,998	-4,196	229,109	112,704
188,013	-3,979	228,719	112,671
189,027	-4,191	228,502	112,389
190,042	-4,275	228,401	112,264
191,056	-4,139	228,362	112,341
192,071	-4,041	228,221	112,337
193,086	-4,111	228,045	112,186
194,100	-4,149	227,784	112,018
195,115	-4,348	227,503	111,717
196,129	-4,786	227,242	111,241
197,144	-2,596	227,817	113,204
198,159	0,843	228,906	116,400
199,173	3,728	229,667	119,015
200,188	4,219	229,584	119,341
201,202	4,205	229,477	119,264
202,217	4,353	229,402	119,329
203,232	4,620	229,211	119,425
204,246	4,656	229,164	119,418
205,261	4,658	229,092	119,371
206,275	5,011	228,990	119,580
207,290	4,709	228,897	119,288
208,304	4,795	228,616	119,197
209,319	4,702	228,349	118,976
210,334	4,690	228,244	118,901
211,348	4,566	228,024	118,680
212,363	4,270	227,709	118,279
213,377	3,939	227,486	117,899
214,392	3,798	227,452	117,763
215,407	4,015	227,278	117,828
216,421	4,025	227,106	117,736
217,436	4,009	226,845	117,578
218,450	3,706	226,612	117,216
219,465	3,617	226,561	117,111
220,480	3,697	226,565	117,163
221,494	3,607	226,367	116,982
222,509	3,952	226,227	117,162
223,523	3,651	226,081	116,847
224,538	3,649	225,932	116,758
225,553	3,817	225,755	116,784
226,567	4,015	225,579	116,832
227,582	4,211	225,531	116,947
228,596	4,429	225,332	116,998
229,611	3,835	225,351	116,547
230,626	3,560	225,138	116,218
231,640	3,782	224,847	116,225
232,655	4,040	224,714	116,341
233,669	4,395	224,711	116,598
234,684	4,430	224,709	116,613
235,699	4,360	224,427	116,403
236,713	4,159	224,194	116,120
237,728	4,028	224,098	115,962
238,742	3,807	223,953	115,709
239,757	3,847	223,699	115,598
240,772	3,642	223,498	115,330
241,786	3,968	223,429	115,529
242,801	3,873	223,390	115,427
243,815	4,192	223,339	115,630
244,830	4,281	223,207	115,618
245,844	4,032	222,897	115,261
246,859	4,063	222,660	115,152
247,874	4,226	222,490	115,175
248,888	4,153	222,572	115,153
249,903	4,122	222,321	114,989
250,917	4,060	222,120	114,829
251,932	3,868	222,045	114,636
252,947	3,886	221,673	114,448
253,961	3,580	221,686	114,217
254,976	4,107	221,494	114,499
255,990	4,018	221,538	114,445
257,005	4,096	221,359	114,400
258,020	4,108	221,310	114,374
259,034	4,333	221,079	114,412
260,049	4,160	220,833	114,146
261,063	3,937	220,910	114,010
262,078	4,263	220,647	114,105
263,093	4,599	220,487	114,261
264,107	4,205	220,394	113,911
265,122	4,172	220,279	113,817
266,136	4,702	220,099	114,106
267,151	4,247	219,986	113,701
268,166	4,123	219,634	113,418
269,180	3,822	219,419	113,076
270,195	3,688	219,369	112,940
271,209	3,788	219,222	112,929
272,224	3,869	219,128	112,930
273,239	4,121	219,027	113,052
274,253	3,955	218,878	112,844
275,268	3,519	218,682	112,413
276,282	3,693	218,504	112,439
277,297	3,745	218,251	112,337
278,312	3,696	218,300	112,316
279,326	3,976	218,182	112,450
280,341	3,893	217,979	112,275
281,355	3,977	217,866	112,268
282,370	3,873	217,798	112,147
283,384	3,687	217,549	111,873
284,399	3,720	217,182	111,699
285,414	3,598	217,206	111,612
286,428	4,028	217,043	111,831
287,443	4,173	217,061	111,936
288,457	3,772	217,027	111,616
289,472	3,895	216,665	111,510
290,487	3,402	216,359	110,985
291,501	3,513	216,262	111,006
292,516	3,575	216,118	110,967
293,530	3,547	216,157	110,957
294,545	3,725	215,983	110,987
295,560	3,640	215,775	110,808
296,574	3,609	215,761	110,768
297,589	3,851	215,705	110,905
298,603	3,921	215,543	110,862
299,618	3,912	215,454	110,800
300,633	3,980	215,159	110,687
301,647	3,965	215,253	110,714
302,662	3,903	215,154	110,609
303,676	4,346	214,895	110,785
304,691	4,339	214,669	110,653
305,706	4,379	214,635	110,654
306,720	4,238	214,502	110,475
307,735	3,951	214,361	110,187
308,749	3,820	214,047	109,923
309,764	4,049	213,956	110,029
310,779	3,995	213,893	109,948
311,793	4,019	213,913	109,966
312,808	4,227	213,624	109,956
313,822	4,087	213,514	109,790
314,837	3,896	213,320	109,544
315,852	3,729	213,151	109,329
316,866	3,723	212,994	109,234
317,881	4,041	212,945	109,425
318,895	4,013	212,864	109,355
319,910	3,968	212,609	109,181
320,925	3,698	212,351	108,848
321,939	3,352	212,230	108,531
322,954	3,540	212,137	108,607
323,968	3,950	212,254	108,948
324,983	4,171	212,131	109,031
325,997	4,056	211,786	108,763
327,012	3,857	211,679	108,558
328,027	3,941	211,532	108,532
329,041	4,189	211,474	108,667
330,056	4,652	211,407	108,949
331,070	4,000	211,085	108,315
332,085	3,758	210,850	108,015
333,100	3,722	210,799	107,954
334,114	4,062	210,608	108,085
335,129	4,080	210,531	108,048
336,143	3,782	210,484	107,805
337,158	4,027	210,314	107,881
338,173	3,933	210,154	107,723
339,187	3,657	210,077	107,481
340,202	3,675	209,826	107,355
341,216	3,458	209,725	107,142
342,231	3,791	209,599	107,301
343,246	3,757	209,438	107,185
344,260	3,815	209,474	107,234
345,275	3,969	209,171	107,177
346,289	4,023	209,096	107,167
347,304	3,930	208,947	107,016
348,319	3,917	208,735	106,889
349,333	4,011	208,739	106,947
350,348	4,146	208,677	106,999
351,362	4,227	208,481	106,946
352,377	4,327	208,249	106,886
353,392	3,927	208,218	106,584
354,406	4,044	208,036	106,562
355,421	195,158	1344,522	1436,043
356,435	155,759	1483,087	1436,162
