DTS Sentinel unit serial number:	SN410029Multiplexer serial number:	ORYXHardware model number:	OX2-SRSoftware version number:	ORYX F/W v4,00 Oryx Data Collector v3.7.2.0data status	okinstallation	B6 Nyhavnadifferential loss correction	single-endedforward channel	channel 2reverse channel	N/Adate	2023/12/10time	12:50:08forward acquisition time	300,00reverse acquisition time	0,00gamma	499,1914k internal	0,3122k external	0,3122temperature offset calibration	1,0000default loss term (dB/km)	0,3820temperature slope calibration	1,0000multiplexer offset coefficient	1,0000multiplexer slope coefficient	1,0000fibre end	0,00T internal ref (°C)	22,81T ext. ref 1 (°C)	6,54T ext. ref 2 (°C)	6,55length (m)	temperature (°C)	Stokes	anti-Stokes-744,400	74,324	-0,004	-0,003
-743,385	-86,661	-0,214	0,049
-742,371	-107,790	0,067	0,011
-741,356	-64,808	-0,078	-0,023
-740,342	-200,000	0,024	-0,138
-739,327	-85,739	-0,218	0,050
-738,312	104,471	0,053	-0,046
-737,298	103,807	-0,101	0,088
-736,283	-14,668	-0,110	-0,053
-735,269	-77,020	-0,115	0,030
-734,254	-199,880	-0,115	-0,000
-733,239	-38,423	-0,375	-0,147
-732,225	13,254	0,114	-0,066
-731,210	309,514	0,109	0,153
-730,196	324,353	-0,090	0,129
-729,181	-96,087	-0,107	0,021
-728,167	23,051	0,075	-0,046
-727,152	28,876	-0,116	-0,073
-726,137	-200,000	0,001	-0,157
-725,123	-200,000	0,005	0,042
-724,108	-200,000	-0,020	-0,202
-723,094	-38,079	-0,106	0,042
-722,079	-33,000	-0,146	-0,060
-721,064	-200,000	0,020	0,101
-720,050	-200,000	0,043	0,150
-719,035	-200,000	0,003	-0,074
-718,021	800,000	-0,027	-0,066
-717,006	-197,551	-0,112	0,001
-715,991	-27,595	-0,028	-0,012
-714,977	516,162	-0,085	-0,148
-713,962	161,770	0,048	-0,050
-712,948	21,336	0,046	-0,028
-711,933	610,905	0,011	-0,020
-710,918	-196,459	-0,074	-0,000
-709,904	-200,000	-0,003	0,013
-708,889	41,652	-0,059	-0,039
-707,875	800,000	-0,053	-0,119
-706,860	414,759	0,109	-0,174
-705,845	243,873	0,104	0,130
-704,831	800,000	-0,027	-0,072
-703,816	-200,000	0,052	0,000
-702,802	-106,636	-0,046	0,008
-701,787	-65,913	-0,082	-0,024
-700,772	-200,000	-0,009	-0,088
-699,758	208,914	0,028	-0,033
-698,743	-49,200	0,098	-0,035
-697,729	-200,000	0,020	0,156
-696,714	-200,000	-0,019	0,065
-695,699	-200,000	-0,008	-0,116
-694,685	-37,747	-0,093	0,037
-693,670	381,024	-0,045	-0,069
-692,656	-112,826	-0,092	0,013
-691,641	-17,451	0,073	0,034
-690,627	48,913	-0,117	0,082
-689,612	85,439	0,123	-0,100
-688,597	-21,180	0,083	-0,038
-687,583	-85,103	-0,065	-0,015
-686,568	3,743	-0,175	0,095
-685,554	-172,443	-0,088	-0,002
-684,539	-200,000	0,010	-0,096
-683,524	92,554	-0,135	0,113
-682,510	-200,000	-0,031	0,116
-681,495	210,356	-0,050	-0,058
-680,481	617,890	-0,042	-0,079
-679,466	-200,000	0,034	-0,126
-678,451	79,616	-0,031	0,025
-677,437	-200,000	-0,011	0,186
-676,422	-63,556	0,081	0,025
-675,408	230,504	-0,037	-0,045
-674,393	-85,446	-0,098	0,022
-673,378	179,182	0,031	0,034
-672,364	480,290	0,039	-0,067
-671,349	800,000	-0,042	-0,088
-670,335	-112,835	0,109	0,016
-669,320	188,041	0,076	-0,085
-668,305	-74,382	-0,127	-0,034
-667,291	-132,312	-0,108	0,010
-666,276	11,172	-0,050	-0,028
-665,262	-200,000	0,002	0,028
-664,247	-56,074	-0,093	0,031
-663,232	-20,323	-0,084	-0,038
-662,218	-67,462	0,056	0,016
-661,203	-32,591	0,056	-0,023
-660,189	215,555	-0,045	0,053
-659,174	13,330	-0,087	-0,050
-658,159	424,991	0,010	0,016
-657,145	-200,000	-0,057	-0,194
-656,130	-16,807	0,096	-0,045
-655,116	-128,211	0,040	0,004
-654,101	8,399	0,076	0,043
-653,086	190,970	-0,038	0,042
-652,072	-61,179	-0,074	-0,023
-651,057	70,214	-0,046	-0,035
-650,043	5,050	-0,094	-0,051
-649,028	85,406	-0,111	0,091
-648,014	-116,322	-0,063	-0,009
-646,999	-200,000	-0,026	0,111
-645,984	-140,839	0,087	0,007
-644,970	-200,000	0,031	-0,191
-643,955	131,885	-0,126	-0,121
-642,941	-200,000	0,010	-0,099
-641,926	-11,350	0,040	-0,020
-640,911	-13,036	-0,012	0,006
-639,897	505,506	-0,041	-0,071
-638,882	800,000	0,031	0,083
-637,868	222,250	-0,098	-0,117
-636,853	-200,000	0,036	-0,141
-635,838	-200,000	0,038	-0,154
-634,824	-200,000	-0,009	-0,079
-633,809	-39,874	0,045	-0,017
-632,795	-200,000	0,040	-0,230
-631,780	-144,042	-0,092	-0,006
-630,765	60,618	-0,049	-0,036
-629,751	620,624	0,066	-0,124
-628,736	373,556	0,015	-0,023
-627,722	800,000	-0,049	0,116
-626,707	-55,393	0,126	-0,042
-625,692	-93,547	0,079	-0,016
-624,678	-177,087	-0,048	0,001
-623,663	800,000	0,041	-0,119
-622,649	-1,879	-0,062	-0,032
-621,634	198,800	-0,125	-0,142
-620,619	678,917	-0,050	-0,097
-619,605	-200,000	0,008	-0,056
-618,590	-33,552	0,036	-0,015
-617,576	-200,000	0,030	-0,108
-616,561	496,874	0,034	-0,058
-615,546	-68,596	0,110	0,031
-614,532	185,634	-0,088	-0,097
-613,517	-1,881	-0,145	-0,076
-612,503	176,867	-0,044	-0,047
-611,488	-197,428	0,063	0,000
-610,474	637,970	0,041	0,077
-609,459	-54,734	0,079	0,026
-608,444	-144,512	-0,145	-0,010
-607,430	-80,337	-0,047	0,012
-606,415	-28,079	-0,034	-0,014
-605,401	354,380	-0,062	-0,091
-604,386	-200,000	-0,011	-0,118
-603,371	-200,000	-0,015	0,142
-602,357	800,000	-0,106	0,219
-601,342	122,064	-0,125	0,116
-600,328	327,606	-0,073	0,104
-599,313	-121,902	-0,090	-0,011
-598,298	-73,192	-0,133	0,036
-597,284	-200,000	-0,001	0,006
-596,269	169,162	0,067	0,071
-595,255	546,734	0,029	-0,052
-594,240	-200,000	-0,018	-0,070
-593,225	800,000	-0,044	-0,094
-592,211	-200,000	0,003	-0,030
-591,196	-200,000	-0,011	-0,038
-590,182	83,661	-0,102	-0,082
-589,167	-134,507	0,072	0,006
-588,152	-143,544	-0,102	-0,007
-587,138	184,465	-0,035	0,038
-586,123	-15,282	-0,242	-0,114
-585,109	-200,000	0,016	-0,055
-584,094	-52,172	-0,043	0,015
-583,079	-200,000	0,045	-0,200
-582,065	800,000	-0,020	-0,052
-581,050	-71,092	0,036	0,010
-580,036	-133,134	0,060	0,006
-579,021	-78,511	-0,094	-0,024
-578,006	480,411	-0,037	-0,063
-576,992	-78,262	-0,075	0,019
-575,977	-122,612	-0,083	-0,010
-574,963	-135,298	0,053	0,005
-573,948	-171,902	0,193	0,005
-572,934	800,000	0,041	-0,127
-571,919	262,296	-0,051	-0,066
-570,904	-145,366	-0,136	0,009
-569,890	-102,804	0,014	0,002
-568,875	33,749	0,093	0,060
-567,861	-200,000	0,029	0,109
-566,846	67,017	-0,049	-0,037
-565,831	288,981	-0,021	-0,028
-564,817	-200,000	0,011	0,037
-563,802	763,347	-0,088	-0,178
-562,788	176,603	0,059	0,064
-561,773	-200,000	-0,000	0,099
-560,758	119,285	0,069	-0,064
-559,744	-200,000	-0,004	0,090
-558,729	-140,781	0,112	-0,008
-557,715	404,665	-0,023	-0,036
-556,700	-9,483	0,059	-0,029
-555,685	85,547	0,110	0,090
-554,671	-30,659	-0,132	-0,055
-553,656	-16,738	0,103	-0,048
-552,642	-200,000	-0,016	-0,112
-551,627	-112,279	0,033	0,005
-550,612	800,000	-0,022	-0,048
-549,598	22,222	-0,205	-0,124
-548,583	544,364	0,087	0,155
-547,569	193,249	0,062	0,070
-546,554	800,000	-0,046	-0,115
-545,539	-70,375	0,042	0,012
-544,525	116,185	0,047	-0,043
-543,510	32,824	-0,079	-0,050
-542,496	-119,679	-0,044	-0,006
-541,481	71,573	-0,042	-0,032
-540,466	454,034	-0,065	-0,107
-539,452	413,239	-0,042	-0,066
-538,437	-22,759	-0,024	-0,011
-537,423	-189,121	-0,061	-0,001
-536,408	94,991	-0,070	-0,059
-535,393	800,000	-0,006	0,018
-534,379	-54,150	0,066	0,022
-533,364	-118,126	0,075	-0,010
-532,350	800,000	-0,051	0,123
-531,335	48,641	0,064	-0,045
-530,321	-153,911	0,116	-0,006
-529,306	800,000	0,012	-0,026
-528,291	-70,134	-0,151	0,042
-527,277	25,669	0,036	-0,022
-526,262	147,227	-0,024	0,024
-525,248	-11,631	0,118	0,057
-524,233	-83,459	-0,068	-0,016
-523,218	-200,000	0,012	0,052
-522,204	172,589	0,022	0,023
-521,189	800,000	-0,036	-0,096
-520,175	-116,316	-0,182	0,025
-519,160	-95,000	-0,067	-0,013
-518,145	204,650	-0,093	0,106
-517,131	-71,838	-0,051	-0,014
-516,116	800,000	-0,064	0,155
-515,102	800,000	0,042	0,091
-514,087	123,844	0,049	-0,046
-513,072	-90,725	0,021	0,004
-512,058	60,533	-0,060	-0,044
-511,043	800,000	-0,032	-0,084
-510,029	-200,000	-0,036	0,144
-509,014	184,036	0,082	-0,090
-507,999	277,269	-0,045	-0,060
-506,985	800,000	-0,021	-0,068
-505,970	339,185	0,057	0,082
-504,956	-23,832	0,033	0,014
-503,941	25,567	0,135	0,083
-502,926	480,719	0,051	0,086
-501,912	-37,063	-0,107	-0,042
-500,897	-43,734	0,022	-0,008
-499,883	-57,855	-0,057	0,018
-498,868	20,070	-0,228	-0,136
-497,853	-128,267	0,052	-0,005
-496,839	-200,000	-0,006	-0,039
-495,824	-87,771	0,051	-0,011
-494,810	-59,059	-0,153	-0,048
-493,795	-87,476	0,100	0,022
-492,781	-200,000	0,001	-0,019
-491,766	800,000	-0,046	0,139
-490,751	-103,049	0,121	0,021
-489,737	-200,000	-0,003	0,045
-488,722	17,991	0,156	-0,092
-487,708	-200,000	-0,001	0,069
-486,693	1,576	-0,098	0,052
-485,678	-152,958	0,134	-0,007
-484,664	-200,000	-0,025	-0,103
-483,649	197,462	0,025	0,028
-482,635	800,000	0,075	0,181
-481,620	231,860	-0,065	0,079
-480,605	-42,568	0,060	-0,023
-479,591	-41,125	0,074	-0,028
-478,576	777,375	0,049	-0,099
-477,562	-71,363	-0,143	-0,039
-476,547	800,000	-0,021	-0,058
-475,532	280,538	-0,078	0,103
-474,518	-118,752	0,076	-0,010
-473,503	-200,000	0,003	0,139
-472,489	-200,000	-0,007	0,106
-471,474	211,127	-0,025	0,029
-470,459	-169,705	-0,053	-0,001
-469,445	-200,000	-0,006	0,028
-468,430	-167,873	0,083	-0,002
-467,416	-200,000	-0,005	0,099
-466,401	-200,000	0,024	0,133
-465,386	215,421	0,095	0,111
-464,372	35,122	-0,065	0,042
-463,357	306,262	-0,067	-0,093
-462,343	-119,516	-0,065	-0,008
-461,328	349,182	-0,082	-0,120
-460,313	-95,347	0,067	0,013
-459,299	-200,000	-0,012	0,084
-458,284	395,576	0,031	-0,048
-457,270	169,598	-0,022	0,023
-456,255	-200,000	-0,022	-0,073
-455,241	-44,217	0,075	0,027
-454,226	19,562	-0,040	-0,024
-453,211	-86,741	0,043	0,010
-452,197	-200,000	-0,002	-0,092
-451,182	773,330	0,016	0,032
-450,168	108,104	-0,050	-0,044
-449,153	800,000	-0,023	0,051
-448,138	204,560	-0,115	-0,132
-447,124	-26,579	-0,047	0,020
-446,109	236,830	0,042	-0,051
-445,095	-45,708	0,124	0,045
-444,080	-71,011	0,112	0,031
-443,065	-200,000	-0,007	0,058
-442,051	800,000	-0,018	0,057
-441,036	-200,000	0,000	-0,057
-440,022	-200,000	-0,004	0,025
-439,007	19,359	0,025	-0,015
-437,992	-200,000	-0,011	0,040
-436,978	60,923	-0,036	-0,026
-435,963	-15,995	0,075	-0,035
-434,949	-200,000	-0,025	-0,100
-433,934	-153,696	-0,175	-0,009
-432,919	724,735	0,017	-0,033
-431,905	-137,453	-0,038	-0,003
-430,890	23,117	0,077	0,046
-429,876	-132,836	0,104	0,010
-428,861	355,394	-0,079	-0,115
-427,846	648,204	0,033	-0,063
-426,832	-200,000	-0,024	-0,165
-425,817	185,097	-0,024	0,026
-424,803	-11,294	-0,136	0,066
-423,788	95,816	0,141	0,118
-422,773	-200,000	0,009	-0,062
-421,759	-127,246	0,106	0,011
-420,744	800,000	0,075	-0,206
-419,730	-200,000	0,030	-0,145
-418,715	800,000	-0,064	-0,145
-417,701	306,004	-0,085	-0,116
-416,686	-10,790	-0,037	0,018
-415,671	-200,000	-0,007	0,186
-414,657	-77,710	0,062	0,016
-413,642	-200,000	-0,003	-0,078
-412,628	800,000	0,007	-0,020
-411,613	-200,000	-0,096	-0,000
-410,598	-16,726	-0,203	-0,094
-409,584	-87,829	0,078	0,017
-408,569	-200,000	-0,014	-0,052
-407,555	-96,548	-0,071	-0,014
-406,540	-200,000	-0,002	0,117
-405,525	-119,448	-0,061	0,008
-404,511	-59,174	-0,171	-0,054
-403,496	359,242	-0,015	0,023
-402,482	554,860	-0,055	0,097
-401,467	-6,501	0,039	0,020
-400,452	6,993	-0,063	0,035
-399,438	7,698	0,069	-0,038
-398,423	-116,853	-0,159	0,021
-397,409	-34,701	0,107	0,043
-396,394	-200,000	0,027	0,103
-395,379	42,696	-0,014	-0,009
-394,365	-200,000	-0,012	0,094
-393,350	-92,797	-0,078	0,016
-392,336	800,000	0,036	0,112
-391,321	662,538	0,063	0,121
-390,306	7,298	-0,094	0,051
-389,292	-200,000	0,017	-0,056
-388,277	75,247	0,041	-0,032
-387,263	88,168	0,082	0,067
-386,248	-143,914	0,071	0,005
-385,233	-101,390	0,106	-0,019
-384,219	800,000	0,022	0,055
-383,204	-118,867	0,087	-0,011
-382,190	59,749	0,033	-0,024
-381,175	140,057	-0,070	-0,068
-380,160	800,000	0,029	-0,078
-379,146	719,761	0,018	-0,036
-378,131	65,856	0,150	0,111
-377,117	-165,336	0,048	0,002
-376,102	800,000	-0,047	-0,152
-375,088	55,466	-0,091	-0,065
-374,073	-152,449	0,078	0,004
-373,058	-200,000	-0,019	0,088
-372,044	20,316	0,126	0,075
-371,029	-56,400	-0,095	-0,031
-370,015	-101,628	0,066	-0,012
-369,000	-26,124	-0,049	0,021
-367,985	36,222	-0,048	-0,031
-366,971	-144,353	-0,090	0,006
-365,956	-200,000	-0,008	0,099
-364,942	800,000	-0,029	-0,078
-363,927	421,989	-0,044	0,069
-362,912	452,135	-0,036	-0,058
-361,898	169,146	0,026	-0,028
-360,883	-49,519	-0,157	0,055
-359,869	800,000	0,058	-0,132
-358,854	48,169	0,139	0,096
-357,839	40,112	0,102	0,067
-356,825	-53,291	0,068	0,023
-355,810	-200,000	-0,038	0,216
-354,796	-56,289	0,069	-0,022
-353,781	386,705	-0,035	-0,053
-352,766	179,666	0,057	0,062
-351,752	-56,673	0,071	-0,023
-350,737	439,002	-0,013	0,022
-349,723	800,000	0,084	0,219
-348,708	169,426	-0,080	-0,084
-347,693	-200,000	0,014	-0,130
-346,679	175,152	-0,049	-0,052
-345,664	800,000	-0,013	-0,039
-344,650	-50,174	0,088	0,031
-343,635	-41,950	0,196	-0,073
-342,620	800,000	0,079	0,161
-341,606	89,680	0,014	-0,012
-340,591	-200,000	-0,005	-0,021
-339,577	790,344	-0,082	-0,166
-338,562	-200,000	-0,021	-0,086
-337,548	275,841	0,049	0,064
-336,533	632,491	-0,076	0,142
-335,518	-187,607	0,098	0,001
-334,504	-200,000	-0,010	-0,070
-333,489	-34,069	0,077	0,031
-332,475	-200,000	-0,033	0,122
-331,460	464,571	0,028	-0,046
-330,445	196,115	0,056	0,063
-329,431	-200,000	0,024	0,107
-328,416	212,756	0,044	-0,051
-327,402	-144,758	-0,188	-0,012
-326,387	786,458	0,004	-0,007
-325,372	-37,868	-0,082	-0,032
-324,358	756,526	-0,038	-0,077
-323,343	52,693	-0,054	-0,038
-322,329	-110,533	0,103	0,016
-321,314	800,000	0,070	0,196
-320,299	-134,158	0,111	0,010
-319,285	14,694	-0,090	-0,051
-318,270	123,408	-0,066	0,061
-317,256	800,000	0,043	-0,099
-316,241	800,000	0,030	0,082
-315,226	161,211	-0,017	0,017
-314,212	66,358	0,142	0,106
-313,197	709,612	0,054	0,105
-312,183	444,504	0,051	0,082
-311,168	-160,404	-0,143	-0,006
-310,153	178,493	-0,038	-0,041
-309,139	-200,000	-0,008	-0,220
-308,124	-85,591	0,003	0,001
-307,110	-139,244	0,153	-0,012
-306,095	-12,588	-0,010	0,005
-305,080	614,308	0,030	0,056
-304,066	-127,215	-0,125	-0,013
-303,051	139,234	-0,039	0,038
-302,037	800,000	-0,023	-0,056
-301,022	-4,302	-0,077	0,039
-300,008	800,000	-0,012	-0,032
-298,993	-38,851	0,071	-0,027
-297,978	224,049	0,080	-0,095
-296,964	60,745	-0,128	-0,093
-295,949	113,456	-0,077	-0,068
-294,935	-200,000	-0,010	0,065
-293,920	82,802	0,104	0,083
-292,905	393,310	0,060	-0,092
-291,891	-100,366	0,179	-0,032
-290,876	-200,000	0,008	0,057
-289,862	304,912	0,009	-0,012
-288,847	800,000	-0,032	-0,082
-287,832	800,000	-0,055	-0,128
-286,818	-200,000	0,024	0,128
-285,803	45,569	0,118	0,080
-284,789	800,000	0,047	-0,100
-283,774	200,456	0,068	-0,077
-282,759	406,205	-0,055	0,085
-281,745	64,320	-0,132	0,097
-280,730	-148,238	-0,079	-0,005
-279,716	571,348	-0,016	0,028
-278,701	-172,973	-0,080	-0,002
-277,686	396,770	-0,027	0,041
-276,672	-200,000	-0,037	0,261
-275,657	-200,000	0,009	-0,032
-274,643	141,865	-0,068	-0,066
-273,628	8,385	-0,035	-0,019
-272,613	119,167	0,058	-0,053
-271,599	-106,184	-0,084	-0,014
-270,584	-200,000	-0,004	0,092
-269,570	800,000	-0,044	0,121
-268,555	-152,270	0,084	-0,004
-267,540	-137,396	0,050	0,004
-266,526	341,120	-0,144	-0,207
-265,511	63,560	-0,051	-0,037
-264,497	535,690	0,050	0,087
-263,482	800,000	0,032	0,088
-262,467	800,000	0,011	0,033
-261,453	-40,961	-0,099	0,037
-260,438	-153,209	-0,078	-0,004
-259,424	-72,824	-0,058	-0,015
-258,409	-40,263	-0,099	0,037
-257,395	96,163	-0,018	0,015
-256,380	-151,563	0,139	-0,007
-255,365	800,000	-0,020	0,045
-254,351	-145,932	0,114	-0,007
-253,336	103,204	-0,055	0,048
-252,322	800,000	-0,020	-0,046
-251,307	-74,898	-0,115	0,030
-250,292	-200,000	0,009	0,103
-249,278	214,458	0,017	0,019
-248,263	-200,000	0,008	0,112
-247,249	174,660	-0,159	0,168
-246,234	-119,120	-0,045	0,006
-245,219	-200,000	-0,006	-0,020
-244,205	-98,311	0,060	-0,011
-243,190	-49,559	0,083	0,029
-242,176	304,012	0,047	-0,063
-241,161	172,305	-0,106	0,112
-240,146	83,818	0,002	0,002
-239,132	65,972	0,084	-0,062
-238,117	-41,720	0,065	0,024
-237,103	-67,392	0,138	0,039
-236,088	153,426	0,096	0,096
-235,073	-9,259	0,091	0,044
-234,059	800,000	0,023	0,048
-233,044	-200,000	0,000	0,145
-232,030	93,357	0,093	0,077
-231,015	-102,327	0,104	0,018
-230,000	186,125	-0,100	-0,109
-228,986	-8,868	0,076	-0,037
-227,971	-102,228	0,069	-0,012
-226,957	129,077	0,009	-0,009
-225,942	-200,000	0,008	0,115
-224,927	800,000	0,024	0,070
-223,913	-200,000	-0,014	-0,059
-222,898	-4,052	-0,114	0,058
-221,884	-13,809	0,106	-0,050
-220,869	-200,000	0,010	0,120
-219,855	-5,999	0,040	-0,020
-218,840	307,397	0,118	0,162
-217,825	38,747	0,074	0,048
-216,811	-25,358	-0,224	-0,096
-215,796	659,710	0,050	-0,094
-214,782	-142,276	0,041	0,003
-213,767	-200,000	-0,020	-0,080
-212,752	2,637	0,139	-0,073
-211,738	-127,240	0,095	0,010
-210,723	800,000	0,052	0,167
-209,709	-200,000	0,000	-0,028
-208,694	-200,000	-0,008	-0,106
-207,679	-48,776	-0,084	-0,029
-206,665	34,924	0,033	-0,021
-205,650	-63,000	0,130	-0,039
-204,636	-107,060	0,127	0,020
-203,621	286,513	0,093	0,122
-202,606	95,953	-0,094	-0,078
-201,592	-71,470	0,124	0,034
-200,577	-182,445	0,059	0,001
-199,563	537,761	0,043	0,076
-198,548	-200,000	-0,025	0,144
-197,533	-96,865	0,170	0,032
-196,519	-39,971	-0,105	-0,040
-195,504	379,535	-0,109	0,164
-194,490	-200,000	-0,016	-0,116
-193,475	800,000	0,042	-0,107
-192,460	284,780	-0,024	-0,032
-191,446	600,319	0,101	0,184
-190,431	-110,271	0,114	0,017
-189,417	-200,000	-0,023	0,152
-188,402	800,000	-0,049	0,139
-187,387	-29,922	-0,091	-0,038
-186,373	-200,000	-0,014	0,052
-185,358	252,507	-0,012	-0,015
-184,344	-200,000	0,031	0,153
-183,329	-200,000	0,003	-0,103
-182,315	440,708	0,058	0,093
-181,300	291,846	-0,026	0,035
-180,285	261,139	-0,058	-0,073
-179,271	167,623	0,030	0,031
-178,256	156,990	0,031	0,031
-177,242	-185,519	0,056	0,001
-176,227	-17,272	0,058	-0,027
-175,212	187,395	-0,020	-0,022
-174,198	800,000	-0,014	0,029
-173,183	3,366	-0,076	-0,040
-172,169	-148,198	0,120	-0,007
-171,154	-200,000	0,003	0,019
-170,139	-120,351	0,109	0,013
-169,125	4,150	0,136	-0,072
-168,110	-88,435	-0,024	0,005
-167,096	-200,000	-0,024	-0,143
-166,081	-200,000	-0,001	-0,091
-165,066	-200,000	-0,013	-0,104
-164,052	-47,994	-0,119	-0,042
-163,037	-131,178	-0,151	-0,014
-162,023	-200,000	0,035	0,136
-161,008	-200,000	-0,023	0,153
-159,993	99,340	0,061	0,052
-158,979	78,710	-0,090	0,070
-157,964	127,900	0,072	-0,066
-156,950	-200,000	0,004	0,023
-155,935	348,259	-0,026	-0,038
-154,920	60,003	0,032	-0,023
-153,906	312,392	0,055	0,075
-152,891	321,625	0,081	-0,113
-151,877	454,777	0,013	-0,020
-150,862	-57,094	-0,100	-0,032
-149,847	-151,267	-0,101	0,005
-148,833	122,979	0,043	0,039
-147,818	65,009	-0,173	0,127
-146,804	207,111	0,117	0,133
-145,789	577,397	0,039	0,070
-144,775	-34,832	-0,114	-0,045
-143,760	321,364	-0,051	-0,071
-142,745	-200,000	0,036	-0,136
-141,731	42,175	-0,024	-0,016
-140,716	800,000	0,022	0,067
-139,702	-200,000	0,009	0,070
-138,687	-103,498	-0,151	0,026
-137,672	218,963	-0,040	-0,047
-136,658	176,340	0,048	0,051
-135,643	11,918	0,031	0,018
-134,629	800,000	0,022	-0,048
-133,614	-117,386	0,108	-0,014
-132,599	-200,000	-0,009	-0,032
-131,585	800,000	-0,049	0,142
-130,570	-143,395	-0,225	0,015
-129,556	800,000	0,031	-0,063
-128,541	-79,699	-0,115	-0,028
-127,526	-160,547	0,142	0,005
-126,512	14,542	-0,070	0,040
-125,497	43,643	0,050	0,033
-124,483	32,936	-0,106	-0,067
-123,468	192,295	-0,026	0,028
-122,453	-200,000	0,031	-0,132
-121,439	800,000	-0,008	-0,016
-120,424	-200,000	0,017	0,097
-119,410	283,388	-0,067	-0,088
-118,395	79,602	0,049	0,038
-117,380	-200,000	-0,001	-0,062
-116,366	117,163	0,060	0,054
-115,351	-159,309	-0,246	0,010
-114,337	86,160	0,087	-0,069
-113,322	5,822	-0,136	-0,073
-112,307	606,103	0,099	0,181
-111,293	-38,522	0,086	0,033
-110,278	-146,244	-0,059	-0,004
-109,264	557,800	0,086	0,152
-108,249	-32,927	0,110	-0,044
-107,234	-200,000	-0,000	-0,093
-106,220	69,635	0,081	0,061
-105,205	283,032	0,146	0,191
-104,191	-45,749	0,144	0,051
-103,176	-126,875	0,100	0,011
-102,162	224,058	0,066	-0,078
-101,147	-65,039	0,073	0,021
-100,132	-200,000	0,034	-0,205
-99,118	-200,000	-0,053	-0,172
-98,103	100,898	-0,038	0,032
-97,089	-200,000	0,005	0,062
-96,074	-10,147	0,042	-0,020
-95,059	118,500	-0,096	0,086
-94,045	67,448	0,084	0,062
-93,030	-200,000	-0,006	-0,073
-92,016	-200,000	0,000	-0,171
-91,001	2,771	-0,152	-0,080
-89,986	690,325	0,040	0,077
-88,972	-144,461	0,054	0,004
-87,957	-68,827	0,045	0,013
-86,943	-48,208	-0,089	0,031
-85,928	96,444	-0,054	0,045
-84,913	-200,000	0,003	-0,032
-83,899	-68,566	0,064	0,018
-82,884	-9,421	0,016	-0,008
-81,870	-26,408	0,151	-0,064
-80,855	-200,000	-0,008	0,089
-79,840	-200,000	0,016	-0,057
-78,826	267,891	-0,047	0,060
-77,811	12,995	-0,102	0,057
-76,797	-37,528	-0,102	-0,039
-75,782	124,796	0,016	0,015
-74,767	84,748	-0,018	0,014
-73,753	-171,359	-0,089	0,002
-72,738	68,679	-0,072	-0,054
-71,724	-126,162	-0,044	-0,005
-70,709	-102,598	-0,112	-0,019
-69,694	-200,000	0,003	-0,041
-68,680	800,000	0,005	-0,010
-67,665	-34,649	0,077	0,030
-66,651	-200,000	-0,018	0,118
-65,636	-131,481	-0,133	0,013
-64,622	-14,643	-0,102	0,047
-63,607	324,596	-0,099	-0,137
-62,592	-37,973	-0,072	0,028
-61,578	54,378	-0,017	-0,012
-60,563	-200,000	0,002	0,075
-59,549	133,893	0,148	0,139
-58,534	-142,187	-1,305	-0,093
-57,519	547,182	-0,790	-1,378
-56,505	-200,000	-0,845	-4,446
-55,490	42,211	0,552	-0,363
-54,476	800,000	4,990	11,899
-53,461	-200,000	13,163	252,189
-52,446	-200,000	688,256	2273,716
-51,432	599,452	1623,516	2935,746
-50,417	121,303	1637,480	1479,982
-49,403	73,408	1291,682	980,079
-48,388	38,634	1026,017	662,935
-47,373	24,694	983,275	589,429
-46,359	23,950	973,073	580,846
-45,344	22,973	969,095	575,251
-44,330	22,909	967,619	574,141
-43,315	22,811	966,188	572,951
-42,300	22,826	965,033	572,293
-41,286	22,788	964,283	571,702
-40,271	22,837	963,205	571,200
-39,257	22,801	962,156	570,436
-38,242	22,785	961,298	569,852
-37,227	22,796	960,558	569,427
-36,213	22,803	959,512	568,808
-35,198	22,818	958,776	568,398
-34,184	22,891	958,072	568,196
-33,169	22,798	957,335	567,434
-32,154	22,879	956,263	567,038
-31,140	22,828	955,312	566,286
-30,125	22,819	954,581	565,803
-29,111	22,796	953,907	565,306
-28,096	22,853	953,188	565,042
-27,082	22,857	952,465	564,602
-26,067	22,831	951,716	564,053
-25,052	22,845	950,991	563,646
-24,038	22,839	950,433	563,274
-23,023	22,801	949,698	562,693
-22,009	22,920	949,024	562,654
-20,994	22,867	948,467	562,131
-19,979	22,890	947,760	561,762
-18,965	22,919	947,088	561,436
-17,950	22,915	946,684	561,160
-16,936	22,789	945,847	560,238
-15,921	22,767	945,171	559,747
-14,906	22,763	944,456	559,289
-13,892	22,788	943,696	558,895
-12,877	22,692	943,439	558,416
-11,863	22,682	942,559	557,841
-10,848	22,661	942,172	557,522
-9,833	22,845	941,565	557,726
-8,819	22,802	940,863	557,153
-7,804	22,798	940,223	556,737
-6,790	22,674	939,876	556,118
-5,775	22,754	939,112	555,897
-4,760	22,741	938,482	555,461
-3,746	22,661	937,890	554,835
-2,731	22,591	937,162	554,162
-1,717	22,560	936,452	553,622
-0,702	22,580	935,660	553,195
0,313	22,369	935,249	553,121
1,327	25,537	933,231	561,853
2,342	35,465	797,880	506,855
3,356	33,788	451,815	284,466
4,371	2,275	292,660	152,961
5,386	-2,357	273,693	138,668
6,400	-3,727	267,774	134,392
7,415	-4,546	265,354	132,414
8,429	-4,031	264,156	132,275
9,444	-4,005	263,386	131,901
10,459	-3,987	262,738	131,581
11,473	-4,152	262,095	131,098
12,488	-4,010	261,425	130,879
13,502	-4,414	260,996	130,289
14,517	-4,300	260,469	130,116
15,531	-4,247	260,334	130,085
16,546	-4,160	259,786	129,878
17,561	-4,127	259,591	129,798
18,575	-3,970	259,098	129,681
19,590	-4,071	258,813	129,436
20,604	-4,003	258,553	129,355
21,619	-3,967	258,154	129,176
22,634	-3,965	257,838	129,008
23,648	-4,319	257,597	128,562
24,663	-4,154	257,395	128,596
25,677	-4,102	257,198	128,532
26,692	-4,304	256,785	128,136
27,707	-4,241	256,677	128,126
28,721	-4,216	256,351	127,974
29,736	-4,351	256,096	127,716
30,750	-4,123	255,955	127,835
31,765	-4,202	255,638	127,597
32,780	-4,147	255,309	127,469
33,794	-4,289	255,220	127,288
34,809	-4,303	254,815	127,062
35,823	-4,217	254,593	127,016
36,838	-4,229	254,513	126,955
37,853	-4,271	254,187	126,744
38,867	-4,254	253,817	126,563
39,882	-4,279	253,732	126,487
40,896	-4,638	253,595	126,095
41,911	-4,414	253,313	126,138
42,926	-4,266	253,082	126,141
43,940	-4,474	252,831	125,824
44,955	-4,376	252,423	125,695
45,969	-4,503	252,368	125,545
46,984	-4,501	252,155	125,430
47,999	-4,777	251,857	125,031
49,013	-4,787	251,510	124,839
50,028	-5,085	251,408	124,520
51,042	-5,026	251,037	124,375
52,057	-5,154	250,871	124,172
53,071	-5,187	250,778	124,087
54,086	-4,917	250,549	124,195
55,101	-4,775	250,371	124,218
56,115	-4,846	250,361	124,141
57,130	-4,161	250,207	124,643
58,144	-3,965	249,868	124,631
59,159	-4,037	249,759	124,503
60,174	-3,857	249,529	124,532
61,188	-4,024	249,295	124,261
62,203	-4,043	249,191	124,182
63,217	-4,305	249,006	123,854
64,232	-4,214	248,766	123,802
65,247	-3,968	248,358	123,798
66,261	-4,150	248,250	123,578
67,276	-4,334	247,926	123,249
68,290	-4,497	247,800	123,036
69,305	-4,732	247,596	122,724
70,320	-4,389	247,275	122,845
71,334	-4,258	247,147	122,882
72,349	-4,116	247,191	123,014
73,363	-3,856	246,879	123,067
74,378	-4,167	246,825	122,767
75,393	-4,164	246,504	122,598
76,407	-4,109	246,362	122,563
77,422	-4,157	246,099	122,381
78,436	-4,247	245,988	122,239
79,451	-4,320	245,845	122,095
80,466	-4,311	245,437	121,889
81,480	-4,415	245,146	121,647
82,495	-4,522	245,074	121,510
83,509	-4,340	244,841	121,537
84,524	-4,427	244,705	121,385
85,539	-4,621	244,327	121,024
86,553	-4,713	244,314	120,930
87,568	-4,378	244,047	121,068
88,582	-4,471	244,053	120,982
89,597	-4,557	243,757	120,752
90,611	-4,610	243,791	120,714
91,626	-4,114	243,443	120,945
92,641	-4,201	243,342	120,811
93,655	-4,177	243,098	120,699
94,670	-4,368	242,757	120,361
95,684	-4,318	242,850	120,438
96,699	-4,388	242,542	120,215
97,714	-4,499	242,340	120,013
98,728	-4,452	242,054	119,899
99,743	-4,739	241,944	119,597
100,757	-4,717	241,682	119,474
101,772	-4,474	241,511	119,580
102,787	-4,535	241,341	119,435
103,801	-4,421	241,369	119,533
104,816	-4,412	241,202	119,447
105,830	-4,275	240,920	119,409
106,845	-4,221	240,759	119,363
107,860	-4,356	240,559	119,142
108,874	-4,499	240,464	118,967
109,889	-4,616	240,258	118,758
110,903	-4,343	239,825	118,758
111,918	-4,634	239,833	118,512
112,933	-4,407	239,638	118,592
113,947	-4,179	239,341	118,620
114,962	-4,399	239,382	118,450
115,976	-4,171	239,094	118,483
116,991	-4,373	239,070	118,296
118,006	-4,192	238,817	118,308
119,020	-4,339	238,832	118,185
120,035	-4,256	238,476	118,066
121,049	-4,221	238,351	118,022
122,064	-4,126	238,169	117,999
123,079	-4,177	238,065	117,895
124,093	-4,454	237,881	117,568
125,108	-4,523	237,645	117,385
126,122	-4,725	237,345	117,062
127,137	-4,784	237,061	116,864
128,151	-4,527	236,978	117,021
129,166	-4,442	236,948	117,064
130,181	-4,506	236,601	116,831
131,195	-4,568	236,400	116,671
132,210	-4,453	236,467	116,787
133,224	-4,189	235,995	116,756
134,239	-4,215	236,095	116,774
135,254	-4,003	235,853	116,814
136,268	-4,364	235,583	116,380
137,283	-4,505	235,399	116,165
138,297	-4,963	235,230	115,704
139,312	-4,850	235,039	115,691
140,327	-4,519	235,067	115,959
141,341	-3,953	234,903	116,321
142,356	-3,995	234,798	116,226
143,370	-4,115	234,588	116,015
144,385	-3,871	234,412	116,113
145,400	-3,890	234,205	115,985
146,414	-3,903	234,095	115,910
147,429	-4,076	234,012	115,720
148,443	-4,016	233,852	115,679
149,458	-3,880	233,613	115,659
150,473	-4,125	233,484	115,389
151,487	-4,249	233,388	115,233
152,502	-4,270	233,142	115,085
153,516	-3,901	233,010	115,302
154,531	-3,813	232,630	115,174
155,546	-4,178	232,617	114,868
156,560	-4,081	232,403	114,829
157,575	-4,338	232,299	114,564
158,589	-3,988	231,952	114,659
159,604	-4,140	232,083	114,593
160,619	-4,043	231,881	114,560
161,633	-3,743	231,662	114,678
162,648	-3,930	231,501	114,440
163,662	-4,201	231,474	114,204
164,677	-4,045	231,261	114,211
165,692	-3,969	231,018	114,141
166,706	-3,933	230,876	114,089
167,721	-3,755	230,811	114,186
168,735	-3,922	230,831	114,054
169,750	-3,889	230,428	113,871
170,764	-3,921	230,428	113,836
171,779	-3,831	230,274	113,820
172,794	-3,760	229,998	113,729
173,808	-4,049	229,802	113,397
174,823	-4,546	229,573	112,885
175,837	-4,943	229,390	112,475
176,852	-4,335	229,386	112,938
177,867	-3,881	229,157	113,168
178,881	-3,929	229,060	113,073
179,896	-3,779	228,882	113,092
180,910	-3,868	228,754	112,949
181,925	-3,966	228,636	112,805
182,940	-3,909	228,534	112,789
183,954	-3,784	228,282	112,752
184,969	-3,743	228,273	112,768
185,983	-3,697	228,079	112,698
186,998	-3,573	227,882	112,687
188,013	-3,732	227,789	112,507
189,027	-3,579	227,370	112,409
190,042	-3,616	227,452	112,411
191,056	-3,888	227,331	112,131
192,071	-3,665	227,000	112,129
193,086	-3,819	226,979	111,990
194,100	-3,772	226,815	111,936
195,115	-4,127	226,267	111,383
196,129	-5,110	226,215	110,592
197,144	-1,901	227,187	113,532
198,159	2,186	228,049	117,108
199,173	4,114	228,603	118,871
200,188	4,476	228,269	118,966
201,202	4,178	228,325	118,755
202,217	4,558	228,261	119,004
203,232	4,757	228,268	119,150
204,246	4,606	228,162	118,968
205,261	4,660	227,891	118,857
206,275	4,960	227,753	119,005
207,290	5,073	227,684	119,045
208,304	4,782	227,657	118,797
209,319	4,932	227,445	118,791
210,334	4,833	227,188	118,571
211,348	4,730	226,820	118,289
212,363	4,282	226,718	117,883
213,377	4,157	226,377	117,600
214,392	3,967	226,294	117,401
215,407	4,196	226,172	117,502
216,421	4,002	226,132	117,323
217,436	4,002	225,878	117,181
218,450	3,767	225,673	116,885
219,465	3,642	225,453	116,666
220,480	3,880	225,454	116,836
221,494	3,605	225,174	116,472
222,509	4,094	225,146	116,818
223,523	3,901	224,969	116,570
224,538	3,953	224,747	116,484
225,553	4,034	224,732	116,527
226,567	4,144	224,718	116,592
227,582	4,229	224,549	116,559
228,596	4,329	224,519	116,608
229,611	4,280	224,148	116,369
230,626	3,916	223,929	115,970
231,640	3,792	223,861	115,831
232,655	4,315	223,827	116,197
233,669	4,656	223,664	116,359
234,684	4,829	223,547	116,417
235,699	4,358	223,426	115,990
236,713	4,130	223,122	115,651
237,728	3,950	222,969	115,426
238,742	4,097	222,626	115,349
239,757	3,853	222,624	115,154
240,772	3,927	222,451	115,110
241,786	3,994	222,376	115,111
242,801	4,336	222,209	115,270
243,815	4,418	222,123	115,276
244,830	4,451	222,056	115,256
245,844	4,197	221,838	114,943
246,859	4,092	221,582	114,721
247,874	4,356	221,620	114,927
248,888	4,276	221,456	114,773
249,903	4,027	221,290	114,491
250,917	3,987	221,153	114,381
251,932	4,044	220,962	114,314
252,947	3,838	220,767	114,050
253,961	3,834	220,559	113,929
254,976	4,037	220,499	114,038
255,990	4,296	220,408	114,173
257,005	4,074	220,377	113,983
258,020	4,099	220,122	113,859
259,034	4,453	220,038	114,067
260,049	4,284	219,945	113,884
261,063	4,278	219,608	113,695
262,078	4,362	219,587	113,736
263,093	4,218	219,474	113,561
264,107	4,399	219,165	113,524
265,122	4,403	219,168	113,519
266,136	4,451	219,128	113,523
267,151	4,439	218,962	113,418
268,166	4,080	218,779	113,049
269,180	3,819	218,520	112,715
270,195	3,977	218,326	112,720
271,209	3,988	218,182	112,643
272,224	3,828	218,182	112,516
273,239	4,221	218,026	112,713
274,253	3,951	217,849	112,415
275,268	3,815	217,630	112,192
276,282	3,940	217,365	112,137
277,297	3,908	217,164	111,999
278,312	3,782	217,248	111,941
279,326	3,939	216,999	111,917
280,341	3,864	217,079	111,894
281,355	4,106	216,938	111,987
282,370	4,130	216,653	111,847
283,384	4,114	216,457	111,725
284,399	3,996	216,298	111,547
285,414	3,795	216,181	111,331
286,428	3,857	216,114	111,332
287,443	4,149	216,102	111,527
288,457	4,235	215,917	111,484
289,472	4,157	215,725	111,319
290,487	3,483	215,489	110,700
291,501	3,456	215,199	110,522
292,516	3,587	215,226	110,620
293,530	3,920	215,117	110,794
294,545	3,966	214,930	110,721
295,560	3,887	214,862	110,619
296,574	3,878	214,786	110,564
297,589	4,045	214,641	110,600
298,603	4,154	214,508	110,600
299,618	4,187	214,345	110,529
300,633	4,099	214,272	110,418
301,647	4,153	214,244	110,433
302,662	4,271	214,037	110,401
303,676	4,290	213,907	110,337
304,691	4,228	213,761	110,208
305,706	4,406	213,419	110,149
306,720	4,377	213,542	110,182
307,735	4,055	213,332	109,834
308,749	3,912	213,157	109,632
309,764	3,913	213,076	109,582
310,779	4,472	212,855	109,856
311,793	4,277	212,775	109,666
312,808	4,266	212,736	109,629
313,822	4,327	212,400	109,489
314,837	3,966	212,210	109,125
315,852	3,814	212,170	108,987
316,866	3,705	212,117	108,873
317,881	4,233	212,019	109,187
318,895	4,236	211,825	109,080
319,910	4,047	211,576	108,808
320,925	3,760	211,367	108,488
321,939	3,483	211,208	108,201
322,954	3,653	211,150	108,282
323,968	3,858	211,209	108,447
324,983	4,077	211,046	108,508
325,997	4,330	210,993	108,650
327,012	4,037	210,813	108,341
328,027	3,955	210,617	108,172
329,041	4,382	210,479	108,393
330,056	4,725	210,474	108,621
331,070	3,978	210,178	107,934
332,085	3,762	209,913	107,637
333,100	3,980	209,853	107,750
334,114	4,250	209,723	107,862
335,129	4,132	209,654	107,735
336,143	3,910	209,479	107,480
337,158	4,218	209,212	107,549
338,173	3,923	209,153	107,302
339,187	3,865	209,071	107,211
340,202	3,724	208,826	106,977
341,216	3,837	208,675	106,968
342,231	4,022	208,605	107,052
343,246	3,814	208,538	106,864
344,260	3,689	208,387	106,689
345,275	3,893	208,239	106,746
346,289	4,127	208,117	106,837
347,304	4,152	208,072	106,821
348,319	4,237	207,835	106,749
349,333	4,104	207,718	106,587
350,348	4,245	207,578	106,603
351,362	4,328	207,494	106,608
352,377	4,138	207,427	106,432
353,392	4,050	207,260	106,277
354,406	4,125	207,175	106,276
355,421	193,991	1344,722	1433,771
356,435	154,752	1483,432	1433,899
