DTS Sentinel unit serial number:	SN410029Multiplexer serial number:	ORYXHardware model number:	OX2-SRSoftware version number:	ORYX F/W v4,00 Oryx Data Collector v3.7.2.0data status	okinstallation	B6 Nyhavnadifferential loss correction	single-endedforward channel	channel 2reverse channel	N/Adate	2023/12/08time	02:20:08forward acquisition time	300,00reverse acquisition time	0,00gamma	499,1914k internal	0,3165k external	0,3165temperature offset calibration	1,0000default loss term (dB/km)	0,3820temperature slope calibration	1,0000multiplexer offset coefficient	1,0000multiplexer slope coefficient	1,0000fibre end	0,00T internal ref (°C)	13,18T ext. ref 1 (°C)	-3,70T ext. ref 2 (°C)	-3,71length (m)	temperature (°C)	Stokes	anti-Stokes-744,400	-13,740	0,161	-0,076
-743,385	-15,929	-0,280	-0,131
-742,371	-74,691	0,146	-0,038
-741,356	-195,950	-0,337	0,002
-740,342	-30,469	0,111	-0,046
-739,327	-98,139	-0,385	-0,072
-738,312	-69,713	0,090	-0,025
-737,298	-97,595	-0,262	-0,049
-736,283	418,918	0,041	0,065
-735,269	-86,906	-0,152	0,034
-734,254	-62,387	0,117	0,036
-733,239	-80,629	-0,565	-0,137
-732,225	-109,902	0,285	-0,043
-731,210	800,000	-0,056	-0,136
-730,196	74,159	-0,097	-0,075
-729,181	312,338	0,076	-0,106
-728,167	-31,599	-0,112	-0,046
-727,152	174,682	0,126	-0,134
-726,137	103,449	-0,143	0,123
-725,123	23,274	-0,061	0,037
-724,108	-200,000	-0,006	-0,212
-723,094	747,213	-0,091	-0,181
-722,079	800,000	-0,003	0,006
-721,064	98,772	0,053	0,045
-720,050	240,560	0,037	0,046
-719,035	7,628	0,023	0,013
-718,021	357,183	-0,077	-0,113
-717,006	800,000	-0,049	-0,108
-715,991	-200,000	-0,034	-0,156
-714,977	367,897	-0,013	0,019
-713,962	-200,000	-0,012	-0,097
-712,948	-200,000	0,016	0,056
-711,933	-74,252	-0,142	-0,037
-710,918	-61,384	-0,112	-0,034
-709,904	17,388	-0,066	-0,038
-708,889	121,208	-0,009	0,008
-707,875	-103,968	-0,155	-0,026
-706,860	-200,000	0,009	0,089
-705,845	-200,000	0,029	0,114
-704,831	-68,512	-0,082	-0,023
-703,816	68,242	-0,046	0,035
-702,802	89,530	0,134	-0,110
-701,787	480,076	0,077	-0,128
-700,772	-127,769	-0,118	0,012
-699,758	224,405	0,032	0,038
-698,743	800,000	-0,034	0,069
-697,729	584,978	-0,025	-0,045
-696,714	435,313	0,086	-0,137
-695,699	-91,929	-0,063	0,013
-694,685	-200,000	-0,009	-0,042
-693,670	-46,778	-0,048	-0,017
-692,656	800,000	0,011	0,022
-691,641	-200,000	0,019	-0,101
-690,627	530,843	-0,057	0,099
-689,612	-8,381	0,087	-0,043
-688,597	115,046	0,060	0,054
-687,583	-197,676	-0,101	0,000
-686,568	-200,000	-0,008	-0,135
-685,554	140,312	-0,156	-0,151
-684,539	-2,769	0,088	-0,045
-683,524	800,000	0,021	0,048
-682,510	236,814	-0,055	-0,067
-681,495	30,837	-0,138	-0,086
-680,481	800,000	-0,036	-0,109
-679,466	800,000	-0,013	-0,042
-678,451	26,785	-0,052	-0,032
-677,437	-16,548	0,086	0,040
-676,422	-45,224	-0,039	0,014
-675,408	800,000	-0,023	0,065
-674,393	-40,433	-0,061	-0,023
-673,378	-23,189	-0,064	-0,028
-672,364	125,405	-0,032	0,030
-671,349	-129,837	0,173	-0,017
-670,335	86,435	0,074	-0,059
-669,320	-36,680	-0,106	-0,042
-668,305	-200,000	-0,005	0,099
-667,291	199,028	-0,058	0,065
-666,276	15,876	-0,067	-0,039
-665,262	221,959	-0,090	-0,107
-664,247	-113,829	-0,118	0,017
-663,232	-122,439	-0,112	0,013
-662,218	-16,208	0,060	0,028
-661,203	-131,507	0,098	-0,009
-660,189	-200,000	-0,011	-0,103
-659,174	-83,629	-0,139	0,032
-658,159	-200,000	-0,035	-0,180
-657,145	23,645	-0,038	-0,023
-656,130	-53,497	-0,063	0,021
-655,116	800,000	0,041	-0,097
-654,101	645,079	-0,039	0,073
-653,086	-83,514	0,107	0,025
-652,072	71,412	-0,040	-0,030
-651,057	460,428	0,089	-0,145
-650,043	-148,841	0,116	0,007
-649,028	-200,000	-0,020	-0,100
-648,014	-200,000	-0,013	-0,053
-646,999	-45,701	-0,024	0,009
-645,984	-30,375	0,051	0,021
-644,970	791,729	0,035	-0,071
-643,955	17,046	-0,101	-0,058
-642,941	-192,735	-0,181	-0,001
-641,926	-81,949	-0,048	0,011
-640,911	800,000	-0,047	0,100
-639,897	-45,492	0,140	0,050
-638,882	43,918	-0,042	-0,028
-637,868	-75,587	-0,041	-0,011
-636,853	800,000	-0,062	-0,153
-635,838	-200,000	0,014	-0,134
-634,824	428,107	-0,075	-0,119
-633,809	800,000	0,075	-0,208
-632,795	800,000	0,024	-0,073
-631,780	206,516	0,007	0,008
-630,765	66,120	0,097	-0,072
-629,751	-200,000	-0,008	-0,166
-628,736	-134,358	-0,087	0,008
-627,722	-200,000	0,016	-0,151
-626,707	-0,314	0,025	-0,013
-625,692	494,523	-0,045	-0,076
-624,678	21,689	-0,026	0,016
-623,663	372,746	-0,090	-0,134
-622,649	152,280	-0,040	-0,040
-621,634	-200,000	-0,013	-0,081
-620,619	-90,318	-0,075	0,016
-619,605	-105,018	0,144	-0,024
-618,590	800,000	0,039	0,091
-617,576	800,000	0,032	-0,089
-616,561	537,722	0,043	-0,076
-615,546	-87,781	-0,065	-0,014
-614,532	-64,770	0,047	0,014
-613,517	-200,000	-0,007	0,120
-612,503	222,675	-0,062	-0,073
-611,488	45,789	-0,064	-0,043
-610,474	-200,000	0,018	-0,094
-609,459	146,992	-0,051	0,050
-608,444	-153,162	-0,086	-0,004
-607,430	-200,000	-0,012	-0,103
-606,415	800,000	-0,058	-0,181
-605,401	800,000	0,084	-0,234
-604,386	800,000	-0,040	0,126
-603,371	104,072	0,036	0,031
-602,357	650,809	-0,026	-0,048
-601,342	-200,000	0,035	-0,136
-600,328	-200,000	-0,002	0,025
-599,313	-200,000	0,031	-0,115
-598,298	-124,500	-0,069	-0,008
-597,284	68,708	-0,124	-0,093
-596,269	331,844	0,082	0,116
-595,255	-135,397	-0,077	0,007
-594,240	-200,000	0,000	0,012
-593,225	800,000	0,043	0,114
-592,211	800,000	-0,046	-0,115
-591,196	-75,607	-0,088	-0,023
-590,182	140,670	0,054	0,052
-589,167	800,000	0,028	0,058
-588,152	-131,586	-0,066	-0,006
-587,138	171,861	-0,044	0,046
-586,123	31,705	-0,037	-0,023
-585,109	110,707	-0,098	-0,086
-584,094	-200,000	-0,024	-0,091
-583,079	92,283	0,057	-0,047
-582,065	-200,000	-0,041	-0,142
-581,050	800,000	-0,013	-0,031
-580,036	-200,000	0,010	0,140
-579,021	-200,000	-0,042	-0,182
-578,006	265,595	-0,040	-0,051
-576,992	-200,000	-0,007	-0,052
-575,977	-83,547	-0,059	-0,014
-574,963	237,747	-0,048	-0,058
-573,948	-108,318	0,088	-0,014
-572,934	622,901	0,021	0,038
-571,919	800,000	-0,052	-0,121
-570,904	587,886	-0,049	-0,089
-569,890	-200,000	-0,020	-0,139
-568,875	-51,618	-0,048	0,016
-567,861	-200,000	-0,022	0,115
-566,846	-200,000	-0,003	0,046
-565,831	-74,778	-0,073	0,019
-564,817	427,050	-0,042	0,067
-563,802	-117,049	-0,185	-0,024
-562,788	641,046	0,037	-0,070
-561,773	-110,315	0,083	-0,013
-560,758	800,000	0,072	-0,179
-559,744	800,000	-0,073	-0,177
-558,729	800,000	-0,041	0,112
-557,715	128,717	-0,119	-0,111
-556,700	800,000	-0,042	0,092
-555,685	800,000	0,015	-0,030
-554,671	-151,624	0,035	-0,002
-553,656	21,831	-0,028	-0,016
-552,642	-79,480	-0,031	0,008
-551,627	43,967	-0,056	-0,037
-550,612	-142,540	0,105	0,007
-549,598	173,373	0,026	0,028
-548,583	68,323	0,055	-0,041
-547,569	54,516	-0,164	0,115
-546,554	249,458	0,091	-0,112
-545,539	109,438	-0,066	-0,058
-544,525	800,000	0,056	-0,113
-543,510	158,881	-0,146	-0,148
-542,496	309,380	-0,058	-0,080
-541,481	53,704	-0,101	-0,071
-540,466	-200,000	0,060	0,225
-539,452	402,220	-0,052	-0,080
-538,437	-200,000	0,010	0,164
-537,423	-200,000	-0,014	0,120
-536,408	800,000	-0,005	-0,016
-535,393	323,563	0,073	-0,102
-534,379	-200,000	-0,013	-0,109
-533,364	-200,000	0,005	0,090
-532,350	60,655	-0,123	0,089
-531,335	79,563	-0,065	0,051
-530,321	564,365	-0,013	-0,023
-529,306	-200,000	-0,001	0,018
-528,291	46,769	-0,043	-0,029
-527,277	-200,000	-0,022	-0,073
-526,262	800,000	0,065	-0,135
-525,248	207,157	0,084	0,096
-524,233	-101,441	-0,122	0,021
-523,218	87,654	0,041	-0,033
-522,204	701,131	0,037	-0,072
-521,189	52,784	-0,040	-0,028
-520,175	-91,300	-0,094	0,020
-519,160	636,313	0,015	-0,029
-518,145	431,283	-0,059	0,093
-517,131	162,349	-0,028	-0,028
-516,116	-9,564	0,157	0,076
-515,102	14,976	0,025	-0,014
-514,087	652,678	0,033	-0,062
-513,072	-84,817	-0,049	0,011
-512,058	-179,363	0,118	-0,002
-511,043	-44,102	-0,084	-0,031
-510,029	-200,000	-0,009	0,106
-509,014	-200,000	-0,004	0,095
-507,999	-200,000	-0,028	0,096
-506,985	28,276	-0,077	-0,047
-505,970	-200,000	0,003	0,021
-504,956	-57,046	-0,112	-0,036
-503,941	-82,508	0,152	-0,036
-502,926	476,802	0,027	0,044
-501,912	-102,553	-0,024	0,004
-500,897	-12,780	0,050	-0,024
-499,883	-136,824	-0,119	-0,010
-498,868	-12,784	-0,088	-0,042
-497,853	1,538	-0,092	0,048
-496,839	-200,000	0,038	0,197
-495,824	-200,000	-0,038	0,172
-494,810	800,000	-0,058	0,125
-493,795	-89,132	0,114	0,024
-492,781	294,459	0,075	-0,101
-491,766	-145,169	0,006	0,000
-490,751	138,163	-0,066	-0,063
-489,737	-20,356	-0,050	0,022
-488,722	-200,000	0,000	-0,017
-487,708	361,628	0,036	0,052
-486,693	18,042	0,113	-0,065
-485,678	-200,000	-0,014	0,153
-484,664	-116,700	-0,116	-0,015
-483,649	379,031	-0,065	-0,097
-482,635	-151,825	-0,117	-0,006
-481,620	800,000	0,009	-0,022
-480,605	-19,667	0,028	0,013
-479,591	252,325	0,085	0,106
-478,576	356,469	-0,038	0,055
-477,562	16,073	-0,053	0,030
-476,547	-200,000	-0,011	0,152
-475,532	-200,000	0,014	0,085
-474,518	-200,000	-0,019	0,067
-473,503	111,723	0,053	0,047
-472,489	-200,000	-0,012	0,041
-471,474	-59,887	-0,123	-0,038
-470,459	-126,722	0,077	0,008
-469,445	-7,941	-0,052	0,026
-468,430	-67,179	0,036	0,010
-467,416	-200,000	-0,009	-0,072
-466,401	110,358	0,021	0,019
-465,386	-43,614	0,123	-0,045
-464,372	-127,436	-0,125	0,013
-463,357	-21,015	-0,071	0,032
-462,343	800,000	0,049	-0,115
-461,328	-158,488	0,031	0,001
-460,313	800,000	0,035	-0,071
-459,299	-38,330	-0,099	-0,038
-458,284	383,253	-0,039	-0,059
-457,270	800,000	0,007	0,020
-456,255	12,863	0,045	-0,025
-455,241	218,805	-0,055	-0,064
-454,226	-200,000	-0,036	-0,151
-453,211	185,819	-0,020	-0,022
-452,197	-3,791	0,148	-0,074
-451,182	-162,532	-0,058	0,002
-450,168	253,088	-0,052	0,064
-449,153	302,670	-0,080	0,108
-448,138	138,743	-0,039	0,037
-447,124	166,489	-0,054	0,056
-446,109	556,857	-0,013	0,023
-445,095	51,630	-0,052	0,036
-444,080	315,025	-0,043	0,059
-443,065	-140,706	-0,061	0,005
-442,051	75,988	0,060	-0,046
-441,036	84,262	-0,062	-0,049
-440,022	-93,015	0,136	0,027
-439,007	-171,067	0,099	-0,002
-437,992	105,725	-0,067	-0,057
-436,978	-200,000	0,031	0,150
-435,963	-200,000	-0,010	0,079
-434,949	144,201	-0,073	0,071
-433,934	360,453	0,045	-0,066
-432,919	-200,000	0,010	0,045
-431,905	-200,000	0,027	0,141
-430,890	-146,476	0,071	0,004
-429,876	-200,000	-0,006	0,157
-428,861	-200,000	-0,008	0,045
-427,846	-200,000	-0,009	0,062
-426,832	328,958	-0,098	-0,137
-425,817	-200,000	-0,005	0,177
-424,803	-5,144	-0,067	0,033
-423,788	180,896	0,094	0,100
-422,773	-200,000	0,015	0,069
-421,759	-147,403	0,064	0,004
-420,744	-66,191	0,068	-0,020
-419,730	800,000	-0,038	-0,103
-418,715	-200,000	-0,013	-0,057
-417,701	278,824	-0,064	0,083
-416,686	226,601	0,063	0,075
-415,671	318,880	0,140	0,194
-414,657	-36,026	0,161	0,063
-413,642	127,497	0,111	-0,103
-412,628	800,000	0,008	-0,019
-411,613	-142,491	0,039	0,003
-410,598	-200,000	-0,004	-0,056
-409,584	800,000	0,041	0,110
-408,569	184,846	0,147	0,158
-407,555	-30,653	0,179	0,073
-406,540	-200,000	-0,012	-0,040
-405,525	800,000	0,052	0,140
-404,511	-163,172	-0,206	-0,007
-403,496	-200,000	-0,013	0,098
-402,482	-40,923	0,093	0,035
-401,467	-200,000	0,012	0,116
-400,452	-126,454	-0,131	0,014
-399,438	24,306	-0,017	-0,010
-398,423	-37,634	0,070	0,027
-397,409	-31,952	0,061	-0,025
-396,394	-85,325	0,011	-0,002
-395,379	103,541	-0,108	-0,092
-394,365	-139,810	-0,022	0,002
-393,350	-200,000	0,015	-0,107
-392,336	-200,000	0,032	-0,144
-391,321	419,368	-0,023	-0,036
-390,306	800,000	-0,031	-0,096
-389,292	-71,179	0,066	0,018
-388,277	-200,000	-0,025	-0,111
-387,263	-24,491	0,082	0,035
-386,248	-200,000	-0,008	0,029
-385,233	800,000	0,041	0,112
-384,219	620,874	0,031	0,057
-383,204	-200,000	-0,013	-0,127
-382,190	-200,000	-0,016	-0,078
-381,175	800,000	0,044	0,135
-380,160	58,443	0,039	0,028
-379,146	5,920	0,204	0,109
-378,131	-0,846	-0,039	0,020
-377,117	107,781	0,087	-0,075
-376,102	-200,000	-0,045	0,154
-375,088	-90,456	-0,163	0,034
-374,073	-95,974	0,109	-0,021
-373,058	676,474	-0,016	-0,030
-372,044	455,938	0,038	-0,061
-371,029	-16,627	0,099	0,045
-370,015	233,558	-0,040	0,048
-369,000	386,372	0,032	-0,048
-367,985	-39,688	-0,133	-0,050
-366,971	800,000	-0,029	-0,070
-365,956	-110,217	0,118	0,018
-364,942	1,621	0,024	-0,012
-363,927	800,000	-0,084	0,171
-362,912	18,484	-0,075	0,043
-361,898	800,000	0,061	-0,167
-360,883	219,761	-0,049	0,057
-359,869	-47,849	-0,031	0,011
-358,854	503,993	0,048	-0,081
-357,839	-112,208	-0,039	-0,006
-356,825	800,000	-0,063	-0,173
-355,810	-200,000	-0,034	0,141
-354,796	191,725	-0,038	0,042
-353,781	-159,120	0,049	-0,002
-352,766	82,818	-0,020	-0,016
-351,752	-155,995	-0,089	-0,004
-350,737	553,162	0,110	-0,192
-349,723	-23,802	0,011	0,005
-348,708	800,000	0,042	0,123
-347,693	-200,000	0,020	-0,107
-346,679	81,387	0,053	0,041
-345,664	191,880	-0,029	-0,032
-344,650	295,289	-0,093	-0,124
-343,635	-19,524	0,049	0,022
-342,620	107,288	0,040	0,035
-341,606	800,000	-0,056	0,118
-340,591	757,252	-0,049	0,096
-339,577	-106,379	-0,060	0,010
-338,562	-23,566	-0,091	-0,039
-337,548	-200,000	0,006	-0,115
-336,533	107,652	-0,057	0,049
-335,518	-179,226	-0,150	0,002
-334,504	-82,669	0,180	0,042
-333,489	-135,330	0,072	-0,006
-332,475	45,949	0,078	0,052
-331,460	29,634	0,086	0,053
-330,445	-200,000	-0,049	0,168
-329,431	-115,697	-0,029	-0,004
-328,416	-200,000	-0,008	-0,053
-327,402	-0,831	0,106	-0,054
-326,387	603,789	0,025	-0,045
-325,372	92,105	0,060	-0,049
-324,358	68,539	0,024	0,018
-323,343	355,402	0,067	-0,096
-322,329	-68,949	-0,053	0,015
-321,314	-149,083	0,158	0,009
-320,299	4,347	-0,112	0,059
-319,285	-200,000	-0,005	0,142
-318,270	163,450	0,023	-0,024
-317,256	-77,289	-0,088	0,022
-316,241	-200,000	0,006	-0,115
-315,226	-79,754	0,143	0,035
-314,212	-200,000	0,040	-0,129
-313,197	-4,390	-0,051	0,025
-312,183	108,435	0,117	0,101
-311,168	-149,155	-0,163	0,009
-310,153	36,854	-0,058	0,037
-309,139	-200,000	-0,013	0,040
-308,124	-200,000	-0,016	0,052
-307,110	167,589	0,069	-0,071
-306,095	-51,372	-0,129	0,043
-305,080	59,358	0,028	-0,020
-304,066	553,744	-0,049	-0,086
-303,051	-200,000	-0,003	0,080
-302,037	450,619	0,048	0,077
-301,022	197,198	-0,066	-0,073
-300,008	111,269	0,081	0,071
-298,993	-15,672	0,035	-0,016
-297,978	-55,772	0,023	0,007
-296,964	-175,984	-0,051	0,001
-295,949	-149,427	0,023	0,001
-294,935	290,866	0,047	0,062
-293,920	-14,403	0,126	-0,058
-292,905	-1,312	-0,047	0,024
-291,891	-55,931	0,135	-0,043
-290,876	800,000	-0,032	0,097
-289,862	-200,000	0,013	-0,117
-288,847	800,000	0,040	-0,083
-287,832	-64,321	-0,173	-0,050
-286,818	-82,080	0,143	0,033
-285,803	64,753	-0,154	0,112
-284,789	-53,546	0,062	-0,020
-283,774	206,602	-0,057	0,064
-282,759	-200,000	0,016	0,058
-281,745	-200,000	-0,001	0,034
-280,730	-19,456	0,134	-0,060
-279,716	158,239	-0,045	0,045
-278,701	800,000	0,045	0,100
-277,686	134,832	0,077	0,072
-276,672	-200,000	0,026	0,121
-275,657	-128,172	0,072	0,007
-274,643	51,916	0,122	0,084
-273,628	424,254	-0,046	-0,072
-272,613	183,069	-0,061	-0,065
-271,599	306,414	0,111	0,150
-270,584	435,296	0,048	0,076
-269,570	264,392	0,039	-0,049
-268,555	-114,369	-0,082	0,011
-267,540	800,000	0,057	-0,118
-266,526	800,000	-0,034	0,075
-265,511	-200,000	-0,004	0,048
-264,497	780,345	0,015	0,030
-263,482	-61,722	0,066	0,020
-262,467	-200,000	-0,022	0,099
-261,453	-200,000	-0,006	-0,073
-260,438	141,166	0,036	-0,034
-259,424	-174,089	0,121	0,002
-258,409	170,552	0,103	0,106
-257,395	329,403	0,043	0,060
-256,380	426,081	0,070	0,110
-255,365	-200,000	-0,003	-0,052
-254,351	45,914	0,109	0,073
-253,336	-134,469	-0,077	-0,007
-252,322	-200,000	-0,014	-0,079
-251,307	-36,985	-0,106	0,041
-250,292	-200,000	0,004	-0,054
-249,278	800,000	-0,029	-0,081
-248,263	-94,997	0,109	-0,021
-247,249	412,651	-0,082	0,127
-246,234	-200,000	-0,012	0,073
-245,219	-200,000	0,011	-0,098
-244,205	-91,798	-0,135	-0,027
-243,190	353,056	0,030	0,043
-242,176	-119,709	-0,027	0,003
-241,161	-200,000	0,018	0,076
-240,146	-12,817	0,014	-0,007
-239,132	-82,452	0,079	-0,018
-238,117	-143,541	0,143	0,010
-237,103	-200,000	-0,005	0,030
-236,088	800,000	-0,021	-0,056
-235,073	-200,000	0,021	-0,141
-234,059	-107,363	-0,174	-0,027
-233,044	800,000	0,010	-0,028
-232,030	-200,000	0,013	-0,093
-231,015	-200,000	0,004	0,026
-230,000	-200,000	0,042	-0,135
-228,986	-118,028	-0,075	-0,009
-227,971	-27,647	0,099	0,041
-226,957	-75,769	0,124	0,032
-225,942	-200,000	0,007	0,129
-224,927	-200,000	0,006	0,224
-223,913	29,205	0,029	0,017
-222,898	800,000	0,055	-0,117
-221,884	-127,175	-0,107	0,011
-220,869	254,046	0,071	0,087
-219,855	-138,918	0,123	-0,010
-218,840	800,000	-0,013	-0,028
-217,825	-21,840	-0,063	-0,028
-216,811	61,435	0,123	-0,088
-215,796	-142,279	-0,164	0,012
-214,782	-200,000	0,006	0,091
-213,767	161,987	0,159	0,161
-212,752	111,101	0,052	0,045
-211,738	-158,265	-0,049	0,002
-210,723	-81,429	-0,047	0,011
-209,709	51,944	-0,066	-0,045
-208,694	-200,000	0,015	-0,204
-207,679	-44,797	0,141	-0,050
-206,665	-200,000	-0,024	-0,118
-205,650	-78,592	0,067	0,016
-204,636	29,465	-0,048	0,029
-203,621	243,154	-0,030	0,036
-202,606	-86,457	-0,134	0,029
-201,592	-70,835	-0,110	-0,030
-200,577	141,376	0,046	0,044
-199,563	343,131	0,059	-0,084
-198,548	-94,712	-0,036	-0,007
-197,533	-36,943	-0,036	0,014
-196,519	-14,555	-0,052	-0,024
-195,504	-77,570	-0,137	-0,034
-194,490	800,000	0,004	-0,010
-193,475	49,990	0,111	0,075
-192,460	-72,413	0,073	-0,019
-191,446	472,235	0,057	0,093
-190,431	242,322	-0,015	-0,018
-189,417	-1,073	-0,069	-0,035
-188,402	102,464	0,026	0,022
-187,387	-86,797	-0,109	0,024
-186,373	800,000	0,013	-0,038
-185,358	496,767	0,066	0,110
-184,344	-59,871	0,175	0,054
-183,329	-143,420	0,136	-0,009
-182,315	-122,164	0,178	-0,021
-181,300	-24,888	-0,085	0,036
-180,285	-20,344	-0,036	0,016
-179,271	-79,384	0,074	0,018
-178,256	43,551	0,086	0,057
-177,242	423,311	0,034	0,053
-176,227	-200,000	0,037	0,119
-175,212	134,818	-0,109	0,102
-174,198	800,000	0,028	-0,085
-173,183	-200,000	-0,041	-0,159
-172,169	-200,000	0,005	-0,097
-171,154	-200,000	-0,002	-0,111
-170,139	-12,915	-0,017	0,008
-169,125	67,123	0,084	-0,061
-168,110	-200,000	-0,006	0,073
-167,096	360,102	-0,019	0,027
-166,081	-200,000	-0,010	-0,080
-165,066	800,000	-0,053	-0,132
-164,052	-200,000	0,010	-0,075
-163,037	-200,000	0,021	0,119
-162,023	640,790	0,043	0,079
-161,008	-200,000	0,015	-0,049
-159,993	20,801	0,090	0,052
-158,979	-200,000	0,017	0,116
-157,964	673,872	0,085	0,160
-156,950	-111,550	-0,023	-0,003
-155,935	-113,547	-0,083	0,012
-154,920	-200,000	-0,013	0,043
-153,906	800,000	0,054	0,117
-152,891	-78,224	-0,122	-0,030
-151,877	-26,074	-0,053	-0,022
-150,862	-52,997	-0,041	-0,014
-149,847	800,000	0,070	0,174
-148,833	-60,136	0,131	-0,040
-147,818	-106,834	0,055	-0,009
-146,804	347,359	-0,031	0,044
-145,789	148,566	-0,060	0,058
-144,775	331,037	0,006	0,008
-143,760	-200,000	0,012	-0,062
-142,745	249,569	-0,011	0,014
-141,731	65,572	0,102	-0,074
-140,716	278,624	0,044	-0,056
-139,702	-196,213	-0,091	0,000
-138,687	-108,038	-0,079	0,012
-137,672	-21,746	0,048	0,021
-136,658	-200,000	-0,025	-0,207
-135,643	800,000	-0,049	-0,099
-134,629	227,462	0,042	-0,049
-133,614	-194,446	0,056	-0,000
-132,599	-23,038	0,036	0,016
-131,585	43,102	-0,085	0,056
-130,570	25,504	-0,027	-0,016
-129,556	299,069	0,041	-0,054
-128,541	-75,641	-0,051	0,013
-127,526	8,968	0,113	0,061
-126,512	-200,000	-0,014	-0,132
-125,497	111,861	0,110	-0,095
-124,483	145,093	-0,067	0,064
-123,468	-200,000	-0,005	-0,107
-122,453	-118,144	0,121	0,015
-121,439	-114,944	-0,074	0,010
-120,424	59,207	-0,158	0,111
-119,410	800,000	0,055	0,132
-118,395	183,471	0,066	0,070
-117,380	-90,759	0,060	-0,012
-116,366	70,170	-0,107	-0,079
-115,351	307,481	0,012	-0,017
-114,337	368,049	-0,086	-0,126
-113,322	-200,000	-0,002	-0,137
-112,307	24,437	-0,011	0,007
-111,293	522,842	0,023	0,039
-110,278	-200,000	-0,004	0,027
-109,264	707,921	0,060	0,114
-108,249	800,000	-0,028	-0,065
-107,234	92,901	0,053	-0,043
-106,220	93,455	-0,102	-0,083
-105,205	-40,395	-0,024	0,009
-104,191	45,439	0,119	0,078
-103,176	451,075	0,058	0,093
-102,162	800,000	0,045	-0,101
-101,147	47,002	0,070	-0,046
-100,132	9,390	-0,157	-0,085
-99,118	215,096	0,040	-0,046
-98,103	403,555	0,089	-0,134
-97,089	-94,360	-0,151	-0,029
-96,074	-50,234	-0,048	0,016
-95,059	169,123	-0,094	0,097
-94,045	334,852	-0,028	-0,039
-93,030	336,480	0,127	-0,178
-92,016	-200,000	0,005	-0,103
-91,001	-130,527	-0,063	-0,006
-89,986	-200,000	-0,004	-0,032
-88,972	-23,058	0,145	-0,062
-87,957	-133,875	-0,115	-0,010
-86,943	175,839	-0,029	0,030
-85,928	-200,000	0,023	-0,117
-84,913	800,000	0,001	-0,002
-83,899	144,883	-0,034	-0,032
-82,884	-200,000	-0,012	-0,047
-81,870	-200,000	0,014	-0,058
-80,855	-104,529	0,075	0,012
-79,840	-182,710	-0,121	-0,002
-78,826	-200,000	-0,107	0,000
-77,811	-200,000	-0,037	-0,150
-76,797	800,000	-0,030	-0,082
-75,782	124,552	-0,045	0,041
-74,767	-85,751	0,168	-0,037
-73,753	-43,121	-0,042	-0,015
-72,738	659,502	-0,065	-0,121
-71,724	800,000	0,013	-0,039
-70,709	-127,618	-0,067	-0,007
-69,694	-200,000	-0,010	0,071
-68,680	-135,295	0,175	0,015
-67,665	-89,702	0,088	0,018
-66,651	-200,000	0,003	-0,031
-65,636	-97,359	0,080	0,015
-64,622	21,632	-0,135	0,079
-63,607	97,985	-0,174	0,144
-62,592	800,000	0,032	-0,080
-61,578	50,881	0,109	-0,074
-60,563	116,539	0,023	0,020
-59,549	738,777	-0,039	-0,075
-58,534	34,566	-2,195	-1,370
-57,519	-200,000	0,049	-0,815
-56,505	-200,000	-1,477	-5,245
-55,490	49,384	0,912	0,614
-54,476	800,000	5,402	12,169
-53,461	-200,000	18,766	318,970
-52,446	800,000	741,022	2323,547
-51,432	549,862	1654,530	2851,403
-50,417	109,984	1637,825	1406,704
-49,403	73,586	1287,975	964,778
-48,388	29,633	1029,673	625,803
-47,373	19,637	992,580	570,218
-46,359	16,980	980,235	554,382
-45,344	13,556	976,494	541,013
-44,330	13,916	974,763	541,210
-43,315	13,230	972,958	537,943
-42,300	13,148	971,977	537,110
-41,286	13,183	971,102	536,721
-40,271	13,241	970,069	536,317
-39,257	13,227	969,261	535,802
-38,242	13,155	968,418	535,080
-37,227	13,220	967,612	534,825
-36,213	13,170	966,692	534,135
-35,198	13,152	965,850	533,588
-34,184	13,249	964,836	533,321
-33,169	13,236	963,983	532,789
-32,154	13,230	962,939	532,171
-31,140	13,154	962,367	531,585
-30,125	13,259	961,534	531,445
-29,111	13,206	960,672	530,776
-28,096	13,221	960,023	530,446
-27,082	13,248	959,268	530,095
-26,067	13,236	958,618	529,675
-25,052	13,262	957,659	529,208
-24,038	13,210	957,129	528,727
-23,023	13,209	956,589	528,404
-22,009	13,184	956,126	528,046
-20,994	13,290	955,066	527,783
-19,979	13,255	954,473	527,321
-18,965	13,225	954,036	526,962
-17,950	13,195	953,562	526,583
-16,936	13,205	952,792	526,168
-15,921	13,148	952,057	525,561
-14,906	13,137	951,410	525,147
-13,892	13,124	950,675	524,680
-12,877	13,117	950,028	524,277
-11,863	13,002	949,338	523,510
-10,848	13,121	948,866	523,607
-9,833	13,206	948,431	523,617
-8,819	13,180	947,681	523,100
-7,804	13,101	947,138	522,529
-6,790	13,086	946,641	522,184
-5,775	13,192	945,966	522,130
-4,760	13,186	945,227	521,683
-3,746	13,135	944,780	521,253
-2,731	12,991	943,989	520,338
-1,717	12,971	943,244	519,845
-0,702	12,880	942,779	519,279
0,313	12,748	942,085	519,264
1,327	16,154	939,769	528,696
2,342	25,255	790,405	468,654
3,356	21,234	445,007	257,873
4,371	-7,918	297,977	143,298
5,386	-11,633	279,846	131,016
6,400	-12,999	274,242	127,101
7,415	-13,066	271,838	125,914
8,429	-13,186	270,309	125,084
9,444	-13,154	269,453	124,706
10,459	-13,155	268,813	124,397
11,473	-13,355	268,203	123,921
12,488	-13,394	267,644	123,616
13,502	-13,495	267,100	123,261
14,517	-13,505	266,722	123,066
15,531	-13,561	266,353	122,834
16,546	-13,325	265,827	122,795
17,561	-13,355	265,659	122,680
18,575	-13,305	265,196	122,500
19,590	-13,336	264,712	122,238
20,604	-13,336	264,720	122,231
21,619	-13,383	264,194	121,934
22,634	-13,474	263,847	121,681
23,648	-13,604	263,648	121,461
24,663	-13,544	263,465	121,421
25,677	-13,416	262,950	121,287
26,692	-13,433	262,688	121,140
27,707	-13,186	262,365	121,202
28,721	-13,307	262,116	120,967
29,736	-13,547	261,977	120,678
30,750	-13,536	261,667	120,534
31,765	-13,508	261,431	120,440
32,780	-13,468	261,094	120,309
33,794	-13,350	260,853	120,293
34,809	-13,431	260,618	120,102
35,823	-13,754	260,507	119,753
36,838	-13,364	260,055	119,881
37,853	-13,508	259,967	119,702
38,867	-13,561	259,636	119,492
39,882	-13,606	259,422	119,343
40,896	-13,701	259,184	119,138
41,911	-13,711	258,981	119,026
42,926	-13,619	258,700	118,967
43,940	-13,642	258,511	118,849
44,955	-13,599	258,201	118,734
45,969	-13,728	258,002	118,518
46,984	-13,648	257,747	118,461
47,999	-14,035	257,381	117,942
49,013	-14,135	257,194	117,759
50,028	-14,250	256,853	117,491
51,042	-14,235	256,621	117,389
52,057	-14,554	256,594	117,087
53,071	-14,220	256,198	117,187
54,086	-14,218	256,135	117,150
55,101	-14,035	255,885	117,184
56,115	-13,839	255,782	117,297
57,130	-13,466	255,788	117,614
58,144	-13,389	255,620	117,593
59,159	-13,261	255,257	117,527
60,174	-13,398	254,940	117,252
61,188	-13,265	254,817	117,300
62,203	-13,295	254,554	117,143
63,217	-13,404	254,502	117,014
64,232	-13,262	254,053	116,919
65,247	-13,136	253,919	116,956
66,261	-13,270	253,744	116,750
67,276	-13,603	253,426	116,306
68,290	-13,855	253,197	115,973
69,305	-13,903	253,018	115,840
70,320	-14,060	252,834	115,611
71,334	-13,699	252,610	115,808
72,349	-13,416	252,501	115,990
73,363	-13,336	252,406	116,005
74,378	-13,543	252,283	115,761
75,393	-13,364	251,852	115,706
76,407	-13,432	251,568	115,507
77,422	-13,430	251,379	115,412
78,436	-13,413	251,267	115,364
79,451	-13,329	251,034	115,319
80,466	-13,428	250,692	115,067
81,480	-13,617	250,352	114,740
82,495	-13,899	250,186	114,414
83,509	-13,558	250,067	114,640
84,524	-13,665	249,874	114,449
85,539	-13,617	249,502	114,310
86,553	-13,846	249,434	114,075
87,568	-13,850	249,323	114,010
88,582	-13,712	249,136	114,031
89,597	-13,803	248,930	113,850
90,611	-13,580	248,775	113,956
91,626	-13,611	248,619	113,849
92,641	-13,399	248,334	113,887
93,655	-13,501	248,108	113,687
94,670	-13,593	247,861	113,487
95,684	-13,570	247,724	113,434
96,699	-13,648	247,544	113,275
97,714	-13,729	247,331	113,100
98,728	-13,829	247,124	112,911
99,743	-13,884	246,981	112,789
100,757	-13,970	246,699	112,579
101,772	-13,942	246,629	112,560
102,787	-13,671	246,206	112,584
103,801	-13,497	246,247	112,737
104,816	-13,553	245,928	112,535
105,830	-13,459	245,966	112,620
106,845	-13,291	245,710	112,633
107,860	-13,222	245,649	112,652
108,874	-13,632	245,314	112,148
109,889	-13,723	245,164	111,993
110,903	-13,578	244,886	111,977
111,918	-13,735	244,729	111,765
112,933	-13,647	244,639	111,787
113,947	-13,487	244,483	111,838
114,962	-13,341	244,232	111,835
115,976	-13,204	244,052	111,855
116,991	-13,388	243,902	111,624
118,006	-13,615	243,793	111,377
119,020	-13,474	243,475	111,338
120,035	-13,445	243,387	111,312
121,049	-13,350	243,232	111,309
122,064	-13,468	243,060	111,123
123,079	-13,521	242,705	110,908
124,093	-13,682	242,572	110,705
125,108	-13,906	242,415	110,440
126,122	-13,852	241,976	110,274
127,137	-13,866	241,911	110,223
128,151	-13,913	241,739	110,097
129,166	-13,731	241,511	110,131
130,181	-13,828	241,289	109,941
131,195	-13,929	241,207	109,812
132,210	-13,584	240,896	109,942
133,224	-13,604	240,973	109,950
134,239	-13,391	240,729	110,002
135,254	-13,269	240,460	109,969
136,268	-13,808	240,287	109,442
137,283	-13,880	240,070	109,276
138,297	-13,903	239,869	109,156
139,312	-13,888	239,592	109,032
140,327	-13,642	239,565	109,209
141,341	-13,060	239,663	109,715
142,356	-13,249	239,478	109,468
143,370	-13,212	239,262	109,389
144,385	-13,283	239,087	109,242
145,400	-13,291	238,949	109,163
146,414	-13,034	238,676	109,235
147,429	-13,120	238,433	109,046
148,443	-13,329	238,382	108,844
149,458	-13,406	238,190	108,685
150,473	-13,210	237,980	108,737
151,487	-13,227	237,686	108,579
152,502	-13,227	237,612	108,536
153,516	-12,902	237,354	108,668
154,531	-13,343	237,357	108,307
155,546	-13,275	237,095	108,232
156,560	-13,472	237,062	108,050
157,575	-13,333	236,715	107,993
158,589	-13,310	236,497	107,902
159,604	-13,104	236,287	107,961
160,619	-13,143	236,282	107,918
161,633	-13,016	236,206	107,975
162,648	-13,109	236,067	107,828
163,662	-13,270	235,862	107,597
164,677	-13,343	235,729	107,468
165,692	-13,321	235,583	107,409
166,706	-13,055	235,361	107,510
167,721	-13,135	235,263	107,391
168,735	-13,044	235,034	107,350
169,750	-13,186	234,903	107,168
170,764	-13,282	234,841	107,054
171,779	-13,214	234,689	107,029
172,794	-12,960	234,459	107,116
173,808	-13,281	234,107	106,692
174,823	-13,730	233,814	106,195
175,837	-13,709	233,648	106,127
176,852	-13,298	233,614	106,425
177,867	-13,241	233,722	106,510
178,881	-13,233	233,536	106,422
179,896	-13,104	233,346	106,427
180,910	-13,132	233,160	106,311
181,925	-13,012	232,930	106,290
182,940	-12,855	232,729	106,313
183,954	-12,984	232,798	106,233
184,969	-13,265	232,598	105,913
185,983	-13,091	232,307	105,907
186,998	-13,046	232,359	105,956
188,013	-13,007	232,133	105,874
189,027	-13,005	231,879	105,751
190,042	-12,980	231,683	105,671
191,056	-13,122	231,715	105,565
192,071	-13,090	231,473	105,470
193,086	-12,930	231,187	105,456
194,100	-12,791	231,008	105,472
195,115	-13,270	230,632	104,920
196,129	-13,063	230,953	105,217
197,144	-7,673	232,476	110,110
198,159	-2,860	234,254	114,720
199,173	1,778	235,439	118,939
200,188	2,961	235,523	119,899
201,202	2,722	235,333	119,604
202,217	2,760	235,190	119,551
203,232	2,976	235,165	119,697
204,246	3,012	235,012	119,637
205,261	3,274	234,884	119,766
206,275	3,266	234,768	119,690
207,290	3,304	234,583	119,614
208,304	3,146	234,393	119,383
209,319	3,087	234,341	119,300
210,334	3,176	234,017	119,194
211,348	2,978	233,680	118,858
212,363	2,587	233,618	118,511
213,377	2,291	233,313	118,116
214,392	2,248	233,261	118,046
215,407	2,500	233,111	118,155
216,421	2,487	233,009	118,082
217,436	2,471	232,704	117,905
218,450	2,170	232,579	117,598
219,465	2,297	232,301	117,545
220,480	2,349	232,247	117,548
221,494	2,394	232,116	117,505
222,509	2,799	232,002	117,751
223,523	2,455	231,984	117,465
224,538	2,350	231,725	117,242
225,553	2,537	231,454	117,239
226,567	2,295	231,504	117,067
227,582	2,756	231,321	117,319
228,596	2,866	231,345	117,406
229,611	2,598	230,966	116,997
230,626	2,263	230,635	116,562
231,640	2,060	230,666	116,411
232,655	2,609	230,478	116,727
233,669	2,540	230,500	116,675
234,684	3,012	230,306	116,927
235,699	2,760	230,237	116,689
236,713	2,602	230,061	116,469
237,728	2,240	229,779	116,039
238,742	2,180	229,671	115,928
239,757	2,575	229,393	116,078
240,772	2,548	229,145	115,922
241,786	2,331	229,103	115,726
242,801	2,498	229,136	115,859
243,815	3,006	228,909	116,120
244,830	2,735	228,889	115,894
245,844	2,311	228,636	115,433
246,859	2,548	228,307	115,436
247,874	2,515	228,324	115,410
248,888	2,792	228,213	115,553
249,903	2,651	228,063	115,360
250,917	2,545	227,866	115,170
251,932	2,463	227,555	114,941
252,947	2,412	227,412	114,820
253,961	2,178	227,534	114,695
254,976	2,524	227,187	114,770
255,990	2,669	227,036	114,793
257,005	2,759	226,987	114,825
258,020	2,740	226,868	114,741
259,034	2,645	226,664	114,556
260,049	2,738	226,549	114,558
261,063	2,576	226,525	114,414
262,078	2,809	226,277	114,453
263,093	2,973	226,103	114,477
264,107	3,063	225,976	114,471
265,122	2,719	226,046	114,238
266,136	2,924	225,868	114,292
267,151	3,166	225,528	114,290
268,166	2,644	225,258	113,754
269,180	2,243	225,198	113,414
270,195	2,378	225,010	113,410
271,209	2,341	224,819	113,275
272,224	2,548	224,834	113,427
273,239	2,562	224,630	113,324
274,253	2,476	224,500	113,185
275,268	2,236	224,243	112,867
276,282	2,238	224,181	112,827
277,297	2,211	223,991	112,702
278,312	2,147	223,915	112,606
279,326	2,597	223,650	112,795
280,341	2,685	223,640	112,845
281,355	2,612	223,501	112,711
282,370	2,747	223,348	112,724
283,384	2,391	223,111	112,331
284,399	2,219	222,915	112,096
285,414	2,520	222,734	112,217
286,428	2,481	222,810	112,216
287,443	2,761	222,641	112,327
288,457	2,801	222,463	112,257
289,472	2,528	222,209	111,918
290,487	1,944	222,041	111,395
291,501	1,743	222,108	111,270
292,516	2,080	221,787	111,347
293,530	2,292	221,559	111,378
294,545	2,202	221,512	111,279
295,560	2,602	221,406	111,508
296,574	2,533	221,254	111,371
297,589	2,350	221,158	111,179
298,603	2,575	220,999	111,253
299,618	2,656	220,889	111,248
300,633	2,690	220,803	111,219
301,647	2,882	220,727	111,311
302,662	2,532	220,632	110,998
303,676	2,730	220,394	111,013
304,691	3,067	220,153	111,126
305,706	2,790	219,936	110,805
306,720	2,816	219,941	110,817
307,735	2,674	219,726	110,596
308,749	2,453	219,572	110,348
309,764	2,710	219,550	110,514
310,779	2,592	219,364	110,325
311,793	2,587	219,183	110,220
312,808	2,725	219,052	110,244
313,822	2,666	218,786	110,058
314,837	2,580	218,675	109,930
315,852	2,325	218,630	109,714
316,866	2,434	218,542	109,739
317,881	2,785	218,442	109,931
318,895	2,624	218,179	109,674
319,910	2,434	218,023	109,449
320,925	1,873	217,821	108,934
321,939	1,891	217,633	108,844
322,954	2,099	217,608	108,971
323,968	2,621	217,446	109,254
324,983	2,900	217,431	109,437
325,997	2,866	217,407	109,390
327,012	2,673	217,169	109,123
328,027	2,570	217,121	109,015
329,041	2,782	217,050	109,122
330,056	2,897	216,892	109,115
331,070	2,711	216,542	108,796
332,085	2,425	216,374	108,499
333,100	2,515	216,304	108,517
334,114	2,363	216,142	108,319
335,129	2,532	215,932	108,324
336,143	2,433	215,771	108,163
337,158	2,364	215,708	108,072
338,173	2,280	215,545	107,922
339,187	2,127	215,373	107,717
340,202	2,240	215,305	107,754
341,216	2,550	215,218	107,920
342,231	2,766	214,877	107,893
343,246	2,568	214,797	107,703
344,260	2,561	214,821	107,700
345,275	2,909	214,724	107,888
346,289	2,792	214,584	107,725
347,304	2,802	214,354	107,608
348,319	2,722	214,194	107,461
349,333	2,494	214,164	107,276
350,348	2,652	213,973	107,282
351,362	2,932	213,892	107,429
352,377	2,833	213,718	107,262
353,392	2,578	213,551	106,990
354,406	2,586	213,609	107,015
355,421	196,711	1314,389	1391,074
356,435	157,377	1448,450	1391,026
