DTS Sentinel unit serial number:	SN410029Multiplexer serial number:	ORYXHardware model number:	OX2-SRSoftware version number:	ORYX F/W v4,00 Oryx Data Collector v3.7.2.0data status	okinstallation	B6 Nyhavnadifferential loss correction	single-endedforward channel	channel 2reverse channel	N/Adate	2023/12/10time	17:40:09forward acquisition time	300,00reverse acquisition time	0,00gamma	499,1914k internal	0,3122k external	0,3122temperature offset calibration	1,0000default loss term (dB/km)	0,3820temperature slope calibration	1,0000multiplexer offset coefficient	1,0000multiplexer slope coefficient	1,0000fibre end	0,00T internal ref (°C)	22,40T ext. ref 1 (°C)	6,04T ext. ref 2 (°C)	6,06length (m)	temperature (°C)	Stokes	anti-Stokes-744,400	-200,000	-0,002	-0,102
-743,385	-110,628	-0,364	0,056
-742,371	189,277	0,081	0,091
-741,356	37,026	-0,177	0,117
-740,342	172,173	0,125	-0,135
-739,327	-16,138	-0,235	0,111
-738,312	-200,000	-0,005	-0,157
-737,298	-47,852	-0,228	0,082
-736,283	30,581	0,068	-0,043
-735,269	-21,603	-0,221	0,100
-734,254	135,802	0,086	-0,084
-733,239	-110,062	-0,456	-0,070
-732,225	-114,081	0,067	-0,010
-731,210	-200,000	-0,019	0,204
-730,196	26,461	0,135	-0,084
-729,181	135,124	0,068	-0,066
-728,167	-200,000	0,013	0,073
-727,152	456,239	0,018	-0,031
-726,137	351,870	0,093	-0,138
-725,123	51,122	-0,188	-0,133
-724,108	24,376	0,060	-0,037
-723,094	-127,098	-0,117	0,013
-722,079	294,038	0,041	-0,057
-721,064	119,638	-0,058	-0,054
-720,050	542,895	0,019	0,033
-719,035	-200,000	-0,013	0,105
-718,021	-130,508	-0,079	-0,008
-717,006	-70,449	-0,111	-0,031
-715,991	-94,468	-0,063	-0,013
-714,977	-200,000	-0,009	-0,061
-713,962	-49,129	-0,178	-0,063
-712,948	8,291	-0,057	0,032
-711,933	-200,000	0,002	0,031
-710,918	-113,444	-0,105	-0,015
-709,904	800,000	0,021	-0,043
-708,889	-166,240	-0,099	0,003
-707,875	33,486	-0,070	-0,045
-706,860	800,000	0,008	-0,023
-705,845	-200,000	-0,001	0,067
-704,831	-55,025	0,058	-0,019
-703,816	73,143	-0,100	0,078
-702,802	-109,852	-0,046	0,007
-701,787	-200,000	0,011	-0,061
-700,772	279,202	-0,031	-0,042
-699,758	-161,265	-0,137	0,005
-698,743	800,000	-0,021	-0,053
-697,729	-75,987	-0,059	-0,016
-696,714	436,487	-0,031	0,051
-695,699	800,000	0,026	0,072
-694,685	-30,074	0,125	-0,053
-693,670	-31,924	-0,083	-0,035
-692,656	429,141	0,072	-0,116
-691,641	18,640	0,080	-0,047
-690,627	800,000	0,019	0,060
-689,612	2,237	0,025	-0,013
-688,597	800,000	0,037	-0,102
-687,583	239,342	0,057	-0,071
-686,568	172,344	0,067	-0,072
-685,554	383,465	-0,079	-0,121
-684,539	-200,000	0,020	-0,097
-683,524	-200,000	-0,018	-0,105
-682,510	651,014	-0,021	0,041
-681,495	-200,000	-0,033	0,117
-680,481	-103,156	-0,103	-0,018
-679,466	-60,224	0,009	-0,003
-678,451	-137,440	0,036	-0,003
-677,437	-17,560	-0,067	-0,031
-676,422	-12,896	0,067	0,033
-675,408	-38,295	0,043	-0,017
-674,393	138,985	0,061	-0,060
-673,378	4,558	-0,073	-0,040
-672,364	53,194	-0,059	-0,042
-671,349	-200,000	0,020	-0,186
-670,335	-200,000	-0,006	-0,035
-669,320	-48,891	-0,156	-0,055
-668,305	-84,706	0,078	0,018
-667,291	0,615	-0,049	-0,026
-666,276	-143,388	-0,040	0,003
-665,262	-164,479	-0,063	0,002
-664,247	242,117	-0,034	-0,043
-663,232	-141,718	-0,071	0,005
-662,218	800,000	0,038	-0,093
-661,203	800,000	-0,011	0,030
-660,189	454,542	-0,082	0,136
-659,174	170,168	-0,048	-0,051
-658,159	-200,000	0,039	-0,148
-657,145	800,000	0,038	-0,118
-656,130	-134,759	-0,039	-0,003
-655,116	-144,951	0,056	-0,004
-654,101	-115,355	-0,072	0,010
-653,086	62,185	-0,020	0,015
-652,072	-29,730	-0,076	0,032
-651,057	123,100	-0,085	-0,079
-650,043	800,000	-0,046	-0,097
-649,028	800,000	-0,034	-0,111
-648,014	336,938	0,053	-0,076
-646,999	-200,000	0,005	0,018
-645,984	800,000	-0,088	0,185
-644,970	280,950	-0,067	-0,089
-643,955	-16,233	0,065	0,030
-642,941	-172,134	-0,146	-0,003
-641,926	-200,000	-0,001	0,060
-640,911	339,173	-0,047	0,068
-639,897	-200,000	0,010	0,089
-638,882	-82,460	-0,073	0,017
-637,868	-200,000	0,006	0,084
-636,853	-200,000	-0,012	-0,146
-635,838	75,361	-0,145	-0,113
-634,824	-25,688	-0,094	-0,041
-633,809	800,000	0,031	-0,065
-632,795	800,000	0,064	0,186
-631,780	800,000	-0,014	0,030
-630,765	-200,000	-0,013	-0,052
-629,751	-200,000	-0,005	-0,169
-628,736	87,853	-0,073	-0,060
-627,722	-16,283	-0,081	-0,038
-626,707	-200,000	0,004	0,013
-625,692	-110,605	0,075	-0,011
-624,678	-47,889	0,097	0,035
-623,663	-92,131	-0,059	-0,012
-622,649	-153,109	-0,189	-0,010
-621,634	800,000	-0,031	0,099
-620,619	-200,000	-0,029	-0,219
-619,605	-72,859	-0,050	0,014
-618,590	800,000	-0,016	0,039
-617,576	800,000	-0,054	-0,128
-616,561	-78,229	-0,090	0,023
-615,546	-200,000	0,007	0,128
-614,532	800,000	-0,041	-0,132
-613,517	468,647	-0,029	-0,048
-612,503	800,000	0,023	-0,072
-611,488	25,088	0,054	-0,033
-610,474	-15,579	-0,117	-0,055
-609,459	651,764	0,020	0,038
-608,444	-59,104	-0,080	0,026
-607,430	-55,156	0,148	-0,049
-606,415	-92,205	-0,104	0,022
-605,401	214,937	0,063	0,074
-604,386	-200,000	-0,021	-0,110
-603,371	800,000	-0,056	0,151
-602,357	-19,105	0,019	0,009
-601,342	-166,873	0,075	-0,002
-600,328	239,809	0,005	0,006
-599,313	39,206	-0,125	0,083
-598,298	-200,000	0,030	-0,129
-597,284	-200,000	-0,017	-0,133
-596,269	-200,000	-0,024	0,096
-595,255	-122,523	-0,013	-0,002
-594,240	-94,340	-0,113	-0,023
-593,225	-143,704	-0,107	-0,007
-592,211	-200,000	-0,009	-0,072
-591,196	131,882	-0,011	-0,011
-590,182	-151,202	0,076	0,004
-589,167	205,311	0,057	0,066
-588,152	-200,000	0,008	-0,079
-587,138	800,000	-0,071	-0,166
-586,123	-200,000	0,005	-0,196
-585,109	701,298	0,053	0,105
-584,094	-200,000	-0,026	0,139
-583,079	181,357	0,052	0,057
-582,065	800,000	0,028	0,074
-581,050	102,505	0,030	0,026
-580,036	167,943	-0,033	-0,035
-579,021	523,103	-0,029	-0,051
-578,006	-100,338	-0,087	-0,016
-576,992	-82,603	0,078	-0,019
-575,977	800,000	-0,032	0,100
-574,963	-200,000	0,002	0,140
-573,948	-200,000	-0,001	0,023
-572,934	18,876	0,176	0,104
-571,919	216,316	-0,129	-0,152
-570,904	130,803	-0,115	-0,109
-569,890	579,297	0,036	0,065
-568,875	-200,000	0,003	-0,014
-567,861	-88,418	-0,075	-0,016
-566,846	-200,000	-0,017	0,065
-565,831	-41,715	-0,066	-0,025
-564,817	-85,086	-0,036	0,008
-563,802	-200,000	0,050	0,228
-562,788	41,345	-0,108	-0,072
-561,773	-174,002	0,090	-0,002
-560,758	-197,574	0,093	-0,000
-559,744	-65,796	-0,091	0,027
-558,729	-9,399	-0,159	0,078
-557,715	-200,000	0,006	0,046
-556,700	191,650	0,095	0,106
-555,685	-200,000	0,010	-0,157
-554,671	-39,697	-0,146	0,056
-553,656	-200,000	0,012	0,160
-552,642	-200,000	0,029	-0,165
-551,627	496,267	-0,043	-0,074
-550,612	182,926	0,011	-0,012
-549,598	249,949	-0,058	-0,072
-548,583	97,044	-0,023	0,020
-547,569	800,000	0,062	-0,162
-546,554	-145,664	0,110	0,007
-545,539	-200,000	0,005	-0,038
-544,525	-107,499	0,085	-0,014
-543,510	800,000	0,042	0,105
-542,496	-200,000	0,031	-0,138
-541,481	-200,000	0,009	-0,147
-540,466	-200,000	-0,003	-0,036
-539,452	299,549	-0,042	0,058
-538,437	300,764	0,034	-0,046
-537,423	-106,077	0,107	-0,018
-536,408	800,000	-0,017	0,051
-535,393	52,264	-0,151	-0,107
-534,379	575,407	-0,031	0,056
-533,364	-10,121	0,160	0,078
-532,350	210,791	-0,065	-0,076
-531,335	303,778	0,083	0,114
-530,321	289,128	-0,053	-0,071
-529,306	13,119	-0,088	-0,050
-528,291	49,322	0,071	-0,049
-527,277	-200,000	-0,033	-0,204
-526,262	800,000	0,031	-0,069
-525,248	-200,000	-0,008	-0,037
-524,233	6,563	0,018	-0,010
-523,218	-200,000	-0,000	-0,083
-522,204	157,378	-0,038	-0,039
-521,189	800,000	-0,050	0,104
-520,175	-127,638	-0,193	-0,020
-519,160	-145,855	-0,101	0,007
-518,145	-200,000	-0,000	0,012
-517,131	-140,098	0,013	0,001
-516,116	-77,625	0,229	-0,058
-515,102	114,096	0,095	-0,086
-514,087	32,374	-0,071	-0,045
-513,072	230,965	0,020	0,024
-512,058	800,000	-0,051	0,133
-511,043	-200,000	0,022	-0,095
-510,029	93,579	0,036	0,030
-509,014	-78,824	-0,037	0,009
-507,999	800,000	0,071	0,190
-506,985	-139,426	0,126	-0,010
-505,970	-72,554	-0,056	0,015
-504,956	237,815	0,063	0,077
-503,941	-80,108	0,126	-0,031
-502,926	-4,016	0,035	0,018
-501,912	293,764	0,025	-0,033
-500,897	800,000	-0,027	0,071
-499,883	800,000	-0,046	0,097
-498,868	665,484	0,064	-0,123
-497,853	78,060	0,133	-0,105
-496,839	-162,649	-0,045	-0,002
-495,824	-62,142	0,065	0,020
-494,810	162,406	-0,017	-0,017
-493,795	97,296	0,057	0,048
-492,781	800,000	-0,047	0,105
-491,766	-59,555	-0,074	0,023
-490,751	-139,742	0,169	0,013
-489,737	-200,000	-0,003	-0,104
-488,722	49,217	-0,068	0,047
-487,708	-200,000	-0,006	-0,153
-486,693	30,144	-0,060	0,038
-485,678	-200,000	0,012	-0,058
-484,664	-200,000	0,011	-0,107
-483,649	-117,365	0,056	0,007
-482,635	-200,000	-0,012	-0,067
-481,620	800,000	0,011	0,033
-480,605	-200,000	0,014	0,173
-479,591	44,231	0,107	0,072
-478,576	20,011	0,072	0,043
-477,562	238,142	-0,135	-0,166
-476,547	283,115	-0,069	-0,092
-475,532	-21,165	-0,047	0,021
-474,518	-95,227	0,148	0,029
-473,503	157,609	0,041	-0,041
-472,489	121,289	0,050	0,046
-471,474	-11,470	0,143	-0,069
-470,459	12,520	0,038	0,022
-469,445	-23,870	-0,063	-0,028
-468,430	16,647	-0,010	-0,006
-467,416	104,860	-0,043	0,038
-466,401	-15,524	0,076	0,036
-465,386	800,000	0,070	0,193
-464,372	-42,280	-0,066	-0,025
-463,357	-146,550	-0,108	0,007
-462,343	-159,753	-0,022	0,001
-461,328	-200,000	-0,011	-0,107
-460,313	-19,910	0,089	-0,040
-459,299	422,388	0,019	-0,030
-458,284	117,412	-0,111	-0,100
-457,270	53,753	0,032	0,022
-456,255	-200,000	-0,014	-0,058
-455,241	-56,209	-0,138	-0,045
-454,226	121,298	0,013	0,012
-453,211	476,772	0,083	0,140
-452,197	-200,000	0,000	0,107
-451,182	80,069	-0,064	0,050
-450,168	593,598	-0,038	-0,069
-449,153	-131,373	0,023	-0,002
-448,138	-73,658	-0,113	-0,030
-447,124	157,463	-0,074	-0,075
-446,109	317,239	0,059	0,083
-445,095	454,620	0,078	-0,128
-444,080	73,617	0,120	0,092
-443,065	27,879	0,076	0,047
-442,051	800,000	-0,045	0,107
-441,036	-84,622	-0,091	0,021
-440,022	205,612	-0,043	0,049
-439,007	-25,332	-0,040	-0,017
-437,992	527,813	-0,027	-0,047
-436,978	57,019	0,089	0,064
-435,963	-200,000	0,005	0,056
-434,949	-200,000	-0,002	-0,082
-433,934	307,700	-0,043	-0,059
-432,919	-200,000	-0,030	-0,182
-431,905	383,392	0,028	-0,043
-430,890	-200,000	-0,016	0,067
-429,876	483,856	0,018	-0,031
-428,861	141,281	-0,041	0,040
-427,846	-200,000	0,003	-0,055
-426,832	-38,196	-0,032	-0,012
-425,817	195,523	-0,073	0,081
-424,803	-55,694	0,036	0,012
-423,788	-44,151	0,069	-0,025
-422,773	-200,000	0,014	0,055
-421,759	91,113	0,031	0,025
-420,744	800,000	0,006	0,019
-419,730	-103,299	-0,086	0,015
-418,715	399,952	0,046	-0,071
-417,701	-129,808	-0,260	-0,026
-416,686	-200,000	-0,005	0,038
-415,671	-200,000	-0,023	-0,116
-414,657	31,768	-0,053	0,033
-413,642	505,099	-0,022	0,038
-412,628	113,247	0,084	-0,075
-411,613	512,872	-0,046	-0,079
-410,598	-13,127	-0,124	-0,059
-409,584	36,257	0,149	0,096
-408,569	195,848	0,105	0,118
-407,555	800,000	0,092	0,194
-406,540	-200,000	-0,022	0,085
-405,525	-200,000	-0,008	-0,111
-404,511	-179,003	0,066	-0,001
-403,496	-156,219	-0,097	-0,004
-402,482	451,337	-0,004	0,007
-401,467	192,597	-0,018	-0,020
-400,452	44,561	0,046	-0,031
-399,438	114,591	0,026	0,023
-398,423	-22,375	0,189	-0,084
-397,409	195,171	-0,148	-0,166
-396,394	122,123	-0,018	0,016
-395,379	-57,764	-0,012	0,004
-394,365	-16,877	0,060	0,028
-393,350	-200,000	0,010	0,094
-392,336	-200,000	0,011	-0,059
-391,321	49,205	-0,068	0,047
-390,306	-166,109	-0,071	0,002
-389,292	-161,327	0,082	0,003
-388,277	-200,000	-0,032	0,162
-387,263	320,371	0,076	-0,107
-386,248	-136,392	0,083	-0,007
-385,233	118,631	-0,042	0,038
-384,219	622,096	-0,066	0,122
-383,204	-34,718	-0,056	0,022
-382,190	-96,657	0,081	0,016
-381,175	-200,000	0,015	-0,141
-380,160	310,491	-0,061	-0,084
-379,146	4,453	0,048	0,026
-378,131	247,100	0,106	0,132
-377,117	800,000	-0,056	-0,152
-376,102	-200,000	0,011	0,037
-375,088	-34,083	0,096	0,038
-374,073	-49,848	0,071	-0,025
-373,058	171,380	0,108	0,114
-372,044	-185,767	0,049	-0,001
-371,029	466,355	0,025	-0,042
-370,015	800,000	0,022	-0,055
-369,000	-149,968	-0,132	-0,007
-367,985	-14,136	0,122	0,058
-366,971	113,213	0,039	-0,035
-365,956	-38,510	-0,042	0,016
-364,942	-28,864	0,127	0,053
-363,927	800,000	-0,083	0,256
-362,912	150,353	0,034	0,034
-361,898	143,632	-0,050	-0,049
-360,883	6,532	0,045	-0,024
-359,869	-1,427	-0,030	-0,015
-358,854	460,811	0,078	0,128
-357,839	20,103	-0,050	-0,029
-356,825	242,196	0,100	0,123
-355,810	-68,463	-0,061	0,017
-354,796	-19,674	0,083	0,038
-353,781	303,257	0,094	0,129
-352,766	-200,000	0,018	-0,093
-351,752	-200,000	-0,005	0,209
-350,737	-200,000	0,005	0,290
-349,723	-200,000	-0,047	0,163
-348,708	481,158	0,014	0,023
-347,693	-21,324	0,113	-0,050
-346,679	-132,971	-0,092	-0,009
-345,664	-200,000	-0,012	-0,070
-344,650	-107,372	-0,009	-0,001
-343,635	-122,726	0,079	-0,009
-342,620	4,257	0,124	-0,066
-341,606	26,754	0,088	-0,054
-340,591	114,053	0,076	-0,068
-339,577	27,266	-0,092	-0,057
-338,562	32,452	-0,055	-0,035
-337,548	-200,000	-0,022	0,096
-336,533	-104,712	-0,100	0,017
-335,518	411,207	0,033	0,052
-334,504	-34,937	-0,027	0,011
-333,489	-200,000	0,002	0,045
-332,475	132,607	-0,088	-0,083
-331,460	699,184	0,065	-0,127
-330,445	29,783	0,144	0,090
-329,431	800,000	-0,066	0,169
-328,416	75,281	0,186	0,144
-327,402	-32,022	-0,067	0,027
-326,387	-31,207	0,061	0,025
-325,372	111,847	0,078	0,069
-324,358	800,000	-0,027	-0,073
-323,343	88,136	0,077	-0,062
-322,329	-98,264	-0,068	0,013
-321,314	-200,000	-0,012	0,063
-320,299	81,971	-0,086	0,069
-319,285	21,907	0,044	0,026
-318,270	-130,235	-0,040	-0,004
-317,256	-200,000	0,002	0,093
-316,241	237,152	-0,066	-0,081
-315,226	664,623	-0,035	0,066
-314,212	150,497	0,080	0,080
-313,197	-200,000	0,006	0,030
-312,183	790,806	-0,041	-0,084
-311,168	-200,000	-0,033	0,178
-310,153	-8,353	0,084	0,041
-309,139	-101,697	0,051	0,009
-308,124	-65,792	0,043	0,013
-307,110	369,452	0,055	0,082
-306,095	-200,000	-0,011	0,071
-305,080	-200,000	-0,017	0,058
-304,066	-15,586	-0,063	-0,029
-303,051	-57,806	0,112	0,036
-302,037	-200,000	-0,016	-0,052
-301,022	800,000	0,045	-0,138
-300,008	-44,607	-0,094	0,034
-298,993	800,000	0,016	-0,045
-297,978	103,448	0,140	0,121
-296,964	-200,000	-0,023	0,169
-295,949	-7,271	-0,038	0,019
-294,935	-200,000	-0,015	-0,112
-293,920	-200,000	-0,009	-0,036
-292,905	103,294	-0,133	0,114
-291,891	35,369	0,148	0,095
-290,876	70,497	-0,088	0,067
-289,862	71,281	-0,102	-0,077
-288,847	120,001	-0,111	-0,101
-287,832	566,334	-0,042	-0,075
-286,818	-155,145	0,036	-0,002
-285,803	-31,154	0,074	0,030
-284,789	800,000	0,042	-0,104
-283,774	800,000	0,046	0,116
-282,759	-200,000	-0,030	-0,127
-281,745	46,887	0,047	0,032
-280,730	304,852	0,087	-0,118
-279,716	-15,874	0,112	-0,052
-278,701	350,273	-0,027	0,039
-277,686	800,000	0,017	-0,046
-276,672	-30,651	-0,053	-0,022
-275,657	-200,000	-0,014	0,081
-274,643	324,035	-0,058	-0,082
-273,628	158,105	-0,087	-0,088
-272,613	-200,000	-0,018	-0,082
-271,599	800,000	0,050	0,109
-270,584	2,387	0,116	-0,061
-269,570	-200,000	0,002	0,039
-268,555	64,287	0,044	0,032
-267,540	96,091	-0,110	-0,092
-266,526	800,000	0,053	-0,112
-265,511	-182,236	0,067	0,001
-264,497	-200,000	0,006	0,103
-263,482	720,865	0,087	-0,171
-262,467	-92,543	-0,039	-0,008
-261,453	44,880	-0,044	-0,030
-260,438	-200,000	0,020	-0,076
-259,424	800,000	-0,024	0,051
-258,409	-42,819	0,096	-0,035
-257,395	-200,000	-0,040	-0,135
-256,380	800,000	0,012	0,027
-255,365	-200,000	0,053	0,176
-254,351	-96,382	-0,069	-0,013
-253,336	132,921	-0,091	0,086
-252,322	-52,478	-0,060	-0,020
-251,307	82,127	0,049	0,039
-250,292	-54,011	0,060	0,020
-249,278	-72,459	0,144	0,039
-248,263	59,009	0,056	0,040
-247,249	-82,891	0,058	-0,014
-246,234	-200,000	-0,015	0,120
-245,219	-200,000	0,002	-0,058
-244,205	9,143	-0,067	-0,037
-243,190	56,704	-0,082	0,058
-242,176	-131,237	0,035	0,003
-241,161	146,594	0,098	0,096
-240,146	-57,937	-0,151	-0,048
-239,132	-200,000	-0,005	0,131
-238,117	-200,000	-0,020	-0,088
-237,103	46,314	0,126	-0,085
-236,088	-93,144	0,114	0,023
-235,073	153,078	0,082	0,082
-234,059	-200,000	-0,006	0,048
-233,044	-200,000	0,039	0,176
-232,030	800,000	-0,027	-0,062
-231,015	207,173	-0,037	-0,042
-230,000	-74,611	-0,075	-0,020
-228,986	277,777	0,039	0,051
-227,971	-161,826	-0,199	0,007
-226,957	19,450	-0,041	0,024
-225,942	86,185	0,047	0,038
-224,927	-32,184	-0,041	0,017
-223,913	42,167	-0,056	-0,037
-222,898	-129,069	0,194	-0,020
-221,884	-94,114	-0,105	-0,021
-220,869	98,022	-0,023	-0,019
-219,855	-200,000	0,009	0,037
-218,840	724,828	0,087	0,170
-217,825	3,003	0,065	-0,035
-216,811	3,783	0,059	-0,031
-215,796	-149,518	-0,201	-0,011
-214,782	13,517	0,046	-0,026
-213,767	-200,000	-0,012	-0,051
-212,752	-98,483	0,044	-0,008
-211,738	5,090	-0,069	-0,037
-210,723	-107,917	0,139	0,022
-209,709	800,000	-0,049	0,101
-208,694	800,000	0,010	-0,023
-207,679	800,000	0,044	-0,102
-206,665	-200,000	0,000	0,003
-205,650	317,573	-0,088	-0,123
-204,636	-160,141	0,103	0,004
-203,621	325,774	-0,070	-0,097
-202,606	800,000	0,056	-0,138
-201,592	554,464	0,018	0,031
-200,577	-200,000	0,018	-0,058
-199,563	-55,904	-0,095	-0,031
-198,548	-200,000	-0,014	-0,081
-197,533	-200,000	0,006	-0,154
-196,519	800,000	0,037	0,111
-195,504	11,335	0,097	-0,054
-194,490	-200,000	-0,004	0,068
-193,475	632,311	0,046	-0,085
-192,460	-200,000	-0,030	-0,114
-191,446	74,567	0,049	0,038
-190,431	-200,000	-0,011	0,057
-189,417	-25,418	0,060	-0,026
-188,402	334,090	0,029	-0,041
-187,387	682,405	-0,082	-0,158
-186,373	-34,462	-0,049	0,020
-185,358	-200,000	-0,028	0,167
-184,344	749,390	-0,016	-0,032
-183,329	-200,000	-0,015	0,061
-182,315	1,713	0,072	0,037
-181,300	119,787	-0,069	-0,063
-180,285	-90,969	-0,141	-0,029
-179,271	800,000	-0,014	0,043
-178,256	800,000	-0,028	-0,074
-177,242	800,000	0,029	0,079
-176,227	-200,000	0,031	0,148
-175,212	-142,948	-0,124	-0,009
-174,198	216,444	0,051	-0,060
-173,183	-200,000	-0,012	-0,140
-172,169	556,149	-0,037	0,065
-171,154	-105,169	0,145	-0,024
-170,139	-200,000	-0,019	-0,101
-169,125	80,636	-0,076	0,060
-168,110	-84,288	-0,055	0,013
-167,096	-169,101	0,121	-0,003
-166,081	523,599	0,043	-0,074
-165,066	-200,000	0,005	0,043
-164,052	-200,000	-0,003	0,028
-163,037	-200,000	0,005	0,034
-162,023	208,485	-0,045	0,052
-161,008	-200,000	-0,035	-0,139
-159,993	-30,545	-0,022	0,009
-158,979	388,096	-0,042	0,063
-157,964	61,438	-0,138	-0,100
-156,950	-200,000	0,019	-0,105
-155,935	800,000	0,041	0,093
-154,920	329,807	0,060	-0,084
-153,906	-77,217	-0,199	0,050
-152,891	-100,030	-0,079	-0,014
-151,877	-200,000	0,013	-0,094
-150,862	800,000	0,064	-0,181
-149,847	-37,179	-0,083	-0,032
-148,833	347,937	0,053	-0,076
-147,818	338,224	0,125	0,178
-146,804	-200,000	-0,016	0,081
-145,789	-200,000	-0,006	0,052
-144,775	-169,722	0,026	0,001
-143,760	-17,482	-0,087	0,040
-142,745	45,283	-0,040	-0,027
-141,731	-200,000	-0,023	0,094
-140,716	-200,000	-0,025	0,130
-139,702	-200,000	-0,004	0,128
-138,687	-132,497	-0,157	-0,015
-137,672	800,000	0,054	0,140
-136,658	36,985	-0,127	-0,081
-135,643	-52,774	-0,062	0,021
-134,629	64,758	-0,104	-0,076
-133,614	-3,513	0,177	0,089
-132,599	199,261	-0,059	-0,066
-131,585	800,000	0,025	-0,058
-130,570	212,796	0,015	-0,017
-129,556	280,485	0,109	0,142
-128,541	-200,000	-0,022	0,081
-127,526	800,000	0,012	-0,034
-126,512	84,879	0,079	0,063
-125,497	315,071	0,079	0,109
-124,483	-200,000	-0,012	0,216
-123,468	138,216	0,103	-0,099
-122,453	-126,224	-0,060	-0,006
-121,439	95,559	0,105	-0,087
-120,424	161,417	-0,102	0,104
-119,410	-200,000	-0,026	0,110
-118,395	-167,792	-0,074	0,002
-117,380	-200,000	0,001	0,102
-116,366	-200,000	-0,012	0,100
-115,351	34,275	-0,108	0,069
-114,337	9,607	-0,025	-0,014
-113,322	-142,938	0,129	-0,009
-112,307	800,000	-0,042	0,129
-111,293	-14,021	0,162	0,076
-110,278	312,771	0,033	0,045
-109,264	103,866	-0,082	-0,070
-108,249	-200,000	-0,006	-0,040
-107,234	-200,000	-0,001	-0,060
-106,220	159,353	-0,071	-0,072
-105,205	-200,000	0,043	0,143
-104,191	151,469	0,031	-0,031
-103,176	-200,000	-0,006	-0,064
-102,162	-200,000	0,002	-0,014
-101,147	342,223	0,066	-0,093
-100,132	-200,000	0,048	-0,166
-99,118	800,000	-0,017	0,051
-98,103	-124,913	-0,030	-0,003
-97,089	-200,000	-0,030	-0,131
-96,074	251,980	0,042	0,052
-95,059	-200,000	-0,017	0,062
-94,045	124,036	-0,143	-0,131
-93,030	-200,000	0,010	0,143
-92,016	634,967	0,024	-0,045
-91,001	-82,061	-0,048	0,011
-89,986	310,518	0,083	0,113
-88,972	29,200	-0,086	0,053
-87,957	-200,000	-0,004	0,102
-86,943	-200,000	-0,001	-0,095
-85,928	-43,093	-0,046	-0,017
-84,913	63,552	-0,019	-0,014
-83,899	-200,000	0,002	-0,062
-82,884	-131,417	0,069	0,007
-81,870	-44,539	0,021	0,007
-80,855	-4,951	-0,070	-0,035
-79,840	-85,411	-0,092	0,021
-78,826	-26,457	-0,214	-0,091
-77,811	418,274	-0,016	-0,024
-76,797	344,367	-0,023	0,032
-75,782	800,000	0,018	-0,044
-74,767	500,609	-0,042	0,070
-73,753	286,340	0,090	0,118
-72,738	-200,000	0,015	0,056
-71,724	800,000	0,057	-0,159
-70,709	800,000	0,034	0,087
-69,694	230,375	-0,067	0,080
-68,680	-171,074	0,173	-0,004
-67,665	-58,929	-0,039	-0,012
-66,651	-139,466	-0,066	-0,005
-65,636	126,942	-0,141	-0,130
-64,622	-73,923	0,155	-0,041
-63,607	-59,421	0,076	0,024
-62,592	232,566	-0,008	-0,009
-61,578	72,189	0,017	0,013
-60,563	800,000	0,037	0,077
-59,549	289,744	0,026	-0,034
-58,534	-131,913	-1,309	-0,122
-57,519	536,530	-0,872	-1,508
-56,505	-200,000	-0,837	-4,415
-55,490	3,898	0,576	-0,305
-54,476	800,000	4,980	11,905
-53,461	-200,000	13,445	253,392
-52,446	-200,000	689,447	2262,371
-51,432	592,833	1622,323	2920,879
-50,417	119,717	1635,347	1470,570
-49,403	73,381	1289,398	978,266
-48,388	38,147	1024,401	660,258
-47,373	24,326	982,213	587,590
-46,359	23,613	971,676	578,927
-45,344	22,617	967,391	573,094
-44,330	22,522	966,028	571,952
-43,315	22,403	964,619	570,709
-42,300	22,459	963,298	570,086
-41,286	22,428	962,448	569,459
-40,271	22,390	961,495	568,751
-39,257	22,403	960,561	568,218
-38,242	22,420	959,645	567,709
-37,227	22,412	958,759	567,135
-36,213	22,397	957,841	566,522
-35,198	22,333	957,245	565,939
-34,184	22,452	956,341	565,767
-33,169	22,406	955,522	565,112
-32,154	22,405	954,772	564,641
-31,140	22,466	953,601	564,125
-30,125	22,424	953,068	563,649
-29,111	22,440	952,095	563,104
-28,096	22,443	951,441	562,703
-27,082	22,446	950,621	562,207
-26,067	22,434	950,043	561,803
-25,052	22,426	949,350	561,347
-24,038	22,486	948,616	561,084
-23,023	22,369	948,120	560,391
-22,009	22,526	947,316	560,396
-20,994	22,510	946,723	559,974
-19,979	22,447	946,205	559,444
-18,965	22,484	945,491	559,116
-17,950	22,437	944,969	558,635
-16,936	22,397	944,135	557,994
-15,921	22,348	943,623	557,511
-14,906	22,318	942,918	556,979
-13,892	22,311	942,191	556,505
-12,877	22,328	941,464	556,107
-11,863	22,384	940,639	555,775
-10,848	22,276	940,451	555,300
-9,833	22,370	940,109	555,375
-8,819	22,363	939,416	554,920
-7,804	22,383	938,517	554,432
-6,790	22,369	938,100	554,116
-5,775	22,352	937,484	553,677
-4,760	22,327	937,039	553,314
-3,746	22,237	936,413	552,638
-2,731	22,171	935,706	551,990
-1,717	22,208	934,662	551,470
-0,702	22,176	934,196	551,072
0,313	21,987	933,509	550,901
1,327	24,955	931,502	559,003
2,342	34,493	796,069	503,140
3,356	32,451	451,450	282,229
4,371	1,716	293,297	152,734
5,386	-2,720	274,106	138,538
6,400	-4,340	268,421	134,152
7,415	-4,846	265,865	132,399
8,429	-4,374	264,709	132,243
9,444	-4,497	263,950	131,739
10,459	-4,409	263,245	131,456
11,473	-4,650	262,683	130,945
12,488	-4,747	262,191	130,600
13,502	-4,751	261,500	130,241
14,517	-4,692	261,093	130,080
15,531	-4,647	260,955	130,040
16,546	-4,477	260,371	129,890
17,561	-4,608	260,140	129,646
18,575	-4,536	259,650	129,454
19,590	-4,726	259,380	129,139
20,604	-4,545	259,099	129,148
21,619	-4,657	258,774	128,875
22,634	-4,718	258,392	128,619
23,648	-4,449	257,982	128,643
24,663	-4,611	257,852	128,423
25,677	-4,532	257,692	128,401
26,692	-4,699	257,403	128,097
27,707	-4,872	257,251	127,857
28,721	-4,540	256,998	128,014
29,736	-4,672	256,684	127,730
30,750	-4,882	256,427	127,405
31,765	-4,582	256,199	127,545
32,780	-4,913	256,009	127,147
33,794	-4,751	255,763	127,156
34,809	-4,810	255,486	126,955
35,823	-4,843	255,294	126,819
36,838	-4,700	254,869	126,723
37,853	-4,798	254,643	126,513
38,867	-4,678	254,449	126,510
39,882	-4,740	254,275	126,358
40,896	-4,979	254,122	126,062
41,911	-4,824	253,743	125,998
42,926	-5,033	253,608	125,737
43,940	-4,821	253,350	125,783
44,955	-5,019	253,239	125,544
45,969	-4,861	252,942	125,524
46,984	-5,248	252,770	125,090
47,999	-5,189	252,218	124,856
49,013	-5,624	252,103	124,412
50,028	-5,354	251,818	124,494
51,042	-5,669	251,682	124,143
52,057	-5,597	251,431	124,070
53,071	-5,523	251,113	123,966
54,086	-5,308	251,003	124,086
55,101	-5,335	251,006	124,054
56,115	-5,253	250,882	124,051
57,130	-4,867	250,813	124,339
58,144	-4,539	250,543	124,477
59,159	-4,438	250,232	124,398
60,174	-4,553	250,198	124,271
61,188	-4,700	249,917	123,994
62,203	-4,645	249,687	123,917
63,217	-4,676	249,593	123,832
64,232	-4,562	249,171	123,710
65,247	-4,721	249,140	123,547
66,261	-4,554	248,768	123,495
67,276	-4,952	248,622	123,070
68,290	-4,916	248,356	122,959
69,305	-5,232	247,992	122,498
70,320	-5,207	247,905	122,466
71,334	-4,881	247,651	122,607
72,349	-4,655	247,725	122,825
73,363	-4,474	247,463	122,838
74,378	-4,521	247,273	122,693
75,393	-4,779	247,015	122,335
76,407	-4,778	246,793	122,215
77,422	-4,773	246,629	122,126
78,436	-4,626	246,477	122,165
79,451	-4,715	246,301	121,991
80,466	-4,674	245,885	121,809
81,480	-4,880	245,812	121,589
82,495	-4,959	245,499	121,356
83,509	-4,993	245,529	121,331
84,524	-4,844	245,133	121,250
85,539	-5,220	245,008	120,862
86,553	-5,256	244,861	120,748
87,568	-5,011	244,615	120,822
88,582	-4,972	244,504	120,789
89,597	-4,897	244,402	120,790
90,611	-4,892	244,154	120,662
91,626	-4,903	244,040	120,585
92,641	-4,971	243,842	120,419
93,655	-4,805	243,645	120,450
94,670	-4,740	243,355	120,351
95,684	-4,809	243,178	120,195
96,699	-5,050	243,058	119,924
97,714	-5,002	242,746	119,799
98,728	-5,081	242,648	119,675
99,743	-5,075	242,349	119,522
100,757	-5,062	242,290	119,492
101,772	-5,055	242,080	119,384
102,787	-5,032	241,890	119,299
103,801	-4,993	241,676	119,215
104,816	-4,692	241,536	119,385
105,830	-4,950	241,542	119,163
106,845	-4,645	241,226	119,248
107,860	-4,770	241,124	119,084
108,874	-4,928	240,896	118,831
109,889	-4,876	240,653	118,743
110,903	-4,905	240,518	118,642
111,918	-4,948	240,393	118,535
112,933	-4,884	240,032	118,398
113,947	-4,810	239,942	118,404
114,962	-4,727	239,703	118,344
115,976	-4,777	239,768	118,324
116,991	-4,804	239,427	118,123
118,006	-4,871	239,259	117,974
119,020	-4,566	239,205	118,187
120,035	-4,527	238,912	118,064
121,049	-4,500	238,861	118,051
122,064	-4,817	238,878	117,790
123,079	-4,659	238,598	117,770
124,093	-4,968	238,526	117,472
125,108	-4,989	238,195	117,281
126,122	-5,203	237,875	116,939
127,137	-5,139	237,566	116,829
128,151	-5,177	237,547	116,778
129,166	-5,161	237,325	116,671
130,181	-5,176	237,205	116,590
131,195	-5,014	236,881	116,551
132,210	-5,103	236,955	116,505
133,224	-4,823	236,703	116,597
134,239	-4,630	236,502	116,644
135,254	-4,670	236,392	116,547
136,268	-5,002	236,163	116,155
137,283	-5,122	235,812	115,876
138,297	-5,261	235,839	115,768
139,312	-5,312	235,430	115,516
140,327	-5,095	235,390	115,660
141,341	-4,560	235,491	116,129
142,356	-4,436	235,401	116,173
143,370	-4,276	235,216	116,200
144,385	-4,496	235,091	115,952
145,400	-4,540	234,790	115,758
146,414	-4,460	234,668	115,752
147,429	-4,490	234,407	115,589
148,443	-4,434	234,357	115,599
149,458	-4,600	234,224	115,389
150,473	-4,676	234,072	115,244
151,487	-4,613	233,815	115,157
152,502	-4,578	233,626	115,082
153,516	-4,173	233,421	115,293
154,531	-4,476	233,423	115,042
155,546	-4,395	233,242	115,008
156,560	-4,544	232,907	114,714
157,575	-4,657	232,780	114,552
158,589	-4,651	232,570	114,443
159,604	-4,582	232,443	114,424
160,619	-4,496	232,308	114,416
161,633	-4,418	232,246	114,436
162,648	-4,395	232,072	114,359
163,662	-4,476	231,785	114,143
164,677	-4,750	231,810	113,929
165,692	-4,633	231,569	113,893
166,706	-4,495	231,484	113,950
167,721	-4,336	231,350	113,999
168,735	-4,299	231,198	113,943
169,750	-4,409	230,970	113,734
170,764	-4,375	230,900	113,716
171,779	-4,064	230,593	113,798
172,794	-4,314	230,571	113,582
173,808	-4,414	230,365	113,392
174,823	-4,893	230,042	112,847
175,837	-5,105	229,842	112,573
176,852	-4,819	229,776	112,755
177,867	-4,677	229,729	112,832
178,881	-4,412	229,588	112,960
179,896	-4,149	229,520	113,122
180,910	-4,148	229,410	113,058
181,925	-4,328	229,165	112,788
182,940	-4,300	228,978	112,707
183,954	-4,391	228,775	112,526
184,969	-4,148	228,627	112,632
185,983	-4,103	228,507	112,598
186,998	-4,325	228,458	112,392
188,013	-4,183	228,216	112,373
189,027	-4,303	227,989	112,158
190,042	-4,023	227,818	112,280
191,056	-4,327	227,717	111,986
192,071	-4,271	227,621	111,971
193,086	-4,183	227,345	111,894
194,100	-4,153	227,172	111,822
195,115	-4,425	227,001	111,518
196,129	-5,478	226,846	110,621
197,144	-2,725	227,629	113,120
198,159	1,256	228,487	116,618
199,173	3,967	229,324	119,136
200,188	4,251	229,285	119,325
201,202	4,079	229,190	119,132
202,217	4,503	228,924	119,311
203,232	4,571	228,900	119,340
204,246	4,870	228,818	119,517
205,261	4,763	228,682	119,353
206,275	4,927	228,529	119,389
207,290	4,953	228,375	119,318
208,304	5,060	228,096	119,243
209,319	4,834	228,077	119,049
210,334	4,903	227,701	118,896
211,348	4,756	227,509	118,672
212,363	4,098	227,371	118,085
213,377	3,869	227,248	117,835
214,392	3,809	226,956	117,627
215,407	3,986	226,908	117,728
216,421	4,244	226,746	117,830
217,436	3,886	226,633	117,488
218,450	3,715	226,321	117,185
219,465	3,466	226,209	116,926
220,480	3,883	226,050	117,151
221,494	3,869	225,950	117,078
222,509	3,990	225,838	117,102
223,523	4,193	225,560	117,102
224,538	3,988	225,561	116,936
225,553	3,857	225,440	116,763
226,567	4,102	225,249	116,840
227,582	4,363	225,153	116,978
228,596	4,624	225,059	117,116
229,611	4,134	224,918	116,661
230,626	3,919	224,616	116,331
231,640	4,075	224,499	116,378
232,655	3,975	224,466	116,275
233,669	4,638	224,470	116,768
234,684	4,824	224,131	116,721
235,699	4,158	224,105	116,195
236,713	4,121	223,825	116,012
237,728	3,960	223,580	115,754
238,742	3,769	223,458	115,537
239,757	3,818	223,308	115,485
240,772	4,039	223,168	115,569
241,786	3,997	223,062	115,472
242,801	4,243	223,038	115,633
243,815	4,527	222,883	115,756
244,830	4,578	222,849	115,766
245,844	4,160	222,522	115,273
246,859	4,125	222,406	115,177
247,874	4,379	222,313	115,308
248,888	4,258	222,069	115,080
249,903	4,269	221,950	115,017
250,917	4,122	221,802	114,820
251,932	4,049	221,533	114,617
252,947	4,056	221,380	114,533
253,961	3,931	221,315	114,396
254,976	4,138	221,193	114,477
255,990	4,122	221,050	114,380
257,005	4,216	221,017	114,423
258,020	4,188	220,886	114,324
259,034	4,491	220,719	114,451
260,049	4,337	220,534	114,231
261,063	4,117	220,309	113,943
262,078	4,424	220,282	114,145
263,093	4,454	220,109	114,068
264,107	4,440	219,953	113,966
265,122	4,405	219,881	113,893
266,136	4,569	219,770	113,947
267,151	4,597	219,704	113,923
268,166	4,104	219,364	113,373
269,180	3,945	219,157	113,139
270,195	3,795	219,046	112,962
271,209	4,095	218,775	113,032
272,224	4,060	218,775	112,996
273,239	4,369	218,622	113,134
274,253	4,107	218,434	112,834
275,268	3,757	218,355	112,527
276,282	3,740	218,182	112,415
277,297	3,692	217,965	112,258
278,312	3,835	217,880	112,309
279,326	4,002	217,752	112,355
280,341	4,065	217,629	112,328
281,355	3,963	217,665	112,262
282,370	4,048	217,399	112,177
283,384	4,104	217,130	112,068
284,399	3,794	216,972	111,752
285,414	3,799	216,874	111,694
286,428	4,188	216,889	111,975
287,443	4,218	216,631	111,853
288,457	4,188	216,608	111,810
289,472	4,173	216,352	111,657
290,487	3,765	216,164	111,255
291,501	3,764	216,017	111,168
292,516	3,601	216,030	111,047
293,530	3,902	215,794	111,133
294,545	3,871	215,664	111,034
295,560	3,962	215,465	110,987
296,574	3,898	215,393	110,895
297,589	3,845	215,284	110,790
298,603	4,066	215,205	110,899
299,618	3,952	215,128	110,767
300,633	4,117	214,879	110,748
301,647	4,205	214,948	110,837
302,662	4,441	214,832	110,936
303,676	4,309	214,573	110,699
304,691	4,309	214,447	110,623
305,706	4,416	214,273	110,600
306,720	4,504	214,094	110,562
307,735	4,077	214,011	110,203
308,749	3,928	213,905	110,031
309,764	4,132	213,767	110,097
310,779	4,308	213,604	110,129
311,793	4,160	213,494	109,957
312,808	4,121	213,300	109,819
313,822	4,232	213,051	109,760
314,837	3,790	213,074	109,447
315,852	4,008	212,815	109,460
316,866	3,838	212,725	109,283
317,881	4,468	212,587	109,650
318,895	4,209	212,422	109,371
319,910	4,187	212,206	109,234
320,925	3,936	212,065	108,974
321,939	3,559	211,944	108,635
322,954	3,549	211,822	108,556
323,968	4,115	211,924	108,999
324,983	4,264	211,492	108,873
325,997	4,406	211,425	108,929
327,012	4,279	211,309	108,770
328,027	4,260	211,253	108,718
329,041	4,449	211,342	108,888
330,056	4,372	211,080	108,689
331,070	4,371	210,809	108,538
332,085	3,835	210,560	108,023
333,100	3,945	210,523	108,073
334,114	4,119	210,448	108,147
335,129	4,027	210,260	107,975
336,143	4,256	210,200	108,096
337,158	3,960	209,978	107,764
338,173	4,009	209,833	107,715
339,187	3,904	209,758	107,594
340,202	3,668	209,482	107,277
341,216	3,576	209,364	107,143
342,231	3,723	209,327	107,217
343,246	3,738	209,229	107,168
344,260	3,979	208,994	107,206
345,275	3,916	208,946	107,128
346,289	3,984	208,911	107,148
347,304	4,188	208,614	107,128
348,319	4,039	208,619	107,017
349,333	4,009	208,412	106,881
350,348	3,997	208,306	106,808
351,362	4,201	208,241	106,907
352,377	4,223	208,013	106,796
353,392	4,156	207,931	106,698
354,406	4,126	207,775	106,587
355,421	194,298	1344,360	1434,435
356,435	155,032	1482,938	1434,559
