DTS Sentinel unit serial number:	SN410029Multiplexer serial number:	ORYXHardware model number:	OX2-SRSoftware version number:	ORYX F/W v4,00 Oryx Data Collector v3.7.2.0data status	okinstallation	B6 Nyhavnadifferential loss correction	single-endedforward channel	channel 2reverse channel	N/Adate	2023/12/09time	23:00:08forward acquisition time	300,00reverse acquisition time	0,00gamma	499,1914k internal	0,3126k external	0,3126temperature offset calibration	1,0000default loss term (dB/km)	0,3820temperature slope calibration	1,0000multiplexer offset coefficient	1,0000multiplexer slope coefficient	1,0000fibre end	0,00T internal ref (°C)	21,69T ext. ref 1 (°C)	5,43T ext. ref 2 (°C)	5,42length (m)	temperature (°C)	Stokes	anti-Stokes-744,400	800,000	0,042	-0,094
-743,385	-119,111	-0,103	0,013
-742,371	800,000	0,013	0,043
-741,356	-29,688	-0,315	0,133
-740,342	-45,668	0,157	0,058
-739,327	-21,029	-0,186	0,084
-738,312	-24,285	-0,063	-0,028
-737,298	131,780	-0,142	0,136
-736,283	198,775	0,067	-0,077
-735,269	-11,534	-0,257	0,125
-734,254	739,086	0,046	-0,092
-733,239	-75,593	-0,419	-0,110
-732,225	-103,346	0,036	-0,006
-731,210	-200,000	-0,003	0,039
-730,196	709,366	-0,005	0,009
-729,181	-13,707	-0,079	-0,038
-728,167	-157,497	-0,098	0,004
-727,152	-153,866	-0,076	0,004
-726,137	-115,111	-0,133	0,019
-725,123	-200,000	-0,024	-0,088
-724,108	-200,000	-0,013	-0,108
-723,094	-54,873	-0,218	-0,073
-722,079	14,214	-0,146	-0,084
-721,064	1,216	0,030	-0,016
-720,050	-31,030	-0,076	0,032
-719,035	-6,053	0,053	0,027
-718,021	109,943	-0,057	0,051
-717,006	28,447	-0,048	0,030
-715,991	-164,537	-0,052	-0,002
-714,977	638,169	-0,028	-0,052
-713,962	800,000	-0,023	-0,072
-712,948	-75,594	0,139	0,037
-711,933	-9,449	-0,060	0,030
-710,918	-24,166	0,051	-0,022
-709,904	-86,229	0,039	-0,009
-708,889	-122,121	0,134	-0,016
-707,875	-0,288	-0,026	-0,014
-706,860	190,123	-0,050	-0,056
-705,845	171,298	0,092	0,099
-704,831	-200,000	-0,015	0,000
-703,816	800,000	-0,063	0,170
-702,802	93,124	-0,071	-0,059
-701,787	800,000	-0,032	-0,079
-700,772	-195,535	-0,180	-0,001
-699,758	88,797	-0,006	0,005
-698,743	-200,000	0,012	-0,173
-697,729	352,370	0,128	0,189
-696,714	-200,000	-0,026	0,088
-695,699	-200,000	-0,034	-0,120
-694,685	690,681	-0,090	0,175
-693,670	17,890	-0,128	-0,075
-692,656	128,605	-0,072	-0,069
-691,641	70,814	-0,019	-0,015
-690,627	241,702	-0,077	-0,095
-689,612	-100,747	0,030	0,006
-688,597	-200,000	-0,004	0,032
-687,583	-42,583	-0,083	0,031
-686,568	-200,000	-0,012	-0,173
-685,554	-158,190	-0,104	0,004
-684,539	-25,008	-0,038	-0,017
-683,524	140,106	0,093	0,091
-682,510	98,140	-0,116	-0,099
-681,495	-200,000	-0,018	0,062
-680,481	-81,701	-0,028	0,007
-679,466	-114,794	-0,126	-0,018
-678,451	-1,969	-0,080	0,041
-677,437	-156,051	-0,061	-0,003
-676,422	-117,153	-0,102	-0,014
-675,408	249,208	0,098	0,123
-674,393	800,000	-0,069	-0,165
-673,378	-163,776	-0,212	0,007
-672,364	-78,169	-0,119	-0,030
-671,349	800,000	0,032	-0,084
-670,335	237,434	-0,083	-0,102
-669,320	546,684	0,003	0,005
-668,305	-200,000	-0,005	-0,121
-667,291	352,742	0,076	-0,112
-666,276	75,577	0,108	-0,085
-665,262	320,837	-0,095	-0,134
-664,247	-200,000	0,007	0,074
-663,232	800,000	-0,029	0,063
-662,218	-7,396	0,100	0,050
-661,203	75,717	-0,095	0,074
-660,189	27,024	-0,122	0,076
-659,174	-106,539	-0,026	0,004
-658,159	-200,000	-0,003	0,041
-657,145	800,000	-0,043	-0,109
-656,130	-200,000	-0,005	-0,020
-655,116	-149,187	0,089	0,005
-654,101	-21,916	-0,056	0,025
-653,086	400,540	-0,067	0,105
-652,072	-84,676	-0,053	0,012
-651,057	-1,825	-0,051	-0,026
-650,043	-86,399	-0,100	-0,023
-649,028	353,922	-0,065	-0,096
-648,014	-122,015	-0,100	-0,012
-646,999	-200,000	-0,003	-0,114
-645,984	302,698	-0,113	-0,155
-644,970	-114,377	0,058	0,008
-643,955	800,000	-0,059	0,122
-642,941	-200,000	-0,009	-0,034
-641,926	55,363	-0,042	-0,030
-640,911	-200,000	-0,010	-0,111
-639,897	-153,808	0,032	-0,002
-638,882	800,000	0,069	0,192
-637,868	367,470	0,014	-0,021
-636,853	-106,171	-0,067	0,011
-635,838	-200,000	-0,022	0,149
-634,824	130,013	-0,078	-0,074
-633,809	800,000	-0,030	-0,069
-632,795	-53,395	0,165	0,056
-631,780	26,752	0,020	-0,012
-630,765	-63,881	-0,127	-0,038
-629,751	305,800	-0,047	-0,065
-628,736	800,000	-0,054	-0,136
-627,722	388,061	0,025	-0,038
-626,707	800,000	0,066	0,150
-625,692	152,850	-0,027	-0,028
-624,678	-68,890	-0,061	0,017
-623,663	519,295	0,033	-0,058
-622,649	-50,211	-0,029	-0,010
-621,634	-168,248	-0,138	-0,004
-620,619	596,199	-0,052	0,096
-619,605	800,000	-0,014	-0,037
-618,590	400,968	0,050	0,078
-617,576	-154,467	-0,135	-0,007
-616,561	-200,000	0,024	0,093
-615,546	-200,000	-0,010	-0,032
-614,532	255,757	-0,068	-0,087
-613,517	-6,898	-0,034	0,017
-612,503	-143,172	0,069	-0,005
-611,488	20,304	0,022	0,013
-610,474	171,095	0,046	0,049
-609,459	250,665	-0,109	-0,137
-608,444	-137,239	-0,122	-0,010
-607,430	61,217	0,110	-0,081
-606,415	394,476	-0,058	-0,090
-605,401	-44,495	-0,113	0,042
-604,386	-19,336	0,012	0,005
-603,371	800,000	0,065	0,160
-602,357	-102,820	-0,189	0,033
-601,342	800,000	-0,034	-0,088
-600,328	-200,000	-0,023	-0,103
-599,313	800,000	-0,045	-0,106
-598,298	159,327	-0,070	0,072
-597,284	800,000	0,010	-0,022
-596,269	-13,571	-0,075	-0,036
-595,255	800,000	0,020	0,064
-594,240	-200,000	0,008	0,089
-593,225	-64,869	-0,082	0,024
-592,211	55,611	-0,044	0,031
-591,196	269,279	0,056	0,072
-590,182	443,285	0,053	0,087
-589,167	556,394	-0,047	0,083
-588,152	-57,003	-0,037	0,012
-587,138	-200,000	0,040	0,166
-586,123	-94,183	-0,072	0,014
-585,109	-200,000	0,001	0,114
-584,094	-200,000	0,003	0,098
-583,079	800,000	0,029	0,084
-582,065	-200,000	-0,038	0,167
-581,050	222,790	-0,049	-0,059
-580,036	88,488	-0,071	-0,059
-579,021	754,254	-0,070	-0,142
-578,006	178,285	0,035	0,037
-576,992	800,000	-0,012	-0,039
-575,977	-200,000	-0,012	0,043
-574,963	300,471	-0,079	0,108
-573,948	18,412	0,075	-0,044
-572,934	29,583	0,047	-0,030
-571,919	-200,000	-0,014	-0,138
-570,904	-119,919	0,102	-0,013
-569,890	341,511	-0,022	-0,032
-568,875	444,564	-0,027	0,043
-567,861	214,593	-0,031	-0,036
-566,846	-200,000	0,008	-0,036
-565,831	-65,534	0,157	0,046
-564,817	174,626	0,024	0,025
-563,802	197,230	-0,140	-0,158
-562,788	800,000	-0,031	-0,085
-561,773	92,959	0,069	-0,058
-560,758	800,000	-0,025	0,069
-559,744	258,977	0,025	0,032
-558,729	3,661	0,087	0,047
-557,715	138,391	-0,033	0,032
-556,700	-43,748	0,125	-0,046
-555,685	-46,605	-0,025	0,009
-554,671	495,853	-0,016	0,027
-553,656	-200,000	0,014	0,049
-552,642	588,220	0,049	0,090
-551,627	-43,007	-0,094	0,035
-550,612	800,000	-0,072	0,149
-549,598	156,698	-0,096	-0,098
-548,583	268,025	0,079	-0,102
-547,569	-64,876	-0,146	-0,043
-546,554	55,715	-0,025	-0,018
-545,539	-138,817	0,124	-0,010
-544,525	-100,462	0,144	0,026
-543,510	-13,443	-0,095	0,045
-542,496	-52,163	-0,107	-0,037
-541,481	-76,675	0,022	0,006
-540,466	-200,000	-0,000	-0,096
-539,452	-122,522	0,113	0,013
-538,437	465,894	-0,016	-0,027
-537,423	-200,000	-0,036	0,155
-536,408	-200,000	-0,035	-0,131
-535,393	-73,756	-0,162	-0,043
-534,379	53,305	0,094	0,067
-533,364	720,823	0,041	-0,080
-532,350	-84,694	0,049	0,011
-531,335	264,132	-0,055	0,071
-530,321	-200,000	-0,020	0,095
-529,306	29,856	-0,027	-0,017
-528,291	436,848	-0,069	-0,111
-527,277	800,000	0,022	-0,060
-526,262	-111,514	0,047	0,007
-525,248	87,159	0,037	-0,031
-524,233	800,000	0,017	0,038
-523,218	169,826	-0,033	0,034
-522,204	-200,000	0,027	0,106
-521,189	-200,000	-0,020	0,068
-520,175	272,906	-0,025	0,033
-519,160	355,315	0,077	-0,114
-518,145	-49,532	-0,007	0,003
-517,131	-44,275	0,096	-0,035
-516,116	-66,204	0,066	0,019
-515,102	-200,000	-0,006	-0,144
-514,087	800,000	-0,036	-0,080
-513,072	143,804	0,020	-0,020
-512,058	439,815	-0,026	-0,043
-511,043	174,474	-0,052	0,056
-510,029	-91,684	0,166	0,035
-509,014	-200,000	0,006	0,044
-507,999	-200,000	-0,033	-0,116
-506,985	341,552	-0,035	0,051
-505,970	-79,241	-0,076	-0,019
-504,956	122,582	0,013	0,012
-503,941	800,000	0,090	0,193
-502,926	-200,000	0,007	0,150
-501,912	484,848	0,049	0,083
-500,897	-34,746	-0,066	0,027
-499,883	78,841	-0,033	0,026
-498,868	-184,602	-0,149	-0,002
-497,853	-200,000	0,004	-0,049
-496,839	-200,000	-0,038	0,169
-495,824	364,797	-0,041	0,062
-494,810	1,372	0,080	0,042
-493,795	-200,000	-0,026	0,182
-492,781	-200,000	0,029	0,109
-491,766	20,847	-0,096	0,057
-490,751	210,674	0,041	-0,048
-489,737	-3,653	0,187	-0,095
-488,722	800,000	-0,031	0,086
-487,708	-200,000	0,008	0,040
-486,693	800,000	0,083	-0,224
-485,678	-51,256	-0,038	0,013
-484,664	-200,000	-0,010	-0,095
-483,649	28,709	-0,047	-0,029
-482,635	328,755	0,060	0,085
-481,620	-120,303	0,102	-0,013
-480,605	699,814	-0,029	0,057
-479,591	-188,255	0,026	0,000
-478,576	111,218	0,055	0,049
-477,562	3,433	-0,045	-0,024
-476,547	-200,000	0,004	-0,055
-475,532	800,000	-0,063	-0,149
-474,518	46,044	0,025	-0,017
-473,503	65,726	-0,020	0,015
-472,489	-200,000	0,000	-0,015
-471,474	-33,893	-0,076	0,031
-470,459	800,000	-0,023	0,059
-469,445	106,773	-0,043	-0,038
-468,430	800,000	-0,052	-0,112
-467,416	-140,525	0,067	-0,005
-466,401	471,823	0,070	-0,116
-465,386	-200,000	-0,000	-0,100
-464,372	446,264	-0,089	0,144
-463,357	13,499	0,032	-0,018
-462,343	61,376	-0,101	0,074
-461,328	-200,000	0,007	-0,054
-460,313	-7,180	0,097	0,048
-459,299	-200,000	0,002	0,107
-458,284	-200,000	-0,058	0,188
-457,270	-140,627	0,016	0,001
-456,255	402,206	-0,077	0,120
-455,241	350,254	-0,041	0,060
-454,226	-51,003	-0,129	0,044
-453,211	800,000	0,019	-0,056
-452,197	316,566	-0,056	0,078
-451,182	557,035	0,024	0,042
-450,168	146,289	-0,162	0,160
-449,153	78,739	0,061	-0,048
-448,138	190,618	-0,040	-0,044
-447,124	-200,000	0,008	-0,127
-446,109	-200,000	-0,001	0,046
-445,095	800,000	-0,025	0,063
-444,080	-100,881	0,111	-0,020
-443,065	179,087	0,028	-0,030
-442,051	26,957	-0,015	0,009
-441,036	-200,000	-0,032	-0,139
-440,022	-200,000	-0,000	-0,105
-439,007	-67,155	0,075	0,022
-437,992	-200,000	0,007	0,057
-436,978	-200,000	0,022	0,095
-435,963	193,132	0,068	-0,076
-434,949	499,887	-0,054	-0,093
-433,934	-200,000	-0,001	-0,080
-432,919	800,000	-0,052	-0,165
-431,905	800,000	-0,028	-0,091
-430,890	215,004	0,114	-0,134
-429,876	-200,000	0,004	0,040
-428,861	800,000	-0,018	-0,037
-427,846	88,588	-0,061	-0,050
-426,832	-139,786	0,132	0,010
-425,817	-107,677	-0,059	0,009
-424,803	-30,903	0,036	0,015
-423,788	-200,000	0,043	-0,147
-422,773	-200,000	0,009	-0,067
-421,759	-200,000	0,027	0,097
-420,744	-200,000	0,013	-0,140
-419,730	-200,000	0,006	-0,056
-418,715	-200,000	-0,006	-0,063
-417,701	-200,000	-0,014	-0,056
-416,686	-22,117	-0,081	0,036
-415,671	-43,878	0,127	-0,047
-414,657	218,084	0,086	0,101
-413,642	-8,900	-0,087	-0,043
-412,628	-81,990	-0,171	-0,041
-411,613	39,408	0,102	0,067
-410,598	201,082	-0,088	0,099
-409,584	96,997	0,055	0,046
-408,569	-111,935	0,068	-0,010
-407,555	800,000	0,047	0,131
-406,540	-77,417	-0,119	0,030
-405,525	-24,596	-0,166	0,072
-404,511	393,120	0,039	-0,060
-403,496	-200,000	-0,018	-0,129
-402,482	-99,559	-0,113	-0,021
-401,467	800,000	0,017	0,049
-400,452	-2,608	0,080	0,041
-399,438	-121,098	0,018	0,002
-398,423	121,524	0,049	0,045
-397,409	-146,525	0,098	0,006
-396,394	592,380	-0,029	-0,053
-395,379	800,000	-0,050	0,111
-394,365	7,193	0,060	-0,033
-393,350	448,013	0,034	-0,055
-392,336	-200,000	-0,026	0,157
-391,321	59,394	-0,074	0,054
-390,306	800,000	-0,030	0,064
-389,292	40,773	-0,090	-0,059
-388,277	23,103	-0,088	-0,053
-387,263	123,174	-0,115	-0,106
-386,248	-70,439	0,091	-0,025
-385,233	285,407	0,037	0,050
-384,219	17,045	0,058	-0,034
-383,204	-3,555	-0,013	-0,006
-382,190	-64,177	0,158	0,047
-381,175	72,752	-0,021	-0,016
-380,160	104,338	0,052	-0,045
-379,146	216,499	-0,019	0,022
-378,131	273,636	-0,068	0,089
-377,117	-200,000	-0,017	0,094
-376,102	800,000	-0,061	-0,148
-375,088	-63,837	-0,144	-0,043
-374,073	-200,000	-0,007	-0,147
-373,058	583,975	0,037	-0,067
-372,044	185,476	-0,057	0,062
-371,029	-129,227	0,148	-0,015
-370,015	-45,240	-0,106	-0,039
-369,000	-1,261	-0,071	0,037
-367,985	-175,087	-0,156	-0,003
-366,971	132,029	0,151	-0,143
-365,956	-200,000	0,002	-0,108
-364,942	149,855	0,114	-0,114
-363,927	800,000	0,025	0,072
-362,912	679,391	0,029	-0,056
-361,898	58,972	-0,065	-0,047
-360,883	113,549	0,065	-0,058
-359,869	-29,478	0,060	0,025
-358,854	-200,000	-0,018	-0,061
-357,839	-200,000	0,000	0,144
-356,825	-114,774	-0,073	-0,010
-355,810	-65,024	-0,102	-0,030
-354,796	800,000	-0,012	-0,026
-353,781	-200,000	-0,021	0,088
-352,766	-200,000	0,009	-0,064
-351,752	81,439	0,102	-0,081
-350,737	-155,798	0,061	-0,003
-349,723	-200,000	0,036	0,157
-348,708	800,000	-0,049	0,115
-347,693	-125,632	-0,042	0,005
-346,679	-136,326	-0,024	0,002
-345,664	146,619	0,051	-0,051
-344,650	579,909	0,034	0,061
-343,635	15,110	0,049	0,028
-342,620	60,642	-0,045	-0,033
-341,606	800,000	0,015	0,036
-340,591	-200,000	-0,098	0,000
-339,577	-200,000	-0,012	-0,039
-338,562	-71,273	0,097	-0,026
-337,548	-200,000	-0,005	-0,044
-336,533	-200,000	0,023	-0,124
-335,518	800,000	0,062	0,195
-334,504	237,769	0,108	0,132
-333,489	-200,000	0,004	-0,059
-332,475	425,936	0,034	-0,054
-331,460	215,276	0,073	-0,085
-330,445	223,365	-0,051	0,060
-329,431	-21,418	0,040	0,018
-328,416	66,997	0,087	0,065
-327,402	800,000	-0,042	-0,100
-326,387	800,000	0,064	-0,137
-325,372	-16,678	-0,096	0,044
-324,358	-200,000	-0,008	-0,083
-323,343	800,000	-0,041	-0,090
-322,329	800,000	-0,041	-0,117
-321,314	38,790	0,124	0,081
-320,299	149,007	0,025	0,025
-319,285	201,780	-0,040	0,045
-318,270	-65,166	0,088	-0,026
-317,256	-200,000	-0,001	0,084
-316,241	275,776	0,039	-0,051
-315,226	-6,182	0,044	0,022
-314,212	800,000	-0,007	-0,015
-313,197	-64,582	-0,072	0,021
-312,183	274,108	0,040	-0,052
-311,168	-200,000	-0,011	-0,051
-310,153	654,781	0,024	0,045
-309,139	-200,000	0,011	0,061
-308,124	253,763	-0,075	-0,095
-307,110	-200,000	0,017	0,147
-306,095	800,000	0,085	0,259
-305,080	129,268	0,039	0,036
-304,066	113,378	-0,044	0,040
-303,051	800,000	-0,037	-0,082
-302,037	-200,000	0,027	-0,093
-301,022	66,570	0,018	0,013
-300,008	459,815	0,025	-0,041
-298,993	73,324	-0,114	0,087
-297,978	-137,923	0,138	-0,011
-296,964	-36,355	0,189	-0,074
-295,949	97,623	0,056	0,047
-294,935	800,000	0,023	-0,049
-293,920	-87,042	0,094	-0,021
-292,905	-144,027	-0,059	-0,004
-291,891	-200,000	-0,001	0,150
-290,876	711,158	-0,072	0,140
-289,862	-36,350	-0,127	0,050
-288,847	-200,000	0,015	0,052
-287,832	389,895	0,102	-0,155
-286,818	-49,411	-0,131	-0,045
-285,803	-200,000	-0,019	0,061
-284,789	537,267	-0,034	0,060
-283,774	63,245	0,029	-0,021
-282,759	-59,219	0,166	-0,052
-281,745	-200,000	-0,020	-0,088
-280,730	-200,000	0,008	-0,082
-279,716	96,630	0,064	-0,054
-278,701	201,664	0,014	-0,015
-277,686	576,795	0,065	-0,117
-276,672	-34,889	-0,068	0,027
-275,657	684,454	0,023	-0,045
-274,643	800,000	-0,030	-0,071
-273,628	800,000	-0,040	0,083
-272,613	290,706	0,028	0,037
-271,599	-200,000	-0,035	0,187
-270,584	20,343	0,103	0,061
-269,570	125,071	-0,045	-0,042
-268,555	-200,000	-0,002	0,027
-267,540	-44,771	0,119	0,043
-266,526	-59,220	-0,130	-0,041
-265,511	39,574	0,093	-0,061
-264,497	-12,889	0,059	0,028
-263,482	508,007	0,117	0,199
-262,467	800,000	-0,041	0,102
-261,453	-3,918	-0,103	0,052
-260,438	68,946	0,060	0,045
-259,424	-12,305	0,105	-0,050
-258,409	-200,000	-0,008	-0,061
-257,395	-90,792	0,044	-0,009
-256,380	277,700	0,033	-0,043
-255,365	-200,000	0,013	-0,106
-254,351	-176,829	-0,037	0,001
-253,336	800,000	0,010	0,022
-252,322	-72,230	-0,112	-0,030
-251,307	69,877	-0,077	-0,058
-250,292	-92,070	-0,066	0,014
-249,278	233,474	0,093	0,112
-248,263	382,103	0,054	0,081
-247,249	-200,000	0,002	-0,056
-246,234	719,613	0,011	0,022
-245,219	-32,234	0,067	0,027
-244,205	800,000	-0,032	0,084
-243,190	631,583	-0,026	-0,048
-242,176	424,312	-0,022	-0,034
-241,161	-113,181	-0,071	-0,010
-240,146	800,000	0,076	-0,170
-239,132	-134,939	0,055	0,005
-238,117	172,735	-0,071	-0,075
-237,103	-200,000	-0,027	-0,096
-236,088	124,890	0,007	-0,006
-235,073	-200,000	-0,008	0,043
-234,059	94,599	0,047	-0,039
-233,044	-200,000	-0,003	0,029
-232,030	605,356	-0,081	0,148
-231,015	-146,265	0,092	0,006
-230,000	-37,396	-0,005	0,002
-228,986	800,000	-0,067	0,175
-227,971	-58,249	0,078	0,025
-226,957	-134,894	-0,094	-0,008
-225,942	440,830	-0,077	0,123
-224,927	294,904	0,030	0,040
-223,913	800,000	-0,045	0,095
-222,898	248,007	0,041	-0,050
-221,884	800,000	-0,035	-0,099
-220,869	129,140	-0,066	-0,061
-219,855	46,375	0,088	0,059
-218,840	-161,159	-0,052	0,002
-217,825	-18,968	0,113	-0,051
-216,811	59,730	-0,035	-0,025
-215,796	518,534	-0,056	-0,096
-214,782	-200,000	0,001	0,043
-213,767	-200,000	0,010	-0,092
-212,752	-121,990	0,088	-0,010
-211,738	-131,487	0,057	-0,005
-210,723	-59,270	0,070	0,022
-209,709	-127,661	-0,062	-0,006
-208,694	-12,108	0,120	0,057
-207,679	800,000	0,010	-0,027
-206,665	554,209	-0,049	0,087
-205,650	-90,093	-0,097	0,020
-204,636	-200,000	-0,013	-0,053
-203,621	-97,826	0,079	0,015
-202,606	-118,991	-0,180	-0,023
-201,592	-111,195	0,122	0,018
-200,577	-147,441	0,135	-0,008
-199,563	800,000	-0,013	-0,038
-198,548	-122,732	0,007	-0,001
-197,533	557,783	-0,036	0,063
-196,519	75,926	0,061	-0,047
-195,504	800,000	-0,011	-0,024
-194,490	5,735	-0,038	-0,020
-193,475	-55,952	0,015	-0,005
-192,460	-200,000	0,013	-0,117
-191,446	800,000	0,047	0,109
-190,431	-190,981	0,043	0,000
-189,417	-200,000	-0,006	0,071
-188,402	800,000	0,027	-0,078
-187,387	122,021	-0,061	-0,056
-186,373	243,958	0,054	-0,066
-185,358	-25,459	-0,106	-0,045
-184,344	-120,077	0,079	-0,010
-183,329	31,992	0,018	0,011
-182,315	23,210	0,096	0,058
-181,300	264,344	0,072	-0,091
-180,285	-137,278	-0,091	0,007
-179,271	199,836	0,090	-0,100
-178,256	-200,000	0,007	-0,043
-177,242	165,985	0,014	-0,014
-176,227	210,023	0,057	0,065
-175,212	-200,000	0,014	-0,047
-174,198	353,709	0,043	-0,063
-173,183	-200,000	-0,005	0,113
-172,169	-200,000	-0,020	-0,114
-171,154	-200,000	-0,005	0,055
-170,139	-71,171	0,118	0,032
-169,125	91,594	0,018	0,015
-168,110	-200,000	0,005	0,136
-167,096	-133,114	0,172	0,016
-166,081	-92,831	-0,077	-0,016
-165,066	800,000	-0,030	0,063
-164,052	-25,328	-0,053	0,023
-163,037	-46,860	0,218	0,077
-162,023	-8,706	-0,036	-0,017
-161,008	379,244	0,064	0,096
-159,993	-200,000	0,019	-0,102
-158,979	174,099	-0,139	-0,146
-157,964	40,641	-0,120	-0,079
-156,950	-200,000	0,025	-0,084
-155,935	31,856	0,100	0,063
-154,920	800,000	-0,007	0,020
-153,906	232,085	-0,068	0,081
-152,891	-136,411	0,038	0,003
-151,877	251,156	0,079	-0,098
-150,862	407,169	-0,056	-0,086
-149,847	-132,325	-0,077	-0,007
-148,833	-89,648	-0,088	-0,019
-147,818	201,937	-0,075	0,085
-146,804	224,936	0,049	0,057
-145,789	-143,476	0,213	-0,015
-144,775	129,188	-0,133	-0,123
-143,760	166,049	-0,043	-0,044
-142,745	-124,163	-0,227	0,026
-141,731	-30,515	0,108	0,044
-140,716	144,508	-0,154	0,149
-139,702	68,666	-0,081	-0,060
-138,687	800,000	-0,028	-0,073
-137,672	800,000	-0,069	-0,156
-136,658	17,490	-0,084	-0,048
-135,643	263,376	0,040	-0,051
-134,629	104,968	-0,050	-0,043
-133,614	627,234	0,042	0,077
-132,599	235,152	-0,020	0,024
-131,585	-139,041	0,090	-0,007
-130,570	221,156	-0,070	0,082
-129,556	-179,423	-0,042	-0,001
-128,541	-142,299	0,013	-0,001
-127,526	-200,000	-0,018	0,120
-126,512	-200,000	-0,000	0,022
-125,497	-200,000	0,012	-0,046
-124,483	-177,633	-0,057	0,001
-123,468	169,207	0,051	0,053
-122,453	240,605	0,106	-0,129
-121,439	377,653	-0,065	-0,096
-120,424	-34,657	-0,091	-0,036
-119,410	-35,272	-0,046	-0,018
-118,395	-172,011	-0,020	0,000
-117,380	-200,000	0,038	0,130
-116,366	-75,792	0,159	-0,041
-115,351	800,000	0,033	0,070
-114,337	-200,000	-0,006	0,065
-113,322	-200,000	-0,011	0,088
-112,307	-200,000	-0,003	-0,064
-111,293	800,000	0,040	0,098
-110,278	-200,000	-0,015	-0,119
-109,264	22,952	0,127	-0,075
-108,249	211,187	-0,027	-0,031
-107,234	-80,358	0,068	0,016
-106,220	-200,000	0,004	-0,119
-105,205	16,549	0,026	0,015
-104,191	73,604	0,093	0,071
-103,176	-116,762	-0,075	0,010
-102,162	-4,466	-0,018	0,009
-101,147	-11,455	-0,076	0,036
-100,132	465,052	-0,032	-0,052
-99,118	-200,000	0,025	-0,106
-98,103	-200,000	-0,022	0,098
-97,089	44,319	0,084	0,056
-96,074	-200,000	0,037	0,134
-95,059	50,552	-0,032	0,022
-94,045	114,315	-0,042	-0,037
-93,030	350,035	0,025	-0,035
-92,016	-163,142	-0,103	-0,004
-91,001	236,484	-0,050	0,060
-89,986	-154,080	0,087	-0,004
-88,972	800,000	0,058	0,127
-87,957	-85,686	0,114	0,026
-86,943	800,000	0,076	-0,190
-85,928	-35,701	-0,032	-0,012
-84,913	-22,968	-0,038	-0,016
-83,899	-112,781	-0,090	0,013
-82,884	490,649	-0,027	0,044
-81,870	132,028	0,039	-0,037
-80,855	109,926	0,080	0,070
-79,840	-119,105	-0,143	0,018
-78,826	800,000	-0,056	-0,121
-77,811	18,785	-0,130	0,075
-76,797	179,034	0,068	0,072
-75,782	-142,851	-0,062	-0,004
-74,767	-56,036	0,082	0,026
-73,753	-200,000	0,031	0,106
-72,738	392,526	0,059	-0,089
-71,724	694,957	0,023	-0,044
-70,709	108,347	-0,110	-0,095
-69,694	377,785	0,087	-0,129
-68,680	-200,000	-0,003	0,129
-67,665	176,388	-0,041	0,043
-66,651	800,000	-0,060	0,149
-65,636	-71,982	-0,037	0,010
-64,622	652,851	-0,029	-0,055
-63,607	-122,555	-0,047	0,005
-62,592	289,808	0,010	0,014
-61,578	-144,509	0,139	-0,009
-60,563	-200,000	-0,018	0,102
-59,549	111,547	0,079	-0,069
-58,534	-88,414	-1,424	-0,306
-57,519	601,741	-0,817	-1,478
-56,505	-200,000	-0,903	-4,445
-55,490	-93,790	0,608	-0,120
-54,476	800,000	5,018	11,714
-53,461	-200,000	14,226	253,549
-52,446	-200,000	695,854	2234,064
-51,432	568,668	1625,063	2873,929
-50,417	117,003	1631,685	1452,406
-49,403	72,872	1285,298	971,784
-48,388	37,386	1022,886	655,812
-47,373	23,725	981,083	584,139
-46,359	22,923	970,808	575,371
-45,344	21,891	966,470	569,408
-44,330	21,865	965,055	568,467
-43,315	21,756	963,461	567,150
-42,300	21,752	962,439	566,515
-41,286	21,720	961,531	565,854
-40,271	21,685	960,522	565,124
-39,257	21,713	959,574	564,633
-38,242	21,663	958,735	563,957
-37,227	21,738	957,723	563,579
-36,213	21,636	956,834	562,707
-35,198	21,631	956,076	562,221
-34,184	21,726	955,249	562,018
-33,169	21,636	954,412	561,215
-32,154	21,721	953,620	560,999
-31,140	21,783	952,567	560,558
-30,125	21,796	951,802	560,128
-29,111	21,806	950,852	559,579
-28,096	21,736	950,382	559,055
-27,082	21,672	949,798	558,483
-26,067	21,764	948,910	558,233
-25,052	21,712	948,175	557,612
-24,038	21,686	947,471	557,095
-23,023	21,716	947,036	556,911
-22,009	21,778	946,071	556,520
-20,994	21,801	945,522	556,247
-19,979	21,685	944,909	555,497
-18,965	21,714	944,422	555,279
-17,950	21,721	943,745	554,882
-16,936	21,696	943,117	554,412
-15,921	21,677	942,391	553,903
-14,906	21,639	941,717	553,365
-13,892	21,620	941,049	552,889
-12,877	21,586	940,569	552,475
-11,863	21,560	939,852	551,951
-10,848	21,594	939,236	551,673
-9,833	21,755	938,645	551,817
-8,819	21,693	938,231	551,355
-7,804	21,614	937,717	550,779
-6,790	21,592	937,124	550,342
-5,775	21,669	936,248	550,046
-4,760	21,627	935,607	549,516
-3,746	21,618	935,133	549,187
-2,731	21,479	934,389	548,290
-1,717	21,473	933,663	547,825
-0,702	21,376	933,171	547,210
0,313	21,261	932,505	547,284
1,327	24,182	930,508	555,233
2,342	33,395	793,792	498,125
3,356	30,965	450,642	279,108
4,371	0,705	294,566	152,164
5,386	-3,619	275,496	138,200
6,400	-4,812	269,810	134,226
7,415	-5,193	267,443	132,685
8,429	-5,038	266,203	132,200
9,444	-5,166	265,416	131,680
10,459	-4,826	264,743	131,645
11,473	-5,011	264,285	131,237
12,488	-5,103	263,698	130,850
13,502	-5,244	263,182	130,455
14,517	-5,159	262,699	130,281
15,531	-5,138	262,360	130,120
16,546	-4,982	261,953	130,048
17,561	-5,039	261,752	129,885
18,575	-5,055	261,334	129,651
19,590	-5,163	261,157	129,455
20,604	-4,955	260,677	129,392
21,619	-5,180	260,512	129,097
22,634	-5,066	260,049	128,958
23,648	-5,222	259,685	128,627
24,663	-5,180	259,530	128,575
25,677	-5,117	259,250	128,482
26,692	-5,024	258,982	128,421
27,707	-5,070	258,612	128,185
28,721	-5,081	258,381	128,048
29,736	-5,205	258,130	127,803
30,750	-5,130	257,964	127,776
31,765	-5,227	257,777	127,586
32,780	-5,148	257,643	127,578
33,794	-5,230	257,308	127,328
34,809	-5,073	256,934	127,270
35,823	-5,133	256,744	127,112
36,838	-5,156	256,490	126,955
37,853	-5,275	256,155	126,672
38,867	-5,354	256,030	126,530
39,882	-5,221	255,843	126,543
40,896	-5,040	255,512	126,527
41,911	-5,120	255,395	126,388
42,926	-5,282	255,221	126,149
43,940	-5,371	254,939	125,919
44,955	-5,107	254,642	125,993
45,969	-5,148	254,484	125,867
46,984	-5,511	254,253	125,425
47,999	-5,628	253,949	125,162
49,013	-5,614	253,680	125,030
50,028	-5,819	253,513	124,758
51,042	-5,974	253,149	124,433
52,057	-5,971	253,014	124,358
53,071	-5,867	252,880	124,371
54,086	-5,821	252,721	124,322
55,101	-5,664	252,657	124,416
56,115	-5,529	252,269	124,331
57,130	-5,254	252,283	124,565
58,144	-4,906	252,034	124,732
59,159	-4,739	251,808	124,753
60,174	-4,868	251,590	124,523
61,188	-5,110	251,316	124,168
62,203	-5,149	251,102	124,017
63,217	-5,226	251,143	123,960
64,232	-5,169	250,834	123,845
65,247	-5,019	250,680	123,887
66,261	-5,100	250,223	123,580
67,276	-5,264	250,167	123,402
68,290	-5,360	249,894	123,173
69,305	-5,559	249,657	122,875
70,320	-5,564	249,456	122,761
71,334	-5,268	249,400	122,976
72,349	-5,026	249,190	123,068
73,363	-4,936	248,976	123,029
74,378	-4,975	248,815	122,904
75,393	-5,125	248,623	122,671
76,407	-4,971	248,364	122,663
77,422	-5,170	248,181	122,393
78,436	-5,138	248,085	122,361
79,451	-5,018	247,633	122,229
80,466	-5,049	247,498	122,125
81,480	-5,506	247,339	121,649
82,495	-5,171	247,053	121,781
83,509	-5,174	246,918	121,701
84,524	-5,219	246,752	121,570
85,539	-5,366	246,577	121,349
86,553	-5,595	246,304	121,011
87,568	-5,329	246,155	121,151
88,582	-5,260	246,053	121,148
89,597	-5,195	245,702	121,019
90,611	-5,281	245,617	120,894
91,626	-5,131	245,544	120,974
92,641	-5,215	245,326	120,784
93,655	-5,260	245,090	120,621
94,670	-5,284	244,887	120,489
95,684	-5,345	244,747	120,359
96,699	-5,384	244,434	120,161
97,714	-5,240	244,257	120,183
98,728	-5,691	244,357	119,845
99,743	-5,319	243,715	119,830
100,757	-5,524	243,652	119,617
101,772	-5,493	243,441	119,529
102,787	-5,480	243,389	119,504
103,801	-5,263	243,215	119,588
104,816	-5,172	243,059	119,576
105,830	-5,306	242,951	119,401
106,845	-5,065	242,775	119,504
107,860	-4,888	242,455	119,483
108,874	-5,127	242,319	119,207
109,889	-5,381	242,173	118,914
110,903	-5,360	241,870	118,772
111,918	-5,446	241,834	118,672
112,933	-5,168	241,689	118,821
113,947	-5,283	241,456	118,601
114,962	-5,199	241,414	118,639
115,976	-5,169	240,980	118,439
116,991	-5,094	240,888	118,446
118,006	-5,340	240,840	118,209
119,020	-5,170	240,533	118,187
120,035	-5,248	240,448	118,071
121,049	-5,010	240,323	118,195
122,064	-5,234	240,160	117,920
123,079	-5,337	239,996	117,745
124,093	-5,224	239,732	117,697
125,108	-5,431	239,533	117,420
126,122	-5,531	239,271	117,199
127,137	-5,667	239,198	117,042
128,151	-5,620	239,073	117,008
129,166	-5,432	238,737	116,987
130,181	-5,422	238,478	116,858
131,195	-5,438	238,637	116,912
132,210	-5,456	238,417	116,780
133,224	-5,277	238,194	116,805
134,239	-5,303	237,927	116,643
135,254	-5,254	237,806	116,613
136,268	-5,290	237,585	116,464
137,283	-5,605	237,342	116,080
138,297	-5,650	237,206	115,967
139,312	-5,578	236,907	115,869
140,327	-5,091	236,895	116,246
141,341	-4,991	236,764	116,252
142,356	-5,010	236,699	116,194
143,370	-4,809	236,512	116,254
144,385	-4,827	236,299	116,124
145,400	-5,092	236,278	115,891
146,414	-4,746	236,032	116,038
147,429	-5,135	236,020	115,708
148,443	-4,945	235,621	115,656
149,458	-4,854	235,320	115,571
150,473	-4,820	235,236	115,546
151,487	-5,035	235,135	115,314
152,502	-5,060	235,063	115,249
153,516	-5,008	234,910	115,205
154,531	-4,980	234,580	115,055
155,546	-5,122	234,656	114,968
156,560	-4,935	234,349	114,957
157,575	-5,242	234,043	114,552
158,589	-5,132	233,970	114,594
159,604	-4,956	233,920	114,699
160,619	-4,893	233,689	114,626
161,633	-4,924	233,741	114,616
162,648	-4,869	233,449	114,506
163,662	-5,019	233,155	114,233
164,677	-5,039	233,071	114,166
165,692	-4,900	232,937	114,201
166,706	-5,068	232,815	113,997
167,721	-4,962	232,562	113,947
168,735	-4,855	232,531	114,006
169,750	-4,972	232,246	113,764
170,764	-4,813	232,087	113,801
171,779	-5,127	232,150	113,574
172,794	-4,817	231,811	113,642
173,808	-5,150	231,816	113,372
174,823	-5,348	231,462	113,033
175,837	-5,422	231,182	112,829
176,852	-5,329	231,196	112,898
177,867	-4,810	231,006	113,203
178,881	-4,852	230,985	113,149
179,896	-4,806	230,859	113,114
180,910	-4,873	230,590	112,920
181,925	-4,935	230,497	112,816
182,940	-4,893	230,323	112,753
183,954	-4,617	230,208	112,903
184,969	-4,729	230,120	112,761
185,983	-4,580	229,841	112,731
186,998	-4,501	229,685	112,706
188,013	-4,548	229,483	112,560
189,027	-4,621	229,416	112,461
190,042	-4,670	229,238	112,326
191,056	-4,828	229,037	112,094
192,071	-4,663	228,928	112,158
193,086	-4,684	228,667	112,005
194,100	-5,035	228,685	111,732
195,115	-5,100	228,130	111,400
196,129	-5,423	228,098	111,125
197,144	-2,784	228,941	113,573
198,159	1,162	230,238	117,281
199,173	3,501	230,617	119,284
200,188	3,891	230,535	119,535
201,202	4,026	230,465	119,593
202,217	4,341	230,319	119,751
203,232	4,360	230,238	119,712
204,246	4,394	230,148	119,681
205,261	4,559	229,863	119,650
206,275	4,621	229,916	119,715
207,290	4,874	229,757	119,817
208,304	4,544	229,607	119,474
209,319	4,482	229,428	119,322
210,334	4,645	229,141	119,287
211,348	4,604	228,907	119,123
212,363	4,052	228,737	118,599
213,377	3,620	228,549	118,158
214,392	3,645	228,351	118,065
215,407	3,959	228,237	118,237
216,421	3,822	228,087	118,044
217,436	3,722	227,966	117,893
218,450	3,591	227,683	117,636
219,465	3,510	227,469	117,453
220,480	3,475	227,482	117,422
221,494	3,506	227,323	117,354
222,509	3,742	227,220	117,471
223,523	3,933	227,124	117,556
224,538	3,444	226,995	117,106
225,553	3,966	226,659	117,320
226,567	3,931	226,612	117,258
227,582	4,068	226,666	117,381
228,596	4,219	226,374	117,334
229,611	4,109	226,020	117,056
230,626	3,607	225,929	116,617
231,640	3,426	225,889	116,449
232,655	3,672	225,926	116,645
233,669	4,220	225,742	116,954
234,684	4,400	225,523	116,968
235,699	4,181	225,533	116,796
236,713	3,964	225,285	116,493
237,728	3,717	224,911	116,102
238,742	3,894	224,779	116,157
239,757	3,763	224,609	115,961
240,772	3,684	224,452	115,809
241,786	3,799	224,286	115,800
242,801	4,119	224,232	116,003
243,815	4,204	224,205	116,043
244,830	4,194	223,933	115,884
245,844	3,989	223,848	115,675
246,859	3,612	223,745	115,329
247,874	4,007	223,498	115,487
248,888	4,035	223,511	115,505
249,903	4,070	223,262	115,392
250,917	3,926	223,030	115,155
251,932	3,841	222,923	115,025
252,947	3,552	222,722	114,696
253,961	3,525	222,606	114,605
254,976	3,724	222,444	114,660
255,990	4,005	222,401	114,837
257,005	3,752	222,293	114,583
258,020	4,044	222,121	114,701
259,034	4,403	221,957	114,874
260,049	4,099	221,842	114,578
261,063	4,042	221,784	114,495
262,078	4,187	221,542	114,468
263,093	4,191	221,513	114,445
264,107	4,019	221,321	114,208
265,122	4,092	221,275	114,229
266,136	4,325	220,995	114,247
267,151	4,398	220,992	114,289
268,166	3,875	220,649	113,715
269,180	3,657	220,357	113,393
270,195	3,736	220,313	113,418
271,209	3,689	220,215	113,323
272,224	3,766	220,135	113,329
273,239	3,777	220,011	113,262
274,253	3,728	219,758	113,087
275,268	3,569	219,567	112,861
276,282	3,459	219,477	112,724
277,297	3,479	219,236	112,605
278,312	3,537	219,226	112,633
279,326	3,732	219,181	112,742
280,341	3,827	218,986	112,701
281,355	3,820	218,794	112,588
282,370	3,795	218,672	112,497
283,384	3,562	218,459	112,207
284,399	3,464	218,252	112,019
285,414	3,479	218,177	111,981
286,428	3,794	218,144	112,184
287,443	3,892	218,032	112,187
288,457	3,871	217,826	112,057
289,472	3,855	217,710	111,976
290,487	3,411	217,386	111,476
291,501	3,287	217,207	111,284
292,516	3,375	217,188	111,328
293,530	3,446	217,049	111,299
294,545	3,449	216,923	111,226
295,560	3,594	216,757	111,237
296,574	3,436	216,643	111,053
297,589	3,951	216,576	111,382
298,603	4,101	216,532	111,458
299,618	3,982	216,427	111,308
300,633	3,939	216,202	111,152
301,647	4,195	216,145	111,297
302,662	4,258	215,973	111,244
303,676	3,912	215,984	110,990
304,691	3,965	215,596	110,819
305,706	3,954	215,604	110,805
306,720	3,974	215,468	110,740
307,735	3,806	215,307	110,526
308,749	3,660	215,008	110,259
309,764	3,893	215,015	110,419
310,779	4,109	214,740	110,423
311,793	4,086	214,569	110,308
312,808	3,969	214,488	110,173
313,822	3,840	214,330	109,990
314,837	3,872	214,202	109,937
315,852	3,744	214,111	109,789
316,866	3,880	213,946	109,792
317,881	3,796	213,992	109,746
318,895	3,936	213,816	109,746
319,910	3,896	213,527	109,559
320,925	3,593	213,399	109,268
321,939	3,266	213,143	108,895
322,954	3,329	213,089	108,902
323,968	3,782	212,955	109,145
324,983	4,083	212,866	109,304
325,997	4,185	212,855	109,361
327,012	4,024	212,632	109,123
328,027	4,082	212,477	109,075
329,041	4,042	212,473	109,035
330,056	4,099	212,471	109,064
331,070	3,924	212,030	108,705
332,085	3,501	211,892	108,325
333,100	3,893	211,647	108,467
334,114	3,945	211,588	108,464
335,129	3,826	211,468	108,308
336,143	3,585	211,222	108,003
337,158	3,952	211,139	108,209
338,173	3,631	211,134	107,971
339,187	3,584	210,907	107,813
340,202	3,322	210,771	107,549
341,216	3,332	210,568	107,444
342,231	3,568	210,465	107,546
343,246	3,587	210,257	107,444
344,260	3,766	210,166	107,513
345,275	3,477	210,128	107,282
346,289	3,700	210,063	107,395
347,304	3,937	209,840	107,437
348,319	3,927	209,710	107,354
349,333	3,810	209,659	107,237
350,348	3,773	209,558	107,149
351,362	4,147	209,425	107,333
352,377	3,912	209,248	107,069
353,392	3,761	209,030	106,842
354,406	3,833	209,082	106,909
355,421	193,624	1345,970	1432,012
356,435	154,494	1484,571	1432,104
