DTS Sentinel unit serial number:	SN410029Multiplexer serial number:	ORYXHardware model number:	OX2-SRSoftware version number:	ORYX F/W v4,00 Oryx Data Collector v3.7.2.0data status	okinstallation	B6 Nyhavnadifferential loss correction	single-endedforward channel	channel 2reverse channel	N/Adate	2023/12/07time	19:35:08forward acquisition time	300,00reverse acquisition time	0,00gamma	499,1914k internal	0,3164k external	0,3164temperature offset calibration	1,0000default loss term (dB/km)	0,3820temperature slope calibration	1,0000multiplexer offset coefficient	1,0000multiplexer slope coefficient	1,0000fibre end	0,00T internal ref (°C)	14,00T ext. ref 1 (°C)	-2,98T ext. ref 2 (°C)	-2,99length (m)	temperature (°C)	Stokes	anti-Stokes-744,400	370,209	0,124	0,185
-743,385	-188,222	-0,384	0,003
-742,371	-37,246	0,168	0,066
-741,356	-78,470	-0,203	0,051
-740,342	5,505	0,108	-0,058
-739,327	-89,515	-0,288	-0,062
-738,312	800,000	0,014	0,045
-737,298	-115,799	-0,347	-0,047
-736,283	90,548	0,101	0,083
-735,269	-154,371	-0,359	0,017
-734,254	-110,948	0,211	-0,032
-733,239	1,037	-0,566	-0,298
-732,225	125,262	0,117	0,109
-731,210	62,364	-0,111	0,081
-730,196	-200,000	-0,014	-0,045
-729,181	-200,000	0,029	-0,136
-728,167	724,519	0,041	-0,080
-727,152	-28,864	0,035	-0,015
-726,137	653,670	-0,037	0,070
-725,123	-48,452	-0,168	-0,059
-724,108	-0,440	-0,118	-0,061
-723,094	-138,703	-0,168	0,013
-722,079	800,000	-0,046	-0,113
-721,064	800,000	-0,032	0,083
-720,050	-200,000	0,000	0,122
-719,035	453,872	0,013	-0,020
-718,021	85,094	0,103	-0,083
-717,006	-64,906	-0,068	-0,020
-715,991	-116,408	-0,190	0,025
-714,977	-200,000	0,022	-0,093
-713,962	217,903	0,075	0,088
-712,948	-37,024	-0,014	-0,006
-711,933	800,000	0,026	0,085
-710,918	-134,856	0,056	-0,005
-709,904	406,918	-0,116	-0,181
-708,889	-200,000	0,005	-0,054
-707,875	655,283	0,117	-0,222
-706,860	-200,000	-0,004	-0,057
-705,845	59,605	-0,076	0,055
-704,831	-130,946	-0,043	-0,004
-703,816	-200,000	-0,022	0,078
-702,802	39,423	0,074	0,048
-701,787	63,414	-0,090	-0,066
-700,772	334,872	0,033	-0,047
-699,758	-14,077	0,110	0,052
-698,743	43,515	0,056	0,038
-697,729	-200,000	0,022	-0,079
-696,714	-121,243	-0,157	-0,019
-695,699	-200,000	0,005	0,099
-694,685	382,161	-0,048	0,072
-693,670	-37,250	-0,186	-0,073
-692,656	800,000	-0,025	-0,057
-691,641	645,949	0,019	-0,037
-690,627	134,857	-0,092	0,088
-689,612	-155,815	-0,061	0,003
-688,597	3,098	0,056	0,030
-687,583	411,764	-0,097	-0,152
-686,568	-200,000	0,012	-0,101
-685,554	-200,000	0,005	-0,016
-684,539	109,732	-0,066	-0,058
-683,524	218,107	0,061	-0,071
-682,510	-200,000	0,021	-0,090
-681,495	79,460	-0,098	-0,077
-680,481	744,356	-0,082	-0,162
-679,466	-43,128	-0,048	0,018
-678,451	-200,000	-0,001	0,063
-677,437	633,496	0,030	0,055
-676,422	-10,634	-0,069	-0,033
-675,408	247,623	0,032	0,040
-674,393	119,782	-0,073	-0,066
-673,378	419,460	0,082	-0,130
-672,364	-10,057	-0,226	-0,110
-671,349	-121,142	0,108	-0,013
-670,335	-25,163	0,046	-0,020
-669,320	-17,198	-0,112	-0,051
-668,305	-109,281	0,078	0,012
-667,291	-152,350	-0,073	0,004
-666,276	-200,000	-0,015	0,061
-665,262	313,288	-0,044	-0,061
-664,247	427,604	-0,073	0,116
-663,232	239,368	-0,072	0,088
-662,218	772,583	-0,071	-0,142
-661,203	169,037	0,111	-0,117
-660,189	120,682	-0,063	0,057
-659,174	-47,823	-0,038	-0,013
-658,159	-139,611	-0,031	0,002
-657,145	-35,932	-0,067	-0,027
-656,130	164,560	-0,029	0,030
-655,116	-200,000	-0,014	-0,055
-654,101	-66,707	-0,108	-0,031
-653,086	119,998	0,085	-0,077
-652,072	-69,340	0,050	0,014
-651,057	227,115	-0,040	0,048
-650,043	82,826	-0,071	-0,057
-649,028	326,291	-0,033	-0,046
-648,014	682,603	-0,047	-0,091
-646,999	306,889	-0,019	0,026
-645,984	-200,000	-0,015	0,061
-644,970	-200,000	-0,000	-0,008
-643,955	-152,461	-0,033	-0,002
-642,941	-200,000	-0,000	-0,038
-641,926	-42,618	-0,110	-0,041
-640,911	800,000	-0,050	0,122
-639,897	800,000	-0,051	0,137
-638,882	800,000	0,049	0,106
-637,868	195,401	0,058	-0,065
-636,853	-136,128	0,093	-0,008
-635,838	800,000	-0,010	-0,022
-634,824	-64,911	-0,076	0,022
-633,809	-49,027	-0,049	0,017
-632,795	-120,579	-0,113	0,014
-631,780	43,681	0,113	0,075
-630,765	-23,744	-0,218	0,095
-629,751	87,463	0,049	-0,039
-628,736	800,000	-0,050	-0,158
-627,722	-105,239	-0,070	0,012
-626,707	-37,673	-0,061	0,024
-625,692	264,106	0,033	0,042
-624,678	105,164	0,030	-0,026
-623,663	-19,127	0,070	-0,032
-622,649	-47,173	-0,171	-0,061
-621,634	-43,429	-0,054	0,020
-620,619	-200,000	0,006	-0,033
-619,605	-90,213	0,189	-0,040
-618,590	-107,732	-0,094	-0,015
-617,576	-200,000	0,001	0,049
-616,561	-34,315	0,054	0,021
-615,546	-102,242	0,038	0,007
-614,532	-66,189	-0,069	-0,020
-613,517	800,000	0,031	0,085
-612,503	-99,343	-0,106	-0,019
-611,488	-178,711	0,095	0,002
-610,474	691,260	-0,035	0,067
-609,459	800,000	-0,040	-0,082
-608,444	84,915	-0,106	0,085
-607,430	206,351	-0,144	-0,164
-606,415	-38,821	-0,064	0,024
-605,401	800,000	-0,061	0,159
-604,386	-158,075	0,066	0,003
-603,371	-200,000	-0,016	0,164
-602,357	-143,401	-0,102	0,007
-601,342	-200,000	0,005	-0,104
-600,328	-200,000	-0,019	-0,068
-599,313	-17,439	0,012	0,006
-598,298	-50,755	-0,105	0,036
-597,284	-182,554	0,072	-0,001
-596,269	123,576	-0,042	-0,039
-595,255	241,051	0,028	-0,035
-594,240	-98,528	-0,187	-0,035
-593,225	-75,501	-0,151	-0,039
-592,211	800,000	0,031	-0,079
-591,196	-100,039	0,094	0,017
-590,182	294,560	-0,014	0,019
-589,167	137,528	-0,059	-0,057
-588,152	-200,000	0,002	-0,019
-587,138	800,000	-0,044	-0,121
-586,123	-81,266	-0,140	0,034
-585,109	179,919	-0,061	-0,065
-584,094	-43,707	-0,034	0,012
-583,079	-32,204	0,098	-0,040
-582,065	48,799	0,051	0,035
-581,050	-12,366	0,082	0,039
-580,036	621,951	0,018	0,033
-579,021	-70,836	-0,165	-0,045
-578,006	39,904	0,061	0,040
-576,992	92,802	-0,050	0,042
-575,977	-66,093	-0,106	-0,031
-574,963	800,000	-0,067	0,148
-573,948	295,130	-0,083	0,111
-572,934	800,000	0,023	-0,055
-571,919	337,582	0,095	-0,136
-570,904	159,010	0,023	-0,024
-569,890	46,331	-0,084	-0,056
-568,875	228,834	0,101	0,120
-567,861	387,234	0,038	-0,058
-566,846	465,172	0,052	0,086
-565,831	-64,673	0,099	0,029
-564,817	-65,493	-0,165	-0,048
-563,802	-125,204	-0,064	0,007
-562,788	-200,000	0,021	-0,137
-561,773	87,061	0,085	-0,068
-560,758	54,752	0,062	0,044
-559,744	223,080	0,074	0,088
-558,729	10,658	-0,057	-0,032
-557,715	-200,000	-0,015	0,100
-556,700	-200,000	0,003	0,023
-555,685	-83,081	-0,205	-0,048
-554,671	321,885	0,052	-0,073
-553,656	-200,000	0,006	-0,059
-552,642	-124,529	-0,119	-0,013
-551,627	292,041	0,052	0,069
-550,612	-200,000	0,028	-0,098
-549,598	220,517	-0,045	-0,052
-548,583	800,000	0,036	0,112
-547,569	800,000	-0,025	-0,057
-546,554	-116,040	0,025	0,003
-545,539	-200,000	0,001	0,017
-544,525	-147,687	-0,051	0,003
-543,510	222,413	-0,038	0,045
-542,496	115,447	0,100	0,089
-541,481	-64,367	0,036	-0,011
-540,466	-200,000	-0,006	-0,111
-539,452	-91,458	0,106	-0,022
-538,437	80,649	0,101	-0,079
-537,423	-45,752	0,071	0,025
-536,408	-159,266	-0,072	-0,003
-535,393	-200,000	-0,002	-0,075
-534,379	800,000	0,021	0,062
-533,364	274,310	-0,028	0,036
-532,350	-64,467	0,009	-0,003
-531,335	-200,000	0,006	0,106
-530,321	85,325	-0,048	-0,039
-529,306	-156,016	-0,102	0,005
-528,291	-31,117	-0,081	0,033
-527,277	-139,315	0,064	-0,005
-526,262	-200,000	0,012	0,081
-525,248	-73,326	-0,138	-0,037
-524,233	337,872	-0,044	0,063
-523,218	-61,715	0,120	0,037
-522,204	-112,699	-0,045	-0,006
-521,189	322,119	-0,027	-0,038
-520,175	-200,000	-0,020	-0,078
-519,160	-5,803	0,101	-0,050
-518,145	0,222	0,094	-0,049
-517,131	-200,000	-0,027	-0,135
-516,116	800,000	0,034	-0,084
-515,102	-200,000	-0,012	0,137
-514,087	205,537	-0,058	-0,065
-513,072	-125,870	0,226	-0,025
-512,058	105,922	-0,040	-0,035
-511,043	-34,461	0,204	0,081
-510,029	37,426	-0,062	-0,040
-509,014	-13,893	0,086	0,040
-507,999	-38,626	0,107	-0,041
-506,985	6,483	-0,106	0,057
-505,970	-200,000	0,018	0,085
-504,956	-4,848	0,051	-0,026
-503,941	800,000	-0,025	-0,062
-502,926	44,372	0,016	0,011
-501,912	76,415	0,110	-0,085
-500,897	-99,531	-0,004	0,001
-499,883	-200,000	0,016	-0,097
-498,868	55,333	0,015	-0,010
-497,853	-22,035	0,053	0,023
-496,839	114,863	0,017	-0,015
-495,824	-77,641	0,039	-0,010
-494,810	-200,000	-0,001	-0,105
-493,795	-19,706	-0,189	-0,085
-492,781	-200,000	0,006	-0,042
-491,766	-200,000	-0,004	-0,112
-490,751	-83,045	0,024	-0,006
-489,737	800,000	0,001	-0,003
-488,722	84,866	0,125	0,099
-487,708	242,419	0,100	0,122
-486,693	608,608	-0,021	0,039
-485,678	800,000	-0,040	0,112
-484,664	298,713	-0,063	-0,084
-483,649	-8,500	-0,027	0,013
-482,635	-200,000	0,052	-0,206
-481,620	5,893	0,067	0,036
-480,605	-19,951	0,051	0,023
-479,591	398,239	-0,040	0,061
-478,576	-38,365	-0,151	0,058
-477,562	-200,000	-0,003	0,063
-476,547	-83,035	-0,184	-0,043
-475,532	158,315	0,035	-0,036
-474,518	-63,702	-0,060	-0,018
-473,503	-53,623	0,143	-0,047
-472,489	-200,000	-0,003	0,046
-471,474	-90,832	0,158	-0,033
-470,459	368,628	0,055	0,081
-469,445	628,296	-0,087	-0,161
-468,430	-40,126	0,043	-0,016
-467,416	800,000	0,072	-0,201
-466,401	-76,882	-0,042	-0,010
-465,386	800,000	0,011	-0,033
-464,372	-93,670	-0,118	0,023
-463,357	-127,155	0,142	0,015
-462,343	800,000	0,022	-0,063
-461,328	230,612	-0,115	-0,138
-460,313	-119,215	0,106	0,013
-459,299	-167,639	0,159	-0,004
-458,284	-200,000	-0,008	0,032
-457,270	-200,000	0,002	0,149
-456,255	168,651	-0,093	-0,097
-455,241	800,000	-0,024	-0,052
-454,226	800,000	0,049	-0,140
-453,211	164,437	-0,088	0,090
-452,197	800,000	0,019	0,040
-451,182	336,176	0,040	0,057
-450,168	201,887	-0,078	-0,087
-449,153	-200,000	0,006	0,093
-448,138	183,384	0,110	-0,119
-447,124	2,238	-0,098	0,051
-446,109	800,000	-0,055	-0,113
-445,095	800,000	0,036	-0,074
-444,080	368,336	0,052	0,077
-443,065	-135,298	0,116	0,010
-442,051	-79,501	0,148	-0,036
-441,036	-11,516	-0,040	-0,019
-440,022	-200,000	-0,046	-0,154
-439,007	183,279	0,048	0,051
-437,992	800,000	-0,031	0,092
-436,978	359,118	-0,053	0,078
-435,963	34,980	0,103	0,066
-434,949	767,946	0,016	0,032
-433,934	-10,361	-0,077	-0,037
-432,919	71,816	-0,065	-0,049
-431,905	-200,000	-0,012	0,063
-430,890	-106,546	0,046	0,007
-429,876	-57,357	0,124	0,040
-428,861	77,896	0,128	0,099
-427,846	83,503	0,073	0,058
-426,832	308,594	-0,011	-0,015
-425,817	226,496	-0,043	-0,051
-424,803	800,000	0,032	0,096
-423,788	-200,000	-0,002	-0,010
-422,773	115,535	0,046	-0,041
-421,759	-139,094	0,081	0,006
-420,744	800,000	0,034	-0,081
-419,730	-9,027	-0,037	0,018
-418,715	800,000	0,022	-0,071
-417,701	800,000	-0,018	0,035
-416,686	-99,361	-0,026	0,005
-415,671	-137,618	-0,114	-0,009
-414,657	548,289	0,066	0,115
-413,642	-109,746	-0,032	-0,005
-412,628	-5,463	0,109	0,054
-411,613	-59,231	-0,067	0,021
-410,598	800,000	0,061	0,136
-409,584	-115,053	0,055	0,008
-408,569	704,796	-0,045	0,086
-407,555	800,000	0,029	0,062
-406,540	11,024	-0,019	0,011
-405,525	-200,000	0,013	0,057
-404,511	315,642	-0,104	-0,143
-403,496	-200,000	0,002	0,060
-402,482	-171,574	-0,144	0,003
-401,467	94,587	0,030	0,025
-400,452	-125,392	-0,013	-0,001
-399,438	-78,975	-0,028	-0,007
-398,423	111,288	0,087	-0,076
-397,409	-76,034	-0,111	0,028
-396,394	-200,000	0,017	-0,095
-395,379	67,916	0,125	-0,092
-394,365	-200,000	-0,004	0,017
-393,350	-75,831	0,158	-0,040
-392,336	-200,000	0,010	0,052
-391,321	-19,866	-0,037	-0,016
-390,306	38,280	-0,038	-0,024
-389,292	800,000	0,021	0,061
-388,277	-135,264	0,147	-0,013
-387,263	-61,869	0,126	-0,038
-386,248	375,926	-0,073	0,109
-385,233	-200,000	-0,016	0,059
-384,219	-13,047	-0,128	0,060
-383,204	109,447	0,013	-0,011
-382,190	800,000	-0,059	-0,161
-381,175	-67,647	0,041	-0,012
-380,160	-200,000	0,007	0,177
-379,146	800,000	0,069	0,145
-378,131	137,279	0,069	-0,065
-377,117	-190,484	-0,115	-0,001
-376,102	41,395	0,074	0,049
-375,088	-176,588	-0,173	-0,003
-374,073	-53,942	0,067	-0,022
-373,058	800,000	0,026	-0,054
-372,044	201,010	-0,047	0,053
-371,029	-200,000	-0,014	-0,100
-370,015	-123,636	-0,107	-0,012
-369,000	81,455	0,111	0,087
-367,985	15,540	-0,077	0,044
-366,971	-121,205	0,088	-0,010
-365,956	-84,401	0,131	0,030
-364,942	800,000	-0,033	0,099
-363,927	800,000	-0,025	-0,057
-362,912	-200,000	0,007	-0,086
-361,898	179,617	-0,108	-0,115
-360,883	123,261	-0,042	0,038
-359,869	-43,980	-0,061	0,022
-358,854	60,414	0,043	-0,031
-357,839	-149,029	-0,061	0,003
-356,825	211,241	0,092	0,105
-355,810	-200,000	0,026	0,115
-354,796	-139,022	-0,120	-0,009
-353,781	-200,000	0,017	-0,055
-352,766	-200,000	-0,019	-0,110
-351,752	345,227	-0,055	0,078
-350,737	600,323	0,080	0,145
-349,723	389,541	-0,042	-0,063
-348,708	-120,721	0,105	0,013
-347,693	-44,602	-0,032	0,012
-346,679	800,000	0,037	-0,091
-345,664	-200,000	0,003	-0,036
-344,650	-5,347	0,056	-0,028
-343,635	695,322	0,066	0,126
-342,620	-92,719	0,061	-0,012
-341,606	454,957	0,036	-0,058
-340,591	253,593	0,052	-0,065
-339,577	-36,797	-0,155	0,060
-338,562	800,000	0,011	0,031
-337,548	-177,423	0,060	-0,001
-336,533	-9,926	-0,130	-0,062
-335,518	-46,741	0,054	-0,019
-334,504	-4,157	-0,166	0,083
-333,489	232,703	0,058	-0,069
-332,475	168,398	0,046	-0,047
-331,460	-172,810	-0,155	-0,003
-330,445	800,000	0,079	0,224
-329,431	409,367	-0,034	0,052
-328,416	-200,000	0,027	-0,105
-327,402	53,332	-0,071	-0,049
-326,387	-107,925	0,244	-0,038
-325,372	-35,257	0,099	-0,039
-324,358	241,553	-0,076	-0,092
-323,343	-200,000	-0,023	-0,078
-322,329	102,218	0,081	0,069
-321,314	13,336	0,106	0,059
-320,299	29,034	-0,077	0,047
-319,285	-200,000	0,006	0,022
-318,270	800,000	0,064	-0,140
-317,256	131,679	0,053	0,049
-316,241	672,524	0,010	0,020
-315,226	-200,000	-0,010	-0,088
-314,212	75,755	0,128	0,098
-313,197	76,339	0,050	-0,039
-312,183	83,414	0,003	0,002
-311,168	49,778	-0,136	-0,093
-310,153	-200,000	-0,006	-0,037
-309,139	312,563	0,032	-0,044
-308,124	800,000	-0,062	0,163
-307,110	-200,000	-0,025	0,099
-306,095	-90,724	0,149	0,031
-305,080	-117,922	-0,076	-0,010
-304,066	800,000	0,035	0,080
-303,051	489,798	0,029	0,048
-302,037	-50,684	-0,115	-0,039
-301,022	-200,000	-0,036	0,150
-300,008	256,022	-0,080	-0,100
-298,993	247,021	0,057	0,069
-297,978	800,000	-0,024	0,071
-296,964	-40,490	0,006	0,002
-295,949	-179,946	0,049	0,001
-294,935	-200,000	0,008	-0,029
-293,920	-156,775	0,229	0,010
-292,905	62,285	0,029	0,021
-291,891	-80,075	-0,179	0,043
-290,876	-16,699	0,117	0,053
-289,862	800,000	-0,023	-0,058
-288,847	1,125	0,083	-0,043
-287,832	-30,046	-0,125	-0,051
-286,818	-83,238	0,096	0,022
-285,803	-76,074	-0,135	0,034
-284,789	-39,429	0,050	0,019
-283,774	228,431	-0,061	0,072
-282,759	-32,978	0,078	-0,031
-281,745	-137,485	0,074	-0,006
-280,730	-43,972	-0,083	0,030
-279,716	-108,065	-0,023	-0,004
-278,701	226,297	0,138	-0,162
-277,686	-200,000	-0,001	0,018
-276,672	-35,442	0,170	-0,066
-275,657	332,031	0,045	0,063
-274,643	-108,108	-0,173	0,027
-273,628	-200,000	-0,001	-0,067
-272,613	-134,728	-0,122	-0,011
-271,599	7,107	0,142	-0,076
-270,584	-200,000	0,012	-0,074
-269,570	800,000	0,032	0,067
-268,555	-141,403	-0,120	0,009
-267,540	800,000	-0,038	-0,086
-266,526	-134,202	-0,116	0,010
-265,511	-118,607	0,105	0,013
-264,497	349,757	-0,059	0,084
-263,482	76,275	0,054	-0,041
-262,467	9,232	0,056	0,030
-261,453	37,754	-0,091	-0,058
-260,438	-118,001	0,056	-0,007
-259,424	315,263	0,032	-0,044
-258,409	-200,000	0,032	0,112
-257,395	594,249	0,033	0,059
-256,380	-200,000	-0,005	-0,101
-255,365	-20,911	-0,090	-0,040
-254,351	462,817	-0,077	0,124
-253,336	-200,000	0,045	-0,178
-252,322	-68,898	-0,065	0,018
-251,307	-54,220	-0,023	0,008
-250,292	-200,000	-0,005	-0,114
-249,278	159,177	0,092	-0,092
-248,263	239,618	0,042	0,051
-247,249	-110,998	-0,127	-0,019
-246,234	168,978	0,038	-0,039
-245,219	221,141	-0,051	-0,059
-244,205	-57,588	-0,076	-0,024
-243,190	-200,000	-0,012	0,042
-242,176	800,000	-0,058	-0,162
-241,161	-200,000	-0,004	0,128
-240,146	75,068	-0,039	0,030
-239,132	800,000	-0,030	-0,075
-238,117	800,000	-0,033	-0,083
-237,103	-200,000	-0,129	0,000
-236,088	1,648	-0,065	-0,034
-235,073	800,000	-0,065	0,140
-234,059	223,269	0,051	-0,059
-233,044	347,226	0,007	0,010
-232,030	-21,923	-0,106	0,046
-231,015	-56,378	0,072	0,023
-230,000	-75,543	-0,161	0,041
-228,986	800,000	0,019	-0,048
-227,971	-200,000	0,009	0,050
-226,957	-200,000	0,028	0,134
-225,942	197,583	-0,044	0,048
-224,927	800,000	-0,066	0,150
-223,913	301,430	-0,068	0,091
-222,898	-200,000	-0,002	-0,088
-221,884	359,112	-0,041	0,060
-220,869	800,000	0,016	-0,032
-219,855	-200,000	0,011	-0,067
-218,840	448,937	0,040	0,063
-217,825	-64,344	0,030	0,009
-216,811	-200,000	0,004	-0,083
-215,796	-68,387	-0,135	-0,038
-214,782	-99,072	0,123	0,022
-213,767	-72,665	0,085	-0,022
-212,752	-200,000	0,041	-0,148
-211,738	-2,872	0,067	-0,033
-210,723	-156,302	0,078	0,003
-209,709	-200,000	0,008	0,057
-208,694	-200,000	-0,002	-0,088
-207,679	47,301	-0,068	-0,046
-206,665	-76,228	0,165	0,042
-205,650	-75,329	0,226	0,058
-204,636	10,144	-0,173	0,094
-203,621	-200,000	0,007	0,094
-202,606	488,117	-0,080	-0,132
-201,592	77,457	-0,022	-0,017
-200,577	233,854	-0,064	-0,076
-199,563	-200,000	0,011	0,099
-198,548	-95,886	0,051	-0,010
-197,533	-200,000	0,018	-0,064
-196,519	-200,000	-0,021	-0,154
-195,504	-32,081	-0,131	-0,052
-194,490	-200,000	0,016	-0,099
-193,475	800,000	-0,019	-0,058
-192,460	273,237	-0,022	0,028
-191,446	189,178	0,072	0,078
-190,431	-56,775	0,123	0,039
-189,417	-12,463	-0,065	0,031
-188,402	-177,976	-0,096	0,002
-187,387	-200,000	0,004	0,039
-186,373	121,426	0,031	-0,028
-185,358	-200,000	0,031	0,144
-184,344	652,433	0,083	0,154
-183,329	164,588	0,051	-0,052
-182,315	76,906	-0,032	0,025
-181,300	66,312	0,055	0,040
-180,285	800,000	0,044	0,096
-179,271	-200,000	0,028	-0,185
-178,256	800,000	0,032	0,066
-177,242	-200,000	-0,020	0,140
-176,227	70,265	0,073	0,054
-175,212	103,249	0,070	0,059
-174,198	-137,710	-0,057	-0,005
-173,183	34,501	0,070	-0,044
-172,169	216,029	0,059	0,068
-171,154	-200,000	-0,003	-0,011
-170,139	-142,978	-0,044	0,003
-169,125	88,011	0,080	0,064
-168,110	412,769	0,084	0,129
-167,096	-118,112	-0,087	-0,011
-166,081	-83,715	-0,098	0,022
-165,066	411,384	0,070	-0,107
-164,052	800,000	0,061	-0,150
-163,037	-200,000	0,031	0,168
-162,023	-200,000	-0,015	0,089
-161,008	-86,853	0,058	0,013
-159,993	800,000	-0,035	0,089
-158,979	106,154	-0,024	0,021
-157,964	431,572	-0,013	-0,020
-156,950	-68,149	-0,148	-0,041
-155,935	2,386	0,071	-0,037
-154,920	800,000	-0,041	-0,117
-153,906	-200,000	0,004	-0,015
-152,891	4,964	-0,073	0,038
-151,877	-134,124	0,084	0,007
-150,862	23,509	-0,077	0,046
-149,847	92,649	0,025	-0,020
-148,833	-109,708	0,198	-0,030
-147,818	-200,000	-0,006	-0,107
-146,804	-143,168	0,061	-0,004
-145,789	-200,000	0,006	0,090
-144,775	-111,563	-0,092	-0,013
-143,760	439,119	-0,070	-0,111
-142,745	-200,000	-0,002	0,007
-141,731	800,000	-0,023	0,057
-140,716	153,944	-0,050	0,049
-139,702	-114,741	0,025	0,003
-138,687	-200,000	0,019	0,115
-137,672	-200,000	-0,032	0,150
-136,658	514,239	-0,006	-0,010
-135,643	-143,598	0,034	0,002
-134,629	164,528	-0,099	-0,101
-133,614	800,000	0,062	0,140
-132,599	800,000	0,027	0,060
-131,585	201,829	0,130	0,145
-130,570	-200,000	0,041	0,175
-129,556	-103,269	-0,176	-0,029
-128,541	-134,228	0,104	-0,009
-127,526	800,000	-0,009	0,018
-126,512	-200,000	0,003	0,011
-125,497	-200,000	-0,012	-0,059
-124,483	-31,851	0,075	-0,030
-123,468	-189,355	-0,091	0,001
-122,453	-200,000	-0,010	-0,103
-121,439	14,044	-0,122	-0,068
-120,424	-97,149	0,063	-0,012
-119,410	-200,000	-0,035	0,135
-118,395	-118,109	-0,123	-0,016
-117,380	670,861	0,056	0,104
-116,366	-17,362	-0,051	-0,023
-115,351	621,315	-0,058	0,104
-114,337	-31,280	-0,143	0,058
-113,322	504,808	-0,048	0,080
-112,307	-200,000	0,019	0,087
-111,293	66,781	0,137	0,100
-110,278	295,138	-0,003	0,004
-109,264	51,666	-0,132	-0,090
-108,249	148,844	0,070	0,068
-107,234	-76,986	0,023	-0,006
-106,220	-200,000	-0,004	-0,073
-105,205	800,000	-0,013	0,035
-104,191	-104,350	-0,069	-0,011
-103,176	686,283	0,036	0,068
-102,162	800,000	-0,033	-0,091
-101,147	-43,687	-0,072	-0,026
-100,132	188,988	-0,018	0,019
-99,118	-61,781	-0,080	0,024
-98,103	800,000	0,050	-0,156
-97,089	-200,000	0,005	-0,048
-96,074	24,773	0,115	0,068
-95,059	-75,268	-0,027	0,007
-94,045	-200,000	-0,001	-0,004
-93,030	-16,920	-0,047	-0,021
-92,016	84,612	-0,090	-0,070
-91,001	331,305	0,018	0,025
-89,986	-200,000	0,014	-0,118
-88,972	-128,754	-0,191	-0,019
-87,957	-200,000	-0,006	-0,044
-86,943	472,341	-0,048	0,077
-85,928	-200,000	0,009	0,078
-84,913	-200,000	0,031	-0,124
-83,899	-98,996	0,085	0,015
-82,884	-113,922	0,110	-0,015
-81,870	-200,000	-0,002	0,016
-80,855	800,000	0,057	-0,131
-79,840	800,000	0,033	-0,097
-78,826	800,000	-0,027	-0,055
-77,811	-42,259	-0,122	-0,045
-76,797	800,000	0,042	0,123
-75,782	243,366	0,042	-0,050
-74,767	172,735	0,093	0,096
-73,753	136,556	0,055	0,052
-72,738	128,359	-0,060	0,055
-71,724	-200,000	0,008	0,125
-70,709	-126,872	-0,183	0,019
-69,694	-143,637	0,291	-0,020
-68,680	800,000	-0,019	-0,052
-67,665	800,000	-0,016	-0,037
-66,651	-200,000	-0,022	0,075
-65,636	800,000	0,025	-0,056
-64,622	255,807	0,031	0,039
-63,607	-121,197	-0,046	-0,005
-62,592	62,694	-0,025	0,018
-61,578	607,746	-0,045	0,082
-60,563	204,744	0,103	-0,115
-59,549	-200,000	-0,041	0,155
-58,534	30,206	-2,131	-1,300
-57,519	-200,000	-0,130	-0,732
-56,505	-200,000	-1,420	-5,150
-55,490	68,169	0,902	0,661
-54,476	800,000	5,452	12,150
-53,461	-200,000	18,447	300,923
-52,446	800,000	734,572	2251,385
-51,432	530,442	1647,627	2798,950
-50,417	107,448	1634,383	1391,993
-49,403	71,416	1285,084	954,180
-48,388	29,998	1026,043	625,007
-47,373	19,681	988,313	568,068
-46,359	17,572	975,688	553,897
-45,344	14,361	971,913	541,252
-44,330	14,639	970,307	541,243
-43,315	14,020	968,785	538,355
-42,300	14,031	967,340	537,569
-41,286	13,951	966,711	536,935
-40,271	14,001	965,707	536,521
-39,257	13,992	964,892	536,015
-38,242	14,001	963,898	535,473
-37,227	14,078	963,232	535,330
-36,213	14,021	962,159	534,530
-35,198	13,978	961,234	533,855
-34,184	14,073	960,626	533,803
-33,169	13,963	959,748	532,937
-32,154	14,049	958,653	532,587
-31,140	14,033	957,884	532,087
-30,125	14,055	957,168	531,740
-29,111	14,013	956,434	531,176
-28,096	14,024	955,602	530,728
-27,082	14,007	954,897	530,259
-26,067	14,081	954,212	530,095
-25,052	14,060	953,409	529,560
-24,038	14,058	952,786	529,187
-23,023	14,002	952,116	528,614
-22,009	14,073	951,448	528,450
-20,994	14,053	950,736	527,970
-19,979	14,076	950,146	527,694
-18,965	14,015	949,598	527,176
-17,950	14,029	948,997	526,866
-16,936	13,994	948,383	526,393
-15,921	14,017	947,600	526,010
-14,906	13,919	946,854	525,263
-13,892	13,928	946,358	524,995
-12,877	13,919	945,657	524,556
-11,863	13,835	945,142	523,983
-10,848	13,958	944,363	523,922
-9,833	14,030	943,898	523,870
-8,819	13,986	943,322	523,389
-7,804	13,964	942,710	522,962
-6,790	13,939	942,075	522,509
-5,775	13,935	941,580	522,200
-4,760	13,953	940,867	521,842
-3,746	13,965	940,294	521,542
-2,731	13,771	939,803	520,635
-1,717	13,796	939,051	520,278
-0,702	13,787	938,137	519,723
0,313	13,597	937,798	519,721
1,327	16,910	935,563	528,845
2,342	25,932	787,633	468,908
3,356	21,988	443,403	258,130
4,371	-7,188	296,200	143,221
5,386	-11,021	277,881	130,713
6,400	-12,268	272,150	126,847
7,415	-12,529	269,986	125,585
8,429	-12,416	268,409	124,944
9,444	-12,582	267,513	124,365
10,459	-12,455	266,908	124,188
11,473	-12,602	266,301	123,761
12,488	-12,709	265,709	123,377
13,502	-13,033	265,355	122,908
14,517	-12,786	264,942	122,929
15,531	-12,736	264,315	122,672
16,546	-12,685	264,009	122,566
17,561	-12,748	263,580	122,299
18,575	-12,596	263,310	122,300
19,590	-12,680	262,907	122,027
20,604	-12,682	262,629	121,884
21,619	-12,670	262,294	121,729
22,634	-12,662	261,941	121,561
23,648	-12,735	261,570	121,313
24,663	-12,715	261,516	121,295
25,677	-12,728	261,186	121,119
26,692	-12,766	260,896	120,940
27,707	-12,805	260,531	120,726
28,721	-12,825	260,477	120,672
29,736	-12,807	260,058	120,483
30,750	-12,728	259,648	120,353
31,765	-12,636	259,488	120,349
32,780	-12,855	259,348	120,080
33,794	-12,747	259,217	120,104
34,809	-12,798	258,951	119,925
35,823	-12,844	258,619	119,720
36,838	-12,883	258,270	119,513
37,853	-12,878	258,083	119,420
38,867	-12,862	257,719	119,255
39,882	-12,787	257,618	119,264
40,896	-12,798	257,229	119,064
41,911	-12,906	257,182	118,936
42,926	-13,007	257,044	118,774
43,940	-12,802	256,594	118,735
44,955	-13,064	256,386	118,398
45,969	-13,002	256,287	118,397
46,984	-13,016	256,030	118,255
47,999	-13,224	255,528	117,831
49,013	-13,291	255,383	117,696
50,028	-13,429	255,091	117,431
51,042	-13,645	254,914	117,152
52,057	-13,606	254,620	117,039
53,071	-13,462	254,562	117,127
54,086	-13,377	254,291	117,066
55,101	-13,403	254,221	117,001
56,115	-13,210	253,985	117,048
57,130	-12,881	253,897	117,282
58,144	-12,690	253,726	117,357
59,159	-12,525	253,418	117,347
60,174	-12,710	253,183	117,068
61,188	-12,731	253,135	117,017
62,203	-12,766	252,782	116,814
63,217	-12,598	252,646	116,885
64,232	-12,766	252,385	116,610
65,247	-12,729	252,204	116,547
66,261	-12,855	252,024	116,346
67,276	-12,939	251,645	116,089
68,290	-13,037	251,429	115,895
69,305	-13,312	251,221	115,554
70,320	-13,034	250,921	115,643
71,334	-12,955	250,868	115,675
72,349	-12,768	250,822	115,803
73,363	-12,571	250,466	115,796
74,378	-12,705	250,211	115,554
75,393	-12,638	250,021	115,512
76,407	-12,780	249,732	115,248
77,422	-12,755	249,719	115,254
78,436	-12,790	249,448	115,088
79,451	-12,724	249,341	115,084
80,466	-12,790	248,916	114,822
81,480	-13,084	248,781	114,501
82,495	-13,046	248,786	114,525
83,509	-12,949	248,361	114,401
84,524	-13,006	248,342	114,334
85,539	-12,968	247,901	114,153
86,553	-13,083	247,814	114,006
87,568	-12,810	247,537	114,098
88,582	-12,788	247,364	114,027
89,597	-13,118	247,251	113,688
90,611	-13,073	247,064	113,629
91,626	-12,738	246,845	113,799
92,641	-12,766	246,658	113,679
93,655	-12,853	246,560	113,551
94,670	-12,833	246,320	113,447
95,684	-12,915	246,107	113,270
96,699	-12,904	245,959	113,201
97,714	-13,141	245,793	112,917
98,728	-13,003	245,475	112,876
99,743	-13,104	245,332	112,716
100,757	-13,034	245,047	112,634
101,772	-13,084	244,838	112,485
102,787	-12,895	244,704	112,571
103,801	-13,043	244,616	112,397
104,816	-12,986	244,588	112,422
105,830	-12,875	244,362	112,400
106,845	-12,792	244,161	112,366
107,860	-12,786	243,800	112,195
108,874	-12,915	243,656	112,012
109,889	-12,949	243,457	111,883
110,903	-13,038	243,123	111,646
111,918	-12,798	243,020	111,786
112,933	-13,007	242,959	111,576
113,947	-12,938	242,836	111,566
114,962	-12,880	242,687	111,536
115,976	-12,799	242,452	111,484
116,991	-12,893	242,207	111,285
118,006	-12,882	242,113	111,241
119,020	-12,995	242,090	111,127
120,035	-12,783	241,772	111,145
121,049	-12,779	241,648	111,081
122,064	-12,758	241,384	110,968
123,079	-12,752	241,284	110,916
124,093	-13,041	241,028	110,553
125,108	-13,066	240,892	110,461
126,122	-13,248	240,499	110,122
127,137	-13,329	240,414	110,008
128,151	-13,141	240,191	110,049
129,166	-13,091	240,028	110,005
130,181	-13,098	239,832	109,899
131,195	-13,113	239,503	109,727
132,210	-12,905	239,519	109,893
133,224	-12,660	239,325	109,992
134,239	-12,870	239,228	109,768
135,254	-12,841	239,174	109,756
136,268	-12,792	238,678	109,559
137,283	-13,121	238,512	109,207
138,297	-13,308	238,177	108,894
139,312	-13,176	238,242	109,021
140,327	-13,091	238,099	109,013
141,341	-12,510	238,011	109,431
142,356	-12,409	237,758	109,386
143,370	-12,330	237,661	109,395
144,385	-12,606	237,555	109,115
145,400	-12,645	237,387	108,997
146,414	-12,620	237,158	108,902
147,429	-12,657	236,925	108,756
148,443	-12,742	236,786	108,614
149,458	-12,658	236,569	108,572
150,473	-12,393	236,296	108,648
151,487	-12,764	236,196	108,297
152,502	-12,549	236,091	108,410
153,516	-12,375	235,846	108,426
154,531	-12,930	235,890	107,995
155,546	-12,831	235,647	107,953
156,560	-12,785	235,294	107,818
157,575	-12,532	235,177	107,956
158,589	-12,564	234,971	107,826
159,604	-12,553	234,805	107,750
160,619	-12,559	234,678	107,677
161,633	-12,409	234,625	107,762
162,648	-12,431	234,396	107,629
163,662	-12,622	234,292	107,421
164,677	-12,882	234,105	107,120
165,692	-12,723	233,858	107,124
166,706	-12,766	233,843	107,073
167,721	-12,384	233,665	107,283
168,735	-12,455	233,503	107,143
169,750	-12,658	233,536	106,989
170,764	-12,602	233,254	106,894
171,779	-12,516	233,055	106,861
172,794	-12,550	232,955	106,779
173,808	-12,622	232,575	106,539
174,823	-13,211	232,515	106,040
175,837	-13,021	232,140	106,009
176,852	-12,872	232,168	106,128
177,867	-12,707	232,119	106,226
178,881	-12,321	231,808	106,375
179,896	-12,387	231,681	106,256
180,910	-12,568	231,505	106,024
181,925	-12,494	231,293	105,976
182,940	-12,688	231,365	105,848
183,954	-12,516	231,173	105,884
184,969	-12,322	231,046	105,968
185,983	-12,277	231,006	105,975
186,998	-12,336	230,620	105,743
188,013	-12,209	230,469	105,763
189,027	-12,429	230,458	105,577
190,042	-12,361	230,150	105,480
191,056	-12,457	230,130	105,387
192,071	-12,376	229,891	105,331
193,086	-12,384	229,568	105,167
194,100	-12,196	229,472	105,258
195,115	-12,536	229,092	104,813
196,129	-12,576	229,212	104,828
197,144	-7,389	230,950	109,636
198,159	-1,762	232,625	114,807
199,173	1,665	233,512	117,909
200,188	2,295	233,500	118,383
201,202	2,212	233,506	118,310
202,217	2,141	233,250	118,115
203,232	2,292	233,165	118,179
204,246	2,484	232,920	118,193
205,261	2,399	232,886	118,100
206,275	2,507	232,861	118,160
207,290	2,473	232,541	117,961
208,304	2,413	232,659	117,964
209,319	2,645	232,059	117,829
210,334	2,494	232,003	117,673
211,348	2,364	231,771	117,444
212,363	2,112	231,617	117,162
213,377	1,913	231,322	116,849
214,392	1,833	231,338	116,784
215,407	2,013	231,126	116,805
216,421	2,047	231,045	116,781
217,436	2,020	230,789	116,620
218,450	1,870	230,582	116,390
219,465	1,642	230,506	116,165
220,480	1,851	230,284	116,204
221,494	1,704	230,187	116,032
222,509	1,865	230,208	116,155
223,523	2,007	230,224	116,262
224,538	1,822	229,825	115,908
225,553	1,763	229,654	115,766
226,567	1,843	229,462	115,721
227,582	2,289	229,397	116,018
228,596	2,335	229,370	116,030
229,611	2,230	229,039	115,772
230,626	1,757	228,797	115,279
231,640	1,848	228,735	115,307
232,655	2,059	228,659	115,419
233,669	2,514	228,612	115,731
234,684	2,393	228,513	115,578
235,699	2,359	228,139	115,353
236,713	1,958	227,989	114,963
237,728	1,893	227,875	114,846
238,742	1,906	227,581	114,697
239,757	2,081	227,580	114,818
240,772	1,965	227,464	114,663
241,786	1,952	227,252	114,535
242,801	2,112	227,234	114,637
243,815	2,405	227,116	114,788
244,830	2,425	226,884	114,676
245,844	2,112	226,665	114,320
246,859	1,915	226,594	114,125
247,874	2,127	226,590	114,273
248,888	2,382	226,306	114,311
249,903	2,066	226,181	114,000
250,917	2,348	225,916	114,068
251,932	2,092	225,770	113,792
252,947	1,833	225,691	113,548
253,961	1,699	225,469	113,325
254,976	1,941	225,289	113,406
255,990	2,023	225,225	113,425
257,005	2,373	225,061	113,594
258,020	2,222	225,030	113,456
259,034	2,082	224,862	113,256
260,049	2,211	224,775	113,298
261,063	1,983	224,594	113,027
262,078	2,315	224,530	113,233
263,093	2,425	224,241	113,159
264,107	2,369	224,247	113,109
265,122	2,112	224,049	112,809
266,136	2,447	223,961	113,003
267,151	2,452	223,732	112,881
268,166	2,164	223,287	112,433
269,180	1,820	223,205	112,127
270,195	1,910	223,100	112,131
271,209	1,815	223,032	112,017
272,224	1,844	222,913	111,968
273,239	2,373	222,746	112,265
274,253	2,168	222,493	111,976
275,268	1,888	222,483	111,755
276,282	1,781	222,198	111,523
277,297	1,611	222,194	111,386
278,312	1,976	221,979	111,537
279,326	2,037	221,783	111,473
280,341	2,109	221,757	111,503
281,355	1,986	221,785	111,417
282,370	2,127	221,504	111,369
283,384	1,876	221,363	111,104
284,399	1,867	221,145	110,978
285,414	1,757	220,973	110,802
286,428	2,128	220,925	111,039
287,443	2,268	220,858	111,098
288,457	2,206	220,746	110,986
289,472	1,881	220,405	110,568
290,487	1,414	220,236	110,133
291,501	1,495	220,084	110,106
292,516	1,462	219,908	109,984
293,530	1,777	219,738	110,118
294,545	1,826	219,709	110,130
295,560	1,978	219,639	110,195
296,574	1,924	219,433	110,042
297,589	2,133	219,294	110,115
298,603	1,982	219,249	109,973
299,618	1,909	219,147	109,859
300,633	2,043	219,032	109,889
301,647	2,503	218,884	110,137
302,662	2,190	218,787	109,852
303,676	2,331	218,620	109,861
304,691	2,589	218,378	109,915
305,706	2,188	218,183	109,519
306,720	2,413	218,080	109,619
307,735	2,098	217,874	109,279
308,749	1,808	217,690	108,968
309,764	2,068	217,755	109,178
310,779	2,197	217,679	109,223
311,793	2,160	217,486	109,089
312,808	2,138	217,307	108,975
313,822	2,199	217,075	108,892
314,837	2,122	216,946	108,763
315,852	1,979	216,775	108,565
316,866	1,966	216,847	108,582
317,881	2,367	216,472	108,671
318,895	2,122	216,478	108,489
319,910	1,951	216,185	108,211
320,925	1,625	216,080	107,916
321,939	1,520	215,874	107,729
322,954	1,575	215,806	107,725
323,968	2,014	215,797	108,023
324,983	2,421	215,617	108,213
325,997	2,464	215,596	108,223
327,012	2,126	215,300	107,825
328,027	2,193	215,182	107,803
329,041	2,540	215,193	108,046
330,056	2,769	214,984	108,093
331,070	2,386	214,626	107,633
332,085	1,956	214,532	107,272
333,100	2,187	214,570	107,445
334,114	2,275	214,407	107,416
335,129	2,260	214,217	107,301
336,143	2,109	214,027	107,089
337,158	1,953	214,055	106,984
338,173	2,001	213,767	106,864
339,187	1,838	213,678	106,695
340,202	1,797	213,498	106,567
341,216	1,632	213,342	106,364
342,231	1,694	213,213	106,333
343,246	2,087	213,184	106,585
344,260	2,327	213,064	106,684
345,275	2,231	213,057	106,604
346,289	2,481	212,831	106,657
347,304	2,228	212,704	106,406
348,319	2,180	212,389	106,206
349,333	2,166	212,268	106,126
350,348	2,049	212,245	106,023
351,362	2,395	212,153	106,209
352,377	2,494	212,030	106,207
353,392	2,110	211,861	105,845
354,406	2,161	211,644	105,763
355,421	197,182	1315,407	1394,012
356,435	157,702	1449,846	1393,963
