DTS Sentinel unit serial number:	SN410029Multiplexer serial number:	ORYXHardware model number:	OX2-SRSoftware version number:	ORYX F/W v4,00 Oryx Data Collector v3.7.2.0data status	okinstallation	B6 Nyhavnadifferential loss correction	single-endedforward channel	channel 2reverse channel	N/Adate	2023/12/08time	08:25:08forward acquisition time	300,00reverse acquisition time	0,00gamma	499,1914k internal	0,3174k external	0,3174temperature offset calibration	1,0000default loss term (dB/km)	0,3820temperature slope calibration	1,0000multiplexer offset coefficient	1,0000multiplexer slope coefficient	1,0000fibre end	0,00T internal ref (°C)	11,44T ext. ref 1 (°C)	-2,41T ext. ref 2 (°C)	-2,36length (m)	temperature (°C)	Stokes	anti-Stokes-744,400	302,652	0,044	0,059
-743,385	-30,232	-0,304	-0,126
-742,371	434,786	0,050	0,080
-741,356	-25,540	-0,269	-0,116
-740,342	800,000	0,101	0,210
-739,327	-169,362	-0,450	-0,012
-738,312	71,603	0,168	0,128
-737,298	-91,711	-0,372	-0,077
-736,283	39,758	0,218	0,143
-735,269	-124,165	-0,342	-0,039
-734,254	31,904	0,141	0,089
-733,239	-36,095	-0,520	-0,205
-732,225	-52,090	0,243	0,082
-731,210	800,000	0,021	-0,052
-730,196	-200,000	-0,013	0,076
-729,181	43,737	-0,054	-0,036
-728,167	-200,000	0,017	0,139
-727,152	128,809	-0,074	-0,069
-726,137	-200,000	0,030	0,000
-725,123	80,719	0,036	-0,029
-724,108	0,654	-0,106	-0,056
-723,094	-48,951	-0,149	0,052
-722,079	800,000	0,030	0,081
-721,064	-120,794	-0,183	0,022
-720,050	561,781	-0,031	-0,055
-719,035	315,023	0,044	-0,061
-718,021	-200,000	-0,006	0,076
-717,006	57,173	0,116	-0,083
-715,991	96,520	-0,193	-0,162
-714,977	9,457	0,083	-0,046
-713,962	800,000	-0,007	-0,023
-712,948	-59,232	-0,093	-0,029
-711,933	-200,000	0,002	0,044
-710,918	-118,882	-0,153	-0,019
-709,904	-14,839	-0,048	-0,023
-708,889	8,300	-0,131	-0,072
-707,875	-200,000	-0,013	-0,170
-706,860	-167,614	0,079	-0,002
-705,845	510,029	-0,011	0,019
-704,831	-49,486	0,146	0,051
-703,816	-176,268	-0,126	-0,002
-702,802	800,000	-0,051	-0,143
-701,787	-37,850	0,055	-0,021
-700,772	-200,000	-0,006	0,019
-699,758	56,771	-0,088	-0,062
-698,743	-146,843	-0,026	-0,002
-697,729	507,386	-0,015	-0,026
-696,714	-40,989	0,124	-0,047
-695,699	694,903	-0,037	-0,071
-694,685	126,495	-0,088	0,082
-693,670	-96,783	0,128	0,024
-692,656	-200,000	0,019	0,117
-691,641	176,499	0,073	0,078
-690,627	-200,000	0,014	-0,102
-689,612	-123,799	-0,084	-0,010
-688,597	800,000	-0,070	-0,181
-687,583	800,000	-0,044	0,118
-686,568	-200,000	0,028	-0,095
-685,554	249,643	-0,046	-0,057
-684,539	-200,000	-0,002	0,102
-683,524	219,595	0,054	0,063
-682,510	38,350	0,081	0,053
-681,495	-90,926	-0,101	-0,021
-680,481	149,374	-0,057	-0,056
-679,466	-5,014	-0,071	-0,036
-678,451	-104,190	0,031	0,005
-677,437	-200,000	-0,007	-0,038
-676,422	-44,879	-0,065	0,023
-675,408	-200,000	-0,016	0,058
-674,393	-5,631	0,129	0,064
-673,378	800,000	0,040	-0,120
-672,364	800,000	-0,042	-0,086
-671,349	75,695	-0,035	-0,027
-670,335	154,777	-0,029	0,029
-669,320	797,535	-0,020	0,040
-668,305	237,874	0,066	-0,081
-667,291	-110,423	-0,100	0,015
-666,276	-200,000	0,006	-0,037
-665,262	-200,000	-0,055	-0,212
-664,247	-98,603	0,143	-0,026
-663,232	800,000	0,079	0,162
-662,218	-200,000	-0,002	-0,142
-661,203	68,808	-0,077	0,058
-660,189	-58,162	0,032	-0,010
-659,174	290,965	-0,050	0,067
-658,159	127,506	-0,098	-0,091
-657,145	-35,555	-0,066	-0,026
-656,130	-200,000	-0,023	0,088
-655,116	-80,933	-0,084	0,020
-654,101	-122,595	0,085	-0,010
-653,086	-200,000	-0,023	0,083
-652,072	369,142	-0,028	-0,042
-651,057	-30,178	0,138	0,057
-650,043	-92,209	-0,155	-0,032
-649,028	98,335	0,173	-0,146
-648,014	-200,000	0,002	0,077
-646,999	-0,746	-0,188	0,097
-645,984	-91,247	0,052	0,011
-644,970	800,000	0,020	-0,056
-643,955	236,705	-0,128	-0,155
-642,941	757,375	-0,041	-0,081
-641,926	234,450	-0,073	0,088
-640,911	-5,014	0,091	0,046
-639,897	498,084	-0,083	-0,139
-638,882	-94,979	0,062	0,012
-637,868	-103,729	-0,117	0,020
-636,853	-117,788	-0,137	0,018
-635,838	358,446	-0,075	0,110
-634,824	104,595	0,120	0,103
-633,809	-200,000	0,026	0,141
-632,795	486,252	-0,048	0,080
-631,780	25,912	-0,066	-0,040
-630,765	-47,312	0,021	-0,008
-629,751	92,563	0,033	-0,027
-628,736	252,726	-0,009	0,012
-627,722	-200,000	0,027	0,094
-626,707	-19,488	-0,042	0,019
-625,692	800,000	0,042	0,104
-624,678	-130,330	0,053	0,005
-623,663	-151,803	-0,146	0,008
-622,649	288,541	-0,026	-0,035
-621,634	-200,000	0,020	-0,189
-620,619	-123,588	0,140	-0,016
-619,605	-200,000	0,004	0,055
-618,590	-103,158	-0,070	-0,012
-617,576	-62,505	-0,066	0,020
-616,561	-143,807	-0,082	-0,006
-615,546	-85,290	-0,083	-0,019
-614,532	27,056	-0,038	-0,023
-613,517	-65,127	-0,096	-0,028
-612,503	299,622	-0,076	0,102
-611,488	-92,159	-0,109	0,022
-610,474	-200,000	-0,012	0,048
-609,459	29,214	-0,057	-0,035
-608,444	-125,898	-0,076	-0,008
-607,430	255,460	-0,092	-0,115
-606,415	-3,143	0,070	-0,035
-605,401	800,000	-0,056	-0,164
-604,386	263,526	0,080	0,102
-603,371	-51,005	0,109	0,037
-602,357	-55,903	-0,167	0,054
-601,342	-200,000	0,016	-0,060
-600,328	-133,449	-0,132	0,012
-599,313	-37,193	-0,103	0,040
-598,298	227,220	0,114	-0,136
-597,284	211,855	-0,009	0,010
-596,269	61,433	0,074	0,054
-595,255	111,734	0,113	0,100
-594,240	-104,224	-0,067	-0,011
-593,225	-103,712	-0,073	-0,012
-592,211	44,063	-0,038	-0,025
-591,196	384,174	-0,030	0,045
-590,182	208,896	0,020	-0,023
-589,167	-10,730	0,183	0,088
-588,152	800,000	0,084	-0,199
-587,138	98,641	-0,091	-0,077
-586,123	-200,000	0,028	-0,160
-585,109	4,778	-0,099	-0,053
-584,094	399,537	0,014	-0,022
-583,079	257,023	0,021	-0,027
-582,065	156,613	0,073	0,073
-581,050	-200,000	-0,009	-0,081
-580,036	-102,909	0,132	0,023
-579,021	-200,000	0,024	-0,079
-578,006	304,876	0,080	-0,109
-576,992	800,000	0,053	-0,126
-575,977	224,771	-0,080	0,094
-574,963	161,048	0,082	0,084
-573,948	-107,894	-0,135	0,021
-572,934	-149,339	0,104	-0,006
-571,919	-59,680	0,042	-0,013
-570,904	-123,797	-0,146	-0,017
-569,890	-131,845	-0,085	0,008
-568,875	-200,000	0,004	-0,115
-567,861	-65,059	-0,046	0,014
-566,846	800,000	0,078	0,184
-565,831	800,000	0,013	0,034
-564,817	-200,000	0,016	-0,123
-563,802	97,200	-0,088	0,074
-562,788	328,153	-0,033	-0,047
-561,773	-110,115	0,109	-0,016
-560,758	-200,000	-0,007	0,071
-559,744	28,981	-0,116	0,072
-558,729	82,110	-0,040	0,032
-557,715	-200,000	-0,008	0,036
-556,700	111,448	-0,128	0,112
-555,685	92,523	-0,114	-0,094
-554,671	240,621	0,029	-0,035
-553,656	125,995	-0,089	0,082
-552,642	77,486	-0,027	0,021
-551,627	-56,447	-0,024	0,008
-550,612	-66,553	0,082	0,024
-549,598	-14,305	-0,099	-0,046
-548,583	307,469	0,045	-0,061
-547,569	-111,859	-0,067	-0,010
-546,554	-50,197	-0,050	0,017
-545,539	428,868	0,051	0,080
-544,525	110,824	-0,086	0,075
-543,510	-200,000	-0,005	-0,095
-542,496	-200,000	0,007	-0,025
-541,481	10,359	-0,153	-0,085
-540,466	-200,000	-0,006	-0,125
-539,452	800,000	-0,027	-0,067
-538,437	-200,000	0,008	-0,113
-537,423	-130,858	0,137	-0,013
-536,408	-200,000	0,015	-0,144
-535,393	-200,000	-0,022	-0,092
-534,379	479,592	0,079	0,131
-533,364	-14,210	0,034	0,016
-532,350	-19,623	0,104	0,047
-531,335	-200,000	0,013	0,093
-530,321	800,000	-0,056	0,117
-529,306	42,567	0,051	-0,034
-528,291	37,984	-0,079	-0,051
-527,277	43,193	-0,134	-0,089
-526,262	126,436	0,016	0,014
-525,248	-116,261	-0,054	-0,007
-524,233	-181,140	-0,114	-0,002
-523,218	-19,819	-0,160	-0,072
-522,204	228,886	0,048	0,057
-521,189	-33,390	-0,088	-0,035
-520,175	-148,218	-0,121	-0,007
-519,160	-19,845	0,068	-0,030
-518,145	-69,242	-0,094	0,026
-517,131	-54,352	-0,082	-0,027
-516,116	-169,401	0,145	0,004
-515,102	-172,908	-0,119	0,003
-514,087	-200,000	-0,001	0,073
-513,072	-32,679	0,055	0,022
-512,058	800,000	0,062	0,133
-511,043	-103,149	0,051	0,009
-510,029	337,423	-0,028	-0,040
-509,014	88,917	-0,051	-0,041
-507,999	234,337	0,104	0,125
-506,985	176,130	-0,142	-0,150
-505,970	-12,686	0,115	0,054
-504,956	179,106	0,067	-0,071
-503,941	388,601	0,027	0,041
-502,926	-200,000	0,008	0,175
-501,912	56,866	-0,063	0,044
-500,897	114,762	0,050	-0,044
-499,883	7,387	0,042	-0,023
-498,868	58,821	0,055	-0,039
-497,853	-3,666	0,074	-0,037
-496,839	-200,000	0,024	-0,131
-495,824	800,000	-0,019	0,053
-494,810	279,011	0,034	-0,044
-493,795	622,561	0,054	-0,099
-492,781	51,496	-0,087	0,060
-491,766	-200,000	0,019	-0,080
-490,751	-200,000	0,009	-0,053
-489,737	76,324	0,057	-0,044
-488,722	27,683	0,020	0,012
-487,708	-170,504	-0,083	-0,002
-486,693	88,880	0,043	0,035
-485,678	-117,123	0,110	-0,014
-484,664	55,206	0,079	0,055
-483,649	184,674	-0,069	-0,074
-482,635	30,053	-0,120	-0,074
-481,620	800,000	-0,026	0,057
-480,605	800,000	0,042	0,100
-479,591	-200,000	0,019	0,100
-478,576	-81,540	-0,098	-0,023
-477,562	1,371	-0,077	0,040
-476,547	262,726	-0,050	0,063
-475,532	243,891	0,063	0,077
-474,518	800,000	0,016	0,049
-473,503	-200,000	0,004	-0,092
-472,489	135,743	-0,093	-0,088
-471,474	382,241	-0,023	-0,034
-470,459	299,879	0,029	-0,039
-469,445	26,319	-0,052	-0,032
-468,430	-200,000	-0,007	0,071
-467,416	76,089	0,046	-0,035
-466,401	305,647	0,062	0,083
-465,386	38,216	-0,120	0,077
-464,372	800,000	-0,061	0,123
-463,357	689,647	0,051	-0,098
-462,343	-112,124	-0,011	0,002
-461,328	800,000	0,058	0,135
-460,313	291,598	-0,066	0,088
-459,299	800,000	-0,033	0,068
-458,284	32,011	0,090	0,056
-457,270	-181,318	0,069	-0,001
-456,255	407,178	-0,061	-0,093
-455,241	3,323	0,080	-0,042
-454,226	359,349	-0,052	0,076
-453,211	218,162	0,072	0,083
-452,197	-200,000	0,019	-0,110
-451,182	-200,000	-0,013	0,099
-450,168	-200,000	0,039	0,190
-449,153	540,070	0,055	0,095
-448,138	42,238	-0,033	-0,022
-447,124	363,517	0,039	-0,057
-446,109	-200,000	-0,026	0,159
-445,095	77,831	0,071	-0,055
-444,080	144,137	0,082	-0,079
-443,065	125,134	-0,095	0,087
-442,051	-114,792	0,118	-0,016
-441,036	-67,663	0,039	-0,011
-440,022	800,000	-0,094	-0,224
-439,007	353,896	0,050	0,073
-437,992	-64,462	0,115	-0,034
-436,978	-200,000	-0,052	-0,169
-435,963	793,960	0,030	-0,059
-434,949	-9,923	-0,111	-0,054
-433,934	34,359	0,037	-0,023
-432,919	21,854	0,062	0,037
-431,905	-200,000	-0,018	-0,063
-430,890	-115,179	0,119	0,016
-429,876	-97,853	0,083	0,015
-428,861	16,283	-0,044	0,025
-427,846	-190,404	-0,095	-0,001
-426,832	-200,000	-0,001	0,040
-425,817	-200,000	-0,048	-0,271
-424,803	276,253	0,063	-0,082
-423,788	13,698	0,090	0,051
-422,773	-200,000	0,009	0,129
-421,759	-120,993	-0,076	-0,009
-420,744	-42,987	-0,067	-0,025
-419,730	-200,000	-0,013	-0,128
-418,715	4,188	-0,112	0,059
-417,701	800,000	0,059	-0,163
-416,686	127,293	0,086	0,079
-415,671	-200,000	-0,029	0,176
-414,657	75,309	0,067	0,051
-413,642	106,482	0,072	0,062
-412,628	800,000	0,037	-0,094
-411,613	-200,000	0,014	-0,058
-410,598	156,679	0,056	-0,056
-409,584	117,174	-0,233	-0,208
-408,569	14,862	0,122	0,069
-407,555	-114,929	0,089	-0,012
-406,540	-200,000	0,008	0,032
-405,525	77,065	0,104	-0,080
-404,511	-200,000	-0,008	-0,130
-403,496	-200,000	-0,016	0,068
-402,482	-75,215	0,131	-0,034
-401,467	15,130	0,021	-0,012
-400,452	-200,000	-0,032	0,129
-399,438	-73,480	0,059	-0,015
-398,423	-200,000	-0,029	0,123
-397,409	-200,000	0,023	-0,078
-396,394	84,768	0,059	0,047
-395,379	-45,811	0,051	0,018
-394,365	800,000	0,027	0,066
-393,350	-200,000	0,002	-0,016
-392,336	-108,315	-0,087	0,013
-391,321	-200,000	-0,018	-0,093
-390,306	800,000	-0,052	-0,152
-389,292	-200,000	-0,008	-0,042
-388,277	87,139	0,044	0,035
-387,263	-91,313	0,023	-0,005
-386,248	103,497	-0,102	-0,087
-385,233	-179,179	0,132	0,002
-384,219	-200,000	0,014	-0,095
-383,204	800,000	0,053	-0,124
-382,190	800,000	-0,070	-0,182
-381,175	-200,000	0,013	-0,124
-380,160	-200,000	0,031	-0,122
-379,146	429,048	0,052	0,081
-378,131	8,593	-0,075	-0,041
-377,117	-200,000	-0,001	0,086
-376,102	-200,000	-0,001	0,035
-375,088	-200,000	0,022	-0,150
-374,073	329,483	-0,117	-0,164
-373,058	-156,176	0,054	0,002
-372,044	-2,845	0,116	0,058
-371,029	-21,972	-0,051	0,022
-370,015	86,928	-0,045	-0,036
-369,000	-126,027	-0,056	-0,006
-367,985	-200,000	-0,009	-0,119
-366,971	-27,725	0,084	-0,035
-365,956	535,605	-0,029	-0,050
-364,942	-200,000	-0,012	0,045
-363,927	-100,675	-0,234	-0,041
-362,912	96,623	-0,033	-0,027
-361,898	545,035	0,026	-0,045
-360,883	279,005	-0,085	-0,110
-359,869	800,000	0,012	0,033
-358,854	65,977	0,131	0,096
-357,839	-81,103	0,041	-0,010
-356,825	-200,000	0,001	0,048
-355,810	270,888	0,073	0,093
-354,796	-200,000	0,039	-0,151
-353,781	94,493	-0,025	-0,021
-352,766	-200,000	0,017	0,100
-351,752	7,852	0,070	0,038
-350,737	638,571	0,041	0,075
-349,723	26,984	0,009	0,005
-348,708	-186,941	-0,097	-0,001
-347,693	-159,766	0,114	0,004
-346,679	-63,840	-0,073	-0,021
-345,664	-80,423	-0,029	-0,007
-344,650	203,738	-0,065	-0,073
-343,635	42,433	-0,062	-0,041
-342,620	-60,847	0,081	-0,025
-341,606	-200,000	0,005	-0,052
-340,591	-200,000	0,031	0,100
-339,577	19,154	0,030	0,017
-338,562	-200,000	-0,001	0,099
-337,548	114,756	-0,046	0,041
-336,533	-200,000	-0,024	0,084
-335,518	-200,000	-0,008	0,107
-334,504	800,000	0,035	0,071
-333,489	800,000	-0,019	0,052
-332,475	-113,559	0,076	-0,011
-331,460	-139,303	0,085	-0,006
-330,445	140,801	-0,079	0,075
-329,431	78,966	-0,122	0,094
-328,416	83,838	-0,018	0,014
-327,402	-49,876	-0,021	-0,007
-326,387	-69,275	0,030	0,008
-325,372	-200,000	-0,040	-0,135
-324,358	-85,465	-0,073	-0,016
-323,343	-92,587	-0,066	-0,013
-322,329	-5,889	0,128	-0,063
-321,314	277,925	-0,070	0,090
-320,299	-200,000	-0,001	0,089
-319,285	122,439	0,040	0,036
-318,270	-125,044	0,018	-0,002
-317,256	-200,000	-0,012	0,046
-316,241	-200,000	-0,027	0,094
-315,226	41,737	0,046	-0,030
-314,212	0,449	0,127	0,065
-313,197	-55,354	0,142	0,046
-312,183	-99,352	0,028	0,005
-311,168	-200,000	0,008	0,029
-310,153	-169,527	0,156	0,004
-309,139	-35,687	-0,051	0,020
-308,124	68,472	-0,041	0,030
-307,110	314,636	0,085	0,115
-306,095	338,312	-0,056	0,079
-305,080	-45,027	0,065	0,023
-304,066	551,203	-0,070	-0,121
-303,051	-200,000	0,026	-0,210
-302,037	-12,861	0,078	-0,037
-301,022	57,766	0,071	0,050
-300,008	-163,771	0,131	0,004
-298,993	615,205	-0,077	-0,140
-297,978	130,669	0,087	0,081
-296,964	672,062	0,055	0,104
-295,949	179,713	0,091	0,096
-294,935	-113,826	-0,019	0,003
-293,920	-75,236	-0,041	0,010
-292,905	425,233	0,035	0,054
-291,891	-200,000	-0,017	-0,083
-290,876	-200,000	-0,012	0,063
-289,862	108,375	-0,080	0,069
-288,847	800,000	-0,035	0,078
-287,832	151,191	-0,046	-0,045
-286,818	-200,000	-0,013	-0,052
-285,803	-200,000	0,011	0,043
-284,789	73,264	0,043	0,032
-283,774	-185,438	0,163	0,002
-282,759	-61,205	-0,073	-0,022
-281,745	800,000	-0,009	0,027
-280,730	161,666	-0,078	0,079
-279,716	-170,042	-0,055	-0,001
-278,701	666,927	0,042	0,079
-277,686	-200,000	0,003	-0,130
-276,672	288,990	0,067	0,087
-275,657	800,000	-0,016	-0,049
-274,643	-76,147	-0,113	0,029
-273,628	36,782	-0,072	0,046
-272,613	-66,658	0,037	-0,011
-271,599	-179,580	-0,055	-0,001
-270,584	164,739	0,068	0,069
-269,570	472,572	-0,025	0,041
-268,555	-3,647	-0,103	0,052
-267,540	-160,387	0,060	0,002
-266,526	-11,342	-0,019	-0,009
-265,511	-200,000	0,020	0,143
-264,497	-147,131	-0,039	-0,002
-263,482	-200,000	0,031	0,123
-262,467	513,364	0,031	0,052
-261,453	-13,736	-0,032	-0,015
-260,438	-104,555	0,058	-0,010
-259,424	-48,297	-0,075	-0,026
-258,409	176,344	-0,050	0,052
-257,395	-62,857	0,089	-0,026
-256,380	-104,018	-0,026	-0,004
-255,365	-200,000	0,003	-0,024
-254,351	119,678	0,093	0,083
-253,336	767,144	-0,017	0,033
-252,322	-114,200	0,040	0,006
-251,307	231,706	0,024	0,029
-250,292	275,544	-0,058	-0,074
-249,278	800,000	-0,030	0,094
-248,263	-20,209	0,062	-0,028
-247,249	-15,067	0,091	0,042
-246,234	4,293	0,088	-0,046
-245,219	86,290	-0,145	-0,115
-244,205	157,064	-0,033	0,033
-243,190	-70,651	0,182	-0,049
-242,176	-200,000	-0,003	0,083
-241,161	-76,775	0,175	0,044
-240,146	-87,732	-0,055	-0,012
-239,132	65,125	-0,028	-0,021
-238,117	-113,627	-0,149	0,021
-237,103	-146,832	-0,150	-0,009
-236,088	13,551	0,053	-0,029
-235,073	19,378	0,088	0,051
-234,059	800,000	-0,030	0,072
-233,044	147,295	0,072	0,070
-232,030	800,000	0,016	-0,046
-231,015	253,641	0,033	-0,040
-230,000	334,715	-0,047	-0,065
-228,986	94,133	0,057	-0,047
-227,971	31,220	0,048	0,029
-226,957	257,891	-0,082	0,101
-225,942	-200,000	-0,020	-0,119
-224,927	-200,000	0,002	0,017
-223,913	-49,954	0,169	0,057
-222,898	-81,040	-0,067	0,016
-221,884	800,000	-0,009	-0,027
-220,869	569,358	-0,028	0,049
-219,855	42,795	0,035	0,023
-218,840	-200,000	-0,030	0,134
-217,825	800,000	0,042	-0,089
-216,811	597,901	0,028	-0,050
-215,796	180,908	-0,054	-0,057
-214,782	119,219	-0,055	0,049
-213,767	242,439	-0,078	0,094
-212,752	191,560	-0,127	0,138
-211,738	726,450	0,098	0,189
-210,723	-172,529	0,094	0,002
-209,709	534,784	-0,037	-0,063
-208,694	289,179	-0,041	-0,054
-207,679	-109,518	0,173	-0,026
-206,665	-127,350	0,101	0,010
-205,650	-200,000	0,005	0,047
-204,636	800,000	0,064	0,160
-203,621	18,164	0,079	0,045
-202,606	217,291	-0,069	0,079
-201,592	-200,000	0,015	-0,154
-200,577	-200,000	-0,002	-0,020
-199,563	800,000	-0,057	-0,166
-198,548	340,263	-0,043	0,060
-197,533	567,142	-0,028	-0,049
-196,519	496,465	0,042	-0,070
-195,504	-4,264	0,016	0,008
-194,490	711,673	-0,037	-0,070
-193,475	4,898	0,052	0,028
-192,460	-200,000	0,010	0,100
-191,446	800,000	0,030	0,069
-190,431	443,952	-0,028	0,044
-189,417	800,000	-0,008	0,020
-188,402	518,213	0,022	-0,036
-187,387	800,000	0,058	-0,142
-186,373	-200,000	0,003	-0,088
-185,358	-200,000	-0,018	-0,082
-184,344	-200,000	0,037	0,127
-183,329	-200,000	0,010	0,044
-182,315	-28,749	-0,135	0,056
-181,300	274,276	-0,020	-0,026
-180,285	-126,222	-0,145	-0,015
-179,271	139,185	-0,061	0,057
-178,256	43,221	-0,046	-0,030
-177,242	137,106	0,073	-0,068
-176,227	82,679	0,143	0,111
-175,212	-200,000	0,002	0,119
-174,198	-112,594	-0,042	0,006
-173,183	102,661	-0,078	-0,066
-172,169	-11,993	-0,041	0,019
-171,154	3,832	-0,043	0,022
-170,139	-117,820	0,114	-0,015
-169,125	378,543	0,040	-0,059
-168,110	-200,000	0,011	-0,077
-167,096	-74,390	0,073	0,019
-166,081	-114,014	-0,093	-0,013
-165,066	-200,000	0,012	-0,144
-164,052	314,565	-0,040	-0,055
-163,037	336,001	-0,106	-0,148
-162,023	800,000	0,018	0,043
-161,008	800,000	0,040	-0,092
-159,993	19,593	0,042	0,024
-158,979	112,846	-0,040	0,035
-157,964	-200,000	0,011	0,053
-156,950	-5,176	0,084	0,041
-155,935	20,845	0,082	0,048
-154,920	293,623	0,028	0,037
-153,906	800,000	0,055	-0,163
-152,891	648,980	-0,051	-0,094
-151,877	93,013	-0,087	-0,071
-150,862	800,000	0,040	-0,127
-149,847	38,834	0,131	-0,084
-148,833	-200,000	-0,024	-0,129
-147,818	-200,000	0,016	0,136
-146,804	-200,000	0,021	0,090
-145,789	188,621	0,046	-0,050
-144,775	92,972	-0,073	0,059
-143,760	-46,369	-0,073	0,026
-142,745	291,747	-0,086	-0,113
-141,731	-12,139	0,059	0,028
-140,716	575,318	-0,106	-0,186
-139,702	-200,000	-0,004	0,088
-138,687	157,503	0,065	-0,065
-137,672	-200,000	-0,031	-0,100
-136,658	-50,539	-0,117	-0,039
-135,643	800,000	0,054	-0,124
-134,629	-200,000	-0,015	-0,057
-133,614	-133,906	0,069	0,006
-132,599	-200,000	-0,005	0,056
-131,585	800,000	-0,004	0,013
-130,570	-200,000	0,020	0,098
-129,556	800,000	0,041	0,083
-128,541	49,927	-0,065	-0,044
-127,526	93,115	0,021	-0,017
-126,512	76,199	-0,048	-0,037
-125,497	-14,077	0,168	0,078
-124,483	66,825	-0,040	-0,029
-123,468	62,847	0,087	-0,062
-122,453	-85,382	-0,067	0,015
-121,439	-39,554	-0,049	-0,018
-120,424	-20,021	-0,151	-0,067
-119,410	-37,691	0,075	-0,028
-118,395	-133,476	0,060	0,005
-117,380	800,000	-0,059	0,139
-116,366	-200,000	-0,008	0,102
-115,351	-200,000	-0,021	0,094
-114,337	715,268	-0,034	-0,064
-113,322	-72,515	-0,096	0,025
-112,307	-0,577	0,093	0,047
-111,293	88,344	0,100	0,079
-110,278	65,133	-0,069	0,050
-109,264	-97,439	0,109	-0,020
-108,249	800,000	-0,007	-0,017
-107,234	-200,000	-0,014	-0,104
-106,220	-18,667	-0,110	-0,049
-105,205	-158,299	0,049	-0,002
-104,191	800,000	0,022	-0,052
-103,176	59,485	0,152	0,107
-102,162	-86,971	-0,106	-0,023
-101,147	172,665	0,100	-0,103
-100,132	-124,491	-0,020	0,002
-99,118	-200,000	0,041	0,141
-98,103	37,093	0,014	-0,009
-97,089	-200,000	0,004	-0,087
-96,074	-200,000	-0,008	0,166
-95,059	800,000	-0,048	0,111
-94,045	343,878	-0,069	-0,097
-93,030	13,092	-0,139	-0,077
-92,016	-128,711	-0,112	0,011
-91,001	-200,000	-0,001	0,029
-89,986	164,419	-0,018	-0,018
-88,972	25,623	0,058	0,034
-87,957	-20,303	0,027	0,012
-86,943	-101,942	0,138	0,024
-85,928	800,000	0,015	-0,048
-84,913	417,373	-0,017	0,027
-83,899	703,459	0,041	0,078
-82,884	20,077	0,134	0,077
-81,870	369,334	0,062	0,090
-80,855	800,000	-0,008	-0,022
-79,840	-200,000	0,018	0,085
-78,826	-200,000	0,006	-0,055
-77,811	800,000	0,043	0,097
-76,797	-51,223	0,034	0,011
-75,782	-200,000	0,026	-0,091
-74,767	-106,869	0,118	-0,018
-73,753	60,620	0,073	-0,051
-72,738	-200,000	0,013	-0,123
-71,724	-200,000	-0,006	-0,059
-70,709	-200,000	-0,018	0,090
-69,694	102,216	-0,119	-0,099
-68,680	133,695	0,108	-0,100
-67,665	800,000	0,040	-0,120
-66,651	-35,027	0,016	0,006
-65,636	226,261	-0,012	-0,014
-64,622	32,898	0,077	-0,048
-63,607	169,864	0,031	-0,032
-62,592	119,068	0,053	0,047
-61,578	318,432	0,039	-0,053
-60,563	-29,506	0,051	-0,021
-59,549	587,876	-0,052	0,092
-58,534	49,419	-2,468	-1,656
-57,519	800,000	0,234	-0,609
-56,505	-200,000	-1,391	-5,140
-55,490	146,503	0,980	0,940
-54,476	800,000	5,393	12,149
-53,461	-200,000	20,129	327,074
-52,446	800,000	754,774	2307,554
-51,432	533,053	1661,957	2820,608
-50,417	115,292	1634,994	1425,657
-49,403	84,228	1282,157	999,794
-48,388	30,708	1023,108	623,769
-47,373	19,133	986,222	563,385
-46,359	15,420	973,833	544,193
-45,344	11,983	970,440	531,085
-44,330	12,337	968,724	531,277
-43,315	11,628	966,615	527,798
-42,300	11,431	965,641	526,606
-41,286	11,543	964,739	526,457
-40,271	11,498	963,865	525,811
-39,257	11,463	963,125	525,275
-38,242	11,544	962,030	524,918
-37,227	11,478	961,311	524,293
-36,213	11,475	960,375	523,751
-35,198	11,390	959,520	522,988
-34,184	11,507	958,631	522,862
-33,169	11,437	957,789	522,157
-32,154	11,464	956,923	521,752
-31,140	11,494	956,127	521,390
-30,125	11,456	955,254	520,774
-29,111	11,475	954,581	520,446
-28,096	11,519	953,902	520,197
-27,082	11,453	953,227	519,598
-26,067	11,489	952,326	519,200
-25,052	11,460	951,538	518,657
-24,038	11,447	951,188	518,405
-23,023	11,453	950,112	517,817
-22,009	11,526	949,494	517,691
-20,994	11,494	949,137	517,376
-19,979	11,530	948,490	517,116
-18,965	11,426	948,020	516,509
-17,950	11,467	947,342	516,248
-16,936	11,479	946,438	515,775
-15,921	11,465	946,086	515,517
-14,906	11,328	945,266	514,613
-13,892	11,419	944,545	514,492
-12,877	11,304	944,039	513,829
-11,863	11,324	943,171	513,400
-10,848	11,357	942,735	513,247
-9,833	11,432	942,124	513,131
-8,819	11,460	941,514	512,867
-7,804	11,401	940,890	512,322
-6,790	11,363	940,387	511,905
-5,775	11,453	939,749	511,824
-4,760	11,407	939,036	511,270
-3,746	11,429	938,677	511,123
-2,731	11,272	937,911	510,190
-1,717	11,186	937,325	509,581
-0,702	11,236	936,447	509,241
0,313	11,037	935,899	509,086
1,327	14,997	933,999	520,420
2,342	24,973	783,657	462,671
3,356	21,903	440,304	255,442
4,371	-6,881	295,989	143,004
5,386	-10,561	278,088	130,860
6,400	-11,540	272,284	127,209
7,415	-11,602	269,979	126,064
8,429	-11,779	268,233	125,075
9,444	-11,909	267,262	124,493
10,459	-11,848	266,485	124,175
11,473	-12,263	266,106	123,612
12,488	-12,337	265,394	123,203
13,502	-12,435	264,936	122,891
14,517	-12,517	264,314	122,517
15,531	-12,743	264,070	122,190
16,546	-12,653	263,685	122,082
17,561	-12,567	263,093	121,874
18,575	-12,737	262,902	121,622
19,590	-12,509	262,235	121,507
20,604	-12,547	262,242	121,466
21,619	-12,802	261,918	121,077
22,634	-12,664	261,279	120,893
23,648	-12,737	261,022	120,699
24,663	-12,730	260,943	120,657
25,677	-12,685	260,621	120,538
26,692	-12,848	260,343	120,255
27,707	-12,831	260,175	120,182
28,721	-12,888	259,811	119,952
29,736	-12,810	259,590	119,909
30,750	-13,055	259,443	119,613
31,765	-13,005	259,023	119,453
32,780	-12,741	258,813	119,578
33,794	-12,769	258,468	119,383
34,809	-12,835	258,391	119,279
35,823	-12,845	258,038	119,096
36,838	-12,865	257,639	118,884
37,853	-12,857	257,506	118,819
38,867	-12,835	257,183	118,679
39,882	-13,051	257,076	118,430
40,896	-12,591	256,675	118,636
41,911	-12,962	256,679	118,304
42,926	-13,035	256,226	118,021
43,940	-12,972	255,965	117,945
44,955	-13,026	255,921	117,868
45,969	-13,106	255,580	117,630
46,984	-13,136	255,276	117,454
47,999	-13,545	255,073	116,995
49,013	-13,574	254,828	116,848
50,028	-13,512	254,420	116,704
51,042	-13,619	254,194	116,498
52,057	-13,769	253,907	116,226
53,071	-13,649	253,778	116,260
54,086	-13,703	253,778	116,203
55,101	-13,587	253,335	116,090
56,115	-13,369	253,479	116,333
57,130	-12,709	253,383	116,847
58,144	-12,519	253,280	116,951
59,159	-12,382	253,152	116,999
60,174	-12,551	252,791	116,678
61,188	-12,503	252,556	116,600
62,203	-12,624	252,337	116,385
63,217	-12,694	252,159	116,232
64,232	-12,745	251,898	116,058
65,247	-12,638	251,806	116,097
66,261	-12,482	251,437	116,049
67,276	-12,905	251,025	115,489
68,290	-13,031	250,839	115,286
69,305	-13,171	250,673	115,080
70,320	-13,226	250,523	114,954
71,334	-12,887	250,318	115,138
72,349	-12,702	250,319	115,284
73,363	-12,521	250,129	115,341
74,378	-12,488	249,740	115,179
75,393	-12,586	249,585	115,014
76,407	-12,706	249,348	114,794
77,422	-12,877	249,258	114,597
78,436	-12,739	248,988	114,579
79,451	-12,644	248,730	114,531
80,466	-12,805	248,342	114,206
81,480	-13,115	248,178	113,860
82,495	-13,118	248,078	113,801
83,509	-13,056	247,836	113,732
84,524	-13,044	247,648	113,646
85,539	-13,089	247,279	113,429
86,553	-13,226	247,042	113,195
87,568	-13,085	247,020	113,293
88,582	-13,172	246,956	113,181
89,597	-12,892	246,595	113,239
90,611	-12,943	246,483	113,135
91,626	-12,808	246,432	113,213
92,641	-12,889	246,244	113,050
93,655	-12,986	246,022	112,857
94,670	-12,848	245,645	112,789
95,684	-12,693	245,526	112,853
96,699	-12,833	245,317	112,631
97,714	-12,956	245,197	112,463
98,728	-13,271	245,009	112,106
99,743	-13,017	244,601	112,119
100,757	-13,040	244,392	111,994
101,772	-13,208	244,372	111,837
102,787	-12,973	244,054	111,875
103,801	-12,866	243,976	111,917
104,816	-12,887	244,020	111,911
105,830	-12,766	243,767	111,884
106,845	-12,481	243,341	111,913
107,860	-12,792	243,434	111,690
108,874	-12,942	243,151	111,427
109,889	-12,749	242,784	111,407
110,903	-12,974	242,687	111,168
111,918	-12,916	242,464	111,104
112,933	-12,875	242,371	111,085
113,947	-12,790	242,195	111,064
114,962	-12,670	242,053	111,087
115,976	-12,771	241,830	110,892
116,991	-12,899	241,630	110,686
118,006	-12,661	241,457	110,791
119,020	-12,654	241,355	110,740
120,035	-12,737	241,196	110,590
121,049	-12,703	241,126	110,576
122,064	-12,705	240,780	110,405
123,079	-12,617	240,607	110,387
124,093	-12,838	240,386	110,097
125,108	-13,150	240,215	109,755
126,122	-13,282	239,930	109,509
127,137	-13,537	239,839	109,252
128,151	-12,989	239,551	109,553
129,166	-13,226	239,363	109,267
130,181	-13,196	239,210	109,211
131,195	-13,246	238,976	109,054
132,210	-12,911	238,903	109,281
133,224	-12,726	238,917	109,426
134,239	-12,736	238,675	109,298
135,254	-12,507	238,353	109,325
136,268	-12,922	238,229	108,925
137,283	-13,061	237,896	108,652
138,297	-13,048	237,540	108,490
139,312	-13,304	237,463	108,240
140,327	-12,766	237,434	108,647
141,341	-12,329	237,504	109,019
142,356	-12,077	237,303	109,119
143,370	-12,167	237,083	108,936
144,385	-12,059	236,972	108,962
145,400	-12,149	236,914	108,853
146,414	-12,585	236,752	108,422
147,429	-12,475	236,384	108,331
148,443	-12,467	236,223	108,254
149,458	-12,450	236,111	108,207
150,473	-12,225	235,866	108,263
151,487	-12,491	235,667	107,951
152,502	-12,454	235,565	107,924
153,516	-12,235	235,362	107,995
154,531	-12,100	235,200	108,018
155,546	-12,544	235,118	107,619
156,560	-12,373	234,850	107,622
157,575	-12,476	234,613	107,423
158,589	-12,445	234,421	107,349
159,604	-12,358	234,399	107,398
160,619	-12,212	234,247	107,434
161,633	-12,266	233,980	107,260
162,648	-12,189	233,930	107,288
163,662	-12,448	233,734	106,985
164,677	-12,482	233,701	106,933
165,692	-12,368	233,333	106,845
166,706	-12,171	233,399	107,020
167,721	-12,167	233,242	106,942
168,735	-12,196	233,218	106,899
169,750	-12,197	232,872	106,729
170,764	-12,272	232,734	106,598
171,779	-12,150	232,601	106,623
172,794	-12,310	232,556	106,468
173,808	-12,417	232,214	106,219
174,823	-12,914	231,813	105,639
175,837	-13,084	231,588	105,394
176,852	-12,611	231,769	105,836
177,867	-12,266	231,542	105,990
178,881	-12,534	231,487	105,748
179,896	-12,255	231,328	105,882
180,910	-12,434	231,318	105,729
181,925	-12,277	230,983	105,688
182,940	-12,102	230,818	105,739
183,954	-12,190	230,643	105,581
184,969	-12,124	230,619	105,612
185,983	-12,235	230,434	105,432
186,998	-12,030	230,208	105,477
188,013	-12,035	229,991	105,365
189,027	-12,069	230,007	105,337
190,042	-12,237	229,758	105,084
191,056	-12,052	229,581	105,136
192,071	-11,854	229,379	105,186
193,086	-12,150	229,448	104,981
194,100	-11,744	229,219	105,179
195,115	-11,660	229,019	105,142
196,129	-10,538	229,263	106,107
197,144	-5,176	231,076	111,082
198,159	-0,160	232,651	115,723
199,173	2,264	233,395	117,966
200,188	2,613	233,305	118,181
201,202	2,771	233,122	118,200
202,217	2,965	233,126	118,342
203,232	3,190	233,003	118,443
204,246	3,311	232,826	118,436
205,261	3,539	232,666	118,521
206,275	3,900	232,396	118,651
207,290	3,881	232,286	118,570
208,304	3,634	232,174	118,311
209,319	3,371	232,217	118,120
210,334	3,541	231,773	118,014
211,348	3,213	231,659	117,694
212,363	2,774	231,333	117,180
213,377	2,741	231,157	117,055
214,392	2,499	230,982	116,771
215,407	2,736	230,828	116,864
216,421	2,891	230,786	116,951
217,436	2,828	230,502	116,749
218,450	2,460	230,232	116,320
219,465	2,416	230,093	116,206
220,480	2,532	230,004	116,240
221,494	2,671	229,930	116,297
222,509	2,655	229,974	116,297
223,523	2,852	229,790	116,344
224,538	2,724	229,436	116,057
225,553	2,999	229,255	116,164
226,567	2,636	229,409	115,956
227,582	3,024	229,302	116,186
228,596	3,046	229,081	116,081
229,611	2,957	228,767	115,844
230,626	2,540	228,438	115,351
231,640	2,679	228,444	115,449
232,655	2,834	228,363	115,515
233,669	3,188	228,364	115,773
234,684	3,316	228,190	115,771
235,699	3,192	228,013	115,578
236,713	2,815	227,815	115,182
237,728	2,980	227,507	115,141
238,742	2,594	227,405	114,788
239,757	2,806	227,303	114,885
240,772	2,922	227,120	114,871
241,786	2,631	227,014	114,588
242,801	2,827	226,975	114,705
243,815	3,195	226,793	114,879
244,830	3,140	226,621	114,740
245,844	2,668	226,459	114,295
246,859	2,775	226,194	114,231
247,874	2,886	226,245	114,329
248,888	2,856	226,100	114,223
249,903	2,871	225,882	114,114
250,917	2,917	225,619	114,006
251,932	2,791	225,523	113,853
252,947	2,726	225,432	113,749
253,961	2,616	225,234	113,557
254,976	2,722	224,976	113,495
255,990	2,902	225,063	113,663
257,005	3,100	225,012	113,774
258,020	3,180	224,779	113,706
259,034	2,810	224,720	113,391
260,049	3,067	224,513	113,467
261,063	3,119	224,378	113,427
262,078	3,030	224,296	113,310
263,093	3,133	224,102	113,278
264,107	3,067	223,940	113,137
265,122	2,861	223,849	112,929
266,136	3,041	223,749	113,001
267,151	3,070	223,504	112,888
268,166	2,697	223,272	112,487
269,180	2,739	222,902	112,321
270,195	2,551	222,856	112,149
271,209	2,456	222,807	112,045
272,224	2,685	222,637	112,117
273,239	2,667	222,492	112,021
274,253	2,848	222,378	112,087
275,268	2,699	222,186	111,871
276,282	2,693	221,940	111,732
277,297	2,631	221,821	111,617
278,312	2,582	221,879	111,601
279,326	2,786	221,807	111,704
280,341	2,756	221,528	111,531
281,355	2,777	221,334	111,439
282,370	2,803	221,191	111,376
283,384	2,455	221,023	111,028
284,399	2,474	220,976	111,009
285,414	2,494	220,766	110,907
286,428	2,791	220,748	111,104
287,443	3,049	220,527	111,171
288,457	2,694	220,533	110,906
289,472	2,740	220,189	110,757
290,487	2,155	219,956	110,205
291,501	2,301	219,810	110,228
292,516	2,259	219,661	110,113
293,530	2,465	219,578	110,211
294,545	2,636	219,410	110,241
295,560	2,786	219,355	110,311
296,574	2,950	219,142	110,313
297,589	2,732	219,176	110,163
298,603	2,891	218,999	110,179
299,618	2,825	218,843	110,043
300,633	2,931	218,680	110,028
301,647	3,195	218,544	110,139
302,662	2,972	218,499	109,946
303,676	2,874	218,305	109,768
304,691	2,883	218,300	109,763
305,706	3,117	218,020	109,780
306,720	3,122	217,882	109,704
307,735	2,626	217,732	109,263
308,749	2,573	217,570	109,135
309,764	2,924	217,351	109,266
310,779	3,066	217,408	109,387
311,793	2,850	217,158	109,097
312,808	2,877	217,187	109,120
313,822	2,847	216,849	108,919
314,837	2,788	216,842	108,865
315,852	2,873	216,453	108,720
316,866	2,708	216,447	108,590
317,881	2,840	216,380	108,640
318,895	2,922	216,239	108,618
319,910	2,752	215,958	108,347
320,925	2,579	215,782	108,125
321,939	2,343	215,573	107,844
322,954	2,597	215,502	107,979
323,968	3,032	215,573	108,313
324,983	2,903	215,402	108,126
325,997	3,063	215,294	108,175
327,012	2,917	215,047	107,939
328,027	3,241	214,862	108,065
329,041	3,072	215,010	108,010
330,056	3,237	214,745	107,984
331,070	2,485	214,735	107,439
332,085	2,649	214,266	107,310
333,100	2,335	214,097	106,995
334,114	2,691	213,912	107,143
335,129	2,788	214,013	107,252
336,143	2,628	213,899	107,073
337,158	2,735	213,845	107,111
338,173	3,060	213,638	107,227
339,187	2,810	213,377	106,911
340,202	2,484	213,210	106,589
341,216	2,643	213,025	106,599
342,231	2,823	212,973	106,689
343,246	2,684	212,971	106,581
344,260	2,729	212,799	106,517
345,275	2,753	212,747	106,498
346,289	3,037	212,580	106,604
347,304	2,804	212,431	106,357
348,319	2,838	212,282	106,297
349,333	2,970	212,102	106,289
350,348	2,755	212,025	106,091
351,362	2,990	211,905	106,185
352,377	2,924	211,926	106,140
353,392	2,775	211,606	105,867
354,406	3,108	211,473	106,022
355,421	197,848	1331,587	1409,095
356,435	158,170	1467,959	1408,973
