DTS Sentinel unit serial number:	SN410029Multiplexer serial number:	ORYXHardware model number:	OX2-SRSoftware version number:	ORYX F/W v4,00 Oryx Data Collector v3.7.2.0data status	okinstallation	B6 Nyhavnadifferential loss correction	single-endedforward channel	channel 2reverse channel	N/Adate	2023/12/09time	04:00:08forward acquisition time	300,00reverse acquisition time	0,00gamma	499,1914k internal	0,3151k external	0,3151temperature offset calibration	1,0000default loss term (dB/km)	0,3820temperature slope calibration	1,0000multiplexer offset coefficient	1,0000multiplexer slope coefficient	1,0000fibre end	0,00T internal ref (°C)	16,67T ext. ref 1 (°C)	1,03T ext. ref 2 (°C)	1,03length (m)	temperature (°C)	Stokes	anti-Stokes-744,400	-200,000	-0,020	-0,094
-743,385	-98,977	-0,279	-0,052
-742,371	520,422	0,092	-0,160
-741,356	-109,167	-0,281	0,044
-740,342	-144,403	0,183	0,012
-739,327	-55,545	-0,340	0,112
-738,312	-59,902	0,109	0,034
-737,298	-126,453	-0,376	-0,041
-736,283	5,600	0,047	-0,025
-735,269	-67,037	-0,273	0,079
-734,254	-107,234	0,057	-0,009
-733,239	-34,999	-0,465	-0,186
-732,225	11,387	0,146	0,083
-731,210	-200,000	0,044	0,278
-730,196	800,000	0,016	-0,042
-729,181	39,917	-0,047	-0,031
-728,167	-112,762	0,094	-0,014
-727,152	-12,981	-0,218	-0,104
-726,137	499,945	-0,055	-0,094
-725,123	800,000	-0,050	0,142
-724,108	487,069	-0,038	-0,065
-723,094	-66,174	-0,188	-0,055
-722,079	158,041	0,033	-0,034
-721,064	-200,000	-0,032	-0,105
-720,050	-73,935	-0,062	0,017
-719,035	34,891	-0,111	0,072
-718,021	-200,000	0,004	-0,085
-717,006	-114,703	-0,035	-0,005
-715,991	-166,251	-0,193	-0,006
-714,977	800,000	0,033	0,070
-713,962	-113,341	0,134	0,019
-712,948	-152,149	0,047	-0,002
-711,933	-200,000	0,016	0,084
-710,918	-42,019	-0,118	-0,044
-709,904	72,419	0,070	0,054
-708,889	-127,353	-0,137	0,015
-707,875	-200,000	-0,028	-0,179
-706,860	800,000	0,042	-0,133
-705,845	-182,771	-0,137	-0,002
-704,831	800,000	0,031	0,092
-703,816	800,000	0,033	-0,089
-702,802	-189,086	-0,050	-0,000
-701,787	51,723	-0,095	-0,066
-700,772	-200,000	-0,003	-0,093
-699,758	-71,107	0,106	-0,029
-698,743	800,000	-0,025	0,079
-697,729	0,936	-0,106	-0,056
-696,714	-67,330	0,125	-0,036
-695,699	256,348	0,087	-0,111
-694,685	800,000	0,017	0,043
-693,670	58,931	0,075	0,055
-692,656	-200,000	-0,016	-0,083
-691,641	354,364	-0,023	-0,034
-690,627	75,233	-0,092	0,072
-689,612	423,242	-0,056	-0,089
-688,597	-200,000	0,003	-0,095
-687,583	-200,000	-0,001	-0,158
-686,568	257,153	-0,066	-0,084
-685,554	14,621	-0,164	-0,094
-684,539	160,516	-0,117	-0,120
-683,524	153,114	0,042	-0,042
-682,510	-200,000	0,006	-0,062
-681,495	-200,000	-0,005	-0,018
-680,481	-28,417	-0,078	0,033
-679,466	-200,000	-0,015	-0,142
-678,451	486,483	-0,069	-0,117
-677,437	800,000	0,012	-0,037
-676,422	-200,000	-0,017	-0,121
-675,408	100,325	0,065	0,056
-674,393	30,888	-0,083	-0,052
-673,378	208,494	-0,108	-0,124
-672,364	-112,697	0,069	0,010
-671,349	-200,000	-0,017	-0,131
-670,335	-200,000	0,006	0,065
-669,320	-142,897	0,126	0,009
-668,305	-200,000	-0,041	0,162
-667,291	305,096	-0,027	0,038
-666,276	-200,000	-0,013	0,127
-665,262	800,000	-0,037	-0,101
-664,247	354,492	-0,058	-0,085
-663,232	313,191	0,039	-0,054
-662,218	-200,000	0,003	0,000
-661,203	-87,852	-0,115	-0,025
-660,189	58,409	-0,113	0,081
-659,174	49,642	-0,066	-0,046
-658,159	313,150	-0,020	-0,028
-657,145	-11,569	-0,143	-0,069
-656,130	-167,343	0,171	-0,005
-655,116	68,859	0,045	0,034
-654,101	-200,000	0,008	0,079
-653,086	-25,642	-0,097	0,042
-652,072	70,095	-0,052	-0,039
-651,057	-165,349	-0,186	-0,006
-650,043	-200,000	-0,029	-0,151
-649,028	-200,000	0,009	-0,033
-648,014	-200,000	-0,024	0,085
-646,999	59,201	-0,058	-0,042
-645,984	-145,456	-0,149	-0,010
-644,970	166,576	-0,060	-0,062
-643,955	474,892	-0,034	-0,056
-642,941	404,924	-0,090	-0,140
-641,926	-200,000	-0,013	0,054
-640,911	-165,937	0,191	-0,006
-639,897	-200,000	-0,041	-0,197
-638,882	88,746	0,054	-0,044
-637,868	111,970	0,105	0,093
-636,853	-52,293	-0,106	0,036
-635,838	-23,816	-0,064	-0,028
-634,824	-200,000	0,012	-0,091
-633,809	-97,596	-0,019	0,004
-632,795	-145,545	0,210	0,014
-631,780	396,078	0,035	0,054
-630,765	-139,737	-0,046	-0,004
-629,751	-200,000	-0,040	0,148
-628,736	-200,000	0,016	-0,118
-627,722	800,000	0,059	-0,161
-626,707	-100,255	0,030	0,005
-625,692	55,729	-0,036	0,026
-624,678	-117,714	-0,083	0,011
-623,663	188,521	0,038	-0,042
-622,649	-28,502	-0,119	-0,050
-621,634	-91,817	-0,067	-0,014
-620,619	800,000	-0,054	0,138
-619,605	-137,893	-0,045	-0,004
-618,590	800,000	0,017	0,044
-617,576	-106,682	0,055	0,009
-616,561	-151,589	-0,157	-0,008
-615,546	-54,615	0,095	-0,031
-614,532	-96,454	-0,114	-0,022
-613,517	-102,708	-0,065	-0,011
-612,503	48,465	0,115	-0,079
-611,488	-1,092	0,054	0,028
-610,474	-200,000	0,002	0,162
-609,459	-90,294	-0,019	0,004
-608,444	717,873	-0,026	0,052
-607,430	314,320	-0,056	-0,077
-606,415	800,000	-0,031	-0,077
-605,401	109,385	0,034	0,030
-604,386	-200,000	-0,005	0,019
-603,371	800,000	-0,027	0,071
-602,357	-200,000	-0,024	0,126
-601,342	-130,253	-0,106	-0,010
-600,328	-200,000	-0,017	-0,118
-599,313	-200,000	0,041	-0,164
-598,298	800,000	0,020	0,042
-597,284	140,639	-0,063	0,061
-596,269	-145,219	0,078	-0,005
-595,255	800,000	0,021	0,067
-594,240	40,284	0,064	-0,042
-593,225	-200,000	0,019	-0,098
-592,211	-47,588	-0,195	-0,069
-591,196	28,389	0,095	-0,059
-590,182	-91,260	0,129	0,027
-589,167	69,382	-0,106	0,080
-588,152	-50,666	0,053	0,018
-587,138	-200,000	-0,003	0,023
-586,123	-200,000	-0,043	-0,149
-585,109	-17,777	0,190	-0,087
-584,094	227,301	-0,013	-0,015
-583,079	21,728	0,088	-0,052
-582,065	800,000	0,005	-0,014
-581,050	-54,980	0,145	0,048
-580,036	8,747	0,073	-0,040
-579,021	40,103	-0,159	-0,105
-578,006	319,169	-0,017	-0,024
-576,992	-200,000	0,002	-0,150
-575,977	-200,000	0,014	-0,086
-574,963	-200,000	0,008	-0,038
-573,948	800,000	0,019	0,050
-572,934	-132,791	-0,028	0,003
-571,919	-200,000	0,033	-0,147
-570,904	-47,048	-0,052	-0,018
-569,890	-200,000	-0,009	-0,096
-568,875	-88,662	0,041	0,009
-567,861	141,374	0,071	-0,069
-566,846	800,000	-0,050	0,142
-565,831	-72,551	0,102	0,027
-564,817	-42,518	-0,213	0,079
-563,802	-98,129	-0,213	0,040
-562,788	-52,609	0,022	0,007
-561,773	-78,905	0,053	0,013
-560,758	129,402	-0,009	-0,008
-559,744	534,995	0,046	0,080
-558,729	-200,000	-0,023	-0,086
-557,715	-73,372	-0,165	0,044
-556,700	800,000	0,036	0,109
-555,685	800,000	-0,004	-0,009
-554,671	-200,000	0,010	-0,071
-553,656	744,854	-0,042	-0,083
-552,642	530,832	0,044	0,077
-551,627	-200,000	0,006	0,047
-550,612	290,423	-0,102	-0,137
-549,598	-160,547	0,080	0,003
-548,583	308,040	-0,019	-0,025
-547,569	600,380	0,103	0,188
-546,554	-28,616	0,058	0,024
-545,539	186,349	-0,041	0,045
-544,525	-200,000	0,008	-0,052
-543,510	93,479	0,066	0,055
-542,496	232,890	-0,066	-0,080
-541,481	710,409	0,030	-0,059
-540,466	276,627	0,075	0,097
-539,452	-200,000	0,002	-0,038
-538,437	-92,909	0,039	0,008
-537,423	359,868	-0,076	-0,112
-536,408	-19,585	-0,062	0,028
-535,393	-68,879	0,028	0,008
-534,379	-118,580	-0,063	0,008
-533,364	668,928	-0,075	-0,144
-532,350	-200,000	-0,001	-0,087
-531,335	88,368	0,132	-0,108
-530,321	-83,909	-0,158	0,037
-529,306	662,531	-0,056	0,107
-528,291	-200,000	-0,005	-0,152
-527,277	-200,000	0,004	-0,297
-526,262	105,228	0,028	-0,024
-525,248	-63,733	-0,069	0,021
-524,233	-200,000	-0,008	0,112
-523,218	800,000	-0,028	-0,086
-522,204	-200,000	0,006	0,040
-521,189	800,000	-0,049	0,111
-520,175	-23,241	0,063	0,027
-519,160	-200,000	-0,008	0,055
-518,145	193,828	0,052	-0,058
-517,131	179,918	0,049	-0,052
-516,116	-104,260	0,048	0,008
-515,102	-200,000	-0,018	0,067
-514,087	-49,396	0,016	0,006
-513,072	-86,039	-0,141	0,032
-512,058	800,000	0,052	-0,114
-511,043	-70,744	0,071	-0,019
-510,029	-200,000	-0,013	0,148
-509,014	-69,423	0,028	-0,008
-507,999	-171,232	-0,108	0,003
-506,985	-200,000	-0,010	0,034
-505,970	-5,369	-0,093	-0,046
-504,956	800,000	0,028	-0,077
-503,941	-200,000	-0,007	0,026
-502,926	497,478	0,053	0,089
-501,912	-200,000	0,003	-0,199
-500,897	-58,004	0,140	0,044
-499,883	-123,490	0,090	0,010
-498,868	133,439	-0,078	0,074
-497,853	6,528	-0,033	-0,018
-496,839	45,523	0,093	-0,063
-495,824	-200,000	0,000	-0,013
-494,810	153,733	0,112	0,112
-493,795	-38,773	0,070	0,027
-492,781	800,000	-0,041	0,122
-491,766	-200,000	0,007	-0,071
-490,751	-200,000	-0,002	-0,082
-489,737	-95,951	0,088	-0,017
-488,722	-34,269	0,150	-0,060
-487,708	51,303	0,050	0,035
-486,693	-200,000	0,018	-0,101
-485,678	800,000	-0,015	-0,046
-484,664	-200,000	0,010	-0,092
-483,649	-200,000	-0,005	0,052
-482,635	225,928	-0,049	-0,058
-481,620	-135,419	0,128	-0,011
-480,605	800,000	0,036	0,088
-479,591	-34,309	0,193	0,077
-478,576	4,834	0,045	-0,024
-477,562	-93,132	-0,072	-0,015
-476,547	-200,000	-0,018	-0,105
-475,532	-200,000	-0,011	0,058
-474,518	-124,290	-0,030	0,003
-473,503	9,505	0,120	-0,066
-472,489	-200,000	0,014	-0,087
-471,474	-200,000	-0,010	-0,042
-470,459	-181,916	-0,211	-0,003
-469,445	94,351	-0,069	-0,057
-468,430	-200,000	0,018	0,065
-467,416	-112,123	-0,106	0,015
-466,401	-88,480	0,109	-0,023
-465,386	50,562	-0,112	0,078
-464,372	-61,607	-0,149	-0,046
-463,357	183,101	-0,060	-0,065
-462,343	-200,000	0,029	-0,117
-461,328	570,351	-0,036	-0,065
-460,313	81,505	-0,112	0,089
-459,299	-46,969	0,041	-0,015
-458,284	-200,000	0,012	0,057
-457,270	102,546	0,030	0,026
-456,255	-54,118	-0,159	0,053
-455,241	70,674	0,020	-0,015
-454,226	79,523	-0,064	0,050
-453,211	-139,265	0,077	-0,006
-452,197	740,541	0,028	0,055
-451,182	-200,000	0,023	0,200
-450,168	384,600	0,054	0,082
-449,153	22,326	-0,082	-0,049
-448,138	-200,000	0,022	-0,147
-447,124	-200,000	0,018	-0,073
-446,109	276,874	0,101	-0,132
-445,095	210,883	0,062	0,071
-444,080	441,439	0,016	0,025
-443,065	177,608	-0,006	-0,007
-442,051	47,592	-0,128	0,087
-441,036	133,496	0,062	0,059
-440,022	-148,849	0,068	0,004
-439,007	209,384	-0,096	0,110
-437,992	257,567	-0,072	0,091
-436,978	30,574	0,101	-0,063
-435,963	386,350	-0,049	0,073
-434,949	128,245	-0,170	0,158
-433,934	193,721	-0,068	-0,076
-432,919	-137,856	0,011	0,001
-431,905	33,190	0,074	0,047
-430,890	-16,568	-0,048	0,022
-429,876	204,729	0,063	0,071
-428,861	-88,945	0,042	0,009
-427,846	222,907	-0,113	-0,133
-426,832	-200,000	-0,025	0,125
-425,817	-121,579	-0,028	-0,003
-424,803	97,897	-0,087	0,073
-423,788	-200,000	0,018	-0,108
-422,773	-68,889	0,120	0,034
-421,759	220,902	0,043	-0,051
-420,744	-140,160	0,072	0,005
-419,730	233,155	-0,063	-0,076
-418,715	39,560	-0,070	0,045
-417,701	800,000	0,018	-0,054
-416,686	-76,459	0,019	0,005
-415,671	654,875	-0,027	0,050
-414,657	-115,677	-0,060	-0,008
-413,642	-200,000	0,004	0,065
-412,628	-1,126	-0,050	0,026
-411,613	98,841	0,037	-0,031
-410,598	10,542	-0,161	-0,089
-409,584	-37,631	-0,113	0,044
-408,569	800,000	0,086	0,210
-407,555	172,358	0,029	-0,031
-406,540	-67,511	0,103	-0,029
-405,525	-43,884	-0,126	-0,046
-404,511	-8,932	-0,086	-0,042
-403,496	-150,554	0,123	-0,007
-402,482	-127,128	0,145	0,015
-401,467	-0,611	-0,090	0,046
-400,452	-122,151	-0,063	0,007
-399,438	800,000	0,028	-0,091
-398,423	-124,175	0,094	0,011
-397,409	-135,003	-0,084	-0,007
-396,394	-75,662	0,109	0,028
-395,379	-200,000	0,004	-0,045
-394,365	-200,000	-0,001	0,011
-393,350	286,155	0,070	-0,092
-392,336	800,000	-0,050	0,122
-391,321	-37,408	0,028	-0,011
-390,306	-200,000	-0,006	0,057
-389,292	800,000	0,011	0,034
-388,277	-200,000	0,017	-0,107
-387,263	800,000	0,031	-0,097
-386,248	45,164	0,105	0,070
-385,233	177,090	-0,127	0,135
-384,219	-120,999	-0,081	-0,010
-383,204	-200,000	-0,006	-0,087
-382,190	85,196	0,020	-0,016
-381,175	800,000	-0,078	0,159
-380,160	-200,000	0,005	0,120
-379,146	-200,000	0,007	0,175
-378,131	94,824	-0,067	0,056
-377,117	-65,761	0,075	-0,022
-376,102	35,072	0,107	-0,068
-375,088	-54,037	-0,061	-0,020
-374,073	-129,576	-0,061	-0,006
-373,058	0,679	0,128	0,066
-372,044	448,275	0,098	-0,159
-371,029	-200,000	0,001	0,110
-370,015	-200,000	0,014	0,062
-369,000	-200,000	-0,001	0,009
-367,985	-3,656	-0,148	-0,075
-366,971	70,129	0,143	0,107
-365,956	24,880	0,084	0,050
-364,942	-200,000	-0,001	0,025
-363,927	-140,197	0,067	-0,005
-362,912	800,000	-0,044	0,089
-361,898	-200,000	0,003	-0,014
-360,883	118,944	-0,103	0,093
-359,869	128,507	0,040	0,037
-358,854	-97,780	0,121	0,023
-357,839	129,736	0,039	-0,036
-356,825	21,652	0,071	-0,042
-355,810	91,612	-0,016	0,013
-354,796	-174,874	-0,192	0,004
-353,781	-48,958	-0,116	-0,040
-352,766	122,820	-0,102	-0,093
-351,752	-107,753	0,160	-0,025
-350,737	137,439	0,026	0,025
-349,723	-200,000	-0,014	0,061
-348,708	-200,000	0,007	-0,028
-347,693	-200,000	-0,038	-0,172
-346,679	800,000	0,006	0,018
-345,664	-25,282	-0,154	0,066
-344,650	41,042	0,021	0,014
-343,635	180,635	0,045	0,049
-342,620	685,036	0,022	0,041
-341,606	-7,855	-0,021	-0,010
-340,591	181,814	0,044	-0,047
-339,577	63,890	-0,078	0,057
-338,562	528,031	-0,032	-0,055
-337,548	-181,714	0,064	0,001
-336,533	-16,955	0,209	0,095
-335,518	-200,000	0,029	0,096
-334,504	-200,000	0,032	0,121
-333,489	410,586	-0,061	-0,094
-332,475	-200,000	0,013	-0,109
-331,460	109,603	0,206	-0,179
-330,445	66,395	-0,036	0,027
-329,431	-200,000	0,009	0,117
-328,416	76,562	0,078	0,060
-327,402	-133,500	0,047	-0,004
-326,387	800,000	-0,024	0,057
-325,372	-200,000	0,003	0,027
-324,358	-158,917	-0,124	0,005
-323,343	800,000	0,053	0,110
-322,329	44,011	0,055	0,037
-321,314	163,138	-0,015	0,015
-320,299	65,355	-0,024	-0,018
-319,285	-136,016	-0,036	0,003
-318,270	765,477	0,037	-0,074
-317,256	60,185	-0,116	-0,083
-316,241	390,559	-0,118	0,178
-315,226	208,140	0,101	-0,115
-314,212	-52,867	0,089	0,030
-313,197	-40,038	0,090	-0,034
-312,183	-50,704	-0,135	-0,046
-311,168	-145,639	-0,068	0,004
-310,153	-123,703	-0,145	-0,016
-309,139	800,000	-0,015	-0,039
-308,124	-41,730	0,161	0,060
-307,110	238,221	0,024	0,029
-306,095	153,305	0,052	0,052
-305,080	797,917	0,010	0,020
-304,066	-148,457	-0,099	-0,006
-303,051	100,402	-0,004	0,003
-302,037	-200,000	-0,007	-0,065
-301,022	-200,000	-0,011	-0,148
-300,008	739,859	0,046	0,090
-298,993	800,000	0,029	0,087
-297,978	348,791	-0,081	-0,117
-296,964	339,604	0,044	0,062
-295,949	16,249	-0,126	-0,072
-294,935	357,192	0,020	0,029
-293,920	-200,000	-0,001	0,017
-292,905	32,592	-0,053	0,033
-291,891	458,871	0,051	0,082
-290,876	-200,000	0,001	-0,018
-289,862	-157,920	0,153	-0,006
-288,847	-200,000	-0,024	-0,111
-287,832	335,199	-0,090	-0,126
-286,818	-200,000	0,018	0,068
-285,803	292,402	-0,026	-0,035
-284,789	-111,434	0,069	0,010
-283,774	-200,000	-0,006	0,107
-282,759	145,232	0,054	-0,052
-281,745	800,000	-0,013	-0,027
-280,730	-200,000	-0,001	-0,069
-279,716	-79,264	0,109	-0,027
-278,701	-200,000	-0,041	0,140
-277,686	47,694	-0,067	0,046
-276,672	-200,000	0,015	0,049
-275,657	137,785	0,040	0,038
-274,643	62,761	-0,073	-0,053
-273,628	242,268	-0,021	0,025
-272,613	-155,690	0,040	-0,002
-271,599	124,379	0,029	-0,026
-270,584	415,694	0,006	-0,010
-269,570	-134,710	0,076	-0,007
-268,555	-78,046	-0,081	-0,020
-267,540	-70,949	-0,118	-0,032
-266,526	800,000	-0,046	-0,134
-265,511	-156,126	0,068	-0,003
-264,497	19,838	0,050	-0,029
-263,482	-161,701	0,141	-0,005
-262,467	-200,000	-0,028	-0,121
-261,453	30,583	0,066	0,041
-260,438	-65,297	-0,136	0,039
-259,424	-150,209	0,015	-0,001
-258,409	800,000	0,029	-0,075
-257,395	90,463	0,071	0,058
-256,380	35,251	0,011	-0,007
-255,365	-200,000	-0,011	0,120
-254,351	387,729	0,014	-0,021
-253,336	234,214	-0,028	-0,034
-252,322	69,847	0,050	-0,037
-251,307	701,280	-0,075	-0,144
-250,292	31,639	0,068	0,042
-249,278	-156,296	0,190	-0,008
-248,263	233,020	0,055	0,066
-247,249	-9,295	-0,179	0,086
-246,234	259,928	-0,050	0,063
-245,219	-3,095	0,028	-0,014
-244,205	-1,601	0,061	0,031
-243,190	450,154	-0,041	0,065
-242,176	-109,836	0,108	0,016
-241,161	-138,901	-0,062	0,005
-240,146	-21,613	-0,077	0,034
-239,132	-119,744	-0,073	-0,009
-238,117	144,863	-0,084	-0,081
-237,103	60,386	-0,099	-0,071
-236,088	750,921	-0,070	-0,138
-235,073	-76,240	0,024	-0,006
-234,059	585,491	-0,022	0,039
-233,044	32,308	0,087	-0,054
-232,030	214,443	-0,047	0,054
-231,015	-200,000	-0,003	-0,010
-230,000	-200,000	0,001	-0,092
-228,986	499,965	-0,072	-0,120
-227,971	541,767	0,065	0,113
-226,957	-200,000	0,053	0,180
-225,942	-25,789	0,142	0,060
-224,927	-200,000	0,039	0,159
-223,913	-22,153	-0,030	-0,013
-222,898	211,255	0,073	-0,083
-221,884	691,294	0,002	-0,004
-220,869	561,763	0,021	-0,036
-219,855	4,189	-0,139	0,073
-218,840	326,937	-0,018	-0,026
-217,825	64,529	0,050	-0,036
-216,811	54,123	-0,074	-0,051
-215,796	231,511	0,086	-0,103
-214,782	85,849	0,134	0,107
-213,767	-26,457	0,034	0,014
-212,752	800,000	-0,028	-0,057
-211,738	389,139	0,032	0,047
-210,723	117,983	0,036	0,032
-209,709	52,675	-0,029	0,020
-208,694	-200,000	0,015	-0,066
-207,679	-100,976	-0,145	-0,026
-206,665	800,000	-0,042	0,108
-205,650	-200,000	-0,006	0,087
-204,636	-33,716	-0,041	-0,016
-203,621	-133,024	0,117	0,011
-202,606	338,563	0,071	-0,100
-201,592	-109,783	-0,142	-0,021
-200,577	800,000	-0,046	-0,093
-199,563	242,120	0,043	0,052
-198,548	478,858	0,012	-0,020
-197,533	171,334	0,128	0,133
-196,519	68,963	0,010	-0,008
-195,504	-146,161	-0,048	-0,003
-194,490	800,000	-0,015	-0,042
-193,475	552,658	-0,041	-0,072
-192,460	800,000	-0,029	-0,090
-191,446	-79,432	0,122	-0,030
-190,431	-20,402	0,112	0,050
-189,417	189,435	-0,101	-0,110
-188,402	-0,918	0,106	0,054
-187,387	228,195	-0,061	-0,072
-186,373	-41,669	-0,065	-0,024
-185,358	124,745	-0,087	-0,079
-184,344	-54,144	0,013	-0,004
-183,329	193,453	0,026	0,029
-182,315	636,544	0,018	-0,032
-181,300	-112,481	0,061	-0,009
-180,285	-50,373	-0,132	-0,045
-179,271	-200,000	-0,021	0,112
-178,256	184,625	0,056	0,060
-177,242	-107,501	0,103	0,016
-176,227	-58,435	-0,014	-0,004
-175,212	-2,486	0,035	-0,017
-174,198	800,000	-0,039	0,089
-173,183	-200,000	-0,029	-0,111
-172,169	-200,000	-0,035	-0,120
-171,154	-200,000	0,003	-0,060
-170,139	-165,604	0,012	-0,000
-169,125	152,152	0,102	0,101
-168,110	-200,000	-0,004	0,018
-167,096	-33,850	-0,018	-0,007
-166,081	172,150	0,102	0,106
-165,066	-118,384	-0,252	-0,032
-164,052	-155,854	-0,025	0,001
-163,037	800,000	0,050	0,114
-162,023	800,000	0,054	0,137
-161,008	178,441	0,035	0,037
-159,993	800,000	0,052	0,131
-158,979	740,980	-0,032	-0,063
-157,964	135,089	-0,031	0,029
-156,950	-200,000	-0,000	0,141
-155,935	-200,000	-0,006	0,152
-154,920	56,353	-0,057	0,040
-153,906	141,976	0,099	0,094
-152,891	-84,956	-0,090	0,020
-151,877	44,055	0,082	-0,054
-150,862	-114,706	-0,063	0,009
-149,847	-148,915	0,172	-0,010
-148,833	230,214	0,052	0,062
-147,818	-56,769	0,087	0,027
-146,804	56,320	0,016	-0,011
-145,789	-11,537	0,022	-0,010
-144,775	-8,482	-0,072	-0,035
-143,760	68,522	-0,122	-0,090
-142,745	-151,001	0,077	0,004
-141,731	212,446	-0,051	0,058
-140,716	179,423	0,094	0,099
-139,702	-97,874	0,057	-0,011
-138,687	66,431	-0,076	-0,056
-137,672	-43,163	-0,135	0,049
-136,658	459,747	-0,123	-0,198
-135,643	277,138	-0,068	-0,088
-134,629	143,322	-0,042	-0,040
-133,614	120,347	0,065	-0,058
-132,599	-43,465	-0,073	0,026
-131,585	-200,000	0,026	0,137
-130,570	-200,000	-0,008	-0,093
-129,556	55,189	-0,119	0,083
-128,541	229,584	0,048	0,057
-127,526	-200,000	-0,035	-0,143
-126,512	597,343	-0,123	-0,220
-125,497	99,095	0,104	-0,087
-124,483	147,049	-0,056	-0,054
-123,468	-200,000	-0,025	-0,154
-122,453	247,276	-0,034	-0,041
-121,439	102,813	-0,076	0,064
-120,424	-200,000	-0,041	0,131
-119,410	-43,259	-0,162	-0,059
-118,395	199,905	0,047	-0,052
-117,380	-148,629	0,070	-0,004
-116,366	274,584	0,047	0,060
-115,351	566,872	-0,087	-0,154
-114,337	82,376	0,014	-0,011
-113,322	-194,295	-0,200	0,001
-112,307	-200,000	0,015	0,064
-111,293	27,511	0,106	-0,064
-110,278	-46,921	0,067	-0,024
-109,264	800,000	-0,027	-0,066
-108,249	-200,000	-0,005	-0,047
-107,234	-88,961	-0,075	0,016
-106,220	-85,416	-0,094	-0,021
-105,205	347,348	0,034	0,048
-104,191	345,105	0,039	-0,056
-103,176	11,284	-0,121	-0,066
-102,162	14,561	0,040	-0,022
-101,147	-136,473	-0,096	-0,008
-100,132	-22,659	-0,116	0,050
-99,118	-200,000	0,011	0,124
-98,103	-200,000	0,011	-0,082
-97,089	129,295	-0,059	-0,054
-96,074	-140,587	0,067	-0,005
-95,059	68,945	-0,005	0,004
-94,045	-96,759	-0,109	-0,021
-93,030	-200,000	-0,018	0,077
-92,016	150,886	-0,060	-0,059
-91,001	-200,000	0,008	0,104
-89,986	336,136	-0,108	0,152
-88,972	451,622	0,090	0,143
-87,957	-109,029	0,145	-0,022
-86,943	272,528	-0,050	-0,064
-85,928	411,300	0,037	-0,057
-84,913	364,653	-0,029	0,042
-83,899	-71,377	-0,031	-0,008
-82,884	741,295	-0,049	0,095
-81,870	222,244	0,043	0,050
-80,855	-200,000	-0,026	-0,137
-79,840	800,000	-0,016	0,040
-78,826	14,396	-0,072	-0,040
-77,811	-200,000	-0,028	0,229
-76,797	-200,000	-0,011	0,066
-75,782	-9,292	0,026	0,012
-74,767	150,062	0,045	0,044
-73,753	800,000	-0,051	0,142
-72,738	133,890	0,082	-0,077
-71,724	164,458	0,021	-0,021
-70,709	-62,336	-0,117	0,035
-69,694	-4,918	-0,036	0,018
-68,680	-200,000	-0,003	0,023
-67,665	-200,000	-0,029	0,094
-66,651	-42,343	-0,076	-0,028
-65,636	800,000	-0,014	-0,027
-64,622	-69,869	-0,117	-0,032
-63,607	443,379	-0,091	-0,144
-62,592	69,865	0,049	-0,036
-61,578	-200,000	0,014	0,191
-60,563	170,492	0,044	0,045
-59,549	-200,000	-0,007	-0,037
-58,534	4,160	-1,856	-0,974
-57,519	-200,000	-0,264	-0,978
-56,505	-200,000	-1,360	-4,778
-55,490	-3,954	0,668	0,332
-54,476	800,000	5,268	12,242
-53,461	-200,000	17,029	273,136
-52,446	800,000	716,343	2186,870
-51,432	532,486	1629,864	2785,113
-50,417	113,402	1625,372	1418,669
-49,403	76,850	1286,398	981,103
-48,388	33,752	1032,785	644,684
-47,373	20,411	995,308	576,999
-46,359	19,168	983,207	565,854
-45,344	16,940	979,306	556,243
-44,330	17,087	977,982	555,953
-43,315	16,702	976,323	553,721
-42,300	16,678	975,089	552,922
-41,286	16,695	974,184	552,442
-40,271	16,683	973,240	551,847
-39,257	16,691	972,367	551,356
-38,242	16,688	971,651	550,916
-37,227	16,751	970,638	550,528
-36,213	16,741	969,710	549,945
-35,198	16,721	968,850	549,371
-34,184	16,785	968,151	549,161
-33,169	16,631	967,317	548,167
-32,154	16,707	966,359	547,848
-31,140	16,759	965,467	547,489
-30,125	16,767	964,601	547,003
-29,111	16,687	963,789	546,262
-28,096	16,771	963,233	546,198
-27,082	16,699	962,602	545,584
-26,067	16,686	961,864	545,102
-25,052	16,671	960,961	544,520
-24,038	16,696	960,190	544,142
-23,023	16,701	959,471	543,729
-22,009	16,745	959,000	543,583
-20,994	16,725	958,357	543,134
-19,979	16,704	957,747	542,699
-18,965	16,672	957,063	542,185
-17,950	16,716	956,279	541,861
-16,936	16,685	955,616	541,366
-15,921	16,680	955,077	541,021
-14,906	16,568	954,147	540,111
-13,892	16,548	953,574	539,704
-12,877	16,600	952,923	539,481
-11,863	16,581	952,392	539,097
-10,848	16,561	951,768	538,658
-9,833	16,681	951,389	538,805
-8,819	16,660	950,666	538,309
-7,804	16,598	950,079	537,756
-6,790	16,561	949,458	537,265
-5,775	16,660	948,824	537,201
-4,760	16,615	948,263	536,720
-3,746	16,607	947,640	536,320
-2,731	16,439	946,888	535,339
-1,717	16,399	946,188	534,794
-0,702	16,426	945,608	534,529
0,313	16,251	944,824	534,339
1,327	19,496	943,165	543,650
2,342	28,684	797,817	484,338
3,356	25,841	448,864	268,220
4,371	-3,399	296,155	147,659
5,386	-7,540	277,572	134,446
6,400	-8,654	271,766	130,584
7,415	-8,812	269,422	129,300
8,429	-8,958	267,984	128,465
9,444	-9,163	267,136	127,858
10,459	-9,140	266,323	127,479
11,473	-9,075	265,749	127,252
12,488	-9,426	265,209	126,663
13,502	-9,512	264,770	126,364
14,517	-9,743	264,272	125,906
15,531	-9,648	263,860	125,785
16,546	-9,730	263,338	125,451
17,561	-9,785	262,930	125,195
18,575	-9,722	262,732	125,146
19,590	-9,732	262,348	124,943
20,604	-9,928	262,163	124,669
21,619	-9,796	261,614	124,514
22,634	-9,855	261,299	124,300
23,648	-9,992	261,129	124,086
24,663	-9,813	260,829	124,092
25,677	-9,884	260,485	123,854
26,692	-9,861	260,361	123,805
27,707	-9,943	259,942	123,522
28,721	-10,055	259,675	123,285
29,736	-10,115	259,509	123,141
30,750	-10,007	259,135	123,049
31,765	-10,014	258,978	122,957
32,780	-10,111	258,749	122,751
33,794	-10,019	258,487	122,697
34,809	-10,022	258,379	122,633
35,823	-10,105	257,938	122,339
36,838	-9,991	257,811	122,369
37,853	-10,149	257,473	122,057
38,867	-10,255	257,272	121,858
39,882	-9,991	257,054	121,977
40,896	-10,184	256,835	121,692
41,911	-10,103	256,555	121,620
42,926	-10,210	256,349	121,417
43,940	-10,102	256,106	121,385
44,955	-10,335	255,867	121,058
45,969	-10,463	255,782	120,895
46,984	-10,454	255,348	120,687
47,999	-10,794	255,133	120,278
49,013	-10,817	254,884	120,130
50,028	-10,984	254,510	119,797
51,042	-11,072	254,302	119,612
52,057	-10,969	253,952	119,527
53,071	-11,060	253,913	119,419
54,086	-10,743	253,729	119,596
55,101	-10,682	253,534	119,546
56,115	-10,474	253,433	119,668
57,130	-9,951	253,270	120,034
58,144	-9,787	253,383	120,218
59,159	-9,736	252,970	120,055
60,174	-9,641	252,932	120,108
61,188	-9,688	252,520	119,862
62,203	-9,808	252,296	119,642
63,217	-10,010	252,223	119,423
64,232	-9,890	251,926	119,374
65,247	-9,738	251,739	119,406
66,261	-9,679	251,530	119,346
67,276	-10,262	251,242	118,699
68,290	-10,325	250,859	118,454
69,305	-10,614	250,721	118,131
70,320	-10,381	250,564	118,246
71,334	-10,223	250,395	118,290
72,349	-9,784	250,295	118,607
73,363	-9,480	250,162	118,793
74,378	-9,631	249,871	118,515
75,393	-9,890	249,647	118,178
76,407	-9,795	249,282	118,075
77,422	-9,898	249,322	117,996
78,436	-9,778	248,968	117,921
79,451	-9,825	248,809	117,795
80,466	-9,946	248,529	117,549
81,480	-10,217	248,305	117,203
82,495	-10,360	248,126	116,988
83,509	-10,147	247,994	117,095
84,524	-10,252	247,547	116,785
85,539	-10,473	247,502	116,566
86,553	-10,469	247,294	116,462
87,568	-10,275	247,091	116,519
88,582	-10,176	246,877	116,491
89,597	-10,523	246,651	116,082
90,611	-10,161	246,645	116,374
91,626	-9,928	246,527	116,503
92,641	-10,032	246,256	116,277
93,655	-10,010	246,134	116,227
94,670	-10,156	245,898	115,984
95,684	-10,051	245,552	115,897
96,699	-10,139	245,472	115,776
97,714	-10,250	245,242	115,564
98,728	-10,289	244,974	115,396
99,743	-10,582	244,813	115,066
100,757	-10,573	244,724	115,021
101,772	-10,280	244,445	115,123
102,787	-10,165	244,238	115,111
103,801	-10,032	244,010	115,103
104,816	-10,129	243,915	114,968
105,830	-9,879	243,885	115,151
106,845	-9,905	243,726	115,044
107,860	-9,836	243,511	114,989
108,874	-10,079	243,192	114,627
109,889	-9,934	243,103	114,695
110,903	-10,111	242,745	114,370
111,918	-10,142	242,707	114,316
112,933	-9,952	242,490	114,360
113,947	-9,858	242,412	114,391
114,962	-10,016	242,154	114,129
115,976	-9,995	242,004	114,066
116,991	-10,087	241,856	113,910
118,006	-10,067	241,788	113,884
119,020	-10,152	241,622	113,726
120,035	-10,005	241,550	113,803
121,049	-9,854	241,297	113,797
122,064	-9,810	241,101	113,731
123,079	-10,200	240,861	113,289
124,093	-10,228	240,595	113,130
125,108	-10,320	240,345	112,928
126,122	-10,654	240,136	112,546
127,137	-10,542	239,858	112,498
128,151	-10,455	239,734	112,501
129,166	-10,327	239,759	112,606
130,181	-10,459	239,379	112,310
131,195	-10,530	239,226	112,171
132,210	-10,405	239,282	112,289
133,224	-10,012	239,100	112,512
134,239	-10,094	238,869	112,327
135,254	-10,112	238,716	112,231
136,268	-10,057	238,395	112,115
137,283	-10,520	238,152	111,615
138,297	-10,544	238,036	111,531
139,312	-10,539	237,788	111,410
140,327	-10,211	237,751	111,647
141,341	-9,529	237,732	112,178
142,356	-9,688	237,633	111,993
143,370	-9,624	237,450	111,948
144,385	-9,685	237,324	111,830
145,400	-9,556	237,168	111,850
146,414	-9,436	236,912	111,815
147,429	-9,443	236,727	111,713
148,443	-9,654	236,590	111,469
149,458	-9,684	236,354	111,324
150,473	-9,621	236,192	111,288
151,487	-9,775	236,089	111,106
152,502	-9,714	235,910	111,061
153,516	-9,672	235,807	111,036
154,531	-9,567	235,554	110,991
155,546	-9,721	235,417	110,794
156,560	-9,817	235,151	110,583
157,575	-9,766	234,877	110,484
158,589	-9,749	234,855	110,477
159,604	-9,414	234,678	110,650
160,619	-9,523	234,580	110,507
161,633	-9,496	234,338	110,406
162,648	-9,527	234,327	110,365
163,662	-9,716	234,252	110,170
164,677	-9,656	233,933	110,059
165,692	-9,528	233,723	110,051
166,706	-9,504	233,562	109,984
167,721	-9,399	233,370	109,967
168,735	-9,390	233,433	109,994
169,750	-9,576	233,264	109,758
170,764	-9,600	233,057	109,632
171,779	-9,447	232,851	109,646
172,794	-9,353	232,806	109,688
173,808	-9,490	232,529	109,441
174,823	-10,126	232,079	108,721
175,837	-10,327	231,855	108,448
176,852	-9,971	232,029	108,799
177,867	-9,282	231,811	109,227
178,881	-9,346	231,668	109,100
179,896	-9,328	231,548	109,047
180,910	-9,235	231,452	109,065
181,925	-9,258	231,304	108,967
182,940	-9,509	231,193	108,710
183,954	-9,478	230,918	108,595
184,969	-9,342	230,905	108,685
185,983	-9,272	230,684	108,626
186,998	-9,347	230,620	108,528
188,013	-9,396	230,487	108,418
189,027	-9,183	230,192	108,434
190,042	-9,192	230,078	108,364
191,056	-9,279	229,946	108,224
192,071	-9,258	229,898	108,208
193,086	-9,031	229,515	108,195
194,100	-8,985	229,603	108,261
195,115	-8,744	229,520	108,399
196,129	-7,862	229,763	109,188
197,144	-3,911	230,988	112,833
198,159	-0,049	232,082	116,369
199,173	3,013	232,882	119,150
200,188	3,640	232,811	119,592
201,202	3,435	232,805	119,418
202,217	3,647	232,688	119,513
203,232	3,915	232,503	119,615
204,246	3,888	232,533	119,600
205,261	3,963	232,251	119,502
206,275	4,292	232,109	119,673
207,290	3,975	232,078	119,401
208,304	4,064	231,942	119,389
209,319	4,039	231,600	119,183
210,334	4,055	231,395	119,079
211,348	3,828	231,175	118,780
212,363	3,622	230,888	118,463
213,377	3,214	230,740	118,062
214,392	3,182	230,623	117,967
215,407	3,281	230,475	117,957
216,421	3,545	230,308	118,064
217,436	3,312	230,205	117,822
218,450	3,189	229,845	117,532
219,465	2,985	229,775	117,329
220,480	2,947	229,653	117,228
221,494	3,065	229,428	117,193
222,509	3,505	229,423	117,517
223,523	3,328	229,326	117,321
224,538	3,207	229,130	117,118
225,553	3,362	229,008	117,163
226,567	3,401	228,754	117,053
227,582	3,722	228,730	117,276
228,596	3,483	228,774	117,105
229,611	3,531	228,372	116,926
230,626	3,046	228,120	116,416
231,640	2,982	228,110	116,352
232,655	3,394	227,988	116,593
233,669	3,739	228,258	116,983
234,684	3,898	227,910	116,916
235,699	3,833	227,566	116,679
236,713	3,598	227,365	116,388
237,728	3,256	227,233	116,051
238,742	3,348	226,911	115,945
239,757	3,060	226,712	115,616
240,772	3,359	226,627	115,788
241,786	3,398	226,541	115,764
242,801	3,655	226,425	115,888
243,815	3,722	226,497	115,965
244,830	3,801	226,348	115,938
245,844	3,473	226,072	115,539
246,859	3,428	225,992	115,454
247,874	3,777	225,795	115,606
248,888	3,644	225,643	115,417
249,903	3,786	225,394	115,387
250,917	3,469	225,295	115,088
251,932	3,102	225,213	114,759
252,947	3,044	224,994	114,594
253,961	3,317	224,766	114,673
254,976	3,304	224,711	114,625
255,990	3,301	224,798	114,656
257,005	3,369	224,721	114,658
258,020	3,392	224,375	114,488
259,034	3,746	224,135	114,619
260,049	3,469	224,229	114,451
261,063	3,624	223,921	114,399
262,078	3,743	223,798	114,415
263,093	3,796	223,728	114,408
264,107	3,546	223,476	114,083
265,122	3,399	223,403	113,926
266,136	3,737	223,330	114,130
267,151	3,714	223,145	114,009
268,166	3,348	222,861	113,582
269,180	3,136	222,589	113,276
270,195	3,268	222,464	113,300
271,209	3,202	222,361	113,189
272,224	3,196	222,343	113,164
273,239	3,613	222,086	113,332
274,253	3,101	222,058	112,929
275,268	3,040	221,726	112,706
276,282	2,883	221,630	112,531
277,297	3,041	221,453	112,548
278,312	3,091	221,289	112,491
279,326	3,433	221,197	112,686
280,341	3,326	221,071	112,533
281,355	3,487	221,029	112,620
282,370	3,428	220,746	112,422
283,384	3,024	220,611	112,047
284,399	2,962	220,406	111,887
285,414	3,202	220,347	112,023
286,428	2,991	220,340	111,855
287,443	3,410	220,238	112,100
288,457	3,374	220,156	112,022
289,472	3,320	219,868	111,826
290,487	2,941	219,565	111,386
291,501	2,861	219,367	111,217
292,516	3,021	219,181	111,229
293,530	2,967	219,280	111,230
294,545	3,252	219,074	111,323
295,560	3,026	218,877	111,048
296,574	3,129	218,883	111,117
297,589	3,461	218,618	111,214
298,603	3,517	218,677	111,274
299,618	3,159	218,535	110,932
300,633	3,445	218,427	111,075
301,647	3,698	218,323	111,195
302,662	3,545	218,145	110,983
303,676	3,554	217,955	110,884
304,691	3,703	217,838	110,922
305,706	3,787	217,604	110,853
306,720	3,396	217,622	110,571
307,735	3,469	217,274	110,437
308,749	3,452	217,061	110,306
309,764	3,290	217,149	110,225
310,779	3,283	217,155	110,212
311,793	3,482	216,892	110,212
312,808	3,388	216,622	109,998
313,822	3,524	216,461	110,004
314,837	3,393	216,334	109,835
315,852	3,160	216,126	109,554
316,866	3,155	216,108	109,531
317,881	3,504	216,034	109,733
318,895	3,204	215,941	109,462
319,910	3,105	215,505	109,161
320,925	3,001	215,577	109,113
321,939	3,018	215,466	109,059
322,954	3,245	215,321	109,138
323,968	3,412	215,211	109,192
324,983	3,285	215,162	109,067
325,997	3,739	214,900	109,247
327,012	3,304	214,874	108,914
328,027	3,202	214,676	108,732
329,041	3,563	214,600	108,940
330,056	3,819	214,498	109,060
331,070	3,353	214,149	108,543
332,085	3,139	213,933	108,272
333,100	3,007	213,840	108,122
334,114	3,536	213,804	108,469
335,129	3,476	213,670	108,349
336,143	3,437	213,513	108,232
337,158	3,452	213,379	108,165
338,173	3,360	213,199	107,999
339,187	3,212	212,915	107,741
340,202	2,971	212,727	107,467
341,216	2,902	212,797	107,444
342,231	3,097	212,695	107,520
343,246	2,899	212,534	107,290
344,260	3,169	212,377	107,390
345,275	3,134	212,200	107,267
346,289	3,249	212,289	107,383
347,304	3,364	212,131	107,374
348,319	3,385	211,972	107,299
349,333	3,279	211,795	107,126
350,348	3,561	211,633	107,231
351,362	3,483	211,566	107,133
352,377	3,574	211,448	107,128
353,392	3,282	211,290	106,834
354,406	3,355	211,275	106,868
355,421	196,837	1340,869	1426,016
356,435	157,284	1478,491	1426,037
