DTS Sentinel unit serial number:	SN410029Multiplexer serial number:	ORYXHardware model number:	OX2-SRSoftware version number:	ORYX F/W v4,00 Oryx Data Collector v3.7.2.0data status	okinstallation	B6 Nyhavnadifferential loss correction	single-endedforward channel	channel 2reverse channel	N/Adate	2023/12/08time	16:45:08forward acquisition time	300,00reverse acquisition time	0,00gamma	499,1914k internal	0,3159k external	0,3159temperature offset calibration	1,0000default loss term (dB/km)	0,3820temperature slope calibration	1,0000multiplexer offset coefficient	1,0000multiplexer slope coefficient	1,0000fibre end	0,00T internal ref (°C)	15,12T ext. ref 1 (°C)	-1,40T ext. ref 2 (°C)	-1,40length (m)	temperature (°C)	Stokes	anti-Stokes-744,400	-81,770	0,077	-0,018
-743,385	-116,862	-0,284	-0,038
-742,371	800,000	0,037	0,105
-741,356	-141,280	-0,353	0,026
-740,342	90,313	0,132	0,109
-739,327	-91,027	-0,178	0,037
-738,312	49,295	0,139	-0,096
-737,298	-78,185	-0,360	-0,091
-736,283	-98,162	0,224	-0,042
-735,269	-68,428	-0,355	-0,101
-734,254	89,985	0,154	0,127
-733,239	-69,356	-0,581	-0,163
-732,225	-116,476	0,230	-0,031
-731,210	-200,000	0,047	0,194
-730,196	-200,000	0,026	-0,174
-729,181	108,428	-0,024	-0,021
-728,167	-161,582	-0,066	-0,002
-727,152	277,308	0,120	-0,157
-726,137	613,165	-0,077	-0,143
-725,123	43,742	0,133	0,090
-724,108	800,000	-0,062	-0,146
-723,094	291,126	-0,076	0,102
-722,079	-200,000	0,011	-0,080
-721,064	-200,000	-0,001	-0,054
-720,050	-200,000	0,037	-0,148
-719,035	684,089	0,035	-0,068
-718,021	800,000	0,041	-0,097
-717,006	640,563	-0,045	-0,084
-715,991	800,000	-0,070	-0,152
-714,977	14,510	0,129	-0,074
-713,962	505,843	0,051	0,088
-712,948	66,903	0,119	0,089
-711,933	-76,018	-0,139	-0,036
-710,918	141,564	0,050	0,049
-709,904	144,675	-0,056	-0,055
-708,889	-200,000	-0,005	0,163
-707,875	350,400	-0,113	-0,165
-706,860	-59,674	0,134	-0,042
-705,845	-91,198	-0,037	0,008
-704,831	241,492	-0,033	-0,040
-703,816	19,657	-0,038	-0,022
-702,802	-96,471	0,080	0,015
-701,787	50,058	-0,186	-0,129
-700,772	-30,611	0,197	-0,082
-699,758	26,845	-0,115	-0,070
-698,743	800,000	0,014	0,034
-697,729	-104,359	0,103	-0,017
-696,714	171,550	0,062	-0,066
-695,699	315,080	-0,083	-0,116
-694,685	-82,768	-0,132	-0,031
-693,670	221,394	0,056	-0,066
-692,656	-66,309	-0,033	0,010
-691,641	800,000	-0,025	-0,050
-690,627	60,604	0,041	0,030
-689,612	31,560	0,081	0,051
-688,597	223,475	-0,107	-0,128
-687,583	800,000	0,003	0,007
-686,568	280,640	0,046	0,061
-685,554	12,133	0,086	-0,048
-684,539	162,237	0,101	0,104
-683,524	-200,000	-0,011	-0,141
-682,510	-22,704	-0,043	-0,019
-681,495	-62,587	-0,087	-0,026
-680,481	74,694	0,025	-0,020
-679,466	800,000	0,032	-0,095
-678,451	232,294	-0,117	-0,141
-677,437	-200,000	0,018	-0,058
-676,422	-200,000	0,016	0,062
-675,408	-24,420	-0,098	0,043
-674,393	800,000	-0,031	-0,080
-673,378	10,185	-0,046	-0,025
-672,364	12,491	-0,055	-0,031
-671,349	736,438	-0,047	-0,093
-670,335	-200,000	-0,013	-0,100
-669,320	350,062	0,076	-0,110
-668,305	413,006	0,038	0,059
-667,291	-200,000	-0,032	-0,105
-666,276	740,387	-0,048	-0,094
-665,262	-46,919	-0,017	0,006
-664,247	-127,998	0,064	0,007
-663,232	16,611	-0,036	-0,021
-662,218	800,000	0,032	0,105
-661,203	-200,000	-0,008	0,076
-660,189	-33,375	-0,025	-0,010
-659,174	464,964	0,055	-0,090
-658,159	-200,000	-0,017	-0,123
-657,145	22,986	0,045	-0,027
-656,130	104,589	-0,057	0,049
-655,116	800,000	-0,035	-0,104
-654,101	66,914	0,081	-0,061
-653,086	-46,724	0,129	-0,046
-652,072	-200,000	0,007	-0,047
-651,057	-117,690	-0,101	-0,013
-650,043	-132,073	0,082	0,008
-649,028	195,978	-0,040	-0,045
-648,014	50,354	-0,073	0,051
-646,999	800,000	0,038	0,096
-645,984	-200,000	-0,030	-0,123
-644,970	-29,419	-0,027	0,011
-643,955	-200,000	0,008	-0,052
-642,941	407,437	0,053	-0,083
-641,926	87,874	0,054	-0,044
-640,911	-99,797	-0,036	0,007
-639,897	-154,619	0,215	-0,010
-638,882	-23,931	-0,097	0,042
-637,868	-200,000	0,001	-0,085
-636,853	-200,000	0,003	-0,017
-635,838	-200,000	0,004	-0,084
-634,824	-79,101	-0,048	0,012
-633,809	-74,706	-0,074	-0,019
-632,795	601,412	-0,080	-0,146
-631,780	-200,000	0,016	-0,117
-630,765	-15,488	-0,085	0,040
-629,751	216,469	-0,117	0,136
-628,736	-25,836	-0,143	-0,062
-627,722	15,939	0,048	-0,028
-626,707	-7,865	0,103	0,051
-625,692	-53,582	0,078	-0,026
-624,678	117,414	-0,109	-0,098
-623,663	83,794	-0,059	0,047
-622,649	-200,000	-0,007	-0,156
-621,634	543,530	0,029	-0,052
-620,619	178,146	0,028	0,030
-619,605	-161,707	0,124	0,005
-618,590	59,644	-0,072	0,052
-617,576	58,748	-0,186	0,134
-616,561	216,491	-0,019	0,022
-615,546	673,012	0,036	-0,069
-614,532	-8,902	-0,112	-0,055
-613,517	-200,000	0,034	0,154
-612,503	332,254	-0,011	0,016
-611,488	-200,000	0,011	-0,050
-610,474	-74,182	-0,064	-0,017
-609,459	66,356	0,078	0,058
-608,444	34,107	0,093	0,059
-607,430	-200,000	-0,012	-0,083
-606,415	-200,000	-0,014	-0,077
-605,401	-26,809	-0,129	0,055
-604,386	74,929	-0,092	0,071
-603,371	-200,000	-0,008	0,030
-602,357	163,166	0,058	-0,060
-601,342	800,000	0,013	-0,029
-600,328	262,058	-0,015	0,019
-599,313	-200,000	0,004	-0,186
-598,298	-200,000	0,001	0,029
-597,284	-34,545	0,070	-0,028
-596,269	216,500	0,041	-0,048
-595,255	800,000	0,012	0,028
-594,240	-200,000	-0,025	-0,082
-593,225	159,304	-0,055	0,056
-592,211	-200,000	-0,001	-0,041
-591,196	800,000	0,032	-0,066
-590,182	-105,418	0,042	-0,007
-589,167	165,269	0,089	0,092
-588,152	-200,000	0,018	0,080
-587,138	38,941	-0,033	-0,022
-586,123	-200,000	0,017	0,125
-585,109	-81,636	0,089	0,021
-584,094	-138,164	-0,048	0,004
-583,079	-200,000	0,006	0,032
-582,065	-200,000	-0,031	0,181
-581,050	-200,000	0,006	-0,030
-580,036	-200,000	-0,007	-0,052
-579,021	-47,722	0,104	-0,037
-578,006	-200,000	-0,021	0,083
-576,992	246,301	0,047	-0,058
-575,977	-200,000	-0,021	-0,085
-574,963	-78,813	0,012	-0,003
-573,948	800,000	0,002	0,004
-572,934	-200,000	0,006	0,022
-571,919	-200,000	-0,011	-0,058
-570,904	80,819	0,048	-0,038
-569,890	-200,000	-0,033	-0,124
-568,875	144,814	0,155	-0,151
-567,861	461,014	0,121	0,198
-566,846	627,510	-0,045	0,083
-565,831	179,902	0,094	0,101
-564,817	107,474	0,059	0,051
-563,802	-200,000	0,015	-0,123
-562,788	-55,147	-0,072	-0,024
-561,773	-143,128	0,074	-0,005
-560,758	11,746	-0,071	0,040
-559,744	-194,074	0,031	-0,000
-558,729	-42,727	0,050	-0,019
-557,715	9,651	-0,093	-0,052
-556,700	60,125	0,090	-0,065
-555,685	800,000	0,026	0,084
-554,671	-139,752	-0,073	-0,006
-553,656	-23,655	-0,087	0,038
-552,642	-42,901	0,106	0,039
-551,627	-200,000	-0,017	0,153
-550,612	800,000	0,012	0,036
-549,598	-200,000	0,020	-0,086
-548,583	800,000	-0,004	0,010
-547,569	-193,356	-0,099	-0,001
-546,554	800,000	0,039	-0,098
-545,539	92,132	-0,006	0,005
-544,525	-132,110	-0,095	-0,009
-543,510	20,182	0,040	0,023
-542,496	800,000	-0,036	0,093
-541,481	-25,690	-0,097	0,042
-540,466	-200,000	0,024	0,104
-539,452	800,000	-0,061	0,173
-538,437	39,633	-0,019	0,012
-537,423	221,954	-0,092	-0,109
-536,408	81,029	-0,113	0,089
-535,393	-171,002	-0,065	-0,002
-534,379	800,000	0,027	-0,078
-533,364	105,155	0,118	0,102
-532,350	-200,000	0,125	0,000
-531,335	90,937	0,105	-0,086
-530,321	-200,000	-0,017	0,133
-529,306	306,469	0,099	-0,135
-528,291	-66,252	-0,017	0,005
-527,277	-200,000	0,024	0,100
-526,262	272,740	0,067	-0,087
-525,248	-200,000	0,010	0,034
-524,233	800,000	0,033	0,078
-523,218	257,209	0,061	0,077
-522,204	-15,947	-0,043	0,020
-521,189	800,000	-0,049	0,139
-520,175	125,259	0,024	-0,022
-519,160	-142,343	-0,188	0,013
-518,145	800,000	0,061	-0,130
-517,131	-73,390	-0,074	0,020
-516,116	213,899	0,134	0,155
-515,102	-90,695	-0,137	0,029
-514,087	800,000	0,014	-0,032
-513,072	10,211	0,024	-0,013
-512,058	162,680	0,061	0,062
-511,043	800,000	0,044	-0,139
-510,029	203,399	-0,060	0,068
-509,014	790,912	-0,016	0,032
-507,999	-200,000	0,010	-0,040
-506,985	41,413	0,066	-0,044
-505,970	386,358	-0,091	0,138
-504,956	800,000	-0,023	0,070
-503,941	800,000	0,029	0,074
-502,926	-92,956	0,059	-0,012
-501,912	339,629	-0,053	-0,076
-500,897	150,683	-0,053	0,052
-499,883	208,353	0,053	-0,060
-498,868	-66,988	0,018	-0,005
-497,853	-200,000	-0,009	0,066
-496,839	283,565	0,043	0,057
-495,824	90,246	-0,101	0,083
-494,810	457,856	0,047	-0,076
-493,795	9,186	0,084	0,046
-492,781	370,377	0,015	0,023
-491,766	-169,961	-0,189	-0,005
-490,751	-105,773	0,117	0,019
-489,737	-200,000	-0,010	0,067
-488,722	-200,000	-0,009	0,149
-487,708	-31,957	0,081	-0,033
-486,693	404,174	0,008	0,013
-485,678	733,232	-0,017	0,034
-484,664	-200,000	0,004	0,096
-483,649	800,000	-0,055	-0,143
-482,635	-78,910	0,123	0,030
-481,620	800,000	-0,027	0,077
-480,605	-200,000	-0,002	-0,020
-479,591	-11,082	-0,028	0,013
-478,576	-45,689	0,052	-0,019
-477,562	-200,000	0,008	-0,160
-476,547	800,000	-0,030	0,094
-475,532	-156,976	-0,132	-0,006
-474,518	-200,000	-0,015	-0,051
-473,503	379,324	0,085	0,128
-472,489	-200,000	-0,005	-0,029
-471,474	-7,071	0,107	-0,053
-470,459	46,135	-0,063	0,042
-469,445	800,000	0,043	-0,104
-468,430	78,521	-0,060	-0,046
-467,416	168,899	0,097	0,101
-466,401	91,491	0,168	0,138
-465,386	-86,903	0,143	0,032
-464,372	328,126	-0,042	0,059
-463,357	452,459	-0,054	-0,087
-462,343	-54,515	-0,111	0,036
-461,328	800,000	-0,030	-0,080
-460,313	-108,757	-0,018	0,003
-459,299	-200,000	0,000	0,066
-458,284	-25,549	0,047	0,020
-457,270	43,928	-0,104	-0,069
-456,255	-51,967	0,124	-0,042
-455,241	-18,015	-0,069	-0,031
-454,226	-200,000	0,011	-0,062
-453,211	-145,746	-0,087	0,006
-452,197	2,891	0,103	-0,054
-451,182	-155,393	0,115	0,005
-450,168	-200,000	0,008	0,055
-449,153	800,000	0,036	0,078
-448,138	-152,898	-0,114	-0,006
-447,124	-65,753	-0,048	0,014
-446,109	175,010	-0,026	0,027
-445,095	-129,687	-0,077	-0,008
-444,080	259,917	-0,067	0,084
-443,065	291,606	0,040	-0,054
-442,051	-200,000	-0,013	0,065
-441,036	266,202	-0,049	-0,063
-440,022	-38,683	0,038	-0,015
-439,007	186,651	0,029	-0,031
-437,992	-58,990	0,070	0,022
-436,978	112,827	0,036	-0,032
-435,963	-200,000	-0,004	-0,032
-434,949	27,658	-0,052	-0,032
-433,934	800,000	0,039	-0,098
-432,919	-109,659	-0,014	0,002
-431,905	708,265	0,048	0,093
-430,890	-200,000	-0,013	0,047
-429,876	-200,000	-0,020	-0,070
-428,861	-84,852	0,039	0,009
-427,846	399,557	-0,047	-0,073
-426,832	800,000	0,041	0,099
-425,817	612,788	-0,079	-0,144
-424,803	800,000	0,041	-0,112
-423,788	119,318	0,056	-0,050
-422,773	-200,000	0,021	-0,069
-421,759	257,976	0,086	-0,108
-420,744	-200,000	-0,007	-0,104
-419,730	32,788	-0,042	-0,027
-418,715	-200,000	0,041	-0,158
-417,701	800,000	-0,055	-0,122
-416,686	216,516	0,069	0,080
-415,671	-99,343	-0,062	-0,011
-414,657	793,195	0,066	-0,133
-413,642	-200,000	-0,007	0,026
-412,628	-10,521	0,044	0,021
-411,613	-200,000	0,033	-0,194
-410,598	-200,000	0,006	-0,044
-409,584	800,000	0,024	-0,057
-408,569	336,677	0,091	0,129
-407,555	318,423	-0,034	0,047
-406,540	102,251	0,122	0,103
-405,525	43,736	0,073	0,049
-404,511	-101,611	0,125	-0,022
-403,496	-200,000	-0,007	-0,071
-402,482	-200,000	0,022	-0,101
-401,467	42,909	-0,057	0,038
-400,452	98,050	-0,063	0,053
-399,438	-200,000	0,000	-0,022
-398,423	-49,605	0,024	0,008
-397,409	591,119	-0,027	-0,049
-396,394	-200,000	-0,011	0,065
-395,379	201,960	0,058	-0,065
-394,365	-39,717	-0,099	0,038
-393,350	23,085	0,003	0,002
-392,336	-3,066	0,054	-0,028
-391,321	-200,000	0,001	-0,032
-390,306	-32,761	-0,113	0,045
-389,292	672,831	-0,082	0,154
-388,277	-200,000	-0,006	0,149
-387,263	-200,000	0,013	0,082
-386,248	-126,369	0,181	0,019
-385,233	-200,000	-0,042	0,154
-384,219	210,356	0,035	0,040
-383,204	416,942	0,043	0,067
-382,190	32,859	-0,064	0,040
-381,175	-72,514	0,107	-0,029
-380,160	-16,945	0,091	0,042
-379,146	415,310	0,015	0,024
-378,131	617,504	-0,010	-0,018
-377,117	133,397	-0,024	-0,022
-376,102	-117,867	0,175	-0,023
-375,088	-200,000	-0,009	-0,083
-374,073	39,837	-0,146	-0,095
-373,058	122,844	0,043	0,039
-372,044	-200,000	-0,007	0,064
-371,029	16,903	0,019	0,011
-370,015	77,017	-0,025	0,020
-369,000	329,933	-0,059	-0,083
-367,985	44,412	-0,099	-0,066
-366,971	-200,000	0,020	0,100
-365,956	86,092	-0,134	-0,107
-364,942	800,000	0,073	0,150
-363,927	-200,000	0,010	0,169
-362,912	553,028	-0,070	-0,122
-361,898	-200,000	-0,008	0,117
-360,883	-200,000	-0,050	0,179
-359,869	72,597	-0,051	0,039
-358,854	56,760	-0,082	0,058
-357,839	15,613	0,089	0,051
-356,825	-200,000	0,028	0,207
-355,810	800,000	-0,018	-0,047
-354,796	148,151	0,018	-0,018
-353,781	-16,908	0,032	0,014
-352,766	-48,072	0,109	-0,038
-351,752	-200,000	0,025	-0,154
-350,737	-200,000	-0,001	-0,049
-349,723	800,000	-0,038	0,079
-348,708	-200,000	0,015	0,144
-347,693	17,222	-0,006	-0,003
-346,679	800,000	-0,049	-0,105
-345,664	-200,000	0,004	0,103
-344,650	-112,268	0,133	0,019
-343,635	50,837	0,058	-0,040
-342,620	336,116	0,076	0,108
-341,606	-25,461	0,086	0,037
-340,591	-200,000	-0,057	-0,233
-339,577	525,135	-0,065	-0,111
-338,562	800,000	0,088	-0,185
-337,548	45,778	-0,044	0,030
-336,533	-63,948	0,069	-0,020
-335,518	-200,000	-0,026	0,086
-334,504	129,921	-0,041	-0,038
-333,489	116,777	-0,118	-0,105
-332,475	-13,873	-0,105	0,049
-331,460	-200,000	0,012	-0,064
-330,445	-113,335	0,198	-0,028
-329,431	-200,000	0,012	0,089
-328,416	27,539	-0,059	0,036
-327,402	-95,453	-0,112	0,022
-326,387	445,789	0,022	0,034
-325,372	56,961	-0,070	-0,049
-324,358	-90,233	-0,141	0,030
-323,343	-77,700	-0,137	-0,034
-322,329	-104,878	-0,057	0,009
-321,314	103,639	-0,069	0,059
-320,299	-79,526	0,117	-0,028
-319,285	-50,540	-0,131	-0,045
-318,270	79,458	0,022	-0,017
-317,256	123,340	-0,030	-0,027
-316,241	-123,264	0,148	0,017
-315,226	-200,000	0,003	-0,135
-314,212	148,575	0,078	0,077
-313,197	145,582	0,107	0,104
-312,183	-76,838	-0,063	-0,016
-311,168	800,000	0,067	-0,169
-310,153	800,000	-0,060	-0,138
-309,139	800,000	-0,026	0,065
-308,124	-61,676	0,065	-0,020
-307,110	500,233	-0,016	0,027
-306,095	-200,000	0,002	-0,080
-305,080	-200,000	0,045	0,000
-304,066	-200,000	0,012	-0,076
-303,051	800,000	-0,042	0,106
-302,037	64,680	-0,114	0,083
-301,022	800,000	0,046	-0,104
-300,008	348,717	0,057	-0,082
-298,993	301,497	0,122	-0,164
-297,978	-89,990	-0,054	0,011
-296,964	-56,399	-0,048	-0,015
-295,949	-67,190	-0,114	-0,032
-294,935	4,701	-0,051	0,027
-293,920	-27,127	0,084	0,035
-292,905	96,735	-0,053	0,044
-291,891	243,782	-0,098	-0,119
-290,876	-53,440	-0,032	0,011
-289,862	-129,989	-0,025	-0,002
-288,847	-128,601	-0,122	0,012
-287,832	3,550	-0,303	-0,160
-286,818	-200,000	0,003	0,101
-285,803	-158,089	0,087	-0,004
-284,789	293,092	-0,021	-0,028
-283,774	-200,000	-0,015	0,062
-282,759	-200,000	0,001	-0,003
-281,745	-200,000	-0,005	0,187
-280,730	-41,491	0,059	0,022
-279,716	157,086	-0,056	-0,056
-278,701	17,880	0,114	0,066
-277,686	-200,000	-0,008	0,102
-276,672	-200,000	-0,013	0,095
-275,657	31,406	0,072	0,045
-274,643	-94,648	-0,063	-0,012
-273,628	211,870	0,028	0,032
-272,613	-123,877	-0,114	0,013
-271,599	-200,000	0,007	0,163
-270,584	800,000	0,051	0,159
-269,570	-200,000	-0,014	-0,048
-268,555	-5,046	-0,026	-0,013
-267,540	-146,986	-0,018	0,001
-266,526	32,879	-0,126	0,079
-265,511	14,967	0,109	0,061
-264,497	90,739	0,007	0,006
-263,482	-200,000	-0,017	-0,062
-262,467	719,950	-0,038	0,074
-261,453	-200,000	0,019	-0,071
-260,438	288,768	-0,050	-0,066
-259,424	363,199	-0,100	-0,146
-258,409	399,282	-0,065	-0,099
-257,395	789,831	-0,004	-0,007
-256,380	-200,000	-0,003	0,076
-255,365	33,893	-0,073	-0,046
-254,351	-200,000	0,010	-0,048
-253,336	-57,792	0,086	0,027
-252,322	800,000	-0,045	0,096
-251,307	-200,000	0,000	0,032
-250,292	800,000	-0,010	-0,020
-249,278	-22,083	0,160	0,070
-248,263	-200,000	-0,036	0,215
-247,249	-200,000	0,001	-0,160
-246,234	55,333	-0,051	-0,036
-245,219	-8,233	-0,047	0,023
-244,205	800,000	0,029	-0,065
-243,190	37,676	0,092	0,059
-242,176	43,301	-0,021	0,014
-241,161	15,149	0,155	0,087
-240,146	-7,722	0,038	-0,018
-239,132	800,000	-0,039	0,080
-238,117	27,972	0,060	0,036
-237,103	-72,528	-0,036	-0,009
-236,088	155,622	-0,117	-0,116
-235,073	-126,088	-0,036	0,004
-234,059	-200,000	0,002	0,007
-233,044	-200,000	0,009	0,048
-232,030	-81,739	0,056	-0,013
-231,015	303,194	0,030	-0,040
-230,000	800,000	-0,038	-0,086
-228,986	-134,218	0,042	0,004
-227,971	695,220	0,042	0,080
-226,957	67,678	0,046	0,034
-225,942	800,000	0,018	-0,055
-224,927	-200,000	0,005	-0,084
-223,913	-96,457	0,020	-0,004
-222,898	188,580	-0,090	-0,097
-221,884	286,942	-0,095	-0,124
-220,869	-200,000	0,014	-0,070
-219,855	-200,000	-0,017	-0,067
-218,840	800,000	0,041	0,118
-217,825	-200,000	0,015	0,118
-216,811	-118,416	-0,031	0,004
-215,796	219,201	-0,149	-0,172
-214,782	244,046	-0,044	-0,054
-213,767	272,000	0,078	-0,099
-212,752	-200,000	-0,016	-0,127
-211,738	98,593	-0,064	0,053
-210,723	161,965	-0,049	0,050
-209,709	-200,000	-0,002	0,064
-208,694	504,840	-0,021	0,036
-207,679	-62,757	-0,077	-0,023
-206,665	649,952	-0,046	-0,085
-205,650	244,007	0,091	-0,111
-204,636	146,699	0,034	-0,033
-203,621	26,262	-0,074	0,045
-202,606	-138,497	0,226	-0,018
-201,592	335,947	-0,081	-0,114
-200,577	-68,162	-0,053	-0,015
-199,563	-200,000	-0,004	0,063
-198,548	-70,994	0,129	-0,035
-197,533	800,000	0,018	0,048
-196,519	83,593	-0,014	0,011
-195,504	-148,714	0,047	0,003
-194,490	-47,737	0,087	0,030
-193,475	-98,217	-0,069	-0,013
-192,460	800,000	0,027	0,079
-191,446	-146,201	-0,030	0,002
-190,431	-132,826	-0,035	-0,003
-189,417	800,000	0,084	-0,188
-188,402	105,430	-0,113	0,097
-187,387	-200,000	-0,016	-0,051
-186,373	-200,000	-0,001	-0,042
-185,358	-5,878	0,054	0,027
-184,344	673,225	-0,066	-0,124
-183,329	-67,498	-0,086	0,024
-182,315	-58,368	-0,011	-0,004
-181,300	164,965	-0,087	0,089
-180,285	6,099	0,185	-0,099
-179,271	466,508	0,016	-0,025
-178,256	16,272	-0,032	-0,018
-177,242	-1,388	0,098	0,050
-176,227	-200,000	0,020	-0,113
-175,212	27,286	-0,087	-0,053
-174,198	800,000	0,050	0,111
-173,183	-200,000	-0,006	0,021
-172,169	-200,000	0,003	0,023
-171,154	-200,000	0,015	-0,056
-170,139	395,467	0,055	0,083
-169,125	233,994	0,040	-0,047
-168,110	-36,320	-0,018	-0,007
-167,096	292,502	0,074	-0,098
-166,081	119,385	-0,063	-0,056
-165,066	800,000	0,020	0,055
-164,052	106,054	0,070	0,059
-163,037	-200,000	-0,006	0,180
-162,023	159,654	-0,108	-0,108
-161,008	-30,072	0,102	-0,042
-159,993	121,395	0,052	-0,047
-158,979	-81,369	0,069	-0,016
-157,964	517,942	-0,047	-0,080
-156,950	-26,263	-0,075	0,032
-155,935	-44,848	-0,083	-0,030
-154,920	-200,000	-0,015	0,122
-153,906	526,337	0,047	0,080
-152,891	99,420	0,035	0,029
-151,877	-100,568	-0,036	-0,006
-150,862	-200,000	0,002	-0,075
-149,847	-45,023	-0,090	-0,032
-148,833	103,699	-0,045	0,038
-147,818	-200,000	0,013	0,065
-146,804	25,553	0,094	0,056
-145,789	-127,991	-0,111	-0,011
-144,775	105,788	0,085	0,073
-143,760	6,262	0,062	0,033
-142,745	-22,230	-0,083	-0,036
-141,731	64,218	0,087	0,063
-140,716	-200,000	-0,003	0,068
-139,702	-89,998	0,038	-0,008
-138,687	-200,000	0,009	-0,117
-137,672	303,955	-0,034	-0,045
-136,658	278,800	0,025	0,032
-135,643	-110,319	-0,013	0,002
-134,629	-194,802	0,093	-0,001
-133,614	716,320	0,052	0,099
-132,599	-200,000	0,046	0,212
-131,585	-39,276	0,126	0,047
-130,570	560,395	-0,037	0,065
-129,556	800,000	0,017	-0,053
-128,541	-47,939	0,109	0,038
-127,526	-200,000	0,010	0,084
-126,512	-52,061	-0,040	0,013
-125,497	-200,000	-0,005	-0,034
-124,483	-200,000	-0,033	0,241
-123,468	-19,968	-0,057	0,025
-122,453	73,638	-0,068	-0,051
-121,439	-200,000	-0,014	-0,065
-120,424	800,000	-0,093	-0,202
-119,410	-85,632	0,130	-0,029
-118,395	-104,291	0,156	0,026
-117,380	173,634	-0,062	0,065
-116,366	-59,503	0,079	0,024
-115,351	255,267	-0,073	-0,090
-114,337	781,513	0,065	0,128
-113,322	-200,000	-0,011	0,163
-112,307	-75,688	0,131	0,033
-111,293	173,724	-0,174	0,180
-110,278	16,412	0,013	-0,007
-109,264	-195,399	-0,014	0,000
-108,249	33,432	-0,079	0,049
-107,234	-91,758	0,073	0,015
-106,220	800,000	0,044	-0,096
-105,205	-80,186	0,065	0,015
-104,191	44,008	-0,058	0,038
-103,176	-198,841	0,065	0,000
-102,162	-10,356	-0,053	0,025
-101,147	368,529	-0,076	-0,110
-100,132	56,053	-0,051	0,036
-99,118	-200,000	0,012	0,122
-98,103	800,000	0,034	0,068
-97,089	127,607	-0,054	-0,049
-96,074	800,000	-0,029	0,065
-95,059	396,289	0,088	0,133
-94,045	176,264	-0,179	0,187
-93,030	0,762	-0,126	0,065
-92,016	20,764	-0,062	-0,036
-91,001	800,000	-0,034	-0,105
-89,986	-136,661	0,183	-0,015
-88,972	-135,766	0,040	-0,003
-87,957	-0,732	0,054	-0,028
-86,943	-136,262	0,099	-0,008
-85,928	684,456	0,041	0,077
-84,913	-87,938	-0,180	0,038
-83,899	-200,000	0,006	0,028
-82,884	-200,000	0,009	0,075
-81,870	-200,000	0,004	0,043
-80,855	-200,000	-0,009	-0,088
-79,840	16,007	0,081	-0,046
-78,826	69,212	-0,104	0,077
-77,811	412,836	0,003	-0,005
-76,797	-108,195	0,123	-0,019
-75,782	-200,000	0,016	0,100
-74,767	-98,414	0,107	0,019
-73,753	618,256	0,057	0,104
-72,738	-124,491	-0,073	-0,008
-71,724	-13,216	0,040	0,019
-70,709	800,000	-0,037	0,118
-69,694	-118,486	-0,044	0,006
-68,680	-51,163	0,126	-0,042
-67,665	800,000	-0,031	0,078
-66,651	-200,000	-0,021	-0,071
-65,636	-80,348	0,011	-0,003
-64,622	-200,000	-0,019	-0,068
-63,607	-200,000	-0,044	-0,174
-62,592	800,000	-0,016	0,037
-61,578	-9,907	0,070	-0,033
-60,563	-200,000	0,032	0,133
-59,549	-49,087	0,059	0,020
-58,534	18,618	-2,099	-1,202
-57,519	-200,000	-0,141	-0,858
-56,505	-200,000	-1,399	-4,994
-55,490	78,672	0,988	0,757
-54,476	800,000	5,059	11,559
-53,461	-200,000	17,853	289,333
-52,446	800,000	727,035	2225,263
-51,432	534,761	1639,789	2799,738
-50,417	109,115	1629,492	1398,201
-49,403	72,777	1283,334	959,986
-48,388	31,302	1026,061	630,530
-47,373	19,883	988,114	569,606
-46,359	18,219	975,931	557,115
-45,344	15,430	971,997	545,734
-44,330	15,618	970,641	545,564
-43,315	15,264	968,669	543,282
-42,300	15,139	967,895	542,418
-41,286	15,176	966,712	541,853
-40,271	15,107	965,674	541,026
-39,257	15,139	964,872	540,661
-38,242	15,180	963,950	540,255
-37,227	15,158	963,079	539,673
-36,213	15,102	962,415	539,097
-35,198	15,116	961,460	538,589
-34,184	15,134	960,698	538,198
-33,169	15,108	959,627	537,493
-32,154	15,163	958,740	537,153
-31,140	15,202	958,107	536,901
-30,125	15,203	957,183	536,364
-29,111	15,166	956,324	535,745
-28,096	15,157	955,696	535,340
-27,082	15,133	955,352	535,052
-26,067	15,206	954,209	534,624
-25,052	15,189	953,378	534,083
-24,038	15,165	952,759	533,638
-23,023	15,117	952,329	533,223
-22,009	15,126	951,745	532,904
-20,994	15,216	950,917	532,704
-19,979	15,149	950,291	532,121
-18,965	15,120	949,739	531,695
-17,950	15,135	949,057	531,342
-16,936	15,107	948,595	530,973
-15,921	15,026	947,881	530,292
-14,906	15,099	946,950	529,986
-13,892	15,088	946,306	529,569
-12,877	15,062	945,599	529,070
-11,863	14,969	945,264	528,564
-10,848	15,112	944,555	528,602
-9,833	15,138	944,225	528,477
-8,819	15,067	943,596	527,880
-7,804	15,150	942,901	527,735
-6,790	15,065	942,391	527,156
-5,775	15,143	941,831	527,071
-4,760	15,137	941,102	526,623
-3,746	15,018	940,620	525,957
-2,731	14,953	939,640	525,181
-1,717	14,915	939,099	524,740
-0,702	14,899	938,528	524,348
0,313	14,731	937,741	524,170
1,327	18,123	935,891	533,759
2,342	27,343	789,725	474,674
3,356	23,907	444,875	262,285
4,371	-5,659	295,874	144,856
5,386	-9,535	277,463	132,153
6,400	-10,952	272,003	128,222
7,415	-11,087	269,639	126,973
8,429	-11,046	268,136	126,291
9,444	-11,046	267,310	125,891
10,459	-11,200	266,896	125,543
11,473	-11,143	266,061	125,192
12,488	-11,369	265,714	124,812
13,502	-11,482	265,024	124,374
14,517	-11,277	264,517	124,310
15,531	-11,398	264,159	124,022
16,546	-11,154	263,832	124,078
17,561	-11,457	263,528	123,650
18,575	-11,280	263,031	123,566
19,590	-11,259	262,749	123,441
20,604	-11,238	262,553	123,357
21,619	-11,434	262,142	122,977
22,634	-11,138	261,698	123,022
23,648	-11,468	261,436	122,593
24,663	-11,370	261,209	122,563
25,677	-11,344	260,961	122,459
26,692	-11,273	260,681	122,380
27,707	-11,449	260,426	122,093
28,721	-11,229	260,035	122,094
29,736	-11,449	259,922	121,834
30,750	-11,434	259,690	121,729
31,765	-11,384	259,290	121,575
32,780	-11,249	259,071	121,581
33,794	-11,281	258,846	121,435
34,809	-11,447	258,621	121,173
35,823	-11,486	258,360	121,005
36,838	-11,557	258,140	120,829
37,853	-11,602	258,014	120,719
38,867	-11,427	257,714	120,722
39,882	-11,422	257,364	120,552
40,896	-11,347	257,187	120,525
41,911	-11,418	256,910	120,322
42,926	-11,433	256,662	120,181
43,940	-11,578	256,323	119,885
44,955	-11,637	256,272	119,799
45,969	-11,642	255,868	119,595
46,984	-11,840	255,741	119,352
47,999	-12,133	255,529	118,987
49,013	-12,158	255,158	118,782
50,028	-12,204	254,958	118,639
51,042	-12,321	254,736	118,423
52,057	-12,299	254,371	118,262
53,071	-12,250	254,230	118,228
54,086	-12,185	254,026	118,179
55,101	-12,288	253,954	118,046
56,115	-11,841	253,684	118,296
57,130	-11,384	253,725	118,701
58,144	-11,276	253,643	118,745
59,159	-11,018	253,347	118,818
60,174	-11,261	253,170	118,515
61,188	-11,222	252,798	118,364
62,203	-11,287	252,644	118,226
63,217	-11,418	252,605	118,084
64,232	-11,264	252,275	118,052
65,247	-11,324	252,206	117,957
66,261	-11,201	251,830	117,876
67,276	-11,548	251,491	117,410
68,290	-11,565	251,236	117,265
69,305	-11,862	251,049	116,914
70,320	-11,796	250,949	116,913
71,334	-11,619	250,912	117,037
72,349	-11,287	250,666	117,195
73,363	-11,027	250,463	117,311
74,378	-11,164	250,295	117,106
75,393	-11,214	249,922	116,878
76,407	-11,087	249,724	116,883
77,422	-11,526	249,594	116,439
78,436	-11,276	249,350	116,527
79,451	-11,207	249,161	116,486
80,466	-11,601	248,829	115,988
81,480	-11,597	248,491	115,823
82,495	-11,730	248,505	115,706
83,509	-11,700	248,281	115,617
84,524	-11,531	247,967	115,603
85,539	-11,690	247,729	115,348
86,553	-11,690	247,659	115,306
87,568	-11,674	247,470	115,220
88,582	-11,807	247,250	114,996
89,597	-11,981	247,152	114,793
90,611	-11,546	247,038	115,096
91,626	-11,290	246,849	115,213
92,641	-11,485	246,558	114,903
93,655	-11,409	246,422	114,893
94,670	-11,545	246,056	114,599
95,684	-11,680	246,031	114,463
96,699	-11,584	245,877	114,462
97,714	-11,635	245,620	114,290
98,728	-11,620	245,367	114,174
99,743	-11,904	245,202	113,851
100,757	-11,832	244,911	113,765
101,772	-11,622	244,833	113,894
102,787	-11,628	244,691	113,812
103,801	-11,796	244,510	113,579
104,816	-11,615	244,262	113,604
105,830	-11,292	244,097	113,784
106,845	-11,175	243,840	113,751
107,860	-11,494	243,836	113,475
108,874	-11,500	243,616	113,358
109,889	-11,610	243,366	113,141
110,903	-11,531	243,220	113,127
111,918	-11,785	242,865	112,743
112,933	-11,451	242,652	112,909
113,947	-11,679	242,690	112,728
114,962	-11,399	242,499	112,861
115,976	-11,484	242,494	112,778
116,991	-11,441	242,051	112,598
118,006	-11,559	242,002	112,467
119,020	-11,450	241,820	112,463
120,035	-11,203	241,647	112,574
121,049	-11,102	241,446	112,553
122,064	-11,515	241,255	112,117
123,079	-11,529	241,133	112,038
124,093	-11,381	240,814	112,001
125,108	-11,760	240,654	111,607
126,122	-11,745	240,339	111,464
127,137	-12,107	240,241	111,113
128,151	-11,993	240,172	111,165
129,166	-11,801	240,018	111,240
130,181	-11,927	239,797	111,025
131,195	-11,666	239,482	111,081
132,210	-11,528	239,308	111,102
133,224	-11,605	239,259	111,007
134,239	-11,572	239,102	110,951
135,254	-11,491	238,825	110,878
136,268	-11,806	238,762	110,584
137,283	-11,920	238,521	110,371
138,297	-11,831	238,135	110,254
139,312	-11,964	237,929	110,042
140,327	-11,713	238,029	110,280
141,341	-11,090	237,911	110,717
142,356	-11,187	237,827	110,590
143,370	-11,192	237,637	110,488
144,385	-11,179	237,498	110,424
145,400	-11,006	237,336	110,478
146,414	-10,964	237,129	110,405
147,429	-11,053	236,964	110,248
148,443	-11,240	236,738	109,982
149,458	-11,033	236,572	110,061
150,473	-11,072	236,502	109,987
151,487	-11,215	236,085	109,670
152,502	-11,092	236,036	109,735
153,516	-11,067	235,984	109,721
154,531	-11,005	235,569	109,568
155,546	-11,102	235,500	109,449
156,560	-11,224	235,261	109,231
157,575	-11,350	234,950	108,977
158,589	-11,307	234,999	109,024
159,604	-11,092	234,847	109,115
160,619	-11,115	234,665	109,002
161,633	-11,090	234,573	108,969
162,648	-11,015	234,390	108,934
163,662	-11,279	234,354	108,698
164,677	-11,241	233,970	108,541
165,692	-11,147	233,838	108,543
166,706	-10,926	233,739	108,663
167,721	-10,904	233,664	108,636
168,735	-10,780	233,526	108,659
169,750	-11,143	233,466	108,336
170,764	-11,178	233,135	108,145
171,779	-11,175	233,089	108,116
172,794	-11,011	232,927	108,161
173,808	-11,247	232,602	107,815
174,823	-11,848	232,455	107,266
175,837	-12,089	232,176	106,938
176,852	-11,511	232,196	107,391
177,867	-11,105	232,019	107,617
178,881	-11,184	231,900	107,490
179,896	-11,223	231,821	107,414
180,910	-11,083	231,588	107,406
181,925	-10,843	231,332	107,464
182,940	-10,898	231,431	107,458
183,954	-10,889	231,188	107,343
184,969	-10,872	230,991	107,255
185,983	-11,058	230,893	107,055
186,998	-10,718	230,705	107,223
188,013	-10,785	230,568	107,097
189,027	-10,847	230,332	106,931
190,042	-10,899	230,190	106,814
191,056	-10,943	230,083	106,721
192,071	-10,961	230,018	106,668
193,086	-10,963	229,712	106,514
194,100	-11,033	229,861	106,520
195,115	-10,929	229,078	106,227
196,129	-11,085	229,327	106,213
197,144	-6,193	231,024	110,790
198,159	-0,775	232,594	115,760
199,173	2,730	233,402	118,888
200,188	3,412	233,476	119,447
201,202	3,317	233,343	119,294
202,217	3,523	233,247	119,395
203,232	3,685	233,157	119,464
204,246	3,716	232,862	119,327
205,261	3,668	232,911	119,303
206,275	4,011	232,665	119,433
207,290	3,813	232,504	119,186
208,304	3,958	232,343	119,206
209,319	3,813	232,223	119,021
210,334	3,771	232,033	118,881
211,348	3,655	231,763	118,642
212,363	3,356	231,569	118,301
213,377	3,007	231,479	117,975
214,392	2,861	231,298	117,760
215,407	3,304	231,048	117,963
216,421	3,236	231,044	117,899
217,436	3,051	230,707	117,573
218,450	3,047	230,654	117,533
219,465	2,842	230,394	117,233
220,480	2,731	230,296	117,087
221,494	3,051	230,080	117,212
222,509	3,348	230,243	117,513
223,523	3,136	229,902	117,166
224,538	3,226	229,602	117,071
225,553	2,832	229,673	116,795
226,567	3,121	229,541	116,939
227,582	3,246	229,348	116,926
228,596	3,421	229,326	117,038
229,611	3,094	229,109	116,667
230,626	2,961	228,794	116,395
231,640	2,881	228,596	116,223
232,655	3,275	228,570	116,499
233,669	3,548	228,677	116,751
234,684	3,659	228,438	116,704
235,699	3,589	228,207	116,521
236,713	3,319	228,004	116,203
237,728	3,079	227,707	115,859
238,742	2,962	227,525	115,667
239,757	3,180	227,544	115,832
240,772	3,067	227,460	115,693
241,786	3,140	227,249	115,630
242,801	3,369	227,192	115,765
243,815	3,547	227,131	115,857
244,830	3,351	227,029	115,647
245,844	3,103	226,559	115,211
246,859	3,284	226,542	115,328
247,874	3,145	226,461	115,172
248,888	3,416	226,208	115,237
249,903	3,324	226,038	115,071
250,917	3,344	225,819	114,965
251,932	3,184	225,704	114,776
252,947	3,180	225,545	114,681
253,961	2,888	225,498	114,428
254,976	2,886	225,274	114,303
255,990	3,428	225,127	114,624
257,005	3,545	224,944	114,608
258,020	3,262	225,049	114,439
259,034	3,688	224,777	114,609
260,049	3,534	224,633	114,410
261,063	3,421	224,699	114,350
262,078	3,410	224,388	114,173
263,093	3,397	224,321	114,119
264,107	3,533	224,065	114,080
265,122	3,475	223,918	113,952
266,136	3,426	223,906	113,899
267,151	3,386	223,837	113,824
268,166	3,261	223,318	113,457
269,180	2,844	223,189	113,072
270,195	3,089	223,095	113,197
271,209	3,223	222,842	113,156
272,224	3,004	223,031	113,080
273,239	3,070	222,833	113,019
274,253	3,023	222,598	112,855
275,268	2,936	222,397	112,679
276,282	2,731	222,238	112,437
277,297	3,075	222,183	112,652
278,312	3,165	221,874	112,552
279,326	3,276	221,780	112,576
280,341	3,112	221,787	112,449
281,355	3,234	221,571	112,419
282,370	3,074	221,425	112,217
283,384	2,870	221,356	112,023
284,399	2,644	221,030	111,682
285,414	2,781	220,863	111,688
286,428	3,019	220,735	111,788
287,443	3,369	220,678	112,005
288,457	3,458	220,651	112,046
289,472	3,227	220,503	111,793
290,487	2,723	220,138	111,230
291,501	2,499	220,067	111,020
292,516	2,799	219,789	111,089
293,530	2,859	219,807	111,132
294,545	2,710	219,747	110,983
295,560	3,112	219,527	111,154
296,574	3,071	219,563	111,133
297,589	2,891	219,255	110,836
298,603	3,209	219,345	111,103
299,618	3,237	219,157	111,018
300,633	3,351	218,874	110,947
301,647	3,385	218,938	110,995
302,662	3,461	218,802	110,971
303,676	3,329	218,580	110,752
304,691	3,526	218,359	110,773
305,706	3,306	218,151	110,499
306,720	3,285	218,164	110,480
307,735	2,979	218,056	110,195
308,749	3,055	217,814	110,118
309,764	3,258	217,675	110,184
310,779	3,204	217,627	110,111
311,793	3,275	217,329	110,001
312,808	3,119	217,236	109,832
313,822	3,279	217,029	109,833
314,837	3,438	216,895	109,870
315,852	3,138	216,824	109,609
316,866	3,065	216,717	109,493
317,881	3,474	216,428	109,629
318,895	3,480	216,463	109,641
319,910	3,126	216,385	109,339
320,925	2,909	216,006	108,983
321,939	2,697	215,825	108,731
322,954	2,850	215,729	108,781
323,968	3,058	215,831	108,972
324,983	3,086	215,726	108,929
325,997	3,326	215,578	109,015
327,012	3,024	215,464	108,733
328,027	3,235	215,121	108,700
329,041	3,921	215,077	109,155
330,056	3,351	214,960	108,682
331,070	2,771	214,557	108,057
332,085	2,622	214,472	107,899
333,100	3,020	214,473	108,172
334,114	3,286	214,442	108,335
335,129	3,315	214,251	108,250
336,143	2,980	214,009	107,881
337,158	2,969	214,018	107,868
338,173	3,255	213,946	108,024
339,187	3,057	213,599	107,700
340,202	2,973	213,451	107,556
341,216	2,679	213,433	107,330
342,231	2,843	213,216	107,328
343,246	2,856	213,157	107,298
344,260	2,979	213,051	107,321
345,275	3,212	212,905	107,401
346,289	3,427	212,807	107,493
347,304	3,342	212,596	107,317
348,319	3,249	212,433	107,160
349,333	3,052	212,373	106,982
350,348	3,111	212,286	106,970
351,362	3,194	212,284	107,018
352,377	3,373	212,024	107,003
353,392	3,132	211,796	106,710
354,406	3,197	211,675	106,684
355,421	195,951	1340,222	1418,808
356,435	156,550	1477,693	1418,784
