DTS Sentinel unit serial number:	SN410029Multiplexer serial number:	ORYXHardware model number:	OX2-SRSoftware version number:	ORYX F/W v4,00 Oryx Data Collector v3.7.2.0data status	okinstallation	B6 Nyhavnadifferential loss correction	single-endedforward channel	channel 2reverse channel	N/Adate	2023/12/08time	09:15:08forward acquisition time	300,00reverse acquisition time	0,00gamma	499,1914k internal	0,3167k external	0,3167temperature offset calibration	1,0000default loss term (dB/km)	0,3820temperature slope calibration	1,0000multiplexer offset coefficient	1,0000multiplexer slope coefficient	1,0000fibre end	0,00T internal ref (°C)	13,18T ext. ref 1 (°C)	-2,17T ext. ref 2 (°C)	-2,14length (m)	temperature (°C)	Stokes	anti-Stokes-744,400	-142,385	0,132	0,009
-743,385	-165,835	-0,232	-0,007
-742,371	-6,812	0,114	0,057
-741,356	-130,048	-0,317	0,031
-740,342	-61,828	0,237	0,073
-739,327	-171,495	-0,295	0,007
-738,312	525,642	0,082	0,143
-737,298	-161,313	-0,287	0,011
-736,283	155,701	0,140	0,142
-735,269	-14,004	-0,339	0,160
-734,254	-111,767	-0,036	0,005
-733,239	-55,603	-0,597	-0,195
-732,225	572,155	0,071	0,128
-731,210	-200,000	-0,012	-0,054
-730,196	-200,000	0,026	-0,090
-729,181	-200,000	-0,018	-0,144
-728,167	309,882	0,027	0,037
-727,152	629,871	0,012	0,023
-726,137	108,853	-0,061	-0,053
-725,123	800,000	-0,050	-0,117
-724,108	-200,000	0,013	-0,091
-723,094	800,000	-0,040	-0,083
-722,079	-200,000	0,027	-0,123
-721,064	800,000	-0,042	0,088
-720,050	420,707	-0,015	0,023
-719,035	290,476	0,047	-0,062
-718,021	101,738	0,104	0,089
-717,006	-112,416	0,008	0,001
-715,991	40,791	-0,152	-0,100
-714,977	-200,000	0,033	-0,109
-713,962	-144,677	-0,266	-0,018
-712,948	178,347	0,043	-0,046
-711,933	91,084	0,023	0,019
-710,918	800,000	-0,079	0,224
-709,904	-88,654	-0,178	0,039
-708,889	800,000	-0,058	0,145
-707,875	-200,000	0,034	0,155
-706,860	-140,789	0,064	0,005
-705,845	-200,000	0,023	0,082
-704,831	-58,700	0,111	-0,035
-703,816	-101,838	-0,108	0,019
-702,802	110,899	-0,012	-0,010
-701,787	-200,000	0,016	0,082
-700,772	-79,456	-0,067	-0,016
-699,758	800,000	0,058	-0,120
-698,743	-200,000	-0,003	-0,120
-697,729	78,758	0,107	-0,084
-696,714	417,830	-0,026	0,041
-695,699	57,797	-0,117	-0,084
-694,685	156,702	0,061	-0,062
-693,670	128,370	-0,054	-0,050
-692,656	-200,000	-0,018	0,113
-691,641	721,841	0,026	-0,050
-690,627	800,000	-0,029	-0,090
-689,612	700,078	0,034	0,066
-688,597	800,000	0,015	0,049
-687,583	-64,728	-0,075	-0,022
-686,568	17,465	-0,092	-0,053
-685,554	-43,905	0,028	0,010
-684,539	-200,000	-0,004	0,106
-683,524	118,593	-0,092	0,084
-682,510	401,327	-0,039	0,060
-681,495	366,719	0,081	-0,121
-680,481	800,000	0,036	-0,111
-679,466	770,039	-0,023	-0,045
-678,451	-200,000	0,001	0,011
-677,437	516,016	-0,042	0,072
-676,422	52,872	0,090	-0,063
-675,408	-200,000	-0,033	0,111
-674,393	83,865	-0,114	0,091
-673,378	-200,000	-0,043	0,219
-672,364	413,257	-0,048	0,075
-671,349	-49,837	0,067	0,023
-670,335	-200,000	0,012	-0,049
-669,320	-12,537	-0,023	-0,011
-668,305	800,000	-0,041	-0,123
-667,291	800,000	-0,040	0,113
-666,276	-200,000	0,014	-0,047
-665,262	2,724	-0,064	-0,034
-664,247	-83,781	-0,045	-0,010
-663,232	-200,000	0,009	0,034
-662,218	29,905	0,100	0,062
-661,203	330,564	0,013	0,018
-660,189	64,799	-0,102	0,075
-659,174	-180,967	-0,113	-0,002
-658,159	-200,000	-0,020	-0,155
-657,145	506,356	0,043	-0,073
-656,130	-142,707	-0,157	-0,011
-655,116	261,674	0,045	-0,058
-654,101	-95,921	0,142	0,027
-653,086	800,000	-0,059	0,136
-652,072	598,934	-0,091	-0,166
-651,057	-48,840	-0,082	-0,029
-650,043	34,645	-0,055	-0,035
-649,028	-163,200	-0,091	0,003
-648,014	211,647	0,023	0,027
-646,999	473,951	-0,080	0,132
-645,984	-111,349	-0,071	0,011
-644,970	257,537	-0,042	0,053
-643,955	507,536	0,048	0,082
-642,941	16,153	-0,132	0,076
-641,926	-200,000	-0,027	-0,152
-640,911	800,000	-0,031	0,085
-639,897	-23,570	0,038	0,017
-638,882	96,706	-0,130	-0,109
-637,868	-200,000	0,008	-0,051
-636,853	-200,000	-0,013	-0,154
-635,838	800,000	0,055	-0,118
-634,824	34,351	-0,138	-0,088
-633,809	465,855	0,091	0,149
-632,795	207,287	0,047	-0,054
-631,780	-200,000	0,011	0,186
-630,765	800,000	0,015	0,030
-629,751	174,924	-0,094	-0,099
-628,736	40,569	0,122	-0,080
-627,722	382,681	-0,064	0,097
-626,707	-98,559	0,025	0,005
-625,692	582,010	-0,071	0,128
-624,678	82,524	0,117	0,093
-623,663	469,064	0,029	-0,049
-622,649	-200,000	-0,011	-0,127
-621,634	-39,454	-0,139	-0,053
-620,619	800,000	0,062	-0,197
-619,605	-14,884	0,047	0,022
-618,590	13,933	0,178	-0,101
-617,576	487,963	0,070	-0,118
-616,561	-21,483	-0,051	0,023
-615,546	-102,045	-0,047	0,008
-614,532	-2,968	-0,152	-0,077
-613,517	-200,000	-0,002	-0,036
-612,503	-87,547	0,042	0,009
-611,488	800,000	0,037	0,076
-610,474	-200,000	0,017	0,144
-609,459	5,576	-0,083	0,045
-608,444	174,469	-0,056	0,059
-607,430	-163,730	-0,075	0,003
-606,415	793,571	-0,021	-0,043
-605,401	446,213	-0,035	-0,057
-604,386	259,658	-0,063	0,080
-603,371	-48,271	0,015	-0,005
-602,357	-123,096	-0,161	-0,019
-601,342	800,000	-0,056	-0,117
-600,328	45,900	-0,113	-0,076
-599,313	800,000	0,028	-0,068
-598,298	41,530	-0,098	0,064
-597,284	-200,000	-0,009	0,116
-596,269	-200,000	-0,001	-0,009
-595,255	-77,706	0,042	0,011
-594,240	800,000	0,018	-0,050
-593,225	41,678	0,033	-0,022
-592,211	123,870	0,075	0,069
-591,196	171,200	0,105	0,110
-590,182	-119,809	-0,084	-0,010
-589,167	-88,792	0,100	0,021
-588,152	800,000	0,033	0,068
-587,138	137,559	0,034	0,032
-586,123	-43,898	0,025	-0,009
-585,109	800,000	0,039	-0,102
-584,094	-170,641	-0,161	0,004
-583,079	22,767	-0,043	-0,026
-582,065	53,532	-0,010	0,007
-581,050	409,110	0,030	0,046
-580,036	343,800	0,079	0,113
-579,021	95,545	-0,075	-0,063
-578,006	-200,000	0,020	0,094
-576,992	800,000	-0,031	-0,082
-575,977	110,487	-0,047	-0,041
-574,963	-6,222	0,210	-0,104
-573,948	-16,426	0,078	0,036
-572,934	-200,000	-0,029	-0,125
-571,919	800,000	-0,033	-0,069
-570,904	-83,938	0,052	-0,012
-569,890	19,468	-0,076	-0,044
-568,875	517,065	-0,050	-0,085
-567,861	287,878	0,078	0,104
-566,846	-186,943	-0,157	0,002
-565,831	-200,000	0,010	0,072
-564,817	-172,363	-0,136	-0,003
-563,802	251,634	-0,059	0,074
-562,788	-66,418	0,173	0,050
-561,773	123,336	-0,076	0,070
-560,758	-24,609	0,095	-0,041
-559,744	373,100	0,034	0,051
-558,729	107,275	-0,050	0,044
-557,715	800,000	-0,048	-0,103
-556,700	-138,880	-0,079	0,006
-555,685	14,892	-0,101	-0,058
-554,671	-43,835	0,078	0,028
-553,656	-141,683	0,166	-0,012
-552,642	224,026	0,072	0,085
-551,627	-67,430	-0,052	0,015
-550,612	21,983	-0,050	0,030
-549,598	-200,000	-0,005	-0,063
-548,583	800,000	0,064	-0,138
-547,569	-140,191	0,106	0,008
-546,554	409,279	0,041	-0,064
-545,539	-200,000	-0,003	-0,044
-544,525	-50,440	0,130	-0,044
-543,510	8,787	-0,085	0,047
-542,496	-78,631	0,016	0,004
-541,481	-200,000	0,013	-0,046
-540,466	162,279	0,074	-0,076
-539,452	312,130	0,049	0,067
-538,437	-73,882	0,034	-0,009
-537,423	-83,416	-0,129	0,030
-536,408	277,078	0,067	-0,087
-535,393	461,090	-0,087	-0,142
-534,379	188,049	-0,152	-0,166
-533,364	671,444	0,058	0,110
-532,350	92,905	-0,016	-0,013
-531,335	-129,850	-0,024	-0,002
-530,321	-51,158	-0,073	-0,025
-529,306	408,979	-0,098	-0,152
-528,291	-200,000	0,004	-0,093
-527,277	22,846	-0,114	0,068
-526,262	0,588	0,058	0,030
-525,248	-200,000	0,000	0,005
-524,233	-122,366	-0,041	0,005
-523,218	543,598	-0,043	0,076
-522,204	-89,214	-0,108	-0,023
-521,189	265,062	0,054	0,069
-520,175	798,910	-0,027	0,054
-519,160	17,635	-0,098	-0,057
-518,145	-19,924	0,065	-0,029
-517,131	800,000	0,027	-0,081
-516,116	6,780	0,103	0,056
-515,102	-200,000	0,011	0,053
-514,087	-180,625	-0,091	0,001
-513,072	174,570	0,055	-0,058
-512,058	800,000	0,037	0,099
-511,043	-28,368	0,066	0,028
-510,029	696,599	0,015	-0,029
-509,014	-142,547	0,028	-0,002
-507,999	800,000	0,051	0,160
-506,985	-200,000	0,045	-0,161
-505,970	24,309	-0,054	-0,032
-504,956	-57,221	-0,070	0,022
-503,941	367,810	0,009	-0,013
-502,926	-200,000	-0,029	-0,100
-501,912	-200,000	0,022	-0,165
-500,897	492,003	-0,061	-0,102
-499,883	213,635	-0,061	0,070
-498,868	247,871	-0,012	-0,014
-497,853	-78,435	0,088	-0,022
-496,839	-113,179	0,154	-0,022
-495,824	71,400	-0,006	-0,005
-494,810	114,616	0,099	0,087
-493,795	-98,663	0,089	0,016
-492,781	38,124	-0,053	-0,034
-491,766	96,261	-0,085	0,071
-490,751	-200,000	-0,007	0,026
-489,737	162,531	0,057	0,058
-488,722	-128,791	0,118	-0,012
-487,708	278,380	0,100	0,129
-486,693	-90,965	0,031	0,006
-485,678	-200,000	0,041	-0,172
-484,664	52,916	-0,138	-0,096
-483,649	21,714	-0,154	0,091
-482,635	8,098	-0,086	0,047
-481,620	-131,060	0,108	-0,010
-480,605	800,000	0,064	0,139
-479,591	-107,636	0,172	0,027
-478,576	-200,000	-0,007	-0,074
-477,562	-200,000	0,018	-0,147
-476,547	178,504	0,051	-0,054
-475,532	-85,275	-0,121	0,027
-474,518	-41,648	0,141	-0,052
-473,503	536,854	-0,083	0,144
-472,489	-105,483	-0,102	-0,017
-471,474	-73,183	0,035	-0,009
-470,459	-200,000	-0,010	-0,045
-469,445	-103,429	-0,126	-0,021
-468,430	800,000	-0,020	0,060
-467,416	-200,000	0,042	0,141
-466,401	-127,113	0,079	-0,008
-465,386	-200,000	0,009	0,081
-464,372	-200,000	0,010	0,099
-463,357	146,617	0,134	-0,131
-462,343	-200,000	0,018	-0,104
-461,328	-32,331	0,073	0,029
-460,313	-148,455	0,041	0,002
-459,299	266,260	0,077	-0,098
-458,284	-109,437	0,070	0,011
-457,270	372,382	0,090	0,133
-456,255	-22,729	-0,078	-0,034
-455,241	351,731	-0,034	-0,049
-454,226	54,508	0,077	-0,054
-453,211	-200,000	-0,027	-0,099
-452,197	-124,552	0,078	0,009
-451,182	198,965	-0,043	0,048
-450,168	-200,000	0,004	0,128
-449,153	-6,933	0,142	0,070
-448,138	-68,797	-0,143	0,040
-447,124	178,771	0,067	-0,071
-446,109	-200,000	-0,003	0,042
-445,095	-200,000	0,005	0,072
-444,080	-51,080	0,098	0,033
-443,065	188,328	-0,091	-0,099
-442,051	275,205	-0,039	-0,050
-441,036	-105,708	-0,131	-0,021
-440,022	112,745	0,062	-0,055
-439,007	12,791	0,025	-0,014
-437,992	157,787	-0,080	0,080
-436,978	-35,059	-0,043	0,017
-435,963	800,000	-0,025	0,070
-434,949	700,024	0,040	-0,077
-433,934	-37,335	-0,103	-0,040
-432,919	-200,000	0,011	-0,071
-431,905	-200,000	0,047	0,200
-430,890	800,000	0,037	0,107
-429,876	357,188	-0,039	-0,057
-428,861	65,671	0,085	-0,062
-427,846	800,000	0,004	-0,011
-426,832	407,600	0,032	0,049
-425,817	-61,224	-0,091	-0,028
-424,803	-200,000	-0,023	-0,091
-423,788	-159,395	-0,100	-0,004
-422,773	469,308	0,062	0,102
-421,759	70,300	0,046	0,034
-420,744	-69,310	-0,126	0,035
-419,730	-115,873	-0,163	-0,022
-418,715	-78,360	0,072	-0,018
-417,701	33,219	-0,137	0,086
-416,686	338,395	-0,055	0,078
-415,671	76,556	-0,099	-0,076
-414,657	518,241	0,032	0,054
-413,642	-164,058	-0,078	0,003
-412,628	800,000	0,050	-0,106
-411,613	-111,608	0,022	-0,003
-410,598	215,509	0,043	0,049
-409,584	-200,000	-0,024	0,100
-408,569	-84,738	0,112	0,025
-407,555	-3,084	0,072	-0,036
-406,540	144,840	0,004	-0,004
-405,525	18,502	-0,092	0,053
-404,511	-41,748	-0,094	0,035
-403,496	-48,460	0,106	-0,037
-402,482	51,627	0,078	0,054
-401,467	304,747	0,042	0,057
-400,452	-200,000	-0,003	-0,018
-399,438	242,224	-0,025	0,030
-398,423	-76,754	0,066	-0,017
-397,409	-77,244	0,114	-0,029
-396,394	-2,342	0,141	-0,071
-395,379	-84,014	-0,023	0,005
-394,365	-167,210	0,024	0,001
-393,350	34,216	0,128	0,081
-392,336	-200,000	0,019	0,110
-391,321	800,000	0,047	0,138
-390,306	-159,547	-0,106	-0,004
-389,292	11,572	-0,087	0,048
-388,277	83,427	-0,053	0,042
-387,263	-41,938	0,103	0,038
-386,248	-81,772	0,152	0,036
-385,233	64,891	0,047	-0,034
-384,219	-200,000	-0,003	0,023
-383,204	207,538	-0,125	-0,141
-382,190	-57,065	-0,119	-0,038
-381,175	7,095	0,083	-0,045
-380,160	-200,000	0,002	0,031
-379,146	166,327	-0,052	-0,053
-378,131	-108,281	-0,037	-0,006
-377,117	800,000	-0,050	0,108
-376,102	741,281	0,005	0,011
-375,088	105,942	0,048	-0,041
-374,073	-200,000	0,010	-0,077
-373,058	-83,570	-0,070	0,016
-372,044	-200,000	0,049	0,169
-371,029	-192,969	-0,120	-0,001
-370,015	14,148	0,162	0,091
-369,000	-200,000	-0,017	-0,150
-367,985	-21,864	-0,155	-0,068
-366,971	-74,605	-0,047	-0,012
-365,956	800,000	-0,020	-0,045
-364,942	800,000	0,051	0,154
-363,927	-13,725	-0,154	0,072
-362,912	513,316	0,026	0,044
-361,898	-200,000	-0,005	-0,083
-360,883	800,000	0,028	-0,060
-359,869	199,260	-0,146	-0,162
-358,854	800,000	0,050	-0,131
-357,839	21,407	0,108	0,064
-356,825	800,000	-0,041	0,100
-355,810	111,467	-0,046	-0,040
-354,796	57,820	0,048	-0,034
-353,781	-141,949	-0,176	0,013
-352,766	36,590	0,013	0,008
-351,752	17,336	0,026	0,015
-350,737	-18,987	0,112	0,050
-349,723	-2,864	0,064	0,032
-348,708	23,214	0,081	-0,048
-347,693	-163,079	-0,171	0,006
-346,679	-200,000	-0,002	-0,185
-345,664	-8,874	-0,018	0,009
-344,650	800,000	-0,045	0,111
-343,635	-200,000	-0,007	0,023
-342,620	-9,205	0,166	-0,080
-341,606	258,261	0,043	-0,054
-340,591	-28,222	-0,155	0,065
-339,577	-200,000	0,032	-0,136
-338,562	-200,000	-0,028	-0,152
-337,548	277,270	-0,039	0,050
-336,533	6,000	-0,022	0,012
-335,518	-200,000	-0,020	0,132
-334,504	-200,000	-0,006	0,089
-333,489	-10,455	0,080	-0,038
-332,475	54,734	0,024	0,016
-331,460	35,979	-0,091	0,058
-330,445	800,000	-0,088	0,236
-329,431	643,279	0,009	-0,017
-328,416	-200,000	0,009	0,152
-327,402	800,000	0,056	-0,150
-326,387	90,066	0,090	0,073
-325,372	-20,155	0,049	0,022
-324,358	-90,907	-0,055	-0,011
-323,343	800,000	0,025	0,077
-322,329	800,000	-0,040	0,129
-321,314	115,939	0,086	0,076
-320,299	800,000	0,045	0,098
-319,285	-200,000	0,010	-0,139
-318,270	186,137	0,038	0,041
-317,256	-53,010	-0,078	-0,026
-316,241	261,253	0,043	-0,054
-315,226	242,813	-0,057	0,070
-314,212	-1,615	-0,015	-0,008
-313,197	202,709	0,016	0,018
-312,183	800,000	0,113	-0,235
-311,168	201,110	-0,064	-0,071
-310,153	-121,936	0,054	-0,006
-309,139	-24,332	0,103	-0,044
-308,124	800,000	0,048	0,128
-307,110	-200,000	-0,003	0,206
-306,095	206,332	0,037	0,041
-305,080	-39,434	0,038	-0,014
-304,066	-16,695	-0,064	-0,029
-303,051	-200,000	-0,020	0,066
-302,037	-200,000	0,002	0,067
-301,022	20,582	0,103	0,060
-300,008	193,213	0,045	0,049
-298,993	800,000	0,023	-0,058
-297,978	800,000	0,011	-0,028
-296,964	32,292	0,119	-0,074
-295,949	621,979	0,066	0,120
-294,935	779,665	0,041	-0,082
-293,920	-200,000	-0,002	0,037
-292,905	-200,000	-0,026	0,096
-291,891	129,268	0,220	0,203
-290,876	438,187	0,016	0,026
-289,862	-76,365	0,047	-0,012
-288,847	-200,000	-0,030	-0,107
-287,832	129,394	-0,071	-0,065
-286,818	800,000	-0,043	0,128
-285,803	800,000	-0,062	0,196
-284,789	-200,000	0,022	0,099
-283,774	295,475	0,049	-0,065
-282,759	800,000	-0,033	-0,068
-281,745	264,572	-0,055	-0,070
-280,730	-86,249	-0,055	0,012
-279,716	-83,765	0,035	-0,008
-278,701	-50,787	-0,048	0,016
-277,686	800,000	0,051	0,108
-276,672	219,921	0,028	0,032
-275,657	-37,875	-0,153	0,058
-274,643	-200,000	-0,017	0,081
-273,628	-200,000	0,009	-0,046
-272,613	-118,231	-0,043	-0,005
-271,599	-43,816	0,001	-0,000
-270,584	-200,000	0,004	0,069
-269,570	613,506	-0,044	0,080
-268,555	800,000	-0,070	-0,193
-267,540	47,607	0,019	-0,013
-266,526	-80,180	0,118	-0,028
-265,511	240,729	0,042	0,051
-264,497	91,647	0,121	0,098
-263,482	-200,000	0,003	0,042
-262,467	-40,249	0,154	-0,057
-261,453	-200,000	0,047	-0,165
-260,438	-200,000	0,022	-0,072
-259,424	-200,000	-0,023	-0,105
-258,409	-4,448	0,091	-0,045
-257,395	-200,000	-0,010	-0,091
-256,380	258,037	0,073	-0,091
-255,365	-200,000	0,021	-0,129
-254,351	-200,000	0,006	0,036
-253,336	17,452	-0,070	-0,040
-252,322	-52,347	0,069	-0,023
-251,307	121,559	0,060	-0,054
-250,292	-35,656	-0,089	0,035
-249,278	-200,000	0,013	-0,084
-248,263	800,000	-0,052	0,143
-247,249	106,217	0,032	0,027
-246,234	-200,000	0,008	-0,096
-245,219	487,189	-0,061	-0,101
-244,205	674,926	-0,062	0,117
-243,190	419,271	-0,064	0,099
-242,176	502,863	0,045	-0,075
-241,161	-74,178	0,015	-0,004
-240,146	-200,000	-0,018	-0,083
-239,132	-200,000	-0,018	-0,095
-238,117	127,797	-0,102	-0,094
-237,103	530,312	-0,076	-0,129
-236,088	-177,645	-0,122	0,002
-235,073	-99,406	0,154	0,028
-234,059	3,442	-0,063	-0,033
-233,044	-63,267	0,083	0,025
-232,030	4,570	-0,090	0,048
-231,015	214,352	0,045	0,051
-230,000	202,384	-0,086	-0,096
-228,986	800,000	0,033	-0,087
-227,971	-200,000	0,060	0,225
-226,957	412,788	0,089	-0,137
-225,942	-200,000	0,017	-0,065
-224,927	1,004	0,029	0,015
-223,913	176,645	-0,071	-0,074
-222,898	-113,706	-0,077	-0,011
-221,884	-100,471	-0,086	0,015
-220,869	-125,718	0,121	0,013
-219,855	-131,158	-0,038	0,004
-218,840	116,937	0,108	-0,096
-217,825	632,039	0,017	0,032
-216,811	-200,000	-0,000	-0,034
-215,796	-30,897	-0,075	-0,030
-214,782	-30,944	0,054	-0,022
-213,767	800,000	-0,068	0,164
-212,752	74,900	0,086	-0,065
-211,738	-200,000	-0,011	0,073
-210,723	446,786	-0,031	-0,049
-209,709	-117,082	-0,064	-0,008
-208,694	-200,000	-0,010	-0,046
-207,679	-200,000	-0,004	0,123
-206,665	11,958	0,118	-0,065
-205,650	-44,469	-0,051	-0,018
-204,636	-191,227	0,075	0,001
-203,621	19,224	0,145	0,084
-202,606	-5,050	0,070	0,034
-201,592	800,000	-0,020	-0,053
-200,577	327,464	-0,020	0,028
-199,563	-114,030	-0,144	-0,020
-198,548	-120,602	-0,103	-0,012
-197,533	101,703	0,106	0,089
-196,519	374,963	-0,069	0,101
-195,504	-93,836	-0,104	0,020
-194,490	-200,000	0,014	-0,112
-193,475	-40,372	-0,045	-0,017
-192,460	-200,000	-0,019	-0,075
-191,446	-26,186	-0,124	-0,052
-190,431	-200,000	-0,008	-0,082
-189,417	-101,016	0,078	0,014
-188,402	800,000	0,027	0,056
-187,387	-200,000	0,010	-0,131
-186,373	758,150	-0,050	0,097
-185,358	-149,696	0,074	0,004
-184,344	59,188	-0,079	-0,056
-183,329	81,738	0,072	-0,056
-182,315	155,163	0,065	0,065
-181,300	177,051	-0,073	0,076
-180,285	-78,519	0,071	0,017
-179,271	800,000	-0,030	-0,090
-178,256	4,984	0,090	-0,048
-177,242	4,179	-0,045	0,023
-176,227	-200,000	0,041	-0,145
-175,212	14,610	-0,026	0,014
-174,198	-200,000	-0,015	0,163
-173,183	364,441	0,016	-0,024
-172,169	-200,000	-0,023	0,113
-171,154	2,197	-0,098	0,051
-170,139	93,684	-0,046	-0,038
-169,125	800,000	-0,052	0,120
-168,110	326,094	-0,050	0,068
-167,096	-200,000	0,026	-0,165
-166,081	-97,467	0,115	0,021
-165,066	-151,209	-0,088	0,005
-164,052	-26,995	0,038	-0,016
-163,037	-21,587	-0,033	0,015
-162,023	-200,000	-0,015	-0,067
-161,008	-200,000	0,007	0,033
-159,993	-200,000	-0,016	0,060
-158,979	800,000	0,027	-0,066
-157,964	272,391	-0,049	-0,062
-156,950	-71,962	-0,038	-0,010
-155,935	684,336	-0,027	0,050
-154,920	800,000	-0,041	0,120
-153,906	27,814	0,061	-0,037
-152,891	-159,060	-0,070	-0,003
-151,877	123,197	0,070	0,063
-150,862	134,362	-0,018	-0,017
-149,847	-69,084	0,091	-0,025
-148,833	-78,526	0,097	-0,024
-147,818	800,000	-0,028	-0,086
-146,804	-200,000	-0,005	-0,053
-145,789	150,519	0,018	-0,018
-144,775	-44,643	-0,134	-0,048
-143,760	-102,391	-0,049	-0,008
-142,745	176,324	0,015	-0,015
-141,731	-77,286	0,065	0,016
-140,716	-77,002	0,020	-0,005
-139,702	-200,000	-0,010	0,111
-138,687	58,540	-0,031	-0,022
-137,672	443,533	0,043	-0,067
-136,658	-200,000	-0,007	0,081
-135,643	800,000	0,016	0,037
-134,629	800,000	0,005	-0,017
-133,614	139,323	-0,060	-0,057
-132,599	-200,000	0,014	-0,113
-131,585	92,334	-0,097	0,079
-130,570	406,492	0,003	0,005
-129,556	-136,465	-0,129	-0,011
-128,541	-200,000	0,012	0,048
-127,526	-152,599	0,099	-0,005
-126,512	-67,784	0,045	-0,013
-125,497	-200,000	-0,002	-0,162
-124,483	22,661	0,132	0,077
-123,468	-51,420	-0,095	-0,032
-122,453	-200,000	-0,001	0,073
-121,439	526,011	-0,007	-0,012
-120,424	793,037	-0,011	-0,022
-119,410	-124,434	0,048	-0,005
-118,395	-98,058	0,151	-0,028
-117,380	338,425	0,084	0,118
-116,366	91,324	-0,128	0,103
-115,351	-200,000	0,046	-0,170
-114,337	50,984	0,023	-0,015
-113,322	26,475	-0,142	-0,085
-112,307	-200,000	-0,008	0,092
-111,293	15,853	0,143	0,080
-110,278	146,280	-0,054	-0,052
-109,264	-94,937	0,048	-0,009
-108,249	-3,537	-0,015	-0,007
-107,234	7,922	-0,138	-0,074
-106,220	-200,000	-0,022	0,077
-105,205	11,616	0,060	0,033
-104,191	51,069	0,150	0,102
-103,176	232,169	-0,065	0,076
-102,162	-200,000	-0,006	-0,020
-101,147	800,000	0,042	0,091
-100,132	-1,093	-0,056	0,028
-99,118	109,814	0,028	0,024
-98,103	163,460	0,062	-0,062
-97,089	-168,193	-0,151	0,004
-96,074	800,000	0,058	0,169
-95,059	-200,000	-0,053	0,187
-94,045	277,416	0,016	-0,020
-93,030	590,130	0,041	0,072
-92,016	41,073	0,039	0,026
-91,001	-53,152	-0,081	0,026
-89,986	21,319	0,047	0,027
-88,972	-200,000	-0,006	0,078
-87,957	0,374	0,097	0,049
-86,943	-40,781	-0,143	0,053
-85,928	193,070	-0,098	-0,106
-84,913	24,299	-0,069	-0,041
-83,899	-47,250	-0,128	0,044
-82,884	800,000	-0,039	0,099
-81,870	-60,228	-0,071	-0,021
-80,855	-200,000	0,014	0,053
-79,840	-16,579	0,030	-0,013
-78,826	-200,000	-0,015	0,056
-77,811	800,000	-0,047	-0,097
-76,797	-24,744	0,062	-0,026
-75,782	29,011	0,019	0,011
-74,767	-200,000	0,001	-0,002
-73,753	-112,776	0,102	0,014
-72,738	800,000	-0,094	-0,226
-71,724	-128,153	0,022	0,002
-70,709	-200,000	-0,018	-0,128
-69,694	262,087	0,013	-0,016
-68,680	140,891	-0,054	0,052
-67,665	174,586	0,064	0,066
-66,651	4,270	0,071	0,037
-65,636	451,804	0,022	0,035
-64,622	-168,682	0,154	0,004
-63,607	-147,049	-0,020	0,001
-62,592	-200,000	-0,003	-0,110
-61,578	-54,743	0,093	0,030
-60,563	800,000	0,027	0,084
-59,549	-93,022	-0,092	-0,018
-58,534	55,441	-2,172	-1,502
-57,519	-200,000	-0,068	-0,489
-56,505	-200,000	-1,419	-5,185
-55,490	104,955	0,887	0,748
-54,476	800,000	5,398	12,147
-53,461	-200,000	18,853	317,676
-52,446	800,000	740,084	2320,015
-51,432	552,988	1653,132	2853,528
-50,417	109,961	1636,618	1404,569
-49,403	73,445	1287,122	962,895
-48,388	29,560	1028,868	624,626
-47,373	19,532	991,480	568,839
-46,359	16,954	979,263	553,357
-45,344	13,520	975,493	539,957
-44,330	13,906	973,850	540,291
-43,315	13,254	972,065	537,147
-42,300	13,149	970,982	536,186
-41,286	13,283	969,953	536,034
-40,271	13,133	969,229	535,123
-39,257	13,241	968,375	534,983
-38,242	13,244	967,383	534,422
-37,227	13,145	966,670	533,687
-36,213	13,160	965,713	533,186
-35,198	13,213	964,749	532,802
-34,184	13,215	964,194	532,482
-33,169	13,188	963,083	531,759
-32,154	13,243	962,206	531,433
-31,140	13,230	961,268	530,851
-30,125	13,278	960,505	530,564
-29,111	13,191	959,923	529,942
-28,096	13,211	959,081	529,519
-27,082	13,188	958,440	529,072
-26,067	13,184	957,749	528,656
-25,052	13,193	956,881	528,184
-24,038	13,196	956,216	527,806
-23,023	13,182	955,564	527,379
-22,009	13,254	954,924	527,238
-20,994	13,264	954,234	526,866
-19,979	13,246	953,672	526,476
-18,965	13,186	953,139	525,970
-17,950	13,234	952,582	525,795
-16,936	13,181	951,920	525,239
-15,921	13,151	951,314	524,788
-14,906	13,120	950,354	524,141
-13,892	13,221	949,624	524,039
-12,877	13,130	948,999	523,384
-11,863	13,089	948,528	522,970
-10,848	13,084	948,050	522,670
-9,833	13,180	947,631	522,726
-8,819	13,167	946,793	522,201
-7,804	13,097	946,250	521,657
-6,790	13,060	945,732	521,236
-5,775	13,143	945,114	521,137
-4,760	13,185	944,491	520,907
-3,746	13,132	943,721	520,292
-2,731	12,987	943,150	519,496
-1,717	12,952	942,304	518,900
-0,702	12,953	941,784	518,597
0,313	12,713	941,030	518,204
1,327	16,232	939,156	528,225
2,342	25,577	790,272	469,091
3,356	22,021	445,430	259,106
4,371	-6,542	298,502	144,850
5,386	-10,183	280,509	132,623
6,400	-11,311	274,627	128,774
7,415	-11,336	272,302	127,648
8,429	-11,462	270,704	126,772
9,444	-11,712	269,803	126,108
10,459	-11,652	269,108	125,827
11,473	-11,816	268,501	125,382
12,488	-11,748	268,011	125,204
13,502	-12,065	267,413	124,624
14,517	-12,165	266,998	124,329
15,531	-12,052	266,602	124,235
16,546	-12,017	266,176	124,058
17,561	-12,158	265,717	123,705
18,575	-12,099	265,630	123,707
19,590	-12,238	265,109	123,328
20,604	-12,026	264,768	123,350
21,619	-12,196	264,401	123,014
22,634	-12,102	264,174	122,982
23,648	-12,283	263,802	122,636
24,663	-12,361	263,663	122,489
25,677	-12,092	263,243	122,525
26,692	-12,222	263,065	122,315
27,707	-12,272	262,734	122,105
28,721	-12,273	262,493	121,982
29,736	-12,368	262,161	121,731
30,750	-12,203	261,905	121,749
31,765	-12,263	261,693	121,586
32,780	-12,268	261,538	121,498
33,794	-12,228	261,224	121,378
34,809	-12,313	260,923	121,152
35,823	-12,382	260,661	120,958
36,838	-12,393	260,388	120,811
37,853	-12,462	260,196	120,650
38,867	-12,423	260,007	120,586
39,882	-12,318	259,789	120,567
40,896	-12,450	259,619	120,361
41,911	-12,296	259,135	120,261
42,926	-12,607	258,959	119,894
43,940	-12,325	258,677	120,002
44,955	-12,538	258,507	119,725
45,969	-12,469	258,300	119,679
46,984	-12,681	257,988	119,337
47,999	-12,935	257,686	118,965
49,013	-12,931	257,479	118,862
50,028	-13,090	257,094	118,534
51,042	-13,403	257,011	118,211
52,057	-13,314	256,849	118,204
53,071	-13,158	256,353	118,101
54,086	-13,126	256,400	118,141
55,101	-13,034	256,317	118,172
56,115	-12,724	256,075	118,320
57,130	-12,031	255,936	118,848
58,144	-12,026	255,790	118,774
59,159	-12,056	255,691	118,691
60,174	-12,021	255,418	118,585
61,188	-12,154	255,057	118,291
62,203	-12,226	255,012	118,197
63,217	-12,144	254,774	118,148
64,232	-12,029	254,636	118,173
65,247	-12,058	254,247	117,956
66,261	-12,068	254,111	117,874
67,276	-12,476	253,730	117,335
68,290	-12,629	253,413	117,047
69,305	-12,682	253,022	116,809
70,320	-12,783	253,020	116,712
71,334	-12,375	252,821	116,960
72,349	-12,085	252,736	117,159
73,363	-12,002	252,619	117,165
74,378	-12,216	252,449	116,893
75,393	-12,195	252,270	116,818
76,407	-12,251	251,870	116,574
77,422	-12,423	251,762	116,367
78,436	-12,232	251,589	116,439
79,451	-12,208	251,298	116,314
80,466	-12,345	250,946	116,025
81,480	-12,537	250,807	115,786
82,495	-12,427	250,539	115,746
83,509	-12,434	250,441	115,685
84,524	-12,556	250,137	115,430
85,539	-12,675	249,893	115,207
86,553	-12,687	249,836	115,160
87,568	-12,509	249,542	115,165
88,582	-12,767	249,517	114,925
89,597	-12,564	249,169	114,925
90,611	-12,388	249,067	115,017
91,626	-12,395	248,839	114,895
92,641	-12,368	248,781	114,881
93,655	-12,664	248,620	114,547
94,670	-12,567	248,210	114,430
95,684	-12,446	248,095	114,469
96,699	-12,309	247,803	114,438
97,714	-12,715	247,693	114,037
98,728	-12,632	247,427	113,974
99,743	-12,781	247,287	113,774
100,757	-12,993	247,087	113,495
101,772	-12,689	246,871	113,639
102,787	-12,409	246,742	113,804
103,801	-12,374	246,574	113,745
104,816	-12,334	246,471	113,721
105,830	-12,330	246,343	113,656
106,845	-12,318	246,219	113,598
107,860	-12,276	245,878	113,465
108,874	-12,562	245,679	113,126
109,889	-12,410	245,366	113,097
110,903	-12,454	245,130	112,942
111,918	-12,515	245,079	112,858
112,933	-12,315	244,969	112,964
113,947	-12,347	244,779	112,839
114,962	-12,414	244,673	112,725
115,976	-12,236	244,262	112,672
116,991	-12,471	244,212	112,445
118,006	-12,470	244,168	112,416
119,020	-12,287	243,845	112,408
120,035	-12,283	243,816	112,388
121,049	-12,176	243,651	112,390
122,064	-12,243	243,351	112,186
123,079	-12,323	243,097	111,994
124,093	-12,511	242,905	111,740
125,108	-12,684	242,662	111,476
126,122	-12,942	242,427	111,147
127,137	-12,925	242,319	111,102
128,151	-12,547	242,052	111,279
129,166	-12,646	241,973	111,152
130,181	-12,679	241,625	110,955
131,195	-12,694	241,501	110,876
132,210	-12,333	241,421	111,124
133,224	-12,270	241,224	111,075
134,239	-12,218	240,989	110,999
135,254	-12,277	240,945	110,921
136,268	-12,555	240,616	110,533
137,283	-12,769	240,398	110,250
138,297	-12,708	240,164	110,182
139,312	-12,715	239,984	110,084
140,327	-12,297	239,963	110,403
141,341	-11,816	239,917	110,761
142,356	-11,959	239,808	110,585
143,370	-12,089	239,792	110,463
144,385	-11,877	239,408	110,448
145,400	-11,818	239,234	110,405
146,414	-11,781	239,070	110,349
147,429	-12,029	239,021	110,117
148,443	-11,908	238,693	110,053
149,458	-12,089	238,659	109,883
150,473	-12,085	238,515	109,809
151,487	-12,054	238,131	109,648
152,502	-12,022	237,989	109,599
153,516	-11,861	237,858	109,657
154,531	-11,990	237,700	109,472
155,546	-12,067	237,591	109,349
156,560	-12,132	237,369	109,185
157,575	-12,319	237,057	108,883
158,589	-12,257	236,979	108,887
159,604	-12,051	236,937	109,022
160,619	-11,940	236,746	109,013
161,633	-11,756	236,557	109,064
162,648	-11,883	236,387	108,874
163,662	-12,086	236,266	108,647
164,677	-12,153	236,097	108,506
165,692	-12,124	235,872	108,417
166,706	-11,746	235,951	108,743
167,721	-11,655	235,763	108,719
168,735	-11,633	235,518	108,614
169,750	-11,724	235,349	108,454
170,764	-11,979	235,256	108,200
171,779	-11,932	234,999	108,109
172,794	-11,820	234,864	108,126
173,808	-11,783	234,577	108,014
174,823	-12,538	234,301	107,282
175,837	-12,616	234,035	107,089
176,852	-12,031	234,029	107,537
177,867	-11,858	234,067	107,681
178,881	-11,953	233,939	107,538
179,896	-11,810	233,817	107,584
180,910	-11,815	233,534	107,441
181,925	-11,576	233,301	107,511
182,940	-11,720	233,307	107,392
183,954	-11,759	233,132	107,271
184,969	-11,888	233,099	107,145
185,983	-11,831	232,966	107,119
186,998	-11,754	232,637	107,018
188,013	-11,768	232,509	106,939
189,027	-11,614	232,385	106,993
190,042	-11,764	232,167	106,766
191,056	-11,472	231,900	106,861
192,071	-11,645	231,787	106,665
193,086	-11,716	231,735	106,576
194,100	-11,677	231,562	106,517
195,115	-11,769	231,392	106,358
196,129	-11,093	231,711	107,021
197,144	-5,643	233,444	112,079
198,159	-0,088	234,960	117,161
199,173	2,336	235,518	119,332
200,188	2,694	235,561	119,625
201,202	2,654	235,533	119,568
202,217	3,109	235,393	119,843
203,232	3,167	235,248	119,804
204,246	3,465	235,033	119,918
205,261	3,376	234,879	119,759
206,275	3,613	234,850	119,918
207,290	3,599	234,615	119,777
208,304	3,316	234,566	119,520
209,319	3,429	234,386	119,506
210,334	3,562	234,100	119,453
211,348	3,280	233,881	119,111
212,363	2,813	233,700	118,645
213,377	2,586	233,456	118,335
214,392	2,640	233,457	118,366
215,407	3,003	233,191	118,502
216,421	2,806	233,123	118,304
217,436	2,720	232,923	118,126
218,450	2,606	232,702	117,915
219,465	2,529	232,407	117,695
220,480	2,469	232,442	117,656
221,494	2,676	232,369	117,769
222,509	2,940	232,196	117,874
223,523	2,885	232,023	117,734
224,538	2,760	231,758	117,492
225,553	2,568	231,737	117,323
226,567	3,033	231,490	117,545
227,582	2,958	231,499	117,482
228,596	3,009	231,404	117,462
229,611	2,986	231,052	117,256
230,626	2,425	230,859	116,717
231,640	2,585	230,718	116,758
232,655	2,962	230,674	117,014
233,669	3,118	230,598	117,085
234,684	3,256	230,433	117,096
235,699	3,188	230,137	116,883
236,713	2,785	230,181	116,588
237,728	2,908	229,806	116,481
238,742	2,739	229,584	116,228
239,757	2,831	229,514	116,254
240,772	2,919	229,307	116,205
241,786	2,730	229,227	116,010
242,801	2,907	229,221	116,131
243,815	3,230	229,125	116,319
244,830	3,523	228,985	116,459
245,844	3,064	228,646	115,928
246,859	3,072	228,438	115,818
247,874	3,098	228,411	115,814
248,888	2,999	228,343	115,694
249,903	3,028	228,036	115,551
250,917	3,078	227,843	115,480
251,932	2,995	227,785	115,378
252,947	2,627	227,607	115,000
253,961	2,613	227,400	114,874
254,976	2,652	227,231	114,808
255,990	2,841	227,232	114,940
257,005	2,962	227,116	114,963
258,020	3,019	226,837	114,854
259,034	3,060	226,795	114,854
260,049	3,020	226,710	114,770
261,063	3,147	226,486	114,742
262,078	3,145	226,459	114,716
263,093	3,051	226,246	114,528
264,107	3,062	226,098	114,451
265,122	3,163	225,966	114,449
266,136	3,256	225,877	114,463
267,151	3,174	225,795	114,350
268,166	2,850	225,566	113,982
269,180	2,572	225,215	113,587
270,195	2,634	225,072	113,552
271,209	2,801	225,029	113,644
272,224	2,839	224,941	113,618
273,239	2,835	224,730	113,498
274,253	2,668	224,523	113,259
275,268	2,834	224,279	113,249
276,282	2,700	224,117	113,058
277,297	2,669	223,941	112,936
278,312	2,746	223,986	113,006
279,326	2,778	223,883	112,967
280,341	3,080	223,524	113,000
281,355	3,193	223,472	113,047
282,370	2,822	223,378	112,715
283,384	2,551	223,180	112,405
284,399	2,587	223,112	112,388
285,414	2,574	222,990	112,307
286,428	2,775	222,876	112,387
287,443	2,863	222,747	112,377
288,457	3,002	222,549	112,369
289,472	2,737	222,247	112,012
290,487	2,156	222,130	111,516
291,501	2,298	221,969	111,530
292,516	2,544	221,820	111,625
293,530	2,622	221,618	111,571
294,545	2,706	221,508	111,567
295,560	2,715	221,508	111,564
296,574	2,836	221,404	111,590
297,589	2,645	221,267	111,371
298,603	3,043	221,283	111,660
299,618	2,950	221,104	111,492
300,633	2,876	220,918	111,335
301,647	3,138	220,860	111,486
302,662	3,037	220,642	111,293
303,676	2,878	220,574	111,132
304,691	2,784	220,473	111,004
305,706	3,107	220,287	111,134
306,720	2,814	220,134	110,834
307,735	2,849	219,904	110,735
308,749	2,520	219,739	110,403
309,764	2,927	219,617	110,627
310,779	2,959	219,470	110,566
311,793	3,103	219,224	110,536
312,808	3,205	219,284	110,630
313,822	2,704	219,043	110,137
314,837	2,738	218,872	110,066
315,852	2,490	218,660	109,770
316,866	2,788	218,690	109,991
317,881	3,318	218,471	110,253
318,895	3,179	218,238	110,025
319,910	2,728	218,139	109,641
320,925	2,485	217,898	109,335
321,939	2,198	217,677	109,009
322,954	2,410	217,681	109,154
323,968	2,897	217,642	109,474
324,983	3,037	217,464	109,474
325,997	3,121	217,437	109,511
327,012	2,859	217,298	109,245
328,027	2,906	217,127	109,182
329,041	3,064	217,142	109,292
330,056	3,010	216,784	109,065
331,070	2,448	216,701	108,612
332,085	2,201	216,473	108,311
333,100	2,446	216,282	108,381
334,114	2,682	216,306	108,551
335,129	2,833	216,252	108,622
336,143	3,062	215,775	108,536
337,158	2,800	215,950	108,428
338,173	2,850	215,795	108,376
339,187	2,739	215,593	108,186
340,202	2,789	215,320	108,075
341,216	2,626	215,242	107,910
342,231	2,608	215,224	107,879
343,246	2,742	215,089	107,896
344,260	2,614	214,983	107,744
345,275	3,107	214,815	107,997
346,289	3,059	214,647	107,869
347,304	2,909	214,443	107,651
348,319	2,993	214,454	107,707
349,333	2,834	214,214	107,464
350,348	2,741	214,084	107,324
351,362	3,091	213,960	107,499
352,377	3,007	213,880	107,390
353,392	2,970	213,639	107,234
354,406	2,799	213,505	107,036
355,421	198,093	1336,467	1417,853
356,435	158,422	1473,226	1417,797
