DTS Sentinel unit serial number:	SN410029Multiplexer serial number:	ORYXHardware model number:	OX2-SRSoftware version number:	ORYX F/W v4,00 Oryx Data Collector v3.7.2.0data status	okinstallation	B6 Nyhavnadifferential loss correction	single-endedforward channel	channel 2reverse channel	N/Adate	2023/12/09time	18:40:08forward acquisition time	300,00reverse acquisition time	0,00gamma	499,1914k internal	0,3130k external	0,3130temperature offset calibration	1,0000default loss term (dB/km)	0,3820temperature slope calibration	1,0000multiplexer offset coefficient	1,0000multiplexer slope coefficient	1,0000fibre end	0,00T internal ref (°C)	21,06T ext. ref 1 (°C)	4,71T ext. ref 2 (°C)	4,71length (m)	temperature (°C)	Stokes	anti-Stokes-744,400	-158,285	0,085	0,004
-743,385	77,096	-0,230	0,182
-742,371	-134,313	0,077	0,007
-741,356	-84,900	-0,155	-0,036
-740,342	-114,239	0,105	0,015
-739,327	-10,787	-0,127	0,062
-738,312	371,579	0,023	0,034
-737,298	-144,344	-0,305	0,021
-736,283	-142,213	0,065	-0,005
-735,269	-168,851	-0,287	-0,008
-734,254	-200,000	0,031	0,124
-733,239	-61,317	-0,449	-0,140
-732,225	464,116	0,064	0,107
-731,210	-200,000	0,014	0,045
-730,196	1,325	0,146	-0,078
-729,181	-94,675	-0,125	0,025
-728,167	-72,600	0,062	0,017
-727,152	372,887	0,051	-0,078
-726,137	-200,000	-0,007	0,057
-725,123	-196,597	-0,200	-0,001
-724,108	-200,000	-0,025	-0,095
-723,094	800,000	-0,011	-0,027
-722,079	800,000	0,008	-0,016
-721,064	-86,883	-0,083	-0,019
-720,050	-200,000	0,009	-0,088
-719,035	-164,928	0,093	-0,003
-718,021	-13,149	-0,105	0,050
-717,006	133,844	-0,067	-0,064
-715,991	800,000	-0,014	0,036
-714,977	800,000	-0,042	-0,112
-713,962	-147,811	-0,045	0,003
-712,948	58,854	0,053	0,039
-711,933	-200,000	-0,021	-0,068
-710,918	512,203	-0,008	-0,015
-709,904	-2,784	-0,092	-0,048
-708,889	800,000	0,020	-0,062
-707,875	800,000	-0,042	-0,125
-706,860	545,477	-0,012	-0,021
-705,845	-200,000	0,018	0,060
-704,831	-157,477	-0,074	-0,003
-703,816	-200,000	-0,018	0,254
-702,802	33,906	-0,060	-0,039
-701,787	800,000	-0,023	0,066
-700,772	19,088	-0,044	-0,026
-699,758	437,855	-0,037	0,059
-698,743	-56,148	-0,045	0,015
-697,729	52,675	0,059	0,042
-696,714	800,000	0,035	0,075
-695,699	-43,606	-0,158	0,059
-694,685	5,700	-0,059	0,033
-693,670	-200,000	0,003	-0,046
-692,656	302,482	-0,039	-0,054
-691,641	-36,626	-0,075	0,030
-690,627	174,163	0,143	0,153
-689,612	-89,194	-0,031	0,007
-688,597	-200,000	0,011	-0,056
-687,583	8,450	-0,149	0,083
-686,568	634,200	-0,115	-0,217
-685,554	-200,000	0,034	-0,175
-684,539	-43,242	-0,041	0,015
-683,524	25,313	0,121	-0,074
-682,510	2,004	-0,128	-0,069
-681,495	135,118	0,039	-0,037
-680,481	-200,000	0,001	-0,034
-679,466	4,650	-0,081	-0,044
-678,451	68,936	-0,062	-0,047
-677,437	-162,919	-0,099	-0,004
-676,422	800,000	0,010	0,032
-675,408	800,000	-0,042	0,132
-674,393	254,709	0,048	-0,061
-673,378	186,974	-0,024	-0,026
-672,364	-131,874	-0,257	-0,025
-671,349	-143,028	0,095	-0,007
-670,335	-10,589	0,033	0,016
-669,320	-9,202	-0,162	0,080
-668,305	413,056	-0,036	-0,057
-667,291	-73,612	0,052	0,014
-666,276	199,607	0,049	-0,056
-665,262	-200,000	-0,008	-0,073
-664,247	-76,444	-0,063	-0,016
-663,232	53,886	-0,025	0,018
-662,218	9,600	0,052	0,029
-661,203	800,000	-0,020	0,061
-660,189	6,106	-0,172	-0,094
-659,174	-144,862	-0,082	-0,005
-658,159	557,742	-0,061	-0,110
-657,145	295,547	-0,074	-0,100
-656,130	-144,985	0,068	-0,005
-655,116	-200,000	0,023	-0,095
-654,101	620,050	-0,020	0,037
-653,086	14,247	-0,063	0,036
-652,072	626,634	-0,026	-0,050
-651,057	279,990	0,022	0,029
-650,043	-90,183	-0,200	-0,043
-649,028	-200,000	-0,003	0,122
-648,014	-120,842	0,180	0,022
-646,999	-140,046	0,114	-0,009
-645,984	-94,202	-0,108	0,022
-644,970	189,720	-0,040	0,044
-643,955	-200,000	-0,002	-0,008
-642,941	-94,533	-0,086	0,017
-641,926	-200,000	-0,036	-0,147
-640,911	-112,485	0,039	0,006
-639,897	357,723	-0,014	0,021
-638,882	30,568	0,013	-0,008
-637,868	-200,000	-0,084	-0,276
-636,853	-200,000	-0,082	-0,271
-635,838	800,000	0,047	-0,133
-634,824	800,000	-0,040	-0,093
-633,809	800,000	0,043	0,112
-632,795	161,957	0,038	0,039
-631,780	-125,077	0,137	-0,015
-630,765	800,000	-0,049	0,117
-629,751	-141,533	-0,016	0,001
-628,736	-200,000	-0,005	0,094
-627,722	3,639	-0,100	-0,054
-626,707	-33,194	0,052	-0,021
-625,692	23,597	-0,196	0,119
-624,678	405,041	0,052	0,082
-623,663	42,451	-0,081	-0,055
-622,649	-5,548	-0,072	-0,036
-621,634	-200,000	-0,001	-0,048
-620,619	164,439	0,069	-0,072
-619,605	-86,356	-0,108	-0,024
-618,590	141,744	0,021	-0,021
-617,576	-117,676	0,081	-0,011
-616,561	-62,604	-0,081	0,025
-615,546	800,000	-0,027	-0,057
-614,532	329,989	0,096	-0,137
-613,517	12,759	0,073	-0,041
-612,503	-200,000	-0,008	0,144
-611,488	274,907	0,053	0,070
-610,474	758,047	0,043	0,087
-609,459	50,704	-0,107	-0,075
-608,444	-178,793	-0,154	-0,003
-607,430	18,855	-0,092	-0,055
-606,415	278,246	-0,082	-0,108
-605,401	-200,000	0,013	0,151
-604,386	-200,000	-0,005	0,019
-603,371	-200,000	0,006	0,130
-602,357	-172,438	0,068	-0,002
-601,342	430,817	-0,072	0,115
-600,328	137,583	-0,036	-0,035
-599,313	463,331	0,020	-0,034
-598,298	87,254	0,080	-0,065
-597,284	473,564	-0,106	-0,177
-596,269	-200,000	-0,009	0,065
-595,255	48,286	0,093	0,064
-594,240	332,086	-0,070	-0,101
-593,225	-200,000	0,002	0,163
-592,211	178,437	0,071	-0,077
-591,196	427,358	-0,017	-0,028
-590,182	537,316	-0,068	0,119
-589,167	800,000	-0,019	0,056
-588,152	106,695	0,051	0,044
-587,138	-200,000	-0,004	0,073
-586,123	-90,796	-0,059	0,012
-585,109	-51,461	-0,074	-0,025
-584,094	800,000	-0,054	-0,125
-583,079	-200,000	0,020	0,098
-582,065	-200,000	-0,045	0,182
-581,050	334,786	-0,048	0,069
-580,036	-200,000	0,016	0,117
-579,021	800,000	-0,012	0,036
-578,006	-155,208	-0,149	0,007
-576,992	509,674	-0,056	-0,096
-575,977	152,988	0,120	-0,121
-574,963	800,000	-0,041	-0,091
-573,948	91,922	0,080	-0,067
-572,934	800,000	0,064	-0,159
-571,919	-41,110	0,070	-0,027
-570,904	-200,000	0,008	0,037
-569,890	-127,518	-0,018	-0,002
-568,875	-4,926	-0,065	-0,033
-567,861	-33,637	-0,040	-0,016
-566,846	800,000	0,014	-0,047
-565,831	-200,000	-0,010	0,036
-564,817	-200,000	-0,017	-0,072
-563,802	-200,000	0,019	-0,148
-562,788	800,000	-0,030	-0,063
-561,773	-193,649	0,116	0,001
-560,758	800,000	-0,051	0,114
-559,744	-156,040	0,041	-0,002
-558,729	-22,023	0,074	0,033
-557,715	83,173	0,009	0,007
-556,700	92,316	-0,090	-0,075
-555,685	88,115	-0,084	-0,069
-554,671	-200,000	0,000	0,038
-553,656	-142,114	-0,111	-0,008
-552,642	287,755	0,029	0,039
-551,627	-178,931	0,023	-0,000
-550,612	172,204	-0,115	0,123
-549,598	38,298	-0,045	0,030
-548,583	197,263	0,019	0,021
-547,569	311,671	-0,061	-0,084
-546,554	-8,852	0,167	-0,082
-545,539	-24,608	-0,108	0,047
-544,525	528,615	0,039	-0,069
-543,510	-200,000	0,017	-0,100
-542,496	102,602	-0,050	-0,043
-541,481	-200,000	0,025	-0,086
-540,466	36,846	-0,091	-0,059
-539,452	800,000	0,017	0,052
-538,437	800,000	-0,008	0,022
-537,423	-121,990	0,090	-0,011
-536,408	800,000	-0,033	-0,085
-535,393	141,851	-0,037	-0,036
-534,379	165,299	0,023	0,024
-533,364	-94,899	-0,102	-0,020
-532,350	74,282	0,084	0,065
-531,335	-138,633	0,104	0,008
-530,321	250,126	-0,066	0,083
-529,306	160,908	-0,096	0,099
-528,291	-200,000	0,051	-0,174
-527,277	800,000	0,047	-0,145
-526,262	800,000	-0,040	0,111
-525,248	-78,293	0,066	0,017
-524,233	-22,265	0,091	0,041
-523,218	-200,000	-0,016	-0,072
-522,204	800,000	-0,048	-0,121
-521,189	75,928	-0,056	-0,044
-520,175	42,664	-0,119	-0,079
-519,160	444,401	0,019	0,031
-518,145	-200,000	0,139	0,000
-517,131	-200,000	0,008	-0,070
-516,116	161,007	-0,010	0,010
-515,102	758,389	-0,032	0,063
-514,087	-200,000	0,016	-0,108
-513,072	-59,174	-0,050	-0,016
-512,058	-23,297	-0,090	0,040
-511,043	335,206	-0,020	0,028
-510,029	800,000	0,055	0,133
-509,014	-1,357	-0,029	-0,015
-507,999	-200,000	0,002	0,121
-506,985	293,225	-0,080	-0,107
-505,970	658,076	0,066	-0,125
-504,956	-200,000	0,021	-0,071
-503,941	800,000	0,015	-0,036
-502,926	-36,557	-0,035	0,014
-501,912	-31,548	0,172	0,071
-500,897	-120,613	-0,026	-0,003
-499,883	-25,837	0,048	-0,021
-498,868	-10,741	-0,147	-0,072
-497,853	-24,792	0,064	0,028
-496,839	198,972	0,057	0,064
-495,824	-200,000	-0,009	-0,051
-494,810	-19,692	0,105	-0,048
-493,795	-200,000	0,000	-0,062
-492,781	-200,000	-0,034	-0,155
-491,766	-7,587	-0,119	0,059
-490,751	432,109	0,054	-0,087
-489,737	88,909	0,024	0,020
-488,722	-61,969	-0,096	-0,029
-487,708	67,321	0,070	0,053
-486,693	671,218	-0,021	0,040
-485,678	800,000	-0,003	-0,009
-484,664	237,113	0,062	0,076
-483,649	-26,884	-0,095	0,041
-482,635	-200,000	-0,013	-0,173
-481,620	42,622	0,027	0,018
-480,605	-94,959	0,072	-0,014
-479,591	-88,827	0,032	0,007
-478,576	565,018	-0,003	0,006
-477,562	-16,494	0,048	0,022
-476,547	447,398	-0,060	-0,098
-475,532	96,535	0,059	-0,049
-474,518	800,000	0,036	0,084
-473,503	800,000	-0,041	0,091
-472,489	-200,000	0,018	0,078
-471,474	303,813	0,059	-0,081
-470,459	-24,697	0,049	0,021
-469,445	-154,218	0,062	-0,003
-468,430	68,906	-0,077	-0,058
-467,416	79,694	-0,114	-0,090
-466,401	-41,170	0,097	-0,037
-465,386	158,856	0,110	0,113
-464,372	-200,000	0,022	-0,082
-463,357	-72,092	-0,066	0,018
-462,343	-96,632	-0,159	-0,031
-461,328	-132,790	0,052	-0,005
-460,313	248,349	0,040	0,049
-459,299	-73,194	0,034	-0,009
-458,284	593,149	-0,067	0,122
-457,270	-60,437	-0,060	0,019
-456,255	-200,000	0,012	-0,113
-455,241	123,653	-0,046	0,043
-454,226	-200,000	-0,017	-0,082
-453,211	303,405	0,028	0,038
-452,197	62,838	-0,054	0,040
-451,182	185,581	0,071	0,077
-450,168	-200,000	-0,035	0,138
-449,153	800,000	0,034	-0,073
-448,138	-125,425	-0,067	-0,007
-447,124	367,575	0,058	-0,086
-446,109	194,590	0,053	0,059
-445,095	216,830	0,154	0,181
-444,080	265,570	0,036	-0,046
-443,065	-84,156	0,119	0,028
-442,051	-113,884	-0,084	-0,012
-441,036	-200,000	-0,008	0,058
-440,022	-200,000	-0,006	-0,071
-439,007	-119,305	-0,057	0,007
-437,992	263,122	0,066	-0,084
-436,978	9,748	0,052	-0,029
-435,963	106,784	-0,007	-0,006
-434,949	-200,000	-0,030	0,103
-433,934	-200,000	0,019	-0,065
-432,919	800,000	-0,012	-0,030
-431,905	101,752	-0,018	0,015
-430,890	215,950	0,108	0,126
-429,876	151,583	0,105	0,105
-428,861	83,315	0,084	0,067
-427,846	800,000	0,026	0,065
-426,832	800,000	-0,008	0,017
-425,817	800,000	-0,079	-0,170
-424,803	-68,398	0,075	-0,021
-423,788	-117,066	0,120	0,016
-422,773	63,643	-0,119	-0,088
-421,759	80,789	0,180	0,143
-420,744	-27,451	-0,060	0,025
-419,730	800,000	-0,021	-0,061
-418,715	-54,725	0,082	-0,027
-417,701	-200,000	-0,011	0,091
-416,686	-200,000	0,002	0,018
-415,671	-95,340	0,062	0,012
-414,657	800,000	0,010	0,032
-413,642	-200,000	0,003	0,071
-412,628	212,779	-0,042	0,048
-411,613	-200,000	-0,019	-0,145
-410,598	-147,494	0,071	0,004
-409,584	543,237	-0,050	0,088
-408,569	-41,128	-0,019	0,007
-407,555	-45,494	0,044	0,016
-406,540	561,809	-0,030	0,053
-405,525	800,000	-0,029	-0,079
-404,511	-98,096	-0,032	0,006
-403,496	800,000	-0,025	-0,054
-402,482	504,280	0,021	-0,035
-401,467	532,803	0,031	0,054
-400,452	-200,000	-0,007	0,222
-399,438	-200,000	-0,038	0,177
-398,423	184,415	0,058	-0,063
-397,409	129,668	-0,058	0,055
-396,394	786,996	0,058	-0,118
-395,379	164,657	0,046	-0,048
-394,365	325,367	-0,033	0,047
-393,350	-200,000	-0,001	0,046
-392,336	-152,529	0,058	-0,003
-391,321	-38,521	0,105	0,040
-390,306	397,038	-0,079	-0,121
-389,292	800,000	0,029	0,093
-388,277	578,866	0,057	-0,103
-387,263	499,480	0,088	0,150
-386,248	800,000	0,051	0,119
-385,233	-80,874	0,079	0,019
-384,219	-200,000	0,026	-0,083
-383,204	-136,895	-0,124	0,010
-382,190	800,000	-0,005	-0,013
-381,175	20,003	-0,087	0,051
-380,160	16,161	-0,088	0,051
-379,146	334,817	0,065	-0,093
-378,131	1,537	0,102	-0,054
-377,117	18,945	-0,053	-0,031
-376,102	175,257	0,099	-0,105
-375,088	-200,000	0,023	-0,172
-374,073	-200,000	0,002	-0,173
-373,058	151,175	0,038	-0,038
-372,044	397,562	0,059	0,090
-371,029	-105,731	0,112	0,018
-370,015	800,000	0,019	-0,044
-369,000	-200,000	0,000	-0,006
-367,985	-139,887	-0,170	0,013
-366,971	-113,260	0,075	0,011
-365,956	79,032	0,080	0,063
-364,942	-31,276	0,080	-0,033
-363,927	354,661	0,029	0,043
-362,912	800,000	-0,019	0,050
-361,898	47,797	0,084	-0,058
-360,883	-200,000	0,029	-0,175
-359,869	408,544	-0,021	-0,032
-358,854	48,682	-0,041	0,028
-357,839	-86,880	0,166	0,037
-356,825	-200,000	0,045	0,177
-355,810	-200,000	0,026	0,144
-354,796	-200,000	-0,007	-0,088
-353,781	41,529	0,074	-0,049
-352,766	-200,000	0,005	-0,102
-351,752	-53,837	0,043	0,014
-350,737	60,942	-0,040	-0,029
-349,723	798,711	-0,064	0,129
-348,708	660,158	-0,013	0,026
-347,693	-4,252	-0,163	-0,082
-346,679	-200,000	-0,014	-0,068
-345,664	198,341	-0,086	-0,096
-344,650	-153,748	0,084	-0,004
-343,635	-173,962	-0,076	-0,002
-342,620	64,252	-0,021	0,015
-341,606	-85,635	0,049	-0,011
-340,591	800,000	-0,042	0,133
-339,577	11,672	-0,087	-0,049
-338,562	-200,000	0,014	-0,062
-337,548	-200,000	0,031	0,162
-336,533	572,042	0,030	0,054
-335,518	97,524	0,051	0,043
-334,504	-200,000	0,018	0,119
-333,489	105,011	-0,081	-0,070
-332,475	800,000	-0,045	0,127
-331,460	100,856	-0,064	-0,054
-330,445	-184,559	0,126	-0,001
-329,431	-123,884	0,028	0,003
-328,416	-200,000	0,009	0,066
-327,402	3,902	0,062	-0,033
-326,387	800,000	0,067	-0,141
-325,372	-200,000	0,006	-0,075
-324,358	-200,000	-0,007	0,034
-323,343	-190,875	-0,086	-0,001
-322,329	800,000	-0,046	-0,097
-321,314	83,815	0,071	-0,057
-320,299	-200,000	-0,013	0,079
-319,285	-135,744	0,006	-0,001
-318,270	-29,111	0,064	0,027
-317,256	-200,000	0,024	0,095
-316,241	-77,906	0,100	-0,025
-315,226	-164,212	-0,075	0,002
-314,212	54,435	0,075	-0,053
-313,197	-127,623	-0,018	0,002
-312,183	-200,000	0,028	-0,133
-311,168	1,680	-0,105	0,055
-310,153	-200,000	0,005	-0,029
-309,139	-200,000	0,004	0,033
-308,124	-200,000	-0,030	0,108
-307,110	-104,542	-0,082	-0,014
-306,095	800,000	-0,078	0,192
-305,080	275,294	0,041	-0,054
-304,066	-62,927	-0,052	0,015
-303,051	354,567	0,068	0,100
-302,037	105,632	-0,131	0,113
-301,022	63,529	0,098	0,072
-300,008	75,645	-0,035	0,027
-298,993	-200,000	0,035	0,113
-297,978	-42,397	-0,150	-0,056
-296,964	-200,000	0,039	-0,210
-295,949	-21,104	-0,036	-0,016
-294,935	-34,255	-0,145	-0,058
-293,920	-46,012	0,051	-0,018
-292,905	-27,829	0,015	-0,006
-291,891	472,483	0,039	0,064
-290,876	285,222	-0,049	0,065
-289,862	800,000	0,078	0,186
-288,847	189,573	-0,005	-0,006
-287,832	-22,301	-0,115	-0,051
-286,818	148,383	-0,119	-0,118
-285,803	-200,000	-0,010	0,035
-284,789	-200,000	0,005	0,089
-283,774	226,661	0,032	0,038
-282,759	289,960	-0,062	-0,082
-281,745	-125,241	0,051	0,006
-280,730	-3,082	-0,086	-0,044
-279,716	105,331	0,044	0,038
-278,701	551,151	-0,026	0,045
-277,686	755,143	0,061	-0,121
-276,672	-200,000	0,020	-0,079
-275,657	-200,000	0,031	0,099
-274,643	162,316	0,080	-0,082
-273,628	651,679	-0,060	0,113
-272,613	29,789	-0,074	0,046
-271,599	695,775	0,099	-0,190
-270,584	-148,438	0,048	0,003
-269,570	-200,000	0,001	0,045
-268,555	-85,460	-0,105	0,024
-267,540	208,326	-0,017	-0,019
-266,526	-188,618	-0,073	-0,001
-265,511	-66,565	0,117	0,034
-264,497	-157,800	0,117	-0,005
-263,482	436,907	0,052	-0,083
-262,467	800,000	-0,012	0,031
-261,453	-119,597	0,038	-0,005
-260,438	644,611	-0,031	-0,059
-259,424	-61,129	-0,121	0,037
-258,409	-101,531	0,098	0,017
-257,395	39,634	-0,078	0,051
-256,380	90,677	0,047	-0,038
-255,365	182,809	0,086	-0,093
-254,351	32,649	-0,030	0,019
-253,336	723,932	-0,085	0,166
-252,322	-200,000	0,035	-0,150
-251,307	152,103	-0,091	-0,090
-250,292	-53,472	-0,174	-0,058
-249,278	-147,950	0,082	0,005
-248,263	235,395	0,040	0,049
-247,249	33,405	-0,055	0,035
-246,234	301,295	-0,056	-0,075
-245,219	67,989	-0,130	-0,097
-244,205	79,838	-0,011	-0,008
-243,190	-127,757	-0,114	0,012
-242,176	152,007	0,153	0,153
-241,161	-76,014	0,023	0,006
-240,146	-200,000	0,014	0,053
-239,132	-27,925	-0,078	0,033
-238,117	-2,768	0,047	-0,024
-237,103	800,000	-0,034	0,081
-236,088	50,889	-0,094	0,065
-235,073	-200,000	0,003	0,111
-234,059	-200,000	0,031	0,136
-233,044	-200,000	0,013	0,132
-232,030	552,248	0,057	0,100
-231,015	-15,188	-0,050	0,023
-230,000	-118,745	0,012	-0,002
-228,986	224,257	-0,060	-0,071
-227,971	-9,489	0,119	-0,058
-226,957	-200,000	-0,007	0,047
-225,942	-80,052	-0,142	0,034
-224,927	-87,014	0,055	-0,012
-223,913	361,439	-0,036	-0,052
-222,898	-88,161	-0,114	0,025
-221,884	-56,182	-0,125	0,040
-220,869	-200,000	0,015	0,071
-219,855	107,200	0,079	0,068
-218,840	-200,000	0,014	0,151
-217,825	-200,000	0,008	0,034
-216,811	-200,000	-0,008	-0,110
-215,796	192,204	-0,093	-0,103
-214,782	57,994	-0,103	0,073
-213,767	-200,000	-0,017	-0,079
-212,752	800,000	0,019	0,040
-211,738	92,267	0,120	0,098
-210,723	8,698	0,070	-0,038
-209,709	-200,000	-0,001	0,068
-208,694	-164,050	-0,142	-0,005
-207,679	-200,000	-0,011	-0,067
-206,665	-37,022	0,108	0,042
-205,650	168,519	0,040	-0,041
-204,636	800,000	0,044	0,123
-203,621	-200,000	-0,003	0,040
-202,606	4,866	-0,026	-0,014
-201,592	-200,000	0,006	-0,145
-200,577	340,669	0,037	0,053
-199,563	529,680	0,033	0,057
-198,548	4,016	-0,058	-0,031
-197,533	-200,000	0,013	-0,052
-196,519	-22,328	-0,111	0,049
-195,504	-91,998	-0,080	0,016
-194,490	800,000	0,030	-0,094
-193,475	800,000	-0,039	0,116
-192,460	-200,000	0,009	0,033
-191,446	-164,867	0,058	0,002
-190,431	800,000	-0,026	0,076
-189,417	-54,051	0,131	-0,043
-188,402	-138,490	0,127	0,010
-187,387	-10,573	-0,122	0,059
-186,373	-75,787	-0,036	0,009
-185,358	326,126	0,058	-0,081
-184,344	134,470	-0,150	-0,141
-183,329	-188,444	0,121	-0,001
-182,315	-200,000	-0,001	0,059
-181,300	-200,000	-0,016	0,118
-180,285	800,000	0,035	0,110
-179,271	-200,000	-0,026	-0,105
-178,256	-50,234	0,172	-0,059
-177,242	84,471	0,105	0,083
-176,227	442,488	0,050	-0,080
-175,212	-200,000	0,007	-0,027
-174,198	-200,000	-0,027	-0,127
-173,183	-200,000	-0,016	-0,090
-172,169	1,713	0,089	-0,046
-171,154	243,354	0,073	-0,089
-170,139	-200,000	0,102	0,000
-169,125	218,073	-0,107	0,124
-168,110	187,918	0,044	0,048
-167,096	17,443	-0,067	0,038
-166,081	492,712	-0,067	-0,113
-165,066	-40,329	-0,066	0,025
-164,052	-65,910	0,050	0,014
-163,037	-165,682	-0,063	-0,002
-162,023	-200,000	0,030	-0,123
-161,008	193,320	0,031	0,035
-159,993	39,893	0,038	-0,025
-158,979	37,912	0,072	-0,047
-157,964	-149,191	0,033	-0,002
-156,950	12,687	-0,110	-0,062
-155,935	793,919	0,035	0,071
-154,920	154,046	-0,057	-0,057
-153,906	-35,221	-0,024	0,010
-152,891	114,979	-0,102	0,091
-151,877	-83,043	-0,058	-0,013
-150,862	669,174	-0,014	0,027
-149,847	800,000	0,026	0,058
-148,833	-53,346	-0,056	-0,019
-147,818	459,693	0,016	-0,026
-146,804	-200,000	-0,017	-0,076
-145,789	-126,402	0,096	-0,010
-144,775	-200,000	-0,026	0,106
-143,760	463,103	0,032	0,052
-142,745	47,202	-0,087	0,059
-141,731	-43,272	-0,007	-0,003
-140,716	-200,000	-0,023	-0,074
-139,702	41,935	-0,018	-0,012
-138,687	-125,966	0,106	0,011
-137,672	-78,911	-0,194	0,048
-136,658	-150,889	-0,036	0,002
-135,643	800,000	-0,035	-0,071
-134,629	-200,000	-0,005	-0,072
-133,614	-61,980	0,083	0,025
-132,599	-1,648	0,127	0,065
-131,585	15,282	0,069	-0,039
-130,570	178,352	-0,082	-0,087
-129,556	800,000	0,019	-0,045
-128,541	-23,716	-0,048	-0,021
-127,526	-200,000	-0,021	-0,081
-126,512	331,408	0,082	-0,115
-125,497	-30,671	0,042	0,017
-124,483	167,203	-0,074	0,077
-123,468	17,707	0,048	0,027
-122,453	-200,000	0,027	-0,091
-121,439	69,480	0,020	-0,015
-120,424	800,000	0,011	-0,030
-119,410	-200,000	0,016	-0,054
-118,395	558,325	0,059	-0,103
-117,380	585,098	-0,021	-0,038
-116,366	800,000	0,010	0,022
-115,351	125,929	-0,060	0,055
-114,337	155,432	-0,061	0,061
-113,322	10,643	-0,087	-0,048
-112,307	-200,000	0,026	0,105
-111,293	800,000	-0,010	0,021
-110,278	800,000	-0,010	-0,027
-109,264	698,276	-0,017	-0,033
-108,249	-200,000	-0,015	-0,147
-107,234	16,174	-0,012	0,007
-106,220	800,000	-0,055	-0,133
-105,205	-71,108	0,090	-0,024
-104,191	-87,733	-0,068	-0,015
-103,176	454,865	0,054	-0,087
-102,162	-112,008	-0,029	-0,004
-101,147	-25,667	0,075	-0,032
-100,132	22,757	0,125	-0,074
-99,118	-67,938	0,021	-0,006
-98,103	-96,629	-0,030	-0,006
-97,089	-200,000	-0,006	-0,029
-96,074	-110,217	0,069	-0,010
-95,059	98,824	0,058	0,048
-94,045	34,742	-0,145	-0,092
-93,030	268,193	-0,097	-0,124
-92,016	294,270	-0,043	-0,058
-91,001	-200,000	-0,002	-0,026
-89,986	-200,000	-0,018	-0,062
-88,972	-160,173	-0,116	0,004
-87,957	297,731	-0,058	-0,078
-86,943	800,000	-0,014	0,030
-85,928	96,255	-0,022	-0,018
-84,913	-47,459	-0,085	-0,030
-83,899	-130,720	0,088	0,008
-82,884	-200,000	0,005	-0,021
-81,870	524,800	-0,041	-0,070
-80,855	141,512	0,048	0,046
-79,840	800,000	-0,039	-0,089
-78,826	-160,172	-0,091	0,004
-77,811	-200,000	0,005	-0,055
-76,797	-200,000	-0,017	-0,061
-75,782	177,201	-0,063	0,067
-74,767	23,544	-0,030	-0,018
-73,753	-200,000	0,020	-0,129
-72,738	29,652	0,091	0,056
-71,724	-200,000	-0,009	0,039
-70,709	-200,000	-0,001	0,107
-69,694	-112,663	0,070	-0,010
-68,680	212,246	0,018	0,020
-67,665	800,000	0,027	-0,073
-66,651	122,465	0,036	0,033
-65,636	800,000	0,022	-0,069
-64,622	417,925	-0,034	0,053
-63,607	800,000	-0,021	-0,043
-62,592	-30,592	-0,032	-0,013
-61,578	-200,000	0,013	-0,058
-60,563	-121,020	0,032	-0,004
-59,549	800,000	-0,007	0,014
-58,534	-59,290	-1,529	-0,474
-57,519	600,781	-0,831	-1,500
-56,505	-200,000	-0,955	-4,444
-55,490	-49,881	0,613	-0,209
-54,476	800,000	4,989	11,803
-53,461	-200,000	14,350	258,778
-52,446	-200,000	695,958	2234,798
-51,432	566,085	1622,234	2860,347
-50,417	117,699	1630,024	1452,539
-49,403	74,651	1284,322	977,097
-48,388	37,486	1022,356	655,047
-47,373	23,276	981,596	582,277
-46,359	22,425	970,882	573,110
-45,344	21,324	966,493	566,905
-44,330	21,246	965,185	565,862
-43,315	21,180	963,547	564,666
-42,300	21,117	962,571	563,865
-41,286	21,056	961,889	563,246
-40,271	21,098	960,676	562,650
-39,257	21,119	959,792	562,179
-38,242	21,082	958,825	561,468
-37,227	21,087	958,049	561,010
-36,213	21,023	957,037	560,189
-35,198	20,972	956,166	559,492
-34,184	21,100	955,454	559,463
-33,169	21,074	954,422	558,755
-32,154	21,172	953,738	558,647
-31,140	21,068	953,107	557,921
-30,125	21,131	952,246	557,596
-29,111	21,131	951,259	556,998
-28,096	21,043	950,676	556,351
-27,082	21,105	950,005	556,135
-26,067	21,051	949,285	555,518
-25,052	21,107	948,452	555,190
-24,038	21,109	947,644	554,700
-23,023	21,044	947,284	554,259
-22,009	21,176	946,423	554,155
-20,994	21,175	945,788	553,758
-19,979	21,105	945,298	553,227
-18,965	21,112	944,685	552,868
-17,950	21,119	944,014	552,474
-16,936	21,056	943,286	551,826
-15,921	21,030	942,681	551,367
-14,906	20,958	941,947	550,687
-13,892	21,012	941,353	550,489
-12,877	20,980	940,722	549,997
-11,863	20,954	940,047	549,498
-10,848	20,927	939,751	549,218
-9,833	21,086	939,278	549,424
-8,819	21,057	938,550	548,886
-7,804	21,028	937,936	548,413
-6,790	20,975	937,314	547,860
-5,775	21,004	936,656	547,544
-4,760	21,028	935,953	547,187
-3,746	20,995	935,476	546,783
-2,731	20,833	934,697	545,797
-1,717	20,770	934,237	545,305
-0,702	20,746	933,446	544,746
0,313	20,601	932,800	544,737
1,327	23,679	930,812	553,189
2,342	33,006	794,134	496,726
3,356	30,545	450,688	278,178
4,371	0,141	294,526	151,396
5,386	-4,335	275,515	137,369
6,400	-5,503	269,758	133,401
7,415	-5,906	267,662	131,981
8,429	-5,735	266,260	131,435
9,444	-5,709	265,356	131,001
10,459	-5,701	264,847	130,744
11,473	-5,744	264,288	130,419
12,488	-5,855	263,751	130,041
13,502	-6,019	263,224	129,620
14,517	-6,013	262,859	129,435
15,531	-5,792	262,450	129,422
16,546	-5,853	262,126	129,195
17,561	-5,641	261,572	129,101
18,575	-5,606	261,376	129,025
19,590	-5,680	260,894	128,709
20,604	-5,658	260,833	128,687
21,619	-5,770	260,344	128,334
22,634	-5,763	260,101	128,209
23,648	-5,886	259,724	127,902
24,663	-5,792	259,462	127,845
25,677	-6,004	259,455	127,641
26,692	-5,775	259,001	127,610
27,707	-5,805	258,639	127,394
28,721	-5,697	258,421	127,372
29,736	-5,875	258,156	127,071
30,750	-5,894	257,947	126,940
31,765	-5,959	257,793	126,795
32,780	-5,628	257,404	126,886
33,794	-5,747	257,218	126,678
34,809	-5,922	256,981	126,395
35,823	-5,916	256,823	126,312
36,838	-5,757	256,443	126,254
37,853	-5,805	256,267	126,113
38,867	-5,858	256,095	125,971
39,882	-5,991	255,901	125,747
40,896	-5,820	255,584	125,731
41,911	-5,978	255,362	125,472
42,926	-5,797	255,132	125,506
43,940	-5,873	254,934	125,331
44,955	-6,073	254,761	125,060
45,969	-6,035	254,602	125,003
46,984	-6,032	254,212	124,803
47,999	-6,283	253,976	124,457
49,013	-6,490	253,720	124,140
50,028	-6,552	253,445	123,941
51,042	-6,806	253,230	123,604
52,057	-6,619	252,937	123,612
53,071	-6,817	252,880	123,401
54,086	-6,596	252,662	123,475
55,101	-6,300	252,524	123,654
56,115	-6,247	252,436	123,646
57,130	-5,838	252,243	123,894
58,144	-5,483	251,927	124,035
59,159	-5,773	251,960	123,789
60,174	-5,761	251,699	123,661
61,188	-5,739	251,431	123,536
62,203	-5,838	251,260	123,357
63,217	-5,801	251,087	123,292
64,232	-5,770	250,734	123,134
65,247	-5,858	250,626	122,995
66,261	-5,889	250,400	122,846
67,276	-6,113	250,062	122,478
68,290	-6,373	249,948	122,188
69,305	-6,123	249,546	122,195
70,320	-6,111	249,393	122,119
71,334	-5,925	249,225	122,185
72,349	-5,776	249,110	122,245
73,363	-5,707	249,027	122,252
74,378	-5,663	248,828	122,181
75,393	-5,662	248,623	122,070
76,407	-5,650	248,225	121,874
77,422	-5,735	248,125	121,742
78,436	-5,785	247,885	121,570
79,451	-5,515	247,715	121,706
80,466	-5,724	247,414	121,369
81,480	-6,026	247,141	120,969
82,495	-6,144	246,971	120,775
83,509	-6,190	246,972	120,726
84,524	-5,901	246,646	120,800
85,539	-6,169	246,590	120,536
86,553	-6,122	246,220	120,384
87,568	-5,987	246,006	120,382
88,582	-6,099	245,963	120,256
89,597	-6,080	245,744	120,155
90,611	-5,831	245,540	120,253
91,626	-5,782	245,480	120,254
92,641	-5,945	245,357	120,046
93,655	-5,915	245,203	119,986
94,670	-6,060	245,016	119,762
95,684	-5,881	244,713	119,753
96,699	-6,075	244,552	119,501
97,714	-6,162	244,428	119,357
98,728	-6,260	244,228	119,167
99,743	-6,123	243,818	119,071
100,757	-6,238	243,683	118,898
101,772	-6,111	243,408	118,859
102,787	-5,943	243,429	118,998
103,801	-6,009	243,175	118,809
104,816	-6,021	243,154	118,778
105,830	-5,912	242,935	118,751
106,845	-5,806	242,805	118,765
107,860	-6,025	242,657	118,500
108,874	-5,897	242,311	118,426
109,889	-5,824	242,037	118,342
110,903	-5,818	241,899	118,269
111,918	-6,155	241,852	117,958
112,933	-6,071	241,632	117,909
113,947	-5,971	241,494	117,914
114,962	-5,999	241,350	117,810
115,976	-5,888	241,173	117,804
116,991	-5,925	240,944	117,651
118,006	-5,873	240,651	117,540
119,020	-5,948	240,671	117,478
120,035	-5,963	240,563	117,402
121,049	-5,856	240,348	117,375
122,064	-6,008	240,343	117,238
123,079	-5,785	239,923	117,204
124,093	-5,774	239,567	117,029
125,108	-5,982	239,400	116,767
126,122	-6,352	239,232	116,373
127,137	-6,221	239,154	116,432
128,151	-6,349	238,940	116,213
129,166	-5,971	238,748	116,417
130,181	-6,171	238,493	116,119
131,195	-6,183	238,457	116,082
132,210	-6,016	238,249	116,106
133,224	-5,924	238,166	116,130
134,239	-5,811	237,880	116,072
135,254	-5,830	237,674	115,945
136,268	-6,097	237,686	115,724
137,283	-6,072	237,193	115,494
138,297	-6,248	237,037	115,266
139,312	-6,346	236,935	115,127
140,327	-6,168	236,816	115,203
141,341	-5,627	236,779	115,610
142,356	-5,557	236,694	115,615
143,370	-5,588	236,446	115,459
144,385	-5,599	236,318	115,377
145,400	-5,461	236,117	115,379
146,414	-5,440	235,956	115,307
147,429	-5,569	235,641	115,040
148,443	-5,673	235,627	114,939
149,458	-5,767	235,536	114,809
150,473	-5,499	235,312	114,904
151,487	-5,690	235,075	114,626
152,502	-5,621	234,985	114,627
153,516	-5,730	234,781	114,430
154,531	-5,636	234,661	114,437
155,546	-5,628	234,342	114,278
156,560	-5,642	234,143	114,159
157,575	-5,768	234,059	114,007
158,589	-5,670	233,757	113,928
159,604	-5,780	233,974	113,936
160,619	-5,674	233,671	113,863
161,633	-5,339	233,443	114,007
162,648	-5,580	233,425	113,797
163,662	-5,578	233,139	113,649
164,677	-5,764	232,980	113,414
165,692	-5,760	232,864	113,350
166,706	-5,541	232,780	113,473
167,721	-5,519	232,696	113,439
168,735	-5,292	232,432	113,480
169,750	-5,452	232,205	113,233
170,764	-5,666	232,229	113,065
171,779	-5,431	231,810	113,036
172,794	-5,532	231,804	112,944
173,808	-5,785	231,522	112,597
174,823	-6,078	231,287	112,243
175,837	-6,160	231,085	112,070
176,852	-5,715	230,970	112,354
177,867	-5,723	230,900	112,303
178,881	-5,527	230,934	112,463
179,896	-5,664	230,647	112,206
180,910	-5,379	230,603	112,398
181,925	-5,368	230,328	112,263
182,940	-5,587	230,356	112,095
183,954	-5,345	230,078	112,139
184,969	-5,532	230,038	111,963
185,983	-5,088	229,687	112,129
186,998	-5,308	229,541	111,876
188,013	-5,362	229,429	111,769
189,027	-5,224	229,241	111,775
190,042	-5,382	229,101	111,574
191,056	-5,469	229,169	111,529
192,071	-5,337	228,962	111,521
193,086	-5,592	228,633	111,153
194,100	-5,542	228,453	111,095
195,115	-5,683	228,109	110,809
196,129	-6,439	228,049	110,185
197,144	-3,267	228,851	113,021
198,159	1,270	230,358	117,288
199,173	3,588	230,901	119,359
200,188	3,872	230,722	119,477
201,202	3,979	230,561	119,466
202,217	4,036	230,555	119,497
203,232	4,107	230,474	119,498
204,246	4,291	230,178	119,477
205,261	4,517	229,961	119,529
206,275	4,686	229,951	119,644
207,290	4,672	229,797	119,542
208,304	4,431	229,828	119,361
209,319	4,614	229,529	119,337
210,334	4,563	229,295	119,165
211,348	4,153	229,030	118,701
212,363	3,822	228,804	118,318
213,377	3,513	228,606	117,968
214,392	3,781	228,413	118,063
215,407	3,789	228,301	118,001
216,421	3,841	228,172	117,964
217,436	3,667	228,066	117,765
218,450	3,326	227,701	117,305
219,465	3,357	227,637	117,285
220,480	3,564	227,514	117,370
221,494	3,431	227,363	117,180
222,509	3,768	227,283	117,386
223,523	3,641	227,219	117,245
224,538	3,584	226,859	117,005
225,553	3,504	226,727	116,866
226,567	3,621	226,676	116,918
227,582	3,760	226,692	117,023
228,596	3,885	226,519	117,018
229,611	3,845	226,270	116,848
230,626	3,395	226,149	116,433
231,640	3,363	225,975	116,309
232,655	3,790	225,997	116,634
233,669	4,406	225,873	117,027
234,684	4,191	225,875	116,855
235,699	4,048	225,474	116,528
236,713	3,885	225,406	116,359
237,728	3,846	225,111	116,167
238,742	3,753	224,823	115,938
239,757	3,705	224,676	115,816
240,772	3,356	224,671	115,540
241,786	3,435	224,552	115,527
242,801	3,723	224,333	115,621
243,815	4,007	224,336	115,827
244,830	3,912	224,182	115,665
245,844	3,706	223,940	115,375
246,859	3,744	223,694	115,267
247,874	4,211	223,602	115,560
248,888	4,044	223,555	115,399
249,903	3,914	223,445	115,235
250,917	3,749	223,238	114,995
251,932	3,925	223,027	115,007
252,947	3,656	222,892	114,726
253,961	3,702	222,745	114,675
254,976	3,654	222,721	114,617
255,990	3,899	222,538	114,695
257,005	3,804	222,338	114,511
258,020	3,841	222,281	114,498
259,034	4,113	222,123	114,609
260,049	3,954	221,978	114,406
261,063	3,786	221,780	114,169
262,078	3,814	221,892	114,237
263,093	4,186	221,516	114,310
264,107	4,103	221,331	114,142
265,122	3,956	221,273	113,994
266,136	4,367	221,216	114,258
267,151	4,110	220,934	113,913
268,166	3,893	220,746	113,645
269,180	3,435	220,508	113,174
270,195	3,567	220,400	113,206
271,209	3,344	220,396	113,029
272,224	3,566	220,249	113,108
273,239	3,655	220,180	113,128
274,253	3,490	219,835	112,819
275,268	3,330	219,687	112,615
276,282	3,455	219,503	112,603
277,297	3,471	219,297	112,499
278,312	3,444	219,324	112,482
279,326	3,630	219,128	112,509
280,341	3,814	218,965	112,550
281,355	3,688	218,938	112,433
282,370	3,575	218,848	112,294
283,384	3,403	218,493	111,976
284,399	3,228	218,413	111,798
285,414	3,360	218,232	111,791
286,428	3,590	218,211	111,938
287,443	3,861	218,108	112,073
288,457	3,808	217,946	111,942
289,472	3,682	217,715	111,721
290,487	3,261	217,559	111,325
291,501	3,177	217,376	111,160
292,516	3,336	217,358	111,256
293,530	3,457	217,168	111,237
294,545	3,369	217,003	111,079
295,560	3,687	216,994	111,295
296,574	3,603	216,767	111,108
297,589	3,761	216,589	111,121
298,603	3,726	216,505	111,043
299,618	3,615	216,410	110,904
300,633	3,591	216,244	110,791
301,647	3,529	216,245	110,738
302,662	3,882	216,159	110,938
303,676	3,955	216,012	110,906
304,691	4,094	215,872	110,924
305,706	3,946	215,748	110,744
306,720	3,901	215,467	110,558
307,735	3,555	215,348	110,238
308,749	3,626	215,143	110,174
309,764	3,847	215,206	110,355
310,779	4,000	214,770	110,232
311,793	3,711	214,753	110,006
312,808	3,701	214,684	109,953
313,822	3,816	214,443	109,902
314,837	3,607	214,346	109,694
315,852	3,470	214,242	109,533
316,866	3,488	214,060	109,443
317,881	3,816	213,933	109,602
318,895	3,840	213,871	109,577
319,910	3,751	213,633	109,383
320,925	3,368	213,331	108,946
321,939	3,286	213,250	108,836
322,954	3,196	213,143	108,708
323,968	3,632	213,170	109,022
324,983	3,941	213,015	109,152
325,997	3,944	212,864	109,067
327,012	3,750	212,758	108,865
328,027	3,829	212,566	108,813
329,041	4,011	212,588	108,944
330,056	4,224	212,350	108,963
331,070	3,642	212,258	108,495
332,085	3,274	211,926	108,056
333,100	3,572	211,897	108,242
334,114	3,771	211,774	108,309
335,129	3,739	211,563	108,170
336,143	3,602	211,394	107,977
337,158	3,687	211,266	107,962
338,173	3,937	211,158	108,073
339,187	3,704	210,951	107,793
340,202	3,382	210,841	107,501
341,216	3,176	210,705	107,278
342,231	3,619	210,549	107,499
343,246	3,463	210,477	107,344
344,260	3,468	210,331	107,264
345,275	3,383	210,306	107,181
346,289	3,789	210,117	107,359
347,304	3,824	210,044	107,337
348,319	3,836	209,867	107,245
349,333	3,411	209,877	106,944
350,348	3,740	209,599	107,022
351,362	3,786	209,492	106,990
352,377	3,973	209,335	107,030
353,392	3,675	209,090	106,688
354,406	3,823	209,035	106,754
355,421	194,043	1344,946	1430,621
356,435	154,849	1483,410	1430,700
