DTS Sentinel unit serial number:	SN410029Multiplexer serial number:	ORYXHardware model number:	OX2-SRSoftware version number:	ORYX F/W v4,00 Oryx Data Collector v3.7.2.0data status	okinstallation	B6 Nyhavnadifferential loss correction	single-endedforward channel	channel 2reverse channel	N/Adate	2023/12/08time	13:20:08forward acquisition time	300,00reverse acquisition time	0,00gamma	499,1914k internal	0,3159k external	0,3159temperature offset calibration	1,0000default loss term (dB/km)	0,3820temperature slope calibration	1,0000multiplexer offset coefficient	1,0000multiplexer slope coefficient	1,0000fibre end	0,00T internal ref (°C)	15,06T ext. ref 1 (°C)	-1,53T ext. ref 2 (°C)	-1,53length (m)	temperature (°C)	Stokes	anti-Stokes-744,400	-200,000	-0,007	-0,115
-743,385	-159,777	-0,376	0,015
-742,371	15,446	0,169	0,098
-741,356	-200,000	-0,214	-0,000
-740,342	800,000	0,041	0,118
-739,327	-77,922	-0,221	0,056
-738,312	238,358	0,063	-0,077
-737,298	-135,246	-0,440	-0,038
-736,283	116,243	0,118	-0,107
-735,269	-166,734	-0,361	0,011
-734,254	-27,515	0,112	-0,048
-733,239	-50,439	-0,488	-0,169
-732,225	-47,813	0,214	0,076
-731,210	120,316	-0,051	-0,047
-730,196	-150,887	0,097	0,005
-729,181	153,621	-0,151	-0,152
-728,167	37,475	0,093	0,061
-727,152	-60,747	-0,105	0,033
-726,137	-200,000	-0,005	-0,040
-725,123	348,016	-0,054	-0,079
-724,108	334,271	-0,055	-0,078
-723,094	191,771	-0,083	-0,092
-722,079	3,689	-0,055	-0,029
-721,064	60,325	-0,053	0,038
-720,050	-200,000	-0,008	0,048
-719,035	-200,000	0,008	0,028
-718,021	800,000	-0,030	-0,086
-717,006	-95,913	-0,081	-0,016
-715,991	267,688	-0,085	-0,110
-714,977	77,246	-0,043	-0,033
-713,962	-84,605	-0,124	-0,028
-712,948	231,238	0,091	0,109
-711,933	800,000	0,037	0,096
-710,918	237,936	0,073	0,089
-709,904	-200,000	-0,072	0,000
-708,889	431,094	-0,053	-0,085
-707,875	-200,000	-0,028	-0,185
-706,860	-130,851	-0,065	-0,006
-705,845	800,000	-0,028	-0,071
-704,831	346,932	-0,024	0,035
-703,816	253,676	-0,053	-0,067
-702,802	68,974	-0,077	-0,058
-701,787	383,672	-0,069	-0,104
-700,772	800,000	-0,012	-0,030
-699,758	542,056	0,010	-0,017
-698,743	800,000	-0,007	-0,021
-697,729	-71,799	-0,093	-0,025
-696,714	-111,670	-0,122	-0,018
-695,699	800,000	-0,032	-0,100
-694,685	-138,520	-0,117	-0,009
-693,670	-200,000	0,014	-0,065
-692,656	29,461	-0,044	0,028
-691,641	26,005	-0,007	0,004
-690,627	-200,000	0,007	0,093
-689,612	161,665	0,073	0,075
-688,597	-73,215	0,069	-0,018
-687,583	51,939	-0,061	-0,042
-686,568	-14,770	-0,075	-0,035
-685,554	-84,442	-0,070	-0,016
-684,539	-200,000	-0,001	0,067
-683,524	256,042	0,062	0,078
-682,510	79,940	-0,051	-0,040
-681,495	164,596	0,101	-0,105
-680,481	800,000	-0,077	0,192
-679,466	138,450	-0,063	-0,061
-678,451	65,567	-0,034	-0,025
-677,437	800,000	-0,020	0,056
-676,422	337,059	-0,028	0,040
-675,408	-200,000	0,010	-0,081
-674,393	785,029	0,053	0,106
-673,378	800,000	-0,070	-0,167
-672,364	-200,000	0,009	0,051
-671,349	145,755	-0,129	-0,127
-670,335	-26,445	0,041	-0,018
-669,320	-200,000	-0,026	-0,116
-668,305	-138,494	0,054	-0,004
-667,291	-200,000	0,035	-0,187
-666,276	-200,000	0,007	0,063
-665,262	329,926	0,044	-0,063
-664,247	-200,000	0,033	-0,147
-663,232	-200,000	-0,004	-0,145
-662,218	169,126	-0,080	-0,084
-661,203	-200,000	0,004	0,021
-660,189	-52,181	0,040	0,014
-659,174	160,765	-0,076	-0,078
-658,159	76,398	-0,057	-0,044
-657,145	176,805	-0,054	-0,058
-656,130	-186,080	0,101	0,001
-655,116	-112,043	-0,073	0,011
-654,101	-62,333	0,046	0,014
-653,086	-125,940	0,027	-0,003
-652,072	359,536	-0,009	-0,013
-651,057	-149,565	-0,143	-0,008
-650,043	-200,000	-0,017	0,073
-649,028	-65,548	0,085	0,025
-648,014	-200,000	0,000	0,015
-646,999	-101,911	0,135	0,024
-645,984	-88,106	-0,139	-0,030
-644,970	800,000	-0,031	-0,081
-643,955	800,000	0,009	0,023
-642,941	-200,000	0,018	-0,240
-641,926	-200,000	-0,001	-0,102
-640,911	64,896	-0,073	-0,054
-639,897	-126,402	0,183	-0,020
-638,882	328,958	-0,056	-0,080
-637,868	800,000	0,028	-0,060
-636,853	800,000	0,044	-0,089
-635,838	-120,014	-0,052	-0,006
-634,824	62,756	0,028	0,021
-633,809	29,354	0,036	-0,022
-632,795	754,446	-0,020	0,039
-631,780	598,340	0,027	0,049
-630,765	-200,000	0,017	-0,104
-629,751	122,730	0,005	0,004
-628,736	800,000	-0,029	-0,083
-627,722	-200,000	-0,002	0,094
-626,707	314,029	-0,083	-0,115
-625,692	14,214	-0,057	0,032
-624,678	129,150	0,056	0,052
-623,663	-69,295	-0,072	0,020
-622,649	170,881	-0,129	0,136
-621,634	18,015	-0,062	-0,036
-620,619	-51,348	-0,067	0,023
-619,605	136,404	0,057	0,054
-618,590	-200,000	0,018	-0,118
-617,576	800,000	-0,064	0,136
-616,561	782,486	-0,011	-0,023
-615,546	-94,964	-0,056	-0,011
-614,532	-200,000	-0,019	-0,128
-613,517	-53,124	0,049	0,016
-612,503	-98,007	-0,125	-0,023
-611,488	-55,382	-0,087	-0,028
-610,474	-7,527	0,116	0,057
-609,459	198,064	-0,078	-0,088
-608,444	800,000	-0,054	-0,128
-607,430	-109,672	-0,219	-0,033
-606,415	800,000	-0,017	-0,040
-605,401	374,600	-0,072	0,107
-604,386	-200,000	-0,007	-0,089
-603,371	-2,272	-0,099	0,051
-602,357	-26,876	-0,077	0,033
-601,342	800,000	0,028	0,073
-600,328	-30,751	-0,208	-0,086
-599,313	376,691	0,067	-0,101
-598,298	-200,000	0,027	-0,093
-597,284	318,240	-0,039	0,055
-596,269	-200,000	0,004	-0,017
-595,255	-200,000	0,009	0,119
-594,240	31,515	-0,124	-0,078
-593,225	-200,000	0,003	0,018
-592,211	800,000	0,040	-0,099
-591,196	-170,575	-0,043	0,001
-590,182	-68,001	0,205	0,058
-589,167	231,013	0,096	-0,115
-588,152	-200,000	-0,004	0,064
-587,138	217,182	0,072	-0,084
-586,123	376,370	-0,061	-0,092
-585,109	52,793	-0,049	-0,034
-584,094	514,829	-0,089	-0,154
-583,079	-90,213	0,073	0,015
-582,065	466,017	-0,070	-0,115
-581,050	-200,000	0,028	-0,130
-580,036	-59,951	0,083	0,026
-579,021	-74,075	-0,062	0,016
-578,006	238,594	-0,062	0,076
-576,992	-25,109	-0,072	-0,031
-575,977	488,351	0,033	0,055
-574,963	242,347	0,085	-0,105
-573,948	155,986	-0,050	0,050
-572,934	343,465	0,048	-0,069
-571,919	800,000	-0,035	-0,077
-570,904	-41,605	-0,079	0,030
-569,890	-129,043	0,188	0,019
-568,875	180,153	-0,023	0,025
-567,861	-142,752	0,065	-0,005
-566,846	640,152	0,037	0,069
-565,831	-200,000	0,006	-0,041
-564,817	-200,000	-0,005	0,091
-563,802	563,620	-0,003	-0,005
-562,788	554,789	-0,025	0,045
-561,773	0,728	-0,091	-0,047
-560,758	465,877	0,015	0,025
-559,744	35,709	-0,078	0,050
-558,729	-68,757	-0,087	-0,025
-557,715	-200,000	0,002	-0,072
-556,700	139,072	-0,036	-0,034
-555,685	-116,663	-0,100	-0,013
-554,671	94,865	0,230	0,191
-553,656	-200,000	0,020	-0,089
-552,642	547,033	0,040	-0,071
-551,627	800,000	-0,057	0,121
-550,612	-200,000	-0,031	-0,120
-549,598	353,182	-0,072	0,105
-548,583	-200,000	-0,050	0,185
-547,569	-200,000	-0,035	0,138
-546,554	62,775	-0,046	-0,034
-545,539	-200,000	-0,027	0,093
-544,525	-200,000	-0,147	-0,000
-543,510	-72,153	0,043	0,011
-542,496	229,310	-0,070	0,083
-541,481	237,205	0,030	-0,037
-540,466	-200,000	0,039	-0,153
-539,452	258,899	0,055	0,070
-538,437	411,584	0,016	0,024
-537,423	107,458	-0,059	-0,051
-536,408	-53,293	-0,136	0,045
-535,393	-56,467	-0,014	-0,004
-534,379	389,489	-0,088	0,134
-533,364	555,949	-0,086	0,152
-532,350	655,615	-0,021	0,040
-531,335	454,113	0,011	0,019
-530,321	-200,000	-0,006	0,033
-529,306	-200,000	-0,032	-0,119
-528,291	-200,000	0,023	-0,074
-527,277	21,215	0,073	0,043
-526,262	346,298	0,033	0,047
-525,248	327,936	-0,041	-0,058
-524,233	306,797	-0,044	-0,060
-523,218	-57,127	0,136	-0,044
-522,204	-161,007	0,143	0,005
-521,189	-200,000	-0,001	0,016
-520,175	-200,000	-0,003	-0,026
-519,160	-142,229	-0,013	0,001
-518,145	-18,433	-0,018	-0,008
-517,131	613,277	0,088	0,162
-516,116	283,078	0,073	0,096
-515,102	-44,240	-0,158	0,057
-514,087	-200,000	0,006	-0,031
-513,072	50,971	-0,043	0,030
-512,058	800,000	-0,055	-0,125
-511,043	762,933	0,051	0,101
-510,029	297,440	0,039	-0,053
-509,014	6,153	-0,056	-0,030
-507,999	744,183	-0,042	-0,082
-506,985	93,148	-0,124	-0,102
-505,970	113,374	-0,077	0,068
-504,956	362,778	-0,072	0,107
-503,941	-76,106	0,209	0,054
-502,926	246,036	-0,062	0,076
-501,912	-200,000	-0,018	0,080
-500,897	-119,802	0,078	-0,010
-499,883	-113,683	-0,161	0,023
-498,868	-126,407	-0,042	-0,004
-497,853	800,000	-0,028	-0,065
-496,839	618,723	-0,021	0,039
-495,824	-200,000	-0,006	-0,020
-494,810	800,000	0,045	-0,115
-493,795	99,643	0,037	-0,031
-492,781	-178,032	-0,067	-0,001
-491,766	800,000	0,018	0,050
-490,751	109,433	-0,045	-0,039
-489,737	-28,222	0,070	0,030
-488,722	-152,685	0,157	0,008
-487,708	25,364	0,024	-0,015
-486,693	-31,049	0,043	-0,017
-485,678	800,000	-0,045	-0,105
-484,664	-200,000	-0,019	0,076
-483,649	300,137	0,014	-0,019
-482,635	188,137	-0,066	-0,072
-481,620	116,197	0,097	0,087
-480,605	-97,388	0,136	-0,026
-479,591	-105,168	0,172	-0,028
-478,576	800,000	-0,044	-0,123
-477,562	33,320	0,073	-0,046
-476,547	557,220	-0,101	-0,179
-475,532	-11,896	-0,039	0,019
-474,518	-146,137	0,103	0,007
-473,503	-200,000	0,012	0,078
-472,489	-200,000	-0,003	0,024
-471,474	800,000	-0,015	-0,039
-470,459	-200,000	0,021	0,095
-469,445	800,000	0,055	-0,131
-468,430	70,579	0,011	0,008
-467,416	-107,920	0,008	0,001
-466,401	-200,000	-0,015	0,103
-465,386	800,000	0,009	0,020
-464,372	244,266	-0,027	-0,033
-463,357	-200,000	-0,020	-0,105
-462,343	-49,830	-0,121	0,042
-461,328	104,901	0,027	-0,023
-460,313	-81,385	-0,044	0,010
-459,299	-200,000	0,043	0,164
-458,284	-200,000	0,015	0,070
-457,270	800,000	-0,009	-0,020
-456,255	-93,350	-0,030	0,006
-455,241	42,869	-0,095	-0,063
-454,226	579,982	0,100	-0,179
-453,211	-79,094	0,079	-0,019
-452,197	27,826	-0,026	-0,016
-451,182	-9,769	-0,007	-0,004
-450,168	223,961	0,024	0,028
-449,153	119,346	-0,088	-0,080
-448,138	-73,450	-0,171	-0,045
-447,124	61,728	0,035	-0,026
-446,109	785,453	0,047	0,095
-445,095	187,203	-0,050	0,054
-444,080	-138,410	0,074	-0,006
-443,065	-17,041	0,064	0,029
-442,051	706,134	0,033	0,064
-441,036	-200,000	-0,044	0,000
-440,022	63,583	0,083	0,060
-439,007	98,631	-0,048	0,040
-437,992	-130,253	0,104	-0,010
-436,978	-200,000	-0,017	0,057
-435,963	159,398	0,049	0,050
-434,949	-200,000	-0,023	-0,090
-433,934	107,472	-0,025	-0,022
-432,919	-51,071	-0,149	0,051
-431,905	76,264	0,048	0,037
-430,890	85,414	0,067	0,053
-429,876	-121,031	0,102	-0,012
-428,861	-200,000	0,018	-0,126
-427,846	-200,000	0,000	0,075
-426,832	182,947	-0,061	-0,065
-425,817	-72,828	-0,124	0,033
-424,803	-72,605	0,039	-0,010
-423,788	-89,871	0,050	-0,011
-422,773	-200,000	-0,007	0,089
-421,759	-200,000	-0,008	-0,074
-420,744	-9,260	0,081	-0,039
-419,730	-200,000	0,028	0,103
-418,715	-200,000	-0,004	-0,064
-417,701	800,000	0,009	-0,023
-416,686	-200,000	0,039	-0,172
-415,671	-43,208	0,084	-0,031
-414,657	-200,000	0,010	0,065
-413,642	505,971	-0,013	-0,022
-412,628	-38,883	-0,040	0,015
-411,613	153,609	0,063	-0,063
-410,598	800,000	0,021	0,044
-409,584	-98,539	0,036	-0,007
-408,569	710,615	-0,043	0,083
-407,555	-200,000	-0,006	0,054
-406,540	-101,713	0,094	-0,016
-405,525	189,278	-0,042	-0,046
-404,511	-82,357	0,035	-0,008
-403,496	-200,000	0,024	-0,100
-402,482	85,368	0,109	-0,087
-401,467	-200,000	0,022	-0,073
-400,452	-119,022	0,106	-0,013
-399,438	-120,040	0,064	0,008
-398,423	77,955	-0,141	0,109
-397,409	-200,000	-0,046	-0,162
-396,394	-200,000	0,004	-0,104
-395,379	-98,875	0,047	0,009
-394,365	-174,216	0,173	-0,004
-393,350	-112,859	-0,029	0,004
-392,336	800,000	-0,011	0,032
-391,321	26,491	0,014	-0,008
-390,306	-119,224	-0,033	-0,004
-389,292	-200,000	0,000	-0,073
-388,277	316,745	0,053	-0,073
-387,263	2,420	-0,058	0,030
-386,248	-200,000	0,004	0,043
-385,233	-111,342	0,124	0,018
-384,219	800,000	0,024	-0,059
-383,204	777,460	0,083	-0,165
-382,190	-24,985	-0,069	0,029
-381,175	-82,216	0,056	0,013
-380,160	127,238	0,016	0,015
-379,146	-43,728	-0,112	0,041
-378,131	-74,349	-0,117	-0,030
-377,117	800,000	0,027	0,074
-376,102	-101,313	-0,118	-0,021
-375,088	250,603	-0,106	0,131
-374,073	66,603	-0,060	0,044
-373,058	486,828	0,100	0,166
-372,044	800,000	-0,068	0,149
-371,029	383,410	0,046	0,069
-370,015	1,805	-0,145	0,076
-369,000	-94,644	-0,058	0,011
-367,985	-200,000	-0,012	-0,052
-366,971	220,119	0,062	-0,073
-365,956	-7,420	0,085	0,041
-364,942	-200,000	-0,001	-0,066
-363,927	98,026	0,036	-0,030
-362,912	-17,487	-0,158	0,072
-361,898	-94,188	0,096	0,019
-360,883	-200,000	0,018	-0,078
-359,869	58,405	-0,114	0,081
-358,854	-200,000	-0,006	0,031
-357,839	397,408	-0,038	0,058
-356,825	175,476	-0,070	0,074
-355,810	800,000	-0,022	0,059
-354,796	800,000	0,050	-0,150
-353,781	-200,000	-0,034	-0,196
-352,766	424,078	0,045	-0,070
-351,752	-200,000	-0,016	-0,079
-350,737	333,857	0,057	0,081
-349,723	-65,802	-0,060	-0,017
-348,708	170,383	-0,024	-0,025
-347,693	113,188	0,042	0,037
-346,679	-11,517	-0,131	-0,062
-345,664	-200,000	0,009	0,072
-344,650	-200,000	-0,031	0,099
-343,635	753,157	0,063	-0,123
-342,620	-200,000	-0,003	-0,122
-341,606	-200,000	-0,019	-0,065
-340,591	-63,947	0,050	0,015
-339,577	18,650	-0,065	-0,038
-338,562	23,718	-0,037	-0,022
-337,548	-128,740	-0,007	0,001
-336,533	-12,615	0,184	0,087
-335,518	-29,900	0,177	0,073
-334,504	-148,259	-0,074	0,004
-333,489	590,578	-0,080	0,143
-332,475	309,725	-0,069	0,094
-331,460	91,012	-0,199	0,161
-330,445	-200,000	0,041	0,174
-329,431	-200,000	0,084	0,000
-328,416	54,935	0,111	0,077
-327,402	-31,263	-0,079	0,032
-326,387	274,137	-0,092	-0,118
-325,372	800,000	-0,077	-0,191
-324,358	800,000	0,027	-0,086
-323,343	73,968	0,149	-0,113
-322,329	65,871	0,036	-0,027
-321,314	379,205	0,082	0,122
-320,299	800,000	0,003	-0,010
-319,285	113,734	-0,092	0,081
-318,270	-200,000	-0,007	-0,148
-317,256	300,678	-0,115	-0,154
-316,241	57,731	0,076	0,054
-315,226	-105,032	0,078	-0,013
-314,212	-200,000	-0,010	0,072
-313,197	216,219	0,075	0,086
-312,183	-59,453	0,058	0,018
-311,168	-183,485	-0,104	0,001
-310,153	-200,000	0,022	0,093
-309,139	297,583	-0,047	0,063
-308,124	800,000	-0,016	0,037
-307,110	-12,476	0,124	-0,059
-306,095	123,010	-0,056	0,051
-305,080	320,254	0,107	0,147
-304,066	203,412	-0,065	0,073
-303,051	121,637	-0,051	-0,046
-302,037	800,000	-0,044	0,117
-301,022	52,788	0,075	0,052
-300,008	224,753	-0,042	0,049
-298,993	-134,646	0,092	-0,008
-297,978	800,000	0,016	0,033
-296,964	221,339	-0,055	0,064
-295,949	332,008	0,008	-0,011
-294,935	186,258	-0,033	0,036
-293,920	162,777	-0,047	0,048
-292,905	-200,000	0,014	0,099
-291,891	-200,000	-0,005	0,101
-290,876	-200,000	-0,004	0,165
-289,862	-17,909	0,025	-0,011
-288,847	155,532	0,117	0,117
-287,832	800,000	-0,053	-0,122
-286,818	63,558	0,080	-0,058
-285,803	12,227	0,093	0,051
-284,789	227,551	-0,048	0,056
-283,774	-200,000	-0,022	0,152
-282,759	-200,000	-0,000	-0,060
-281,745	94,104	-0,076	0,062
-280,730	800,000	0,057	-0,126
-279,716	-200,000	-0,016	-0,060
-278,701	-200,000	0,020	0,080
-277,686	-200,000	-0,005	0,100
-276,672	-153,486	0,114	-0,006
-275,657	69,292	0,031	-0,023
-274,643	800,000	-0,029	0,093
-273,628	413,882	-0,022	-0,035
-272,613	25,520	0,104	-0,063
-271,599	-56,264	0,193	0,062
-270,584	38,638	-0,054	-0,035
-269,570	53,535	0,122	0,084
-268,555	-36,007	-0,092	0,036
-267,540	435,384	0,019	0,031
-266,526	-200,000	0,010	0,105
-265,511	176,743	0,025	0,026
-264,497	-88,966	0,090	0,019
-263,482	-10,986	0,029	0,014
-262,467	-177,248	0,063	-0,001
-261,453	-200,000	0,043	0,141
-260,438	-200,000	-0,002	-0,041
-259,424	-93,287	0,097	-0,019
-258,409	-200,000	-0,016	-0,131
-257,395	307,974	-0,051	0,069
-256,380	6,817	0,037	-0,020
-255,365	800,000	-0,013	0,033
-254,351	29,664	0,020	0,012
-253,336	42,530	-0,019	0,012
-252,322	800,000	-0,008	-0,016
-251,307	-200,000	-0,016	-0,114
-250,292	800,000	-0,032	-0,067
-249,278	-87,157	-0,113	-0,025
-248,263	752,288	0,022	0,044
-247,249	-200,000	-0,018	0,083
-246,234	-90,277	-0,066	-0,014
-245,219	90,368	-0,057	0,046
-244,205	796,559	-0,057	0,113
-243,190	14,073	0,115	0,065
-242,176	25,251	-0,055	0,033
-241,161	-48,073	0,057	0,020
-240,146	17,225	-0,104	-0,060
-239,132	-91,487	-0,063	-0,013
-238,117	800,000	-0,073	0,168
-237,103	-28,573	0,053	-0,022
-236,088	-143,044	0,099	0,007
-235,073	235,628	0,040	0,048
-234,059	800,000	0,005	0,011
-233,044	-200,000	-0,004	0,083
-232,030	-135,541	0,109	0,009
-231,015	175,621	0,023	-0,024
-230,000	-130,933	-0,113	-0,011
-228,986	-200,000	-0,020	0,144
-227,971	-155,647	0,150	-0,007
-226,957	-51,587	-0,011	0,004
-225,942	567,648	0,038	0,067
-224,927	-90,529	-0,124	0,026
-223,913	339,469	0,054	-0,077
-222,898	637,797	0,069	-0,128
-221,884	-104,309	-0,073	-0,012
-220,869	-60,794	0,105	0,032
-219,855	10,751	0,081	-0,044
-218,840	800,000	0,029	-0,059
-217,825	154,270	0,045	0,045
-216,811	60,602	-0,019	0,014
-215,796	21,630	-0,104	-0,061
-214,782	-200,000	0,008	-0,047
-213,767	-65,223	-0,058	-0,017
-212,752	65,306	0,033	-0,024
-211,738	-200,000	0,002	0,047
-210,723	125,192	0,074	-0,067
-209,709	-200,000	-0,047	-0,155
-208,694	594,616	-0,009	0,017
-207,679	-56,845	-0,069	-0,022
-206,665	325,956	-0,091	-0,126
-205,650	4,397	0,073	-0,038
-204,636	222,501	-0,076	0,088
-203,621	800,000	0,030	0,067
-202,606	-124,733	-0,024	0,003
-201,592	0,933	-0,159	-0,082
-200,577	-9,311	0,036	-0,017
-199,563	-58,342	0,109	0,034
-198,548	9,545	0,115	-0,063
-197,533	-172,769	0,043	0,001
-196,519	518,677	-0,016	0,028
-195,504	560,151	0,077	-0,136
-194,490	454,360	0,030	0,048
-193,475	-200,000	-0,079	0,000
-192,460	10,050	-0,058	-0,032
-191,446	156,513	0,017	0,017
-190,431	800,000	0,042	0,103
-189,417	-200,000	0,012	0,047
-188,402	-45,243	0,071	-0,025
-187,387	729,299	0,038	-0,073
-186,373	26,569	0,129	-0,077
-185,358	178,567	-0,086	-0,091
-184,344	123,932	0,104	0,094
-183,329	446,768	0,068	-0,108
-182,315	-33,650	-0,108	-0,043
-181,300	134,935	-0,031	-0,029
-180,285	-200,000	-0,009	-0,092
-179,271	-90,343	0,045	-0,009
-178,256	37,499	0,059	0,038
-177,242	-200,000	-0,013	0,141
-176,227	455,857	-0,067	0,107
-175,212	148,111	-0,006	-0,006
-174,198	167,561	-0,097	-0,100
-173,183	-200,000	0,030	-0,098
-172,169	-11,928	-0,048	0,023
-171,154	559,379	-0,042	-0,073
-170,139	221,257	0,080	-0,093
-169,125	104,908	0,013	0,011
-168,110	450,764	-0,027	0,043
-167,096	-65,787	0,105	-0,030
-166,081	-200,000	0,002	-0,057
-165,066	37,167	-0,039	-0,025
-164,052	3,876	0,028	-0,015
-163,037	800,000	-0,025	-0,077
-162,023	176,964	0,071	0,074
-161,008	50,625	0,043	-0,029
-159,993	-70,011	-0,154	0,042
-158,979	525,072	0,011	0,018
-157,964	-200,000	0,005	-0,199
-156,950	-200,000	0,010	0,067
-155,935	-200,000	-0,026	0,106
-154,920	800,000	0,042	0,109
-153,906	373,739	-0,033	-0,049
-152,891	57,354	0,095	-0,067
-151,877	800,000	0,036	-0,081
-150,862	410,122	-0,013	-0,020
-149,847	123,735	0,078	-0,071
-148,833	32,050	-0,106	-0,065
-147,818	-5,031	-0,061	-0,030
-146,804	-200,000	-0,001	0,098
-145,789	-200,000	-0,024	-0,096
-144,775	-200,000	0,007	-0,036
-143,760	-200,000	-0,023	-0,076
-142,745	34,223	-0,030	-0,019
-141,731	-54,950	0,119	-0,038
-140,716	68,936	0,092	0,068
-139,702	425,943	0,037	0,057
-138,687	235,173	0,036	0,043
-137,672	-200,000	0,007	0,028
-136,658	-200,000	-0,040	0,136
-135,643	14,499	0,030	-0,017
-134,629	-18,756	-0,063	-0,028
-133,614	-146,173	0,108	0,007
-132,599	-200,000	-0,006	0,134
-131,585	50,043	0,083	-0,057
-130,570	-73,922	-0,138	0,036
-129,556	800,000	0,022	-0,046
-128,541	98,182	-0,060	-0,050
-127,526	800,000	-0,046	0,137
-126,512	111,647	0,128	0,111
-125,497	-200,000	0,022	0,111
-124,483	370,449	-0,020	0,030
-123,468	-107,523	0,043	0,007
-122,453	-90,433	-0,053	0,011
-121,439	-90,304	-0,063	-0,013
-120,424	-116,652	0,080	0,010
-119,410	-178,532	-0,037	-0,001
-118,395	-200,000	-0,010	0,107
-117,380	800,000	0,056	0,147
-116,366	44,965	-0,018	0,012
-115,351	242,405	-0,040	-0,049
-114,337	-16,315	-0,006	0,003
-113,322	-72,934	0,148	-0,039
-112,307	800,000	-0,067	0,149
-111,293	-200,000	-0,016	0,099
-110,278	-200,000	0,012	0,071
-109,264	-44,122	0,087	0,031
-108,249	-116,921	-0,043	-0,006
-107,234	-200,000	0,008	-0,053
-106,220	254,821	-0,045	-0,056
-105,205	163,809	0,037	-0,038
-104,191	-200,000	0,010	0,061
-103,176	-200,000	-0,001	0,146
-102,162	800,000	-0,037	0,085
-101,147	395,995	0,048	0,073
-100,132	350,686	-0,071	-0,101
-99,118	-142,957	0,149	-0,010
-98,103	-200,000	0,030	0,137
-97,089	34,677	-0,037	-0,023
-96,074	-200,000	0,021	0,147
-95,059	800,000	-0,058	0,130
-94,045	-200,000	-0,034	0,141
-93,030	206,332	-0,032	0,036
-92,016	800,000	-0,037	0,075
-91,001	-117,320	0,021	-0,003
-89,986	233,559	-0,067	0,079
-88,972	800,000	0,051	0,111
-87,957	11,652	-0,005	-0,003
-86,943	135,904	0,018	0,017
-85,928	-200,000	-0,039	-0,135
-84,913	-200,000	0,010	0,076
-83,899	-66,152	0,080	0,023
-82,884	-53,760	-0,113	0,037
-81,870	32,862	0,070	0,043
-80,855	-200,000	-0,004	0,084
-79,840	-68,241	-0,050	-0,014
-78,826	-19,319	-0,078	0,034
-77,811	97,631	-0,043	0,036
-76,797	800,000	0,049	-0,114
-75,782	65,355	-0,039	-0,028
-74,767	-47,288	0,096	0,033
-73,753	-169,065	-0,049	0,001
-72,738	-123,972	-0,023	-0,003
-71,724	221,975	-0,034	-0,040
-70,709	-90,447	-0,020	-0,004
-69,694	-200,000	0,002	-0,008
-68,680	-128,690	0,102	0,010
-67,665	-95,665	0,065	0,012
-66,651	-111,840	0,048	0,007
-65,636	800,000	0,051	0,128
-64,622	800,000	-0,017	0,035
-63,607	-62,570	-0,164	-0,049
-62,592	-200,000	-0,022	-0,092
-61,578	23,484	0,055	-0,032
-60,563	144,625	-0,059	0,057
-59,549	-200,000	0,029	0,254
-58,534	7,067	-2,048	-1,093
-57,519	-200,000	-0,049	-0,734
-56,505	-200,000	-1,301	-5,122
-55,490	142,034	0,932	0,887
-54,476	800,000	5,045	11,543
-53,461	-200,000	17,914	289,822
-52,446	800,000	727,682	2224,028
-51,432	532,495	1640,599	2796,237
-50,417	108,800	1629,649	1396,821
-49,403	72,563	1283,077	958,932
-48,388	31,162	1025,817	629,899
-47,373	19,818	987,876	569,248
-46,359	18,234	975,734	557,047
-45,344	15,324	972,142	545,464
-44,330	15,573	970,398	545,277
-43,315	15,120	968,737	542,844
-42,300	15,129	967,585	542,207
-41,286	15,037	966,472	541,263
-40,271	15,086	965,511	540,862
-39,257	15,056	964,719	540,300
-38,242	15,035	963,908	539,757
-37,227	15,090	963,085	539,453
-36,213	15,168	962,089	539,128
-35,198	15,019	961,574	538,334
-34,184	15,129	960,493	538,062
-33,169	15,062	959,446	537,240
-32,154	15,169	958,471	537,015
-31,140	15,120	957,706	536,410
-30,125	15,194	956,950	536,203
-29,111	15,131	956,169	535,541
-28,096	15,112	955,726	535,210
-27,082	15,101	954,960	534,724
-26,067	15,120	954,141	534,306
-25,052	15,081	953,354	533,719
-24,038	15,079	952,670	533,309
-23,023	15,109	952,023	533,020
-22,009	15,126	951,536	532,782
-20,994	15,052	950,974	532,210
-19,979	15,126	950,211	531,996
-18,965	15,062	949,675	531,470
-17,950	15,100	948,881	531,129
-16,936	15,058	948,246	530,618
-15,921	15,101	947,673	530,412
-14,906	15,005	947,062	529,745
-13,892	14,956	946,306	529,144
-12,877	15,008	945,509	528,842
-11,863	14,890	945,015	528,171
-10,848	15,014	944,371	528,183
-9,833	15,077	943,928	528,115
-8,819	15,009	943,425	527,597
-7,804	14,951	942,912	527,104
-6,790	14,968	942,119	526,695
-5,775	14,989	941,547	526,420
-4,760	15,011	940,997	526,161
-3,746	15,044	940,264	525,835
-2,731	14,874	939,710	524,967
-1,717	14,813	939,130	524,428
-0,702	14,854	938,379	524,118
0,313	14,628	937,818	523,885
1,327	18,169	935,739	533,815
2,342	27,524	789,145	474,796
3,356	24,025	444,172	262,044
4,371	-5,765	295,241	144,439
5,386	-9,721	276,880	131,699
6,400	-10,916	271,197	127,875
7,415	-11,148	268,882	126,559
8,429	-11,092	267,528	125,961
9,444	-11,076	266,659	125,556
10,459	-11,192	266,048	125,151
11,473	-11,274	265,286	124,707
12,488	-11,445	264,913	124,366
13,502	-11,389	264,232	124,086
14,517	-11,435	263,795	123,828
15,531	-11,273	263,480	123,815
16,546	-11,318	263,271	123,665
17,561	-11,311	262,857	123,466
18,575	-11,047	262,428	123,490
19,590	-11,244	262,126	123,161
20,604	-11,118	261,866	123,140
21,619	-11,411	261,527	122,709
22,634	-11,374	261,309	122,628
23,648	-11,444	260,791	122,312
24,663	-11,341	260,646	122,324
25,677	-11,203	260,233	122,242
26,692	-11,273	260,038	122,078
27,707	-11,487	259,827	121,778
28,721	-11,358	259,440	121,699
29,736	-11,336	259,148	121,571
30,750	-11,383	258,814	121,362
31,765	-11,367	258,674	121,300
32,780	-11,270	258,538	121,311
33,794	-11,397	258,343	121,097
34,809	-11,489	258,090	120,886
35,823	-11,481	257,706	120,703
36,838	-11,355	257,474	120,694
37,853	-11,518	257,200	120,412
38,867	-11,589	257,067	120,277
39,882	-11,423	256,730	120,253
40,896	-11,365	256,505	120,189
41,911	-11,481	256,287	119,973
42,926	-11,447	256,011	119,864
43,940	-11,426	255,763	119,755
44,955	-11,485	255,663	119,646
45,969	-11,572	255,335	119,406
46,984	-11,583	255,101	119,276
47,999	-11,809	254,658	118,863
49,013	-12,266	254,675	118,463
50,028	-12,292	254,266	118,239
51,042	-12,333	254,054	118,095
52,057	-12,572	254,038	117,869
53,071	-12,241	253,634	117,958
54,086	-12,136	253,296	117,881
55,101	-12,136	253,300	117,873
56,115	-11,869	253,247	118,068
57,130	-11,375	253,111	118,420
58,144	-11,143	253,039	118,576
59,159	-11,195	252,770	118,394
60,174	-11,244	252,476	118,204
61,188	-11,239	252,343	118,136
62,203	-11,240	252,033	117,979
63,217	-11,219	251,740	117,849
64,232	-11,229	251,579	117,755
65,247	-11,364	251,453	117,569
66,261	-11,437	251,316	117,433
67,276	-11,520	250,949	117,180
68,290	-11,782	250,617	116,791
69,305	-11,958	250,503	116,577
70,320	-11,708	250,202	116,640
71,334	-11,357	250,044	116,854
72,349	-11,077	249,801	116,968
73,363	-11,125	249,738	116,888
74,378	-11,261	249,604	116,699
75,393	-11,284	249,329	116,541
76,407	-11,301	249,114	116,415
77,422	-11,305	248,980	116,339
78,436	-11,249	248,667	116,230
79,451	-11,156	248,441	116,192
80,466	-11,437	248,249	115,855
81,480	-11,613	247,963	115,563
82,495	-11,726	247,854	115,406
83,509	-11,601	247,781	115,467
84,524	-11,621	247,507	115,313
85,539	-11,910	247,161	114,898
86,553	-11,767	247,109	114,984
87,568	-11,864	247,086	114,881
88,582	-11,679	246,646	114,821
89,597	-11,720	246,596	114,753
90,611	-11,373	246,374	114,931
91,626	-11,302	246,218	114,907
92,641	-11,332	245,914	114,730
93,655	-11,578	245,863	114,491
94,670	-11,495	245,611	114,432
95,684	-11,650	245,284	114,140
96,699	-11,496	245,239	114,238
97,714	-11,726	245,053	113,950
98,728	-11,792	244,814	113,774
99,743	-11,802	244,528	113,622
100,757	-11,744	244,315	113,561
101,772	-11,801	244,151	113,427
102,787	-11,553	244,010	113,557
103,801	-11,649	243,869	113,402
104,816	-11,700	243,840	113,336
105,830	-11,411	243,636	113,470
106,845	-11,400	243,375	113,347
107,860	-11,317	243,104	113,279
108,874	-11,494	242,998	113,075
109,889	-11,547	242,742	112,901
110,903	-11,719	242,558	112,665
111,918	-11,723	242,282	112,523
112,933	-11,611	242,288	112,607
113,947	-11,704	242,179	112,471
114,962	-11,363	241,808	112,568
115,976	-11,290	241,728	112,580
116,991	-11,397	241,489	112,372
118,006	-11,508	241,236	112,153
119,020	-11,658	241,267	112,035
120,035	-11,418	241,147	112,165
121,049	-11,462	240,940	112,023
122,064	-11,505	240,917	111,967
123,079	-11,422	240,523	111,841
124,093	-11,656	240,227	111,503
125,108	-11,874	240,004	111,213
126,122	-12,031	239,927	111,040
127,137	-11,927	239,601	110,963
128,151	-11,995	239,596	110,895
129,166	-11,900	239,331	110,840
130,181	-11,771	239,126	110,840
131,195	-11,784	238,890	110,710
132,210	-11,710	238,794	110,716
133,224	-11,621	238,614	110,694
134,239	-11,452	238,362	110,704
135,254	-11,545	238,290	110,585
136,268	-11,777	238,144	110,320
137,283	-11,624	237,676	110,217
138,297	-11,859	237,542	109,956
139,312	-11,804	237,451	109,949
140,327	-11,550	237,512	110,171
141,341	-11,224	237,345	110,345
142,356	-11,102	237,205	110,368
143,370	-11,149	236,818	110,141
144,385	-11,200	236,877	110,118
145,400	-11,047	236,574	110,090
146,414	-11,323	236,656	109,897
147,429	-11,108	236,231	109,861
148,443	-11,271	236,093	109,657
149,458	-11,258	236,084	109,654
150,473	-11,108	235,712	109,591
151,487	-11,341	235,734	109,405
152,502	-11,233	235,509	109,378
153,516	-11,164	235,277	109,315
154,531	-11,228	235,156	109,198
155,546	-11,347	234,890	108,970
156,560	-11,232	234,712	108,969
157,575	-11,440	234,435	108,666
158,589	-11,498	234,304	108,550
159,604	-11,017	234,310	108,923
160,619	-11,091	234,192	108,800
161,633	-11,125	233,955	108,654
162,648	-11,040	233,864	108,669
163,662	-11,168	233,565	108,419
164,677	-11,240	233,359	108,257
165,692	-11,271	233,336	108,213
166,706	-11,005	233,232	108,364
167,721	-10,904	233,038	108,344
168,735	-10,960	233,059	108,300
169,750	-10,974	232,800	108,159
170,764	-10,984	232,583	108,040
171,779	-11,135	232,484	107,866
172,794	-11,055	232,320	107,843
173,808	-11,160	231,953	107,581
174,823	-11,892	231,846	106,950
175,837	-11,848	231,514	106,821
176,852	-11,385	231,526	107,179
177,867	-11,026	231,374	107,379
178,881	-11,041	231,375	107,358
179,896	-11,042	231,222	107,276
180,910	-11,175	230,982	107,052
181,925	-10,977	230,858	107,140
182,940	-11,055	230,764	107,025
183,954	-11,006	230,635	106,994
184,969	-10,810	230,494	107,071
185,983	-10,645	230,199	107,053
186,998	-10,937	230,067	106,755
188,013	-10,880	230,013	106,765
189,027	-10,882	229,807	106,658
190,042	-10,982	229,660	106,503
191,056	-10,999	229,514	106,413
192,071	-11,057	229,380	106,296
193,086	-11,105	229,308	106,217
194,100	-11,024	228,998	106,126
195,115	-11,342	228,712	105,739
196,129	-11,621	228,715	105,516
197,144	-6,246	230,298	110,401
198,159	-0,710	231,975	115,502
199,173	2,576	232,960	118,542
200,188	3,099	232,837	118,876
201,202	3,168	232,642	118,819
202,217	3,237	232,673	118,878
203,232	3,570	232,387	118,980
204,246	3,698	232,350	119,049
205,261	3,703	232,197	118,964
206,275	4,003	232,134	119,153
207,290	3,780	231,965	118,884
208,304	3,691	231,944	118,793
209,319	3,703	231,507	118,568
210,334	3,681	231,351	118,461
211,348	3,415	231,113	118,123
212,363	3,071	230,904	117,741
213,377	2,953	230,708	117,540
214,392	3,016	230,602	117,523
215,407	2,950	230,554	117,438
216,421	3,137	230,415	117,501
217,436	2,916	230,124	117,172
218,450	2,785	229,845	116,919
219,465	2,727	229,885	116,884
220,480	2,791	229,718	116,838
221,494	2,813	229,555	116,762
222,509	3,171	229,483	116,989
223,523	3,085	229,457	116,899
224,538	2,912	229,087	116,568
225,553	2,836	228,977	116,444
226,567	3,165	228,808	116,599
227,582	3,178	228,794	116,591
228,596	3,569	228,551	116,754
229,611	3,065	228,475	116,321
230,626	2,888	228,087	115,979
231,640	2,742	228,133	115,881
232,655	3,145	227,959	116,088
233,669	3,601	227,878	116,382
234,684	3,414	227,685	116,132
235,699	3,269	227,517	115,926
236,713	3,243	227,363	115,818
237,728	3,068	227,250	115,617
238,742	2,937	227,024	115,394
239,757	3,090	226,907	115,439
240,772	3,021	226,698	115,270
241,786	2,829	226,521	115,025
242,801	3,081	226,385	115,136
243,815	3,625	226,425	115,556
244,830	3,602	226,305	115,466
245,844	3,072	225,966	114,885
246,859	3,044	225,795	114,767
247,874	3,442	225,635	114,974
248,888	3,133	225,589	114,709
249,903	3,244	225,401	114,686
250,917	2,993	225,218	114,394
251,932	3,018	225,030	114,307
252,947	3,016	224,890	114,225
253,961	2,653	224,810	113,903
254,976	2,834	224,565	113,903
255,990	3,267	224,573	114,221
257,005	3,276	224,426	114,142
258,020	3,094	224,361	113,963
259,034	3,184	224,308	113,993
260,049	3,165	224,117	113,872
261,063	3,067	224,015	113,737
262,078	3,514	223,768	113,934
263,093	3,542	223,671	113,895
264,107	3,401	223,485	113,685
265,122	3,026	223,503	113,406
266,136	3,378	223,367	113,588
267,151	3,496	223,003	113,480
268,166	3,092	222,832	113,084
269,180	2,758	222,557	112,688
270,195	3,018	222,341	112,760
271,209	2,881	222,411	112,685
272,224	3,110	222,289	112,782
273,239	3,158	222,065	112,694
274,253	2,966	222,006	112,512
275,268	2,904	221,671	112,286
276,282	2,804	221,514	112,124
277,297	2,930	221,324	112,110
278,312	2,969	221,225	112,078
279,326	3,213	221,238	112,254
280,341	2,943	221,058	111,954
281,355	3,223	220,940	112,090
282,370	2,971	220,902	111,876
283,384	2,949	220,560	111,676
284,399	2,698	220,474	111,440
285,414	2,527	220,305	111,220
286,428	2,924	220,168	111,430
287,443	3,204	220,173	111,627
288,457	3,080	220,102	111,491
289,472	3,079	219,740	111,297
290,487	2,823	219,432	110,944
291,501	2,543	219,385	110,708
292,516	2,578	219,396	110,728
293,530	2,725	219,242	110,748
294,545	2,534	219,148	110,552
295,560	2,873	219,021	110,724
296,574	3,034	218,788	110,713
297,589	2,725	218,696	110,433
298,603	3,157	218,533	110,653
299,618	3,006	218,421	110,477
300,633	2,968	218,362	110,410
301,647	3,398	218,099	110,577
302,662	3,340	218,139	110,546
303,676	3,088	217,974	110,271
304,691	3,164	217,805	110,231
305,706	3,457	217,531	110,293
306,720	3,266	217,491	110,125
307,735	3,074	217,249	109,855
308,749	2,954	217,115	109,691
309,764	3,180	217,142	109,857
310,779	3,279	216,894	109,793
311,793	3,213	216,712	109,644
312,808	3,251	216,606	109,608
313,822	3,042	216,413	109,351
314,837	3,001	216,366	109,288
315,852	2,700	216,121	108,939
316,866	3,058	216,100	109,175
317,881	3,304	215,854	109,216
318,895	3,096	215,695	108,978
319,910	3,100	215,567	108,906
320,925	2,767	215,348	108,549
321,939	2,305	215,243	108,157
322,954	2,821	215,246	108,517
323,968	2,988	215,201	108,603
324,983	3,224	214,951	108,635
325,997	3,314	214,895	108,660
327,012	2,990	214,671	108,308
328,027	3,243	214,523	108,403
329,041	3,575	214,512	108,623
330,056	3,510	214,411	108,516
331,070	2,897	214,166	107,949
332,085	2,850	213,873	107,758
333,100	2,632	213,723	107,519
334,114	3,148	213,468	107,745
335,129	2,899	213,669	107,661
336,143	3,038	213,462	107,645
337,158	3,271	213,252	107,693
338,173	3,001	213,128	107,431
339,187	2,847	213,002	107,250
340,202	2,581	212,798	106,952
341,216	2,664	212,718	106,960
342,231	2,956	212,536	107,064
343,246	3,002	212,503	107,069
344,260	3,013	212,348	106,989
345,275	3,028	212,341	106,987
346,289	3,519	212,097	107,198
347,304	3,100	211,952	106,823
348,319	3,063	211,847	106,734
349,333	2,897	211,699	106,534
350,348	3,163	211,497	106,608
351,362	3,474	211,433	106,783
352,377	3,181	211,384	106,545
353,392	3,092	211,172	106,366
354,406	3,139	211,020	106,314
355,421	195,241	1341,255	1417,605
356,435	155,931	1478,923	1417,575
