DTS Sentinel unit serial number:	SN410029Multiplexer serial number:	ORYXHardware model number:	OX2-SRSoftware version number:	ORYX F/W v4,00 Oryx Data Collector v3.7.2.0data status	okinstallation	B6 Nyhavnadifferential loss correction	single-endedforward channel	channel 2reverse channel	N/Adate	2023/12/07time	14:30:08forward acquisition time	300,00reverse acquisition time	0,00gamma	499,1914k internal	0,3196k external	0,3196temperature offset calibration	1,0000default loss term (dB/km)	0,3820temperature slope calibration	1,0000multiplexer offset coefficient	1,0000multiplexer slope coefficient	1,0000fibre end	0,00T internal ref (°C)	13,74T ext. ref 1 (°C)	-1,75T ext. ref 2 (°C)	-1,75length (m)	temperature (°C)	Stokes	anti-Stokes-744,400	-200,000	-0,001	0,006
-743,385	-87,352	-0,405	-0,089
-742,371	-200,000	0,018	0,187
-741,356	49,756	-0,335	0,230
-740,342	-122,105	0,106	0,012
-739,327	-86,861	-0,393	-0,087
-738,312	339,089	0,029	0,041
-737,298	-9,433	-0,287	-0,139
-736,283	-117,171	0,127	-0,017
-735,269	2,683	-0,287	-0,151
-734,254	3,418	0,040	-0,021
-733,239	-36,103	-0,516	-0,202
-732,225	-48,858	0,232	0,080
-731,210	800,000	0,027	-0,057
-730,196	45,553	-0,086	-0,057
-729,181	24,868	-0,122	-0,073
-728,167	29,493	0,053	0,032
-727,152	379,290	-0,060	0,090
-726,137	-109,768	-0,196	-0,030
-725,123	179,988	0,064	-0,069
-724,108	8,178	-0,082	0,045
-723,094	-200,000	0,007	-0,139
-722,079	-66,512	-0,060	-0,017
-721,064	281,406	-0,056	0,074
-720,050	-200,000	-0,000	-0,046
-719,035	-200,000	0,016	-0,118
-718,021	63,369	-0,043	0,031
-717,006	-200,000	-0,010	0,092
-715,991	-37,396	-0,142	-0,055
-714,977	34,612	0,028	-0,018
-713,962	-85,628	0,127	0,029
-712,948	-200,000	-0,006	-0,071
-711,933	-200,000	-0,018	0,064
-710,918	28,132	-0,076	-0,047
-709,904	29,236	-0,153	-0,094
-708,889	-93,948	-0,033	-0,006
-707,875	-118,448	-0,063	0,008
-706,860	32,214	-0,023	-0,015
-705,845	-14,416	-0,097	0,045
-704,831	800,000	-0,061	-0,187
-703,816	800,000	-0,058	-0,118
-702,802	465,295	0,059	0,097
-701,787	607,563	-0,095	-0,173
-700,772	-92,668	0,022	-0,005
-699,758	-46,045	0,140	-0,050
-698,743	-200,000	0,004	0,051
-697,729	609,985	0,035	-0,063
-696,714	-200,000	-0,015	0,082
-695,699	-71,442	-0,088	-0,024
-694,685	-200,000	-0,023	-0,128
-693,670	-200,000	-0,003	0,028
-692,656	-77,876	0,006	0,002
-691,641	-4,322	-0,076	-0,038
-690,627	338,400	-0,058	0,082
-689,612	106,359	0,079	0,068
-688,597	226,942	0,036	0,042
-687,583	364,360	0,035	0,051
-686,568	-81,502	-0,112	0,027
-685,554	617,782	0,035	0,063
-684,539	-47,023	0,097	0,034
-683,524	56,260	0,078	-0,055
-682,510	488,031	-0,048	0,079
-681,495	67,867	-0,026	0,019
-680,481	123,152	0,098	-0,089
-679,466	800,000	-0,019	-0,043
-678,451	-200,000	-0,025	-0,155
-677,437	468,235	0,072	0,117
-676,422	-76,900	0,042	-0,011
-675,408	137,529	-0,029	-0,027
-674,393	62,685	-0,086	-0,063
-673,378	-3,576	-0,073	0,037
-672,364	111,580	-0,048	-0,042
-671,349	-67,941	-0,076	0,022
-670,335	-10,384	-0,073	0,035
-669,320	116,004	0,132	0,118
-668,305	-200,000	0,005	-0,026
-667,291	257,438	-0,093	-0,117
-666,276	-200,000	0,017	-0,099
-665,262	-200,000	0,009	-0,133
-664,247	62,497	0,068	-0,049
-663,232	-200,000	0,002	0,110
-662,218	-200,000	-0,002	-0,041
-661,203	31,517	0,107	0,067
-660,189	725,531	0,027	-0,053
-659,174	271,368	0,041	-0,053
-658,159	-55,959	-0,106	-0,034
-657,145	-135,537	-0,098	0,008
-656,130	-200,000	-0,008	-0,089
-655,116	30,297	-0,094	-0,058
-654,101	24,237	0,070	0,042
-653,086	-200,000	-0,014	-0,099
-652,072	-62,164	-0,034	0,010
-651,057	331,701	-0,071	0,099
-650,043	-16,370	-0,106	0,049
-649,028	-200,000	-0,022	0,141
-648,014	-32,461	-0,061	0,024
-646,999	-200,000	-0,024	-0,082
-645,984	-200,000	0,012	0,079
-644,970	-28,779	-0,137	0,057
-643,955	-54,254	-0,097	-0,032
-642,941	-41,405	-0,121	0,045
-641,926	-39,281	-0,103	-0,039
-640,911	14,914	0,043	-0,024
-639,897	-200,000	0,003	0,014
-638,882	99,793	0,103	-0,087
-637,868	-85,825	-0,098	0,022
-636,853	41,852	0,052	-0,034
-635,838	-200,000	-0,007	-0,176
-634,824	-84,613	-0,103	-0,023
-633,809	58,955	0,039	0,028
-632,795	-157,770	0,042	0,002
-631,780	144,702	-0,062	-0,060
-630,765	-23,860	-0,093	0,040
-629,751	800,000	-0,026	-0,057
-628,736	800,000	-0,015	0,035
-627,722	89,334	0,046	0,037
-626,707	-136,877	0,157	-0,013
-625,692	-150,703	-0,185	-0,010
-624,678	-200,000	-0,019	0,183
-623,663	-0,432	-0,087	-0,045
-622,649	-25,782	-0,033	-0,014
-621,634	149,691	-0,029	-0,028
-620,619	-200,000	-0,010	0,036
-619,605	88,028	0,090	0,073
-618,590	-72,175	-0,085	0,023
-617,576	330,445	-0,038	0,053
-616,561	84,020	-0,082	-0,065
-615,546	391,858	0,084	-0,127
-614,532	182,559	-0,073	0,078
-613,517	5,756	0,065	-0,035
-612,503	85,388	0,077	-0,061
-611,488	99,950	0,091	0,076
-610,474	-55,218	0,095	0,031
-609,459	-200,000	-0,021	0,156
-608,444	-92,524	-0,138	0,028
-607,430	-30,877	0,082	-0,033
-606,415	-66,590	-0,068	0,019
-605,401	-108,968	0,190	0,029
-604,386	20,908	0,032	-0,019
-603,371	-116,800	0,124	0,016
-602,357	-200,000	0,028	0,109
-601,342	-200,000	0,031	-0,130
-600,328	91,529	-0,089	-0,073
-599,313	-200,000	0,021	0,082
-598,298	47,454	-0,018	-0,012
-597,284	-140,080	0,071	0,005
-596,269	-200,000	0,008	-0,028
-595,255	800,000	-0,017	0,036
-594,240	111,607	-0,074	-0,065
-593,225	97,956	0,076	0,063
-592,211	81,099	-0,077	-0,060
-591,196	-200,000	0,002	-0,101
-590,182	64,881	-0,049	0,036
-589,167	800,000	0,042	0,114
-588,152	197,965	0,092	0,102
-587,138	342,393	-0,057	-0,082
-586,123	9,612	-0,137	-0,075
-585,109	602,425	0,054	-0,097
-584,094	-200,000	-0,018	-0,180
-583,079	800,000	-0,017	-0,043
-582,065	800,000	-0,032	0,085
-581,050	75,397	-0,066	0,051
-580,036	-53,950	-0,089	0,029
-579,021	-200,000	-0,014	0,050
-578,006	-200,000	0,027	-0,097
-576,992	-121,548	-0,051	0,006
-575,977	800,000	0,041	-0,124
-574,963	-121,335	0,105	0,013
-573,948	527,507	-0,058	-0,100
-572,934	141,876	0,031	0,029
-571,919	28,833	-0,047	0,029
-570,904	800,000	-0,034	-0,100
-569,890	163,493	-0,084	-0,085
-568,875	-33,864	0,054	0,022
-567,861	-78,439	0,138	0,034
-566,846	800,000	0,095	0,211
-565,831	103,205	-0,114	-0,097
-564,817	26,120	-0,046	0,028
-563,802	-24,415	-0,128	0,055
-562,788	-200,000	-0,013	-0,150
-561,773	-200,000	-0,002	0,025
-560,758	-200,000	0,028	0,111
-559,744	-139,802	0,085	-0,006
-558,729	454,761	-0,048	-0,077
-557,715	-200,000	0,005	0,058
-556,700	426,837	-0,078	-0,122
-555,685	-93,882	0,107	0,021
-554,671	406,348	0,032	-0,048
-553,656	-200,000	-0,009	-0,047
-552,642	-25,713	-0,140	0,059
-551,627	-27,153	-0,079	-0,033
-550,612	-32,410	0,038	0,015
-549,598	133,753	-0,081	0,076
-548,583	-165,353	0,093	-0,003
-547,569	800,000	0,048	-0,127
-546,554	77,933	0,095	-0,073
-545,539	-94,081	0,104	0,020
-544,525	-119,907	-0,134	0,016
-543,510	-94,487	-0,126	0,025
-542,496	284,170	-0,142	0,185
-541,481	-54,486	-0,063	-0,020
-540,466	-22,038	-0,090	-0,039
-539,452	800,000	-0,062	0,125
-538,437	800,000	0,034	0,089
-537,423	-148,236	0,132	-0,008
-536,408	-24,265	0,112	-0,048
-535,393	-54,333	-0,086	0,028
-534,379	35,108	0,036	-0,023
-533,364	-55,202	-0,110	0,035
-532,350	6,852	0,155	-0,083
-531,335	-21,942	-0,095	0,042
-530,321	-1,829	-0,044	-0,022
-529,306	62,414	0,105	0,075
-528,291	-200,000	0,038	-0,134
-527,277	276,620	-0,066	-0,084
-526,262	-120,987	-0,021	0,002
-525,248	-173,196	0,132	0,003
-524,233	450,140	-0,022	-0,035
-523,218	-200,000	0,035	0,112
-522,204	-200,000	0,002	0,073
-521,189	247,970	0,003	0,004
-520,175	-200,000	-0,025	-0,176
-519,160	800,000	0,018	0,039
-518,145	-78,574	-0,088	0,022
-517,131	14,794	0,060	0,034
-516,116	172,867	0,062	0,065
-515,102	337,222	-0,042	0,060
-514,087	129,004	-0,053	0,048
-513,072	570,974	-0,030	-0,054
-512,058	-200,000	-0,019	-0,115
-511,043	800,000	0,025	0,069
-510,029	-16,544	0,055	0,025
-509,014	207,035	-0,061	0,069
-507,999	223,802	0,061	-0,071
-506,985	-200,000	-0,001	-0,082
-505,970	-122,868	-0,056	0,006
-504,956	-200,000	-0,007	-0,055
-503,941	800,000	0,023	-0,060
-502,926	-2,400	0,072	0,036
-501,912	800,000	0,024	-0,054
-500,897	66,663	0,046	-0,034
-499,883	-30,982	0,101	0,041
-498,868	298,925	0,040	-0,054
-497,853	-83,873	-0,235	0,053
-496,839	-200,000	0,006	-0,057
-495,824	800,000	-0,019	0,047
-494,810	-32,139	-0,075	-0,030
-493,795	554,780	-0,029	0,050
-492,781	-131,689	-0,133	-0,012
-491,766	-17,099	0,056	-0,025
-490,751	273,258	-0,058	0,075
-489,737	-200,000	-0,007	-0,047
-488,722	79,365	0,042	-0,033
-487,708	395,820	0,013	-0,019
-486,693	77,944	-0,069	0,053
-485,678	-200,000	0,033	-0,111
-484,664	800,000	-0,081	-0,192
-483,649	-61,065	-0,109	-0,033
-482,635	-60,538	0,131	0,040
-481,620	800,000	0,048	-0,100
-480,605	142,993	-0,031	-0,030
-479,591	800,000	0,011	0,029
-478,576	309,211	-0,131	0,177
-477,562	235,652	-0,045	0,054
-476,547	-200,000	-0,003	-0,021
-475,532	-140,606	0,092	-0,007
-474,518	-200,000	0,025	0,094
-473,503	64,018	-0,050	0,036
-472,489	394,953	0,099	0,149
-471,474	139,830	0,120	-0,114
-470,459	57,017	-0,088	-0,061
-469,445	-200,000	0,011	0,062
-468,430	-200,000	-0,016	0,127
-467,416	-200,000	-0,009	0,114
-466,401	133,786	0,056	0,053
-465,386	82,995	0,065	0,051
-464,372	-119,892	0,082	-0,010
-463,357	-110,045	-0,234	-0,035
-462,343	-184,485	-0,023	0,000
-461,328	435,156	0,056	-0,088
-460,313	800,000	-0,025	0,064
-459,299	-200,000	-0,049	0,167
-458,284	-200,000	-0,001	0,068
-457,270	735,665	-0,031	0,061
-456,255	583,568	0,040	-0,071
-455,241	-68,939	-0,045	0,012
-454,226	-173,989	-0,076	0,002
-453,211	41,313	0,093	0,060
-452,197	-200,000	0,020	0,145
-451,182	-200,000	0,033	0,128
-450,168	-89,243	0,067	0,014
-449,153	-144,818	-0,055	-0,004
-448,138	288,801	-0,076	-0,099
-447,124	-48,581	0,080	-0,028
-446,109	191,582	0,046	0,050
-445,095	0,021	0,061	0,031
-444,080	503,759	0,077	0,128
-443,065	-127,650	0,048	-0,005
-442,051	800,000	-0,010	0,025
-441,036	582,918	0,058	-0,103
-440,022	-200,000	-0,025	-0,104
-439,007	72,966	-0,075	-0,057
-437,992	35,552	-0,077	0,049
-436,978	-100,533	-0,051	-0,009
-435,963	-53,771	0,115	-0,038
-434,949	201,315	-0,139	0,154
-433,934	156,424	-0,141	-0,140
-432,919	-166,787	-0,041	-0,001
-431,905	-119,307	-0,072	-0,009
-430,890	-109,895	0,046	0,007
-429,876	24,790	0,049	-0,029
-428,861	293,608	-0,015	-0,020
-427,846	183,201	0,098	-0,104
-426,832	-97,570	-0,198	-0,037
-425,817	-80,148	-0,110	0,026
-424,803	-76,040	-0,079	0,020
-423,788	46,224	0,045	0,030
-422,773	64,323	-0,026	0,018
-421,759	207,659	0,019	-0,021
-420,744	-200,000	-0,025	-0,145
-419,730	-200,000	-0,032	-0,210
-418,715	143,154	-0,087	0,083
-417,701	382,688	0,076	0,113
-416,686	14,580	-0,114	-0,064
-415,671	-199,369	0,191	0,001
-414,657	800,000	-0,049	0,131
-413,642	-99,584	0,067	0,012
-412,628	652,411	-0,045	-0,083
-411,613	-48,442	0,073	-0,025
-410,598	337,610	-0,017	-0,024
-409,584	800,000	0,065	0,156
-408,569	-200,000	0,012	0,041
-407,555	-22,826	0,088	0,038
-406,540	-115,371	-0,111	0,015
-405,525	58,808	0,036	0,025
-404,511	-58,395	-0,135	-0,042
-403,496	800,000	-0,050	-0,135
-402,482	294,554	0,054	-0,071
-401,467	381,465	-0,061	-0,090
-400,452	800,000	-0,018	-0,046
-399,438	-200,000	0,006	0,105
-398,423	-64,071	-0,007	0,002
-397,409	800,000	0,034	-0,074
-396,394	198,945	-0,037	0,040
-395,379	754,484	-0,037	0,072
-394,365	-57,520	0,129	-0,040
-393,350	-14,529	0,164	0,076
-392,336	501,624	-0,056	0,094
-391,321	39,427	-0,017	0,011
-390,306	-200,000	-0,019	-0,111
-389,292	-125,845	-0,030	0,003
-388,277	-51,526	0,071	-0,024
-387,263	108,797	0,059	-0,050
-386,248	-200,000	0,001	0,093
-385,233	-200,000	-0,003	0,013
-384,219	-200,000	0,002	0,069
-383,204	-52,488	0,146	-0,048
-382,190	66,927	0,023	0,017
-381,175	479,036	0,050	0,082
-380,160	-115,341	0,060	0,008
-379,146	800,000	0,051	0,104
-378,131	-52,040	0,047	0,016
-377,117	572,929	-0,044	0,078
-376,102	16,585	-0,049	0,028
-375,088	-129,193	-0,006	0,001
-374,073	21,650	0,080	-0,046
-373,058	-200,000	0,007	-0,077
-372,044	800,000	0,020	0,041
-371,029	125,654	0,127	0,115
-370,015	800,000	-0,050	0,132
-369,000	81,326	0,150	-0,116
-367,985	-62,986	-0,140	-0,041
-366,971	45,463	-0,071	0,047
-365,956	-80,144	0,106	-0,025
-364,942	-154,043	0,138	0,007
-363,927	-140,903	0,088	-0,006
-362,912	17,595	-0,118	-0,067
-361,898	28,857	-0,033	-0,020
-360,883	154,650	0,111	-0,109
-359,869	-55,913	-0,112	-0,036
-358,854	187,008	0,037	-0,039
-357,839	652,653	-0,039	0,072
-356,825	336,582	0,058	0,082
-355,810	-200,000	0,019	0,078
-354,796	144,808	-0,072	-0,069
-353,781	363,659	0,044	-0,063
-352,766	-112,764	0,088	0,012
-351,752	-60,434	0,094	0,029
-350,737	800,000	0,022	-0,053
-349,723	-173,255	0,116	0,002
-348,708	358,113	-0,033	0,048
-347,693	0,835	0,093	0,047
-346,679	-34,917	0,071	-0,028
-345,664	-18,559	0,126	0,056
-344,650	-200,000	-0,029	0,155
-343,635	-200,000	0,015	0,059
-342,620	-200,000	-0,020	0,073
-341,606	-160,956	0,041	0,002
-340,591	-14,358	0,084	0,039
-339,577	-28,717	0,037	0,015
-338,562	291,924	-0,071	-0,093
-337,548	392,104	0,083	0,124
-336,533	-200,000	-0,028	-0,156
-335,518	299,744	0,076	-0,100
-334,504	6,540	0,055	-0,029
-333,489	140,929	0,086	0,081
-332,475	-69,067	-0,150	0,041
-331,460	73,633	-0,077	-0,058
-330,445	138,636	0,057	0,054
-329,431	800,000	-0,041	0,092
-328,416	309,439	0,100	0,135
-327,402	800,000	-0,038	-0,119
-326,387	-57,874	0,069	-0,021
-325,372	-167,583	-0,061	-0,002
-324,358	464,999	0,060	-0,097
-323,343	444,670	-0,029	-0,045
-322,329	-200,000	0,010	-0,106
-321,314	-200,000	0,003	0,010
-320,299	32,375	0,087	-0,054
-319,285	208,439	0,044	-0,049
-318,270	-18,292	-0,065	-0,029
-317,256	-49,427	0,081	-0,028
-316,241	-123,019	-0,081	0,009
-315,226	-17,864	0,072	-0,032
-314,212	65,366	-0,071	-0,051
-313,197	-200,000	-0,009	-0,029
-312,183	-121,487	-0,021	-0,002
-311,168	45,978	-0,097	0,064
-310,153	-50,563	0,076	-0,026
-309,139	729,253	-0,029	0,055
-308,124	-200,000	0,005	-0,026
-307,110	-200,000	0,027	0,175
-306,095	368,100	0,026	0,038
-305,080	800,000	-0,018	0,053
-304,066	-107,108	-0,090	0,014
-303,051	195,180	0,037	0,040
-302,037	369,380	0,018	-0,026
-301,022	800,000	-0,070	-0,208
-300,008	-200,000	0,001	-0,029
-298,993	57,670	0,202	0,141
-297,978	-119,679	0,036	-0,004
-296,964	65,212	-0,148	-0,107
-295,949	800,000	0,019	-0,052
-294,935	511,411	-0,037	0,062
-293,920	-200,000	-0,003	-0,039
-292,905	-200,000	0,032	0,129
-291,891	-59,645	-0,089	0,027
-290,876	-200,000	0,007	0,046
-289,862	44,150	0,121	0,079
-288,847	-22,205	-0,078	-0,034
-287,832	704,722	-0,030	-0,058
-286,818	-24,825	0,066	-0,028
-285,803	-200,000	-0,002	-0,028
-284,789	142,880	-0,055	-0,052
-283,774	15,895	-0,126	-0,071
-282,759	800,000	0,024	-0,071
-281,745	-200,000	0,018	-0,163
-280,730	113,000	-0,080	0,069
-279,716	800,000	0,038	-0,106
-278,701	191,932	0,071	0,077
-277,686	357,507	0,107	-0,153
-276,672	383,724	0,054	0,080
-275,657	47,115	-0,038	0,025
-274,643	-52,096	-0,112	0,037
-273,628	-200,000	0,004	0,120
-272,613	-200,000	-0,007	-0,098
-271,599	-43,837	0,083	0,030
-270,584	800,000	-0,057	-0,161
-269,570	-93,437	0,081	-0,016
-268,555	-170,012	-0,164	-0,004
-267,540	201,939	-0,047	-0,052
-266,526	409,297	0,027	-0,040
-265,511	455,397	0,044	0,070
-264,497	-123,051	0,170	0,019
-263,482	164,305	0,013	-0,013
-262,467	-136,316	-0,119	-0,010
-261,453	292,257	-0,009	-0,012
-260,438	-200,000	0,014	-0,076
-259,424	-200,000	-0,002	0,057
-258,409	-200,000	0,013	-0,088
-257,395	800,000	-0,070	-0,145
-256,380	447,670	0,058	0,092
-255,365	26,985	0,138	-0,082
-254,351	257,528	-0,028	0,034
-253,336	455,339	0,042	-0,067
-252,322	-92,091	-0,101	-0,020
-251,307	116,124	0,020	0,017
-250,292	203,243	0,107	-0,119
-249,278	-200,000	0,011	0,043
-248,263	0,455	0,146	0,074
-247,249	-147,248	0,198	-0,012
-246,234	-83,913	-0,112	0,025
-245,219	464,989	-0,023	0,036
-244,205	520,370	-0,034	-0,056
-243,190	-150,982	-0,164	-0,009
-242,176	-139,352	0,103	-0,008
-241,161	-50,442	0,017	0,006
-240,146	-200,000	-0,005	0,065
-239,132	-200,000	-0,016	0,078
-238,117	735,113	-0,010	-0,019
-237,103	38,524	-0,081	-0,052
-236,088	322,991	0,072	0,098
-235,073	800,000	0,041	-0,104
-234,059	-20,925	-0,018	0,008
-233,044	800,000	-0,062	0,159
-232,030	-105,537	-0,057	0,009
-231,015	-74,175	0,040	-0,010
-230,000	-40,680	-0,106	-0,039
-228,986	-200,000	0,002	0,076
-227,971	263,585	-0,029	0,036
-226,957	-44,836	0,028	-0,010
-225,942	-200,000	0,010	-0,084
-224,927	-200,000	-0,002	0,036
-223,913	-200,000	-0,004	-0,046
-222,898	188,925	-0,073	-0,078
-221,884	-200,000	0,000	0,060
-220,869	318,187	0,090	0,122
-219,855	-155,593	0,151	0,007
-218,840	47,082	0,062	0,041
-217,825	-160,757	-0,152	0,006
-216,811	800,000	-0,027	-0,056
-215,796	-52,201	-0,108	0,036
-214,782	-200,000	0,010	-0,074
-213,767	84,533	0,127	0,099
-212,752	-200,000	0,004	0,042
-211,738	-200,000	0,021	-0,118
-210,723	800,000	-0,021	-0,059
-209,709	-200,000	-0,026	-0,087
-208,694	-137,177	-0,072	0,006
-207,679	-200,000	0,031	-0,150
-206,665	-167,401	0,233	0,007
-205,650	148,034	0,128	0,123
-204,636	800,000	0,012	0,032
-203,621	-100,593	0,080	0,014
-202,606	-147,610	-0,211	-0,012
-201,592	208,854	-0,045	-0,051
-200,577	-200,000	0,006	-0,092
-199,563	402,857	-0,022	0,033
-198,548	800,000	-0,038	0,092
-197,533	27,152	0,145	0,087
-196,519	224,976	-0,031	-0,035
-195,504	100,818	0,081	0,067
-194,490	-124,694	-0,053	0,006
-193,475	687,691	0,039	-0,073
-192,460	-200,000	-0,022	0,079
-191,446	-200,000	0,008	0,083
-190,431	-200,000	-0,026	0,146
-189,417	-39,793	-0,100	-0,037
-188,402	108,881	0,101	-0,086
-187,387	210,032	-0,049	-0,055
-186,373	-200,000	0,012	0,140
-185,358	19,777	0,069	-0,039
-184,344	-159,329	0,103	-0,004
-183,329	113,597	0,004	0,004
-182,315	-95,189	-0,098	0,019
-181,300	13,289	-0,037	-0,020
-180,285	24,219	0,034	0,020
-179,271	-11,113	0,055	-0,026
-178,256	-50,710	-0,030	-0,010
-177,242	780,548	0,026	0,051
-176,227	-200,000	0,019	0,092
-175,212	-200,000	-0,027	0,104
-174,198	-139,164	0,100	-0,008
-173,183	-78,616	-0,059	0,014
-172,169	-95,909	-0,111	-0,021
-171,154	800,000	-0,015	0,036
-170,139	286,341	0,049	-0,064
-169,125	151,920	0,070	0,068
-168,110	-35,631	-0,102	0,039
-167,096	362,783	-0,111	-0,159
-166,081	-191,496	-0,054	0,000
-165,066	24,714	0,091	-0,053
-164,052	-139,633	-0,168	-0,013
-163,037	386,049	0,091	-0,135
-162,023	379,123	0,035	-0,052
-161,008	-125,278	-0,017	-0,002
-159,993	-200,000	-0,002	-0,130
-158,979	374,400	-0,057	-0,083
-157,964	8,878	-0,105	-0,056
-156,950	40,570	-0,221	-0,142
-155,935	-200,000	0,004	0,036
-154,920	-16,240	0,142	0,064
-153,906	800,000	-0,023	0,069
-152,891	-200,000	-0,003	0,160
-151,877	128,106	0,076	-0,068
-150,862	-200,000	-0,016	-0,095
-149,847	-200,000	-0,001	-0,011
-148,833	390,279	-0,026	-0,039
-147,818	114,785	0,148	0,128
-146,804	533,321	-0,044	0,075
-145,789	800,000	-0,036	-0,112
-144,775	97,283	0,051	-0,042
-143,760	-200,000	-0,022	0,165
-142,745	-4,618	-0,049	-0,024
-141,731	689,119	0,062	0,116
-140,716	70,474	0,159	-0,117
-139,702	-200,000	-0,038	0,123
-138,687	274,695	0,026	-0,032
-137,672	-200,000	0,004	-0,019
-136,658	800,000	-0,054	-0,135
-135,643	-200,000	0,005	0,038
-134,629	254,255	-0,019	-0,024
-133,614	206,490	-0,029	0,032
-132,599	61,795	-0,069	-0,049
-131,585	67,315	0,047	-0,034
-130,570	104,172	-0,058	0,048
-129,556	381,138	-0,054	-0,079
-128,541	800,000	0,039	-0,121
-127,526	-106,609	-0,077	0,012
-126,512	-119,655	0,073	-0,009
-125,497	-77,547	0,037	-0,009
-124,483	576,003	-0,021	0,037
-123,468	321,833	0,052	-0,071
-122,453	-51,078	-0,171	-0,057
-121,439	120,572	-0,051	-0,045
-120,424	291,616	-0,061	-0,079
-119,410	-3,090	0,126	-0,062
-118,395	-84,647	-0,068	-0,015
-117,380	800,000	-0,045	0,120
-116,366	800,000	-0,017	-0,043
-115,351	-200,000	0,035	-0,159
-114,337	-60,654	0,049	-0,015
-113,322	-200,000	-0,028	-0,146
-112,307	-200,000	0,008	-0,072
-111,293	154,104	-0,070	0,068
-110,278	-200,000	0,001	-0,170
-109,264	-4,742	-0,119	0,058
-108,249	690,688	-0,101	-0,189
-107,234	50,595	-0,085	0,057
-106,220	-200,000	0,012	-0,163
-105,205	23,113	0,065	0,038
-104,191	-200,000	-0,010	0,139
-103,176	233,460	0,097	0,113
-102,162	-199,478	0,123	0,000
-101,147	39,387	0,064	0,041
-100,132	-20,743	-0,115	-0,050
-99,118	251,848	-0,059	0,071
-98,103	218,054	0,017	-0,019
-97,089	800,000	0,060	0,149
-96,074	-200,000	0,016	0,107
-95,059	-152,883	-0,043	0,002
-94,045	-200,000	-0,011	0,098
-93,030	-111,418	0,044	0,006
-92,016	179,023	-0,087	0,090
-91,001	-200,000	0,008	0,060
-89,986	-200,000	0,009	-0,063
-88,972	286,237	0,121	0,156
-87,957	-111,512	-0,147	-0,021
-86,943	-187,585	0,017	0,000
-85,928	-55,478	-0,040	-0,013
-84,913	470,746	-0,044	-0,070
-83,899	800,000	0,062	-0,155
-82,884	-200,000	-0,006	0,019
-81,870	-69,769	-0,035	0,009
-80,855	204,482	-0,139	0,153
-79,840	800,000	-0,019	-0,052
-78,826	199,906	-0,046	0,051
-77,811	278,482	-0,035	0,045
-76,797	-200,000	0,012	-0,099
-75,782	60,491	0,128	0,090
-74,767	129,479	-0,091	0,083
-73,753	-158,368	0,069	-0,003
-72,738	-200,000	0,005	-0,091
-71,724	-1,838	0,015	-0,007
-70,709	-88,528	0,185	0,039
-69,694	527,531	-0,053	-0,090
-68,680	-200,000	0,005	0,133
-67,665	-54,193	0,109	0,035
-66,651	800,000	-0,004	-0,010
-65,636	21,465	-0,142	0,082
-64,622	-160,351	0,076	-0,003
-63,607	442,414	-0,007	-0,011
-62,592	-53,401	-0,024	-0,008
-61,578	24,818	0,117	-0,068
-60,563	-200,000	0,002	-0,025
-59,549	426,875	-0,022	0,033
-58,534	35,941	-2,139	-1,332
-57,519	-200,000	-0,072	-0,764
-56,505	-200,000	-1,325	-5,064
-55,490	87,370	0,849	0,666
-54,476	800,000	5,221	11,876
-53,461	-200,000	18,484	303,020
-52,446	800,000	734,275	2245,965
-51,432	534,761	1646,198	2777,564
-50,417	76,152	1674,555	1255,310
-49,403	20,813	1595,604	913,946
-48,388	15,448	1549,802	860,088
-47,373	17,572	1540,863	865,969
-46,359	16,671	1530,269	855,404
-45,344	13,907	1525,765	838,826
-44,330	13,785	1523,931	837,162
-43,315	13,739	1522,284	835,994
-42,300	13,642	1520,815	834,660
-41,286	13,694	1519,389	834,108
-40,271	13,749	1517,786	833,475
-39,257	13,788	1515,991	832,652
-38,242	13,769	1514,754	831,841
-37,227	13,755	1513,306	830,942
-36,213	13,768	1511,835	830,168
-35,198	13,745	1510,633	829,360
-34,184	13,759	1509,449	828,747
-33,169	13,753	1508,119	827,957
-32,154	13,792	1506,298	827,117
-31,140	13,810	1505,141	826,539
-30,125	13,804	1503,570	825,616
-29,111	13,774	1502,420	824,800
-28,096	13,798	1501,323	824,285
-27,082	13,767	1500,579	823,688
-26,067	13,744	1499,118	822,741
-25,052	13,794	1497,853	822,263
-24,038	13,784	1496,754	821,575
-23,023	13,797	1495,549	820,947
-22,009	13,803	1494,535	820,387
-20,994	13,789	1493,633	819,789
-19,979	13,776	1492,707	819,182
-18,965	13,781	1491,606	818,571
-17,950	13,811	1490,528	818,096
-16,936	13,733	1489,505	817,115
-15,921	13,674	1488,597	816,292
-14,906	13,638	1487,394	815,424
-13,892	13,635	1486,254	814,751
-12,877	13,606	1485,406	814,113
-11,863	13,584	1484,319	813,376
-10,848	13,587	1483,870	813,113
-9,833	13,743	1482,629	813,170
-8,819	13,750	1481,726	812,677
-7,804	13,692	1480,547	811,711
-6,790	13,683	1479,763	811,203
-5,775	13,739	1478,770	810,904
-4,760	13,668	1478,245	810,234
-3,746	13,650	1476,825	809,334
-2,731	13,496	1476,066	808,132
-1,717	13,482	1474,634	807,247
-0,702	13,493	1473,751	806,785
0,313	13,346	1472,519	806,610
1,327	16,996	1469,735	822,853
2,342	26,340	1238,785	731,730
3,356	22,686	697,909	403,807
4,371	-7,151	466,261	223,236
5,386	-10,919	438,015	204,115
6,400	-12,107	429,012	198,178
7,415	-12,308	425,607	196,297
8,429	-12,567	423,073	194,741
9,444	-12,617	421,846	194,087
10,459	-12,685	420,770	193,478
11,473	-12,803	419,713	192,808
12,488	-13,124	418,769	191,901
13,502	-13,305	417,804	191,187
14,517	-13,260	416,886	190,813
15,531	-13,370	416,289	190,368
16,546	-13,479	415,838	189,991
17,561	-13,551	415,213	189,588
18,575	-13,522	414,718	189,385
19,590	-13,607	414,028	188,935
20,604	-13,403	413,431	188,931
21,619	-13,519	412,910	188,514
22,634	-13,488	412,463	188,335
23,648	-13,673	411,908	187,809
24,663	-13,540	411,537	187,808
25,677	-13,491	410,949	187,590
26,692	-13,630	410,761	187,295
27,707	-13,623	410,192	187,028
28,721	-13,581	409,688	186,839
29,736	-13,619	409,252	186,572
30,750	-13,516	408,752	186,470
31,765	-13,655	408,357	186,080
32,780	-13,595	408,115	186,036
33,794	-13,722	407,801	185,702
34,809	-13,772	407,361	185,417
35,823	-13,655	406,720	185,268
36,838	-13,706	406,529	185,095
37,853	-13,773	406,058	184,772
38,867	-13,734	405,516	184,563
39,882	-13,762	405,280	184,400
40,896	-13,605	404,915	184,433
41,911	-13,693	404,396	184,060
42,926	-13,829	404,055	183,703
43,940	-13,889	403,883	183,527
44,955	-13,882	403,490	183,341
45,969	-13,854	402,918	183,103
46,984	-14,083	402,525	182,597
47,999	-14,416	402,242	182,001
49,013	-14,400	401,729	181,773
50,028	-14,499	401,347	181,450
51,042	-14,444	400,874	181,296
52,057	-14,506	400,551	181,050
53,071	-14,390	400,220	181,040
54,086	-14,366	399,944	180,931
55,101	-14,115	399,603	181,099
56,115	-14,097	399,412	181,020
57,130	-13,539	399,372	181,738
58,144	-13,399	399,098	181,784
59,159	-13,380	398,823	181,669
60,174	-13,440	398,524	181,435
61,188	-13,436	398,024	181,198
62,203	-13,592	397,607	180,783
63,217	-13,517	397,195	180,680
64,232	-13,533	397,014	180,560
65,247	-13,508	396,864	180,509
66,261	-13,382	396,159	180,340
67,276	-13,568	395,681	179,859
68,290	-13,965	395,448	179,208
69,305	-13,889	395,008	179,093
70,320	-13,880	394,620	178,914
71,334	-13,751	394,325	178,935
72,349	-13,321	394,273	179,467
73,363	-13,241	393,886	179,380
74,378	-13,417	393,614	179,007
75,393	-13,539	393,182	178,634
76,407	-13,674	392,905	178,314
77,422	-13,538	392,387	178,242
78,436	-13,481	392,221	178,225
79,451	-13,411	391,715	178,072
80,466	-13,543	391,422	177,749
81,480	-13,869	391,010	177,117
82,495	-13,907	390,759	176,938
83,509	-13,713	390,368	176,999
84,524	-13,861	390,257	176,740
85,539	-13,960	389,672	176,329
86,553	-14,034	389,413	176,100
87,568	-13,904	389,097	176,111
88,582	-13,811	389,008	176,176
89,597	-13,817	388,511	175,928
90,611	-13,693	388,318	175,986
91,626	-13,617	388,101	175,972
92,641	-13,600	387,760	175,823
93,655	-13,661	387,452	175,588
94,670	-13,705	387,162	175,384
95,684	-13,601	386,773	175,328
96,699	-13,738	386,439	174,982
97,714	-13,922	386,160	174,602
98,728	-13,981	385,840	174,366
99,743	-13,991	385,356	174,119
100,757	-14,042	385,019	173,884
101,772	-13,912	384,899	173,983
102,787	-13,815	384,658	173,984
103,801	-13,739	384,310	173,909
104,816	-13,656	384,122	173,916
105,830	-13,646	384,054	173,883
106,845	-13,471	383,603	173,888
107,860	-13,405	383,235	173,790
108,874	-13,775	383,061	173,220
109,889	-13,608	382,599	173,210
110,903	-13,683	382,307	172,966
111,918	-13,676	381,935	172,791
112,933	-13,704	381,762	172,661
113,947	-13,628	381,582	172,662
114,962	-13,603	381,282	172,544
115,976	-13,568	381,035	172,460
116,991	-13,576	380,583	172,231
118,006	-13,537	380,266	172,122
119,020	-13,494	380,169	172,117
120,035	-13,475	379,949	172,026
121,049	-13,465	379,579	171,856
122,064	-13,530	379,455	171,701
123,079	-13,385	378,981	171,656
124,093	-13,648	378,797	171,224
125,108	-13,992	378,339	170,566
126,122	-14,010	377,848	170,306
127,137	-14,145	377,429	169,931
128,151	-13,902	377,221	170,129
129,166	-13,946	376,944	169,934
130,181	-13,909	376,702	169,857
131,195	-13,922	376,331	169,657
132,210	-13,653	376,142	169,897
133,224	-13,622	376,199	169,946
134,239	-13,385	375,729	170,016
135,254	-13,638	375,437	169,552
136,268	-13,681	375,105	169,332
137,283	-13,962	374,608	168,740
138,297	-14,131	374,297	168,374
139,312	-13,949	374,074	168,486
140,327	-13,762	374,076	168,706
141,341	-13,163	373,822	169,326
142,356	-13,087	373,551	169,282
143,370	-13,130	373,418	169,153
144,385	-13,171	373,130	168,957
145,400	-13,165	372,843	168,819
146,414	-13,162	372,544	168,673
147,429	-13,255	372,238	168,403
148,443	-13,263	371,948	168,247
149,458	-13,196	371,637	168,174
150,473	-13,256	371,268	167,918
151,487	-13,466	371,126	167,578
152,502	-13,367	371,074	167,664
153,516	-13,190	370,841	167,762
154,531	-13,351	370,479	167,384
155,546	-13,312	369,960	167,182
156,560	-13,324	369,690	167,031
157,575	-13,513	369,271	166,594
158,589	-13,361	369,267	166,765
159,604	-13,147	369,048	166,915
160,619	-12,913	368,772	167,063
161,633	-13,079	368,514	166,727
162,648	-12,926	368,267	166,788
163,662	-13,255	368,088	166,288
164,677	-13,305	367,551	165,970
165,692	-13,313	367,563	165,951
166,706	-13,107	367,372	166,102
167,721	-12,954	367,199	166,197
168,735	-12,950	367,007	166,099
169,750	-13,180	366,803	165,711
170,764	-13,158	366,412	165,547
171,779	-13,159	366,165	165,418
172,794	-13,167	365,872	165,261
173,808	-13,338	365,339	164,797
174,823	-13,730	364,988	164,147
175,837	-13,956	364,704	163,730
176,852	-13,473	364,898	164,391
177,867	-13,246	364,674	164,551
178,881	-13,215	364,328	164,417
179,896	-13,144	363,942	164,315
180,910	-13,116	363,992	164,358
181,925	-13,074	363,499	164,171
182,940	-13,036	363,306	164,115
183,954	-13,080	363,090	163,950
184,969	-12,984	362,998	164,009
185,983	-12,886	362,699	163,978
186,998	-12,773	362,488	164,005
188,013	-12,855	362,000	163,670
189,027	-13,042	362,027	163,442
190,042	-12,847	361,576	163,459
191,056	-12,965	361,504	163,269
192,071	-12,784	361,034	163,261
193,086	-12,890	360,961	163,085
194,100	-12,596	360,879	163,387
195,115	-12,480	360,492	163,337
196,129	-12,284	360,476	163,550
197,144	-8,066	362,749	169,655
198,159	-4,005	364,564	175,402
199,173	-0,625	366,193	180,269
200,188	0,115	366,103	181,105
201,202	-0,165	365,862	180,631
202,217	-0,238	365,545	180,370
203,232	0,020	365,417	180,602
204,246	0,375	365,213	180,914
205,261	0,253	365,142	180,716
206,275	0,464	364,759	180,765
207,290	0,624	364,519	180,822
208,304	0,444	364,240	180,450
209,319	0,507	363,909	180,347
210,334	0,406	363,772	180,141
211,348	0,208	363,510	179,757
212,363	0,028	363,003	179,275
213,377	-0,035	362,920	179,142
214,392	0,019	362,595	179,031
215,407	0,066	362,528	179,038
216,421	0,202	362,337	179,091
217,436	0,177	362,027	178,891
218,450	0,031	361,625	178,503
219,465	-0,050	361,434	178,296
220,480	-0,083	361,062	178,057
221,494	0,012	360,806	178,027
222,509	0,168	360,926	178,257
223,523	0,371	360,493	178,269
224,538	0,164	360,305	177,914
225,553	-0,095	360,038	177,458
226,567	0,037	359,894	177,528
227,582	0,405	359,769	177,887
228,596	0,617	359,538	178,009
229,611	0,239	359,275	177,415
230,626	-0,198	358,901	176,697
231,640	0,075	358,642	176,876
232,655	0,380	358,500	177,151
233,669	0,608	358,404	177,357
234,684	0,646	358,172	177,272
235,699	0,681	357,859	177,143
236,713	0,188	357,553	176,394
237,728	0,034	357,227	176,036
238,742	-0,138	356,929	175,672
239,757	-0,019	356,818	175,742
240,772	0,066	356,366	175,603
241,786	-0,118	356,398	175,387
242,801	0,321	356,276	175,826
243,815	0,708	356,065	176,160
244,830	0,445	355,615	175,614
245,844	0,095	355,308	175,038
246,859	0,000	355,157	174,836
247,874	0,400	354,779	175,102
248,888	0,483	354,627	175,109
249,903	0,464	354,482	174,998
250,917	0,244	354,079	174,528
251,932	0,067	354,003	174,269
252,947	-0,077	353,634	173,904
253,961	-0,072	353,396	173,776
254,976	-0,069	353,129	173,634
255,990	0,068	353,119	173,772
257,005	0,344	353,085	174,060
258,020	0,223	352,879	173,803
259,034	0,395	352,361	173,732
260,049	0,421	352,131	173,634
261,063	0,341	351,845	173,384
262,078	0,665	351,819	173,731
263,093	0,735	351,773	173,773
264,107	0,575	351,517	173,446
265,122	0,358	351,195	173,022
266,136	0,643	350,899	173,189
267,151	0,664	350,568	173,034
268,166	0,128	350,267	172,254
269,180	-0,107	349,888	171,781
270,195	0,192	349,705	172,020
271,209	0,215	349,566	171,962
272,224	0,269	349,418	171,937
273,239	0,111	349,316	171,689
274,253	0,310	348,806	171,652
275,268	0,069	348,430	171,175
276,282	-0,061	348,328	170,961
277,297	-0,036	348,157	170,890
278,312	0,308	348,062	171,221
279,326	0,317	347,841	171,108
280,341	0,182	347,662	170,850
281,355	0,326	347,448	170,895
282,370	0,264	347,267	170,719
283,384	0,203	346,758	170,385
284,399	0,045	346,527	170,076
285,414	-0,074	346,344	169,836
286,428	0,216	346,180	170,071
287,443	0,240	346,202	170,093
288,457	0,235	346,015	169,980
289,472	0,196	345,592	169,713
290,487	-0,077	345,114	169,154
291,501	-0,278	344,874	168,794
292,516	-0,282	344,805	168,741
293,530	-0,049	344,581	168,879
294,545	-0,108	344,445	168,731
295,560	0,081	344,380	168,898
296,574	0,143	344,002	168,767
297,589	0,238	343,730	168,726
298,603	0,250	343,553	168,637
299,618	0,226	343,337	168,489
300,633	0,422	343,297	168,675
301,647	0,522	343,154	168,702
302,662	0,485	342,919	168,530
303,676	0,426	342,674	168,328
304,691	0,659	342,364	168,422
305,706	0,562	342,016	168,128
306,720	0,479	341,842	167,934
307,735	0,112	341,549	167,365
308,749	0,238	341,280	167,359
309,764	0,428	341,202	167,518
310,779	0,463	341,002	167,444
311,793	0,247	340,547	166,964
312,808	0,398	340,533	167,111
313,822	0,452	340,366	167,074
314,837	0,402	340,021	166,835
315,852	0,223	339,863	166,543
316,866	0,309	339,740	166,563
317,881	0,611	339,530	166,781
318,895	0,328	339,334	166,355
319,910	0,103	338,822	165,841
320,925	-0,104	338,644	165,509
321,939	-0,307	338,322	165,112
322,954	-0,058	338,163	165,296
323,968	0,229	338,218	165,625
324,983	0,443	338,081	165,780
325,997	0,750	337,935	166,033
327,012	0,595	337,544	165,655
328,027	0,560	337,382	165,522
329,041	0,703	337,234	165,592
330,056	0,578	336,959	165,305
331,070	0,235	336,445	164,661
332,085	0,105	336,165	164,365
333,100	0,148	336,147	164,390
334,114	0,508	336,102	164,748
335,129	0,603	335,824	164,702
336,143	0,501	335,496	164,415
337,158	0,592	335,334	164,420
338,173	0,482	335,061	164,151
339,187	0,120	334,741	163,584
340,202	0,201	334,475	163,528
341,216	0,124	334,382	163,384
342,231	0,230	334,212	163,402
343,246	0,102	333,990	163,139
344,260	0,178	333,806	163,118
345,275	0,291	333,724	163,186
346,289	0,406	333,295	163,086
347,304	0,221	333,168	162,809
348,319	0,412	333,191	163,013
349,333	0,896	332,789	163,328
350,348	0,677	332,642	163,003
351,362	0,884	332,521	163,154
352,377	0,698	332,246	162,803
353,392	0,552	331,991	162,505
354,406	0,446	331,920	162,342
355,421	197,070	1327,892	1392,717
356,435	161,326	1449,155	1392,663
