DTS Sentinel unit serial number:	SN410029Multiplexer serial number:	ORYXHardware model number:	OX2-SRSoftware version number:	ORYX F/W v4,00 Oryx Data Collector v3.7.2.0data status	okinstallation	B6 Nyhavnadifferential loss correction	single-endedforward channel	channel 2reverse channel	N/Adate	2023/12/07time	13:15:08forward acquisition time	300,00reverse acquisition time	0,00gamma	499,1914k internal	0,3203k external	0,3203temperature offset calibration	1,0000default loss term (dB/km)	0,3820temperature slope calibration	1,0000multiplexer offset coefficient	1,0000multiplexer slope coefficient	1,0000fibre end	0,00T internal ref (°C)	11,58T ext. ref 1 (°C)	-1,93T ext. ref 2 (°C)	-1,93length (m)	temperature (°C)	Stokes	anti-Stokes-744,400	20,271	0,165	0,096
-743,385	-86,102	-0,243	-0,054
-742,371	800,000	0,077	0,158
-741,356	-44,305	-0,233	-0,085
-740,342	5,654	0,219	0,117
-739,327	-95,367	-0,378	0,073
-738,312	-200,000	-0,033	0,124
-737,298	-162,780	-0,391	0,014
-736,283	-200,000	0,043	0,155
-735,269	-73,744	-0,342	-0,090
-734,254	-200,000	0,019	0,085
-733,239	-53,027	-0,561	-0,186
-732,225	-96,261	0,302	0,058
-731,210	37,903	-0,058	0,037
-730,196	-155,102	-0,025	-0,001
-729,181	-200,000	0,020	0,070
-728,167	295,586	-0,044	-0,059
-727,152	-200,000	-0,035	0,114
-726,137	-25,522	-0,221	0,095
-725,123	-200,000	-0,021	-0,189
-724,108	132,031	-0,160	-0,150
-723,094	186,245	0,121	-0,131
-722,079	70,786	-0,164	0,123
-721,064	-78,731	-0,042	0,010
-720,050	41,415	-0,055	-0,036
-719,035	-124,396	-0,186	-0,021
-718,021	-88,625	0,044	-0,009
-717,006	-63,379	0,088	-0,026
-715,991	-167,660	-0,131	0,004
-714,977	800,000	-0,059	-0,127
-713,962	-200,000	-0,020	-0,139
-712,948	800,000	-0,070	-0,199
-711,933	94,254	-0,094	-0,077
-710,918	-128,425	0,118	0,012
-709,904	291,755	0,052	-0,069
-708,889	89,608	-0,078	-0,063
-707,875	-45,933	0,051	-0,018
-706,860	174,916	0,090	-0,095
-705,845	134,267	-0,100	-0,094
-704,831	190,565	0,031	0,034
-703,816	-200,000	-0,028	-0,138
-702,802	-200,000	-0,014	-0,080
-701,787	-101,148	-0,255	-0,045
-700,772	-115,165	-0,014	0,002
-699,758	447,605	0,013	-0,021
-698,743	229,005	0,029	0,034
-697,729	-200,000	0,011	-0,056
-696,714	103,106	-0,100	-0,085
-695,699	-200,000	-0,027	-0,100
-694,685	432,230	0,029	-0,046
-693,670	-127,831	-0,049	0,005
-692,656	-200,000	-0,000	-0,050
-691,641	654,240	-0,029	-0,055
-690,627	800,000	0,008	-0,024
-689,612	502,322	0,067	-0,112
-688,597	-8,771	0,122	-0,059
-687,583	11,493	-0,102	0,056
-686,568	-150,423	-0,108	-0,006
-685,554	-200,000	0,003	0,116
-684,539	800,000	-0,050	-0,144
-683,524	800,000	0,013	0,034
-682,510	182,787	0,095	0,102
-681,495	800,000	0,053	-0,109
-680,481	73,595	-0,245	0,186
-679,466	-200,000	-0,001	-0,181
-678,451	72,265	-0,036	0,027
-677,437	108,359	0,045	0,039
-676,422	-124,061	-0,087	0,010
-675,408	0,917	-0,015	-0,008
-674,393	-103,056	-0,060	-0,010
-673,378	-76,475	-0,074	0,019
-672,364	17,986	-0,059	-0,034
-671,349	-127,283	-0,061	-0,006
-670,335	-29,638	0,064	-0,026
-669,320	13,724	0,059	0,033
-668,305	-48,771	0,045	0,015
-667,291	163,677	-0,066	0,067
-666,276	-200,000	0,040	-0,179
-665,262	-200,000	-0,021	-0,102
-664,247	-200,000	-0,020	-0,103
-663,232	151,718	-0,079	-0,078
-662,218	119,678	0,129	-0,116
-661,203	220,220	-0,080	-0,093
-660,189	-200,000	-0,018	-0,100
-659,174	800,000	0,058	-0,147
-658,159	-102,818	-0,116	0,020
-657,145	-200,000	-0,006	-0,069
-656,130	362,877	-0,071	-0,104
-655,116	-200,000	-0,003	-0,010
-654,101	62,373	-0,065	-0,047
-653,086	-104,004	0,069	-0,012
-652,072	64,530	-0,075	0,055
-651,057	-157,818	-0,038	-0,002
-650,043	80,939	-0,099	-0,077
-649,028	-128,800	-0,074	0,007
-648,014	-111,746	-0,106	-0,015
-646,999	33,411	0,035	0,022
-645,984	-121,992	0,097	0,011
-644,970	800,000	-0,045	-0,104
-643,955	119,981	-0,047	-0,042
-642,941	-169,315	-0,025	0,001
-641,926	141,900	0,031	0,030
-640,911	130,317	-0,059	-0,055
-639,897	-107,625	0,048	-0,008
-638,882	333,535	-0,040	-0,056
-637,868	464,052	-0,040	0,065
-636,853	3,103	-0,166	0,087
-635,838	6,878	-0,130	-0,070
-634,824	-45,220	-0,129	0,046
-633,809	-164,125	-0,013	0,000
-632,795	67,409	0,072	0,053
-631,780	-25,208	-0,045	-0,019
-630,765	-86,276	-0,089	0,020
-629,751	-58,616	-0,038	-0,012
-628,736	383,298	-0,092	-0,137
-627,722	800,000	-0,032	-0,066
-626,707	91,605	0,042	-0,034
-625,692	171,628	-0,015	-0,016
-624,678	546,616	-0,078	-0,135
-623,663	42,288	0,056	-0,037
-622,649	800,000	0,068	-0,191
-621,634	-200,000	-0,012	0,067
-620,619	-44,045	-0,102	-0,037
-619,605	109,814	0,088	0,076
-618,590	320,316	0,060	0,083
-617,576	800,000	-0,027	0,077
-616,561	-10,837	-0,135	0,064
-615,546	173,809	0,039	0,041
-614,532	-200,000	0,003	-0,075
-613,517	-200,000	0,017	-0,140
-612,503	-75,475	-0,136	0,035
-611,488	-200,000	-0,001	-0,015
-610,474	-200,000	0,018	0,091
-609,459	-45,369	0,031	-0,011
-608,444	12,384	-0,055	-0,031
-607,430	695,071	-0,040	-0,076
-606,415	-199,752	-0,156	0,001
-605,401	403,988	0,060	0,092
-604,386	69,090	-0,030	0,022
-603,371	-200,000	-0,015	-0,148
-602,357	-109,064	-0,069	0,010
-601,342	800,000	-0,023	0,068
-600,328	-200,000	0,014	-0,098
-599,313	418,883	-0,003	-0,004
-598,298	-41,994	-0,180	0,066
-597,284	-134,825	0,107	-0,009
-596,269	146,958	-0,049	0,048
-595,255	-200,000	-0,021	0,111
-594,240	423,636	0,030	0,046
-593,225	215,122	-0,024	-0,027
-592,211	-143,381	-0,141	0,010
-591,196	800,000	-0,057	0,137
-590,182	-66,533	0,179	0,051
-589,167	302,596	0,091	0,122
-588,152	-72,354	0,039	-0,010
-587,138	-149,527	-0,048	0,003
-586,123	-200,000	0,007	0,028
-585,109	14,041	-0,184	-0,103
-584,094	375,424	-0,062	-0,091
-583,079	800,000	0,064	-0,152
-582,065	-43,285	-0,138	-0,050
-581,050	-118,882	0,161	0,020
-580,036	-33,863	-0,046	0,018
-579,021	-72,995	-0,043	-0,011
-578,006	82,276	-0,049	-0,038
-576,992	-200,000	-0,004	0,110
-575,977	73,439	0,071	-0,053
-574,963	313,107	0,088	0,120
-573,948	0,670	-0,130	-0,067
-572,934	-200,000	0,007	-0,064
-571,919	-10,196	0,095	-0,045
-570,904	-200,000	-0,044	-0,148
-569,890	573,318	-0,011	0,019
-568,875	216,510	0,056	-0,065
-567,861	-60,886	-0,094	-0,028
-566,846	800,000	-0,012	0,034
-565,831	23,996	0,052	0,031
-564,817	68,983	0,073	-0,054
-563,802	-200,000	0,001	-0,169
-562,788	800,000	-0,040	-0,107
-561,773	137,860	-0,087	-0,083
-560,758	-142,164	0,090	0,006
-559,744	-116,460	0,146	-0,019
-558,729	-30,511	-0,151	-0,061
-557,715	237,986	0,033	0,040
-556,700	-200,000	0,001	0,012
-555,685	61,921	-0,072	-0,052
-554,671	-200,000	0,021	-0,093
-553,656	174,814	0,032	-0,034
-552,642	553,788	-0,031	0,054
-551,627	-200,000	-0,004	-0,070
-550,612	-200,000	0,008	-0,031
-549,598	-51,361	-0,085	-0,029
-548,583	550,100	0,035	-0,061
-547,569	281,959	0,085	-0,110
-546,554	-200,000	-0,014	0,094
-545,539	-18,096	0,150	0,067
-544,525	800,000	0,014	-0,030
-543,510	-77,433	0,015	0,004
-542,496	-21,594	-0,197	0,086
-541,481	-65,132	-0,022	0,006
-540,466	376,299	0,106	-0,156
-539,452	800,000	-0,033	-0,094
-538,437	-200,000	-0,004	0,084
-537,423	-200,000	-0,043	-0,157
-536,408	-200,000	0,009	-0,100
-535,393	-200,000	-0,043	0,195
-534,379	183,986	-0,015	-0,016
-533,364	114,536	0,036	-0,032
-532,350	190,299	0,024	-0,026
-531,335	18,290	0,130	0,075
-530,321	-200,000	0,018	-0,203
-529,306	-200,000	-0,008	-0,038
-528,291	183,801	-0,078	-0,083
-527,277	303,235	-0,020	0,026
-526,262	-200,000	0,006	-0,068
-525,248	38,778	0,032	-0,021
-524,233	115,830	0,021	0,018
-523,218	800,000	-0,035	-0,086
-522,204	-135,114	-0,054	0,005
-521,189	800,000	0,048	-0,123
-520,175	800,000	-0,029	0,068
-519,160	-200,000	0,007	-0,110
-518,145	631,899	0,036	-0,065
-517,131	-200,000	0,027	-0,086
-516,116	-139,423	0,089	0,007
-515,102	-52,438	-0,130	0,043
-514,087	-200,000	0,003	0,086
-513,072	-200,000	0,035	-0,177
-512,058	539,052	0,053	-0,090
-511,043	-7,540	0,056	0,027
-510,029	-187,497	0,174	0,002
-509,014	353,192	-0,057	-0,081
-507,999	759,203	-0,081	0,160
-506,985	5,285	-0,178	0,094
-505,970	46,393	0,071	0,048
-504,956	-6,963	-0,098	-0,048
-503,941	397,050	0,012	-0,018
-502,926	-200,000	0,023	-0,091
-501,912	-58,294	-0,195	0,061
-500,897	-200,000	-0,005	-0,050
-499,883	800,000	-0,020	0,056
-498,868	-130,385	-0,030	0,003
-497,853	-200,000	-0,001	0,009
-496,839	-13,801	-0,014	0,006
-495,824	-200,000	-0,004	0,101
-494,810	800,000	-0,045	0,128
-493,795	-17,275	-0,165	0,074
-492,781	-68,083	0,088	0,025
-491,766	800,000	0,036	0,079
-490,751	800,000	-0,030	-0,065
-489,737	-82,495	0,075	-0,017
-488,722	-16,678	0,024	-0,011
-487,708	17,913	-0,037	0,021
-486,693	-200,000	0,007	0,029
-485,678	-200,000	-0,018	-0,083
-484,664	33,236	-0,090	0,056
-483,649	158,557	-0,077	0,077
-482,635	-200,000	0,010	0,140
-481,620	-200,000	0,006	-0,020
-480,605	-200,000	-0,122	0,000
-479,591	18,174	-0,062	-0,036
-478,576	-51,370	0,065	0,022
-477,562	-181,372	-0,078	-0,001
-476,547	260,825	-0,025	-0,031
-475,532	800,000	0,060	-0,163
-474,518	-102,298	0,123	0,021
-473,503	233,812	0,037	-0,044
-472,489	800,000	-0,042	0,114
-471,474	629,148	-0,070	-0,128
-470,459	-200,000	-0,022	-0,102
-469,445	800,000	0,037	-0,076
-468,430	-200,000	0,009	-0,150
-467,416	-200,000	-0,012	0,050
-466,401	-200,000	-0,028	-0,112
-465,386	535,867	-0,041	-0,069
-464,372	477,707	-0,046	-0,076
-463,357	-200,000	0,040	0,186
-462,343	800,000	-0,046	-0,114
-461,328	-200,000	0,000	0,016
-460,313	25,216	0,095	0,057
-459,299	71,733	0,079	0,059
-458,284	-200,000	0,037	0,196
-457,270	-23,730	-0,130	-0,056
-456,255	-96,540	-0,033	-0,006
-455,241	269,375	0,114	-0,144
-454,226	800,000	-0,074	-0,214
-453,211	-159,026	0,143	-0,006
-452,197	-200,000	-0,008	0,167
-451,182	73,991	0,063	0,047
-450,168	-123,674	0,049	-0,005
-449,153	186,358	-0,071	-0,076
-448,138	-200,000	0,017	-0,196
-447,124	-17,980	0,072	-0,032
-446,109	321,947	-0,034	0,047
-445,095	-57,035	-0,047	0,015
-444,080	-3,319	0,025	-0,012
-443,065	-200,000	-0,028	0,090
-442,051	116,040	0,035	0,031
-441,036	-200,000	-0,021	0,068
-440,022	-44,962	-0,095	-0,034
-439,007	-130,489	-0,096	0,009
-437,992	133,128	0,034	-0,031
-436,978	-3,776	-0,060	0,030
-435,963	-45,093	0,069	0,025
-434,949	108,987	-0,051	0,044
-433,934	185,231	-0,144	-0,153
-432,919	22,803	0,167	-0,098
-431,905	-73,171	0,123	-0,032
-430,890	152,644	-0,032	-0,031
-429,876	-136,393	-0,039	-0,003
-428,861	800,000	0,015	0,041
-427,846	-200,000	0,006	0,099
-426,832	190,683	0,010	0,011
-425,817	-69,837	0,036	-0,010
-424,803	-21,977	0,095	0,041
-423,788	-85,345	0,095	-0,021
-422,773	227,615	0,045	0,052
-421,759	-200,000	0,012	0,141
-420,744	-114,251	0,052	-0,007
-419,730	512,813	-0,006	0,010
-418,715	800,000	0,017	0,044
-417,701	99,576	-0,070	-0,058
-416,686	800,000	-0,007	0,014
-415,671	22,693	0,071	0,041
-414,657	67,029	-0,099	0,072
-413,642	701,012	0,025	0,047
-412,628	-64,495	-0,152	-0,044
-411,613	-159,737	0,100	0,004
-410,598	-200,000	-0,009	0,100
-409,584	-200,000	0,011	0,061
-408,569	-200,000	-0,023	0,081
-407,555	237,400	0,129	0,153
-406,540	-88,031	-0,038	0,008
-405,525	178,713	-0,022	-0,024
-404,511	800,000	0,021	-0,050
-403,496	36,176	0,020	-0,013
-402,482	-72,426	0,060	0,016
-401,467	-200,000	0,005	-0,065
-400,452	511,194	0,045	0,076
-399,438	60,770	-0,060	0,042
-398,423	81,967	-0,026	-0,020
-397,409	99,310	-0,099	-0,082
-396,394	655,767	-0,084	-0,155
-395,379	7,749	0,140	0,075
-394,365	-200,000	0,009	0,072
-393,350	-38,843	0,068	0,026
-392,336	-147,051	0,118	-0,007
-391,321	-200,000	-0,007	-0,029
-390,306	-31,626	-0,081	0,033
-389,292	445,171	-0,066	-0,104
-388,277	800,000	-0,023	-0,055
-387,263	-86,221	0,063	0,014
-386,248	800,000	0,063	0,168
-385,233	-200,000	0,001	0,122
-384,219	111,249	-0,104	-0,090
-383,204	98,626	0,039	-0,033
-382,190	-27,504	-0,021	-0,009
-381,175	-200,000	0,051	0,212
-380,160	-28,692	0,194	-0,079
-379,146	-100,370	-0,065	-0,011
-378,131	612,573	0,033	0,059
-377,117	-44,521	-0,137	0,049
-376,102	-105,956	-0,133	0,021
-375,088	190,737	0,071	-0,077
-374,073	197,080	-0,070	0,076
-373,058	200,405	0,098	0,108
-372,044	189,568	0,042	-0,045
-371,029	-200,000	-0,017	0,079
-370,015	-200,000	0,006	0,068
-369,000	92,735	-0,058	0,047
-367,985	-14,238	-0,039	0,018
-366,971	-200,000	-0,031	0,133
-365,956	218,435	0,003	0,004
-364,942	179,219	-0,052	0,054
-363,927	-200,000	0,027	-0,091
-362,912	-200,000	0,005	-0,114
-361,898	262,875	0,027	-0,034
-360,883	800,000	0,007	0,021
-359,869	-200,000	-0,014	-0,153
-358,854	-187,816	-0,156	0,001
-357,839	217,026	0,112	0,127
-356,825	-40,507	0,039	-0,014
-355,810	302,850	0,064	0,084
-354,796	-142,117	-0,208	0,015
-353,781	50,571	0,059	-0,040
-352,766	184,535	0,019	0,020
-351,752	139,644	0,056	-0,053
-350,737	-78,659	-0,060	-0,014
-349,723	7,836	0,061	0,033
-348,708	-110,933	0,193	0,028
-347,693	206,649	-0,104	0,116
-346,679	439,556	-0,063	0,098
-345,664	111,702	0,039	-0,033
-344,650	-20,385	0,134	0,059
-343,635	-200,000	-0,004	-0,093
-342,620	69,884	0,130	-0,096
-341,606	78,053	0,019	-0,015
-340,591	800,000	0,028	-0,065
-339,577	213,383	0,086	0,098
-338,562	457,156	-0,079	-0,126
-337,548	-200,000	-0,003	-0,020
-336,533	-25,173	0,058	0,025
-335,518	-7,451	0,119	0,057
-334,504	241,852	0,016	0,019
-333,489	-58,754	-0,117	0,036
-332,475	800,000	0,057	0,118
-331,460	75,636	-0,168	-0,127
-330,445	-86,459	0,056	0,012
-329,431	-32,684	0,055	0,022
-328,416	84,825	0,092	-0,072
-327,402	-70,863	0,057	-0,015
-326,387	97,376	-0,068	0,056
-325,372	-67,641	0,102	-0,028
-324,358	189,200	0,032	-0,034
-323,343	-200,000	-0,002	-0,163
-322,329	648,270	0,018	0,033
-321,314	-84,075	0,034	-0,008
-320,299	304,266	0,136	0,181
-319,285	-60,153	-0,020	-0,006
-318,270	130,535	-0,077	-0,071
-317,256	-4,461	0,061	-0,030
-316,241	-200,000	0,004	0,101
-315,226	-36,634	0,160	0,061
-314,212	-200,000	0,006	0,023
-313,197	-53,529	-0,053	0,017
-312,183	800,000	-0,043	-0,087
-311,168	-145,066	-0,039	-0,002
-310,153	-200,000	0,020	-0,118
-309,139	-35,784	-0,227	-0,088
-308,124	-99,109	0,166	0,030
-307,110	223,789	0,105	0,121
-306,095	-200,000	-0,020	0,105
-305,080	795,694	-0,037	0,073
-304,066	-55,007	-0,040	-0,013
-303,051	800,000	-0,056	-0,144
-302,037	-112,098	0,115	-0,016
-301,022	142,895	0,030	-0,028
-300,008	-5,107	0,146	-0,072
-298,993	167,319	-0,053	-0,054
-297,978	-34,887	0,115	-0,044
-296,964	154,633	-0,044	-0,043
-295,949	79,809	-0,012	0,009
-294,935	534,408	0,032	-0,054
-293,920	66,494	0,080	-0,058
-292,905	315,437	0,023	0,031
-291,891	-200,000	0,009	0,056
-290,876	800,000	0,035	0,103
-289,862	-93,450	-0,050	-0,010
-288,847	800,000	-0,048	-0,095
-287,832	-200,000	0,018	-0,124
-286,818	7,871	0,033	0,018
-285,803	-200,000	-0,005	-0,024
-284,789	-115,637	0,121	-0,016
-283,774	-200,000	0,024	0,076
-282,759	-75,819	0,038	0,010
-281,745	691,072	-0,023	0,044
-280,730	800,000	-0,036	0,083
-279,716	-20,123	0,024	-0,011
-278,701	102,523	0,070	0,058
-277,686	-130,182	0,076	-0,007
-276,672	28,692	-0,069	0,041
-275,657	79,029	-0,136	0,104
-274,643	800,000	-0,036	-0,087
-273,628	196,108	0,013	0,014
-272,613	800,000	0,053	-0,121
-271,599	256,636	0,075	-0,092
-270,584	-200,000	0,034	0,147
-269,570	-200,000	0,014	0,135
-268,555	50,006	-0,113	-0,076
-267,540	423,173	-0,043	0,066
-266,526	800,000	-0,036	0,076
-265,511	-200,000	0,009	0,138
-264,497	673,311	-0,076	0,142
-263,482	42,109	-0,069	-0,045
-262,467	307,578	0,062	0,083
-261,453	-69,402	-0,063	-0,017
-260,438	5,658	-0,137	0,072
-259,424	19,575	-0,066	0,037
-258,409	287,305	0,014	0,018
-257,395	394,978	0,018	0,026
-256,380	-200,000	0,019	-0,122
-255,365	156,669	0,071	-0,070
-254,351	81,095	0,090	-0,069
-253,336	-85,123	-0,074	-0,016
-252,322	-200,000	-0,012	0,038
-251,307	-31,187	0,044	0,018
-250,292	416,301	0,044	0,068
-249,278	131,121	0,063	0,058
-248,263	179,529	-0,018	-0,019
-247,249	-200,000	0,004	0,068
-246,234	-54,819	0,096	-0,031
-245,219	-200,000	0,007	-0,078
-244,205	500,954	0,073	-0,121
-243,190	-171,041	-0,045	-0,001
-242,176	302,755	0,055	-0,073
-241,161	-53,244	0,016	-0,005
-240,146	-200,000	0,013	-0,054
-239,132	-200,000	0,019	0,083
-238,117	-37,371	-0,234	-0,089
-237,103	97,083	0,120	0,098
-236,088	20,774	0,095	0,054
-235,073	97,270	-0,032	-0,026
-234,059	-71,605	-0,046	-0,012
-233,044	402,742	0,131	0,197
-232,030	187,795	-0,029	0,031
-231,015	47,064	-0,163	-0,108
-230,000	-21,288	-0,135	0,058
-228,986	5,780	-0,040	0,021
-227,971	142,069	0,066	0,062
-226,957	188,010	0,041	-0,043
-225,942	23,176	0,045	0,026
-224,927	-200,000	-0,023	0,086
-223,913	55,113	0,023	0,016
-222,898	16,314	-0,074	-0,042
-221,884	-119,193	-0,050	0,006
-220,869	-200,000	0,016	-0,058
-219,855	800,000	0,018	-0,043
-218,840	-200,000	-0,005	0,088
-217,825	800,000	0,004	-0,009
-216,811	-75,390	0,075	0,019
-215,796	-55,728	-0,013	0,004
-214,782	-72,988	0,144	0,037
-213,767	-84,866	0,106	0,023
-212,752	92,814	0,081	-0,065
-211,738	399,195	0,062	0,092
-210,723	-200,000	-0,008	0,043
-209,709	-77,045	-0,132	0,033
-208,694	800,000	-0,008	0,023
-207,679	59,956	0,076	0,053
-206,665	46,630	-0,092	0,061
-205,650	311,446	0,060	-0,080
-204,636	57,586	0,060	0,042
-203,621	-98,157	-0,076	0,014
-202,606	-59,156	-0,051	-0,015
-201,592	58,728	-0,094	-0,066
-200,577	-154,059	-0,059	-0,003
-199,563	-200,000	0,025	0,132
-198,548	4,327	0,117	0,061
-197,533	-200,000	-0,031	0,138
-196,519	631,808	-0,069	0,124
-195,504	759,926	0,047	0,091
-194,490	461,621	-0,039	-0,061
-193,475	-89,973	-0,083	-0,017
-192,460	-200,000	-0,009	-0,064
-191,446	-87,312	0,094	-0,020
-190,431	71,489	0,070	0,051
-189,417	-200,000	0,003	-0,019
-188,402	-13,782	-0,054	0,025
-187,387	-10,091	-0,098	0,046
-186,373	-200,000	0,007	0,120
-185,358	41,605	-0,075	0,048
-184,344	207,329	0,071	0,079
-183,329	17,211	-0,033	-0,019
-182,315	-200,000	0,007	-0,029
-181,300	800,000	-0,042	-0,103
-180,285	29,150	0,118	-0,071
-179,271	-200,000	-0,005	-0,126
-178,256	-48,141	0,031	0,011
-177,242	-114,976	0,204	0,027
-176,227	-200,000	-0,001	0,058
-175,212	59,302	0,037	-0,026
-174,198	-200,000	-0,001	0,011
-173,183	-200,000	0,011	0,047
-172,169	800,000	-0,075	-0,156
-171,154	-200,000	-0,001	-0,100
-170,139	291,326	0,076	-0,098
-169,125	-31,966	-0,120	-0,048
-168,110	130,191	0,068	-0,062
-167,096	-200,000	0,029	-0,098
-166,081	-59,093	-0,022	0,007
-165,066	250,412	-0,058	-0,070
-164,052	13,436	0,046	-0,025
-163,037	-200,000	-0,007	0,098
-162,023	-59,295	-0,038	-0,012
-161,008	-200,000	0,017	0,087
-159,993	160,003	0,154	0,153
-158,979	359,192	-0,042	0,060
-157,964	43,880	-0,023	0,015
-156,950	228,886	0,076	0,089
-155,935	39,826	0,054	0,034
-154,920	201,704	0,014	-0,015
-153,906	72,974	0,086	0,064
-152,891	200,933	-0,077	0,084
-151,877	194,353	-0,042	-0,045
-150,862	-200,000	-0,012	0,101
-149,847	800,000	0,035	0,105
-148,833	270,469	0,096	-0,121
-147,818	71,636	0,053	0,039
-146,804	361,000	-0,047	-0,068
-145,789	217,329	-0,044	0,050
-144,775	100,167	-0,030	0,024
-143,760	50,389	-0,078	-0,052
-142,745	-91,347	-0,041	-0,008
-141,731	9,225	-0,066	-0,036
-140,716	-8,775	-0,104	0,049
-139,702	63,145	0,050	0,036
-138,687	-200,000	-0,019	0,118
-137,672	800,000	0,006	0,015
-136,658	25,352	-0,082	-0,048
-135,643	-103,096	-0,064	0,011
-134,629	22,016	0,049	-0,028
-133,614	201,985	0,067	-0,074
-132,599	59,715	-0,055	0,039
-131,585	-200,000	0,032	0,120
-130,570	505,246	-0,050	-0,082
-129,556	800,000	-0,013	0,036
-128,541	7,555	0,071	0,038
-127,526	136,381	0,049	-0,045
-126,512	-200,000	0,022	0,105
-125,497	211,457	0,089	0,100
-124,483	800,000	-0,024	-0,067
-123,468	-200,000	0,002	-0,107
-122,453	-43,890	0,102	-0,036
-121,439	150,234	-0,078	0,075
-120,424	560,410	0,039	0,067
-119,410	76,860	0,077	0,058
-118,395	680,309	0,066	0,122
-117,380	-123,697	0,037	-0,004
-116,366	-200,000	0,050	-0,163
-115,351	-48,478	0,043	-0,015
-114,337	-114,132	0,179	-0,024
-113,322	800,000	-0,028	-0,056
-112,307	-50,938	-0,092	-0,030
-111,293	150,755	0,076	0,074
-110,278	-139,110	-0,053	0,004
-109,264	-200,000	0,008	0,073
-108,249	-72,451	-0,100	0,026
-107,234	-200,000	0,020	-0,093
-106,220	-147,561	-0,116	0,007
-105,205	-131,101	0,065	0,006
-104,191	511,269	-0,014	-0,024
-103,176	-98,839	0,037	0,007
-102,162	800,000	-0,054	-0,133
-101,147	-80,178	-0,164	0,039
-100,132	-200,000	0,008	0,086
-99,118	-41,062	-0,067	0,025
-98,103	-200,000	-0,013	-0,050
-97,089	-129,591	-0,215	0,021
-96,074	-50,581	0,113	-0,037
-95,059	-200,000	-0,034	0,155
-94,045	-14,551	0,073	-0,033
-93,030	131,828	-0,077	0,070
-92,016	63,368	-0,089	-0,063
-91,001	777,442	-0,054	-0,105
-89,986	-200,000	-0,004	-0,086
-88,972	-200,000	0,015	0,116
-87,957	-73,588	-0,078	-0,020
-86,943	-200,000	0,014	0,119
-85,928	13,001	-0,096	-0,052
-84,913	-200,000	-0,004	-0,078
-83,899	54,761	0,053	0,036
-82,884	-46,198	0,136	-0,047
-81,870	-4,447	0,101	-0,049
-80,855	800,000	-0,010	-0,031
-79,840	-200,000	-0,010	0,042
-78,826	-15,695	0,068	-0,031
-77,811	-200,000	0,004	-0,044
-76,797	369,391	0,005	-0,007
-75,782	12,386	-0,055	0,030
-74,767	67,263	-0,058	0,042
-73,753	101,480	0,036	-0,030
-72,738	182,509	-0,082	0,086
-71,724	-87,983	-0,090	-0,019
-70,709	617,868	-0,055	-0,099
-69,694	800,000	0,033	-0,067
-68,680	210,658	-0,034	0,037
-67,665	494,269	-0,045	-0,074
-66,651	-82,721	-0,036	0,008
-65,636	189,702	-0,066	-0,070
-64,622	-190,665	-0,101	-0,001
-63,607	800,000	-0,025	-0,067
-62,592	306,588	-0,026	-0,034
-61,578	-42,281	0,072	-0,026
-60,563	-14,250	-0,090	-0,041
-59,549	-63,762	0,064	-0,018
-58,534	56,447	-2,384	-1,638
-57,519	-200,000	0,029	-0,571
-56,505	-200,000	-1,552	-5,242
-55,490	258,795	0,974	1,191
-54,476	800,000	5,358	11,845
-53,461	-200,000	19,708	331,816
-52,446	800,000	749,140	2311,195
-51,432	538,061	1656,278	2795,788
-50,417	73,179	1677,247	1239,416
-49,403	18,539	1598,966	901,949
-48,388	13,225	1553,776	849,029
-47,373	18,461	1546,004	871,605
-46,359	16,143	1535,164	853,669
-45,344	11,822	1530,791	829,222
-44,330	11,691	1528,955	827,530
-43,315	11,659	1527,349	826,461
-42,300	11,591	1525,882	825,291
-41,286	11,576	1524,238	824,293
-40,271	11,613	1522,594	823,560
-39,257	11,673	1520,931	822,928
-38,242	11,663	1519,710	822,186
-37,227	11,649	1518,392	821,368
-36,213	11,624	1517,032	820,476
-35,198	11,595	1515,760	819,607
-34,184	11,609	1514,567	819,003
-33,169	11,652	1512,788	818,221
-32,154	11,633	1511,613	817,459
-31,140	11,617	1510,452	816,719
-30,125	11,639	1508,968	815,997
-29,111	11,694	1507,643	815,520
-28,096	11,645	1506,732	814,753
-27,082	11,637	1505,784	814,167
-26,067	11,659	1504,249	813,413
-25,052	11,625	1503,136	812,609
-24,038	11,588	1501,965	811,757
-23,023	11,654	1500,774	811,413
-22,009	11,632	1499,856	810,774
-20,994	11,660	1498,968	810,403
-19,979	11,635	1497,872	809,655
-18,965	11,626	1496,999	809,104
-17,950	11,581	1496,140	808,383
-16,936	11,548	1495,031	807,587
-15,921	11,539	1493,953	806,929
-14,906	11,472	1492,914	806,003
-13,892	11,434	1491,987	805,284
-12,877	11,471	1490,850	804,819
-11,863	11,395	1489,923	803,911
-10,848	11,479	1488,878	803,730
-9,833	11,600	1487,868	803,751
-8,819	11,579	1486,916	803,104
-7,804	11,481	1485,922	802,048
-6,790	11,506	1485,181	801,742
-5,775	11,519	1484,417	801,361
-4,760	11,524	1483,324	800,766
-3,746	11,490	1481,924	799,809
-2,731	11,377	1481,071	798,758
-1,717	11,326	1480,063	797,936
-0,702	11,326	1479,005	797,329
0,313	11,126	1478,099	797,061
1,327	14,984	1475,297	814,407
2,342	24,647	1239,274	723,610
3,356	21,256	696,995	399,155
4,371	-7,592	468,129	222,971
5,386	-11,038	439,841	204,364
6,400	-12,283	431,015	198,433
7,415	-12,164	427,134	196,801
8,429	-13,246	424,568	194,050
9,444	-13,457	423,075	193,049
10,459	-13,566	421,991	192,381
11,473	-13,712	421,109	191,755
12,488	-13,818	419,766	190,975
13,502	-14,192	419,111	190,131
14,517	-14,396	418,103	189,369
15,531	-14,580	417,351	188,752
16,546	-14,705	416,606	188,223
17,561	-14,696	415,900	187,899
18,575	-14,823	415,427	187,491
19,590	-14,820	414,772	187,183
20,604	-14,785	414,410	187,052
21,619	-14,874	413,658	186,572
22,634	-14,861	413,070	186,307
23,648	-14,986	412,837	186,012
24,663	-14,945	412,185	185,758
25,677	-14,981	411,829	185,531
26,692	-14,957	411,453	185,380
27,707	-14,948	410,886	185,120
28,721	-15,006	410,538	184,865
29,736	-15,042	410,042	184,577
30,750	-14,995	409,627	184,438
31,765	-15,089	409,283	184,137
32,780	-15,019	408,799	183,999
33,794	-15,134	408,527	183,702
34,809	-15,041	407,948	183,553
35,823	-15,067	407,607	183,347
36,838	-15,047	407,220	183,184
37,853	-15,116	406,721	182,849
38,867	-15,051	406,190	182,684
39,882	-15,180	405,926	182,371
40,896	-15,140	405,517	182,226
41,911	-15,129	405,206	182,086
42,926	-15,100	404,751	181,905
43,940	-15,159	404,508	181,698
44,955	-15,084	403,958	181,537
45,969	-15,262	403,590	181,114
46,984	-15,406	403,218	180,734
47,999	-15,607	402,689	180,209
49,013	-15,741	402,374	179,870
50,028	-15,763	401,936	179,629
51,042	-15,939	401,559	179,207
52,057	-15,875	401,284	179,154
53,071	-15,850	400,924	179,012
54,086	-15,683	400,658	179,102
55,101	-15,634	400,439	179,054
56,115	-15,419	400,184	179,213
57,130	-14,809	400,236	180,043
58,144	-14,680	399,908	180,052
59,159	-14,567	399,522	180,015
60,174	-14,562	399,192	179,856
61,188	-14,721	398,797	179,449
62,203	-14,887	398,469	179,062
63,217	-14,862	398,021	178,879
64,232	-14,775	397,743	178,855
65,247	-14,608	397,420	178,917
66,261	-14,758	397,036	178,527
67,276	-14,985	396,446	177,944
68,290	-15,361	396,112	177,277
69,305	-15,277	395,521	177,109
70,320	-15,377	395,373	176,894
71,334	-15,107	395,158	177,140
72,349	-14,604	394,920	177,685
73,363	-14,580	394,701	177,603
74,378	-14,784	394,443	177,200
75,393	-14,740	393,886	176,993
76,407	-14,744	393,553	176,823
77,422	-14,905	393,208	176,438
78,436	-14,905	392,902	176,286
79,451	-14,747	392,480	176,289
80,466	-15,076	392,136	175,686
81,480	-15,103	391,596	175,392
82,495	-15,188	391,349	175,154
83,509	-15,165	391,212	175,108
84,524	-15,273	390,777	174,755
85,539	-15,371	390,382	174,435
86,553	-15,464	390,112	174,177
87,568	-15,216	389,782	174,339
88,582	-15,211	389,492	174,200
89,597	-15,202	389,192	174,062
90,611	-15,063	388,987	174,137
91,626	-14,864	388,830	174,310
92,641	-14,895	388,462	174,089
93,655	-15,153	388,011	173,535
94,670	-15,147	387,746	173,410
95,684	-14,985	387,416	173,457
96,699	-14,880	387,183	173,474
97,714	-15,130	386,810	172,966
98,728	-15,202	386,457	172,700
99,743	-15,332	386,030	172,325
100,757	-15,361	385,743	172,145
101,772	-15,186	385,483	172,239
102,787	-15,087	385,153	172,204
103,801	-15,000	385,004	172,235
104,816	-14,852	384,921	172,373
105,830	-14,936	384,654	172,129
106,845	-14,766	384,402	172,221
107,860	-14,681	383,961	172,117
108,874	-14,715	383,699	171,940
109,889	-14,791	383,315	171,655
110,903	-14,945	383,101	171,347
111,918	-14,704	382,605	171,418
112,933	-14,907	382,458	171,077
113,947	-14,780	382,131	171,079
114,962	-14,691	381,844	171,049
115,976	-14,837	381,604	170,739
116,991	-14,941	381,277	170,445
118,006	-14,883	381,154	170,448
119,020	-14,923	380,882	170,261
120,035	-14,622	380,591	170,498
121,049	-14,622	380,233	170,324
122,064	-14,484	379,840	170,307
123,079	-14,855	379,774	169,791
124,093	-14,808	379,278	169,614
125,108	-15,114	378,916	169,049
126,122	-15,397	378,450	168,468
127,137	-15,399	377,966	168,234
128,151	-15,341	377,980	168,299
129,166	-15,093	377,543	168,403
130,181	-15,195	377,433	168,210
131,195	-15,170	376,981	168,025
132,210	-14,880	376,859	168,321
133,224	-14,857	376,781	168,300
134,239	-14,676	376,432	168,357
135,254	-14,755	376,056	168,075
136,268	-14,868	375,769	167,789
137,283	-15,238	375,231	167,070
138,297	-15,278	374,777	166,803
139,312	-15,185	374,537	166,798
140,327	-14,914	374,573	167,139
141,341	-14,447	374,521	167,684
142,356	-14,220	374,302	167,855
143,370	-14,288	374,104	167,666
144,385	-14,362	373,784	167,416
145,400	-14,240	373,343	167,355
146,414	-14,389	373,133	167,060
147,429	-14,462	372,972	166,883
148,443	-14,427	372,566	166,730
149,458	-14,423	372,217	166,564
150,473	-14,376	371,957	166,490
151,487	-14,483	371,735	166,243
152,502	-14,424	371,330	166,120
153,516	-14,467	371,252	166,019
154,531	-14,463	370,971	165,883
155,546	-14,511	370,819	165,740
156,560	-14,482	370,312	165,534
157,575	-14,628	369,947	165,177
158,589	-14,426	369,772	165,333
159,604	-14,298	369,706	165,446
160,619	-14,223	369,339	165,360
161,633	-14,320	369,167	165,148
162,648	-14,245	368,822	165,072
163,662	-14,326	368,581	164,850
164,677	-14,474	368,328	164,540
165,692	-14,452	368,164	164,479
166,706	-14,077	367,822	164,771
167,721	-14,352	367,840	164,428
168,735	-14,087	367,427	164,553
169,750	-14,253	367,219	164,242
170,764	-14,330	367,090	164,075
171,779	-14,141	366,740	164,136
172,794	-14,242	366,496	163,888
173,808	-14,433	366,052	163,442
174,823	-14,960	365,509	162,544
175,837	-15,049	365,143	162,258
176,852	-14,517	365,324	162,971
177,867	-14,200	365,146	163,262
178,881	-14,246	364,805	163,040
179,896	-14,180	364,681	163,050
180,910	-14,118	364,427	162,997
181,925	-14,310	364,291	162,688
182,940	-14,139	363,822	162,672
183,954	-14,150	363,792	162,631
184,969	-14,090	363,279	162,459
185,983	-14,216	363,299	162,301
186,998	-14,217	363,102	162,198
188,013	-13,981	362,663	162,272
189,027	-14,078	362,448	162,044
190,042	-14,111	362,215	161,886
191,056	-14,090	362,175	161,879
192,071	-13,910	361,905	161,961
193,086	-13,659	361,531	162,081
194,100	-13,261	361,775	162,654
195,115	-12,746	361,556	163,159
196,129	-12,064	361,939	164,137
197,144	-8,163	363,756	169,655
198,159	-4,801	365,374	174,464
199,173	-1,447	366,768	179,181
200,188	-0,980	366,808	179,751
201,202	-1,262	366,526	179,256
202,217	-1,172	366,139	179,159
203,232	-0,790	365,953	179,515
204,246	-0,640	365,888	179,646
205,261	-0,594	365,616	179,553
206,275	-0,447	365,530	179,672
207,290	-0,485	365,332	179,512
208,304	-0,359	364,868	179,420
209,319	-0,673	364,743	178,965
210,334	-0,645	364,553	178,890
211,348	-0,608	364,143	178,717
212,363	-0,694	363,751	178,405
213,377	-0,713	363,624	178,304
214,392	-0,682	363,389	178,210
215,407	-0,512	363,250	178,330
216,421	-0,476	363,066	178,267
217,436	-0,638	362,922	177,987
218,450	-0,721	362,407	177,618
219,465	-0,653	361,983	177,476
220,480	-0,956	362,037	177,125
221,494	-0,782	361,738	177,171
222,509	-0,659	361,800	177,332
223,523	-0,422	361,404	177,404
224,538	-0,774	361,179	176,860
225,553	-0,675	360,704	176,729
226,567	-0,701	360,530	176,597
227,582	-0,278	360,569	177,103
228,596	-0,042	360,428	177,297
229,611	-0,438	360,069	176,636
230,626	-0,680	359,575	176,091
231,640	-0,642	359,546	176,106
232,655	-0,147	359,320	176,565
233,669	-0,049	359,167	176,590
234,684	0,118	358,947	176,664
235,699	-0,258	358,510	175,989
236,713	-0,642	358,372	175,453
237,728	-0,650	357,925	175,208
238,742	-0,856	357,646	174,814
239,757	-0,648	357,393	174,920
240,772	-0,806	357,131	174,590
241,786	-0,759	357,003	174,567
242,801	-0,530	356,853	174,747
243,815	-0,223	356,839	175,084
244,830	-0,344	356,543	174,782
245,844	-0,863	356,119	173,951
246,859	-0,633	355,748	174,022
247,874	-0,407	355,514	174,157
248,888	-0,237	355,535	174,350
249,903	-0,423	355,222	173,964
250,917	-0,517	354,897	173,681
251,932	-0,541	354,656	173,519
252,947	-0,898	354,393	172,959
253,961	-0,829	354,172	172,916
254,976	-0,712	354,011	172,958
255,990	-0,425	354,038	173,290
257,005	-0,367	353,671	173,162
258,020	-0,385	353,492	173,038
259,034	-0,437	353,258	172,847
260,049	-0,477	352,987	172,653
261,063	-0,405	352,750	172,605
262,078	-0,196	352,522	172,721
263,093	-0,061	352,465	172,833
264,107	-0,160	352,108	172,529
265,122	-0,310	351,735	172,157
266,136	-0,061	351,657	172,391
267,151	-0,139	351,507	172,211
268,166	-0,520	350,963	171,492
269,180	-1,019	350,605	170,727
270,195	-0,728	350,636	171,061
271,209	-0,567	350,276	171,055
272,224	-0,601	350,355	171,040
273,239	-0,472	349,968	170,983
274,253	-0,390	349,732	170,947
275,268	-0,748	349,443	170,380
276,282	-0,777	349,038	170,134
277,297	-0,817	348,870	169,992
278,312	-0,481	348,850	170,352
279,326	-0,489	348,486	170,149
280,341	-0,524	348,542	170,121
281,355	-0,288	348,207	170,212
282,370	-0,304	347,937	170,047
283,384	-0,656	347,551	169,442
284,399	-0,723	347,323	169,240
285,414	-0,790	347,019	169,000
286,428	-0,454	347,010	169,363
287,443	-0,352	346,984	169,450
288,457	-0,326	346,656	169,305
289,472	-0,613	346,229	168,755
290,487	-0,904	345,939	168,270
291,501	-1,011	345,676	168,006
292,516	-0,875	345,423	168,021
293,530	-0,741	345,466	168,179
294,545	-0,712	345,167	168,051
295,560	-0,722	345,143	168,013
296,574	-0,596	344,878	168,011
297,589	-0,545	344,676	167,956
298,603	-0,462	344,241	167,822
299,618	-0,470	344,103	167,731
300,633	-0,326	343,978	167,817
301,647	-0,260	343,841	167,809
302,662	-0,248	343,628	167,704
303,676	-0,183	343,469	167,684
304,691	-0,390	343,329	167,369
305,706	-0,318	342,908	167,229
306,720	-0,241	342,606	167,154
307,735	-0,534	342,208	166,616
308,749	-0,582	342,184	166,536
309,764	-0,096	341,983	166,967
310,779	-0,249	341,720	166,653
311,793	-0,453	341,405	166,256
312,808	-0,312	341,285	166,340
313,822	-0,391	341,124	166,160
314,837	-0,295	340,721	166,055
315,852	-0,546	340,640	165,721
316,866	-0,280	340,364	165,868
317,881	-0,179	340,356	165,961
318,895	-0,383	339,990	165,542
319,910	-0,567	339,543	165,105
320,925	-0,707	339,270	164,803
321,939	-1,017	338,989	164,308
322,954	-0,789	338,986	164,544
323,968	-0,215	338,934	165,140
324,983	-0,093	339,002	165,293
325,997	0,172	338,747	165,447
327,012	-0,166	338,431	164,904
328,027	-0,249	338,148	164,661
329,041	0,075	337,984	164,923
330,056	-0,062	337,581	164,561
331,070	-0,379	337,249	164,036
332,085	-0,537	336,925	163,689
333,100	-0,451	336,782	163,701
334,114	-0,199	336,677	163,911
335,129	-0,184	336,705	163,928
336,143	-0,081	336,246	163,802
337,158	-0,250	335,980	163,473
338,173	-0,137	335,850	163,519
339,187	-0,324	335,499	163,128
340,202	-0,401	335,180	162,875
341,216	-0,443	335,139	162,794
342,231	-0,259	334,887	162,858
343,246	-0,400	334,654	162,576
344,260	-0,476	334,603	162,454
345,275	-0,230	334,450	162,634
346,289	-0,241	334,011	162,394
347,304	-0,623	333,913	161,916
348,319	-0,351	333,700	162,094
349,333	-0,125	333,633	162,293
350,348	-0,011	333,483	162,329
351,362	0,138	333,385	162,429
352,377	0,064	333,207	162,248
353,392	0,108	332,566	161,968
354,406	0,050	332,467	161,843
355,421	197,517	1328,910	1392,295
356,435	161,715	1450,203	1392,206
