DTS Sentinel unit serial number:	SN410029Multiplexer serial number:	ORYXHardware model number:	OX2-SRSoftware version number:	ORYX F/W v4,00 Oryx Data Collector v3.7.2.0data status	okinstallation	B6 Nyhavnadifferential loss correction	single-endedforward channel	channel 2reverse channel	N/Adate	2023/12/08time	16:30:08forward acquisition time	300,00reverse acquisition time	0,00gamma	499,1914k internal	0,3159k external	0,3159temperature offset calibration	1,0000default loss term (dB/km)	0,3820temperature slope calibration	1,0000multiplexer offset coefficient	1,0000multiplexer slope coefficient	1,0000fibre end	0,00T internal ref (°C)	15,12T ext. ref 1 (°C)	-1,42T ext. ref 2 (°C)	-1,42length (m)	temperature (°C)	Stokes	anti-Stokes-744,400	-68,421	0,044	-0,013
-743,385	-90,285	-0,262	0,056
-742,371	-134,752	0,250	0,022
-741,356	-109,364	-0,342	0,053
-740,342	16,449	0,118	0,068
-739,327	-113,330	-0,314	0,045
-738,312	197,872	0,066	-0,074
-737,298	-52,970	-0,307	0,103
-736,283	234,529	0,093	0,113
-735,269	-200,000	-0,171	-0,000
-734,254	-33,654	0,032	-0,013
-733,239	-86,812	-0,409	-0,091
-732,225	-127,156	0,158	0,017
-731,210	793,519	-0,036	0,073
-730,196	167,079	0,007	-0,007
-729,181	18,890	-0,122	-0,072
-728,167	154,848	0,162	0,164
-727,152	800,000	-0,025	-0,067
-726,137	-54,232	0,158	-0,052
-725,123	800,000	0,067	-0,192
-724,108	123,555	-0,139	-0,129
-723,094	48,623	-0,102	-0,070
-722,079	-80,231	0,077	0,019
-721,064	653,125	0,035	0,067
-720,050	-116,886	-0,077	0,010
-719,035	-6,629	-0,118	-0,059
-718,021	96,185	0,139	0,117
-717,006	156,204	0,073	-0,075
-715,991	-200,000	-0,005	-0,111
-714,977	-200,000	-0,015	0,089
-713,962	163,472	0,066	-0,068
-712,948	479,561	0,087	0,146
-711,933	800,000	0,034	0,094
-710,918	-36,895	0,129	-0,051
-709,904	5,241	-0,074	-0,040
-708,889	-18,964	-0,014	0,006
-707,875	206,596	-0,068	-0,078
-706,860	-200,000	-0,003	0,115
-705,845	-200,000	-0,003	0,077
-704,831	58,264	-0,065	-0,047
-703,816	-200,000	0,008	-0,063
-702,802	73,482	-0,093	-0,071
-701,787	273,369	-0,058	0,076
-700,772	-64,423	-0,072	-0,022
-699,758	800,000	-0,039	0,096
-698,743	294,944	0,080	-0,108
-697,729	8,920	-0,094	0,052
-696,714	95,902	0,064	0,054
-695,699	280,482	0,046	-0,060
-694,685	370,402	0,069	-0,103
-693,670	800,000	-0,044	0,106
-692,656	-71,409	0,169	-0,046
-691,641	-12,093	-0,095	0,046
-690,627	-200,000	0,028	0,138
-689,612	-22,569	0,076	0,034
-688,597	170,305	-0,108	-0,114
-687,583	35,783	-0,102	-0,066
-686,568	-200,000	0,018	-0,113
-685,554	477,760	0,063	0,105
-684,539	-11,595	0,211	-0,102
-683,524	-75,791	-0,138	-0,036
-682,510	-105,818	-0,051	0,008
-681,495	-7,140	-0,013	-0,006
-680,481	182,936	0,026	0,028
-679,466	746,256	-0,064	-0,128
-678,451	800,000	0,010	-0,021
-677,437	800,000	0,021	0,046
-676,422	800,000	-0,011	-0,028
-675,408	201,244	-0,050	0,057
-674,393	224,098	-0,091	-0,108
-673,378	29,973	0,001	0,000
-672,364	8,287	-0,076	0,042
-671,349	139,002	0,013	-0,013
-670,335	-119,999	-0,043	0,005
-669,320	40,301	0,020	0,014
-668,305	466,277	-0,047	0,077
-667,291	-134,923	-0,154	-0,013
-666,276	-200,000	-0,004	0,018
-665,262	388,499	-0,007	0,010
-664,247	-44,442	0,121	-0,044
-663,232	224,518	-0,044	-0,053
-662,218	-23,075	-0,049	0,022
-661,203	-89,412	0,084	0,018
-660,189	800,000	0,063	0,165
-659,174	501,512	-0,076	-0,129
-658,159	29,779	-0,047	-0,029
-657,145	166,380	0,127	-0,132
-656,130	171,864	-0,040	-0,042
-655,116	-75,170	-0,112	-0,029
-654,101	188,203	0,076	-0,084
-653,086	800,000	0,021	0,048
-652,072	-200,000	0,000	-0,071
-651,057	-200,000	-0,005	-0,085
-650,043	422,931	-0,015	0,024
-649,028	-7,611	0,033	0,017
-648,014	343,154	-0,077	0,111
-646,999	713,725	0,044	0,086
-645,984	138,311	-0,063	-0,061
-644,970	-5,537	0,049	0,025
-643,955	-29,520	-0,042	0,017
-642,941	-154,627	0,103	-0,005
-641,926	-173,844	0,068	-0,001
-640,911	-43,245	0,034	-0,013
-639,897	-37,724	0,058	0,023
-638,882	-200,000	-0,025	-0,106
-637,868	800,000	0,032	0,098
-636,853	56,534	-0,124	-0,088
-635,838	567,244	0,074	-0,132
-634,824	-105,509	-0,098	0,016
-633,809	-40,220	0,118	0,045
-632,795	-60,707	0,070	0,022
-631,780	-200,000	0,004	0,019
-630,765	-79,871	-0,053	-0,013
-629,751	427,855	-0,070	-0,112
-628,736	33,045	0,030	0,019
-627,722	240,045	-0,015	-0,019
-626,707	-125,186	0,027	0,003
-625,692	-200,000	0,053	0,241
-624,678	-42,159	-0,150	0,056
-623,663	-116,928	-0,017	-0,002
-622,649	-120,943	-0,058	-0,007
-621,634	212,383	-0,052	-0,060
-620,619	800,000	0,021	0,045
-619,605	166,128	0,085	-0,089
-618,590	344,474	0,083	-0,120
-617,576	-94,219	0,153	0,031
-616,561	800,000	0,036	-0,081
-615,546	243,524	-0,038	-0,047
-614,532	-200,000	-0,038	-0,200
-613,517	791,765	0,020	-0,040
-612,503	-200,000	-0,013	0,050
-611,488	-118,156	-0,123	0,016
-610,474	-200,000	0,024	0,106
-609,459	-121,884	-0,173	-0,021
-608,444	-200,000	0,002	-0,048
-607,430	-112,665	-0,092	-0,013
-606,415	-200,000	0,007	-0,076
-605,401	-96,577	0,148	0,028
-604,386	387,959	0,039	-0,059
-603,371	800,000	0,016	-0,045
-602,357	36,547	-0,067	-0,043
-601,342	41,352	0,127	-0,084
-600,328	267,573	0,066	0,084
-599,313	-133,146	-0,129	0,012
-598,298	-145,394	-0,049	-0,003
-597,284	415,522	0,079	0,124
-596,269	-61,939	-0,046	-0,014
-595,255	-24,404	-0,081	0,035
-594,240	56,904	0,024	-0,017
-593,225	135,590	0,030	-0,029
-592,211	-72,510	-0,219	-0,059
-591,196	-21,543	0,072	0,032
-590,182	178,743	0,061	0,065
-589,167	-83,766	0,044	-0,010
-588,152	-67,353	0,082	0,023
-587,138	-95,733	-0,152	0,029
-586,123	-132,156	-0,075	-0,007
-585,109	-38,318	0,011	-0,004
-584,094	104,339	-0,027	0,023
-583,079	800,000	-0,050	0,151
-582,065	518,801	-0,035	0,060
-581,050	-68,709	0,134	-0,038
-580,036	800,000	0,026	0,058
-579,021	-103,560	-0,012	0,002
-578,006	800,000	-0,040	-0,084
-576,992	-200,000	0,012	-0,050
-575,977	800,000	-0,006	0,019
-574,963	800,000	0,029	0,083
-573,948	-2,954	-0,150	-0,076
-572,934	241,591	0,059	0,072
-571,919	93,566	-0,052	0,043
-570,904	800,000	-0,047	-0,132
-569,890	69,132	-0,169	0,127
-568,875	80,704	0,059	0,047
-567,861	216,995	0,065	-0,076
-566,846	-200,000	0,020	0,157
-565,831	197,483	0,103	-0,115
-564,817	-200,000	0,019	-0,183
-563,802	56,547	-0,030	-0,021
-562,788	-87,125	0,201	-0,044
-561,773	87,723	0,032	-0,026
-560,758	-67,817	0,089	-0,025
-559,744	800,000	0,036	-0,087
-558,729	-17,725	0,149	0,068
-557,715	-92,267	-0,241	0,049
-556,700	121,198	-0,040	-0,037
-555,685	166,308	0,087	-0,090
-554,671	-200,000	-0,001	-0,014
-553,656	800,000	-0,041	-0,111
-552,642	197,539	0,044	0,049
-551,627	181,195	0,068	-0,073
-550,612	151,633	-0,150	0,149
-549,598	205,972	-0,047	0,054
-548,583	154,986	-0,045	-0,045
-547,569	389,152	0,108	0,164
-546,554	800,000	0,057	0,128
-545,539	-87,130	-0,042	0,009
-544,525	-84,998	0,118	0,027
-543,510	800,000	0,047	0,103
-542,496	-152,282	0,042	-0,002
-541,481	114,696	0,040	0,036
-540,466	163,072	-0,058	0,060
-539,452	-200,000	0,000	-0,063
-538,437	-10,613	0,072	0,035
-537,423	242,208	0,061	0,075
-536,408	635,662	-0,061	-0,114
-535,393	800,000	0,036	0,089
-534,379	-200,000	-0,006	-0,025
-533,364	800,000	0,025	-0,060
-532,350	21,446	0,070	0,041
-531,335	800,000	0,046	0,133
-530,321	800,000	0,031	0,081
-529,306	-200,000	0,019	-0,151
-528,291	-33,912	-0,056	-0,023
-527,277	270,389	-0,087	-0,111
-526,262	800,000	-0,026	0,084
-525,248	-71,557	0,048	-0,013
-524,233	369,694	0,022	0,032
-523,218	800,000	0,046	-0,118
-522,204	800,000	0,029	0,070
-521,189	618,968	-0,007	-0,012
-520,175	-200,000	0,024	0,085
-519,160	577,023	0,031	-0,055
-518,145	800,000	-0,027	0,057
-517,131	800,000	0,025	0,055
-516,116	519,101	0,049	-0,083
-515,102	23,108	0,078	0,047
-514,087	-98,331	-0,123	0,023
-513,072	102,393	-0,112	-0,096
-512,058	284,554	0,077	-0,102
-511,043	81,319	-0,138	-0,108
-510,029	259,344	0,119	-0,151
-509,014	-3,243	0,087	-0,044
-507,999	153,652	-0,107	0,107
-506,985	138,800	-0,073	-0,070
-505,970	-200,000	0,002	-0,025
-504,956	78,311	-0,122	0,095
-503,941	62,617	0,077	0,056
-502,926	800,000	0,054	0,114
-501,912	-144,508	0,082	-0,005
-500,897	256,776	-0,027	0,033
-499,883	-32,623	-0,150	-0,061
-498,868	108,758	-0,018	0,015
-497,853	94,020	-0,073	-0,060
-496,839	-200,000	0,000	0,118
-495,824	298,281	0,051	0,069
-494,810	-200,000	-0,014	0,075
-493,795	-200,000	-0,033	0,134
-492,781	125,728	-0,106	0,098
-491,766	-96,094	-0,122	-0,023
-490,751	349,945	0,004	0,006
-489,737	407,162	-0,059	0,092
-488,722	143,486	0,076	0,074
-487,708	-200,000	-0,021	0,122
-486,693	-200,000	0,016	0,111
-485,678	-200,000	0,008	-0,026
-484,664	-200,000	0,012	0,101
-483,649	800,000	0,012	-0,027
-482,635	-200,000	0,011	0,109
-481,620	-162,942	-0,035	-0,001
-480,605	178,240	0,043	-0,045
-479,591	89,948	0,052	0,042
-478,576	-61,665	-0,029	0,009
-477,562	-38,440	-0,052	0,020
-476,547	-115,385	0,088	-0,012
-475,532	3,325	-0,038	0,020
-474,518	800,000	0,029	0,063
-473,503	159,660	0,041	-0,041
-472,489	46,489	0,101	-0,069
-471,474	86,427	0,069	0,055
-470,459	-200,000	0,008	0,113
-469,445	592,955	0,017	-0,031
-468,430	8,617	-0,072	0,040
-467,416	-200,000	0,006	0,071
-466,401	-68,726	-0,084	-0,024
-465,386	800,000	0,012	-0,030
-464,372	-107,707	-0,039	-0,006
-463,357	-200,000	0,008	0,149
-462,343	642,173	0,085	-0,158
-461,328	-164,629	-0,078	-0,003
-460,313	800,000	0,066	-0,138
-459,299	243,480	0,006	0,007
-458,284	800,000	0,033	0,076
-457,270	-70,911	0,115	-0,031
-456,255	800,000	0,009	0,022
-455,241	237,446	-0,013	-0,016
-454,226	503,937	-0,104	-0,177
-453,211	800,000	0,016	-0,047
-452,197	-200,000	0,008	0,060
-451,182	-7,318	0,051	-0,025
-450,168	412,291	0,023	-0,036
-449,153	-145,252	-0,135	-0,009
-448,138	800,000	-0,015	-0,046
-447,124	-200,000	0,031	-0,101
-446,109	323,126	0,052	-0,072
-445,095	-134,002	0,162	-0,014
-444,080	-200,000	0,025	-0,103
-443,065	-86,424	0,144	0,032
-442,051	108,965	-0,116	-0,101
-441,036	581,787	-0,013	-0,023
-440,022	-200,000	-0,008	-0,086
-439,007	165,493	-0,059	-0,061
-437,992	9,679	0,104	0,057
-436,978	90,356	0,115	0,094
-435,963	247,711	-0,050	-0,062
-434,949	519,727	-0,056	-0,097
-433,934	16,529	0,037	0,021
-432,919	800,000	-0,056	0,160
-431,905	463,872	0,062	-0,101
-430,890	-7,801	0,175	0,086
-429,876	-56,794	0,078	0,025
-428,861	199,645	0,039	-0,044
-427,846	372,105	-0,019	-0,028
-426,832	-69,092	-0,093	0,026
-425,817	-63,960	0,091	0,027
-424,803	125,541	-0,064	-0,059
-423,788	-200,000	0,017	0,175
-422,773	117,163	0,077	0,069
-421,759	-200,000	-0,017	0,063
-420,744	359,746	0,061	0,090
-419,730	-200,000	-0,004	-0,046
-418,715	-28,521	-0,079	-0,033
-417,701	-14,000	0,041	-0,019
-416,686	47,258	0,035	-0,023
-415,671	-108,601	0,007	-0,001
-414,657	-103,651	0,038	0,006
-413,642	800,000	0,045	0,097
-412,628	414,374	-0,065	0,101
-411,613	800,000	0,055	0,127
-410,598	512,463	-0,032	0,054
-409,584	82,797	0,058	0,046
-408,569	-82,822	0,084	0,020
-407,555	363,639	-0,078	0,115
-406,540	-95,904	-0,028	-0,005
-405,525	800,000	-0,029	-0,063
-404,511	-80,304	-0,171	-0,041
-403,496	559,909	-0,012	-0,021
-402,482	-200,000	-0,010	-0,037
-401,467	97,736	-0,069	0,058
-400,452	800,000	0,013	0,034
-399,438	59,934	0,088	0,063
-398,423	64,590	-0,132	-0,096
-397,409	158,483	-0,083	-0,084
-396,394	-200,000	-0,016	0,082
-395,379	-95,611	-0,145	-0,028
-394,365	-200,000	-0,010	-0,038
-393,350	-57,459	0,035	-0,011
-392,336	-147,798	-0,189	0,011
-391,321	-200,000	0,007	0,039
-390,306	184,139	0,031	0,034
-389,292	-200,000	0,023	-0,080
-388,277	-15,606	-0,124	0,057
-387,263	142,745	0,087	-0,084
-386,248	-104,849	0,018	-0,003
-385,233	-70,394	-0,090	0,025
-384,219	159,220	-0,076	0,077
-383,204	101,795	0,028	-0,024
-382,190	800,000	0,023	-0,072
-381,175	155,281	-0,031	0,031
-380,160	800,000	0,003	0,008
-379,146	-105,634	0,145	0,024
-378,131	800,000	-0,040	0,124
-377,117	-11,534	0,128	-0,061
-376,102	-76,768	-0,033	0,008
-375,088	211,328	-0,052	0,060
-374,073	1,716	-0,110	-0,057
-373,058	-81,636	-0,077	0,018
-372,044	113,727	-0,053	0,047
-371,029	-178,815	0,102	0,002
-370,015	-66,019	0,052	-0,015
-369,000	800,000	0,022	-0,046
-367,985	-200,000	-0,010	-0,058
-366,971	-154,567	-0,122	-0,006
-365,956	-81,721	-0,143	-0,034
-364,942	-60,192	0,065	-0,020
-363,927	-41,724	-0,086	0,032
-362,912	800,000	-0,052	0,138
-361,898	-132,984	-0,060	-0,005
-360,883	136,237	-0,069	0,065
-359,869	-101,898	-0,018	-0,003
-358,854	79,774	-0,013	-0,010
-357,839	-104,023	0,212	-0,035
-356,825	776,410	0,066	-0,131
-355,810	270,660	-0,040	-0,051
-354,796	138,129	-0,028	-0,027
-353,781	-5,998	-0,053	0,026
-352,766	-200,000	0,013	0,076
-351,752	-10,135	0,084	-0,040
-350,737	334,579	-0,048	-0,068
-349,723	-110,324	0,203	0,030
-348,708	227,151	0,068	0,080
-347,693	-116,393	0,075	0,010
-346,679	-27,466	0,143	-0,060
-345,664	-3,405	-0,090	0,045
-344,650	125,771	0,063	0,058
-343,635	303,963	-0,085	0,114
-342,620	-200,000	0,016	0,103
-341,606	223,927	0,095	-0,111
-340,591	-107,533	-0,032	-0,005
-339,577	3,273	-0,045	-0,024
-338,562	-200,000	-0,017	0,078
-337,548	333,554	-0,058	-0,082
-336,533	800,000	0,037	-0,105
-335,518	-200,000	-0,004	0,084
-334,504	800,000	-0,028	0,072
-333,489	616,180	0,019	0,034
-332,475	47,706	-0,096	-0,065
-331,460	-200,000	-0,035	-0,117
-330,445	-113,413	-0,036	-0,005
-329,431	-200,000	0,016	-0,054
-328,416	412,496	0,024	0,037
-327,402	-200,000	-0,000	0,002
-326,387	732,516	0,029	-0,057
-325,372	296,204	-0,078	-0,104
-324,358	-200,000	-0,033	-0,211
-323,343	-178,271	0,132	-0,002
-322,329	-79,633	-0,150	0,036
-321,314	-113,609	0,089	-0,012
-320,299	-200,000	-0,023	0,083
-319,285	18,013	-0,162	-0,093
-318,270	-108,846	-0,110	0,017
-317,256	652,787	-0,085	-0,159
-316,241	-68,630	-0,049	0,014
-315,226	168,294	0,044	0,046
-314,212	-15,885	0,019	0,009
-313,197	800,000	-0,017	-0,044
-312,183	40,849	-0,139	0,091
-311,168	-69,946	-0,041	-0,011
-310,153	293,204	-0,084	-0,112
-309,139	-56,582	-0,131	-0,042
-308,124	-80,529	0,140	-0,034
-307,110	245,582	-0,061	0,075
-306,095	-32,159	0,070	-0,028
-305,080	9,431	0,135	0,074
-304,066	-70,837	-0,061	0,017
-303,051	-147,951	0,092	0,005
-302,037	800,000	0,066	-0,138
-301,022	-200,000	0,016	0,069
-300,008	205,548	0,127	0,143
-298,993	-106,920	0,105	0,017
-297,978	-14,729	0,160	-0,074
-296,964	-91,132	-0,083	0,017
-295,949	-200,000	-0,032	0,154
-294,935	-117,849	-0,050	-0,006
-293,920	34,675	-0,072	0,046
-292,905	163,034	0,039	0,039
-291,891	-200,000	-0,037	0,138
-290,876	-200,000	-0,007	-0,206
-289,862	-8,148	-0,091	-0,044
-288,847	-103,591	-0,137	0,023
-287,832	-200,000	0,052	0,172
-286,818	-64,088	-0,055	-0,016
-285,803	800,000	0,038	0,103
-284,789	13,963	-0,120	-0,067
-283,774	741,536	-0,029	-0,058
-282,759	800,000	0,034	-0,069
-281,745	265,215	-0,051	-0,065
-280,730	800,000	0,031	-0,093
-279,716	91,123	-0,072	-0,059
-278,701	-163,322	0,068	-0,002
-277,686	235,552	-0,039	0,047
-276,672	800,000	0,088	0,194
-275,657	563,751	0,094	-0,165
-274,643	800,000	-0,050	-0,112
-273,628	-200,000	-0,011	0,080
-272,613	-15,530	0,068	0,031
-271,599	655,835	0,057	0,106
-270,584	178,201	0,101	0,107
-269,570	-200,000	0,038	0,131
-268,555	-124,935	0,092	0,010
-267,540	-113,706	0,018	-0,002
-266,526	182,097	-0,124	-0,132
-265,511	-200,000	-0,037	-0,122
-264,497	280,713	-0,077	-0,100
-263,482	-200,000	-0,018	0,129
-262,467	342,859	-0,058	0,082
-261,453	-200,000	-0,034	0,119
-260,438	800,000	-0,037	0,098
-259,424	199,106	0,042	-0,047
-258,409	800,000	0,045	-0,106
-257,395	-20,422	0,115	0,051
-256,380	-200,000	0,017	0,063
-255,365	-200,000	-0,007	0,089
-254,351	-200,000	-0,010	0,043
-253,336	286,375	0,008	0,010
-252,322	800,000	0,023	-0,063
-251,307	162,637	-0,082	-0,084
-250,292	13,914	-0,107	-0,060
-249,278	238,468	0,084	0,101
-248,263	-200,000	0,013	0,047
-247,249	-200,000	0,017	-0,095
-246,234	-200,000	-0,041	-0,136
-245,219	-21,601	-0,101	-0,044
-244,205	-200,000	-0,007	-0,101
-243,190	-200,000	-0,007	-0,092
-242,176	-200,000	0,002	0,099
-241,161	58,109	-0,020	-0,014
-240,146	260,688	-0,083	0,104
-239,132	-200,000	0,018	0,113
-238,117	-200,000	0,013	-0,114
-237,103	-47,126	0,122	0,043
-236,088	-147,089	-0,019	0,001
-235,073	-62,105	0,108	-0,032
-234,059	-200,000	-0,012	-0,060
-233,044	-20,218	-0,133	0,059
-232,030	-200,000	0,008	0,049
-231,015	800,000	0,026	0,057
-230,000	107,628	0,047	-0,040
-228,986	-200,000	0,011	-0,047
-227,971	-200,000	0,011	0,055
-226,957	-33,167	0,106	0,042
-225,942	-34,250	0,099	-0,039
-224,927	49,142	-0,032	0,022
-223,913	-200,000	-0,044	-0,144
-222,898	800,000	-0,041	-0,125
-221,884	800,000	0,013	0,030
-220,869	800,000	-0,050	-0,113
-219,855	-200,000	0,014	-0,068
-218,840	320,998	0,130	-0,179
-217,825	351,049	-0,021	0,031
-216,811	-76,527	-0,093	-0,023
-215,796	683,247	-0,056	-0,105
-214,782	-191,811	0,083	0,001
-213,767	43,665	0,061	0,040
-212,752	256,046	-0,008	0,010
-211,738	800,000	-0,041	0,085
-210,723	558,353	-0,045	0,078
-209,709	-200,000	0,019	-0,114
-208,694	800,000	0,049	-0,109
-207,679	370,137	-0,016	0,023
-206,665	187,690	0,060	-0,065
-205,650	-161,400	-0,081	-0,003
-204,636	359,971	0,080	-0,116
-203,621	47,703	0,094	0,063
-202,606	1,548	-0,167	0,087
-201,592	-200,000	0,012	-0,207
-200,577	621,920	-0,006	0,010
-199,563	-151,423	0,089	-0,005
-198,548	-200,000	0,020	0,063
-197,533	-97,760	-0,114	0,021
-196,519	-63,888	-0,049	-0,014
-195,504	229,859	-0,044	-0,052
-194,490	-200,000	0,013	-0,126
-193,475	76,141	0,071	-0,054
-192,460	-76,943	0,094	0,023
-191,446	179,536	0,094	0,099
-190,431	506,371	-0,044	0,073
-189,417	248,836	0,045	0,055
-188,402	-98,846	0,090	-0,016
-187,387	800,000	-0,024	-0,072
-186,373	371,081	-0,051	-0,074
-185,358	-145,170	0,134	0,009
-184,344	324,953	-0,040	0,055
-183,329	-28,508	0,098	0,040
-182,315	-163,147	-0,194	0,007
-181,300	800,000	-0,050	-0,102
-180,285	234,809	0,070	-0,084
-179,271	-200,000	0,019	-0,070
-178,256	68,554	0,041	0,030
-177,242	405,455	0,014	0,021
-176,227	145,697	0,036	-0,035
-175,212	-200,000	-0,018	-0,086
-174,198	-200,000	0,010	-0,084
-173,183	161,878	-0,082	-0,083
-172,169	-136,866	-0,052	0,004
-171,154	-101,543	-0,148	-0,026
-170,139	-200,000	-0,004	-0,046
-169,125	800,000	0,041	0,089
-168,110	-200,000	-0,022	0,073
-167,096	800,000	-0,027	0,056
-166,081	-48,831	-0,020	0,007
-165,066	158,257	0,089	-0,089
-164,052	412,283	0,038	-0,058
-163,037	-145,914	0,046	0,003
-162,023	-200,000	0,011	0,076
-161,008	800,000	-0,038	0,112
-159,993	73,534	-0,172	0,129
-158,979	-85,199	-0,068	-0,015
-157,964	42,867	0,036	-0,024
-156,950	99,225	0,086	-0,071
-155,935	800,000	0,025	0,075
-154,920	334,695	0,009	0,012
-153,906	-65,664	0,080	-0,023
-152,891	-22,241	-0,100	0,044
-151,877	271,120	0,081	0,103
-150,862	468,880	-0,014	-0,023
-149,847	-200,000	0,008	0,050
-148,833	724,342	0,006	0,011
-147,818	800,000	0,066	0,184
-146,804	-200,000	0,027	0,159
-145,789	-200,000	0,033	0,112
-144,775	-54,159	-0,159	0,052
-143,760	-135,062	-0,029	0,003
-142,745	-200,000	0,006	-0,059
-141,731	-200,000	0,009	0,051
-140,716	440,775	0,071	-0,112
-139,702	-183,023	0,075	-0,001
-138,687	-145,674	-0,028	-0,002
-137,672	800,000	-0,027	0,071
-136,658	-66,595	-0,073	0,021
-135,643	-156,724	0,046	-0,002
-134,629	-43,326	0,052	-0,019
-133,614	21,203	0,165	-0,096
-132,599	229,596	0,037	0,043
-131,585	708,499	-0,020	-0,038
-130,570	-18,128	-0,088	0,039
-129,556	8,765	-0,012	-0,007
-128,541	539,234	-0,066	-0,113
-127,526	-155,401	0,117	-0,005
-126,512	-175,190	0,159	0,003
-125,497	800,000	-0,039	0,084
-124,483	74,687	0,044	0,033
-123,468	539,618	0,053	0,091
-122,453	800,000	-0,018	-0,047
-121,439	-75,064	-0,064	0,016
-120,424	-11,573	0,041	0,019
-119,410	-82,238	0,047	0,011
-118,395	716,511	-0,017	-0,033
-117,380	-65,987	0,058	0,017
-116,366	454,036	-0,069	-0,110
-115,351	-200,000	0,006	-0,114
-114,337	143,098	0,027	-0,026
-113,322	800,000	0,038	-0,088
-112,307	-53,721	0,110	-0,036
-111,293	474,628	0,074	-0,121
-110,278	14,350	-0,015	0,008
-109,264	299,294	-0,004	0,006
-108,249	361,559	0,071	-0,102
-107,234	-78,260	0,058	0,014
-106,220	191,682	-0,069	-0,074
-105,205	80,869	0,088	0,068
-104,191	-74,904	0,093	-0,024
-103,176	315,612	0,056	0,077
-102,162	-200,000	-0,011	-0,041
-101,147	-56,743	-0,013	0,004
-100,132	418,699	0,067	-0,103
-99,118	207,541	0,049	-0,055
-98,103	-88,288	-0,059	-0,013
-97,089	421,773	0,088	0,136
-96,074	-22,910	0,145	0,063
-95,059	-200,000	0,014	-0,127
-94,045	800,000	-0,049	-0,153
-93,030	-200,000	-0,045	-0,169
-92,016	800,000	-0,037	-0,099
-91,001	800,000	0,026	0,060
-89,986	157,035	0,080	0,080
-88,972	-200,000	-0,005	0,033
-87,957	-200,000	0,017	0,078
-86,943	343,462	0,032	-0,045
-85,928	-65,028	-0,063	-0,018
-84,913	542,548	-0,104	-0,178
-83,899	-184,146	0,087	-0,001
-82,884	286,910	0,005	-0,006
-81,870	72,908	0,121	0,091
-80,855	-200,000	-0,020	0,069
-79,840	800,000	-0,008	0,020
-78,826	-153,063	0,036	-0,002
-77,811	140,210	0,136	-0,129
-76,797	-4,520	0,079	0,039
-75,782	-58,807	-0,105	-0,032
-74,767	151,614	0,117	-0,114
-73,753	-190,289	0,047	-0,000
-72,738	82,860	-0,094	-0,074
-71,724	-127,948	-0,171	0,017
-70,709	-97,822	0,070	0,013
-69,694	26,468	-0,171	0,103
-68,680	-83,780	0,082	0,019
-67,665	241,447	0,088	0,106
-66,651	-116,398	-0,058	-0,008
-65,636	-83,400	0,120	0,027
-64,622	-200,000	0,014	-0,069
-63,607	223,040	0,080	-0,092
-62,592	86,869	-0,040	-0,031
-61,578	211,282	0,044	0,050
-60,563	-200,000	0,035	0,123
-59,549	256,195	0,076	0,093
-58,534	17,134	-2,125	-1,206
-57,519	-200,000	-0,117	-0,763
-56,505	-200,000	-1,257	-4,905
-55,490	66,604	1,046	0,763
-54,476	800,000	5,164	11,517
-53,461	-200,000	17,894	289,346
-52,446	800,000	727,154	2224,576
-51,432	534,363	1639,816	2798,590
-50,417	109,020	1629,705	1397,762
-49,403	72,756	1283,376	959,818
-48,388	31,278	1026,048	630,364
-47,373	19,934	987,956	569,613
-46,359	18,226	975,903	557,052
-45,344	15,432	972,105	545,733
-44,330	15,718	970,440	545,711
-43,315	15,228	968,811	543,176
-42,300	15,151	967,658	542,260
-41,286	15,171	966,533	541,671
-40,271	15,167	965,680	541,159
-39,257	15,143	964,852	540,596
-38,242	15,166	964,001	540,171
-37,227	15,214	962,983	539,735
-36,213	15,119	962,470	539,120
-35,198	15,151	961,581	538,703
-34,184	15,169	960,732	538,264
-33,169	15,128	959,883	537,633
-32,154	15,176	958,785	537,154
-31,140	15,165	957,835	536,563
-30,125	15,185	957,196	536,249
-29,111	15,180	956,152	535,628
-28,096	15,162	955,535	535,202
-27,082	15,236	955,129	535,193
-26,067	15,151	954,321	534,445
-25,052	15,128	953,565	533,925
-24,038	15,085	953,073	533,491
-23,023	15,081	952,459	533,114
-22,009	15,223	951,521	533,024
-20,994	15,184	950,916	532,538
-19,979	15,236	950,259	532,314
-18,965	15,108	949,827	531,643
-17,950	15,133	949,114	531,301
-16,936	15,128	948,345	530,835
-15,921	15,120	947,732	530,446
-14,906	15,042	947,060	529,800
-13,892	15,058	946,493	529,511
-12,877	15,053	945,717	529,040
-11,863	15,015	945,267	528,648
-10,848	15,047	944,592	528,350
-9,833	15,181	944,211	528,542
-8,819	15,084	943,563	527,851
-7,804	15,063	942,971	527,433
-6,790	15,000	942,567	526,986
-5,775	15,097	941,705	526,788
-4,760	15,058	941,147	526,332
-3,746	15,086	940,582	526,084
-2,731	14,927	939,768	525,106
-1,717	14,980	938,999	524,822
-0,702	14,926	938,332	524,260
0,313	14,728	937,934	524,205
1,327	18,161	935,775	533,747
2,342	27,320	789,673	474,524
3,356	23,994	444,506	262,164
4,371	-5,627	295,522	144,698
5,386	-9,505	277,252	132,065
6,400	-10,774	271,652	128,207
7,415	-11,094	269,377	126,827
8,429	-11,152	267,957	126,094
9,444	-11,084	267,095	125,739
10,459	-11,058	266,276	125,366
11,473	-11,140	265,823	125,067
12,488	-11,161	265,379	124,828
13,502	-11,562	264,651	124,112
14,517	-11,401	264,378	124,118
15,531	-11,440	263,891	123,843
16,546	-11,258	263,499	123,812
17,561	-11,168	263,139	123,713
18,575	-11,277	262,949	123,515
19,590	-11,374	262,647	123,274
20,604	-11,091	262,088	123,255
21,619	-11,274	261,951	123,015
22,634	-11,545	261,449	122,527
23,648	-11,408	261,211	122,527
24,663	-11,434	260,934	122,363
25,677	-11,412	260,605	122,216
26,692	-11,230	260,349	122,248
27,707	-11,324	260,155	122,062
28,721	-11,374	259,855	121,867
29,736	-11,498	259,663	121,655
30,750	-11,349	259,132	121,527
31,765	-11,562	259,128	121,326
32,780	-11,445	258,845	121,287
33,794	-11,513	258,839	121,213
34,809	-11,464	258,381	121,031
35,823	-11,401	258,018	120,905
36,838	-11,595	257,854	120,647
37,853	-11,604	257,571	120,496
38,867	-11,626	257,372	120,373
39,882	-11,466	257,138	120,393
40,896	-11,590	256,909	120,166
41,911	-11,639	256,737	120,032
42,926	-11,603	256,348	119,871
43,940	-11,644	256,287	119,796
44,955	-11,551	256,101	119,780
45,969	-11,704	255,833	119,510
46,984	-11,953	255,484	119,119
47,999	-12,047	255,150	118,871
49,013	-12,217	254,896	118,595
50,028	-12,265	254,502	118,359
51,042	-12,288	254,338	118,252
52,057	-12,373	254,144	118,078
53,071	-12,151	253,940	118,164
54,086	-12,181	253,778	118,053
55,101	-12,002	253,667	118,145
56,115	-11,875	253,571	118,200
57,130	-11,656	253,468	118,331
58,144	-11,258	253,317	118,593
59,159	-11,175	253,058	118,533
60,174	-11,117	252,808	118,456
61,188	-11,249	252,713	118,286
62,203	-11,301	252,413	118,091
63,217	-11,242	252,184	118,023
64,232	-11,398	252,080	117,831
65,247	-11,174	251,699	117,834
66,261	-11,353	251,610	117,628
67,276	-11,524	251,284	117,319
68,290	-11,713	250,910	116,973
69,305	-11,927	250,734	116,697
70,320	-11,758	250,604	116,771
71,334	-11,585	250,524	116,871
72,349	-11,299	250,342	117,019
73,363	-11,335	250,185	116,904
74,378	-11,351	249,956	116,773
75,393	-11,553	249,694	116,470
76,407	-11,555	249,513	116,373
77,422	-11,474	249,333	116,347
78,436	-11,233	249,052	116,409
79,451	-11,349	248,812	116,189
80,466	-11,344	248,476	116,026
81,480	-11,485	248,352	115,839
82,495	-11,665	248,102	115,560
83,509	-11,696	248,037	115,493
84,524	-11,644	247,662	115,352
85,539	-11,920	247,648	115,102
86,553	-11,771	247,376	115,091
87,568	-11,823	247,402	115,049
88,582	-11,572	246,937	115,034
89,597	-11,635	246,778	114,896
90,611	-11,639	246,837	114,910
91,626	-11,421	246,482	114,917
92,641	-11,505	246,337	114,769
93,655	-11,651	246,200	114,573
94,670	-11,585	245,894	114,476
95,684	-11,616	245,677	114,339
96,699	-11,619	245,565	114,273
97,714	-11,716	245,437	114,123
98,728	-11,649	244,976	113,954
99,743	-11,861	244,810	113,690
100,757	-12,052	244,599	113,424
101,772	-11,916	244,505	113,484
102,787	-11,662	244,361	113,617
103,801	-11,631	244,201	113,558
104,816	-11,499	243,893	113,514
105,830	-11,362	243,959	113,648
106,845	-11,334	243,724	113,551
107,860	-11,399	243,468	113,369
108,874	-11,588	243,350	113,147
109,889	-11,499	243,169	113,126
110,903	-11,621	242,929	112,904
111,918	-11,817	242,678	112,616
112,933	-11,566	242,561	112,759
113,947	-11,560	242,424	112,689
114,962	-11,494	242,130	112,597
115,976	-11,439	242,042	112,591
116,991	-11,409	241,772	112,480
118,006	-11,624	241,782	112,299
119,020	-11,597	241,589	112,221
120,035	-11,397	241,525	112,345
121,049	-11,332	241,282	112,275
122,064	-11,296	241,099	112,209
123,079	-11,480	240,808	111,914
124,093	-11,657	240,599	111,662
125,108	-11,639	240,300	111,528
126,122	-11,986	240,253	111,214
127,137	-11,997	239,940	111,050
128,151	-11,783	239,758	111,130
129,166	-11,585	239,595	111,205
130,181	-11,675	239,389	111,026
131,195	-11,891	239,269	110,786
132,210	-11,698	239,144	110,874
133,224	-11,683	239,048	110,832
134,239	-11,451	238,762	110,877
135,254	-11,410	238,639	110,843
136,268	-11,670	238,531	110,574
137,283	-11,778	238,129	110,290
138,297	-12,147	238,021	109,934
139,312	-12,066	237,736	109,857
140,327	-11,555	237,796	110,286
141,341	-11,122	237,767	110,611
142,356	-11,049	237,460	110,517
143,370	-11,193	237,297	110,316
144,385	-11,150	237,155	110,274
145,400	-11,142	237,052	110,223
146,414	-11,013	237,017	110,300
147,429	-11,217	236,744	110,000
148,443	-11,159	236,450	109,900
149,458	-11,086	236,226	109,845
150,473	-11,098	236,107	109,770
151,487	-11,383	236,001	109,484
152,502	-11,256	235,756	109,461
153,516	-11,339	235,680	109,350
154,531	-11,114	235,398	109,389
155,546	-11,104	235,316	109,349
156,560	-11,332	235,195	109,101
157,575	-11,442	234,879	108,858
158,589	-11,309	234,719	108,880
159,604	-11,393	234,538	108,719
160,619	-11,048	234,577	109,001
161,633	-10,815	234,268	109,031
162,648	-11,007	234,180	108,829
163,662	-11,259	233,980	108,527
164,677	-11,383	233,883	108,375
165,692	-11,319	233,622	108,295
166,706	-10,982	233,475	108,482
167,721	-10,940	233,380	108,462
168,735	-10,731	233,248	108,555
169,750	-11,209	233,069	108,086
170,764	-11,143	233,082	108,134
171,779	-11,103	232,759	108,006
172,794	-11,104	232,657	107,949
173,808	-11,249	232,354	107,685
174,823	-11,721	232,147	107,210
175,837	-11,811	231,783	106,962
176,852	-11,239	231,794	107,404
177,867	-11,155	231,829	107,477
178,881	-11,091	231,809	107,508
179,896	-10,933	231,487	107,472
180,910	-11,191	231,383	107,213
181,925	-10,979	231,179	107,275
182,940	-10,782	231,085	107,375
183,954	-11,007	230,903	107,105
184,969	-10,935	230,674	107,045
185,983	-10,797	230,641	107,128
186,998	-10,994	230,482	106,892
188,013	-10,956	230,386	106,867
189,027	-10,722	230,063	106,889
190,042	-10,857	229,935	106,715
191,056	-10,991	229,918	106,595
192,071	-10,949	229,695	106,514
193,086	-10,860	229,507	106,485
194,100	-10,863	229,308	106,382
195,115	-11,352	228,978	105,842
196,129	-11,138	229,080	106,045
197,144	-5,822	230,770	110,943
198,159	-0,357	232,353	115,952
199,173	2,954	233,207	118,949
200,188	3,321	233,198	119,219
201,202	3,184	233,232	119,120
202,217	3,471	233,079	119,253
203,232	3,738	232,837	119,327
204,246	3,851	232,745	119,356
205,261	3,721	232,557	119,149
206,275	3,903	232,588	119,295
207,290	4,102	232,268	119,274
208,304	4,017	232,188	119,157
209,319	3,703	232,055	118,835
210,334	3,798	231,663	118,697
211,348	3,626	231,655	118,549
212,363	3,243	231,387	118,107
213,377	2,972	231,065	117,723
214,392	3,028	230,937	117,690
215,407	3,151	230,871	117,741
216,421	3,440	230,632	117,830
217,436	3,155	230,554	117,561
218,450	2,814	230,280	117,149
219,465	2,874	230,042	117,063
220,480	2,855	230,248	117,144
221,494	2,894	230,023	117,048
222,509	3,165	229,765	117,114
223,523	3,028	229,761	116,997
224,538	3,099	229,363	116,838
225,553	3,185	229,300	116,861
226,567	3,268	229,111	116,818
227,582	3,390	229,217	116,955
228,596	3,412	229,156	116,930
229,611	3,158	228,751	116,520
230,626	2,981	228,371	116,181
231,640	2,824	228,423	116,077
232,655	3,358	228,362	116,442
233,669	3,611	228,227	116,555
234,684	3,689	228,142	116,560
235,699	3,444	228,007	116,295
236,713	3,376	227,702	116,078
237,728	3,132	227,616	115,838
238,742	3,073	227,275	115,610
239,757	3,027	227,369	115,613
240,772	3,143	227,084	115,545
241,786	3,178	226,818	115,427
242,801	3,166	226,847	115,421
243,815	3,357	227,015	115,641
244,830	3,470	226,741	115,576
245,844	3,171	226,330	115,131
246,859	3,127	226,248	115,046
247,874	3,603	226,044	115,290
248,888	3,471	226,007	115,162
249,903	3,201	225,819	114,853
250,917	3,285	225,583	114,785
251,932	3,098	225,565	114,626
252,947	3,145	225,271	114,502
253,961	2,956	225,157	114,292
254,976	2,873	225,093	114,187
255,990	3,211	224,976	114,371
257,005	3,475	224,734	114,434
258,020	3,509	224,694	114,429
259,034	3,524	224,639	114,402
260,049	3,344	224,361	114,117
261,063	3,382	224,234	114,070
262,078	3,541	224,236	114,179
263,093	3,594	224,022	114,099
264,107	3,462	223,832	113,894
265,122	3,460	223,735	113,833
266,136	3,472	223,749	113,839
267,151	3,465	223,498	113,696
268,166	3,202	223,111	113,294
269,180	3,042	222,973	113,095
270,195	2,849	222,876	112,893
271,209	3,151	222,650	112,992
272,224	2,960	222,742	112,888
273,239	3,044	222,421	112,777
274,253	3,038	222,306	112,704
275,268	3,068	222,193	112,659
276,282	2,796	222,019	112,361
277,297	2,843	221,761	112,254
278,312	3,004	221,702	112,333
279,326	3,191	221,581	112,398
280,341	3,154	221,364	112,252
281,355	3,351	221,466	112,438
282,370	2,963	221,138	111,976
283,384	2,943	220,954	111,859
284,399	3,018	220,705	111,778
285,414	2,738	220,779	111,601
286,428	3,038	220,707	111,774
287,443	3,361	220,491	111,891
288,457	3,138	220,400	111,671
289,472	3,043	220,189	111,485
290,487	2,920	219,811	111,194
291,501	2,435	219,940	110,896
292,516	2,926	219,650	111,098
293,530	2,839	219,604	111,001
294,545	2,906	219,530	111,003
295,560	2,962	219,394	110,965
296,574	3,280	219,197	111,086
297,589	3,188	219,067	110,943
298,603	3,378	219,043	111,058
299,618	3,345	218,800	110,901
300,633	3,268	218,682	110,776
301,647	3,465	218,666	110,901
302,662	3,374	218,482	110,732
303,676	3,426	218,283	110,659
304,691	3,324	218,182	110,524
305,706	3,184	218,038	110,340
306,720	3,613	217,797	110,518
307,735	3,177	217,587	110,088
308,749	3,246	217,423	110,044
309,764	3,215	217,587	110,095
310,779	3,517	217,357	110,186
311,793	3,292	217,220	109,945
312,808	3,396	216,874	109,835
313,822	3,298	216,830	109,733
314,837	3,225	216,678	109,593
315,852	3,152	216,538	109,460
316,866	3,176	216,433	109,414
317,881	3,384	216,341	109,507
318,895	3,452	216,253	109,502
319,910	3,170	215,923	109,123
320,925	3,073	215,749	108,957
321,939	2,720	215,481	108,560
322,954	2,880	215,563	108,706
323,968	3,214	215,520	108,913
324,983	3,320	215,441	108,938
325,997	3,391	215,285	108,900
327,012	3,003	215,193	108,568
328,027	3,115	215,046	108,563
329,041	3,446	214,907	108,718
330,056	3,566	214,715	108,697
331,070	2,927	214,477	108,114
332,085	2,570	214,313	107,770
333,100	2,938	214,226	107,977
334,114	3,396	214,127	108,241
335,129	3,283	213,974	108,074
336,143	3,153	213,861	107,915
337,158	3,097	213,694	107,781
338,173	3,378	213,509	107,877
339,187	3,100	213,467	107,650
340,202	2,924	213,076	107,320
341,216	3,036	213,068	107,385
342,231	2,930	212,985	107,259
343,246	2,928	212,912	107,211
344,260	3,088	212,704	107,209
345,275	3,130	212,627	107,191
346,289	3,336	212,498	107,260
347,304	3,201	212,375	107,093
348,319	3,133	212,240	106,968
349,333	3,242	212,088	106,958
350,348	3,464	211,912	107,015
351,362	3,538	211,911	107,057
352,377	3,414	211,692	106,850
353,392	3,146	211,658	106,637
354,406	3,388	211,391	106,661
355,421	195,031	1340,917	1416,407
356,435	155,767	1478,502	1416,381
