DTS Sentinel unit serial number:	SN410029Multiplexer serial number:	ORYXHardware model number:	OX2-SRSoftware version number:	ORYX F/W v4,00 Oryx Data Collector v3.7.2.0data status	okinstallation	B6 Nyhavnadifferential loss correction	single-endedforward channel	channel 2reverse channel	N/Adate	2023/12/07time	16:00:08forward acquisition time	300,00reverse acquisition time	0,00gamma	499,1914k internal	0,3165k external	0,3165temperature offset calibration	1,0000default loss term (dB/km)	0,3820temperature slope calibration	1,0000multiplexer offset coefficient	1,0000multiplexer slope coefficient	1,0000fibre end	0,00T internal ref (°C)	14,50T ext. ref 1 (°C)	-2,08T ext. ref 2 (°C)	-2,07length (m)	temperature (°C)	Stokes	anti-Stokes-744,400	154,432	-0,090	0,091
-743,385	-72,511	-0,461	-0,124
-742,371	138,893	0,126	0,122
-741,356	-171,577	-0,306	0,007
-740,342	-147,874	0,135	-0,008
-739,327	-160,346	-0,407	0,016
-738,312	-200,000	0,000	0,004
-737,298	30,197	-0,320	-0,201
-736,283	379,169	0,041	-0,062
-735,269	-38,565	-0,347	-0,134
-734,254	213,630	-0,058	0,067
-733,239	-37,772	-0,478	-0,186
-732,225	-15,073	0,214	0,100
-731,210	120,116	0,106	0,097
-730,196	171,734	-0,072	0,076
-729,181	134,953	-0,125	-0,119
-728,167	-121,775	0,054	-0,007
-727,152	800,000	0,061	-0,155
-726,137	-73,012	-0,079	0,021
-725,123	-65,700	-0,088	0,026
-724,108	-53,642	-0,090	-0,030
-723,094	800,000	-0,092	-0,222
-722,079	-200,000	-0,002	-0,055
-721,064	-77,951	-0,041	0,010
-720,050	-46,929	0,071	-0,025
-719,035	-200,000	0,022	-0,110
-718,021	227,037	-0,046	-0,055
-717,006	74,050	-0,052	-0,040
-715,991	-132,069	-0,128	0,012
-714,977	-82,312	-0,147	0,035
-713,962	-200,000	0,019	-0,076
-712,948	138,050	0,075	0,072
-711,933	-51,694	-0,012	-0,004
-710,918	750,565	-0,050	-0,100
-709,904	490,033	-0,072	-0,121
-708,889	443,980	-0,025	-0,040
-707,875	-171,944	-0,072	0,002
-706,860	174,162	-0,115	-0,122
-705,845	-200,000	0,006	0,042
-704,831	-187,280	0,151	0,001
-703,816	-136,168	-0,216	0,018
-702,802	-99,901	0,086	0,016
-701,787	28,847	-0,166	-0,103
-700,772	-170,945	-0,107	-0,003
-699,758	-48,266	-0,054	0,019
-698,743	-73,342	0,138	0,037
-697,729	111,615	0,070	0,062
-696,714	800,000	-0,049	-0,115
-695,699	-48,342	-0,073	-0,026
-694,685	161,613	-0,044	0,045
-693,670	-200,000	-0,025	-0,098
-692,656	-167,048	0,090	-0,003
-691,641	800,000	0,015	0,041
-690,627	-72,931	0,105	-0,028
-689,612	-46,299	-0,016	-0,006
-688,597	-123,393	0,015	-0,002
-687,583	-23,516	0,085	-0,037
-686,568	-106,066	0,045	0,007
-685,554	2,190	0,035	-0,018
-684,539	800,000	-0,034	-0,102
-683,524	-200,000	0,024	0,084
-682,510	-42,662	-0,011	-0,004
-681,495	800,000	0,011	-0,031
-680,481	111,999	-0,050	0,044
-679,466	800,000	-0,021	-0,062
-678,451	475,315	0,008	0,013
-677,437	-99,299	0,038	0,007
-676,422	89,578	0,057	-0,046
-675,408	-200,000	-0,023	0,136
-674,393	800,000	0,026	-0,085
-673,378	32,948	-0,140	0,089
-672,364	800,000	-0,018	-0,056
-671,349	155,330	-0,070	-0,071
-670,335	23,822	0,059	-0,036
-669,320	243,810	0,070	0,086
-668,305	-49,220	-0,194	0,068
-667,291	-200,000	-0,001	0,006
-666,276	-200,000	-0,015	-0,142
-665,262	-21,090	-0,097	0,043
-664,247	139,839	0,056	0,054
-663,232	55,540	-0,044	-0,031
-662,218	483,702	0,076	-0,127
-661,203	-38,662	0,042	-0,016
-660,189	321,680	-0,074	0,104
-659,174	530,026	0,017	-0,030
-658,159	-200,000	-0,027	-0,095
-657,145	-149,553	-0,054	0,003
-656,130	-36,912	0,083	0,033
-655,116	-154,052	-0,101	0,005
-654,101	53,176	0,112	0,079
-653,086	457,499	0,036	-0,058
-652,072	24,575	-0,087	0,053
-651,057	-32,123	-0,067	-0,027
-650,043	207,980	-0,048	0,054
-649,028	-200,000	-0,021	-0,112
-648,014	800,000	0,036	-0,096
-646,999	800,000	0,037	-0,106
-645,984	97,546	-0,090	0,075
-644,970	62,717	0,097	0,071
-643,955	638,292	0,031	-0,059
-642,941	-64,789	-0,052	-0,015
-641,926	104,934	-0,029	0,025
-640,911	354,124	-0,043	-0,063
-639,897	57,999	0,069	0,050
-638,882	-200,000	-0,018	-0,111
-637,868	497,318	-0,085	-0,143
-636,853	-41,018	-0,128	-0,048
-635,838	413,404	0,038	-0,059
-634,824	-71,021	-0,097	-0,026
-633,809	190,416	-0,027	-0,030
-632,795	-114,646	-0,101	0,014
-631,780	107,973	-0,011	0,009
-630,765	-200,000	-0,004	0,013
-629,751	800,000	0,048	-0,104
-628,736	-81,391	-0,054	-0,013
-627,722	549,287	-0,044	0,078
-626,707	800,000	-0,033	-0,101
-625,692	662,877	0,056	-0,106
-624,678	223,054	-0,033	0,039
-623,663	256,732	0,053	0,066
-622,649	-37,193	-0,165	-0,064
-621,634	800,000	-0,035	-0,099
-620,619	723,532	-0,013	-0,026
-619,605	-200,000	0,002	0,062
-618,590	265,617	0,079	0,100
-617,576	-200,000	0,011	0,099
-616,561	146,192	-0,082	0,081
-615,546	140,889	0,021	0,021
-614,532	800,000	-0,009	-0,024
-613,517	440,600	0,056	-0,090
-612,503	800,000	0,090	0,227
-611,488	238,671	0,130	0,158
-610,474	-51,439	-0,108	0,037
-609,459	472,460	0,035	-0,059
-608,444	511,129	-0,030	-0,051
-607,430	800,000	-0,011	-0,023
-606,415	43,737	-0,052	-0,034
-605,401	-200,000	0,011	0,046
-604,386	-200,000	0,012	-0,045
-603,371	181,920	-0,022	-0,024
-602,357	-122,977	-0,099	0,012
-601,342	22,827	0,019	-0,011
-600,328	-12,601	-0,058	0,028
-599,313	-200,000	0,012	-0,093
-598,298	-67,926	-0,153	-0,043
-597,284	800,000	-0,021	0,053
-596,269	-99,900	-0,071	0,013
-595,255	-15,850	0,156	-0,072
-594,240	-16,569	-0,036	-0,017
-593,225	800,000	0,039	0,087
-592,211	-85,854	-0,104	-0,023
-591,196	36,626	0,070	0,045
-590,182	247,552	-0,049	-0,061
-589,167	-152,114	0,098	-0,005
-588,152	25,447	0,040	-0,024
-587,138	800,000	0,058	-0,149
-586,123	331,366	0,060	0,084
-585,109	-200,000	-0,005	0,026
-584,094	17,965	0,062	-0,036
-583,079	254,227	0,075	-0,094
-582,065	458,827	-0,060	0,098
-581,050	-119,904	0,122	0,015
-580,036	-200,000	0,037	0,152
-579,021	-200,000	-0,031	0,144
-578,006	-133,748	0,033	0,003
-576,992	611,106	-0,045	0,082
-575,977	60,751	0,017	0,012
-574,963	-200,000	-0,008	0,096
-573,948	-200,000	0,025	0,081
-572,934	-200,000	-0,011	-0,052
-571,919	800,000	-0,024	-0,067
-570,904	360,716	-0,044	-0,065
-569,890	41,031	0,065	0,043
-568,875	-118,431	0,123	0,016
-567,861	-200,000	0,017	0,150
-566,846	7,655	0,073	0,040
-565,831	800,000	-0,053	-0,120
-564,817	255,608	0,051	-0,065
-563,802	-138,320	0,050	0,004
-562,788	660,514	0,015	0,028
-561,773	367,311	-0,026	0,038
-560,758	500,089	0,033	0,056
-559,744	94,890	0,107	-0,089
-558,729	104,597	0,049	-0,042
-557,715	16,348	0,050	0,029
-556,700	392,434	-0,044	-0,066
-555,685	-200,000	-0,032	-0,186
-554,671	800,000	0,055	0,142
-553,656	100,530	0,057	0,048
-552,642	-173,997	-0,023	-0,000
-551,627	86,763	-0,105	-0,085
-550,612	422,821	0,022	-0,035
-549,598	69,958	-0,093	0,070
-548,583	-101,848	-0,139	0,024
-547,569	614,787	0,032	-0,059
-546,554	474,001	0,065	0,107
-545,539	-200,000	-0,033	-0,112
-544,525	2,694	-0,102	0,054
-543,510	-46,788	0,141	-0,050
-542,496	-200,000	-0,007	-0,074
-541,481	87,871	-0,041	-0,033
-540,466	4,500	-0,064	-0,034
-539,452	654,183	0,035	-0,067
-538,437	-56,303	0,046	0,015
-537,423	73,334	-0,115	-0,088
-536,408	-91,501	-0,058	-0,012
-535,393	-24,944	0,021	0,009
-534,379	-9,324	0,154	-0,075
-533,364	71,790	-0,064	-0,048
-532,350	-3,893	-0,110	0,055
-531,335	29,982	0,105	0,065
-530,321	-147,205	0,089	-0,005
-529,306	-200,000	-0,001	0,016
-528,291	-17,959	0,102	-0,046
-527,277	-200,000	-0,011	0,057
-526,262	-64,395	-0,082	-0,024
-525,248	78,629	0,141	-0,110
-524,233	-200,000	0,016	0,114
-523,218	29,207	0,059	0,036
-522,204	-200,000	-0,045	-0,184
-521,189	-200,000	0,026	0,126
-520,175	-27,855	-0,039	0,017
-519,160	-161,947	-0,079	-0,003
-518,145	-200,000	-0,008	-0,037
-517,131	-200,000	0,004	0,181
-516,116	-6,130	0,046	-0,023
-515,102	-200,000	-0,042	-0,146
-514,087	-60,939	-0,029	-0,009
-513,072	-200,000	0,010	-0,047
-512,058	-200,000	0,027	0,099
-511,043	-200,000	-0,037	0,227
-510,029	-2,689	-0,165	0,084
-509,014	-79,426	0,291	0,071
-507,999	-34,712	-0,052	0,021
-506,985	-200,000	0,011	-0,136
-505,970	285,750	-0,043	-0,056
-504,956	150,355	0,061	0,060
-503,941	4,039	0,116	0,062
-502,926	-200,000	0,024	0,079
-501,912	-200,000	-0,010	0,071
-500,897	69,502	-0,042	0,032
-499,883	10,267	-0,077	0,042
-498,868	36,323	0,029	0,019
-497,853	341,091	0,059	-0,084
-496,839	-200,000	-0,004	0,027
-495,824	89,053	-0,024	-0,019
-494,810	-200,000	-0,007	0,073
-493,795	6,672	-0,103	0,056
-492,781	800,000	0,031	0,097
-491,766	440,467	-0,025	-0,040
-490,751	343,834	0,017	0,024
-489,737	800,000	0,028	-0,085
-488,722	-200,000	0,034	0,119
-487,708	113,635	0,128	0,114
-486,693	-200,000	-0,032	0,146
-485,678	-200,000	0,012	0,161
-484,664	137,148	0,041	-0,039
-483,649	171,890	0,049	-0,051
-482,635	-34,039	0,111	0,044
-481,620	31,743	0,096	0,060
-480,605	-120,561	0,109	0,013
-479,591	-200,000	-0,006	0,222
-478,576	132,498	0,060	0,056
-477,562	800,000	-0,030	0,062
-476,547	20,989	-0,072	0,042
-475,532	562,018	-0,097	-0,171
-474,518	-15,840	0,159	-0,073
-473,503	-62,640	0,088	0,026
-472,489	-101,577	0,031	0,005
-471,474	732,888	0,018	-0,036
-470,459	-75,522	0,097	0,025
-469,445	-7,305	0,105	0,052
-468,430	800,000	0,045	0,119
-467,416	457,167	-0,055	0,090
-466,401	-8,320	-0,033	0,016
-465,386	-200,000	-0,027	0,110
-464,372	225,614	0,090	-0,106
-463,357	-1,226	-0,062	0,032
-462,343	-200,000	0,019	-0,087
-461,328	55,863	0,023	0,016
-460,313	800,000	-0,035	0,105
-459,299	-1,818	0,107	0,055
-458,284	-200,000	-0,008	0,213
-457,270	28,637	0,020	0,012
-456,255	-74,569	0,079	0,020
-455,241	-73,842	-0,157	0,041
-454,226	-25,592	-0,109	-0,046
-453,211	-45,203	0,181	-0,065
-452,197	19,808	0,018	-0,010
-451,182	118,921	0,077	0,069
-450,168	86,968	0,085	-0,068
-449,153	800,000	0,062	-0,183
-448,138	-156,307	-0,155	-0,007
-447,124	117,375	-0,061	0,054
-446,109	-31,546	-0,067	0,027
-445,095	271,816	0,110	0,141
-444,080	-35,934	0,041	-0,016
-443,065	-169,984	-0,037	0,001
-442,051	-45,118	-0,032	0,011
-441,036	100,342	-0,009	0,008
-440,022	800,000	0,058	-0,130
-439,007	268,676	0,021	0,026
-437,992	-200,000	0,047	0,157
-436,978	-61,335	0,014	-0,004
-435,963	-31,910	0,147	0,060
-434,949	-89,424	0,056	0,012
-433,934	-200,000	-0,022	-0,080
-432,919	800,000	0,041	-0,100
-431,905	-43,456	-0,074	-0,027
-430,890	800,000	0,033	0,081
-429,876	317,655	0,042	0,058
-428,861	800,000	-0,012	0,029
-427,846	-35,025	-0,108	-0,042
-426,832	-22,995	0,095	-0,041
-425,817	-98,651	0,094	-0,017
-424,803	800,000	-0,023	-0,067
-423,788	-43,807	-0,017	-0,006
-422,773	-200,000	-0,000	0,093
-421,759	257,970	-0,035	-0,044
-420,744	481,143	0,053	0,088
-419,730	-128,236	0,049	-0,005
-418,715	-56,902	0,074	-0,023
-417,701	-82,482	0,016	0,004
-416,686	4,737	-0,155	-0,082
-415,671	133,169	-0,074	0,069
-414,657	-31,148	0,089	0,036
-413,642	33,899	0,066	0,042
-412,628	432,540	-0,093	-0,147
-411,613	-41,095	-0,164	0,061
-410,598	593,128	0,021	0,039
-409,584	-103,237	0,025	0,004
-408,569	-70,697	0,146	0,040
-407,555	-200,000	-0,009	0,126
-406,540	-23,453	0,159	0,069
-405,525	757,326	0,005	-0,009
-404,511	780,432	-0,042	-0,085
-403,496	106,577	0,081	-0,070
-402,482	767,469	0,055	0,108
-401,467	-3,542	-0,095	0,048
-400,452	-20,044	0,100	-0,045
-399,438	-86,343	0,045	-0,010
-398,423	241,957	-0,023	-0,028
-397,409	-47,240	0,081	-0,028
-396,394	-75,747	-0,066	-0,017
-395,379	-56,507	-0,021	0,007
-394,365	-200,000	0,015	-0,134
-393,350	-200,000	-0,039	0,127
-392,336	-200,000	0,023	0,119
-391,321	800,000	0,029	-0,088
-390,306	800,000	-0,041	0,105
-389,292	330,572	0,043	0,061
-388,277	-189,929	0,035	0,000
-387,263	-200,000	-0,018	0,089
-386,248	73,231	0,057	-0,043
-385,233	163,698	-0,045	0,046
-384,219	237,033	-0,088	0,106
-383,204	-150,394	-0,095	-0,005
-382,190	156,340	-0,023	-0,023
-381,175	800,000	0,021	-0,051
-380,160	58,137	-0,109	0,078
-379,146	-200,000	-0,011	-0,041
-378,131	800,000	0,027	0,068
-377,117	800,000	0,024	0,052
-376,102	121,349	-0,037	0,034
-375,088	-200,000	-0,007	-0,173
-374,073	-200,000	0,035	0,207
-373,058	-200,000	-0,016	0,051
-372,044	528,924	-0,035	0,061
-371,029	675,753	0,029	0,054
-370,015	428,181	-0,051	-0,080
-369,000	-30,192	-0,123	0,050
-367,985	-200,000	-0,003	-0,103
-366,971	383,106	0,050	-0,075
-365,956	800,000	-0,035	-0,098
-364,942	800,000	-0,012	0,032
-363,927	308,562	-0,047	0,064
-362,912	-100,479	-0,087	0,015
-361,898	-11,001	0,087	0,041
-360,883	-200,000	-0,004	0,048
-359,869	-200,000	-0,005	0,041
-358,854	213,933	-0,025	0,028
-357,839	172,199	0,044	0,046
-356,825	-35,983	0,112	0,044
-355,810	275,762	-0,014	0,018
-354,796	-200,000	0,016	-0,081
-353,781	174,129	0,071	-0,075
-352,766	-16,128	0,013	0,006
-351,752	121,017	-0,009	0,008
-350,737	254,478	-0,020	0,025
-349,723	244,483	-0,086	0,105
-348,708	-200,000	0,010	-0,086
-347,693	50,099	-0,095	-0,065
-346,679	800,000	-0,022	-0,056
-345,664	-109,079	0,108	-0,016
-344,650	250,815	0,046	-0,057
-343,635	-61,770	0,040	-0,012
-342,620	-200,000	0,004	0,024
-341,606	245,492	0,107	0,130
-340,591	-85,451	-0,056	0,012
-339,577	800,000	-0,034	-0,096
-338,562	88,118	0,115	0,093
-337,548	-1,787	0,040	-0,020
-336,533	-200,000	-0,001	0,091
-335,518	-200,000	-0,007	-0,048
-334,504	-200,000	-0,016	0,165
-333,489	51,659	-0,138	-0,095
-332,475	-38,015	-0,030	0,012
-331,460	-140,746	0,027	-0,002
-330,445	800,000	-0,016	-0,044
-329,431	-200,000	0,015	0,073
-328,416	426,538	0,031	0,048
-327,402	0,106	-0,090	-0,046
-326,387	-200,000	0,017	0,061
-325,372	609,658	-0,026	-0,047
-324,358	-94,497	0,025	-0,005
-323,343	-124,499	-0,213	0,024
-322,329	-148,633	-0,117	0,007
-321,314	9,545	-0,082	0,045
-320,299	328,819	0,028	0,039
-319,285	335,810	0,028	-0,040
-318,270	-200,000	0,016	-0,141
-317,256	-191,780	-0,025	0,000
-316,241	-167,236	-0,088	-0,003
-315,226	-98,772	0,109	-0,020
-314,212	-200,000	-0,002	0,093
-313,197	-28,923	-0,066	-0,027
-312,183	66,484	-0,053	0,039
-311,168	26,883	-0,123	-0,074
-310,153	800,000	0,031	-0,099
-309,139	-15,660	0,100	0,046
-308,124	222,949	0,041	-0,048
-307,110	92,038	0,065	-0,053
-306,095	176,937	0,062	0,065
-305,080	-85,053	-0,128	0,029
-304,066	652,425	0,010	0,019
-303,051	-200,000	0,016	-0,167
-302,037	-200,000	-0,000	-0,023
-301,022	-191,668	0,087	0,001
-300,008	800,000	0,053	0,124
-298,993	280,309	0,023	0,029
-297,978	800,000	-0,020	0,057
-296,964	-18,155	-0,170	-0,076
-295,949	565,853	-0,027	-0,048
-294,935	-87,715	0,075	0,016
-293,920	-7,409	0,156	-0,076
-292,905	-200,000	-0,035	-0,124
-291,891	800,000	0,029	0,057
-290,876	800,000	0,025	0,062
-289,862	-200,000	0,009	-0,046
-288,847	-3,119	-0,094	0,047
-287,832	700,822	0,015	-0,028
-286,818	257,522	0,072	0,089
-285,803	603,683	0,079	-0,142
-284,789	797,683	0,042	-0,084
-283,774	-14,383	0,072	0,034
-282,759	-200,000	0,046	-0,214
-281,745	-200,000	-0,037	-0,185
-280,730	96,567	0,068	-0,056
-279,716	800,000	-0,049	0,128
-278,701	-107,820	0,129	-0,020
-277,686	178,946	0,008	-0,008
-276,672	-200,000	0,006	0,148
-275,657	44,458	-0,063	0,042
-274,643	-200,000	-0,038	-0,127
-273,628	7,810	0,083	-0,045
-272,613	800,000	-0,011	0,031
-271,599	-67,100	0,177	-0,050
-270,584	47,919	-0,088	0,059
-269,570	-200,000	-0,024	0,100
-268,555	-200,000	0,003	-0,039
-267,540	-200,000	0,005	-0,155
-266,526	-200,000	0,023	-0,154
-265,511	800,000	-0,035	-0,071
-264,497	418,125	-0,054	0,083
-263,482	49,025	-0,058	0,039
-262,467	316,712	0,033	-0,046
-261,453	151,592	-0,097	-0,095
-260,438	24,070	0,010	-0,006
-259,424	-118,901	0,080	0,010
-258,409	235,842	-0,135	-0,162
-257,395	-122,558	-0,068	-0,008
-256,380	-5,973	0,021	-0,010
-255,365	-51,950	0,082	0,027
-254,351	-200,000	-0,026	0,107
-253,336	297,976	0,036	-0,048
-252,322	608,950	-0,074	-0,134
-251,307	800,000	-0,070	-0,178
-250,292	-154,661	-0,083	-0,004
-249,278	-200,000	0,005	-0,030
-248,263	22,904	-0,092	0,054
-247,249	-186,090	-0,025	-0,000
-246,234	-200,000	-0,004	-0,066
-245,219	-89,340	-0,045	-0,009
-244,205	-200,000	-0,004	0,076
-243,190	-200,000	-0,026	0,105
-242,176	-200,000	0,036	0,154
-241,161	-200,000	0,011	0,093
-240,146	-137,542	-0,142	0,011
-239,132	-16,161	-0,025	0,012
-238,117	-200,000	0,016	-0,160
-237,103	-200,000	0,008	0,055
-236,088	-60,256	-0,053	0,016
-235,073	-200,000	0,013	-0,046
-234,059	124,383	-0,043	-0,039
-233,044	233,783	0,005	-0,006
-232,030	-200,000	0,000	-0,023
-231,015	-93,123	-0,095	-0,019
-230,000	-200,000	-0,012	-0,051
-228,986	354,751	0,051	-0,073
-227,971	-200,000	0,005	-0,026
-226,957	230,254	-0,086	-0,101
-225,942	134,202	-0,101	0,095
-224,927	41,762	-0,012	0,008
-223,913	-40,410	-0,105	0,039
-222,898	-133,959	0,128	-0,011
-221,884	-79,552	-0,109	-0,026
-220,869	-200,000	-0,024	0,095
-219,855	-200,000	-0,015	-0,189
-218,840	157,777	0,073	0,073
-217,825	521,167	0,030	0,050
-216,811	-200,000	0,010	-0,098
-215,796	-14,061	0,065	-0,030
-214,782	112,051	-0,076	-0,066
-213,767	20,759	0,109	-0,064
-212,752	-200,000	0,022	-0,145
-211,738	-200,000	0,005	0,073
-210,723	800,000	-0,080	-0,191
-209,709	-101,085	-0,012	0,002
-208,694	129,428	0,060	-0,055
-207,679	-173,958	0,112	0,002
-206,665	-200,000	-0,009	-0,048
-205,650	109,526	0,101	-0,087
-204,636	-146,893	0,027	-0,002
-203,621	800,000	-0,043	0,113
-202,606	482,296	-0,029	0,048
-201,592	286,133	-0,053	0,069
-200,577	233,109	-0,074	-0,088
-199,563	103,065	-0,058	-0,049
-198,548	4,206	0,091	0,048
-197,533	32,416	0,132	0,082
-196,519	571,751	-0,061	-0,107
-195,504	64,071	-0,072	-0,052
-194,490	-200,000	0,002	0,025
-193,475	241,425	-0,038	-0,046
-192,460	-200,000	-0,003	0,044
-191,446	-97,149	0,147	-0,027
-190,431	-108,531	-0,134	0,020
-189,417	-26,711	-0,111	0,046
-188,402	-50,180	-0,147	0,050
-187,387	-200,000	0,008	-0,073
-186,373	-200,000	0,011	-0,080
-185,358	-53,365	-0,091	-0,030
-184,344	-200,000	0,001	0,055
-183,329	655,364	-0,110	0,204
-182,315	-99,651	-0,006	0,001
-181,300	74,890	-0,131	-0,099
-180,285	692,176	-0,049	0,093
-179,271	800,000	-0,033	0,092
-178,256	421,858	0,026	0,040
-177,242	486,970	0,042	0,070
-176,227	-200,000	0,002	0,036
-175,212	96,848	-0,084	0,069
-174,198	-200,000	0,023	-0,102
-173,183	275,648	0,061	-0,077
-172,169	-46,760	0,085	0,030
-171,154	-51,349	-0,051	0,017
-170,139	-144,132	-0,050	0,003
-169,125	800,000	0,060	0,166
-168,110	532,688	0,004	-0,007
-167,096	138,753	-0,019	-0,018
-166,081	3,100	-0,094	-0,049
-165,066	-40,988	-0,142	-0,053
-164,052	-87,829	0,063	-0,013
-163,037	-51,837	-0,117	-0,039
-162,023	-105,968	0,160	0,026
-161,008	-152,685	-0,108	-0,005
-159,993	276,533	0,077	-0,099
-158,979	16,570	-0,142	-0,081
-157,964	800,000	0,036	-0,081
-156,950	-200,000	0,028	-0,164
-155,935	2,158	-0,091	-0,047
-154,920	11,296	0,047	0,026
-153,906	238,454	-0,060	-0,072
-152,891	466,912	0,072	-0,117
-151,877	42,668	-0,130	-0,085
-150,862	800,000	-0,042	-0,098
-149,847	71,864	0,140	-0,105
-148,833	88,926	-0,044	0,035
-147,818	243,897	0,019	-0,023
-146,804	-105,358	-0,036	0,006
-145,789	-200,000	-0,008	-0,048
-144,775	-69,437	-0,141	-0,039
-143,760	-61,984	-0,119	0,036
-142,745	-130,433	0,070	0,007
-141,731	88,019	-0,076	0,061
-140,716	139,679	0,110	0,104
-139,702	-151,400	0,211	0,011
-138,687	95,724	0,058	0,047
-137,672	-33,326	-0,107	-0,042
-136,658	-14,717	-0,085	0,039
-135,643	-200,000	0,022	-0,101
-134,629	800,000	0,028	-0,073
-133,614	38,354	0,062	-0,040
-132,599	530,412	0,066	0,113
-131,585	24,102	0,054	0,032
-130,570	720,197	-0,059	-0,114
-129,556	585,556	0,036	-0,064
-128,541	158,889	0,109	-0,108
-127,526	800,000	-0,048	0,147
-126,512	-200,000	-0,011	-0,143
-125,497	408,992	-0,031	-0,048
-124,483	142,434	0,083	-0,079
-123,468	-200,000	-0,009	-0,141
-122,453	390,727	-0,049	0,073
-121,439	-71,535	-0,183	0,049
-120,424	-22,397	0,170	-0,074
-119,410	80,400	0,080	-0,061
-118,395	4,380	0,055	0,029
-117,380	-42,188	0,128	0,047
-116,366	800,000	-0,038	-0,089
-115,351	800,000	0,035	-0,094
-114,337	-50,493	0,121	-0,041
-113,322	46,892	-0,036	0,024
-112,307	-200,000	0,028	0,095
-111,293	-193,636	-0,080	-0,000
-110,278	-90,984	0,029	-0,006
-109,264	-63,755	0,098	-0,029
-108,249	44,772	0,045	-0,030
-107,234	759,598	-0,073	-0,142
-106,220	213,423	-0,048	-0,055
-105,205	-162,078	-0,023	-0,001
-104,191	586,624	0,035	0,062
-103,176	-88,401	-0,040	0,009
-102,162	-200,000	0,033	0,123
-101,147	547,149	-0,030	-0,052
-100,132	73,524	-0,092	-0,069
-99,118	-132,071	-0,052	0,005
-98,103	-200,000	-0,014	0,138
-97,089	800,000	-0,013	0,038
-96,074	171,695	-0,030	0,031
-95,059	146,612	0,084	-0,081
-94,045	25,654	-0,066	-0,039
-93,030	800,000	-0,060	-0,153
-92,016	-98,350	0,024	-0,004
-91,001	-47,563	0,097	-0,034
-89,986	-40,822	0,157	-0,058
-88,972	-200,000	-0,029	-0,100
-87,957	-200,000	-0,002	-0,049
-86,943	288,711	0,055	0,072
-85,928	800,000	-0,047	-0,148
-84,913	800,000	0,036	0,083
-83,899	421,311	-0,061	0,094
-82,884	-90,792	0,083	0,017
-81,870	-152,002	0,055	-0,003
-80,855	99,879	0,043	0,036
-79,840	-114,950	-0,070	-0,009
-78,826	-15,817	0,055	0,025
-77,811	800,000	0,028	0,058
-76,797	-136,182	0,134	-0,011
-75,782	800,000	0,068	0,147
-74,767	88,474	0,099	0,079
-73,753	63,954	0,120	0,087
-72,738	168,316	-0,013	-0,014
-71,724	-200,000	-0,029	-0,107
-70,709	-0,155	-0,096	0,049
-69,694	100,072	-0,047	0,039
-68,680	54,657	0,076	0,053
-67,665	578,086	0,070	0,123
-66,651	-200,000	-0,001	-0,072
-65,636	230,917	0,018	-0,021
-64,622	-200,000	0,022	-0,099
-63,607	448,047	-0,099	-0,156
-62,592	-200,000	-0,030	-0,153
-61,578	306,586	0,022	0,029
-60,563	541,385	0,043	0,073
-59,549	800,000	0,046	0,132
-58,534	28,183	-2,126	-1,283
-57,519	-200,000	-0,177	-0,775
-56,505	-200,000	-1,292	-5,060
-55,490	71,061	0,942	0,699
-54,476	800,000	5,163	12,039
-53,461	-200,000	18,089	293,132
-52,446	800,000	729,736	2219,323
-51,432	524,302	1642,481	2776,332
-50,417	107,694	1631,547	1390,474
-49,403	71,921	1283,763	955,032
-48,388	30,643	1025,016	626,441
-47,373	20,032	987,218	568,483
-46,359	18,117	974,817	555,069
-45,344	14,810	971,173	542,194
-44,330	15,152	969,608	542,417
-43,315	14,498	967,869	539,292
-42,300	14,488	966,424	538,434
-41,286	14,498	965,630	538,004
-40,271	14,551	964,620	537,591
-39,257	14,523	963,700	536,966
-38,242	14,478	963,064	536,445
-37,227	14,532	962,175	536,104
-36,213	14,476	961,307	535,418
-35,198	14,520	960,521	535,102
-34,184	14,570	959,412	534,623
-33,169	14,491	958,672	533,933
-32,154	14,600	957,424	533,570
-31,140	14,499	956,933	532,948
-30,125	14,575	955,773	532,526
-29,111	14,532	955,338	532,125
-28,096	14,491	954,458	531,483
-27,082	14,549	953,851	531,310
-26,067	14,548	953,188	530,917
-25,052	14,511	952,385	530,328
-24,038	14,524	951,759	529,999
-23,023	14,459	951,202	529,462
-22,009	14,540	950,503	529,310
-20,994	14,506	949,983	528,889
-19,979	14,548	949,190	528,562
-18,965	14,582	948,544	528,289
-17,950	14,539	947,836	527,738
-16,936	14,513	947,251	527,308
-15,921	14,481	946,672	526,865
-14,906	14,464	945,972	526,399
-13,892	14,424	945,384	525,923
-12,877	14,413	944,747	525,513
-11,863	14,412	944,014	525,081
-10,848	14,429	943,602	524,887
-9,833	14,542	943,068	524,926
-8,819	14,508	942,260	524,349
-7,804	14,425	941,809	523,813
-6,790	14,424	941,286	523,500
-5,775	14,424	940,689	523,146
-4,760	14,445	939,993	522,803
-3,746	14,418	939,219	522,268
-2,731	14,305	938,663	521,581
-1,717	14,283	938,048	521,149
-0,702	14,248	937,478	520,701
0,313	14,025	936,832	520,430
1,327	17,424	934,718	529,872
2,342	26,365	787,502	469,869
3,356	22,637	443,207	258,922
4,371	-6,564	295,442	143,454
5,386	-10,510	277,253	130,876
6,400	-11,560	271,543	127,194
7,415	-11,886	269,284	125,825
8,429	-11,889	267,852	125,143
9,444	-12,001	266,862	124,567
10,459	-11,910	266,230	124,343
11,473	-12,153	265,673	123,851
12,488	-12,174	264,965	123,491
13,502	-12,669	264,564	122,846
14,517	-12,358	264,025	122,865
15,531	-12,303	263,500	122,660
16,546	-12,348	263,305	122,518
17,561	-12,373	262,882	122,287
18,575	-12,458	262,514	122,029
19,590	-12,417	262,214	121,915
20,604	-12,389	261,942	121,803
21,619	-12,536	261,597	121,501
22,634	-12,320	261,135	121,467
23,648	-12,698	260,958	121,037
24,663	-12,387	260,528	121,104
25,677	-12,636	260,367	120,797
26,692	-12,631	260,138	120,684
27,707	-12,521	259,811	120,619
28,721	-12,669	259,559	120,361
29,736	-12,720	259,329	120,198
30,750	-12,466	259,020	120,269
31,765	-12,648	258,800	119,996
32,780	-12,621	258,639	119,934
33,794	-12,366	258,174	119,932
34,809	-12,656	258,126	119,644
35,823	-12,439	257,708	119,630
36,838	-12,599	257,628	119,442
37,853	-12,647	257,333	119,252
38,867	-12,529	257,153	119,261
39,882	-12,593	256,914	119,084
40,896	-12,468	256,569	119,022
41,911	-12,606	256,499	118,859
42,926	-12,503	256,166	118,784
43,940	-12,469	255,931	118,694
44,955	-12,624	255,724	118,453
45,969	-12,653	255,389	118,262
46,984	-12,810	255,196	118,025
47,999	-12,981	255,038	117,794
49,013	-13,059	254,661	117,541
50,028	-13,430	254,366	117,073
51,042	-13,315	254,144	117,059
52,057	-13,492	254,043	116,849
53,071	-13,154	253,687	116,968
54,086	-13,086	253,433	116,899
55,101	-12,967	253,295	116,927
56,115	-12,764	253,250	117,070
57,130	-12,509	253,267	117,288
58,144	-12,446	253,053	117,233
59,159	-12,448	252,737	117,074
60,174	-12,359	252,638	117,094
61,188	-12,325	252,204	116,912
62,203	-12,554	252,138	116,675
63,217	-12,531	251,961	116,602
64,232	-12,451	251,674	116,528
65,247	-12,414	251,426	116,434
66,261	-12,527	251,358	116,295
67,276	-12,794	251,041	115,910
68,290	-12,818	250,834	115,784
69,305	-12,678	250,417	115,700
70,320	-12,799	250,402	115,580
71,334	-12,799	250,082	115,422
72,349	-12,391	250,015	115,727
73,363	-12,321	249,754	115,656
74,378	-12,422	249,563	115,471
75,393	-12,395	249,389	115,404
76,407	-12,688	249,225	115,069
77,422	-12,523	248,882	115,040
78,436	-12,623	248,917	114,961
79,451	-12,520	248,665	114,921
80,466	-12,529	248,171	114,676
81,480	-12,598	248,026	114,541
82,495	-12,648	247,811	114,389
83,509	-12,612	247,680	114,348
84,524	-12,703	247,434	114,148
85,539	-12,730	247,119	113,970
86,553	-12,869	247,115	113,841
87,568	-12,644	246,881	113,911
88,582	-12,577	246,569	113,814
89,597	-12,757	246,335	113,545
90,611	-12,603	246,422	113,704
91,626	-12,331	246,284	113,857
92,641	-12,387	245,847	113,599
93,655	-12,546	245,855	113,459
94,670	-12,455	245,534	113,377
95,684	-12,476	245,429	113,301
96,699	-12,575	245,261	113,131
97,714	-12,707	244,977	112,880
98,728	-12,909	244,848	112,643
99,743	-12,896	244,595	112,528
100,757	-12,963	244,448	112,394
101,772	-12,913	244,154	112,291
102,787	-12,886	244,065	112,261
103,801	-12,529	243,773	112,412
104,816	-12,617	243,605	112,252
105,830	-12,395	243,543	112,397
106,845	-12,577	243,477	112,207
107,860	-12,409	243,254	112,232
108,874	-12,448	242,827	111,993
109,889	-12,646	242,830	111,822
110,903	-12,560	242,589	111,771
111,918	-12,725	242,418	111,547
112,933	-12,566	242,198	111,566
113,947	-12,420	242,025	111,596
114,962	-12,289	241,724	111,554
115,976	-12,620	241,720	111,271
116,991	-12,592	241,577	111,219
118,006	-12,575	241,436	111,158
119,020	-12,513	241,155	111,070
120,035	-12,480	241,111	111,066
121,049	-12,626	240,892	110,836
122,064	-12,630	240,716	110,743
123,079	-12,537	240,548	110,731
124,093	-12,657	240,239	110,481
125,108	-12,707	240,001	110,321
126,122	-12,806	239,842	110,158
127,137	-12,912	239,527	109,917
128,151	-13,025	239,358	109,738
129,166	-12,820	239,330	109,882
130,181	-12,846	239,214	109,798
131,195	-12,849	238,919	109,650
132,210	-12,465	238,676	109,839
133,224	-12,698	238,743	109,671
134,239	-12,591	238,464	109,620
135,254	-12,421	238,295	109,669
136,268	-12,644	238,105	109,393
137,283	-12,850	237,787	109,071
138,297	-13,147	237,747	108,805
139,312	-12,879	237,404	108,853
140,327	-12,567	237,202	109,000
141,341	-12,191	237,218	109,299
142,356	-12,207	237,113	109,229
143,370	-12,170	236,936	109,167
144,385	-12,305	236,823	108,997
145,400	-12,248	236,544	108,905
146,414	-12,249	236,387	108,822
147,429	-12,360	236,185	108,631
148,443	-12,517	236,071	108,444
149,458	-12,639	235,971	108,291
150,473	-12,259	235,705	108,461
151,487	-12,491	235,428	108,140
152,502	-12,386	235,375	108,190
153,516	-12,304	235,117	108,126
154,531	-12,251	234,907	108,062
155,546	-12,238	234,884	108,052
156,560	-12,368	234,721	107,864
157,575	-12,588	234,537	107,596
158,589	-12,342	234,177	107,616
159,604	-12,219	234,169	107,699
160,619	-11,951	233,943	107,798
161,633	-12,024	233,840	107,683
162,648	-12,258	233,681	107,416
163,662	-12,320	233,609	107,325
164,677	-12,253	233,482	107,309
165,692	-12,284	233,318	107,200
166,706	-12,217	233,217	107,196
167,721	-12,171	232,979	107,114
168,735	-11,947	232,772	107,185
169,750	-12,215	232,813	106,983
170,764	-12,261	232,538	106,812
171,779	-12,237	232,386	106,751
172,794	-12,233	232,211	106,664
173,808	-12,305	231,993	106,498
174,823	-12,800	231,631	105,937
175,837	-12,915	231,491	105,773
176,852	-12,529	231,666	106,145
177,867	-12,488	231,493	106,088
178,881	-12,271	231,164	106,097
179,896	-12,526	231,200	105,905
180,910	-12,272	231,097	106,046
181,925	-12,541	230,783	105,684
182,940	-12,236	230,580	105,818
183,954	-12,193	230,381	105,751
184,969	-12,271	230,269	105,629
185,983	-11,889	230,090	105,834
186,998	-11,955	229,919	105,695
188,013	-12,074	229,932	105,599
189,027	-11,971	229,675	105,551
190,042	-12,014	229,521	105,438
191,056	-12,116	229,423	105,305
192,071	-12,113	229,115	105,157
193,086	-11,852	228,956	105,275
194,100	-11,870	228,866	105,210
195,115	-11,964	228,571	104,993
196,129	-11,875	228,697	105,110
197,144	-7,431	230,158	109,206
198,159	-2,808	231,538	113,438
199,173	0,778	232,432	116,651
200,188	1,555	232,524	117,291
201,202	1,467	232,261	117,079
202,217	1,416	232,054	116,925
203,232	1,334	232,119	116,884
204,246	1,597	231,924	116,978
205,261	1,587	231,837	116,917
206,275	1,724	231,840	117,014
207,290	1,661	231,593	116,830
208,304	1,943	231,292	116,885
209,319	1,871	231,141	116,743
210,334	1,628	231,081	116,514
211,348	1,428	230,759	116,188
212,363	1,311	230,535	115,975
213,377	1,174	230,378	115,780
214,392	1,348	230,273	115,851
215,407	1,309	230,267	115,808
216,421	1,641	230,019	115,927
217,436	1,569	229,838	115,770
218,450	1,183	229,623	115,357
219,465	1,266	229,467	115,331
220,480	1,014	229,390	115,090
221,494	1,202	229,217	115,137
222,509	1,361	229,026	115,152
223,523	1,261	228,962	115,033
224,538	1,227	228,807	114,918
225,553	1,324	228,545	114,850
226,567	0,964	228,480	114,533
227,582	1,571	228,311	114,901
228,596	1,552	228,428	114,934
229,611	1,481	227,952	114,631
230,626	1,222	227,850	114,373
231,640	1,082	227,770	114,216
232,655	1,302	227,762	114,369
233,669	1,503	227,558	114,408
234,684	1,670	227,482	114,487
235,699	1,719	227,292	114,418
236,713	1,499	226,984	114,087
237,728	1,264	226,809	113,811
238,742	1,079	226,739	113,626
239,757	1,374	226,526	113,731
240,772	1,288	226,465	113,626
241,786	1,370	226,048	113,468
242,801	1,252	226,230	113,460
243,815	1,841	226,159	113,858
244,830	1,660	225,891	113,577
245,844	1,202	225,667	113,110
246,859	1,150	225,482	112,969
247,874	1,521	225,521	113,257
248,888	1,562	225,377	113,205
249,903	1,225	225,130	112,818
250,917	1,407	224,979	112,868
251,932	1,368	224,790	112,735
252,947	1,005	224,667	112,392
253,961	1,121	224,393	112,331
254,976	1,187	224,254	112,301
255,990	1,364	224,209	112,400
257,005	1,582	224,249	112,573
258,020	1,402	224,021	112,314
259,034	1,566	223,738	112,284
260,049	1,720	223,586	112,312
261,063	1,604	223,427	112,136
262,078	1,699	223,370	112,168
263,093	1,846	223,316	112,240
264,107	1,559	223,223	111,971
265,122	1,675	222,949	111,909
266,136	1,674	222,974	111,911
267,151	1,609	222,794	111,762
268,166	1,237	222,519	111,340
269,180	0,997	222,204	110,996
270,195	1,205	222,152	111,113
271,209	1,199	222,079	111,062
272,224	1,577	221,903	111,242
273,239	1,620	221,794	111,209
274,253	1,400	221,516	110,899
275,268	1,226	221,381	110,693
276,282	0,850	221,246	110,340
277,297	1,238	220,961	110,472
278,312	1,210	220,966	110,444
279,326	1,239	220,854	110,400
280,341	1,535	220,821	110,590
281,355	1,290	220,653	110,316
282,370	1,472	220,446	110,337
283,384	1,094	220,216	109,936
284,399	1,103	220,050	109,850
285,414	1,265	219,919	109,892
286,428	1,414	219,912	109,987
287,443	1,565	219,807	110,035
288,457	1,597	219,725	110,008
289,472	1,481	219,441	109,771
290,487	0,947	219,195	109,250
291,501	0,673	219,055	108,973
292,516	0,949	218,910	109,091
293,530	1,059	218,783	109,098
294,545	1,124	218,797	109,142
295,560	1,210	218,710	109,151
296,574	1,241	218,556	109,087
297,589	1,040	218,409	108,858
298,603	1,403	218,230	109,022
299,618	1,297	218,156	108,898
300,633	1,470	217,947	108,910
301,647	1,582	217,900	108,957
302,662	1,756	217,720	108,983
303,676	1,494	217,671	108,759
304,691	1,723	217,433	108,795
305,706	1,677	217,228	108,650
306,720	1,654	217,047	108,534
307,735	1,431	216,954	108,318
308,749	1,265	216,789	108,106
309,764	1,404	216,828	108,216
310,779	1,746	216,571	108,323
311,793	1,495	216,280	107,988
312,808	1,570	216,219	108,002
313,822	1,370	216,161	107,820
314,837	1,532	215,888	107,790
315,852	1,211	215,934	107,574
316,866	1,407	215,795	107,635
317,881	1,628	215,609	107,690
318,895	1,753	215,448	107,689
319,910	1,432	215,040	107,247
320,925	0,967	214,921	106,848
321,939	0,648	214,852	106,578
322,954	1,311	214,667	106,947
323,968	1,529	214,835	107,176
324,983	1,515	214,761	107,119
325,997	1,715	214,680	107,211
327,012	1,771	214,371	107,087
328,027	1,728	214,212	106,967
329,041	1,629	214,172	106,868
330,056	1,569	213,959	106,710
331,070	1,102	213,650	106,217
332,085	1,083	213,671	106,204
333,100	1,654	213,480	106,502
334,114	1,420	213,484	106,330
335,129	1,543	213,362	106,346
336,143	1,537	213,123	106,214
337,158	1,553	212,915	106,112
338,173	1,535	212,973	106,119
339,187	1,313	212,635	105,785
340,202	1,008	212,580	105,535
341,216	1,042	212,396	105,457
342,231	1,212	212,357	105,548
343,246	1,400	212,159	105,571
344,260	1,352	212,005	105,451
345,275	1,418	211,856	105,415
346,289	1,619	211,880	105,557
347,304	1,790	211,946	105,700
348,319	1,810	211,561	105,513
349,333	1,626	211,374	105,282
350,348	1,394	211,358	105,102
351,362	1,721	211,204	105,244
352,377	1,776	211,126	105,235
353,392	1,669	210,837	105,006
354,406	1,680	210,611	104,892
355,421	196,974	1314,469	1392,080
356,435	157,495	1448,936	1392,031
