DTS Sentinel unit serial number:	SN410029Multiplexer serial number:	ORYXHardware model number:	OX2-SRSoftware version number:	ORYX F/W v4,00 Oryx Data Collector v3.7.2.0data status	okinstallation	B6 Nyhavnadifferential loss correction	single-endedforward channel	channel 2reverse channel	N/Adate	2023/12/08time	05:35:08forward acquisition time	300,00reverse acquisition time	0,00gamma	499,1914k internal	0,3165k external	0,3165temperature offset calibration	1,0000default loss term (dB/km)	0,3820temperature slope calibration	1,0000multiplexer offset coefficient	1,0000multiplexer slope coefficient	1,0000fibre end	0,00T internal ref (°C)	13,01T ext. ref 1 (°C)	-3,89T ext. ref 2 (°C)	-3,89length (m)	temperature (°C)	Stokes	anti-Stokes-744,400	2,756	0,129	0,069
-743,385	-134,248	-0,279	0,025
-742,371	-43,195	0,153	0,057
-741,356	-123,245	-0,180	-0,021
-740,342	85,754	0,080	0,065
-739,327	-54,194	-0,253	-0,084
-738,312	-72,890	0,049	-0,013
-737,298	-126,439	-0,350	-0,038
-736,283	-82,426	0,155	0,037
-735,269	-144,686	-0,352	0,023
-734,254	-200,000	0,032	0,158
-733,239	-34,742	-0,421	-0,168
-732,225	296,064	0,082	0,110
-731,210	7,837	0,119	0,065
-730,196	324,874	-0,074	-0,105
-729,181	-42,074	-0,135	-0,050
-728,167	107,367	0,065	0,057
-727,152	-200,000	0,051	0,000
-726,137	-200,000	0,005	0,021
-725,123	-124,530	-0,183	-0,021
-724,108	-58,304	-0,142	-0,045
-723,094	-80,768	-0,152	0,037
-722,079	800,000	0,046	-0,096
-721,064	90,840	-0,111	-0,092
-720,050	-200,000	0,002	0,087
-719,035	-34,657	-0,032	0,013
-718,021	-79,803	-0,050	-0,012
-717,006	-88,529	-0,046	0,010
-715,991	-96,599	-0,139	-0,027
-714,977	800,000	0,032	-0,092
-713,962	328,303	-0,065	-0,092
-712,948	-200,000	0,002	-0,010
-711,933	-150,541	-0,058	-0,003
-710,918	-200,000	-0,012	-0,115
-709,904	-104,535	-0,183	0,031
-708,889	74,455	0,043	-0,033
-707,875	800,000	0,016	0,038
-706,860	-6,831	0,090	-0,045
-705,845	-36,016	0,082	-0,032
-704,831	-34,690	-0,077	0,031
-703,816	410,324	-0,011	0,017
-702,802	125,349	0,074	-0,069
-701,787	225,420	-0,073	-0,087
-700,772	800,000	0,015	0,040
-699,758	183,772	-0,056	-0,061
-698,743	221,726	0,066	-0,078
-697,729	38,592	0,071	-0,046
-696,714	800,000	-0,020	0,061
-695,699	20,325	-0,077	0,046
-694,685	-200,000	0,006	-0,161
-693,670	565,639	-0,057	-0,102
-692,656	800,000	0,047	0,097
-691,641	-159,804	0,091	-0,004
-690,627	-200,000	-0,018	0,119
-689,612	83,963	-0,106	-0,085
-688,597	282,320	0,010	-0,013
-687,583	-200,000	-0,028	-0,118
-686,568	-175,306	-0,073	0,001
-685,554	800,000	0,027	-0,066
-684,539	-39,650	-0,073	0,028
-683,524	31,757	0,072	-0,045
-682,510	-200,000	-0,000	0,093
-681,495	-130,411	-0,163	0,016
-680,481	380,070	0,060	-0,090
-679,466	-200,000	0,004	-0,074
-678,451	-26,990	0,041	0,018
-677,437	-41,375	0,079	-0,030
-676,422	39,933	-0,027	-0,018
-675,408	-120,248	0,094	0,012
-674,393	298,705	-0,061	-0,083
-673,378	-100,548	-0,137	0,025
-672,364	250,076	0,112	-0,140
-671,349	-200,000	0,028	-0,169
-670,335	-21,941	-0,093	-0,041
-669,320	-144,952	0,009	-0,001
-668,305	-200,000	-0,002	0,077
-667,291	-30,342	0,027	0,011
-666,276	-200,000	-0,003	-0,019
-665,262	472,842	-0,055	-0,091
-664,247	16,186	-0,026	-0,015
-663,232	-200,000	-0,004	0,041
-662,218	159,557	0,142	0,145
-661,203	206,404	-0,040	-0,046
-660,189	-68,600	0,021	-0,006
-659,174	608,572	0,020	-0,037
-658,159	5,509	0,125	0,067
-657,145	81,247	-0,089	0,070
-656,130	800,000	-0,015	-0,037
-655,116	-200,000	0,015	0,065
-654,101	-200,000	-0,009	-0,108
-653,086	800,000	-0,003	0,008
-652,072	-200,000	0,024	-0,154
-651,057	420,877	-0,095	-0,150
-650,043	421,233	-0,045	-0,072
-649,028	800,000	-0,041	-0,085
-648,014	221,352	0,041	0,048
-646,999	10,622	0,057	0,032
-645,984	800,000	-0,030	-0,072
-644,970	233,150	-0,100	-0,121
-643,955	159,299	0,046	-0,047
-642,941	-200,000	-0,019	-0,165
-641,926	122,734	-0,029	-0,026
-640,911	170,162	0,035	0,037
-639,897	800,000	0,037	0,086
-638,882	-40,654	-0,097	-0,037
-637,868	-98,341	-0,082	0,015
-636,853	298,278	0,077	0,104
-635,838	117,310	-0,053	0,047
-634,824	800,000	-0,003	0,008
-633,809	-53,701	-0,168	0,056
-632,795	13,417	0,043	-0,024
-631,780	-60,487	0,106	-0,033
-630,765	315,025	-0,100	0,139
-629,751	360,522	-0,054	-0,080
-628,736	-52,394	-0,129	-0,044
-627,722	-55,663	-0,126	0,041
-626,707	-27,586	0,063	-0,027
-625,692	265,977	0,109	0,140
-624,678	341,798	-0,026	-0,038
-623,663	38,992	-0,079	0,052
-622,649	-118,092	-0,136	-0,018
-621,634	800,000	-0,016	-0,036
-620,619	266,480	-0,040	-0,051
-619,605	218,201	0,051	0,060
-618,590	800,000	-0,056	0,132
-617,576	136,074	-0,058	0,055
-616,561	-0,287	-0,039	0,020
-615,546	175,044	-0,042	-0,045
-614,532	729,745	-0,029	-0,056
-613,517	337,879	0,076	0,108
-612,503	800,000	-0,015	0,044
-611,488	-200,000	0,016	-0,056
-610,474	-200,000	-0,014	0,049
-609,459	-12,059	-0,042	-0,020
-608,444	719,095	-0,045	-0,088
-607,430	312,773	-0,098	-0,136
-606,415	89,806	0,132	-0,108
-605,401	0,489	0,087	-0,045
-604,386	800,000	-0,016	-0,034
-603,371	800,000	-0,020	-0,047
-602,357	150,861	0,068	-0,068
-601,342	-200,000	-0,018	0,124
-600,328	240,604	-0,066	-0,080
-599,313	108,777	0,083	-0,072
-598,298	299,052	-0,010	0,014
-597,284	594,072	-0,037	0,066
-596,269	-200,000	0,004	-0,046
-595,255	-127,611	0,019	-0,002
-594,240	-11,271	-0,042	0,020
-593,225	-94,987	0,039	0,008
-592,211	-88,027	-0,100	-0,022
-591,196	800,000	-0,029	0,082
-590,182	-38,192	0,190	-0,073
-589,167	-200,000	0,007	-0,125
-588,152	227,638	-0,036	-0,042
-587,138	-36,174	0,033	-0,013
-586,123	16,174	0,111	0,064
-585,109	22,812	-0,123	0,073
-584,094	244,074	0,084	0,103
-583,079	40,409	0,052	0,034
-582,065	15,544	0,066	-0,038
-581,050	-200,000	-0,021	0,213
-580,036	191,595	0,026	0,029
-579,021	-69,665	0,043	-0,012
-578,006	800,000	-0,042	-0,089
-576,992	-200,000	0,017	-0,060
-575,977	800,000	-0,023	-0,048
-574,963	-200,000	-0,003	-0,018
-573,948	800,000	0,059	0,170
-572,934	800,000	0,044	0,094
-571,919	-115,429	-0,044	0,006
-570,904	43,860	-0,111	-0,074
-569,890	-200,000	-0,006	-0,027
-568,875	800,000	-0,059	-0,121
-567,861	800,000	-0,013	-0,035
-566,846	-108,852	-0,030	-0,005
-565,831	88,946	-0,087	0,071
-564,817	800,000	0,005	0,011
-563,802	-200,000	-0,038	-0,136
-562,788	93,631	-0,036	0,030
-561,773	96,647	0,054	-0,045
-560,758	-200,000	0,018	-0,070
-559,744	-71,126	-0,041	0,011
-558,729	800,000	-0,028	0,057
-557,715	-38,917	0,063	0,024
-556,700	490,050	-0,022	0,037
-555,685	-200,000	-0,015	0,109
-554,671	45,757	0,068	-0,046
-553,656	433,504	0,056	0,088
-552,642	-200,000	0,011	0,083
-551,627	-200,000	0,013	0,122
-550,612	-200,000	-0,022	0,095
-549,598	-27,917	0,190	0,080
-548,583	-200,000	0,037	0,122
-547,569	-73,702	-0,087	0,023
-546,554	-82,330	-0,087	0,020
-545,539	-200,000	0,012	0,157
-544,525	544,855	-0,069	-0,121
-543,510	359,988	0,033	-0,049
-542,496	-103,795	-0,138	0,023
-541,481	-200,000	0,018	-0,065
-540,466	800,000	-0,030	0,094
-539,452	346,756	0,039	0,055
-538,437	329,055	-0,004	-0,006
-537,423	727,853	0,016	0,032
-536,408	800,000	0,014	0,034
-535,393	-200,000	-0,031	-0,118
-534,379	-200,000	-0,020	0,068
-533,364	-49,604	-0,087	0,030
-532,350	-196,471	0,143	0,001
-531,335	-70,891	-0,088	-0,024
-530,321	434,584	0,061	0,097
-529,306	-200,000	-0,024	-0,179
-528,291	41,429	-0,044	0,029
-527,277	-78,057	-0,090	-0,023
-526,262	564,939	0,040	-0,071
-525,248	-143,393	-0,064	-0,004
-524,233	-200,000	-0,017	-0,076
-523,218	221,866	-0,058	0,068
-522,204	309,742	0,071	0,097
-521,189	-121,877	-0,107	-0,013
-520,175	64,730	-0,162	0,119
-519,160	289,008	0,020	-0,026
-518,145	-200,000	-0,001	0,091
-517,131	-127,703	0,022	0,002
-516,116	-200,000	-0,002	0,060
-515,102	-71,589	-0,022	0,006
-514,087	-122,132	0,059	0,007
-513,072	446,298	0,037	-0,060
-512,058	-200,000	-0,006	-0,159
-511,043	136,306	0,042	-0,040
-510,029	800,000	-0,046	0,140
-509,014	786,116	0,005	0,010
-507,999	7,739	0,032	-0,017
-506,985	-200,000	0,016	-0,079
-505,970	47,037	-0,143	0,097
-504,956	116,930	-0,098	-0,087
-503,941	85,945	0,042	-0,033
-502,926	800,000	0,036	0,095
-501,912	-155,819	0,105	0,005
-500,897	-200,000	-0,052	0,195
-499,883	99,145	-0,072	-0,061
-498,868	74,514	-0,071	0,055
-497,853	96,749	-0,072	0,060
-496,839	800,000	-0,046	0,109
-495,824	758,819	-0,013	-0,026
-494,810	15,490	0,048	0,027
-493,795	12,595	-0,067	0,037
-492,781	288,615	-0,061	-0,081
-491,766	800,000	-0,066	-0,139
-490,751	155,400	-0,133	-0,133
-489,737	98,251	0,154	0,130
-488,722	-200,000	0,027	0,236
-487,708	-200,000	0,017	0,108
-486,693	57,222	-0,068	-0,049
-485,678	-39,214	0,030	-0,012
-484,664	47,306	-0,043	0,029
-483,649	-99,342	0,077	0,014
-482,635	-50,738	-0,034	-0,012
-481,620	101,420	0,130	0,110
-480,605	407,656	-0,018	0,028
-479,591	-62,752	-0,033	0,010
-478,576	-36,830	0,196	0,076
-477,562	219,057	0,049	-0,057
-476,547	800,000	0,027	0,074
-475,532	21,447	-0,107	-0,063
-474,518	800,000	-0,060	0,139
-473,503	683,505	0,022	0,042
-472,489	-79,707	0,043	-0,010
-471,474	-200,000	0,022	-0,084
-470,459	513,143	0,017	-0,028
-469,445	800,000	0,057	-0,123
-468,430	-200,000	0,026	-0,136
-467,416	71,257	-0,052	0,039
-466,401	607,366	0,044	0,079
-465,386	-55,878	0,077	-0,025
-464,372	350,444	0,056	0,081
-463,357	800,000	0,038	-0,097
-462,343	223,534	-0,053	-0,062
-461,328	16,699	0,123	-0,070
-460,313	800,000	0,013	0,040
-459,299	-200,000	0,022	0,160
-458,284	-105,901	0,191	0,031
-457,270	-2,426	0,054	-0,027
-456,255	87,236	0,030	0,024
-455,241	800,000	-0,061	-0,139
-454,226	168,325	0,015	-0,015
-453,211	-200,000	-0,008	-0,029
-452,197	133,655	0,076	0,071
-451,182	-18,757	0,065	-0,029
-450,168	168,065	-0,045	0,047
-449,153	-200,000	0,010	0,109
-448,138	177,827	0,042	-0,045
-447,124	800,000	-0,004	-0,007
-446,109	-200,000	0,019	0,091
-445,095	207,811	-0,086	0,097
-444,080	800,000	0,040	-0,081
-443,065	800,000	-0,043	-0,118
-442,051	48,675	-0,017	-0,012
-441,036	5,961	-0,055	-0,030
-440,022	-200,000	0,013	0,097
-439,007	-200,000	0,002	0,086
-437,992	-200,000	-0,055	-0,178
-436,978	-200,000	-0,012	-0,072
-435,963	-155,065	0,137	0,006
-434,949	28,667	-0,167	0,103
-433,934	162,626	-0,053	-0,054
-432,919	428,959	-0,014	-0,022
-431,905	-90,661	-0,032	0,007
-430,890	-59,770	0,146	0,045
-429,876	185,914	0,118	0,127
-428,861	-59,820	0,087	0,027
-427,846	616,218	0,056	0,103
-426,832	136,498	-0,064	0,061
-425,817	-120,701	-0,069	0,008
-424,803	-117,670	-0,031	0,004
-423,788	126,917	0,070	0,064
-422,773	-136,569	0,037	-0,003
-421,759	107,566	-0,049	0,042
-420,744	-181,509	-0,050	0,001
-419,730	243,996	0,056	-0,068
-418,715	-83,842	-0,101	0,023
-417,701	230,471	0,089	-0,106
-416,686	-33,390	0,049	0,019
-415,671	800,000	0,043	-0,096
-414,657	800,000	0,019	0,045
-413,642	-16,040	-0,106	-0,049
-412,628	-197,837	-0,137	0,001
-411,613	800,000	-0,025	-0,061
-410,598	-72,756	-0,031	-0,008
-409,584	800,000	0,039	-0,095
-408,569	-41,419	0,126	-0,047
-407,555	125,070	0,101	0,092
-406,540	31,037	0,121	0,075
-405,525	131,050	0,119	-0,111
-404,511	159,860	0,011	0,011
-403,496	800,000	-0,027	0,067
-402,482	-154,457	-0,108	-0,005
-401,467	-72,675	-0,023	-0,006
-400,452	-69,843	0,045	0,012
-399,438	49,539	0,045	0,031
-398,423	-200,000	0,003	0,072
-397,409	199,456	-0,064	-0,072
-396,394	-200,000	-0,009	-0,052
-395,379	-124,587	0,063	0,007
-394,365	-200,000	-0,038	0,122
-393,350	-200,000	0,015	0,058
-392,336	800,000	0,019	0,041
-391,321	800,000	0,009	-0,021
-390,306	-110,038	-0,207	-0,031
-389,292	586,893	0,063	-0,114
-388,277	557,445	0,064	-0,112
-387,263	639,745	0,008	0,015
-386,248	800,000	0,037	0,094
-385,233	97,894	0,073	0,061
-384,219	-200,000	0,014	0,113
-383,204	-200,000	-0,001	-0,112
-382,190	-74,897	0,067	-0,017
-381,175	227,974	0,030	0,035
-380,160	-28,892	0,090	0,037
-379,146	-44,834	0,093	0,033
-378,131	-70,274	-0,080	-0,022
-377,117	-200,000	-0,002	0,014
-376,102	141,320	-0,077	0,074
-375,088	35,036	-0,201	-0,128
-374,073	800,000	-0,043	-0,089
-373,058	39,719	0,063	0,041
-372,044	-49,622	0,144	0,049
-371,029	-200,000	-0,015	0,103
-370,015	800,000	0,036	-0,091
-369,000	-200,000	0,016	-0,056
-367,985	-155,428	0,037	-0,002
-366,971	-56,883	0,031	-0,010
-365,956	-200,000	-0,009	0,069
-364,942	31,504	0,165	0,103
-363,927	-53,327	0,120	0,040
-362,912	-200,000	-0,025	0,103
-361,898	-90,802	-0,079	0,016
-360,883	-69,684	0,059	0,016
-359,869	-165,021	0,081	-0,003
-358,854	-200,000	-0,009	-0,088
-357,839	-104,877	0,164	0,027
-356,825	-17,727	0,131	0,059
-355,810	218,265	0,030	0,035
-354,796	123,146	-0,056	-0,051
-353,781	-117,975	0,038	-0,005
-352,766	800,000	-0,032	-0,068
-351,752	-200,000	-0,010	0,034
-350,737	603,216	0,045	0,081
-349,723	-14,052	-0,141	-0,066
-348,708	-136,693	0,065	-0,005
-347,693	368,319	-0,040	-0,059
-346,679	111,189	0,119	-0,104
-345,664	-160,735	-0,116	0,004
-344,650	-0,116	0,056	0,029
-343,635	740,882	0,061	-0,119
-342,620	16,408	-0,045	0,026
-341,606	120,182	-0,096	0,087
-340,591	-0,575	-0,034	-0,017
-339,577	205,286	-0,051	-0,058
-338,562	-95,507	0,132	-0,025
-337,548	-200,000	0,017	-0,065
-336,533	32,632	-0,062	-0,039
-335,518	-200,000	0,024	-0,089
-334,504	745,764	-0,017	-0,032
-333,489	800,000	-0,041	0,088
-332,475	-109,378	-0,116	0,018
-331,460	-200,000	0,007	-0,042
-330,445	-94,790	0,064	0,012
-329,431	-132,389	0,104	0,010
-328,416	800,000	-0,038	0,093
-327,402	-9,216	0,072	-0,035
-326,387	-79,785	-0,080	-0,019
-325,372	445,132	-0,019	-0,030
-324,358	86,210	-0,008	0,007
-323,343	354,303	-0,025	-0,037
-322,329	-200,000	0,001	0,058
-321,314	38,288	0,114	-0,073
-320,299	-200,000	0,036	0,000
-319,285	564,385	-0,020	-0,036
-318,270	800,000	-0,003	0,010
-317,256	-70,107	0,026	-0,007
-316,241	-200,000	0,000	-0,068
-315,226	194,770	-0,018	0,020
-314,212	-200,000	0,004	0,086
-313,197	-126,538	-0,080	0,008
-312,183	800,000	-0,031	-0,092
-311,168	-128,885	-0,120	0,012
-310,153	-116,853	0,071	-0,009
-309,139	66,140	-0,073	-0,053
-308,124	332,523	-0,019	-0,026
-307,110	800,000	-0,026	-0,073
-306,095	659,975	0,025	-0,046
-305,080	-86,511	-0,086	0,019
-304,066	209,700	0,025	0,028
-303,051	-200,000	-0,017	0,114
-302,037	37,182	0,098	0,063
-301,022	-129,762	-0,039	-0,004
-300,008	510,070	-0,043	0,073
-298,993	189,883	0,048	0,052
-297,978	294,660	-0,066	0,088
-296,964	-200,000	0,013	0,135
-295,949	-24,854	0,028	-0,012
-294,935	800,000	0,054	-0,160
-293,920	311,982	0,040	0,054
-292,905	800,000	-0,011	-0,022
-291,891	181,356	-0,191	0,203
-290,876	-43,005	-0,024	-0,009
-289,862	209,215	-0,077	0,087
-288,847	34,054	-0,040	-0,025
-287,832	-200,000	-0,004	-0,024
-286,818	800,000	0,033	0,077
-285,803	20,219	0,149	0,087
-284,789	800,000	-0,026	-0,060
-283,774	-78,299	0,151	0,037
-282,759	800,000	-0,055	-0,126
-281,745	233,501	-0,074	-0,088
-280,730	-39,509	-0,160	-0,060
-279,716	412,928	0,024	-0,038
-278,701	-129,393	0,160	-0,016
-277,686	-127,414	-0,085	-0,009
-276,672	-200,000	0,018	0,095
-275,657	188,236	-0,017	-0,019
-274,643	397,067	0,087	-0,132
-273,628	472,350	-0,046	0,075
-272,613	-200,000	-0,017	-0,071
-271,599	-200,000	-0,006	-0,180
-270,584	-70,837	0,052	0,014
-269,570	352,741	0,078	0,112
-268,555	172,562	-0,109	-0,114
-267,540	41,384	-0,089	-0,058
-266,526	24,102	0,115	-0,069
-265,511	-46,883	0,065	-0,023
-264,497	52,453	0,143	0,098
-263,482	37,228	0,056	0,036
-262,467	83,487	-0,040	-0,031
-261,453	523,529	0,038	0,065
-260,438	-192,587	-0,123	0,001
-259,424	800,000	-0,014	-0,036
-258,409	343,691	0,047	0,067
-257,395	-8,068	-0,030	0,015
-256,380	-6,563	0,098	0,048
-255,365	-49,053	0,028	0,010
-254,351	135,651	-0,070	-0,066
-253,336	88,920	-0,072	-0,058
-252,322	800,000	-0,005	0,013
-251,307	-200,000	-0,010	0,066
-250,292	138,030	-0,063	-0,059
-249,278	147,249	-0,046	-0,044
-248,263	16,893	-0,066	-0,038
-247,249	800,000	0,023	0,070
-246,234	-200,000	0,006	0,073
-245,219	-70,396	0,053	0,014
-244,205	-200,000	-0,001	-0,149
-243,190	4,971	-0,145	-0,077
-242,176	43,279	0,136	-0,090
-241,161	41,809	-0,037	0,024
-240,146	206,794	-0,013	-0,014
-239,132	-83,772	0,058	-0,013
-238,117	-72,677	-0,107	-0,028
-237,103	358,319	-0,050	-0,072
-236,088	-14,174	-0,067	-0,031
-235,073	-200,000	-0,010	-0,083
-234,059	-166,780	0,021	-0,001
-233,044	-200,000	-0,010	0,103
-232,030	-90,116	-0,032	-0,007
-231,015	349,026	-0,011	0,016
-230,000	87,917	-0,028	0,022
-228,986	335,313	-0,082	0,115
-227,971	-200,000	-0,001	0,055
-226,957	800,000	0,030	0,063
-225,942	-9,826	0,060	0,029
-224,927	430,434	-0,066	-0,104
-223,913	-89,087	0,053	0,011
-222,898	-200,000	-0,031	-0,173
-221,884	-200,000	-0,008	-0,072
-220,869	-200,000	-0,009	-0,061
-219,855	-85,296	0,068	-0,015
-218,840	-200,000	0,005	-0,044
-217,825	-200,000	0,037	-0,152
-216,811	-200,000	0,014	-0,089
-215,796	379,615	-0,057	-0,085
-214,782	187,407	-0,031	-0,034
-213,767	-77,918	0,070	-0,017
-212,752	80,183	0,049	0,038
-211,738	-200,000	0,009	0,108
-210,723	800,000	-0,019	0,039
-209,709	36,536	-0,104	-0,066
-208,694	800,000	0,045	0,119
-207,679	-200,000	-0,007	-0,082
-206,665	-27,741	-0,041	-0,017
-205,650	347,881	0,102	-0,145
-204,636	-132,370	0,107	0,010
-203,621	-200,000	-0,023	0,123
-202,606	62,267	0,085	-0,061
-201,592	1,992	0,067	0,035
-200,577	77,684	0,110	-0,084
-199,563	29,461	-0,088	0,054
-198,548	-200,000	0,034	0,129
-197,533	800,000	0,034	0,086
-196,519	-51,982	0,060	-0,020
-195,504	-41,826	-0,112	0,041
-194,490	109,185	-0,142	-0,122
-193,475	407,910	0,108	-0,165
-192,460	-200,000	0,012	0,045
-191,446	126,515	0,106	0,097
-190,431	-79,499	-0,170	-0,041
-189,417	72,082	0,111	0,083
-188,402	800,000	-0,060	0,139
-187,387	181,973	-0,075	-0,080
-186,373	76,756	-0,074	-0,056
-185,358	-200,000	0,025	-0,124
-184,344	-115,618	-0,035	0,005
-183,329	83,312	0,086	0,067
-182,315	45,015	-0,105	0,069
-181,300	148,496	0,054	0,053
-180,285	-11,841	-0,134	-0,063
-179,271	-200,000	0,018	-0,063
-178,256	-200,000	-0,015	-0,096
-177,242	-200,000	0,016	-0,064
-176,227	-81,575	-0,038	-0,009
-175,212	-200,000	-0,003	-0,027
-174,198	0,403	-0,136	-0,069
-173,183	800,000	0,035	0,078
-172,169	-24,141	-0,060	0,026
-171,154	497,948	-0,086	-0,144
-170,139	-0,954	0,170	0,086
-169,125	57,361	0,047	0,033
-168,110	-67,635	0,183	-0,051
-167,096	97,991	-0,150	0,124
-166,081	-200,000	-0,012	0,079
-165,066	-185,715	0,171	-0,002
-164,052	85,317	-0,197	-0,156
-163,037	143,610	0,085	0,082
-162,023	-164,130	0,055	-0,002
-161,008	-200,000	-0,010	-0,219
-159,993	444,019	0,035	0,055
-158,979	195,976	0,100	-0,110
-157,964	-200,000	0,000	-0,147
-156,950	800,000	-0,082	0,165
-155,935	-122,033	-0,030	0,004
-154,920	800,000	0,057	-0,177
-153,906	9,284	0,016	-0,009
-152,891	147,987	-0,041	0,040
-151,877	95,247	-0,080	0,065
-150,862	800,000	-0,007	0,018
-149,847	786,146	0,065	0,130
-148,833	-136,164	0,115	0,010
-147,818	800,000	0,018	0,053
-146,804	-10,948	-0,089	0,042
-145,789	-55,302	0,101	-0,032
-144,775	-47,439	-0,178	-0,062
-143,760	-200,000	-0,007	-0,117
-142,745	-200,000	-0,011	0,137
-141,731	-88,538	0,145	-0,031
-140,716	-178,901	0,072	-0,001
-139,702	41,052	0,090	-0,058
-138,687	-200,000	0,011	-0,182
-137,672	-37,836	0,035	0,013
-136,658	-82,872	-0,079	-0,018
-135,643	144,312	0,024	0,023
-134,629	-200,000	0,011	-0,065
-133,614	800,000	0,030	-0,074
-132,599	-200,000	-0,018	0,112
-131,585	-64,448	0,081	-0,023
-130,570	30,310	-0,190	-0,116
-129,556	31,325	0,007	0,004
-128,541	-200,000	0,013	-0,098
-127,526	-200,000	0,008	-0,098
-126,512	-200,000	-0,013	0,052
-125,497	79,445	0,023	0,017
-124,483	-200,000	-0,006	0,032
-123,468	-45,946	-0,181	-0,064
-122,453	-200,000	-0,007	-0,076
-121,439	-115,814	-0,055	-0,007
-120,424	119,782	0,028	0,025
-119,410	-154,192	-0,051	0,002
-118,395	-134,380	0,070	-0,006
-117,380	800,000	0,004	-0,012
-116,366	491,053	0,036	0,060
-115,351	44,891	0,023	0,015
-114,337	259,471	0,057	-0,070
-113,322	7,984	-0,079	-0,042
-112,307	205,685	0,009	0,011
-111,293	-15,468	0,033	-0,015
-110,278	-80,658	0,065	0,015
-109,264	-74,814	0,073	0,019
-108,249	180,760	-0,021	0,022
-107,234	-200,000	-0,020	-0,113
-106,220	800,000	-0,047	-0,136
-105,205	-98,291	0,137	-0,025
-104,191	-200,000	-0,020	0,140
-103,176	10,832	-0,070	-0,038
-102,162	800,000	0,065	-0,131
-101,147	37,813	-0,062	0,039
-100,132	800,000	0,017	0,037
-99,118	-17,380	-0,037	0,017
-98,103	-154,598	0,064	-0,003
-97,089	800,000	0,021	-0,051
-96,074	165,652	-0,146	0,148
-95,059	-129,637	0,030	-0,003
-94,045	-117,478	-0,059	0,008
-93,030	17,817	-0,119	-0,068
-92,016	-144,760	-0,081	-0,005
-91,001	800,000	0,059	-0,119
-89,986	-79,291	-0,149	-0,036
-88,972	-200,000	0,021	0,210
-87,957	499,412	0,037	-0,061
-86,943	800,000	-0,055	-0,151
-85,928	-55,456	0,063	-0,020
-84,913	-200,000	-0,001	-0,090
-83,899	-200,000	0,030	-0,097
-82,884	460,463	-0,087	-0,139
-81,870	-200,000	-0,041	-0,158
-80,855	800,000	-0,044	-0,090
-79,840	608,586	0,027	-0,048
-78,826	800,000	-0,051	-0,102
-77,811	-78,659	0,153	0,037
-76,797	-200,000	0,006	0,049
-75,782	-18,432	0,090	-0,040
-74,767	26,280	0,098	0,059
-73,753	77,928	0,114	0,087
-72,738	-200,000	-0,014	-0,053
-71,724	346,947	0,033	0,046
-70,709	800,000	0,025	0,074
-69,694	-171,146	0,062	-0,001
-68,680	-152,087	0,163	-0,008
-67,665	162,504	-0,052	-0,053
-66,651	75,508	-0,023	-0,017
-65,636	2,321	0,044	0,023
-64,622	69,312	0,046	-0,034
-63,607	448,389	0,111	-0,175
-62,592	-200,000	-0,008	-0,036
-61,578	-124,932	0,053	-0,006
-60,563	150,995	-0,060	0,058
-59,549	60,870	-0,101	0,072
-58,534	6,626	-2,283	-1,212
-57,519	-200,000	-0,037	-0,606
-56,505	-200,000	-1,474	-5,197
-55,490	169,505	0,832	0,852
-54,476	800,000	5,425	12,138
-53,461	-200,000	19,113	321,228
-52,446	800,000	742,397	2325,067
-51,432	547,805	1654,941	2848,050
-50,417	109,622	1637,226	1404,593
-49,403	73,198	1287,557	962,998
-48,388	29,350	1029,262	624,650
-47,373	19,577	992,518	570,039
-46,359	16,854	979,980	553,874
-45,344	13,403	976,561	540,596
-44,330	13,762	974,827	540,792
-43,315	13,076	972,986	537,504
-42,300	13,024	972,070	536,807
-41,286	13,022	971,044	536,213
-40,271	13,013	970,118	535,652
-39,257	13,045	969,172	535,212
-38,242	13,084	968,245	534,804
-37,227	13,038	967,549	534,249
-36,213	13,066	966,408	533,691
-35,198	12,942	965,873	532,971
-34,184	13,029	965,013	532,755
-33,169	12,970	964,318	532,159
-32,154	13,070	962,995	531,732
-31,140	12,961	962,474	531,072
-30,125	13,090	961,358	530,852
-29,111	13,077	960,440	530,282
-28,096	13,109	959,829	530,028
-27,082	13,029	959,311	529,460
-26,067	13,108	958,390	529,188
-25,052	12,986	957,814	528,453
-24,038	13,020	957,193	528,200
-23,023	12,998	956,541	527,750
-22,009	13,062	955,876	527,568
-20,994	13,064	955,193	527,174
-19,979	13,022	954,770	526,786
-18,965	12,970	954,218	526,293
-17,950	13,038	953,528	526,110
-16,936	13,012	952,874	525,646
-15,921	13,025	952,033	525,203
-14,906	12,982	951,161	524,563
-13,892	12,984	950,662	524,271
-12,877	12,933	950,064	523,761
-11,863	12,871	949,583	523,277
-10,848	12,947	948,990	523,170
-9,833	13,042	948,360	523,104
-8,819	13,005	947,712	522,609
-7,804	12,918	947,131	521,991
-6,790	12,914	946,635	521,686
-5,775	12,960	946,075	521,501
-4,760	12,993	945,292	521,156
-3,746	12,928	944,781	520,645
-2,731	12,739	944,079	519,636
-1,717	12,783	943,374	519,370
-0,702	12,786	942,688	518,981
0,313	12,641	942,035	518,945
1,327	16,092	939,928	528,641
2,342	25,371	790,163	468,859
3,356	21,426	445,070	258,220
4,371	-7,948	298,648	143,604
5,386	-11,905	280,487	131,069
6,400	-12,974	274,589	127,298
7,415	-12,987	272,527	126,318
8,429	-13,408	270,992	125,206
9,444	-13,532	270,226	124,726
10,459	-13,312	269,340	124,508
11,473	-13,428	268,848	124,164
12,488	-13,599	268,413	123,795
13,502	-13,640	267,752	123,442
14,517	-13,373	267,194	123,416
15,531	-13,323	266,759	123,250
16,546	-13,434	266,608	123,069
17,561	-13,403	266,080	122,842
18,575	-13,353	265,772	122,734
19,590	-13,608	265,402	122,322
20,604	-13,285	265,093	122,460
21,619	-13,366	264,720	122,204
22,634	-13,446	264,427	121,985
23,648	-13,390	264,077	121,863
24,663	-13,510	264,061	121,737
25,677	-13,403	263,714	121,663
26,692	-13,422	263,347	121,465
27,707	-13,649	263,199	121,183
28,721	-13,587	262,752	121,022
29,736	-13,486	262,525	120,996
30,750	-13,609	262,208	120,730
31,765	-13,707	262,042	120,555
32,780	-13,722	261,775	120,409
33,794	-13,686	261,452	120,281
34,809	-13,561	261,333	120,326
35,823	-13,477	260,955	120,217
36,838	-13,871	260,882	119,822
37,853	-13,529	260,420	119,903
38,867	-13,490	260,264	119,855
39,882	-13,432	259,928	119,741
40,896	-13,492	259,744	119,593
41,911	-13,608	259,428	119,334
42,926	-13,569	259,368	119,329
43,940	-13,635	258,976	119,080
44,955	-13,633	258,919	119,045
45,969	-13,697	258,585	118,825
46,984	-14,029	258,368	118,422
47,999	-14,113	258,071	118,202
49,013	-14,342	257,828	117,879
50,028	-14,261	257,457	117,770
51,042	-14,555	257,339	117,447
52,057	-14,464	256,865	117,300
53,071	-14,449	256,898	117,318
54,086	-14,460	256,625	117,173
55,101	-14,262	256,556	117,304
56,115	-14,055	256,582	117,487
57,130	-13,513	256,257	117,800
58,144	-13,246	256,129	117,963
59,159	-13,494	255,905	117,634
60,174	-13,315	255,647	117,660
61,188	-13,354	255,361	117,484
62,203	-13,537	255,315	117,293
63,217	-13,338	254,952	117,289
64,232	-13,556	254,810	117,025
65,247	-13,364	254,552	117,062
66,261	-13,404	254,362	116,930
67,276	-13,615	253,994	116,567
68,290	-13,725	253,770	116,359
69,305	-13,978	253,564	116,037
70,320	-14,029	253,417	115,915
71,334	-13,867	253,326	116,002
72,349	-13,364	253,129	116,335
73,363	-13,251	252,988	116,357
74,378	-13,274	252,683	116,186
75,393	-13,569	252,521	115,848
76,407	-13,538	252,356	115,789
77,422	-13,483	252,089	115,703
78,436	-13,388	251,715	115,602
79,451	-13,382	251,567	115,529
80,466	-13,717	251,408	115,160
81,480	-13,679	251,126	115,053
82,495	-13,783	250,971	114,883
83,509	-13,671	250,710	114,848
84,524	-13,841	250,501	114,598
85,539	-14,098	250,253	114,256
86,553	-13,916	250,133	114,345
87,568	-13,778	249,938	114,363
88,582	-13,815	249,775	114,247
89,597	-13,879	249,410	114,016
90,611	-13,772	249,391	114,088
91,626	-13,591	249,222	114,153
92,641	-13,628	248,991	114,006
93,655	-13,555	248,687	113,918
94,670	-13,851	248,574	113,607
95,684	-13,484	248,263	113,763
96,699	-13,522	248,118	113,654
97,714	-13,707	247,970	113,421
98,728	-13,824	247,821	113,244
99,743	-13,926	247,465	112,986
100,757	-14,127	247,325	112,744
101,772	-13,842	247,126	112,882
102,787	-13,615	246,823	112,923
103,801	-13,603	246,865	112,942
104,816	-13,506	246,602	112,893
105,830	-13,550	246,598	112,844
106,845	-13,415	246,444	112,877
107,860	-13,545	246,091	112,597
108,874	-13,628	245,870	112,416
109,889	-13,565	245,670	112,367
110,903	-13,635	245,393	112,172
111,918	-13,783	245,377	112,032
112,933	-13,682	245,178	112,015
113,947	-13,651	245,003	111,951
114,962	-13,464	244,664	111,941
115,976	-13,574	244,774	111,890
116,991	-13,676	244,383	111,616
118,006	-13,612	244,425	111,679
119,020	-13,673	244,300	111,562
120,035	-13,441	243,940	111,578
121,049	-13,392	243,819	111,554
122,064	-13,202	243,534	111,570
123,079	-13,704	243,457	111,111
124,093	-13,639	243,266	111,067
125,108	-13,968	242,948	110,642
126,122	-14,007	242,650	110,464
127,137	-13,926	242,472	110,440
128,151	-13,956	242,288	110,322
129,166	-14,067	242,342	110,246
130,181	-13,813	241,920	110,251
131,195	-13,889	241,770	110,112
132,210	-13,873	241,584	110,030
133,224	-13,564	241,348	110,164
134,239	-13,791	241,428	110,006
135,254	-13,635	241,176	110,008
136,268	-13,829	240,889	109,710
137,283	-14,052	240,586	109,381
138,297	-14,259	240,478	109,154
139,312	-14,168	240,351	109,160
140,327	-13,858	240,319	109,388
141,341	-13,238	240,228	109,840
142,356	-13,255	239,952	109,690
143,370	-13,457	239,879	109,483
144,385	-12,994	239,598	109,720
145,400	-13,041	239,551	109,650
146,414	-13,234	239,245	109,345
147,429	-13,352	239,150	109,196
148,443	-13,293	238,947	109,141
149,458	-13,443	238,776	108,932
150,473	-13,393	238,585	108,876
151,487	-13,437	238,436	108,763
152,502	-13,284	238,318	108,823
153,516	-13,093	238,101	108,867
154,531	-13,232	237,967	108,685
155,546	-13,391	237,681	108,417
156,560	-13,377	237,469	108,322
157,575	-13,504	237,342	108,152
158,589	-13,267	237,209	108,271
159,604	-13,306	237,107	108,184
160,619	-13,088	236,940	108,273
161,633	-13,167	236,820	108,145
162,648	-13,228	236,756	108,057
163,662	-13,250	236,343	107,842
164,677	-13,489	236,250	107,600
165,692	-13,366	236,036	107,591
166,706	-13,150	236,082	107,774
167,721	-13,084	235,807	107,691
168,735	-13,182	235,640	107,527
169,750	-13,231	235,535	107,431
170,764	-13,296	235,397	107,307
171,779	-13,313	235,203	107,195
172,794	-13,291	235,145	107,177
173,808	-13,461	234,734	106,845
174,823	-13,712	234,264	106,424
175,837	-14,091	234,294	106,129
176,852	-13,600	234,293	106,506
177,867	-13,379	234,181	106,621
178,881	-13,180	233,867	106,625
179,896	-13,030	233,781	106,694
180,910	-13,157	233,779	106,584
181,925	-13,138	233,651	106,531
182,940	-13,025	233,501	106,542
183,954	-13,017	233,164	106,384
184,969	-12,968	233,147	106,406
185,983	-13,022	232,949	106,264
186,998	-12,945	232,717	106,208
188,013	-13,002	232,682	106,138
189,027	-13,111	232,608	106,010
190,042	-13,111	232,463	105,935
191,056	-13,140	232,186	105,776
192,071	-12,949	231,966	105,816
193,086	-12,948	231,698	105,685
194,100	-13,172	231,671	105,488
195,115	-13,448	231,258	105,076
196,129	-13,263	231,419	105,284
197,144	-7,544	233,303	110,613
198,159	-1,373	235,070	116,299
199,173	2,343	236,275	119,817
200,188	3,141	236,400	120,499
201,202	2,894	236,104	120,143
202,217	2,983	236,068	120,183
203,232	3,498	235,877	120,481
204,246	3,512	235,675	120,377
205,261	3,348	235,488	120,143
206,275	3,529	235,439	120,250
207,290	3,517	235,359	120,188
208,304	3,577	235,188	120,137
209,319	3,413	234,980	119,892
210,334	3,314	234,825	119,725
211,348	3,226	234,583	119,522
212,363	2,895	234,205	119,061
213,377	2,651	234,210	118,862
214,392	2,693	233,958	118,756
215,407	2,788	233,906	118,794
216,421	3,077	233,671	118,888
217,436	2,795	233,551	118,598
218,450	2,374	233,206	118,085
219,465	2,278	233,099	117,946
220,480	2,601	232,992	118,131
221,494	2,645	232,880	118,098
222,509	2,753	232,845	118,154
223,523	2,724	232,647	118,020
224,538	2,841	232,346	117,947
225,553	2,750	232,344	117,866
226,567	2,872	232,204	117,878
227,582	3,312	231,993	118,100
228,596	3,114	231,998	117,939
229,611	2,809	231,852	117,619
230,626	2,396	231,549	117,137
231,640	2,426	231,219	116,983
232,655	2,941	231,199	117,358
233,669	3,045	231,387	117,523
234,684	3,309	231,085	117,562
235,699	2,964	230,926	117,206
236,713	2,779	230,739	116,959
237,728	2,811	230,418	116,810
238,742	2,674	230,285	116,627
239,757	2,857	230,213	116,720
240,772	2,922	229,922	116,612
241,786	2,765	229,754	116,396
242,801	3,031	229,695	116,560
243,815	3,034	229,785	116,597
244,830	3,155	229,610	116,590
245,844	2,965	229,253	116,254
246,859	2,732	229,257	116,068
247,874	2,977	229,166	116,198
248,888	3,077	228,866	116,111
249,903	2,867	228,751	115,883
250,917	2,733	228,503	115,646
251,932	3,030	228,335	115,775
252,947	2,473	228,106	115,227
253,961	2,663	228,067	115,341
254,976	2,548	227,925	115,172
255,990	2,857	227,932	115,399
257,005	3,024	227,642	115,368
258,020	3,006	227,528	115,286
259,034	3,216	227,293	115,315
260,049	3,187	227,185	115,228
261,063	3,021	227,231	115,116
262,078	3,249	226,988	115,155
263,093	3,150	226,828	114,989
264,107	3,188	226,717	114,951
265,122	2,858	226,581	114,624
266,136	3,346	226,354	114,865
267,151	3,246	226,251	114,728
268,166	2,827	225,967	114,259
269,180	2,564	225,791	113,963
270,195	2,777	225,643	114,037
271,209	2,758	225,572	113,977
272,224	2,433	225,604	113,741
273,239	2,869	225,299	113,901
274,253	2,796	225,263	113,819
275,268	2,291	225,008	113,304
276,282	2,413	224,791	113,275
277,297	2,354	224,662	113,156
278,312	2,707	224,616	113,386
279,326	2,796	224,531	113,399
280,341	2,789	224,308	113,271
281,355	2,877	224,317	113,330
282,370	2,885	224,029	113,181
283,384	2,462	223,853	112,768
284,399	2,503	223,639	112,681
285,414	2,380	223,585	112,553
286,428	2,823	223,627	112,891
287,443	2,863	223,311	112,751
288,457	2,852	223,198	112,676
289,472	2,669	222,881	112,371
290,487	2,533	222,611	112,125
291,501	2,207	222,492	111,815
292,516	2,509	222,505	112,034
293,530	2,398	222,308	111,843
294,545	2,445	222,268	111,847
295,560	2,696	222,078	111,927
296,574	2,950	222,005	112,066
297,589	2,567	221,878	111,711
298,603	2,720	221,796	111,772
299,618	2,634	221,612	111,606
300,633	2,751	221,579	111,665
301,647	2,975	221,510	111,785
302,662	2,984	221,211	111,630
303,676	2,995	221,069	111,557
304,691	3,081	220,939	111,544
305,706	2,848	220,878	111,333
306,720	3,067	220,653	111,369
307,735	2,807	220,549	111,118
308,749	2,714	220,266	110,898
309,764	2,835	220,245	110,965
310,779	3,133	220,034	111,065
311,793	3,112	219,903	110,975
312,808	2,914	219,704	110,720
313,822	2,890	219,630	110,655
314,837	2,771	219,477	110,482
315,852	2,599	219,426	110,322
316,866	2,775	219,264	110,359
317,881	2,976	219,054	110,388
318,895	2,823	219,059	110,270
319,910	2,703	218,601	109,943
320,925	2,401	218,613	109,722
321,939	2,277	218,223	109,427
322,954	2,356	218,193	109,458
323,968	2,676	218,237	109,702
324,983	3,184	218,104	109,990
325,997	3,041	218,110	109,881
327,012	2,859	217,841	109,605
328,027	2,877	217,720	109,547
329,041	3,134	217,679	109,701
330,056	3,203	217,592	109,696
331,070	2,830	217,265	109,255
332,085	2,714	217,163	109,111
333,100	2,876	216,923	109,097
334,114	2,665	216,767	108,857
335,129	2,627	216,493	108,684
336,143	2,344	216,551	108,501
337,158	3,080	216,573	109,027
338,173	3,088	216,387	108,929
339,187	2,653	216,249	108,541
340,202	2,726	215,995	108,455
341,216	2,598	215,717	108,215
342,231	2,947	215,629	108,409
343,246	2,887	215,541	108,313
344,260	2,921	215,498	108,306
345,275	3,050	215,399	108,337
346,289	2,877	215,268	108,140
347,304	2,808	215,021	107,957
348,319	2,747	214,924	107,856
349,333	2,680	214,701	107,686
350,348	3,016	214,594	107,860
351,362	3,152	214,474	107,886
352,377	2,888	214,407	107,657
353,392	2,895	214,212	107,554
354,406	2,908	214,172	107,534
355,421	197,125	1314,015	1392,109
356,435	157,737	1447,964	1392,041
