DTS Sentinel unit serial number:	SN410029Multiplexer serial number:	ORYXHardware model number:	OX2-SRSoftware version number:	ORYX F/W v4,00 Oryx Data Collector v3.7.2.0data status	okinstallation	B6 Nyhavnadifferential loss correction	single-endedforward channel	channel 2reverse channel	N/Adate	2023/12/10time	17:55:08forward acquisition time	300,00reverse acquisition time	0,00gamma	499,1914k internal	0,3122k external	0,3122temperature offset calibration	1,0000default loss term (dB/km)	0,3820temperature slope calibration	1,0000multiplexer offset coefficient	1,0000multiplexer slope coefficient	1,0000fibre end	0,00T internal ref (°C)	22,38T ext. ref 1 (°C)	5,98T ext. ref 2 (°C)	5,99length (m)	temperature (°C)	Stokes	anti-Stokes-744,400	599,175	0,062	-0,116
-743,385	216,383	-0,170	0,202
-742,371	800,000	0,030	0,087
-741,356	249,043	-0,100	0,127
-740,342	-102,914	0,044	-0,008
-739,327	-137,534	-0,300	0,025
-738,312	-124,623	0,103	0,012
-737,298	428,619	-0,087	0,141
-736,283	210,651	0,039	-0,046
-735,269	-158,840	-0,266	0,011
-734,254	8,539	0,099	-0,056
-733,239	-20,585	-0,441	-0,201
-732,225	-107,302	0,209	-0,034
-731,210	-200,000	0,010	-0,080
-730,196	-200,000	0,008	-0,119
-729,181	27,520	-0,156	-0,098
-728,167	-200,000	0,021	0,130
-727,152	-149,017	0,129	-0,008
-726,137	416,525	0,050	0,080
-725,123	-200,000	-0,029	-0,141
-724,108	-56,569	-0,019	-0,006
-723,094	-200,000	-0,033	0,117
-722,079	582,642	-0,089	-0,163
-721,064	-129,446	-0,048	0,005
-720,050	197,207	0,044	-0,050
-719,035	800,000	0,025	-0,066
-718,021	553,255	-0,013	-0,024
-717,006	800,000	-0,071	-0,152
-715,991	14,504	-0,085	-0,049
-714,977	-200,000	0,013	-0,049
-713,962	63,607	0,096	-0,072
-712,948	208,308	-0,064	-0,074
-711,933	-18,557	-0,103	0,048
-710,918	416,366	-0,055	-0,088
-709,904	-200,000	-0,006	-0,044
-708,889	-200,000	-0,007	0,071
-707,875	234,082	-0,008	-0,009
-706,860	800,000	-0,053	-0,168
-705,845	-95,899	-0,070	0,014
-704,831	-52,799	0,055	-0,019
-703,816	-200,000	-0,023	-0,076
-702,802	-117,766	-0,146	-0,019
-701,787	800,000	-0,004	-0,010
-700,772	-78,295	-0,082	-0,021
-699,758	239,635	-0,080	-0,099
-698,743	-200,000	-0,012	0,098
-697,729	-72,684	0,098	0,027
-696,714	178,292	-0,038	-0,042
-695,699	465,963	-0,015	-0,025
-694,685	-55,421	-0,056	-0,018
-693,670	274,837	-0,049	-0,065
-692,656	800,000	-0,058	-0,183
-691,641	-200,000	0,044	-0,187
-690,627	156,162	-0,128	-0,131
-689,612	562,021	-0,038	-0,069
-688,597	-62,813	-0,180	0,055
-687,583	65,071	-0,041	0,031
-686,568	800,000	-0,055	-0,118
-685,554	88,196	-0,055	0,046
-684,539	194,266	0,117	0,132
-683,524	143,586	-0,034	0,034
-682,510	-200,000	0,018	0,075
-681,495	181,067	-0,058	-0,063
-680,481	159,505	-0,048	-0,050
-679,466	515,812	0,097	-0,169
-678,451	12,179	-0,086	0,049
-677,437	61,339	0,015	-0,011
-676,422	800,000	-0,018	-0,041
-675,408	302,564	-0,046	-0,063
-674,393	-7,854	-0,119	-0,059
-673,378	449,180	-0,051	-0,084
-672,364	1,469	-0,076	-0,040
-671,349	213,999	-0,119	-0,140
-670,335	-200,000	0,001	-0,029
-669,320	-100,840	0,103	-0,019
-668,305	472,180	-0,088	-0,148
-667,291	145,560	-0,081	-0,081
-666,276	-200,000	-0,000	-0,157
-665,262	58,375	0,078	0,057
-664,247	800,000	-0,022	0,054
-663,232	-136,850	0,040	0,003
-662,218	50,516	0,096	0,068
-661,203	311,217	0,065	-0,091
-660,189	40,601	0,147	0,098
-659,174	-92,827	-0,120	0,025
-658,159	800,000	0,034	0,094
-657,145	-15,368	-0,163	0,077
-656,130	-200,000	-0,023	-0,132
-655,116	-13,089	0,080	0,038
-654,101	-28,581	0,123	0,052
-653,086	69,132	-0,065	0,049
-652,072	-86,194	0,066	-0,015
-651,057	-200,000	-0,005	-0,050
-650,043	-91,983	-0,134	0,028
-649,028	229,787	-0,062	-0,076
-648,014	-200,000	-0,010	0,071
-646,999	-200,000	-0,005	0,091
-645,984	-200,000	-0,008	-0,069
-644,970	740,554	-0,077	0,155
-643,955	-200,000	-0,010	0,055
-642,941	634,647	-0,025	-0,047
-641,926	800,000	0,043	-0,121
-640,911	-200,000	-0,014	0,069
-639,897	573,966	-0,055	0,099
-638,882	800,000	0,031	-0,091
-637,868	669,518	-0,057	0,110
-636,853	-154,095	0,088	0,004
-635,838	-9,470	0,062	-0,031
-634,824	800,000	0,047	-0,110
-633,809	-76,728	0,090	-0,023
-632,795	-200,000	-0,011	0,109
-631,780	49,393	0,044	-0,030
-630,765	752,088	0,037	0,075
-629,751	347,985	0,016	-0,024
-628,736	-200,000	0,003	-0,161
-627,722	644,091	-0,092	0,175
-626,707	437,222	0,096	-0,156
-625,692	746,194	-0,031	0,062
-624,678	34,296	-0,080	-0,052
-623,663	-54,284	0,208	-0,070
-622,649	-118,345	-0,093	0,012
-621,634	-103,896	-0,113	0,019
-620,619	-45,525	-0,134	0,049
-619,605	491,050	0,095	0,162
-618,590	-200,000	-0,008	0,046
-617,576	-200,000	-0,019	-0,075
-616,561	-24,937	-0,103	0,045
-615,546	-152,150	-0,181	0,010
-614,532	171,258	0,031	-0,033
-613,517	-200,000	0,013	0,108
-612,503	118,937	0,050	-0,046
-611,488	-200,000	-0,009	0,039
-610,474	-162,021	-0,105	-0,004
-609,459	-200,000	-0,016	-0,080
-608,444	-120,495	-0,132	0,016
-607,430	286,924	0,033	0,044
-606,415	507,381	0,036	-0,063
-605,401	-200,000	0,012	0,105
-604,386	-200,000	0,029	-0,131
-603,371	57,933	0,085	-0,062
-602,357	306,210	0,063	-0,087
-601,342	212,730	-0,047	-0,055
-600,328	135,899	-0,060	-0,058
-599,313	-109,186	-0,051	-0,008
-598,298	221,455	0,045	0,054
-597,284	-82,173	0,026	0,006
-596,269	-200,000	-0,000	0,058
-595,255	-43,744	-0,054	-0,020
-594,240	29,946	-0,117	0,074
-593,225	-200,000	-0,026	-0,097
-592,211	14,648	0,034	-0,019
-591,196	-19,814	-0,050	-0,023
-590,182	240,951	-0,094	0,116
-589,167	3,269	-0,093	0,050
-588,152	214,090	-0,035	0,041
-587,138	533,968	0,059	0,104
-586,123	9,319	-0,091	0,051
-585,109	151,144	-0,062	-0,063
-584,094	-200,000	0,005	-0,050
-583,079	800,000	-0,028	0,083
-582,065	-200,000	0,004	0,083
-581,050	-200,000	-0,029	-0,113
-580,036	-157,442	-0,134	0,006
-579,021	800,000	-0,055	-0,126
-578,006	-93,397	0,109	-0,022
-576,992	800,000	-0,019	0,059
-575,977	591,989	0,081	-0,148
-574,963	74,887	0,121	0,094
-573,948	-200,000	0,002	-0,109
-572,934	-200,000	-0,005	-0,044
-571,919	266,635	0,008	-0,010
-570,904	-49,960	0,201	-0,070
-569,890	360,358	-0,061	-0,091
-568,875	51,891	0,165	0,116
-567,861	96,688	0,103	-0,087
-566,846	-55,410	0,159	0,053
-565,831	113,020	-0,044	-0,039
-564,817	-78,429	0,119	0,030
-563,802	-200,000	-0,037	0,186
-562,788	800,000	0,021	-0,060
-561,773	-97,860	0,050	-0,009
-560,758	53,034	0,094	-0,066
-559,744	-200,000	0,022	-0,166
-558,729	-61,747	-0,103	0,032
-557,715	203,141	-0,034	-0,039
-556,700	-200,000	0,001	0,006
-555,685	-72,402	-0,138	-0,038
-554,671	28,575	0,136	-0,085
-553,656	670,242	0,020	-0,039
-552,642	-200,000	-0,032	0,123
-551,627	71,975	-0,092	0,070
-550,612	-120,126	0,048	-0,006
-549,598	-128,542	0,026	-0,003
-548,583	-180,716	0,053	-0,001
-547,569	109,013	0,071	-0,062
-546,554	-47,429	0,119	0,043
-545,539	153,573	0,143	0,145
-544,525	-200,000	-0,008	-0,068
-543,510	-200,000	0,001	-0,066
-542,496	-200,000	-0,033	-0,163
-541,481	-80,298	-0,049	0,012
-540,466	-200,000	0,024	-0,087
-539,452	-144,814	0,049	-0,003
-538,437	-120,969	0,078	-0,010
-537,423	-33,881	-0,111	0,045
-536,408	-40,261	-0,034	-0,013
-535,393	66,418	0,024	-0,018
-534,379	685,255	0,038	-0,074
-533,364	-200,000	-0,003	0,124
-532,350	353,596	0,072	0,106
-531,335	-200,000	0,008	0,071
-530,321	381,372	-0,095	-0,144
-529,306	-142,897	0,222	0,016
-528,291	800,000	0,058	-0,148
-527,277	116,798	-0,118	0,107
-526,262	31,232	-0,105	0,066
-525,248	394,125	0,044	-0,068
-524,233	-200,000	-0,016	0,071
-523,218	-49,202	-0,109	0,038
-522,204	-23,342	0,048	0,021
-521,189	800,000	-0,029	-0,085
-520,175	-95,087	-0,055	-0,011
-519,160	498,552	-0,100	-0,171
-518,145	-117,763	0,179	-0,024
-517,131	328,799	-0,042	0,060
-516,116	-108,774	0,035	0,005
-515,102	-21,388	-0,089	0,040
-514,087	-84,873	-0,040	-0,009
-513,072	55,099	-0,044	-0,031
-512,058	-112,160	-0,046	-0,007
-511,043	358,509	0,064	0,094
-510,029	382,700	-0,033	0,051
-509,014	-4,690	0,008	0,004
-507,999	-200,000	0,012	0,058
-506,985	348,222	-0,008	0,011
-505,970	-200,000	-0,010	0,143
-504,956	173,622	0,051	0,054
-503,941	-200,000	-0,019	0,076
-502,926	800,000	-0,022	0,072
-501,912	196,128	0,061	-0,069
-500,897	160,216	0,059	-0,061
-499,883	85,959	-0,033	-0,027
-498,868	248,050	-0,059	-0,074
-497,853	106,901	-0,049	0,043
-496,839	-200,000	0,009	0,104
-495,824	628,941	-0,010	0,019
-494,810	268,658	0,068	0,088
-493,795	47,606	0,111	0,076
-492,781	-4,183	-0,033	0,017
-491,766	210,311	0,062	-0,072
-490,751	200,327	-0,049	-0,055
-489,737	-55,575	-0,072	-0,024
-488,722	11,589	0,090	0,051
-487,708	268,348	0,058	0,075
-486,693	800,000	0,034	-0,085
-485,678	225,993	0,008	-0,009
-484,664	-200,000	0,016	0,126
-483,649	16,595	-0,086	-0,050
-482,635	-200,000	0,005	-0,042
-481,620	-200,000	0,005	0,159
-480,605	-147,830	-0,072	0,004
-479,591	24,863	-0,107	-0,065
-478,576	-200,000	0,048	-0,173
-477,562	162,855	0,057	-0,059
-476,547	100,784	-0,075	-0,064
-475,532	386,814	-0,041	0,062
-474,518	-133,844	-0,092	0,008
-473,503	71,156	0,039	0,029
-472,489	-8,878	0,050	-0,024
-471,474	-18,348	-0,140	0,064
-470,459	30,408	0,080	0,051
-469,445	733,710	-0,094	-0,187
-468,430	-200,000	0,007	-0,168
-467,416	-200,000	-0,001	0,090
-466,401	800,000	0,037	0,087
-465,386	97,373	0,023	0,020
-464,372	38,380	-0,097	0,064
-463,357	-200,000	0,024	0,120
-462,343	-200,000	-0,022	-0,103
-461,328	800,000	0,024	0,069
-460,313	-144,396	-0,070	-0,005
-459,299	-139,968	0,114	-0,009
-458,284	-200,000	0,014	0,192
-457,270	69,327	0,098	-0,075
-456,255	800,000	0,029	-0,089
-455,241	135,323	-0,055	-0,053
-454,226	-114,197	-0,105	0,015
-453,211	-45,505	-0,090	-0,033
-452,197	-32,286	-0,043	-0,017
-451,182	196,836	0,072	0,081
-450,168	-200,000	-0,028	0,207
-449,153	-191,777	-0,096	-0,001
-448,138	-200,000	-0,006	-0,070
-447,124	-200,000	-0,005	-0,065
-446,109	5,127	0,009	-0,005
-445,095	-38,798	0,138	0,053
-444,080	77,246	0,021	0,016
-443,065	-200,000	0,014	0,127
-442,051	38,915	0,095	-0,062
-441,036	169,476	-0,064	0,067
-440,022	32,051	0,023	-0,015
-439,007	-200,000	-0,025	-0,082
-437,992	-60,563	0,104	0,032
-436,978	800,000	0,034	0,096
-435,963	259,865	-0,069	0,088
-434,949	-200,000	0,026	0,144
-433,934	-200,000	0,032	-0,163
-432,919	56,115	0,115	-0,082
-431,905	-53,625	0,100	-0,034
-430,890	-63,781	0,131	-0,039
-429,876	800,000	0,061	0,155
-428,861	800,000	0,034	0,076
-427,846	800,000	-0,067	0,183
-426,832	127,085	-0,049	-0,046
-425,817	68,475	-0,047	0,035
-424,803	301,250	0,058	-0,079
-423,788	-168,994	0,114	-0,003
-422,773	171,774	0,042	0,045
-421,759	-47,927	0,097	0,034
-420,744	228,796	-0,021	0,025
-419,730	-69,224	0,034	0,010
-418,715	628,622	-0,025	-0,046
-417,701	800,000	-0,044	0,097
-416,686	-61,427	0,033	-0,010
-415,671	800,000	0,020	-0,052
-414,657	170,106	-0,025	0,026
-413,642	-200,000	-0,004	-0,045
-412,628	86,607	-0,017	-0,013
-411,613	-32,121	-0,166	-0,068
-410,598	800,000	0,053	-0,114
-409,584	82,491	-0,087	0,070
-408,569	800,000	0,031	0,100
-407,555	-200,000	-0,001	-0,010
-406,540	122,341	0,036	-0,033
-405,525	348,179	-0,123	-0,179
-404,511	-65,771	-0,128	0,038
-403,496	-30,903	0,103	0,043
-402,482	-152,187	0,056	-0,003
-401,467	70,688	-0,036	0,028
-400,452	199,586	0,074	-0,083
-399,438	41,363	0,105	-0,070
-398,423	-94,203	-0,138	0,027
-397,409	-78,078	-0,056	0,014
-396,394	184,135	0,034	-0,037
-395,379	-54,074	-0,039	0,013
-394,365	-74,333	0,085	0,022
-393,350	-96,247	0,109	0,021
-392,336	42,579	0,006	-0,004
-391,321	800,000	-0,023	-0,056
-390,306	800,000	-0,046	-0,098
-389,292	107,247	0,035	-0,031
-388,277	-163,813	0,140	0,005
-387,263	-25,998	0,084	0,036
-386,248	20,403	0,126	-0,074
-385,233	281,276	0,040	0,053
-384,219	15,747	-0,080	-0,046
-383,204	-100,291	0,069	0,012
-382,190	800,000	-0,045	0,138
-381,175	476,145	-0,085	0,142
-380,160	-5,702	0,043	0,021
-379,146	188,822	0,050	0,055
-378,131	630,498	-0,024	-0,044
-377,117	-200,000	0,001	0,024
-376,102	-35,195	0,089	-0,035
-375,088	-200,000	0,017	-0,116
-374,073	23,563	0,046	0,028
-373,058	-28,448	-0,026	-0,011
-372,044	40,935	-0,065	0,043
-371,029	-126,088	0,104	-0,011
-370,015	231,299	0,038	0,045
-369,000	-86,458	0,112	0,025
-367,985	-200,000	-0,021	-0,102
-366,971	-200,000	-0,005	-0,219
-365,956	-200,000	0,032	-0,121
-364,942	40,042	-0,028	0,018
-363,927	-200,000	0,028	0,104
-362,912	800,000	-0,009	-0,025
-361,898	295,543	-0,118	-0,159
-360,883	-19,973	0,092	-0,042
-359,869	19,483	-0,067	-0,039
-358,854	-200,000	0,012	0,136
-357,839	151,909	0,077	-0,077
-356,825	35,418	0,043	0,028
-355,810	-200,000	0,004	-0,047
-354,796	-156,577	-0,088	-0,004
-353,781	-4,126	0,045	-0,023
-352,766	462,756	0,056	-0,093
-351,752	800,000	-0,027	-0,078
-350,737	-200,000	-0,005	-0,029
-349,723	302,401	0,030	0,041
-348,708	800,000	0,061	0,140
-347,693	28,064	-0,073	-0,045
-346,679	-200,000	0,004	0,023
-345,664	-200,000	-0,013	0,057
-344,650	284,518	0,042	-0,055
-343,635	-132,271	-0,107	0,010
-342,620	630,568	0,014	-0,026
-341,606	129,937	0,093	-0,088
-340,591	238,380	0,016	0,019
-339,577	245,021	-0,072	-0,089
-338,562	298,623	-0,082	-0,111
-337,548	103,102	-0,052	-0,045
-336,533	-200,000	-0,012	-0,055
-335,518	800,000	-0,022	0,068
-334,504	-200,000	0,000	0,072
-333,489	-40,461	-0,035	-0,013
-332,475	800,000	-0,041	-0,114
-331,460	-108,096	-0,148	-0,023
-330,445	-47,650	0,017	-0,006
-329,431	-200,000	-0,018	-0,094
-328,416	-15,603	-0,082	0,038
-327,402	-200,000	-0,002	0,031
-326,387	-151,270	0,053	-0,003
-325,372	-200,000	-0,025	-0,131
-324,358	800,000	0,039	-0,084
-323,343	65,850	-0,035	-0,026
-322,329	230,122	-0,044	0,053
-321,314	-112,382	0,108	0,016
-320,299	-185,987	-0,077	-0,001
-319,285	207,711	0,140	-0,161
-318,270	-87,865	-0,129	-0,028
-317,256	610,486	0,058	-0,107
-316,241	2,403	0,012	0,006
-315,226	-41,062	0,128	-0,048
-314,212	238,182	0,065	0,079
-313,197	51,643	-0,012	0,008
-312,183	-200,000	0,009	-0,134
-311,168	176,199	-0,071	-0,075
-310,153	363,777	-0,089	0,131
-309,139	-164,139	-0,069	-0,002
-308,124	150,268	0,105	0,105
-307,110	800,000	0,054	0,115
-306,095	396,653	-0,020	0,031
-305,080	-70,517	-0,062	-0,017
-304,066	83,507	0,046	-0,036
-303,051	-200,000	-0,015	-0,097
-302,037	-200,000	0,010	-0,043
-301,022	-200,000	0,041	0,145
-300,008	209,643	0,079	-0,091
-298,993	800,000	0,041	-0,085
-297,978	800,000	-0,039	0,122
-296,964	-152,892	-0,033	0,002
-295,949	57,854	0,067	0,048
-294,935	440,434	-0,045	-0,073
-293,920	800,000	0,019	-0,040
-292,905	245,886	-0,061	-0,075
-291,891	561,708	0,010	0,017
-290,876	-33,476	-0,045	0,018
-289,862	-40,565	0,088	0,033
-288,847	0,307	-0,105	0,055
-287,832	-0,676	-0,079	0,041
-286,818	-200,000	0,008	-0,036
-285,803	-36,151	0,033	-0,013
-284,789	154,753	-0,100	0,101
-283,774	-88,515	0,105	0,023
-282,759	-106,708	-0,073	-0,012
-281,745	-97,716	0,068	-0,013
-280,730	5,316	-0,043	-0,023
-279,716	-200,000	0,009	0,056
-278,701	86,573	-0,072	0,058
-277,686	800,000	-0,019	0,048
-276,672	8,023	0,090	-0,049
-275,657	156,343	-0,120	-0,122
-274,643	26,692	-0,076	0,047
-273,628	800,000	0,018	-0,052
-272,613	800,000	0,017	0,052
-271,599	-103,476	0,052	0,009
-270,584	-98,524	0,077	-0,014
-269,570	678,963	-0,017	-0,033
-268,555	192,236	-0,029	0,032
-267,540	-70,681	0,080	0,022
-266,526	-124,702	-0,133	0,015
-265,511	87,477	-0,042	0,034
-264,497	-200,000	0,022	-0,080
-263,482	-130,712	0,131	0,013
-262,467	282,076	-0,063	0,083
-261,453	-132,158	0,133	0,012
-260,438	212,094	-0,045	-0,052
-259,424	800,000	-0,017	0,045
-258,409	217,307	-0,012	-0,014
-257,395	203,243	-0,045	0,051
-256,380	-200,000	-0,006	0,115
-255,365	-128,197	-0,033	0,003
-254,351	-200,000	0,004	0,114
-253,336	153,038	-0,128	-0,128
-252,322	286,944	-0,048	0,063
-251,307	59,289	0,082	0,059
-250,292	-92,603	-0,161	-0,033
-249,278	-0,926	0,132	0,068
-248,263	414,629	0,078	0,121
-247,249	241,551	-0,007	-0,009
-246,234	-200,000	-0,052	0,000
-245,219	202,242	-0,020	-0,023
-244,205	800,000	0,018	-0,047
-243,190	-69,704	-0,111	-0,031
-242,176	-101,310	0,079	0,014
-241,161	26,090	-0,063	0,039
-240,146	-200,000	0,023	-0,108
-239,132	-200,000	0,006	-0,107
-238,117	23,974	-0,056	0,034
-237,103	-200,000	-0,015	0,098
-236,088	-200,000	0,011	-0,071
-235,073	112,103	-0,007	0,006
-234,059	-96,885	0,068	0,013
-233,044	283,587	0,014	0,019
-232,030	800,000	-0,028	0,081
-231,015	72,019	-0,029	-0,022
-230,000	-21,400	-0,079	0,035
-228,986	146,425	0,049	-0,048
-227,971	188,860	-0,043	0,047
-226,957	-200,000	-0,008	0,111
-225,942	69,261	-0,040	0,030
-224,927	-200,000	-0,019	-0,084
-223,913	67,410	-0,046	0,034
-222,898	-200,000	0,009	0,053
-221,884	800,000	-0,008	-0,024
-220,869	-200,000	0,019	0,106
-219,855	-113,377	0,084	-0,012
-218,840	-119,785	-0,032	0,004
-217,825	153,940	-0,075	0,075
-216,811	212,689	0,112	-0,130
-215,796	-63,784	-0,110	0,033
-214,782	-70,951	-0,132	-0,036
-213,767	-200,000	-0,036	-0,185
-212,752	-135,029	0,044	-0,004
-211,738	212,789	0,072	0,083
-210,723	-200,000	-0,018	-0,128
-209,709	800,000	0,038	0,101
-208,694	-200,000	0,007	-0,128
-207,679	-131,287	0,096	-0,009
-206,665	-129,983	0,119	0,012
-205,650	800,000	0,040	0,111
-204,636	284,568	-0,083	0,109
-203,621	204,556	0,035	0,039
-202,606	354,148	-0,081	-0,118
-201,592	800,000	-0,040	0,087
-200,577	-174,450	-0,140	0,003
-199,563	-141,078	-0,108	-0,008
-198,548	64,497	-0,035	0,026
-197,533	-59,654	0,105	-0,033
-196,519	78,135	0,039	-0,030
-195,504	800,000	-0,040	-0,090
-194,490	163,530	-0,084	0,086
-193,475	56,561	0,029	0,021
-192,460	-24,987	-0,031	-0,013
-191,446	800,000	-0,051	0,114
-190,431	50,616	-0,114	0,079
-189,417	53,484	-0,145	0,102
-188,402	483,657	0,054	0,090
-187,387	108,690	0,090	-0,079
-186,373	-110,263	-0,137	-0,021
-185,358	158,795	-0,024	-0,024
-184,344	113,642	0,090	0,080
-183,329	59,935	0,070	-0,050
-182,315	-99,251	0,115	-0,021
-181,300	-200,000	-0,006	0,166
-180,285	800,000	-0,017	0,046
-179,271	99,186	-0,050	-0,042
-178,256	-200,000	0,001	0,019
-177,242	146,500	-0,059	-0,058
-176,227	-143,745	0,080	-0,005
-175,212	75,467	-0,034	0,026
-174,198	235,975	0,055	-0,066
-173,183	-65,252	-0,050	-0,015
-172,169	-164,732	0,059	0,002
-171,154	-148,672	-0,015	-0,001
-170,139	278,464	0,022	0,028
-169,125	-200,000	0,001	-0,095
-168,110	-200,000	0,023	0,134
-167,096	-58,331	-0,107	-0,034
-166,081	216,789	0,062	-0,073
-165,066	208,007	-0,087	-0,099
-164,052	88,010	0,108	-0,087
-163,037	-41,077	0,104	0,039
-162,023	110,701	-0,020	0,017
-161,008	-200,000	0,022	-0,076
-159,993	7,276	0,024	-0,013
-158,979	356,012	-0,021	0,030
-157,964	338,597	-0,096	-0,136
-156,950	120,802	0,006	-0,006
-155,935	-200,000	0,006	0,071
-154,920	271,921	0,013	0,017
-153,906	453,219	-0,033	0,053
-152,891	-200,000	0,014	0,070
-151,877	-9,350	-0,097	-0,047
-150,862	800,000	-0,029	0,072
-149,847	139,075	-0,048	-0,046
-148,833	75,765	0,092	-0,071
-147,818	15,583	0,071	0,041
-146,804	-104,314	-0,182	-0,030
-145,789	584,101	0,110	0,197
-144,775	-114,041	-0,123	0,017
-143,760	-200,000	-0,023	-0,088
-142,745	268,538	0,036	-0,046
-141,731	800,000	-0,030	-0,062
-140,716	-113,322	0,126	0,018
-139,702	800,000	0,057	0,157
-138,687	-200,000	-0,016	0,122
-137,672	-118,001	0,111	0,014
-136,658	-11,367	0,032	0,015
-135,643	-89,325	0,037	0,008
-134,629	-131,399	-0,046	-0,004
-133,614	800,000	0,046	0,111
-132,599	-31,620	0,074	-0,030
-131,585	-200,000	-0,008	-0,092
-130,570	-200,000	-0,001	0,033
-129,556	-44,500	0,063	-0,023
-128,541	520,556	-0,027	0,046
-127,526	-21,601	0,185	-0,082
-126,512	-28,268	0,134	0,056
-125,497	482,364	0,028	0,047
-124,483	27,818	-0,044	-0,027
-123,468	-200,000	-0,016	0,129
-122,453	800,000	0,057	-0,165
-121,439	206,772	0,087	-0,099
-120,424	-94,936	-0,159	-0,031
-119,410	-100,834	-0,030	-0,005
-118,395	-0,265	0,133	-0,069
-117,380	-200,000	-0,013	-0,138
-116,366	-5,306	0,073	0,036
-115,351	-178,866	-0,218	0,004
-114,337	83,737	-0,054	0,043
-113,322	-200,000	-0,025	0,080
-112,307	-7,115	0,062	0,031
-111,293	-34,995	-0,029	-0,011
-110,278	133,692	0,078	0,073
-109,264	280,639	-0,037	-0,048
-108,249	-85,246	-0,009	-0,002
-107,234	-200,000	0,000	0,036
-106,220	491,405	-0,037	-0,062
-105,205	-37,350	0,105	-0,040
-104,191	421,469	0,036	-0,056
-103,176	-200,000	-0,006	-0,036
-102,162	456,645	-0,046	-0,075
-101,147	-90,914	0,106	-0,022
-100,132	800,000	-0,030	-0,074
-99,118	190,852	0,054	-0,060
-98,103	287,732	-0,087	0,115
-97,089	332,884	-0,055	0,078
-96,074	54,158	-0,085	0,059
-95,059	-103,046	0,052	-0,009
-94,045	800,000	-0,020	-0,065
-93,030	296,113	0,078	-0,104
-92,016	-193,565	-0,084	0,001
-91,001	46,795	0,071	-0,048
-89,986	112,160	0,186	0,163
-88,972	2,437	0,111	0,058
-87,957	-10,334	0,050	0,024
-86,943	800,000	0,003	0,006
-85,928	-200,000	-0,030	-0,149
-84,913	-2,798	-0,076	-0,038
-83,899	800,000	-0,054	0,120
-82,884	699,321	-0,045	-0,085
-81,870	-200,000	-0,026	-0,091
-80,855	29,725	0,074	-0,046
-79,840	-82,927	0,119	-0,028
-78,826	14,282	0,006	-0,003
-77,811	800,000	-0,048	-0,108
-76,797	-134,420	0,085	-0,008
-75,782	316,186	0,064	0,088
-74,767	73,430	0,036	-0,027
-73,753	-135,254	-0,071	0,006
-72,738	46,826	-0,156	0,105
-71,724	-60,033	-0,103	-0,032
-70,709	-147,903	-0,068	0,004
-69,694	-200,000	-0,026	-0,090
-68,680	86,550	0,022	-0,018
-67,665	-32,703	0,161	0,065
-66,651	-145,816	0,101	-0,006
-65,636	145,957	-0,069	0,067
-64,622	596,468	-0,043	0,078
-63,607	-72,876	-0,127	-0,034
-62,592	-200,000	-0,004	-0,111
-61,578	-200,000	-0,003	0,089
-60,563	380,031	0,077	0,115
-59,549	800,000	0,005	0,010
-58,534	-116,534	-1,238	-0,164
-57,519	715,996	-0,773	-1,496
-56,505	-200,000	-0,981	-4,505
-55,490	94,670	0,590	-0,487
-54,476	800,000	4,980	11,765
-53,461	-200,000	13,621	253,724
-52,446	-200,000	689,814	2261,919
-51,432	592,047	1622,646	2919,975
-50,417	119,492	1635,205	1469,393
-49,403	73,304	1289,255	977,861
-48,388	38,062	1024,448	660,009
-47,373	24,328	981,916	587,429
-46,359	23,578	971,741	578,859
-45,344	22,589	967,417	573,026
-44,330	22,548	965,937	571,993
-43,315	22,417	964,633	570,771
-42,300	22,351	963,585	569,913
-41,286	22,437	962,635	569,608
-40,271	22,422	961,584	568,916
-39,257	22,433	960,717	568,417
-38,242	22,371	959,766	567,628
-37,227	22,404	958,883	567,190
-36,213	22,380	958,060	566,606
-35,198	22,352	957,176	565,967
-34,184	22,347	956,645	565,617
-33,169	22,352	955,722	565,063
-32,154	22,448	954,696	564,743
-31,140	22,430	953,844	564,161
-30,125	22,458	952,953	563,701
-29,111	22,429	952,301	563,198
-28,096	22,431	951,497	562,708
-27,082	22,417	950,830	562,246
-26,067	22,417	950,033	561,751
-25,052	22,398	949,489	561,348
-24,038	22,421	948,751	560,963
-23,023	22,453	947,911	560,545
-22,009	22,454	947,480	560,273
-20,994	22,481	946,665	559,855
-19,979	22,428	946,361	559,484
-18,965	22,440	945,565	559,030
-17,950	22,395	945,073	558,573
-16,936	22,361	944,234	557,946
-15,921	22,385	943,650	557,654
-14,906	22,311	942,711	556,841
-13,892	22,304	942,086	556,428
-12,877	22,326	941,559	556,165
-11,863	22,245	941,018	555,566
-10,848	22,277	940,480	555,330
-9,833	22,410	940,020	555,456
-8,819	22,438	939,372	555,141
-7,804	22,383	938,722	554,561
-6,790	22,283	938,221	553,926
-5,775	22,373	937,605	553,825
-4,760	22,330	936,878	553,239
-3,746	22,272	936,284	552,680
-2,731	22,211	935,461	551,979
-1,717	22,167	934,890	551,481
-0,702	22,108	934,221	550,879
0,313	21,940	933,635	550,835
1,327	24,990	931,628	559,198
2,342	34,511	796,211	503,286
3,356	32,536	451,311	282,275
4,371	1,726	293,378	152,789
5,386	-2,884	274,399	138,533
6,400	-4,187	268,372	134,272
7,415	-4,887	266,112	132,486
8,429	-4,682	264,885	132,051
9,444	-4,438	264,011	131,826
10,459	-4,648	263,499	131,367
11,473	-4,648	262,849	131,031
12,488	-4,707	262,363	130,724
13,502	-4,856	261,670	130,233
14,517	-4,755	261,304	130,129
15,531	-4,655	260,904	130,009
16,546	-4,544	260,617	129,954
17,561	-4,623	260,247	129,687
18,575	-4,555	259,947	129,587
19,590	-4,720	259,693	129,301
20,604	-4,720	259,419	129,153
21,619	-4,636	258,987	129,002
22,634	-4,747	258,792	128,794
23,648	-4,832	258,188	128,406
24,663	-4,735	258,122	128,448
25,677	-4,811	257,831	128,224
26,692	-4,697	257,650	128,224
27,707	-4,592	257,197	128,081
28,721	-4,610	257,012	127,961
29,736	-4,894	256,993	127,688
30,750	-4,777	256,571	127,571
31,765	-4,781	256,242	127,392
32,780	-4,878	256,161	127,256
33,794	-4,803	256,121	127,290
34,809	-4,856	255,661	127,004
35,823	-4,757	255,425	126,962
36,838	-4,755	255,080	126,781
37,853	-4,830	254,885	126,607
38,867	-4,689	254,719	126,637
39,882	-4,702	254,387	126,450
40,896	-4,862	254,258	126,234
41,911	-4,952	254,114	126,073
42,926	-4,868	253,651	125,905
43,940	-4,819	253,552	125,887
44,955	-4,925	253,160	125,589
45,969	-4,923	253,049	125,524
46,984	-5,184	252,961	125,242
47,999	-5,290	252,530	124,926
49,013	-5,440	252,392	124,716
50,028	-5,483	252,064	124,506
51,042	-5,764	251,694	124,068
52,057	-5,696	251,638	124,088
53,071	-5,721	251,421	123,949
54,086	-5,676	251,363	123,948
55,101	-5,476	251,086	123,973
56,115	-5,095	250,948	124,223
57,130	-4,609	250,803	124,559
58,144	-4,588	250,645	124,488
59,159	-4,445	250,486	124,520
60,174	-4,720	250,294	124,177
61,188	-4,709	250,195	124,126
62,203	-4,693	249,993	124,029
63,217	-4,651	249,646	123,882
64,232	-4,586	249,533	123,871
65,247	-4,501	249,327	123,830
66,261	-4,900	249,143	123,385
67,276	-4,920	248,772	123,175
68,290	-5,189	248,600	122,848
69,305	-5,285	248,291	122,603
70,320	-5,083	248,004	122,622
71,334	-4,805	247,860	122,777
72,349	-4,672	247,893	122,895
73,363	-4,602	247,629	122,814
74,378	-4,537	247,398	122,743
75,393	-4,760	247,340	122,513
76,407	-4,693	247,100	122,440
77,422	-4,687	246,862	122,317
78,436	-4,518	246,653	122,345
79,451	-4,606	246,415	122,142
80,466	-4,913	246,207	121,769
81,480	-4,754	245,964	121,772
82,495	-4,984	245,708	121,440
83,509	-4,995	245,719	121,426
84,524	-4,846	245,507	121,435
85,539	-5,114	245,117	121,007
86,553	-5,241	245,095	120,878
87,568	-5,020	244,880	120,947
88,582	-5,071	244,696	120,802
89,597	-5,073	244,528	120,708
90,611	-4,933	244,506	120,803
91,626	-4,946	244,251	120,655
92,641	-4,884	243,933	120,539
93,655	-5,051	243,856	120,351
94,670	-4,767	243,679	120,490
95,684	-4,877	243,493	120,295
96,699	-5,025	243,219	120,026
97,714	-4,993	243,073	119,970
98,728	-5,153	242,868	119,725
99,743	-5,165	242,627	119,586
100,757	-5,173	242,400	119,456
101,772	-5,259	242,259	119,305
102,787	-4,930	241,940	119,410
103,801	-4,830	241,922	119,473
104,816	-4,981	241,833	119,293
105,830	-4,692	241,631	119,422
106,845	-4,863	241,538	119,224
107,860	-4,645	241,209	119,231
108,874	-4,865	241,006	118,938
109,889	-5,083	240,913	118,702
110,903	-4,841	240,609	118,741
111,918	-4,991	240,507	118,557
112,933	-5,093	240,296	118,358
113,947	-4,873	240,260	118,511
114,962	-4,758	240,171	118,551
115,976	-4,717	239,809	118,395
116,991	-4,693	239,698	118,349
118,006	-4,841	239,603	118,171
119,020	-4,740	239,558	118,222
120,035	-4,654	239,336	118,171
121,049	-4,774	239,099	117,946
122,064	-4,693	238,862	117,885
123,079	-4,834	238,753	117,705
124,093	-4,857	238,453	117,527
125,108	-5,099	238,334	117,262
126,122	-5,195	238,090	117,053
127,137	-5,222	237,864	116,909
128,151	-5,186	237,739	116,866
129,166	-5,144	237,557	116,801
130,181	-5,092	237,378	116,745
131,195	-5,307	237,286	116,515
132,210	-5,164	237,063	116,511
133,224	-4,961	236,975	116,622
134,239	-4,934	236,769	116,531
135,254	-4,836	236,669	116,551
136,268	-4,701	236,344	116,489
137,283	-4,962	236,133	116,165
138,297	-5,280	235,938	115,802
139,312	-5,287	235,640	115,640
140,327	-5,016	235,681	115,868
141,341	-4,459	235,688	116,309
142,356	-4,518	235,683	116,249
143,370	-4,526	235,521	116,152
144,385	-4,515	235,225	116,004
145,400	-4,338	234,986	116,018
146,414	-4,688	234,952	115,710
147,429	-4,511	234,735	115,735
148,443	-4,489	234,502	115,628
149,458	-4,666	234,461	115,456
150,473	-4,493	234,151	115,431
151,487	-4,557	233,984	115,287
152,502	-4,428	233,929	115,352
153,516	-4,491	233,739	115,198
154,531	-4,495	233,502	115,068
155,546	-4,550	233,421	114,974
156,560	-4,618	233,144	114,774
157,575	-4,840	232,956	114,494
158,589	-4,870	232,877	114,422
159,604	-4,568	232,759	114,593
160,619	-4,336	232,603	114,690
161,633	-4,378	232,295	114,494
162,648	-4,381	232,274	114,471
163,662	-4,596	232,137	114,223
164,677	-4,420	231,899	114,236
165,692	-4,617	231,770	114,006
166,706	-4,434	231,689	114,100
167,721	-4,287	231,379	114,054
168,735	-4,356	231,449	114,024
169,750	-4,414	231,249	113,869
170,764	-4,324	230,960	113,787
171,779	-4,451	230,907	113,651
172,794	-4,477	230,833	113,585
173,808	-4,532	230,495	113,365
174,823	-5,055	230,220	112,810
175,837	-4,922	229,978	112,785
176,852	-4,449	229,999	113,155
177,867	-4,484	229,845	113,043
178,881	-4,556	229,777	112,942
179,896	-4,533	229,615	112,871
180,910	-4,298	229,597	113,035
181,925	-4,311	229,293	112,865
182,940	-4,538	229,286	112,675
183,954	-4,331	228,895	112,634
184,969	-4,366	228,991	112,643
185,983	-4,348	228,746	112,527
186,998	-4,243	228,625	112,539
188,013	-4,175	228,529	112,535
189,027	-4,247	228,405	112,408
190,042	-4,317	228,105	112,195
191,056	-4,345	228,028	112,127
192,071	-4,448	227,915	111,981
193,086	-4,352	227,731	111,955
194,100	-4,523	227,534	111,716
195,115	-4,738	227,148	111,350
196,129	-5,587	226,916	110,573
197,144	-2,461	227,788	113,404
198,159	1,826	228,647	117,142
199,173	4,044	229,488	119,283
200,188	4,441	229,401	119,535
201,202	4,335	229,344	119,412
202,217	4,638	229,156	119,538
203,232	4,645	229,202	119,556
204,246	4,858	229,009	119,610
205,261	4,796	228,769	119,426
206,275	4,977	228,704	119,520
207,290	5,003	228,569	119,460
208,304	5,051	228,445	119,421
209,319	5,129	228,199	119,342
210,334	4,826	228,036	119,013
211,348	4,708	227,846	118,813
212,363	4,327	227,401	118,278
213,377	4,070	227,274	118,004
214,392	4,132	227,150	117,977
215,407	3,982	227,114	117,833
216,421	4,238	226,944	117,930
217,436	4,053	226,771	117,688
218,450	3,893	226,478	117,403
219,465	3,760	226,352	117,226
220,480	3,904	226,249	117,272
221,494	3,812	226,070	117,099
222,509	3,880	225,982	117,095
223,523	4,031	225,964	117,190
224,538	3,939	225,638	116,940
225,553	4,071	225,612	117,017
226,567	4,202	225,415	117,004
227,582	4,429	225,352	117,132
228,596	4,390	225,338	117,086
229,611	4,145	225,153	116,793
230,626	3,944	224,936	116,518
231,640	4,022	224,608	116,397
232,655	4,216	224,543	116,500
233,669	4,648	224,541	116,814
234,684	4,703	224,497	116,822
235,699	4,594	224,166	116,557
236,713	4,123	224,036	116,125
237,728	4,010	223,838	115,927
238,742	3,900	223,694	115,759
239,757	4,162	223,523	115,857
240,772	4,327	223,255	115,832
241,786	4,005	223,214	115,558
242,801	4,031	223,118	115,517
243,815	4,641	222,918	115,861
244,830	4,481	222,890	115,717
245,844	4,070	222,726	115,313
246,859	4,201	222,404	115,234
247,874	4,062	222,386	115,110
248,888	4,196	222,384	115,200
249,903	4,115	222,119	114,991
250,917	4,216	221,896	114,942
251,932	4,135	221,806	114,824
252,947	3,952	221,571	114,555
253,961	3,939	221,505	114,502
254,976	3,908	221,442	114,436
255,990	4,273	221,269	114,607
257,005	4,264	221,145	114,526
258,020	4,330	221,159	114,572
259,034	4,406	220,970	114,520
260,049	4,427	220,739	114,406
261,063	4,185	220,584	114,137
262,078	4,398	220,596	114,291
263,093	4,504	220,235	114,172
264,107	4,414	220,070	114,009
265,122	4,459	220,018	114,005
266,136	4,779	219,944	114,193
267,151	4,675	219,678	113,968
268,166	4,100	219,538	113,462
269,180	3,986	219,284	113,237
270,195	4,055	219,189	113,228
271,209	3,960	218,945	113,022
272,224	4,154	218,911	113,137
273,239	4,155	218,787	113,063
274,253	4,157	218,704	113,012
275,268	3,809	218,501	112,642
276,282	3,801	218,235	112,489
277,297	3,755	218,187	112,421
278,312	3,761	218,013	112,325
279,326	3,962	217,867	112,387
280,341	3,897	217,952	112,373
281,355	3,984	217,695	112,294
282,370	3,907	217,646	112,203
283,384	4,057	217,303	112,126
284,399	4,053	217,268	112,094
285,414	3,904	217,027	111,852
286,428	3,966	217,040	111,893
287,443	4,461	216,833	112,136
288,457	4,326	216,744	111,982
289,472	4,055	216,600	111,701
290,487	3,841	216,299	111,381
291,501	3,568	216,277	111,162
292,516	3,896	215,990	111,241
293,530	3,785	215,970	111,141
294,545	3,643	215,857	110,971
295,560	3,823	215,746	111,033
296,574	4,113	215,527	111,120
297,589	4,063	215,516	111,068
298,603	4,230	215,334	111,085
299,618	4,026	215,193	110,856
300,633	3,998	215,154	110,805
301,647	4,157	215,073	110,868
302,662	4,227	214,912	110,826
303,676	4,165	214,729	110,677
304,691	4,319	214,604	110,713
305,706	4,421	214,526	110,736
306,720	4,525	214,360	110,715
307,735	4,295	214,043	110,377
308,749	4,045	213,990	110,161
309,764	4,037	213,916	110,108
310,779	4,352	213,776	110,251
311,793	4,243	213,552	110,047
312,808	4,323	213,495	110,065
313,822	4,180	213,430	109,920
314,837	4,228	212,992	109,719
315,852	3,787	213,100	109,450
316,866	4,131	212,913	109,590
317,881	4,309	212,793	109,644
318,895	4,482	212,531	109,622
319,910	3,949	212,594	109,266
320,925	4,044	212,254	109,150
321,939	3,630	212,077	108,756
322,954	3,843	212,044	108,880
323,968	4,009	211,986	108,958
324,983	4,141	211,880	108,987
325,997	4,139	211,880	108,976
327,012	3,978	211,526	108,671
328,027	4,168	211,412	108,737
329,041	4,322	211,337	108,797
330,056	4,757	211,298	109,074
331,070	4,136	211,055	108,501
332,085	3,766	210,788	108,094
333,100	3,778	210,705	108,050
334,114	4,140	210,555	108,218
335,129	4,204	210,417	108,183
336,143	4,111	210,254	108,024
337,158	4,051	210,116	107,901
338,173	4,066	209,960	107,821
339,187	3,770	209,846	107,546
340,202	3,683	209,763	107,433
341,216	3,560	209,555	107,231
342,231	3,716	209,457	107,281
343,246	3,906	209,327	107,337
344,260	3,893	209,286	107,298
345,275	3,984	209,205	107,310
346,289	4,060	209,011	107,254
347,304	4,264	208,888	107,323
348,319	4,006	208,814	107,096
349,333	4,003	208,605	106,977
350,348	4,318	208,404	107,083
351,362	4,112	208,433	106,945
352,377	4,339	208,381	107,067
353,392	4,112	208,022	106,715
354,406	4,182	207,865	106,674
355,421	194,351	1346,061	1436,444
356,435	155,070	1484,829	1436,561
