DTS Sentinel unit serial number:	SN410029Multiplexer serial number:	ORYXHardware model number:	OX2-SRSoftware version number:	ORYX F/W v4,00 Oryx Data Collector v3.7.2.0data status	okinstallation	B6 Nyhavnadifferential loss correction	single-endedforward channel	channel 2reverse channel	N/Adate	2023/12/08time	10:05:08forward acquisition time	300,00reverse acquisition time	0,00gamma	499,1914k internal	0,3165k external	0,3165temperature offset calibration	1,0000default loss term (dB/km)	0,3820temperature slope calibration	1,0000multiplexer offset coefficient	1,0000multiplexer slope coefficient	1,0000fibre end	0,00T internal ref (°C)	14,05T ext. ref 1 (°C)	-1,53T ext. ref 2 (°C)	-1,47length (m)	temperature (°C)	Stokes	anti-Stokes-744,400	-85,675	0,106	0,024
-743,385	-0,503	-0,147	0,077
-742,371	-200,000	0,020	0,099
-741,356	-146,157	-0,456	-0,029
-740,342	19,258	0,077	0,045
-739,327	-130,573	-0,328	-0,032
-738,312	-145,375	0,034	-0,002
-737,298	-127,272	-0,265	-0,028
-736,283	-33,002	0,124	-0,050
-735,269	-93,150	-0,238	0,048
-734,254	443,571	0,062	-0,100
-733,239	-62,596	-0,646	-0,196
-732,225	152,732	0,105	0,106
-731,210	-200,000	0,010	0,061
-730,196	-89,677	-0,014	-0,003
-729,181	223,674	-0,061	-0,073
-728,167	-105,464	0,023	-0,004
-727,152	378,952	-0,053	-0,080
-726,137	-200,000	-0,001	0,039
-725,123	99,841	-0,145	-0,123
-724,108	7,263	-0,165	-0,090
-723,094	-200,000	0,001	-0,153
-722,079	-200,000	0,028	-0,132
-721,064	81,347	-0,071	-0,056
-720,050	178,509	-0,179	-0,192
-719,035	-101,513	0,032	-0,006
-718,021	-53,202	-0,058	0,019
-717,006	52,842	-0,041	-0,029
-715,991	-47,392	0,058	-0,021
-714,977	-200,000	-0,018	-0,114
-713,962	-84,901	-0,160	0,037
-712,948	-200,000	-0,010	-0,132
-711,933	174,040	0,023	0,025
-710,918	800,000	-0,033	-0,102
-709,904	-36,743	-0,110	-0,043
-708,889	178,721	-0,098	0,105
-707,875	179,618	-0,033	-0,036
-706,860	-200,000	0,015	0,080
-705,845	118,351	0,030	-0,028
-704,831	80,329	-0,079	0,062
-703,816	-70,564	-0,106	0,029
-702,802	800,000	-0,005	0,012
-701,787	-200,000	0,000	-0,004
-700,772	-200,000	0,027	-0,112
-699,758	105,023	0,009	0,007
-698,743	-20,532	0,095	0,043
-697,729	80,508	0,013	0,010
-696,714	-200,000	0,011	0,122
-695,699	210,560	-0,046	-0,054
-694,685	-118,675	-0,085	-0,011
-693,670	-58,733	-0,031	0,010
-692,656	-200,000	-0,002	0,121
-691,641	7,912	0,061	0,033
-690,627	-200,000	-0,003	-0,062
-689,612	55,236	-0,065	0,046
-688,597	800,000	0,028	0,058
-687,583	63,260	-0,007	-0,005
-686,568	-200,000	-0,053	-0,178
-685,554	-200,000	0,033	0,118
-684,539	637,376	0,092	0,173
-683,524	-200,000	0,015	0,103
-682,510	-116,282	-0,070	0,009
-681,495	-200,000	-0,015	0,125
-680,481	-99,098	0,072	-0,013
-679,466	800,000	-0,033	-0,072
-678,451	800,000	0,026	-0,072
-677,437	-200,000	-0,002	-0,076
-676,422	-98,395	0,042	0,008
-675,408	386,372	-0,060	0,091
-674,393	295,201	-0,057	-0,077
-673,378	67,960	-0,167	-0,125
-672,364	417,239	-0,104	-0,164
-671,349	-200,000	0,033	0,119
-670,335	800,000	-0,013	-0,041
-669,320	-95,917	0,154	0,030
-668,305	-144,445	-0,091	0,006
-667,291	-40,386	0,065	-0,025
-666,276	-200,000	-0,005	0,023
-665,262	17,436	-0,056	0,032
-664,247	-9,575	0,041	0,020
-663,232	180,235	-0,078	-0,084
-662,218	800,000	0,055	0,159
-661,203	-175,592	-0,064	0,001
-660,189	800,000	0,029	0,083
-659,174	-200,000	-0,036	0,160
-658,159	75,993	-0,113	-0,088
-657,145	800,000	-0,047	0,126
-656,130	-35,436	0,102	0,040
-655,116	-52,296	0,113	-0,038
-654,101	-200,000	-0,019	0,154
-653,086	777,006	-0,039	0,079
-652,072	-48,217	-0,105	0,037
-651,057	142,067	-0,053	-0,052
-650,043	157,095	-0,079	0,081
-649,028	0,537	-0,135	0,071
-648,014	198,883	0,060	0,067
-646,999	113,195	0,034	-0,031
-645,984	-74,801	-0,157	0,041
-644,970	800,000	-0,016	-0,048
-643,955	741,603	0,047	-0,094
-642,941	187,628	-0,159	-0,174
-641,926	-200,000	0,029	0,103
-640,911	-2,397	-0,131	0,067
-639,897	-200,000	0,011	0,143
-638,882	160,617	-0,016	-0,017
-637,868	601,509	-0,049	-0,089
-636,853	396,822	-0,052	0,079
-635,838	-31,307	-0,216	-0,089
-634,824	161,055	-0,068	0,070
-633,809	-139,356	0,096	0,007
-632,795	202,038	0,086	0,097
-631,780	684,592	0,075	-0,145
-630,765	-200,000	0,003	0,017
-629,751	-200,000	-0,014	-0,071
-628,736	404,186	-0,088	-0,136
-627,722	174,820	-0,114	-0,121
-626,707	349,331	0,049	0,071
-625,692	110,072	-0,036	0,032
-624,678	464,668	-0,042	0,069
-623,663	-123,739	0,174	0,020
-622,649	125,320	-0,073	-0,067
-621,634	73,016	-0,132	-0,101
-620,619	397,707	-0,111	0,170
-619,605	-52,633	0,104	0,035
-618,590	482,009	0,027	-0,045
-617,576	-200,000	0,008	0,137
-616,561	-69,365	-0,081	0,023
-615,546	-200,000	-0,007	0,034
-614,532	-200,000	0,002	-0,085
-613,517	-200,000	-0,006	-0,072
-612,503	102,836	0,034	-0,029
-611,488	-14,467	0,105	0,049
-610,474	290,823	0,080	0,107
-609,459	738,028	0,106	0,210
-608,444	414,507	-0,048	0,076
-607,430	800,000	-0,018	0,055
-606,415	-56,070	-0,135	0,044
-605,401	29,185	-0,141	0,087
-604,386	35,718	0,099	0,064
-603,371	-83,890	0,140	-0,032
-602,357	-73,822	-0,085	-0,023
-601,342	97,114	0,051	-0,042
-600,328	381,877	0,006	0,009
-599,313	800,000	-0,039	-0,088
-598,298	800,000	0,008	0,025
-597,284	-29,722	0,053	-0,022
-596,269	-69,274	-0,086	-0,024
-595,255	800,000	0,041	-0,101
-594,240	-5,055	0,193	-0,097
-593,225	-200,000	-0,023	-0,074
-592,211	764,626	-0,067	-0,133
-591,196	162,253	0,094	0,097
-590,182	30,354	0,151	-0,094
-589,167	200,901	0,079	0,089
-588,152	-110,461	-0,030	0,004
-587,138	7,074	-0,022	-0,012
-586,123	-200,000	0,005	-0,033
-585,109	-24,129	-0,080	-0,035
-584,094	-200,000	-0,043	0,145
-583,079	800,000	0,046	-0,100
-582,065	155,240	0,057	0,057
-581,050	-200,000	0,017	0,123
-580,036	-200,000	0,019	0,072
-579,021	654,218	0,043	0,081
-578,006	646,803	0,026	0,048
-576,992	800,000	0,018	-0,049
-575,977	-133,077	-0,052	0,005
-574,963	800,000	0,040	0,082
-573,948	-114,871	0,127	0,017
-572,934	-200,000	-0,014	0,130
-571,919	-58,194	0,052	0,017
-570,904	89,015	0,092	-0,074
-569,890	800,000	-0,054	-0,124
-568,875	68,647	-0,066	0,049
-567,861	-17,754	0,058	0,026
-566,846	157,898	-0,086	0,087
-565,831	800,000	-0,062	-0,186
-564,817	-200,000	0,015	-0,114
-563,802	-200,000	-0,003	0,100
-562,788	-54,088	0,097	0,032
-561,773	126,526	-0,045	-0,042
-560,758	-74,946	-0,075	-0,020
-559,744	800,000	0,038	-0,088
-558,729	86,058	-0,086	-0,069
-557,715	150,204	-0,021	0,020
-556,700	-51,680	-0,077	-0,026
-555,685	-136,143	-0,178	0,015
-554,671	127,378	0,087	-0,080
-553,656	-157,744	0,017	-0,001
-552,642	434,326	0,067	0,107
-551,627	59,210	0,050	-0,036
-550,612	-200,000	-0,051	-0,217
-549,598	316,677	0,091	-0,126
-548,583	-122,108	0,109	0,013
-547,569	-200,000	0,001	-0,140
-546,554	104,814	0,038	-0,033
-545,539	800,000	-0,041	-0,129
-544,525	800,000	0,011	-0,032
-543,510	288,775	0,077	-0,102
-542,496	-199,069	-0,130	0,000
-541,481	-115,559	-0,011	0,001
-540,466	-200,000	-0,013	-0,052
-539,452	-200,000	-0,001	-0,072
-538,437	-90,201	0,105	0,022
-537,423	-200,000	-0,000	-0,019
-536,408	-200,000	0,021	-0,092
-535,393	-200,000	-0,011	-0,116
-534,379	279,178	0,074	-0,097
-533,364	11,012	0,092	-0,051
-532,350	79,380	-0,045	-0,035
-531,335	21,725	-0,065	0,038
-530,321	-45,972	-0,056	-0,020
-529,306	108,620	0,070	-0,061
-528,291	-200,000	0,014	-0,068
-527,277	150,218	-0,051	-0,050
-526,262	-18,759	0,165	-0,075
-525,248	294,638	0,063	0,084
-524,233	-56,345	0,105	-0,034
-523,218	-53,155	-0,077	0,026
-522,204	-61,929	-0,110	0,033
-521,189	-37,386	0,073	0,028
-520,175	-143,376	-0,062	-0,004
-519,160	579,289	-0,044	0,079
-518,145	-35,262	0,084	0,033
-517,131	800,000	0,044	0,106
-516,116	-72,362	0,046	-0,012
-515,102	800,000	-0,038	-0,118
-514,087	293,967	-0,065	-0,086
-513,072	118,183	-0,107	-0,096
-512,058	31,477	-0,146	0,091
-511,043	-15,532	-0,022	0,010
-510,029	-32,807	0,111	-0,045
-509,014	13,659	-0,016	-0,009
-507,999	-51,928	0,032	-0,011
-506,985	800,000	-0,071	-0,146
-505,970	-200,000	-0,001	-0,158
-504,956	4,297	-0,158	0,084
-503,941	800,000	0,028	0,078
-502,926	55,123	0,048	-0,034
-501,912	-200,000	0,001	0,007
-500,897	351,637	0,090	0,130
-499,883	-200,000	-0,029	0,136
-498,868	57,632	0,063	-0,045
-497,853	-177,094	-0,052	0,001
-496,839	-137,754	-0,053	-0,004
-495,824	332,332	0,085	0,120
-494,810	222,794	-0,011	-0,013
-493,795	-200,000	-0,007	0,118
-492,781	157,360	0,079	0,080
-491,766	69,755	0,157	-0,118
-490,751	-79,560	-0,040	-0,010
-489,737	364,649	0,077	-0,113
-488,722	-20,470	0,107	0,048
-487,708	-35,597	0,147	0,058
-486,693	800,000	0,044	-0,116
-485,678	14,427	0,079	-0,045
-484,664	-17,117	0,078	-0,035
-483,649	233,985	-0,037	-0,044
-482,635	272,329	0,058	0,075
-481,620	-110,389	0,174	0,026
-480,605	-200,000	0,013	0,126
-479,591	-71,999	0,073	0,020
-478,576	-200,000	-0,024	-0,155
-477,562	-82,483	-0,078	0,018
-476,547	-200,000	-0,016	0,167
-475,532	4,043	0,071	-0,038
-474,518	732,762	0,056	0,111
-473,503	-58,858	-0,059	0,018
-472,489	216,786	-0,052	0,060
-471,474	77,605	0,060	-0,046
-470,459	-200,000	0,022	-0,078
-469,445	482,736	0,084	0,139
-468,430	2,103	-0,070	-0,037
-467,416	800,000	-0,104	0,210
-466,401	800,000	0,070	0,192
-465,386	-59,702	-0,036	0,011
-464,372	-56,489	-0,027	-0,009
-463,357	56,744	-0,073	0,052
-462,343	159,626	-0,075	-0,076
-461,328	59,877	-0,068	-0,049
-460,313	-72,546	0,114	0,030
-459,299	33,822	-0,043	0,027
-458,284	800,000	-0,007	-0,015
-457,270	68,314	0,110	-0,082
-456,255	-35,015	-0,113	-0,045
-455,241	568,689	-0,016	0,029
-454,226	-200,000	0,019	0,091
-453,211	800,000	-0,013	0,029
-452,197	588,794	0,047	0,085
-451,182	-45,517	-0,098	0,035
-450,168	-200,000	-0,002	0,011
-449,153	5,350	-0,046	-0,025
-448,138	-134,827	-0,091	-0,008
-447,124	25,645	0,044	-0,027
-446,109	800,000	-0,038	-0,106
-445,095	38,287	0,031	-0,020
-444,080	-96,101	0,084	-0,016
-443,065	-15,553	-0,138	-0,064
-442,051	515,216	-0,017	-0,029
-441,036	800,000	-0,060	-0,153
-440,022	-200,000	-0,043	-0,146
-439,007	369,831	-0,025	0,038
-437,992	-167,088	-0,121	-0,004
-436,978	6,920	-0,091	0,049
-435,963	243,920	0,106	0,130
-434,949	272,332	-0,052	-0,066
-433,934	97,715	-0,135	-0,112
-432,919	-77,800	-0,093	0,023
-431,905	216,242	0,097	0,112
-430,890	88,281	0,052	0,042
-429,876	294,081	0,082	0,109
-428,861	586,202	-0,069	0,124
-427,846	35,230	-0,035	0,022
-426,832	800,000	0,073	-0,204
-425,817	455,601	-0,103	-0,166
-424,803	301,364	-0,029	-0,040
-423,788	10,303	0,098	-0,054
-422,773	-127,178	0,046	0,005
-421,759	210,884	-0,019	-0,022
-420,744	-150,135	0,038	-0,002
-419,730	800,000	-0,079	-0,173
-418,715	96,133	-0,058	-0,048
-417,701	-200,000	-0,016	-0,080
-416,686	-200,000	0,037	-0,156
-415,671	146,420	0,047	0,046
-414,657	523,319	0,044	-0,076
-413,642	-108,086	0,049	0,008
-412,628	42,791	-0,127	-0,084
-411,613	223,472	-0,062	-0,073
-410,598	-95,208	0,053	-0,010
-409,584	25,457	-0,175	0,105
-408,569	144,855	-0,044	-0,042
-407,555	166,268	-0,050	-0,051
-406,540	-200,000	-0,001	-0,075
-405,525	800,000	-0,023	-0,070
-404,511	0,568	-0,050	0,026
-403,496	230,599	0,062	-0,074
-402,482	28,556	0,105	-0,065
-401,467	-65,454	0,107	0,031
-400,452	602,723	0,099	0,179
-399,438	499,598	0,042	0,071
-398,423	66,239	0,052	0,038
-397,409	-200,000	0,007	0,089
-396,394	-164,803	0,127	0,004
-395,379	-200,000	0,026	-0,088
-394,365	-200,000	-0,003	0,060
-393,350	-200,000	0,013	-0,051
-392,336	-10,045	-0,159	-0,076
-391,321	800,000	0,032	0,076
-390,306	-200,000	-0,025	-0,135
-389,292	-95,897	0,031	0,006
-388,277	-99,912	-0,055	-0,010
-387,263	-72,685	-0,227	0,060
-386,248	38,335	-0,068	-0,044
-385,233	64,440	-0,041	0,030
-384,219	167,784	-0,098	-0,101
-383,204	124,566	0,065	-0,059
-382,190	-200,000	0,016	0,053
-381,175	25,827	-0,093	0,056
-380,160	68,751	0,160	0,119
-379,146	-127,208	0,150	0,016
-378,131	26,578	0,083	-0,050
-377,117	60,745	-0,133	0,095
-376,102	259,867	0,041	0,051
-375,088	-200,000	0,033	0,141
-374,073	385,255	-0,043	0,065
-373,058	-200,000	0,012	0,107
-372,044	-200,000	0,025	0,100
-371,029	-102,659	0,068	-0,012
-370,015	417,730	-0,046	-0,072
-369,000	430,736	0,081	-0,128
-367,985	714,613	0,041	0,079
-366,971	-200,000	-0,013	-0,081
-365,956	-94,856	-0,081	-0,016
-364,942	-200,000	-0,002	0,142
-363,927	2,601	0,115	0,060
-362,912	-200,000	0,004	0,067
-361,898	757,434	-0,056	-0,110
-360,883	622,926	-0,077	-0,141
-359,869	800,000	-0,063	-0,192
-358,854	-134,622	0,116	-0,010
-357,839	-56,927	-0,018	-0,006
-356,825	328,845	0,107	0,150
-355,810	740,241	0,037	0,072
-354,796	-125,597	-0,086	0,009
-353,781	75,855	-0,124	-0,095
-352,766	800,000	-0,031	0,064
-351,752	-200,000	0,002	0,056
-350,737	-200,000	0,003	0,148
-349,723	-84,272	0,055	0,012
-348,708	68,921	0,049	0,037
-347,693	233,784	0,023	-0,027
-346,679	539,128	-0,100	-0,173
-345,664	-200,000	-0,001	0,073
-344,650	370,590	0,061	-0,090
-343,635	-200,000	-0,011	-0,089
-342,620	-94,768	0,120	-0,023
-341,606	16,517	0,134	0,076
-340,591	-200,000	-0,023	-0,162
-339,577	-200,000	0,030	0,120
-338,562	-55,214	-0,064	-0,021
-337,548	-200,000	0,013	0,092
-336,533	-158,603	0,022	0,001
-335,518	-107,058	-0,076	0,012
-334,504	726,602	-0,057	0,111
-333,489	152,748	0,036	0,036
-332,475	-200,000	-0,013	0,058
-331,460	-7,062	0,048	-0,023
-330,445	800,000	0,045	0,099
-329,431	-60,030	0,118	-0,036
-328,416	264,940	-0,047	-0,060
-327,402	-200,000	-0,004	0,042
-326,387	-200,000	-0,016	0,123
-325,372	-59,406	0,109	0,034
-324,358	-200,000	0,037	-0,118
-323,343	-200,000	0,025	-0,097
-322,329	800,000	0,044	0,093
-321,314	-20,714	0,165	0,073
-320,299	-156,094	-0,105	-0,005
-319,285	445,208	0,042	0,067
-318,270	57,574	-0,152	-0,107
-317,256	800,000	0,011	-0,023
-316,241	4,023	-0,230	-0,121
-315,226	-119,772	0,135	0,017
-314,212	145,560	0,020	0,019
-313,197	-76,330	0,063	-0,016
-312,183	-145,377	0,075	0,005
-311,168	800,000	-0,045	0,106
-310,153	363,327	0,068	0,099
-309,139	-121,303	-0,143	-0,017
-308,124	-36,321	0,148	-0,057
-307,110	680,687	-0,013	0,024
-306,095	-200,000	-0,006	0,057
-305,080	62,311	-0,069	0,050
-304,066	-200,000	0,007	0,118
-303,051	-60,661	-0,043	0,013
-302,037	0,640	0,049	-0,025
-301,022	-91,947	-0,076	-0,015
-300,008	518,235	0,036	0,061
-298,993	210,648	0,059	0,068
-297,978	-1,691	0,100	0,051
-296,964	642,217	-0,019	0,035
-295,949	40,078	-0,078	-0,050
-294,935	356,762	0,055	-0,079
-293,920	37,438	0,153	-0,098
-292,905	800,000	0,020	-0,044
-291,891	-200,000	-0,001	-0,172
-290,876	-155,906	-0,109	-0,005
-289,862	248,366	0,051	0,062
-288,847	-200,000	-0,027	-0,259
-287,832	800,000	0,069	0,147
-286,818	296,439	-0,043	-0,057
-285,803	10,476	0,150	0,082
-284,789	800,000	0,025	-0,053
-283,774	-200,000	0,033	-0,117
-282,759	-50,897	0,101	0,034
-281,745	800,000	0,039	-0,105
-280,730	71,273	-0,034	-0,026
-279,716	142,283	-0,075	-0,072
-278,701	-200,000	-0,136	0,000
-277,686	-118,266	0,135	-0,017
-276,672	-200,000	0,002	0,109
-275,657	-155,589	-0,058	-0,003
-274,643	-57,493	-0,116	-0,037
-273,628	-79,162	-0,111	-0,027
-272,613	-200,000	0,040	0,147
-271,599	-200,000	0,016	0,099
-270,584	-200,000	-0,016	0,158
-269,570	-200,000	0,006	0,109
-268,555	-76,946	-0,037	-0,009
-267,540	-200,000	0,019	-0,089
-266,526	800,000	0,059	-0,166
-265,511	-200,000	0,029	-0,132
-264,497	-200,000	-0,004	0,052
-263,482	28,702	0,069	-0,042
-262,467	-154,057	-0,066	0,003
-261,453	-111,113	0,039	0,006
-260,438	392,402	0,062	0,093
-259,424	271,183	-0,047	0,060
-258,409	45,610	-0,109	-0,073
-257,395	-87,831	-0,061	-0,013
-256,380	334,458	0,022	0,030
-255,365	493,852	0,071	0,118
-254,351	102,212	-0,106	-0,089
-253,336	280,219	0,063	0,081
-252,322	-52,968	-0,077	-0,025
-251,307	-77,414	-0,099	-0,025
-250,292	-200,000	-0,013	0,094
-249,278	-200,000	0,001	-0,091
-248,263	800,000	0,013	0,035
-247,249	48,342	-0,046	-0,031
-246,234	271,073	0,073	-0,092
-245,219	-200,000	0,003	-0,023
-244,205	-200,000	-0,009	-0,055
-243,190	102,698	0,018	-0,015
-242,176	-28,268	-0,063	0,026
-241,161	-24,570	-0,075	-0,032
-240,146	36,997	0,053	0,034
-239,132	-88,730	-0,045	0,010
-238,117	-53,480	0,141	0,046
-237,103	152,235	-0,039	-0,038
-236,088	-22,381	0,120	-0,052
-235,073	123,637	0,105	0,095
-234,059	-200,000	0,030	0,139
-233,044	462,760	-0,030	-0,048
-232,030	336,235	0,009	-0,013
-231,015	-87,251	0,092	-0,020
-230,000	124,596	0,055	0,050
-228,986	-118,130	0,096	-0,012
-227,971	-200,000	-0,003	0,054
-226,957	-200,000	0,008	0,137
-225,942	-42,521	0,188	0,069
-224,927	-200,000	0,010	0,037
-223,913	99,839	-0,087	-0,073
-222,898	-200,000	-0,004	-0,024
-221,884	-83,577	-0,165	-0,038
-220,869	485,926	0,068	0,112
-219,855	200,368	-0,116	-0,129
-218,840	141,149	-0,055	-0,052
-217,825	-117,706	-0,082	0,011
-216,811	51,208	0,090	0,061
-215,796	99,646	-0,090	-0,075
-214,782	-151,767	-0,063	-0,003
-213,767	32,967	0,016	-0,010
-212,752	-200,000	0,002	0,015
-211,738	654,141	0,052	-0,096
-210,723	148,127	-0,021	-0,021
-209,709	-139,794	0,104	0,008
-208,694	-200,000	0,013	-0,067
-207,679	74,824	-0,165	0,125
-206,665	0,107	-0,072	0,037
-205,650	691,811	0,043	0,081
-204,636	-51,502	0,103	0,034
-203,621	20,266	-0,038	0,022
-202,606	365,279	0,034	0,049
-201,592	-45,522	-0,046	0,016
-200,577	-159,859	-0,182	-0,007
-199,563	38,982	0,039	0,025
-198,548	-200,000	0,005	0,080
-197,533	613,864	0,059	0,107
-196,519	-200,000	0,016	0,061
-195,504	115,226	-0,067	0,059
-194,490	140,168	-0,083	-0,079
-193,475	800,000	0,032	0,092
-192,460	800,000	0,030	0,072
-191,446	-200,000	-0,012	-0,111
-190,431	-92,987	-0,063	0,013
-189,417	59,667	0,057	0,041
-188,402	-200,000	0,021	0,088
-187,387	-115,383	-0,119	-0,016
-186,373	229,093	-0,027	0,032
-185,358	-200,000	-0,023	0,113
-184,344	-2,334	0,033	0,017
-183,329	800,000	-0,071	0,149
-182,315	-133,141	-0,107	0,010
-181,300	-200,000	-0,024	-0,111
-180,285	-200,000	0,030	-0,127
-179,271	400,936	-0,077	-0,117
-178,256	35,638	-0,093	-0,059
-177,242	-67,090	0,073	0,021
-176,227	41,675	-0,102	-0,066
-175,212	14,858	-0,095	0,053
-174,198	-200,000	0,002	0,071
-173,183	-81,860	-0,163	-0,038
-172,169	421,181	0,003	0,005
-171,154	-162,926	0,080	-0,003
-170,139	-152,736	0,136	-0,007
-169,125	71,928	0,035	-0,026
-168,110	645,923	-0,016	0,030
-167,096	-111,625	-0,086	-0,012
-166,081	-200,000	-0,006	-0,067
-165,066	180,756	0,046	-0,049
-164,052	-200,000	0,028	0,131
-163,037	-134,139	-0,177	-0,015
-162,023	-40,498	0,090	0,033
-161,008	-200,000	-0,014	0,046
-159,993	48,349	0,098	-0,066
-158,979	2,456	-0,123	0,064
-157,964	180,097	0,093	-0,098
-156,950	-57,778	0,082	0,026
-155,935	300,176	-0,022	0,030
-154,920	800,000	-0,017	0,038
-153,906	75,468	0,075	0,057
-152,891	67,445	-0,134	0,099
-151,877	-200,000	-0,010	0,111
-150,862	-59,145	-0,128	0,039
-149,847	-200,000	0,007	-0,169
-148,833	287,033	-0,068	-0,089
-147,818	414,766	-0,100	0,154
-146,804	-78,684	0,112	0,027
-145,789	-200,000	-0,020	0,067
-144,775	-49,182	-0,082	0,028
-143,760	-200,000	0,010	-0,061
-142,745	-200,000	-0,005	-0,229
-141,731	-50,980	-0,046	-0,016
-140,716	-23,960	0,091	0,039
-139,702	-200,000	0,029	0,119
-138,687	111,025	-0,017	0,015
-137,672	-110,793	-0,112	0,016
-136,658	800,000	-0,073	-0,176
-135,643	-200,000	-0,012	-0,099
-134,629	-125,339	0,087	0,009
-133,614	61,609	-0,090	0,064
-132,599	-32,945	0,098	0,039
-131,585	28,328	-0,027	-0,016
-130,570	239,835	-0,074	-0,089
-129,556	-55,298	-0,098	-0,031
-128,541	35,234	0,009	0,005
-127,526	268,050	0,021	-0,026
-126,512	623,955	0,020	0,037
-125,497	-200,000	0,053	0,238
-124,483	-200,000	-0,050	0,164
-123,468	258,712	-0,100	0,124
-122,453	-60,854	-0,100	0,030
-121,439	-200,000	0,000	-0,158
-120,424	113,208	0,019	0,016
-119,410	-200,000	0,017	0,145
-118,395	21,596	0,044	-0,025
-117,380	-2,820	0,091	-0,045
-116,366	-114,415	-0,061	0,008
-115,351	160,034	-0,053	-0,053
-114,337	800,000	-0,046	0,092
-113,322	425,635	-0,090	-0,139
-112,307	-100,797	0,135	-0,024
-111,293	-200,000	0,017	0,143
-110,278	-124,470	0,087	0,010
-109,264	-200,000	0,007	-0,032
-108,249	25,059	-0,074	-0,044
-107,234	-200,000	0,004	0,017
-106,220	56,357	-0,025	-0,018
-105,205	31,247	0,059	-0,036
-104,191	216,498	0,051	-0,058
-103,176	-127,519	0,129	-0,013
-102,162	689,043	0,051	-0,097
-101,147	-200,000	0,025	0,084
-100,132	-39,099	-0,139	0,052
-99,118	199,781	-0,046	-0,051
-98,103	108,743	0,055	0,047
-97,089	-77,241	-0,094	-0,023
-96,074	210,563	-0,047	-0,053
-95,059	-165,901	-0,088	-0,003
-94,045	429,908	0,160	-0,250
-93,030	-73,169	-0,086	0,022
-92,016	-109,283	-0,187	-0,028
-91,001	28,649	0,072	-0,044
-89,986	28,555	-0,028	0,017
-88,972	250,842	0,071	0,087
-87,957	88,626	-0,078	0,062
-86,943	-200,000	0,007	-0,028
-85,928	-62,618	-0,119	0,035
-84,913	-200,000	0,030	0,118
-83,899	-200,000	0,018	0,082
-82,884	494,631	-0,061	0,101
-81,870	-133,186	0,082	0,007
-80,855	-46,344	0,098	0,034
-79,840	235,773	-0,037	-0,043
-78,826	126,757	-0,048	-0,043
-77,811	800,000	-0,089	-0,196
-76,797	-200,000	-0,001	-0,008
-75,782	-200,000	0,006	-0,046
-74,767	-139,415	0,058	0,004
-73,753	105,438	0,046	-0,039
-72,738	-122,276	0,070	0,008
-71,724	209,534	-0,027	-0,030
-70,709	800,000	0,035	-0,106
-69,694	-144,431	0,047	0,003
-68,680	800,000	0,041	-0,112
-67,665	33,493	0,104	0,064
-66,651	-200,000	-0,020	-0,102
-65,636	-200,000	0,002	0,091
-64,622	800,000	-0,007	0,019
-63,607	-9,304	-0,043	-0,020
-62,592	21,276	-0,069	-0,040
-61,578	-134,485	-0,104	-0,009
-60,563	-200,000	0,005	0,150
-59,549	-200,000	0,007	0,171
-58,534	21,124	-2,311	-1,340
-57,519	-200,000	-0,006	-0,741
-56,505	-200,000	-1,380	-5,159
-55,490	53,939	0,912	0,627
-54,476	800,000	5,422	12,104
-53,461	-200,000	18,357	300,211
-52,446	800,000	732,968	2248,264
-51,432	532,929	1645,859	2801,097
-50,417	107,324	1633,566	1390,598
-49,403	71,239	1284,499	952,965
-48,388	29,980	1025,353	624,478
-47,373	19,680	987,545	567,580
-46,359	17,586	974,959	553,486
-45,344	14,410	971,247	541,002
-44,330	14,649	969,903	541,009
-43,315	14,107	967,709	538,001
-42,300	14,115	966,685	537,437
-41,286	14,015	965,988	536,704
-40,271	14,082	964,839	536,259
-39,257	14,034	964,100	535,672
-38,242	14,025	963,226	535,138
-37,227	14,085	962,528	534,922
-36,213	14,128	961,289	534,349
-35,198	14,028	960,699	533,677
-34,184	14,124	959,851	533,496
-33,169	14,057	958,897	532,730
-32,154	14,161	957,952	532,517
-31,140	14,094	956,969	531,733
-30,125	14,104	956,393	531,427
-29,111	14,048	955,533	530,748
-28,096	14,083	954,850	530,457
-27,082	14,028	954,285	529,948
-26,067	14,083	953,509	529,671
-25,052	14,148	952,533	529,317
-24,038	14,050	952,139	528,761
-23,023	14,100	951,340	528,458
-22,009	14,116	950,783	528,178
-20,994	14,046	950,172	527,593
-19,979	14,039	949,496	527,175
-18,965	14,086	948,797	526,918
-17,950	14,085	948,076	526,493
-16,936	14,027	947,576	526,009
-15,921	14,017	946,824	525,540
-14,906	13,962	946,139	524,962
-13,892	13,949	945,649	524,628
-12,877	13,988	944,802	524,263
-11,863	13,991	944,216	523,926
-10,848	13,948	943,694	523,480
-9,833	14,004	943,423	523,484
-8,819	14,119	942,616	523,379
-7,804	13,970	942,096	522,600
-6,790	14,042	941,313	522,371
-5,775	14,079	940,760	522,161
-4,760	13,996	940,090	521,508
-3,746	13,961	939,523	521,063
-2,731	13,809	939,025	520,285
-1,717	13,838	938,130	519,860
-0,702	13,822	937,440	519,407
0,313	13,625	936,974	519,314
1,327	17,129	934,777	529,050
2,342	26,377	787,540	469,983
3,356	23,001	443,920	259,911
4,371	-5,848	296,724	144,820
5,386	-9,757	278,577	132,234
6,400	-10,851	272,725	128,425
7,415	-10,698	270,313	127,420
8,429	-11,111	268,903	126,364
9,444	-11,162	268,012	125,887
10,459	-11,040	267,395	125,697
11,473	-11,238	266,684	125,172
12,488	-11,275	266,253	124,925
13,502	-11,690	265,660	124,259
14,517	-11,626	265,251	124,115
15,531	-11,662	264,791	123,856
16,546	-11,678	264,388	123,641
17,561	-11,584	264,002	123,535
18,575	-11,501	263,648	123,434
19,590	-11,573	263,365	123,225
20,604	-11,548	263,106	123,116
21,619	-11,705	262,668	122,758
22,634	-11,753	262,392	122,576
23,648	-11,871	262,068	122,307
24,663	-11,746	261,749	122,259
25,677	-11,824	261,558	122,090
26,692	-11,693	261,388	122,116
27,707	-11,824	260,994	121,804
28,721	-11,745	260,702	121,728
29,736	-11,734	260,342	121,559
30,750	-11,790	259,989	121,334
31,765	-11,862	259,870	121,203
32,780	-11,732	259,699	121,228
33,794	-11,971	259,415	120,873
34,809	-11,860	259,161	120,842
35,823	-12,001	258,936	120,602
36,838	-11,861	258,669	120,590
37,853	-12,004	258,492	120,371
38,867	-11,773	258,163	120,410
39,882	-12,023	258,103	120,152
40,896	-12,093	257,832	119,953
41,911	-11,933	257,467	119,913
42,926	-12,086	257,206	119,647
43,940	-12,029	257,020	119,600
44,955	-12,155	256,765	119,360
45,969	-12,060	256,414	119,269
46,984	-12,129	256,118	119,061
47,999	-12,508	255,838	118,590
49,013	-12,303	255,708	118,697
50,028	-12,599	255,478	118,323
51,042	-12,891	255,058	117,864
52,057	-12,538	254,835	118,056
53,071	-12,610	254,844	117,988
54,086	-12,449	254,600	118,003
55,101	-12,389	254,441	117,972
56,115	-12,195	254,305	118,066
57,130	-11,818	254,194	118,330
58,144	-11,506	254,142	118,565
59,159	-11,465	253,865	118,461
60,174	-11,550	253,769	118,332
61,188	-11,686	253,538	118,097
62,203	-11,470	253,188	118,109
63,217	-11,643	252,994	117,859
64,232	-11,688	252,906	117,768
65,247	-11,652	252,657	117,673
66,261	-11,720	252,476	117,520
67,276	-11,904	251,942	117,103
68,290	-12,203	251,671	116,711
69,305	-12,249	251,729	116,688
70,320	-12,285	251,325	116,460
71,334	-11,923	251,375	116,782
72,349	-11,739	251,128	116,814
73,363	-11,592	251,046	116,890
74,378	-11,730	250,700	116,601
75,393	-11,604	250,599	116,651
76,407	-11,711	250,263	116,394
77,422	-11,753	250,184	116,310
78,436	-11,494	249,885	116,381
79,451	-11,732	249,763	116,112
80,466	-11,859	249,439	115,843
81,480	-11,936	249,154	115,636
82,495	-12,035	248,953	115,448
83,509	-11,876	248,854	115,526
84,524	-11,997	248,592	115,292
85,539	-12,153	248,383	115,053
86,553	-12,345	248,135	114,767
87,568	-12,104	248,030	114,911
88,582	-12,108	247,757	114,771
89,597	-12,013	247,583	114,760
90,611	-11,868	247,564	114,862
91,626	-11,620	247,161	114,874
92,641	-11,823	247,298	114,757
93,655	-11,810	246,754	114,505
94,670	-12,065	246,618	114,218
95,684	-11,791	246,315	114,296
96,699	-11,809	246,343	114,284
97,714	-11,825	246,066	114,132
98,728	-12,198	245,843	113,708
99,743	-12,277	245,703	113,567
100,757	-12,149	245,322	113,488
101,772	-12,226	245,266	113,387
102,787	-11,903	245,070	113,555
103,801	-11,958	244,999	113,466
104,816	-11,830	244,690	113,419
105,830	-11,701	244,609	113,478
106,845	-11,567	244,545	113,550
107,860	-11,714	244,165	113,241
108,874	-11,839	244,159	113,125
109,889	-12,152	243,927	112,749
110,903	-11,949	243,615	112,762
111,918	-11,755	243,548	112,881
112,933	-11,697	243,240	112,776
113,947	-11,677	243,086	112,711
114,962	-11,743	242,973	112,595
115,976	-11,812	242,937	112,511
116,991	-11,664	242,614	112,472
118,006	-11,792	242,412	112,264
119,020	-11,652	242,171	112,257
120,035	-11,728	242,228	112,211
121,049	-11,659	242,056	112,178
122,064	-11,931	241,778	111,817
123,079	-11,738	241,647	111,904
124,093	-11,836	241,276	111,642
125,108	-12,153	241,076	111,281
126,122	-12,199	240,959	111,179
127,137	-12,292	240,717	110,983
128,151	-12,184	240,570	110,993
129,166	-11,977	240,432	111,087
130,181	-12,043	240,139	110,889
131,195	-12,145	240,049	110,754
132,210	-12,058	239,829	110,714
133,224	-11,840	239,637	110,791
134,239	-11,869	239,591	110,737
135,254	-11,743	239,412	110,746
136,268	-12,076	239,269	110,401
137,283	-12,141	238,934	110,184
138,297	-12,324	238,680	109,910
139,312	-12,397	238,476	109,747
140,327	-11,976	238,512	110,093
141,341	-11,562	238,463	110,394
142,356	-11,488	238,218	110,330
143,370	-11,432	238,165	110,341
144,385	-11,294	237,855	110,298
145,400	-11,348	237,765	110,204
146,414	-11,518	237,633	109,996
147,429	-11,329	237,254	109,962
148,443	-11,449	237,180	109,822
149,458	-11,499	237,085	109,728
150,473	-11,665	236,912	109,506
151,487	-11,598	236,616	109,413
152,502	-11,618	236,688	109,420
153,516	-11,334	236,303	109,459
154,531	-11,551	236,311	109,279
155,546	-11,364	235,979	109,265
156,560	-11,674	235,716	108,888
157,575	-11,743	235,634	108,785
158,589	-11,701	235,486	108,740
159,604	-11,468	235,476	108,911
160,619	-11,477	235,159	108,748
161,633	-11,401	235,017	108,732
162,648	-11,293	234,898	108,753
163,662	-11,360	234,566	108,537
164,677	-11,334	234,493	108,514
165,692	-11,382	234,381	108,415
166,706	-11,294	234,327	108,449
167,721	-11,450	234,183	108,250
168,735	-11,236	234,041	108,343
169,750	-11,111	233,849	108,343
170,764	-11,311	233,739	108,125
171,779	-11,134	233,524	108,155
172,794	-11,278	233,403	107,976
173,808	-11,390	233,185	107,778
174,823	-11,817	232,824	107,266
175,837	-12,041	232,614	106,984
176,852	-11,470	232,626	107,427
177,867	-11,406	232,512	107,416
178,881	-11,441	232,382	107,319
179,896	-11,493	232,303	107,233
180,910	-11,211	232,093	107,346
181,925	-11,365	231,956	107,152
182,940	-11,143	231,756	107,224
183,954	-11,217	231,544	107,059
184,969	-11,158	231,449	107,052
185,983	-11,329	231,353	106,864
186,998	-11,006	231,205	107,037
188,013	-11,011	230,978	106,919
189,027	-11,351	230,878	106,599
190,042	-11,137	230,697	106,672
191,056	-11,276	230,459	106,445
192,071	-11,287	230,356	106,379
193,086	-10,981	230,140	106,507
194,100	-10,966	230,204	106,538
195,115	-10,707	229,881	106,579
196,129	-10,124	230,130	107,136
197,144	-5,023	231,824	111,882
198,159	0,088	233,133	116,491
199,173	2,434	233,928	118,710
200,188	2,775	233,835	118,918
201,202	2,663	233,787	118,796
202,217	3,141	233,690	119,108
203,232	3,260	233,563	119,125
204,246	3,506	233,499	119,273
205,261	3,418	233,351	119,119
206,275	3,706	233,124	119,216
207,290	3,850	233,102	119,306
208,304	3,429	232,992	118,912
209,319	3,527	232,732	118,845
210,334	3,359	232,628	118,652
211,348	3,379	232,260	118,468
212,363	3,439	231,919	118,330
213,377	2,715	231,773	117,687
214,392	2,858	231,664	117,731
215,407	2,831	231,536	117,635
216,421	2,858	231,508	117,630
217,436	2,796	231,299	117,466
218,450	2,684	230,971	117,203
219,465	2,625	230,852	117,088
220,480	2,765	230,689	117,102
221,494	2,777	230,691	117,101
222,509	2,745	230,742	117,092
223,523	2,997	230,549	117,177
224,538	2,926	230,214	116,942
225,553	2,883	230,024	116,802
226,567	3,110	230,009	116,957
227,582	3,272	229,800	116,965
228,596	3,363	229,819	117,034
229,611	2,886	229,498	116,496
230,626	2,692	229,189	116,181
231,640	2,721	229,153	116,174
232,655	3,142	228,951	116,382
233,669	3,489	228,955	116,638
234,684	3,422	228,801	116,497
235,699	3,268	228,729	116,334
236,713	2,916	228,526	115,952
237,728	2,850	228,298	115,777
238,742	2,871	228,074	115,668
239,757	2,969	227,981	115,685
240,772	2,915	227,710	115,497
241,786	2,839	227,582	115,364
242,801	2,962	227,625	115,468
243,815	3,403	227,605	115,781
244,830	3,438	227,271	115,627
245,844	2,926	227,135	115,162
246,859	2,957	226,924	115,068
247,874	3,074	226,949	115,158
248,888	3,083	226,767	115,063
249,903	3,037	226,502	114,884
250,917	2,999	226,382	114,784
251,932	3,069	226,121	114,693
252,947	2,890	225,883	114,429
253,961	2,581	225,936	114,213
254,976	2,868	225,720	114,309
255,990	3,174	225,710	114,523
257,005	3,227	225,427	114,409
258,020	3,021	225,454	114,258
259,034	3,214	225,446	114,388
260,049	3,285	225,181	114,297
261,063	3,122	224,806	113,974
262,078	3,377	224,754	114,128
263,093	3,409	224,735	114,132
264,107	3,421	224,665	114,095
265,122	3,247	224,426	113,834
266,136	3,404	224,308	113,881
267,151	3,256	224,240	113,727
268,166	2,978	223,875	113,325
269,180	2,772	223,745	113,096
270,195	2,852	223,561	113,053
271,209	2,766	223,383	112,888
272,224	2,766	223,305	112,839
273,239	2,902	223,274	112,914
274,253	2,933	222,945	112,760
275,268	2,679	222,740	112,460
276,282	2,736	222,648	112,445
277,297	2,599	222,524	112,271
278,312	2,917	222,299	112,382
279,326	3,062	222,219	112,438
280,341	3,055	222,177	112,401
281,355	2,860	222,056	112,187
282,370	2,881	221,908	112,118
283,384	2,690	221,695	111,860
284,399	2,641	221,554	111,743
285,414	2,751	221,296	111,683
286,428	2,878	221,353	111,796
287,443	3,281	221,176	111,991
288,457	3,006	221,143	111,763
289,472	2,806	220,837	111,452
290,487	2,604	220,619	111,185
291,501	2,396	220,416	110,921
292,516	2,712	220,200	111,032
293,530	2,881	220,227	111,159
294,545	2,659	220,146	110,947
295,560	2,846	220,068	111,033
296,574	2,906	219,900	110,982
297,589	2,983	219,687	110,921
298,603	2,980	219,712	110,922
299,618	3,083	219,477	110,868
300,633	2,844	219,424	110,658
301,647	3,036	219,397	110,774
302,662	3,159	219,204	110,755
303,676	3,271	219,002	110,725
304,691	3,154	218,796	110,526
305,706	3,220	218,704	110,517
306,720	3,527	218,494	110,623
307,735	2,747	218,536	110,071
308,749	2,656	218,281	109,868
309,764	2,942	218,156	110,001
310,779	3,184	217,992	110,083
311,793	3,026	217,818	109,871
312,808	3,238	217,659	109,934
313,822	2,971	217,527	109,665
314,837	2,981	217,303	109,550
315,852	2,706	217,171	109,276
316,866	2,757	217,171	109,303
317,881	2,999	217,147	109,454
318,895	3,059	216,803	109,315
319,910	2,902	216,571	109,075
320,925	2,770	216,345	108,858
321,939	2,401	216,247	108,536
322,954	2,579	216,204	108,632
323,968	3,009	216,174	108,913
324,983	3,236	216,076	109,015
325,997	3,164	216,053	108,943
327,012	3,033	215,803	108,714
328,027	2,889	215,746	108,573
329,041	3,066	215,575	108,604
330,056	2,865	215,445	108,386
331,070	2,977	214,995	108,229
332,085	2,410	214,851	107,745
333,100	2,655	214,665	107,816
334,114	3,100	214,756	108,167
335,129	3,226	214,548	108,142
336,143	2,888	214,596	107,917
337,158	2,804	214,503	107,801
338,173	2,950	214,147	107,715
339,187	3,148	213,998	107,770
340,202	3,000	213,763	107,538
341,216	2,746	213,772	107,354
342,231	2,671	213,699	107,255
343,246	2,680	213,484	107,144
344,260	2,675	213,509	107,144
345,275	2,960	213,307	107,233
346,289	3,057	213,257	107,267
347,304	3,133	213,050	107,206
348,319	2,871	212,885	106,930
349,333	2,744	212,826	106,801
350,348	3,072	212,590	106,903
351,362	3,200	212,634	107,006
352,377	3,072	212,420	106,799
353,392	3,135	212,312	106,779
354,406	3,189	212,019	106,659
355,421	197,109	1336,092	1415,591
356,435	157,548	1473,002	1415,535
