DTS Sentinel unit serial number:	SN410029Multiplexer serial number:	ORYXHardware model number:	OX2-SRSoftware version number:	ORYX F/W v4,00 Oryx Data Collector v3.7.2.0data status	okinstallation	B6 Nyhavnadifferential loss correction	single-endedforward channel	channel 2reverse channel	N/Adate	2023/12/08time	01:55:08forward acquisition time	300,00reverse acquisition time	0,00gamma	499,1914k internal	0,3165k external	0,3165temperature offset calibration	1,0000default loss term (dB/km)	0,3820temperature slope calibration	1,0000multiplexer offset coefficient	1,0000multiplexer slope coefficient	1,0000fibre end	0,00T internal ref (°C)	13,20T ext. ref 1 (°C)	-3,67T ext. ref 2 (°C)	-3,66length (m)	temperature (°C)	Stokes	anti-Stokes-744,400	-63,772	0,164	0,049
-743,385	-92,025	-0,317	-0,065
-742,371	172,044	0,128	-0,136
-741,356	-109,637	-0,305	0,047
-740,342	800,000	0,040	0,083
-739,327	-124,936	-0,246	-0,028
-738,312	28,158	0,134	0,083
-737,298	-73,762	-0,249	0,066
-736,283	172,010	0,150	0,158
-735,269	-110,428	-0,312	-0,047
-734,254	-32,837	0,098	0,040
-733,239	-19,503	-0,455	-0,207
-732,225	-37,240	0,132	0,051
-731,210	134,553	0,056	0,053
-730,196	-101,633	-0,038	0,007
-729,181	-19,928	-0,109	-0,049
-728,167	-200,000	0,009	0,113
-727,152	-53,848	-0,170	-0,057
-726,137	-152,476	-0,080	-0,004
-725,123	6,232	-0,019	-0,010
-724,108	-200,000	-0,008	-0,026
-723,094	176,725	0,019	0,021
-722,079	729,230	-0,045	-0,089
-721,064	139,270	0,031	0,030
-720,050	333,761	-0,031	-0,045
-719,035	800,000	0,054	-0,126
-718,021	193,491	-0,132	0,147
-717,006	156,188	-0,056	-0,057
-715,991	191,264	0,059	-0,065
-714,977	3,352	-0,173	0,092
-713,962	239,785	0,043	-0,053
-712,948	-34,823	-0,107	-0,043
-711,933	198,939	0,046	0,051
-710,918	386,444	-0,020	0,030
-709,904	-200,000	-0,004	-0,181
-708,889	325,453	-0,035	-0,049
-707,875	290,538	0,126	-0,169
-706,860	288,319	0,103	-0,137
-705,845	14,556	-0,118	0,067
-704,831	-55,840	0,053	0,017
-703,816	-200,000	-0,004	-0,057
-702,802	723,002	-0,031	-0,061
-701,787	47,161	-0,062	-0,042
-700,772	-200,000	0,018	-0,080
-699,758	11,168	-0,133	-0,074
-698,743	-51,643	-0,066	0,022
-697,729	355,910	0,047	-0,069
-696,714	104,936	0,025	-0,022
-695,699	-76,939	-0,080	-0,020
-694,685	193,753	-0,096	-0,107
-693,670	-200,000	-0,002	-0,044
-692,656	-200,000	0,022	-0,106
-691,641	-200,000	-0,003	0,124
-690,627	-200,000	-0,002	-0,023
-689,612	800,000	-0,053	0,123
-688,597	-200,000	0,005	0,101
-687,583	-54,173	0,058	-0,019
-686,568	-94,095	0,121	-0,024
-685,554	150,006	-0,067	0,067
-684,539	126,262	-0,154	-0,143
-683,524	2,867	-0,047	-0,025
-682,510	-200,000	-0,020	-0,224
-681,495	-52,587	0,114	0,038
-680,481	84,925	0,022	0,018
-679,466	800,000	-0,014	-0,032
-678,451	-200,000	0,027	-0,094
-677,437	800,000	0,034	-0,077
-676,422	-25,031	0,018	-0,008
-675,408	-34,823	0,018	-0,007
-674,393	-21,267	-0,184	0,082
-673,378	68,933	-0,102	-0,077
-672,364	417,988	-0,063	0,099
-671,349	111,224	-0,065	-0,057
-670,335	20,776	-0,045	0,027
-669,320	239,128	0,068	-0,083
-668,305	800,000	0,010	-0,020
-667,291	-200,000	0,016	0,123
-666,276	79,540	0,067	-0,053
-665,262	377,502	-0,029	-0,044
-664,247	-200,000	-0,001	0,034
-663,232	221,421	-0,054	0,064
-662,218	-152,200	0,114	0,006
-661,203	800,000	0,011	0,026
-660,189	-43,655	0,170	0,062
-659,174	72,287	-0,145	-0,111
-658,159	800,000	0,040	-0,084
-657,145	-200,000	-0,002	-0,070
-656,130	-132,198	0,139	-0,013
-655,116	-49,200	0,202	0,070
-654,101	-172,291	0,141	0,003
-653,086	229,486	-0,095	-0,114
-652,072	660,900	0,051	-0,097
-651,057	334,039	-0,069	0,099
-650,043	-115,630	0,105	0,014
-649,028	109,598	0,071	-0,063
-648,014	341,779	-0,032	0,046
-646,999	18,584	0,089	0,052
-645,984	-36,576	0,104	-0,041
-644,970	86,553	-0,064	0,052
-643,955	327,470	-0,045	-0,063
-642,941	-200,000	0,005	-0,157
-641,926	800,000	0,010	0,025
-640,911	-200,000	0,024	0,125
-639,897	37,742	-0,135	0,088
-638,882	-50,220	-0,052	-0,018
-637,868	800,000	-0,018	-0,047
-636,853	-200,000	-0,037	-0,132
-635,838	216,600	-0,042	0,049
-634,824	800,000	0,030	0,093
-633,809	-133,782	-0,029	0,003
-632,795	-92,021	0,024	-0,005
-631,780	31,891	-0,023	-0,015
-630,765	-200,000	0,014	0,088
-629,751	319,963	-0,065	0,090
-628,736	-200,000	0,012	0,068
-627,722	-60,689	-0,070	-0,022
-626,707	-200,000	-0,008	0,039
-625,692	374,233	0,047	-0,071
-624,678	800,000	0,040	-0,104
-623,663	30,496	-0,044	-0,028
-622,649	190,349	-0,130	0,143
-621,634	353,809	-0,099	-0,144
-620,619	142,634	0,059	-0,057
-619,605	145,630	0,141	-0,139
-618,590	-75,084	-0,091	-0,024
-617,576	800,000	0,049	-0,122
-616,561	-69,314	-0,092	-0,026
-615,546	517,006	-0,041	-0,070
-614,532	384,072	0,032	0,048
-613,517	-2,114	-0,138	-0,071
-612,503	-200,000	-0,051	0,165
-611,488	800,000	0,035	-0,075
-610,474	247,620	0,101	0,125
-609,459	800,000	0,024	-0,074
-608,444	-7,522	-0,050	-0,025
-607,430	-144,824	0,082	-0,005
-606,415	-121,047	-0,108	0,013
-605,401	-200,000	0,016	0,086
-604,386	86,962	0,100	0,081
-603,371	800,000	0,043	0,104
-602,357	800,000	-0,023	-0,066
-601,342	358,058	-0,085	-0,125
-600,328	134,419	0,039	-0,037
-599,313	-3,069	0,108	0,055
-598,298	-200,000	-0,003	-0,026
-597,284	-80,264	0,089	0,022
-596,269	-200,000	-0,001	-0,180
-595,255	-200,000	0,009	-0,060
-594,240	105,920	0,065	-0,057
-593,225	-65,044	-0,050	-0,015
-592,211	307,649	-0,010	0,014
-591,196	-200,000	-0,012	-0,100
-590,182	382,667	0,044	-0,067
-589,167	-140,118	-0,070	0,005
-588,152	-21,060	-0,081	0,036
-587,138	800,000	-0,030	-0,076
-586,123	-200,000	-0,010	-0,056
-585,109	-69,215	-0,025	-0,007
-584,094	-118,728	-0,037	-0,005
-583,079	98,671	0,154	0,130
-582,065	-200,000	0,007	0,079
-581,050	341,745	-0,011	0,016
-580,036	-112,324	0,031	-0,004
-579,021	-6,434	-0,108	0,054
-578,006	115,324	-0,046	-0,041
-576,992	-126,713	-0,087	-0,009
-575,977	534,877	-0,056	-0,097
-574,963	800,000	0,020	0,049
-573,948	98,300	-0,136	0,114
-572,934	-200,000	0,000	0,023
-571,919	-144,322	-0,086	0,006
-570,904	342,211	-0,105	-0,151
-569,890	686,474	-0,077	-0,147
-568,875	165,873	-0,038	0,040
-567,861	-22,187	-0,160	-0,071
-566,846	89,060	0,093	-0,075
-565,831	-54,686	-0,119	-0,039
-564,817	541,118	0,062	0,108
-563,802	-200,000	0,023	0,086
-562,788	37,552	0,069	0,045
-561,773	214,211	-0,026	-0,030
-560,758	269,924	0,152	0,196
-559,744	-200,000	-0,018	0,109
-558,729	-27,018	-0,084	-0,036
-557,715	-200,000	0,009	0,036
-556,700	187,314	-0,113	-0,123
-555,685	125,092	-0,037	-0,034
-554,671	800,000	0,066	-0,148
-553,656	185,987	-0,064	0,070
-552,642	-56,576	0,082	0,026
-551,627	800,000	-0,044	-0,132
-550,612	800,000	-0,044	-0,093
-549,598	612,839	0,053	0,098
-548,583	800,000	0,026	-0,069
-547,569	-200,000	-0,014	0,082
-546,554	-82,934	0,127	-0,030
-545,539	-76,166	0,087	0,022
-544,525	-200,000	0,011	0,045
-543,510	-200,000	0,032	-0,131
-542,496	103,923	-0,127	0,109
-541,481	465,166	-0,053	-0,087
-540,466	241,529	-0,062	-0,075
-539,452	-200,000	0,127	0,000
-538,437	768,722	0,023	0,045
-537,423	-200,000	0,033	0,166
-536,408	25,701	-0,085	-0,051
-535,393	213,213	0,061	0,071
-534,379	124,064	-0,065	0,059
-533,364	-8,565	0,010	-0,005
-532,350	9,955	-0,030	0,017
-531,335	86,173	0,029	-0,024
-530,321	5,367	0,187	-0,100
-529,306	95,686	-0,068	-0,057
-528,291	120,358	0,067	0,061
-527,277	-48,586	-0,171	-0,060
-526,262	657,355	-0,058	0,109
-525,248	-200,000	0,013	0,131
-524,233	45,303	0,072	0,048
-523,218	800,000	-0,023	0,057
-522,204	310,964	-0,026	-0,036
-521,189	496,731	-0,140	-0,236
-520,175	-84,563	-0,087	0,020
-519,160	-200,000	-0,017	0,073
-518,145	274,451	0,093	0,121
-517,131	-72,923	0,197	0,052
-516,116	-200,000	0,001	0,005
-515,102	24,298	0,104	-0,063
-514,087	800,000	-0,056	-0,115
-513,072	6,350	-0,071	-0,038
-512,058	-86,597	0,112	0,025
-511,043	-21,429	0,127	0,056
-510,029	800,000	0,022	0,059
-509,014	26,352	-0,014	0,008
-507,999	-200,000	-0,012	-0,115
-506,985	14,451	-0,142	-0,081
-505,970	800,000	0,046	-0,141
-504,956	-200,000	0,002	-0,117
-503,941	250,475	-0,063	-0,078
-502,926	42,904	0,120	-0,080
-501,912	800,000	0,051	0,104
-500,897	800,000	-0,018	-0,047
-499,883	-200,000	0,039	-0,172
-498,868	-31,691	-0,077	-0,031
-497,853	-200,000	0,008	-0,065
-496,839	414,668	-0,028	-0,044
-495,824	538,185	-0,032	0,056
-494,810	319,058	0,025	-0,035
-493,795	358,095	-0,035	-0,051
-492,781	-5,140	0,111	-0,055
-491,766	66,358	-0,039	-0,029
-490,751	-200,000	0,001	-0,064
-489,737	-200,000	-0,010	0,063
-488,722	312,898	0,129	0,177
-487,708	-29,728	-0,109	0,045
-486,693	-127,451	-0,064	0,007
-485,678	800,000	0,044	0,106
-484,664	800,000	-0,013	-0,032
-483,649	800,000	0,054	-0,137
-482,635	-200,000	-0,179	-0,001
-481,620	-60,795	0,236	0,072
-480,605	174,391	-0,055	0,058
-479,591	-200,000	0,033	0,149
-478,576	172,732	-0,126	0,132
-477,562	800,000	0,007	-0,016
-476,547	800,000	0,059	-0,126
-475,532	800,000	-0,047	-0,109
-474,518	26,147	-0,051	0,031
-473,503	276,813	0,054	0,070
-472,489	800,000	-0,026	0,066
-471,474	-200,000	-0,007	-0,097
-470,459	11,038	0,063	0,035
-469,445	146,153	0,078	0,076
-468,430	800,000	0,005	0,014
-467,416	274,434	0,071	-0,092
-466,401	-200,000	0,020	0,081
-465,386	-200,000	0,025	0,106
-464,372	-0,268	-0,058	-0,030
-463,357	-200,000	-0,015	0,059
-462,343	-52,714	-0,215	-0,072
-461,328	612,228	0,021	0,038
-460,313	-81,904	0,051	-0,012
-459,299	667,386	-0,054	0,102
-458,284	-200,000	-0,015	0,054
-457,270	-200,000	-0,017	-0,166
-456,255	-200,000	0,002	0,040
-455,241	102,365	-0,069	-0,058
-454,226	-200,000	-0,021	-0,068
-453,211	71,922	-0,086	-0,065
-452,197	600,990	0,062	0,112
-451,182	800,000	0,059	0,139
-450,168	-94,951	-0,034	-0,007
-449,153	-98,568	0,108	0,020
-448,138	38,471	-0,091	-0,059
-447,124	-164,926	-0,078	0,002
-446,109	-125,957	0,071	0,008
-445,095	161,255	0,059	0,060
-444,080	131,568	-0,023	-0,021
-443,065	-135,522	0,043	-0,004
-442,051	-98,629	0,021	0,004
-441,036	-200,000	-0,021	-0,121
-440,022	-46,176	-0,080	-0,029
-439,007	610,845	0,063	-0,116
-437,992	7,067	0,108	0,058
-436,978	18,015	-0,062	0,036
-435,963	-200,000	-0,010	0,078
-434,949	-91,125	-0,112	0,023
-433,934	-81,764	0,138	0,033
-432,919	132,347	-0,117	-0,110
-431,905	187,098	0,085	-0,092
-430,890	340,162	-0,021	-0,030
-429,876	206,483	0,061	-0,069
-428,861	-200,000	-0,080	-0,000
-427,846	100,859	0,092	0,078
-426,832	-89,370	-0,148	0,031
-425,817	565,192	0,044	-0,078
-424,803	278,228	-0,031	0,040
-423,788	692,995	0,117	0,223
-422,773	539,350	-0,034	0,059
-421,759	-198,836	0,044	0,000
-420,744	-200,000	-0,008	0,056
-419,730	112,161	-0,075	-0,066
-418,715	-200,000	0,002	-0,022
-417,701	234,262	0,077	0,092
-416,686	702,750	-0,035	0,068
-415,671	-84,794	0,159	-0,036
-414,657	-83,737	-0,130	0,030
-413,642	132,118	-0,081	-0,076
-412,628	612,205	0,057	-0,104
-411,613	-141,965	-0,105	-0,007
-410,598	253,224	0,015	0,019
-409,584	779,713	0,063	-0,127
-408,569	-200,000	-0,019	0,123
-407,555	241,652	-0,008	0,010
-406,540	6,881	-0,152	-0,082
-405,525	-121,297	0,189	-0,023
-404,511	174,627	0,031	-0,033
-403,496	-200,000	0,020	-0,100
-402,482	-173,416	0,100	0,002
-401,467	-200,000	0,010	-0,064
-400,452	51,850	0,081	0,056
-399,438	-200,000	-0,011	0,049
-398,423	9,223	-0,090	-0,049
-397,409	-128,526	-0,175	-0,018
-396,394	306,240	-0,055	0,075
-395,379	193,629	-0,018	-0,020
-394,365	-24,938	0,127	0,055
-393,350	-114,944	-0,106	-0,014
-392,336	217,173	0,087	0,101
-391,321	-37,277	-0,047	-0,018
-390,306	-129,298	0,079	-0,008
-389,292	465,875	-0,068	-0,111
-388,277	-200,000	0,008	-0,031
-387,263	-200,000	-0,002	0,056
-386,248	-111,354	-0,013	-0,002
-385,233	528,113	0,033	-0,057
-384,219	-5,905	-0,024	-0,012
-383,204	68,749	0,049	-0,037
-382,190	-142,968	-0,045	0,003
-381,175	-60,428	-0,082	0,025
-380,160	800,000	0,017	-0,035
-379,146	800,000	0,029	0,070
-378,131	253,786	0,095	0,118
-377,117	-200,000	0,010	0,103
-376,102	800,000	0,029	-0,062
-375,088	-200,000	-0,005	0,027
-374,073	67,232	0,057	-0,042
-373,058	-200,000	-0,005	0,041
-372,044	62,002	0,074	0,053
-371,029	800,000	0,019	0,048
-370,015	576,072	0,058	0,103
-369,000	11,602	0,093	0,052
-367,985	-200,000	0,008	-0,046
-366,971	-130,209	-0,074	-0,007
-365,956	-200,000	0,018	-0,060
-364,942	-200,000	0,009	0,096
-363,927	11,619	0,010	0,006
-362,912	456,003	0,084	0,136
-361,898	124,540	-0,036	0,033
-360,883	-76,074	-0,109	-0,028
-359,869	-200,000	-0,025	-0,131
-358,854	-200,000	0,024	0,115
-357,839	-200,000	0,017	0,071
-356,825	40,645	-0,033	-0,022
-355,810	800,000	0,015	0,037
-354,796	219,093	-0,056	-0,064
-353,781	108,423	-0,120	0,104
-352,766	5,354	-0,030	0,016
-351,752	120,053	-0,113	0,101
-350,737	-141,667	0,126	0,009
-349,723	-40,613	0,107	-0,040
-348,708	800,000	-0,034	-0,078
-347,693	-18,992	-0,033	0,015
-346,679	250,662	-0,017	0,021
-345,664	-22,539	-0,085	0,037
-344,650	800,000	0,028	-0,063
-343,635	-200,000	0,048	0,186
-342,620	800,000	-0,020	0,054
-341,606	-37,643	0,115	0,044
-340,591	-200,000	0,025	-0,101
-339,577	-200,000	0,005	-0,068
-338,562	424,330	-0,023	-0,036
-337,548	-200,000	-0,016	0,089
-336,533	254,874	-0,028	-0,035
-335,518	-46,951	-0,078	0,028
-334,504	601,238	0,014	-0,025
-333,489	800,000	0,023	-0,072
-332,475	129,907	-0,075	0,070
-331,460	-19,300	0,060	-0,027
-330,445	126,333	0,064	-0,058
-329,431	-8,070	0,115	0,056
-328,416	-200,000	0,011	-0,040
-327,402	142,957	0,074	-0,071
-326,387	324,786	0,088	0,122
-325,372	-78,566	-0,058	-0,014
-324,358	534,151	0,055	-0,095
-323,343	-132,384	-0,085	-0,008
-322,329	800,000	0,062	0,140
-321,314	-109,316	0,090	-0,014
-320,299	800,000	-0,023	0,051
-319,285	-120,599	0,088	0,011
-318,270	3,538	-0,135	-0,071
-317,256	119,201	-0,057	0,051
-316,241	800,000	0,061	0,153
-315,226	800,000	-0,016	0,032
-314,212	-81,110	-0,070	0,017
-313,197	24,699	0,099	0,059
-312,183	-200,000	0,006	0,062
-311,168	-47,121	0,150	-0,052
-310,153	800,000	0,040	0,125
-309,139	103,238	-0,053	0,045
-308,124	-200,000	-0,002	-0,062
-307,110	800,000	0,048	0,109
-306,095	-42,667	0,066	-0,024
-305,080	-90,422	-0,099	-0,021
-304,066	171,519	-0,012	-0,013
-303,051	-200,000	-0,017	0,090
-302,037	180,735	0,063	0,067
-301,022	58,685	-0,106	0,075
-300,008	-47,872	0,075	0,026
-298,993	757,745	0,038	-0,075
-297,978	-16,277	-0,096	-0,044
-296,964	134,534	0,074	0,070
-295,949	51,998	-0,102	-0,070
-294,935	-175,529	-0,152	-0,003
-293,920	-200,000	-0,008	-0,032
-292,905	21,136	0,043	0,025
-291,891	-38,538	0,117	-0,045
-290,876	1,945	-0,115	0,060
-289,862	3,243	-0,147	-0,077
-288,847	-200,000	-0,002	-0,032
-287,832	181,105	0,148	0,157
-286,818	385,097	0,060	-0,090
-285,803	-200,000	0,015	-0,065
-284,789	-200,000	-0,006	-0,038
-283,774	-97,225	0,118	-0,022
-282,759	-134,700	0,061	-0,005
-281,745	800,000	-0,029	-0,068
-280,730	58,238	-0,085	0,060
-279,716	-58,247	-0,120	0,038
-278,701	-70,083	0,109	-0,030
-277,686	113,197	0,028	0,025
-276,672	403,564	0,011	-0,016
-275,657	-200,000	0,008	0,089
-274,643	-200,000	0,012	-0,091
-273,628	25,194	0,030	0,018
-272,613	800,000	0,040	-0,088
-271,599	168,236	0,024	-0,024
-270,584	58,753	0,089	0,063
-269,570	-200,000	-0,017	0,063
-268,555	162,706	-0,064	-0,065
-267,540	-25,642	0,086	0,037
-266,526	-36,311	-0,090	-0,035
-265,511	-200,000	0,033	-0,121
-264,497	800,000	0,022	-0,056
-263,482	312,933	0,027	-0,037
-262,467	-172,339	0,062	0,001
-261,453	800,000	0,008	0,024
-260,438	-9,571	0,041	0,020
-259,424	6,654	-0,082	-0,044
-258,409	-107,204	-0,086	0,013
-257,395	-200,000	-0,003	-0,012
-256,380	-173,384	-0,035	0,001
-255,365	-73,357	0,039	0,010
-254,351	-77,976	-0,081	-0,020
-253,336	26,562	0,033	0,020
-252,322	-94,263	-0,143	0,028
-251,307	-200,000	-0,022	-0,104
-250,292	482,353	-0,055	0,090
-249,278	-120,114	0,118	-0,014
-248,263	800,000	-0,054	0,146
-247,249	583,813	-0,047	0,083
-246,234	-24,894	-0,070	0,030
-245,219	124,547	0,038	-0,035
-244,205	-27,776	0,128	0,053
-243,190	-92,343	-0,044	0,009
-242,176	39,614	0,022	0,014
-241,161	389,909	0,024	0,035
-240,146	-145,940	-0,029	0,002
-239,132	97,794	-0,092	0,076
-238,117	-200,000	0,005	-0,042
-237,103	30,364	0,025	-0,015
-236,088	198,673	0,043	-0,047
-235,073	-3,306	-0,089	0,044
-234,059	-200,000	0,020	-0,097
-233,044	-74,892	0,037	0,010
-232,030	-200,000	-0,022	0,072
-231,015	133,450	-0,139	-0,130
-230,000	52,098	-0,075	0,052
-228,986	37,309	0,122	0,078
-227,971	41,150	-0,116	-0,076
-226,957	-200,000	0,002	0,020
-225,942	730,043	0,040	-0,077
-224,927	-200,000	0,008	0,109
-223,913	94,153	0,068	-0,056
-222,898	-200,000	-0,006	-0,058
-221,884	-200,000	0,036	-0,129
-220,869	112,234	0,058	0,051
-219,855	-162,954	0,139	-0,005
-218,840	-200,000	0,021	-0,119
-217,825	641,182	-0,016	0,030
-216,811	111,079	-0,052	-0,045
-215,796	570,976	0,076	0,133
-214,782	129,563	-0,116	-0,107
-213,767	-26,532	-0,166	-0,070
-212,752	112,908	-0,129	0,112
-211,738	-200,000	-0,016	0,057
-210,723	54,470	0,086	0,060
-209,709	-200,000	0,009	0,029
-208,694	39,983	0,049	0,032
-207,679	-124,796	-0,100	-0,011
-206,665	785,237	-0,031	0,061
-205,650	521,795	0,091	0,154
-204,636	48,723	0,165	0,112
-203,621	115,728	0,054	-0,047
-202,606	-200,000	0,004	-0,014
-201,592	78,843	-0,024	-0,018
-200,577	-200,000	-0,001	-0,054
-199,563	800,000	-0,031	-0,076
-198,548	-66,849	0,070	-0,020
-197,533	-200,000	0,148	0,000
-196,519	-200,000	0,007	0,167
-195,504	-77,659	0,049	0,012
-194,490	-200,000	0,005	-0,112
-193,475	800,000	-0,066	-0,157
-192,460	800,000	0,044	-0,124
-191,446	-78,222	0,119	0,029
-190,431	-39,024	0,172	0,065
-189,417	792,445	0,030	0,060
-188,402	-87,199	-0,192	0,042
-187,387	-200,000	0,038	0,121
-186,373	-200,000	0,051	-0,167
-185,358	-200,000	-0,002	0,021
-184,344	702,945	-0,043	0,081
-183,329	-9,860	0,050	-0,024
-182,315	800,000	-0,010	-0,023
-181,300	-200,000	-0,039	0,131
-180,285	-86,974	-0,075	-0,016
-179,271	59,587	-0,087	-0,062
-178,256	468,170	-0,029	0,047
-177,242	5,184	-0,150	-0,079
-176,227	-11,361	0,127	0,060
-175,212	263,292	-0,014	-0,018
-174,198	-159,113	-0,023	0,001
-173,183	411,998	0,036	-0,055
-172,169	-200,000	0,027	-0,174
-171,154	569,177	-0,037	-0,065
-170,139	-144,331	0,120	-0,008
-169,125	273,832	0,098	0,124
-168,110	-7,322	-0,031	-0,015
-167,096	-200,000	0,032	-0,104
-166,081	800,000	-0,080	-0,160
-165,066	632,868	-0,036	0,067
-164,052	-123,458	-0,073	0,008
-163,037	-71,406	-0,040	-0,011
-162,023	0,158	0,049	0,025
-161,008	-200,000	-0,007	0,092
-159,993	42,451	0,042	0,028
-158,979	51,645	-0,084	0,058
-157,964	800,000	0,046	-0,130
-156,950	-200,000	0,014	-0,048
-155,935	444,924	-0,022	-0,036
-154,920	159,676	-0,094	-0,094
-153,906	187,388	0,084	0,091
-152,891	-40,008	0,084	-0,031
-151,877	424,219	0,095	0,147
-150,862	-200,000	-0,012	-0,077
-149,847	-85,385	-0,136	-0,030
-148,833	95,612	0,069	-0,057
-147,818	800,000	0,038	0,119
-146,804	800,000	0,035	-0,086
-145,789	-200,000	0,017	0,090
-144,775	90,681	-0,038	0,031
-143,760	-69,752	-0,061	0,017
-142,745	143,034	-0,058	-0,055
-141,731	276,459	0,025	-0,031
-140,716	312,919	-0,011	-0,014
-139,702	-138,315	0,090	-0,007
-138,687	135,448	-0,033	0,031
-137,672	800,000	-0,060	0,127
-136,658	97,629	-0,096	0,079
-135,643	-200,000	0,048	-0,185
-134,629	423,644	0,033	-0,051
-133,614	-200,000	0,011	0,083
-132,599	-19,585	0,051	-0,023
-131,585	510,876	0,020	-0,034
-130,570	470,940	0,028	-0,045
-129,556	-200,000	-0,002	0,047
-128,541	311,315	-0,048	-0,065
-127,526	377,111	0,047	0,070
-126,512	371,038	0,013	0,019
-125,497	-200,000	-0,011	0,050
-124,483	456,712	-0,041	-0,066
-123,468	-200,000	-0,053	0,186
-122,453	-200,000	-0,010	0,054
-121,439	189,493	-0,081	-0,088
-120,424	800,000	0,059	-0,162
-119,410	16,905	-0,031	-0,018
-118,395	-200,000	-0,004	0,067
-117,380	800,000	0,066	-0,156
-116,366	-11,799	0,064	0,030
-115,351	800,000	0,034	-0,088
-114,337	-200,000	0,001	0,008
-113,322	-56,376	0,032	-0,010
-112,307	-200,000	-0,037	-0,179
-111,293	-200,000	-0,010	0,065
-110,278	-174,359	-0,074	0,002
-109,264	-200,000	0,017	-0,073
-108,249	40,757	-0,092	-0,059
-107,234	412,315	0,036	-0,055
-106,220	-200,000	-0,014	0,067
-105,205	-200,000	-0,011	0,118
-104,191	-200,000	0,044	0,193
-103,176	-200,000	0,009	0,122
-102,162	202,807	-0,056	-0,062
-101,147	56,889	-0,057	-0,040
-100,132	-65,732	-0,081	-0,023
-99,118	-200,000	-0,002	0,115
-98,103	-22,812	-0,011	-0,005
-97,089	-200,000	0,023	-0,082
-96,074	-200,000	0,024	0,106
-95,059	74,997	0,165	0,125
-94,045	-200,000	-0,011	-0,080
-93,030	800,000	0,042	-0,112
-92,016	100,766	-0,074	-0,061
-91,001	-145,370	-0,184	-0,012
-89,986	158,873	0,011	-0,011
-88,972	800,000	0,037	0,076
-87,957	347,652	0,045	-0,063
-86,943	7,123	-0,031	0,017
-85,928	-47,895	0,076	-0,026
-84,913	211,454	0,087	-0,098
-83,899	-31,494	-0,100	-0,040
-82,884	-200,000	-0,012	-0,048
-81,870	234,664	0,127	0,150
-80,855	209,809	0,080	-0,090
-79,840	299,147	0,048	0,064
-78,826	501,582	-0,053	-0,089
-77,811	496,402	-0,104	-0,172
-76,797	-200,000	0,009	0,034
-75,782	-200,000	0,032	0,140
-74,767	-200,000	-0,000	-0,042
-73,753	800,000	0,053	0,111
-72,738	-53,616	-0,036	-0,012
-71,724	-200,000	0,001	-0,008
-70,709	-41,328	-0,141	-0,052
-69,694	134,200	0,116	0,108
-68,680	52,504	0,089	0,061
-67,665	-64,927	-0,062	0,018
-66,651	241,012	0,048	0,058
-65,636	-112,334	-0,151	0,021
-64,622	-191,015	0,038	0,000
-63,607	-91,275	-0,164	-0,033
-62,592	800,000	-0,006	-0,015
-61,578	406,838	0,080	0,122
-60,563	-200,000	-0,010	-0,087
-59,549	21,838	-0,067	0,039
-58,534	35,822	-2,161	-1,358
-57,519	-200,000	0,025	-0,584
-56,505	-200,000	-1,432	-5,108
-55,490	107,770	0,878	0,749
-54,476	800,000	5,315	12,168
-53,461	-200,000	18,665	318,112
-52,446	800,000	740,649	2322,316
-51,432	549,760	1654,538	2851,719
-50,417	109,965	1637,809	1406,852
-49,403	73,622	1288,090	965,181
-48,388	29,637	1029,419	625,776
-47,373	19,622	992,459	570,203
-46,359	16,963	979,962	554,269
-45,344	13,540	976,572	541,101
-44,330	13,896	974,864	541,301
-43,315	13,304	972,619	538,094
-42,300	13,246	971,714	537,384
-41,286	13,265	970,842	536,941
-40,271	13,260	969,883	536,374
-39,257	13,174	969,259	535,727
-38,242	13,262	968,184	535,396
-37,227	13,253	967,367	534,894
-36,213	13,214	966,519	534,277
-35,198	13,211	965,519	533,693
-34,184	13,296	964,803	533,552
-33,169	13,194	963,806	532,649
-32,154	13,275	962,701	532,282
-31,140	13,274	962,079	531,913
-30,125	13,188	961,414	531,244
-29,111	13,255	960,298	530,825
-28,096	13,281	959,723	530,571
-27,082	13,219	959,071	529,988
-26,067	13,268	958,300	529,699
-25,052	13,239	957,640	529,220
-24,038	13,221	957,094	528,838
-23,023	13,234	956,310	528,427
-22,009	13,237	955,772	528,117
-20,994	13,241	955,121	527,749
-19,979	13,213	954,510	527,301
-18,965	13,214	953,751	526,866
-17,950	13,283	953,198	526,759
-16,936	13,181	952,650	526,107
-15,921	13,227	952,134	525,949
-14,906	13,149	951,086	525,100
-13,892	13,130	950,693	524,802
-12,877	13,125	949,997	524,382
-11,863	13,107	949,238	523,884
-10,848	13,111	948,759	523,612
-9,833	13,236	948,250	523,709
-8,819	13,119	947,669	522,994
-7,804	13,151	946,850	522,624
-6,790	13,092	946,517	522,231
-5,775	13,179	945,848	522,117
-4,760	13,151	945,336	521,725
-3,746	13,163	944,625	521,349
-2,731	13,053	943,741	520,493
-1,717	12,958	943,298	519,927
-0,702	13,001	942,422	519,560
0,313	12,802	941,911	519,432
1,327	16,221	939,811	529,028
2,342	25,280	790,714	468,987
3,356	21,318	445,272	258,198
4,371	-7,798	298,177	143,542
5,386	-11,780	280,015	130,978
6,400	-13,117	274,151	126,971
7,415	-13,162	271,661	125,765
8,429	-13,076	270,338	125,221
9,444	-13,245	269,463	124,649
10,459	-13,336	268,872	124,281
11,473	-13,238	268,083	123,995
12,488	-13,424	267,690	123,631
13,502	-13,628	267,075	123,151
14,517	-13,523	266,729	123,076
15,531	-13,494	266,259	122,874
16,546	-13,255	265,895	122,913
17,561	-13,326	265,431	122,623
18,575	-13,304	265,116	122,486
19,590	-13,438	264,768	122,193
20,604	-13,134	264,600	122,380
21,619	-13,427	264,221	121,929
22,634	-13,286	263,887	121,891
23,648	-13,488	263,539	121,538
24,663	-13,196	263,050	121,563
25,677	-13,497	263,024	121,271
26,692	-13,398	262,613	121,159
27,707	-13,520	262,405	120,943
28,721	-13,443	262,187	120,900
29,736	-13,543	261,866	120,652
30,750	-13,355	261,637	120,704
31,765	-13,572	261,517	120,445
32,780	-13,595	261,173	120,254
33,794	-13,496	260,866	120,190
34,809	-13,464	260,749	120,155
35,823	-13,353	260,353	120,060
36,838	-13,606	260,213	119,760
37,853	-13,571	259,872	119,624
38,867	-13,296	259,683	119,769
39,882	-13,606	259,280	119,298
40,896	-13,593	259,297	119,307
41,911	-13,503	258,951	119,217
42,926	-13,424	258,546	119,089
43,940	-13,515	258,428	118,944
44,955	-13,603	258,191	118,748
45,969	-13,624	257,926	118,596
46,984	-13,746	257,679	118,365
47,999	-13,980	257,430	118,035
49,013	-14,318	257,110	117,582
50,028	-14,144	256,869	117,613
51,042	-14,261	256,500	117,331
52,057	-14,391	256,401	117,162
53,071	-14,166	256,208	117,259
54,086	-14,242	256,127	117,146
55,101	-14,048	255,772	117,142
56,115	-13,957	255,750	117,201
57,130	-13,550	255,534	117,446
58,144	-13,262	255,396	117,622
59,159	-13,442	255,268	117,396
60,174	-13,369	255,110	117,376
61,188	-13,360	254,690	117,181
62,203	-13,370	254,519	117,082
63,217	-13,522	254,438	116,903
64,232	-13,432	254,212	116,867
65,247	-13,478	254,049	116,742
66,261	-13,372	253,549	116,593
67,276	-13,448	253,262	116,385
68,290	-13,791	253,121	116,015
69,305	-13,929	252,789	115,734
70,320	-13,894	252,672	115,700
71,334	-13,721	252,637	115,822
72,349	-13,368	252,478	116,041
73,363	-13,237	252,113	115,976
74,378	-13,206	252,007	115,943
75,393	-13,441	251,760	115,619
76,407	-13,434	251,578	115,530
77,422	-13,313	251,278	115,486
78,436	-13,255	251,016	115,405
79,451	-13,573	251,058	115,143
80,466	-13,607	250,445	114,822
81,480	-13,564	250,217	114,744
82,495	-13,640	250,222	114,671
83,509	-13,672	250,065	114,562
84,524	-13,633	249,914	114,516
85,539	-13,749	249,522	114,228
86,553	-13,917	249,396	114,017
87,568	-13,648	249,217	114,153
88,582	-13,562	248,881	114,062
89,597	-13,777	248,907	113,881
90,611	-13,445	248,608	114,015
91,626	-13,450	248,515	113,958
92,641	-13,624	248,289	113,697
93,655	-13,609	248,115	113,620
94,670	-13,574	248,127	113,645
95,684	-13,537	247,628	113,438
96,699	-13,760	247,571	113,214
97,714	-13,700	247,237	113,101
98,728	-13,880	247,297	112,968
99,743	-13,812	246,828	112,801
100,757	-13,873	246,669	112,667
101,772	-13,995	246,538	112,495
102,787	-13,865	246,455	112,555
103,801	-13,613	246,170	112,626
104,816	-13,593	246,040	112,573
105,830	-13,383	245,811	112,633
106,845	-13,481	245,702	112,492
107,860	-13,437	245,475	112,414
108,874	-13,537	245,217	112,203
109,889	-13,534	244,940	112,068
110,903	-13,608	244,842	111,952
111,918	-13,596	244,722	111,897
112,933	-13,541	244,547	111,853
113,947	-13,539	244,351	111,755
114,962	-13,572	244,239	111,666
115,976	-13,309	244,005	111,767
116,991	-13,265	243,773	111,687
118,006	-13,405	243,631	111,496
119,020	-13,494	243,475	111,342
120,035	-13,532	243,432	111,281
121,049	-13,423	243,215	111,262
122,064	-13,522	243,043	111,091
123,079	-13,525	242,739	110,941
124,093	-13,720	242,526	110,673
125,108	-13,745	242,266	110,523
126,122	-14,047	242,158	110,217
127,137	-13,979	241,712	110,060
128,151	-13,865	241,751	110,161
129,166	-13,795	241,574	110,128
130,181	-13,833	241,119	109,879
131,195	-13,880	241,207	109,871
132,210	-13,636	240,958	109,948
133,224	-13,458	240,880	110,047
134,239	-13,522	240,785	109,942
135,254	-13,457	240,574	109,888
136,268	-13,769	240,298	109,498
137,283	-13,867	239,968	109,259
138,297	-14,150	239,951	109,012
139,312	-14,196	239,623	108,816
140,327	-13,592	239,625	109,296
141,341	-13,156	239,525	109,594
142,356	-13,273	239,389	109,428
143,370	-13,129	239,325	109,505
144,385	-13,201	239,114	109,341
145,400	-13,207	238,769	109,168
146,414	-13,046	238,736	109,273
147,429	-13,163	238,523	109,072
148,443	-13,119	238,302	108,997
149,458	-13,300	238,065	108,733
150,473	-13,248	237,935	108,705
151,487	-13,233	237,618	108,563
152,502	-13,263	237,575	108,509
153,516	-13,338	237,529	108,419
154,531	-13,233	237,347	108,410
155,546	-13,341	236,973	108,143
156,560	-13,254	236,843	108,144
157,575	-13,443	236,672	107,905
158,589	-13,169	236,458	108,016
159,604	-13,158	236,372	107,977
160,619	-13,130	236,324	107,967
161,633	-12,970	236,120	107,992
162,648	-13,046	235,913	107,827
163,662	-13,238	235,687	107,561
164,677	-13,133	235,592	107,591
165,692	-13,206	235,462	107,465
166,706	-13,188	235,184	107,343
167,721	-13,136	235,262	107,411
168,735	-12,956	235,055	107,449
169,750	-13,029	234,783	107,257
170,764	-13,134	234,745	107,147
171,779	-13,233	234,694	107,036
172,794	-13,059	234,353	107,008
173,808	-13,420	234,311	106,695
174,823	-13,788	233,849	106,185
175,837	-13,781	233,552	106,046
176,852	-13,393	233,779	106,445
177,867	-13,273	233,660	106,475
178,881	-13,160	233,543	106,502
179,896	-13,240	233,339	106,336
180,910	-13,097	233,173	106,363
181,925	-13,370	232,954	106,040
182,940	-12,983	232,741	106,237
183,954	-13,188	232,624	106,013
184,969	-12,987	232,497	106,103
185,983	-12,981	232,404	106,056
186,998	-12,950	232,215	105,985
188,013	-13,020	231,917	105,785
189,027	-13,071	231,997	105,771
190,042	-12,905	231,557	105,691
191,056	-13,012	231,605	105,620
192,071	-12,939	231,401	105,575
193,086	-12,988	231,253	105,460
194,100	-12,942	231,084	105,409
195,115	-13,473	230,551	104,745
196,129	-13,507	230,615	104,738
197,144	-7,943	232,510	109,935
198,159	-2,746	234,173	114,790
199,173	1,824	235,397	118,975
200,188	2,888	235,465	119,834
201,202	2,606	235,301	119,519
202,217	2,659	235,117	119,457
203,232	2,946	234,972	119,597
204,246	2,956	234,944	119,580
205,261	3,044	234,774	119,551
206,275	3,129	234,670	119,554
207,290	3,124	234,573	119,490
208,304	3,307	234,367	119,517
209,319	2,846	234,244	119,084
210,334	2,892	233,922	118,946
211,348	2,860	233,664	118,779
212,363	2,581	233,308	118,371
213,377	2,404	233,293	118,215
214,392	2,241	233,157	118,009
215,407	2,803	233,056	118,383
216,421	2,510	232,859	118,046
217,436	2,524	232,678	117,954
218,450	2,068	232,510	117,506
219,465	2,398	232,251	117,619
220,480	2,222	232,204	117,449
221,494	2,135	232,143	117,341
222,509	2,367	232,040	117,457
223,523	2,430	231,848	117,398
224,538	2,559	231,659	117,392
225,553	2,491	231,490	117,243
226,567	2,588	231,308	117,215
227,582	2,673	231,276	117,253
228,596	2,910	231,127	117,349
229,611	2,731	230,870	117,071
230,626	2,239	230,631	116,562
231,640	2,145	230,446	116,386
232,655	2,662	230,362	116,730
233,669	2,731	230,512	116,848
234,684	3,011	230,278	116,933
235,699	2,920	230,063	116,744
236,713	2,630	229,834	116,396
237,728	2,472	229,628	116,161
238,742	2,134	229,590	115,873
239,757	2,479	229,365	116,013
240,772	2,284	229,264	115,802
241,786	2,416	229,154	115,837
242,801	2,572	228,881	115,807
243,815	2,929	228,984	116,120
244,830	2,923	228,896	116,061
245,844	2,463	228,537	115,519
246,859	2,619	228,339	115,527
247,874	2,747	228,315	115,602
248,888	2,676	228,223	115,491
249,903	2,396	227,982	115,147
250,917	2,416	227,773	115,047
251,932	2,420	227,730	115,018
252,947	2,217	227,557	114,766
253,961	2,209	227,201	114,571
254,976	2,387	227,114	114,651
255,990	2,595	227,193	114,837
257,005	2,637	226,930	114,726
258,020	2,620	226,832	114,653
259,034	2,678	226,685	114,612
260,049	2,750	226,586	114,606
261,063	2,629	226,352	114,386
262,078	2,595	226,347	114,349
263,093	2,664	226,120	114,276
264,107	2,673	226,063	114,243
265,122	2,858	225,850	114,264
266,136	2,809	225,806	114,195
267,151	2,847	225,531	114,074
268,166	2,598	225,279	113,750
269,180	2,203	225,143	113,376
270,195	2,405	224,909	113,399
271,209	2,095	224,976	113,191
272,224	2,387	224,719	113,270
273,239	2,322	224,600	113,152
274,253	2,458	224,371	113,127
275,268	2,117	224,172	112,763
276,282	2,367	223,896	112,800
277,297	2,189	223,822	112,621
278,312	2,190	223,863	112,631
279,326	2,210	223,734	112,572
280,341	2,350	223,715	112,656
281,355	2,641	223,384	112,695
282,370	2,408	223,171	112,404
283,384	2,464	223,016	112,358
284,399	2,248	222,845	112,102
285,414	2,206	222,771	112,024
286,428	2,540	222,674	112,212
287,443	2,673	222,624	112,274
288,457	2,597	222,605	112,199
289,472	2,459	222,157	111,862
290,487	2,069	222,011	111,491
291,501	1,877	221,883	111,277
292,516	1,932	221,746	111,238
293,530	2,183	221,561	111,319
294,545	2,136	221,511	111,250
295,560	2,571	221,302	111,453
296,574	2,383	221,196	111,253
297,589	2,242	221,059	111,071
298,603	2,260	220,939	111,014
299,618	2,445	220,932	111,135
300,633	2,439	220,815	111,062
301,647	2,729	220,598	111,155
302,662	2,567	220,481	110,968
303,676	2,605	220,225	110,857
304,691	2,806	220,113	110,936
305,706	2,772	219,930	110,810
306,720	2,773	219,792	110,731
307,735	2,547	219,655	110,488
308,749	2,551	219,413	110,359
309,764	2,845	219,421	110,567
310,779	2,679	219,413	110,433
311,793	2,732	219,132	110,320
312,808	2,568	219,095	110,173
313,822	2,457	218,880	109,974
314,837	2,391	218,679	109,815
315,852	2,371	218,439	109,671
316,866	2,489	218,426	109,740
317,881	2,591	218,372	109,776
318,895	2,546	218,257	109,677
319,910	2,376	217,935	109,382
320,925	1,977	217,711	108,974
321,939	2,064	217,551	108,947
322,954	2,042	217,502	108,896
323,968	2,466	217,503	109,191
324,983	2,594	217,464	109,254
325,997	2,669	217,340	109,236
327,012	2,770	217,074	109,165
328,027	2,368	216,994	108,827
329,041	2,626	217,018	109,014
330,056	2,647	216,806	108,912
331,070	2,737	216,369	108,748
332,085	2,196	216,360	108,348
333,100	2,394	216,231	108,414
334,114	2,496	216,037	108,380
335,129	2,399	215,956	108,261
336,143	2,074	215,829	107,956
337,158	2,444	215,694	108,142
338,173	2,208	215,596	107,915
339,187	2,218	215,240	107,735
340,202	2,076	215,201	107,605
341,216	2,708	215,188	108,037
342,231	2,495	214,992	107,778
343,246	2,316	214,815	107,553
344,260	2,370	214,771	107,560
345,275	2,808	214,696	107,822
346,289	2,832	214,542	107,752
347,304	2,831	214,402	107,672
348,319	2,526	214,095	107,293
349,333	2,645	214,005	107,322
350,348	2,552	213,881	107,185
351,362	2,914	213,913	107,446
352,377	2,640	213,764	107,169
353,392	2,524	213,572	106,982
354,406	2,554	213,379	106,896
355,421	196,521	1314,214	1390,541
356,435	157,205	1448,278	1390,470
