DTS Sentinel unit serial number:	SN410029Multiplexer serial number:	ORYXHardware model number:	OX2-SRSoftware version number:	ORYX F/W v4,00 Oryx Data Collector v3.7.2.0data status	okinstallation	B6 Nyhavnadifferential loss correction	single-endedforward channel	channel 2reverse channel	N/Adate	2023/12/11time	04:10:08forward acquisition time	300,00reverse acquisition time	0,00gamma	499,1914k internal	0,3125k external	0,3125temperature offset calibration	1,0000default loss term (dB/km)	0,3820temperature slope calibration	1,0000multiplexer offset coefficient	1,0000multiplexer slope coefficient	1,0000fibre end	0,00T internal ref (°C)	20,74T ext. ref 1 (°C)	3,48T ext. ref 2 (°C)	3,48length (m)	temperature (°C)	Stokes	anti-Stokes-744,400	-50,453	0,074	-0,026
-743,385	-111,002	-0,221	0,033
-742,371	81,733	0,036	0,029
-741,356	-80,489	-0,234	0,058
-740,342	527,223	0,067	-0,118
-739,327	89,044	-0,214	0,177
-738,312	-59,235	0,150	-0,048
-737,298	-77,377	-0,264	0,068
-736,283	-58,207	0,073	-0,024
-735,269	-168,555	-0,271	-0,008
-734,254	800,000	0,033	-0,083
-733,239	-58,137	-0,441	-0,142
-732,225	-99,751	0,151	-0,028
-731,210	178,571	-0,045	0,049
-730,196	-36,421	-0,015	0,006
-729,181	-139,223	0,087	-0,007
-728,167	-118,987	-0,110	0,014
-727,152	249,876	0,046	-0,058
-726,137	-31,885	-0,115	-0,048
-725,123	-144,083	-0,161	-0,011
-724,108	-64,544	-0,097	-0,029
-723,094	423,136	0,026	0,041
-722,079	89,763	-0,069	-0,058
-721,064	-200,000	-0,031	-0,127
-720,050	5,763	-0,122	0,067
-719,035	181,001	-0,031	-0,034
-718,021	-68,640	-0,162	-0,046
-717,006	50,371	0,044	-0,031
-715,991	193,922	-0,092	-0,104
-714,977	-44,172	-0,051	-0,019
-713,962	94,626	-0,092	-0,078
-712,948	-200,000	0,020	0,141
-711,933	512,565	-0,068	0,119
-710,918	-5,056	-0,151	-0,077
-709,904	745,988	0,069	-0,139
-708,889	19,147	-0,056	-0,033
-707,875	-200,000	0,004	-0,089
-706,860	755,195	-0,084	-0,170
-705,845	-130,949	-0,129	-0,013
-704,831	800,000	-0,016	0,035
-703,816	-14,457	0,041	0,019
-702,802	144,077	-0,128	-0,127
-701,787	-200,000	-0,005	-0,080
-700,772	-14,893	-0,196	-0,093
-699,758	59,657	-0,025	-0,019
-698,743	-163,176	0,138	-0,005
-697,729	-200,000	0,026	0,102
-696,714	800,000	0,033	-0,092
-695,699	-20,231	-0,107	0,049
-694,685	153,388	-0,056	0,057
-693,670	224,830	-0,061	-0,074
-692,656	163,163	0,019	0,020
-691,641	-42,306	0,105	-0,040
-690,627	94,500	0,047	0,040
-689,612	-85,436	-0,109	-0,025
-688,597	-151,580	-0,055	-0,003
-687,583	-182,885	-0,103	-0,001
-686,568	-200,000	0,003	-0,024
-685,554	505,873	-0,075	0,130
-684,539	-200,000	0,015	0,091
-683,524	-200,000	-0,019	-0,081
-682,510	19,044	-0,073	-0,043
-681,495	-175,776	0,103	0,002
-680,481	229,146	-0,114	-0,138
-679,466	-200,000	0,004	-0,046
-678,451	800,000	-0,006	0,015
-677,437	132,178	-0,027	0,026
-676,422	-37,908	0,174	-0,068
-675,408	375,824	-0,092	-0,139
-674,393	-200,000	-0,004	-0,059
-673,378	-42,332	-0,150	0,057
-672,364	-200,000	-0,006	0,030
-671,349	239,272	0,011	0,014
-670,335	800,000	0,017	0,037
-669,320	800,000	0,048	0,103
-668,305	644,909	0,056	0,106
-667,291	-54,291	-0,038	-0,013
-666,276	-200,000	0,005	-0,097
-665,262	-17,983	-0,171	-0,079
-664,247	800,000	0,023	-0,050
-663,232	363,120	0,085	-0,128
-662,218	93,119	-0,032	0,027
-661,203	-165,227	0,005	0,000
-660,189	-200,000	0,005	0,020
-659,174	-135,036	-0,097	-0,009
-658,159	-200,000	-0,004	-0,087
-657,145	-113,249	-0,120	-0,017
-656,130	800,000	-0,073	-0,152
-655,116	-99,659	-0,037	0,007
-654,101	0,502	-0,060	0,032
-653,086	-23,700	-0,114	-0,051
-652,072	90,875	-0,049	-0,041
-651,057	-131,039	0,013	0,001
-650,043	312,895	-0,119	-0,166
-649,028	47,085	0,029	0,020
-648,014	-105,110	0,139	-0,023
-646,999	800,000	0,016	-0,040
-645,984	612,249	0,023	0,044
-644,970	123,542	0,092	-0,086
-643,955	-29,360	-0,062	0,026
-642,941	407,468	0,020	-0,031
-641,926	-200,000	-0,002	0,036
-640,911	80,056	0,042	-0,034
-639,897	-200,000	0,001	0,049
-638,882	-200,000	-0,038	0,144
-637,868	97,273	-0,082	0,070
-636,853	87,064	-0,084	-0,069
-635,838	187,949	-0,050	-0,055
-634,824	800,000	0,020	0,048
-633,809	-200,000	-0,038	0,171
-632,795	800,000	0,006	0,020
-631,780	-143,237	0,130	-0,009
-630,765	-200,000	-0,002	-0,010
-629,751	78,542	-0,065	0,052
-628,736	800,000	0,036	0,106
-627,722	800,000	0,053	-0,127
-626,707	142,859	-0,013	0,013
-625,692	290,034	0,018	-0,024
-624,678	-49,931	-0,054	-0,019
-623,663	336,148	-0,089	-0,128
-622,649	-99,841	0,027	0,005
-621,634	800,000	0,025	0,070
-620,619	560,816	-0,017	-0,030
-619,605	523,274	-0,012	0,020
-618,590	-200,000	0,015	0,189
-617,576	-200,000	-0,003	0,048
-616,561	-148,242	-0,117	-0,007
-615,546	-79,619	-0,109	-0,027
-614,532	53,232	-0,046	-0,032
-613,517	81,732	-0,155	-0,124
-612,503	618,933	0,050	0,094
-611,488	-79,610	0,134	0,033
-610,474	-97,111	0,037	0,007
-609,459	30,807	0,083	0,052
-608,444	739,690	-0,089	-0,177
-607,430	235,868	0,028	-0,034
-606,415	-137,538	-0,054	-0,004
-605,401	-96,657	0,049	0,010
-604,386	-174,799	-0,039	-0,001
-603,371	300,553	-0,042	-0,057
-602,357	-120,796	-0,032	0,004
-601,342	304,094	-0,040	-0,055
-600,328	-200,000	-0,010	-0,041
-599,313	800,000	-0,068	-0,158
-598,298	800,000	-0,012	-0,030
-597,284	6,174	0,106	0,058
-596,269	54,014	-0,099	-0,070
-595,255	-54,186	0,071	0,024
-594,240	-200,000	-0,010	-0,136
-593,225	124,679	-0,098	0,091
-592,211	800,000	0,058	-0,130
-591,196	-50,200	0,048	-0,017
-590,182	-200,000	0,011	-0,088
-589,167	411,077	0,066	0,103
-588,152	182,753	-0,070	-0,077
-587,138	19,620	-0,159	-0,094
-586,123	79,959	-0,080	-0,064
-585,109	-200,000	-0,010	-0,146
-584,094	-200,000	0,009	-0,099
-583,079	-181,820	-0,080	0,001
-582,065	-127,980	0,086	0,009
-581,050	-40,609	0,058	0,022
-580,036	249,276	-0,058	0,073
-579,021	800,000	-0,023	0,067
-578,006	-47,119	-0,090	0,032
-576,992	288,466	0,078	-0,105
-575,977	-128,926	0,077	-0,008
-574,963	183,174	-0,033	0,036
-573,948	223,175	0,069	0,083
-572,934	-42,173	-0,043	-0,016
-571,919	-158,707	-0,051	0,002
-570,904	-200,000	0,004	-0,178
-569,890	25,746	0,026	0,016
-568,875	-200,000	0,006	0,061
-567,861	628,782	-0,054	0,101
-566,846	79,072	0,039	0,031
-565,831	-13,480	0,130	-0,062
-564,817	-134,618	-0,100	-0,009
-563,802	98,535	0,026	0,023
-562,788	-14,285	0,194	-0,092
-561,773	316,504	0,012	-0,016
-560,758	800,000	-0,033	-0,096
-559,744	-200,000	-0,005	-0,029
-558,729	281,320	-0,034	0,045
-557,715	-66,173	0,034	-0,010
-556,700	105,201	-0,073	-0,064
-555,685	-181,726	-0,073	-0,001
-554,671	225,595	-0,008	-0,009
-553,656	-57,444	0,066	-0,021
-552,642	-140,635	0,083	-0,006
-551,627	92,447	-0,065	-0,054
-550,612	176,845	-0,088	-0,094
-549,598	197,496	-0,152	-0,172
-548,583	27,962	-0,097	-0,061
-547,569	-78,437	0,034	0,008
-546,554	334,518	0,026	0,037
-545,539	98,645	-0,073	-0,062
-544,525	800,000	0,017	0,051
-543,510	-46,338	-0,073	-0,026
-542,496	800,000	0,040	-0,090
-541,481	74,152	-0,098	-0,076
-540,466	-110,225	0,026	0,004
-539,452	100,763	0,138	-0,119
-538,437	-200,000	0,029	0,120
-537,423	154,358	0,014	0,014
-536,408	335,763	-0,060	-0,086
-535,393	-200,000	0,005	-0,026
-534,379	-90,896	-0,106	-0,022
-533,364	30,084	-0,046	0,029
-532,350	-97,802	0,045	0,008
-531,335	-74,587	0,142	-0,038
-530,321	672,222	0,039	0,075
-529,306	-200,000	0,011	-0,068
-528,291	326,448	0,090	-0,128
-527,277	-200,000	0,031	-0,153
-526,262	-176,631	0,066	0,001
-525,248	214,450	0,094	0,110
-524,233	76,630	0,080	0,062
-523,218	-182,765	-0,227	-0,003
-522,204	-52,271	0,010	-0,003
-521,189	-183,606	-0,030	-0,000
-520,175	-117,605	0,040	-0,005
-519,160	-200,000	0,028	-0,105
-518,145	71,927	0,045	0,035
-517,131	-200,000	0,006	-0,045
-516,116	130,549	-0,036	-0,034
-515,102	25,614	-0,064	0,039
-514,087	25,999	0,016	-0,010
-513,072	2,199	-0,090	0,048
-512,058	800,000	-0,028	0,077
-511,043	717,982	0,024	0,047
-510,029	455,605	0,103	-0,170
-509,014	188,119	-0,045	-0,049
-507,999	800,000	0,026	-0,062
-506,985	-200,000	-0,005	-0,077
-505,970	78,152	-0,121	-0,095
-504,956	-166,478	0,184	-0,006
-503,941	34,590	0,070	0,045
-502,926	-200,000	0,010	-0,070
-501,912	-200,000	0,013	0,047
-500,897	480,354	-0,081	0,136
-499,883	-200,000	-0,010	0,074
-498,868	82,268	0,045	-0,036
-497,853	195,186	-0,016	-0,018
-496,839	118,297	0,100	0,091
-495,824	519,501	-0,048	0,083
-494,810	132,592	0,023	-0,022
-493,795	800,000	0,055	0,133
-492,781	-127,045	-0,056	-0,006
-491,766	9,166	-0,052	-0,029
-490,751	-200,000	-0,014	0,051
-489,737	-200,000	-0,012	-0,160
-488,722	-200,000	0,005	-0,049
-487,708	800,000	0,022	-0,056
-486,693	-179,336	0,079	0,001
-485,678	-200,000	0,020	-0,074
-484,664	96,200	-0,061	-0,051
-483,649	-50,555	0,036	0,012
-482,635	-92,811	-0,126	-0,026
-481,620	-121,510	0,049	0,006
-480,605	370,028	-0,074	0,111
-479,591	19,964	0,082	-0,049
-478,576	465,110	-0,030	-0,049
-477,562	-118,913	-0,057	0,007
-476,547	-56,434	-0,084	-0,027
-475,532	123,237	0,080	-0,074
-474,518	-134,833	0,022	0,002
-473,503	-140,498	0,038	0,003
-472,489	7,921	0,037	0,020
-471,474	-5,416	-0,061	0,031
-470,459	176,479	-0,051	0,055
-469,445	339,030	-0,103	-0,149
-468,430	-46,154	-0,104	0,038
-467,416	-99,933	0,056	-0,010
-466,401	-200,000	-0,007	-0,084
-465,386	40,327	0,062	-0,041
-464,372	328,425	0,083	0,118
-463,357	338,046	0,003	-0,004
-462,343	800,000	-0,022	-0,064
-461,328	800,000	-0,049	-0,104
-460,313	-200,000	-0,000	0,168
-459,299	-32,943	0,138	-0,056
-458,284	-186,130	0,076	-0,001
-457,270	-110,917	-0,109	-0,016
-456,255	-200,000	0,016	-0,113
-455,241	-72,040	-0,062	0,017
-454,226	81,257	-0,063	-0,050
-453,211	800,000	0,035	-0,078
-452,197	440,630	0,013	0,021
-451,182	-200,000	0,016	0,100
-450,168	800,000	0,035	-0,113
-449,153	9,345	-0,264	-0,147
-448,138	-53,729	0,065	-0,022
-447,124	-59,306	-0,035	0,011
-446,109	800,000	0,048	0,138
-445,095	-200,000	0,025	0,131
-444,080	800,000	-0,042	0,125
-443,065	490,854	0,042	-0,071
-442,051	278,850	-0,060	-0,078
-441,036	-45,783	-0,120	-0,043
-440,022	-200,000	0,018	-0,064
-439,007	-123,282	-0,046	0,005
-437,992	800,000	0,074	0,160
-436,978	800,000	0,053	0,135
-435,963	800,000	-0,033	0,068
-434,949	800,000	-0,042	0,107
-433,934	-166,829	-0,027	-0,001
-432,919	243,170	0,050	-0,062
-431,905	-200,000	0,035	-0,162
-430,890	-102,900	0,059	0,010
-429,876	800,000	-0,050	0,153
-428,861	362,520	0,091	0,135
-427,846	-200,000	0,006	-0,034
-426,832	-47,947	-0,182	-0,065
-425,817	15,905	0,100	-0,058
-424,803	-200,000	-0,006	-0,032
-423,788	-39,823	0,063	-0,024
-422,773	119,355	0,029	0,026
-421,759	-145,586	0,079	0,005
-420,744	-38,047	0,013	-0,005
-419,730	98,492	0,076	0,064
-418,715	48,159	0,150	-0,103
-417,701	-200,000	-0,029	-0,155
-416,686	800,000	-0,082	0,240
-415,671	664,505	-0,060	0,115
-414,657	800,000	0,069	0,201
-413,642	17,495	-0,138	0,081
-412,628	-200,000	0,019	-0,062
-411,613	250,304	0,028	0,035
-410,598	54,734	-0,089	-0,063
-409,584	72,066	0,019	0,015
-408,569	365,879	0,038	0,056
-407,555	-82,469	-0,210	0,050
-406,540	-200,000	0,020	0,120
-405,525	163,231	-0,064	0,067
-404,511	5,605	0,168	-0,091
-403,496	103,682	-0,021	-0,018
-402,482	685,243	-0,032	-0,062
-401,467	53,218	-0,110	0,077
-400,452	-200,000	-0,038	0,152
-399,438	181,799	-0,078	0,085
-398,423	482,469	0,073	0,123
-397,409	-200,000	0,012	0,153
-396,394	800,000	0,030	-0,080
-395,379	377,162	0,011	0,016
-394,365	-200,000	0,018	0,157
-393,350	-200,000	-0,004	-0,059
-392,336	581,851	0,065	0,117
-391,321	800,000	-0,010	-0,031
-390,306	-55,576	-0,077	-0,025
-389,292	-200,000	-0,052	0,260
-388,277	284,898	0,025	-0,033
-387,263	135,412	0,086	-0,082
-386,248	206,717	-0,027	0,031
-385,233	47,079	0,066	0,045
-384,219	-200,000	0,026	0,140
-383,204	-200,000	-0,009	-0,056
-382,190	42,283	-0,077	-0,051
-381,175	-95,527	0,021	-0,004
-380,160	624,556	0,096	0,179
-379,146	156,892	-0,007	-0,008
-378,131	-200,000	-0,003	0,162
-377,117	-174,176	-0,153	0,003
-376,102	430,049	0,047	-0,075
-375,088	122,254	0,143	-0,131
-374,073	473,719	0,052	-0,086
-373,058	244,691	0,011	-0,014
-372,044	-200,000	0,001	0,063
-371,029	-200,000	0,015	0,107
-370,015	421,054	0,033	-0,052
-369,000	-87,778	-0,059	-0,013
-367,985	31,137	0,131	-0,082
-366,971	-200,000	0,008	-0,028
-365,956	503,395	-0,099	-0,168
-364,942	-122,671	0,225	-0,026
-363,927	800,000	-0,036	0,102
-362,912	-12,957	-0,098	0,047
-361,898	-43,679	0,110	0,040
-360,883	-92,608	-0,137	0,028
-359,869	573,155	0,014	-0,025
-358,854	-124,339	0,094	-0,011
-357,839	-117,135	0,159	0,021
-356,825	800,000	0,012	-0,026
-355,810	-64,030	0,082	0,025
-354,796	34,795	-0,079	0,051
-353,781	648,875	-0,054	0,101
-352,766	186,678	-0,067	-0,073
-351,752	16,122	-0,091	0,053
-350,737	-114,002	-0,066	-0,009
-349,723	624,622	-0,050	0,093
-348,708	-105,277	0,098	0,016
-347,693	-115,585	0,068	-0,009
-346,679	69,599	-0,101	-0,076
-345,664	91,295	-0,076	-0,063
-344,650	-102,534	0,023	-0,004
-343,635	800,000	0,032	0,101
-342,620	-97,048	0,155	0,030
-341,606	-85,504	-0,120	-0,027
-340,591	-200,000	0,024	0,149
-339,577	106,509	-0,050	-0,044
-338,562	-166,305	-0,077	0,002
-337,548	-75,330	0,109	0,028
-336,533	-102,800	0,035	-0,006
-335,518	-200,000	0,039	-0,182
-334,504	-200,000	-0,041	0,138
-333,489	518,415	-0,035	0,060
-332,475	-200,000	-0,006	-0,037
-331,460	98,032	-0,021	-0,017
-330,445	800,000	0,017	0,049
-329,431	494,635	-0,056	-0,095
-328,416	18,815	0,123	-0,072
-327,402	201,905	-0,038	0,043
-326,387	98,446	-0,050	0,043
-325,372	-136,969	-0,024	-0,002
-324,358	800,000	0,026	-0,081
-323,343	183,889	-0,081	-0,088
-322,329	712,521	0,019	0,037
-321,314	680,291	-0,063	0,121
-320,299	214,320	0,001	0,001
-319,285	398,751	-0,034	0,053
-318,270	7,803	-0,075	0,041
-317,256	-200,000	-0,013	-0,123
-316,241	85,254	-0,115	-0,093
-315,226	746,014	0,026	0,053
-314,212	83,377	0,031	-0,024
-313,197	-131,896	-0,087	-0,008
-312,183	800,000	-0,023	-0,068
-311,168	-130,480	-0,097	0,010
-310,153	-200,000	0,004	-0,168
-309,139	38,707	0,056	-0,037
-308,124	79,446	0,099	0,078
-307,110	664,825	-0,036	0,069
-306,095	0,812	-0,123	0,064
-305,080	-200,000	0,029	0,211
-304,066	-74,852	-0,038	-0,010
-303,051	57,741	0,086	-0,061
-302,037	122,852	-0,045	0,041
-301,022	8,730	0,146	0,080
-300,008	790,265	0,102	0,207
-298,993	259,656	-0,062	-0,079
-297,978	-200,000	0,003	0,216
-296,964	-200,000	-0,005	-0,055
-295,949	187,199	-0,075	-0,082
-294,935	10,699	0,021	-0,012
-293,920	800,000	0,049	-0,125
-292,905	-101,110	0,133	-0,024
-291,891	800,000	0,031	0,075
-290,876	440,560	-0,066	-0,107
-289,862	502,944	-0,033	0,057
-288,847	448,620	-0,061	-0,099
-287,832	-200,000	-0,036	-0,136
-286,818	96,266	-0,020	-0,016
-285,803	-62,834	0,058	0,017
-284,789	-87,900	0,189	0,041
-283,774	331,430	-0,059	0,083
-282,759	616,796	-0,069	0,127
-281,745	-21,225	0,113	-0,050
-280,730	-49,653	-0,143	-0,050
-279,716	163,538	0,087	0,090
-278,701	-162,330	0,090	-0,003
-277,686	15,537	0,090	-0,051
-276,672	30,060	0,090	0,056
-275,657	-200,000	-0,023	0,172
-274,643	800,000	0,013	-0,035
-273,628	-200,000	0,013	-0,059
-272,613	-13,643	0,072	-0,034
-271,599	-116,058	0,038	0,005
-270,584	126,283	0,076	-0,070
-269,570	203,728	0,094	-0,106
-268,555	298,821	-0,038	0,051
-267,540	-1,008	-0,119	-0,061
-266,526	800,000	-0,018	0,055
-265,511	309,284	-0,107	-0,147
-264,497	240,623	0,095	0,116
-263,482	-108,745	0,152	0,024
-262,467	355,808	-0,079	-0,115
-261,453	-67,106	-0,049	0,014
-260,438	615,425	-0,043	0,080
-259,424	30,020	0,090	0,056
-258,409	-133,199	-0,160	-0,015
-257,395	-200,000	0,009	0,058
-256,380	397,704	-0,073	-0,111
-255,365	-112,296	0,224	-0,032
-254,351	51,123	0,086	0,060
-253,336	637,853	-0,035	-0,066
-252,322	86,863	-0,035	-0,028
-251,307	18,090	0,078	-0,045
-250,292	-84,538	0,108	-0,025
-249,278	37,824	0,122	0,079
-248,263	-200,000	0,015	0,059
-247,249	-163,298	0,074	-0,003
-246,234	-200,000	0,006	0,041
-245,219	-98,715	-0,023	0,004
-244,205	124,458	-0,092	0,085
-243,190	-63,153	0,065	-0,019
-242,176	42,765	-0,123	0,082
-241,161	-118,636	0,112	-0,014
-240,146	91,104	-0,064	-0,052
-239,132	70,025	0,078	0,059
-238,117	-142,119	-0,056	-0,004
-237,103	173,949	-0,064	0,068
-236,088	147,167	-0,028	0,028
-235,073	309,628	-0,060	0,082
-234,059	154,385	-0,021	0,022
-233,044	33,132	0,079	0,050
-232,030	-44,827	-0,115	0,042
-231,015	443,097	0,052	-0,084
-230,000	41,827	0,057	-0,038
-228,986	-6,350	-0,065	-0,032
-227,971	206,965	0,169	0,192
-226,957	-137,383	-0,068	-0,006
-225,942	800,000	0,017	0,046
-224,927	-82,219	0,075	0,018
-223,913	-62,444	0,161	-0,048
-222,898	-200,000	-0,007	-0,125
-221,884	225,803	0,092	-0,109
-220,869	-200,000	-0,010	0,054
-219,855	63,373	-0,082	-0,060
-218,840	800,000	0,064	-0,132
-217,825	72,710	-0,095	-0,072
-216,811	-200,000	-0,006	-0,033
-215,796	-47,927	0,128	0,045
-214,782	-151,139	0,105	0,006
-213,767	28,786	-0,147	0,091
-212,752	-200,000	-0,018	-0,119
-211,738	-98,065	0,050	0,009
-210,723	225,989	0,091	0,108
-209,709	-46,597	0,105	-0,037
-208,694	365,214	0,088	-0,130
-207,679	-200,000	-0,022	-0,086
-206,665	772,428	-0,003	0,005
-205,650	-58,756	0,086	0,027
-204,636	14,471	0,056	0,032
-203,621	131,925	-0,135	0,127
-202,606	-73,232	-0,113	0,030
-201,592	499,732	-0,050	0,085
-200,577	228,697	-0,047	0,055
-199,563	-147,162	-0,227	-0,014
-198,548	-147,662	-0,030	0,002
-197,533	746,971	0,055	0,109
-196,519	610,088	0,076	0,139
-195,504	625,344	-0,096	-0,178
-194,490	272,878	-0,018	0,023
-193,475	-200,000	0,022	-0,076
-192,460	-133,410	-0,038	-0,003
-191,446	222,937	0,099	0,116
-190,431	-6,058	-0,086	-0,043
-189,417	130,648	0,031	-0,029
-188,402	800,000	-0,070	0,157
-187,387	800,000	-0,046	-0,132
-186,373	-200,000	-0,017	-0,060
-185,358	477,557	0,031	0,051
-184,344	-200,000	0,000	0,092
-183,329	800,000	-0,012	-0,031
-182,315	106,380	0,092	0,079
-181,300	17,066	-0,060	0,035
-180,285	92,944	-0,014	-0,011
-179,271	162,220	-0,120	0,123
-178,256	-79,323	-0,121	0,030
-177,242	-200,000	0,030	0,121
-176,227	-31,406	0,154	0,063
-175,212	8,629	-0,029	-0,016
-174,198	274,891	0,057	-0,073
-173,183	53,243	-0,048	0,034
-172,169	321,121	-0,062	-0,086
-171,154	-200,000	-0,032	-0,115
-170,139	154,385	-0,060	0,060
-169,125	17,698	-0,123	-0,071
-168,110	-62,041	0,107	-0,032
-167,096	61,950	0,060	-0,044
-166,081	-109,492	-0,111	-0,017
-165,066	-200,000	-0,001	-0,050
-164,052	-106,150	0,034	-0,006
-163,037	265,671	-0,061	0,077
-162,023	-200,000	0,004	0,079
-161,008	-134,982	0,117	-0,010
-159,993	-30,591	-0,120	-0,049
-158,979	-66,776	-0,141	-0,040
-157,964	-200,000	-0,002	-0,039
-156,950	83,802	0,135	-0,107
-155,935	201,436	0,016	-0,019
-154,920	186,845	0,034	0,037
-153,906	-7,099	0,017	0,008
-152,891	800,000	0,045	-0,106
-151,877	-33,691	0,130	0,052
-150,862	-93,089	0,035	-0,007
-149,847	429,319	-0,016	0,025
-148,833	-59,403	0,142	0,044
-147,818	800,000	0,087	-0,233
-146,804	254,982	0,051	-0,064
-145,789	800,000	0,041	0,100
-144,775	-200,000	-0,018	-0,093
-143,760	165,675	-0,087	-0,089
-142,745	127,718	0,078	-0,072
-141,731	146,608	0,177	0,173
-140,716	-200,000	0,007	0,131
-139,702	-200,000	0,020	0,093
-138,687	-113,080	-0,205	0,029
-137,672	286,754	0,067	-0,088
-136,658	297,539	-0,072	-0,096
-135,643	-200,000	-0,018	0,064
-134,629	-42,665	-0,103	0,038
-133,614	-56,418	0,159	0,051
-132,599	-70,180	-0,008	-0,002
-131,585	-176,031	-0,061	0,001
-130,570	-200,000	-0,002	-0,071
-129,556	783,452	0,062	-0,124
-128,541	-200,000	-0,003	-0,087
-127,526	-89,464	0,062	-0,013
-126,512	-200,000	-0,039	0,149
-125,497	-11,638	0,080	0,038
-124,483	-16,951	0,115	0,053
-123,468	-200,000	0,018	-0,067
-122,453	800,000	0,007	0,017
-121,439	505,408	-0,029	0,049
-120,424	390,504	-0,104	0,157
-119,410	-200,000	0,000	0,098
-118,395	-97,403	0,241	0,045
-117,380	228,015	0,104	-0,123
-116,366	303,971	-0,022	-0,029
-115,351	-200,000	0,007	0,024
-114,337	-200,000	0,034	-0,152
-113,322	89,264	0,114	0,092
-112,307	121,152	0,047	-0,043
-111,293	435,428	0,091	0,144
-110,278	441,140	0,061	-0,097
-109,264	294,594	-0,068	-0,091
-108,249	218,372	0,110	-0,127
-107,234	389,624	-0,017	0,025
-106,220	395,910	0,067	-0,103
-105,205	-200,000	0,006	0,107
-104,191	800,000	-0,030	-0,062
-103,176	-85,615	0,105	0,023
-102,162	-74,557	-0,107	0,028
-101,147	54,201	-0,076	-0,053
-100,132	800,000	0,030	-0,081
-99,118	226,103	-0,045	-0,053
-98,103	506,796	0,023	-0,039
-97,089	81,850	0,125	0,098
-96,074	800,000	0,060	0,137
-95,059	165,187	-0,061	-0,063
-94,045	-179,397	0,102	-0,002
-93,030	-200,000	-0,011	0,062
-92,016	-3,557	0,084	0,042
-91,001	285,282	-0,086	0,113
-89,986	-119,420	0,173	0,022
-88,972	77,603	0,051	-0,040
-87,957	-59,344	0,137	-0,042
-86,943	398,387	0,060	-0,091
-85,928	-34,719	0,017	-0,007
-84,913	193,478	-0,045	-0,049
-83,899	-30,161	0,069	0,028
-82,884	-200,000	-0,023	0,081
-81,870	112,111	-0,023	-0,020
-80,855	-79,833	0,049	-0,012
-79,840	29,370	-0,016	0,010
-78,826	82,737	0,032	0,025
-77,811	-200,000	-0,002	-0,190
-76,797	-121,119	-0,116	0,014
-75,782	-129,347	-0,075	-0,007
-74,767	270,042	-0,016	-0,021
-73,753	-200,000	0,005	0,122
-72,738	206,202	0,038	-0,043
-71,724	71,629	-0,044	0,033
-70,709	293,989	0,048	-0,064
-69,694	-70,268	0,104	0,028
-68,680	-200,000	-0,010	0,037
-67,665	-62,098	-0,035	-0,010
-66,651	-200,000	-0,026	0,199
-65,636	46,707	0,085	0,057
-64,622	800,000	0,040	-0,093
-63,607	2,899	-0,084	0,044
-62,592	-102,865	-0,129	-0,022
-61,578	800,000	0,014	-0,036
-60,563	82,318	0,089	0,070
-59,549	457,396	-0,050	0,081
-58,534	-77,825	-1,503	-0,374
-57,519	600,838	-0,750	-1,357
-56,505	-200,000	-0,959	-4,532
-55,490	-85,228	0,741	-0,167
-54,476	800,000	4,911	11,894
-53,461	-200,000	14,787	265,701
-52,446	-200,000	697,648	2268,390
-51,432	587,679	1622,434	2908,050
-50,417	121,126	1630,471	1471,358
-49,403	79,105	1284,458	996,586
-48,388	38,067	1022,781	658,270
-47,373	23,074	982,554	583,047
-46,359	22,240	971,790	573,897
-45,344	21,034	967,244	567,248
-44,330	21,012	966,007	566,427
-43,315	20,782	964,702	564,890
-42,300	20,797	963,792	564,382
-41,286	20,826	962,498	563,698
-40,271	20,752	961,616	562,917
-39,257	20,782	960,814	562,523
-38,242	20,747	959,883	561,841
-37,227	20,795	958,908	561,404
-36,213	20,746	958,023	560,706
-35,198	20,691	957,197	560,021
-34,184	20,740	956,515	559,758
-33,169	20,732	955,510	559,122
-32,154	20,829	954,594	558,880
-31,140	20,808	953,881	558,371
-30,125	20,755	952,916	557,612
-29,111	20,795	952,121	557,254
-28,096	20,751	951,483	556,719
-27,082	20,792	950,683	556,357
-26,067	20,838	949,892	556,023
-25,052	20,820	949,189	555,530
-24,038	20,733	948,615	554,893
-23,023	20,747	948,076	554,602
-22,009	20,792	947,213	554,219
-20,994	20,809	946,550	553,864
-19,979	20,767	946,045	553,412
-18,965	20,796	945,464	553,141
-17,950	20,819	944,865	552,841
-16,936	20,725	944,307	552,193
-15,921	20,712	943,538	551,683
-14,906	20,697	942,758	551,154
-13,892	20,671	942,159	550,702
-12,877	20,656	941,627	550,320
-11,863	20,599	940,959	549,727
-10,848	20,627	940,556	549,557
-9,833	20,801	939,958	549,741
-8,819	20,745	939,355	549,186
-7,804	20,668	938,668	548,521
-6,790	20,681	938,028	548,164
-5,775	20,681	937,426	547,793
-4,760	20,718	936,772	547,506
-3,746	20,659	936,296	547,018
-2,731	20,530	935,688	546,235
-1,717	20,558	934,693	545,720
-0,702	20,483	934,414	545,298
0,313	20,251	933,755	545,004
1,327	23,211	931,803	553,137
2,342	32,370	793,692	495,510
3,356	29,376	451,012	277,029
4,371	-0,887	295,715	151,188
5,386	-4,961	276,914	137,675
6,400	-6,553	271,281	133,372
7,415	-7,209	269,056	131,657
8,429	-6,532	267,825	131,669
9,444	-6,607	267,002	131,183
10,459	-6,465	266,284	130,949
11,473	-6,536	265,669	130,570
12,488	-6,542	265,239	130,341
13,502	-6,582	264,533	129,946
14,517	-6,592	264,299	129,810
15,531	-6,361	263,967	129,846
16,546	-6,256	263,590	129,745
17,561	-6,126	263,175	129,647
18,575	-6,229	262,939	129,426
19,590	-6,218	262,470	129,194
20,604	-6,129	262,210	129,135
21,619	-6,238	262,014	128,927
22,634	-6,376	261,524	128,551
23,648	-6,237	261,300	128,555
24,663	-6,296	261,057	128,370
25,677	-6,122	260,664	128,322
26,692	-6,439	260,629	128,008
27,707	-6,167	260,259	128,059
28,721	-6,221	260,080	127,912
29,736	-6,165	259,762	127,794
30,750	-6,292	259,472	127,526
31,765	-6,402	259,369	127,366
32,780	-6,265	259,101	127,345
33,794	-6,219	258,874	127,264
34,809	-6,220	258,568	127,100
35,823	-6,131	258,309	127,041
36,838	-6,289	258,049	126,762
37,853	-6,255	257,807	126,662
38,867	-6,428	257,743	126,465
39,882	-6,438	257,545	126,349
40,896	-6,301	257,262	126,319
41,911	-6,279	256,958	126,178
42,926	-6,347	256,820	126,039
43,940	-6,420	256,525	125,819
44,955	-6,486	256,268	125,623
45,969	-6,537	256,169	125,518
46,984	-6,510	255,736	125,319
47,999	-6,826	255,615	124,970
49,013	-6,905	255,139	124,657
50,028	-7,026	255,097	124,519
51,042	-6,911	254,641	124,387
52,057	-7,134	254,502	124,113
53,071	-7,109	254,488	124,117
54,086	-6,940	254,313	124,167
55,101	-6,774	254,015	124,156
56,115	-6,671	253,872	124,165
57,130	-6,347	253,752	124,378
58,144	-6,187	253,563	124,414
59,159	-6,127	253,398	124,374
60,174	-6,205	253,167	124,181
61,188	-6,345	252,940	123,938
62,203	-6,321	252,710	123,835
63,217	-6,393	252,555	123,685
64,232	-6,336	252,353	123,625
65,247	-6,400	252,140	123,453
66,261	-6,322	251,845	123,366
67,276	-6,412	251,581	123,148
68,290	-6,658	251,371	122,822
69,305	-6,773	251,157	122,607
70,320	-6,813	251,078	122,523
71,334	-6,276	250,773	122,825
72,349	-6,209	250,773	122,872
73,363	-6,314	250,523	122,648
74,378	-6,227	250,346	122,626
75,393	-6,140	250,062	122,551
76,407	-6,351	249,830	122,245
77,422	-6,260	249,678	122,237
78,436	-6,336	249,389	122,020
79,451	-6,275	249,279	122,008
80,466	-6,474	248,986	121,683
81,480	-6,548	248,766	121,501
82,495	-6,431	248,677	121,547
83,509	-6,452	248,381	121,373
84,524	-6,493	248,459	121,366
85,539	-6,550	247,976	121,071
86,553	-6,526	247,782	120,985
87,568	-6,657	247,800	120,873
88,582	-6,530	247,447	120,797
89,597	-6,574	247,274	120,665
90,611	-6,466	247,041	120,632
91,626	-6,531	247,048	120,569
92,641	-6,312	246,801	120,623
93,655	-6,377	246,591	120,455
94,670	-6,249	246,256	120,388
95,684	-6,354	246,074	120,201
96,699	-6,577	245,907	119,920
97,714	-6,609	245,864	119,861
98,728	-6,697	245,700	119,697
99,743	-6,739	245,494	119,550
100,757	-6,645	245,225	119,488
101,772	-6,693	244,957	119,306
102,787	-6,586	244,871	119,343
103,801	-6,579	244,690	119,251
104,816	-6,542	244,629	119,241
105,830	-6,261	244,469	119,388
106,845	-6,268	244,227	119,253
107,860	-6,422	244,078	119,041
108,874	-6,549	243,764	118,771
109,889	-6,692	243,566	118,545
110,903	-6,693	243,471	118,488
111,918	-6,658	243,222	118,384
112,933	-6,653	243,153	118,345
113,947	-6,531	242,997	118,360
114,962	-6,424	242,731	118,308
115,976	-6,495	242,660	118,204
116,991	-6,453	242,412	118,108
118,006	-6,429	242,323	118,074
119,020	-6,571	242,127	117,850
120,035	-6,395	241,960	117,904
121,049	-6,369	242,038	117,953
122,064	-6,089	241,660	117,989
123,079	-6,334	241,368	117,635
124,093	-6,662	241,388	117,363
125,108	-6,624	241,001	117,196
126,122	-6,873	240,890	116,926
127,137	-6,735	240,561	116,869
128,151	-6,896	240,367	116,632
129,166	-6,725	240,222	116,692
130,181	-6,730	240,190	116,663
131,195	-6,731	239,939	116,529
132,210	-6,604	239,840	116,574
133,224	-6,487	239,631	116,558
134,239	-6,423	239,382	116,479
135,254	-6,459	239,300	116,400
136,268	-6,514	238,913	116,156
137,283	-6,692	238,739	115,916
138,297	-6,798	238,561	115,733
139,312	-7,060	238,435	115,449
140,327	-6,654	238,270	115,688
141,341	-6,264	238,377	116,047
142,356	-6,120	238,191	116,063
143,370	-6,238	237,988	115,858
144,385	-6,108	237,867	115,894
145,400	-5,985	237,683	115,894
146,414	-6,077	237,377	115,660
147,429	-6,217	237,175	115,438
148,443	-6,207	236,967	115,334
149,458	-6,226	236,824	115,240
150,473	-6,306	236,759	115,133
151,487	-6,404	236,548	114,941
152,502	-6,236	236,349	114,969
153,516	-6,095	236,272	115,035
154,531	-6,281	236,146	114,814
155,546	-6,227	235,903	114,729
156,560	-6,120	235,624	114,669
157,575	-6,392	235,475	114,368
158,589	-6,403	235,282	114,255
159,604	-6,204	235,191	114,360
160,619	-6,112	234,991	114,326
161,633	-5,993	234,824	114,330
162,648	-6,038	234,801	114,273
163,662	-6,151	234,558	114,055
164,677	-6,258	234,463	113,912
165,692	-6,180	234,314	113,892
166,706	-6,116	234,175	113,866
167,721	-5,928	233,960	113,900
168,735	-6,068	233,884	113,741
169,750	-6,280	233,769	113,507
170,764	-6,113	233,365	113,433
171,779	-6,279	233,403	113,310
172,794	-6,170	233,377	113,374
173,808	-6,271	232,886	113,045
174,823	-7,062	232,759	112,346
175,837	-6,995	232,694	112,359
176,852	-6,312	232,462	112,776
177,867	-6,463	232,503	112,667
178,881	-6,172	232,180	112,730
179,896	-6,138	232,067	112,693
180,910	-5,889	231,891	112,793
181,925	-6,170	231,869	112,550
182,940	-6,165	231,577	112,403
183,954	-6,216	231,584	112,355
184,969	-6,056	231,343	112,355
185,983	-5,973	231,359	112,418
186,998	-5,901	231,066	112,322
188,013	-6,062	230,845	112,079
189,027	-5,840	230,671	112,158
190,042	-6,077	230,636	111,945
191,056	-5,961	230,287	111,856
192,071	-6,311	230,296	111,577
193,086	-6,220	230,107	111,547
194,100	-6,367	229,812	111,279
195,115	-6,940	229,372	110,610
196,129	-7,750	229,081	109,830
197,144	-3,886	230,183	113,367
198,159	0,733	231,694	117,724
199,173	4,204	232,530	120,864
200,188	4,534	232,554	121,125
201,202	4,458	232,412	120,980
202,217	4,700	232,130	121,013
203,232	4,712	232,160	121,027
204,246	4,748	232,167	121,048
205,261	4,888	231,920	121,018
206,275	5,170	231,809	121,169
207,290	5,336	231,484	121,118
208,304	5,195	231,430	120,969
209,319	5,144	231,320	120,860
210,334	5,154	231,054	120,718
211,348	4,773	230,805	120,282
212,363	4,332	230,619	119,832
213,377	4,309	230,358	119,668
214,392	4,152	230,251	119,479
215,407	4,005	230,189	119,323
216,421	4,518	229,916	119,568
217,436	4,213	229,770	119,245
218,450	3,906	229,621	118,920
219,465	4,248	229,311	119,013
220,480	4,258	229,376	119,044
221,494	4,026	229,118	118,720
222,509	4,068	229,025	118,694
223,523	4,163	228,916	118,700
224,538	4,090	228,836	118,592
225,553	4,223	228,532	118,526
226,567	4,331	228,470	118,566
227,582	4,285	228,440	118,504
228,596	4,558	228,237	118,598
229,611	4,373	228,083	118,366
230,626	4,053	227,840	117,984
231,640	4,283	227,483	117,964
232,655	4,395	227,626	118,113
233,669	4,961	227,678	118,564
234,684	4,656	227,419	118,185
235,699	4,561	227,269	118,024
236,713	4,259	227,181	117,737
237,728	4,165	226,813	117,464
238,742	3,935	226,829	117,286
239,757	4,138	226,481	117,250
240,772	4,139	226,372	117,185
241,786	4,098	226,161	117,034
242,801	4,380	226,234	117,276
243,815	4,639	226,014	117,347
244,830	4,697	225,931	117,338
245,844	4,200	225,728	116,846
246,859	4,341	225,495	116,821
247,874	4,773	225,381	117,079
248,888	4,632	225,277	116,907
249,903	4,405	225,023	116,593
250,917	4,258	224,857	116,386
251,932	4,430	224,669	116,408
252,947	4,251	224,627	116,241
253,961	4,109	224,429	116,022
254,976	4,152	224,310	115,982
255,990	4,520	224,240	116,212
257,005	4,138	224,298	115,944
258,020	4,508	224,049	116,083
259,034	4,635	223,995	116,141
260,049	4,431	223,717	115,833
261,063	4,369	223,687	115,760
262,078	4,490	223,431	115,708
263,093	4,484	223,410	115,682
264,107	4,352	223,200	115,465
265,122	4,432	223,021	115,422
266,136	4,570	222,945	115,476
267,151	4,601	222,789	115,407
268,166	4,280	222,433	114,973
269,180	3,941	222,207	114,594
270,195	4,078	222,051	114,605
271,209	4,175	221,900	114,589
272,224	4,031	221,912	114,478
273,239	4,162	221,812	114,514
274,253	4,020	221,593	114,285
275,268	4,010	221,346	114,140
276,282	3,942	221,286	114,048
277,297	3,855	221,105	113,880
278,312	3,823	221,038	113,812
279,326	4,011	220,916	113,878
280,341	4,037	220,692	113,772
281,355	4,185	220,537	113,791
282,370	4,331	220,334	113,783
283,384	4,053	220,320	113,561
284,399	3,956	220,144	113,389
285,414	4,030	219,948	113,333
286,428	4,250	219,812	113,414
287,443	4,183	219,803	113,350
288,457	4,258	219,646	113,314
289,472	4,393	219,326	113,238
290,487	3,957	219,223	112,855
291,501	3,819	219,008	112,633
292,516	3,717	219,073	112,582
293,530	4,085	218,815	112,708
294,545	3,905	218,760	112,539
295,560	4,063	218,561	112,541
296,574	4,211	218,428	112,571
297,589	4,338	218,325	112,601
298,603	4,287	218,241	112,510
299,618	4,385	218,090	112,493
300,633	4,164	218,085	112,320
301,647	4,490	217,867	112,435
302,662	4,556	217,706	112,389
303,676	4,523	217,544	112,272
304,691	4,620	217,386	112,251
305,706	4,518	217,244	112,093
306,720	4,450	217,141	111,981
307,735	4,375	216,916	111,801
308,749	4,066	216,792	111,503
309,764	4,252	216,719	111,591
310,779	4,679	216,416	111,734
311,793	4,461	216,336	111,524
312,808	4,368	216,349	111,454
313,822	4,470	216,160	111,420
314,837	3,975	216,005	110,974
315,852	4,029	215,694	110,843
316,866	4,161	215,801	110,982
317,881	4,485	215,521	111,062
318,895	4,443	215,411	110,965
319,910	4,180	215,222	110,668
320,925	4,086	214,999	110,477
321,939	3,830	214,647	110,103
322,954	3,690	214,916	110,131
323,968	4,139	214,931	110,451
324,983	4,305	214,728	110,455
325,997	4,309	214,449	110,305
327,012	4,243	214,412	110,229
328,027	4,137	214,305	110,089
329,041	4,656	214,175	110,382
330,056	4,688	214,080	110,346
331,070	4,359	213,738	109,926
332,085	3,970	213,547	109,541
333,100	3,945	213,598	109,539
334,114	4,275	213,377	109,651
335,129	4,172	213,235	109,495
336,143	4,203	212,956	109,364
337,158	4,064	213,042	109,300
338,173	4,272	212,806	109,316
339,187	3,905	212,644	108,963
340,202	3,757	212,509	108,779
341,216	3,788	212,380	108,726
342,231	3,923	212,313	108,777
343,246	3,920	212,152	108,683
344,260	3,976	211,935	108,602
345,275	4,298	211,745	108,722
346,289	4,124	211,710	108,571
347,304	4,253	211,675	108,635
348,319	4,093	211,566	108,456
349,333	4,202	211,502	108,491
350,348	4,496	211,270	108,569
351,362	4,608	211,041	108,520
352,377	4,512	211,093	108,470
353,392	3,896	210,911	107,935
354,406	4,195	210,800	108,077
355,421	192,619	1346,922	1430,187
356,435	153,695	1485,426	1430,270
