DTS Sentinel unit serial number:	SN410029Multiplexer serial number:	ORYXHardware model number:	OX2-SRSoftware version number:	ORYX F/W v4,00 Oryx Data Collector v3.7.2.0data status	okinstallation	B6 Nyhavnadifferential loss correction	single-endedforward channel	channel 2reverse channel	N/Adate	2023/12/08time	20:10:08forward acquisition time	300,00reverse acquisition time	0,00gamma	499,1914k internal	0,3158k external	0,3158temperature offset calibration	1,0000default loss term (dB/km)	0,3820temperature slope calibration	1,0000multiplexer offset coefficient	1,0000multiplexer slope coefficient	1,0000fibre end	0,00T internal ref (°C)	15,20T ext. ref 1 (°C)	-1,39T ext. ref 2 (°C)	-1,41length (m)	temperature (°C)	Stokes	anti-Stokes-744,400	-200,000	0,008	-0,041
-743,385	-157,420	-0,289	0,013
-742,371	-115,494	0,223	0,031
-741,356	-144,577	-0,305	0,020
-740,342	217,172	0,097	0,114
-739,327	-147,991	-0,228	0,014
-738,312	260,993	-0,041	0,053
-737,298	-75,609	-0,243	-0,063
-736,283	-14,009	0,103	0,049
-735,269	-160,554	-0,281	0,011
-734,254	800,000	0,032	0,073
-733,239	60,800	-0,401	-0,292
-732,225	-44,706	0,128	-0,047
-731,210	244,283	0,049	-0,060
-730,196	210,547	0,055	-0,064
-729,181	64,778	-0,055	-0,041
-728,167	-9,202	0,060	-0,029
-727,152	27,183	-0,040	0,025
-726,137	-200,000	0,011	0,081
-725,123	739,975	-0,092	-0,184
-724,108	378,929	-0,068	-0,103
-723,094	-80,685	-0,144	-0,035
-722,079	-66,892	-0,083	-0,024
-721,064	84,229	-0,084	-0,068
-720,050	75,088	-0,026	-0,020
-719,035	7,964	-0,061	0,034
-718,021	31,475	0,011	-0,007
-717,006	39,313	-0,138	-0,091
-715,991	800,000	-0,026	-0,070
-714,977	357,289	-0,058	0,085
-713,962	-200,000	0,003	0,101
-712,948	-31,434	0,080	-0,033
-711,933	-27,605	-0,102	0,044
-710,918	-90,787	-0,072	0,015
-709,904	-105,977	-0,156	-0,026
-708,889	-200,000	-0,008	-0,082
-707,875	-126,979	-0,039	-0,004
-706,860	-200,000	0,006	-0,047
-705,845	197,839	0,050	-0,057
-704,831	800,000	0,052	0,127
-703,816	-35,518	-0,103	-0,041
-702,802	217,960	-0,121	-0,142
-701,787	-200,000	0,011	-0,050
-700,772	-66,841	-0,089	0,026
-699,758	-83,618	0,056	0,013
-698,743	343,487	-0,070	0,101
-697,729	-40,584	0,034	0,013
-696,714	-23,680	-0,061	-0,027
-695,699	-32,179	-0,081	-0,033
-694,685	-200,000	0,001	-0,104
-693,670	-200,000	-0,014	-0,113
-692,656	-164,167	0,083	0,003
-691,641	189,205	-0,104	-0,114
-690,627	-200,000	-0,001	-0,038
-689,612	800,000	0,045	0,092
-688,597	800,000	0,017	0,048
-687,583	398,783	0,023	-0,035
-686,568	-57,667	0,163	-0,052
-685,554	88,887	0,024	0,020
-684,539	-200,000	-0,040	0,177
-683,524	551,053	0,080	0,142
-682,510	-13,368	0,069	-0,033
-681,495	-200,000	0,008	0,030
-680,481	-48,914	-0,109	-0,038
-679,466	139,787	-0,147	-0,142
-678,451	-88,885	0,140	-0,030
-677,437	-200,000	-0,028	-0,108
-676,422	18,695	0,051	0,030
-675,408	-121,774	-0,026	0,003
-674,393	-139,989	-0,049	0,004
-673,378	-200,000	-0,042	-0,150
-672,364	321,898	-0,075	0,105
-671,349	-78,556	0,056	0,014
-670,335	85,014	-0,068	0,055
-669,320	800,000	0,071	0,189
-668,305	742,312	-0,093	0,185
-667,291	697,141	0,030	-0,058
-666,276	-111,788	-0,190	-0,028
-665,262	25,035	-0,068	-0,041
-664,247	234,813	-0,070	-0,085
-663,232	800,000	-0,053	-0,115
-662,218	302,823	0,033	-0,045
-661,203	-200,000	0,007	-0,078
-660,189	400,522	0,057	-0,087
-659,174	800,000	-0,042	-0,097
-658,159	-200,000	-0,017	-0,059
-657,145	25,722	-0,073	-0,044
-656,130	-86,490	0,170	0,038
-655,116	242,040	-0,023	0,028
-654,101	-30,669	0,111	0,046
-653,086	322,575	0,100	-0,141
-652,072	-200,000	0,022	-0,072
-651,057	-200,000	-0,034	-0,157
-650,043	-200,000	-0,005	0,087
-649,028	800,000	0,052	-0,122
-648,014	134,839	0,089	-0,085
-646,999	11,098	0,115	0,064
-645,984	-200,000	0,007	0,050
-644,970	-19,209	-0,101	-0,046
-643,955	579,235	-0,069	0,125
-642,941	564,637	-0,049	-0,087
-641,926	-116,135	-0,115	0,015
-640,911	442,180	0,025	0,040
-639,897	-113,653	-0,018	-0,003
-638,882	45,610	-0,062	-0,042
-637,868	122,835	-0,099	0,091
-636,853	-110,306	-0,149	-0,022
-635,838	-145,253	-0,026	-0,002
-634,824	103,891	0,043	-0,037
-633,809	-200,000	0,022	0,214
-632,795	-142,607	-0,088	0,006
-631,780	-44,886	-0,036	-0,013
-630,765	-200,000	-0,010	0,043
-629,751	220,312	0,031	0,036
-628,736	-200,000	-0,018	-0,075
-627,722	131,927	-0,098	0,093
-626,707	800,000	0,039	-0,106
-625,692	-200,000	0,024	-0,092
-624,678	42,904	-0,043	0,029
-623,663	585,549	0,072	0,130
-622,649	210,167	0,010	-0,012
-621,634	518,600	-0,088	-0,151
-620,619	-110,327	-0,102	-0,015
-619,605	-141,528	-0,020	-0,001
-618,590	482,335	0,017	0,028
-617,576	-37,843	0,060	-0,023
-616,561	267,250	-0,009	0,012
-615,546	-133,020	0,038	-0,004
-614,532	-1,884	-0,091	0,047
-613,517	-200,000	0,011	-0,063
-612,503	124,641	0,072	0,067
-611,488	-154,803	0,171	0,008
-610,474	103,835	-0,049	-0,042
-609,459	-98,752	0,021	0,004
-608,444	662,936	-0,040	0,077
-607,430	466,544	-0,056	-0,092
-606,415	-73,396	-0,069	-0,018
-605,401	305,047	0,040	0,055
-604,386	-77,253	-0,090	-0,023
-603,371	571,349	-0,012	-0,021
-602,357	-200,000	-0,009	-0,103
-601,342	-7,670	-0,075	0,037
-600,328	-51,007	-0,094	0,032
-599,313	221,384	0,032	-0,038
-598,298	800,000	0,022	0,053
-597,284	514,509	0,052	-0,089
-596,269	88,889	-0,081	0,066
-595,255	188,642	0,138	0,151
-594,240	800,000	-0,019	-0,043
-593,225	-200,000	-0,003	0,086
-592,211	-134,430	0,079	-0,007
-591,196	-91,123	0,018	-0,004
-590,182	26,154	0,117	-0,071
-589,167	569,484	0,071	0,127
-588,152	240,066	-0,019	-0,023
-587,138	-83,925	-0,044	0,010
-586,123	-66,098	-0,167	0,049
-585,109	-41,807	0,181	-0,068
-584,094	157,913	-0,016	-0,017
-583,079	-200,000	-0,014	-0,093
-582,065	-11,303	-0,105	-0,050
-581,050	105,568	0,102	-0,088
-580,036	-69,649	0,135	-0,037
-579,021	-145,116	-0,095	0,006
-578,006	58,051	0,099	-0,071
-576,992	4,353	-0,057	0,031
-575,977	-200,000	-0,001	-0,060
-574,963	-135,164	-0,106	-0,009
-573,948	-200,000	-0,023	0,091
-572,934	-200,000	-0,005	0,022
-571,919	68,069	-0,054	-0,040
-570,904	164,760	-0,075	-0,078
-569,890	104,543	-0,066	-0,056
-568,875	-179,222	0,037	-0,001
-567,861	800,000	0,036	-0,076
-566,846	16,526	0,113	0,065
-565,831	-103,802	0,082	-0,014
-564,817	308,062	-0,051	-0,070
-563,802	800,000	-0,020	-0,042
-562,788	217,281	0,068	0,079
-561,773	18,258	0,091	-0,053
-560,758	800,000	0,022	0,045
-559,744	-160,280	0,059	-0,002
-558,729	57,469	-0,043	-0,031
-557,715	332,956	-0,063	-0,089
-556,700	-200,000	-0,024	-0,100
-555,685	800,000	-0,036	-0,075
-554,671	157,233	-0,057	0,058
-553,656	4,405	0,039	0,021
-552,642	31,032	-0,171	-0,107
-551,627	-135,295	0,073	-0,006
-550,612	-30,202	-0,106	0,044
-549,598	-200,000	0,006	-0,025
-548,583	-105,341	0,055	0,009
-547,569	63,506	-0,119	0,087
-546,554	576,798	0,106	-0,191
-545,539	257,975	-0,068	0,086
-544,525	-118,939	0,017	-0,002
-543,510	-120,654	-0,069	0,008
-542,496	-99,862	-0,122	-0,022
-541,481	800,000	0,051	0,126
-540,466	240,331	-0,047	-0,057
-539,452	-96,932	-0,087	-0,017
-538,437	94,757	0,134	0,111
-537,423	-173,724	-0,046	-0,001
-536,408	800,000	0,050	-0,114
-535,393	-44,823	-0,068	-0,025
-534,379	446,970	0,056	-0,091
-533,364	-200,000	-0,000	0,047
-532,350	145,105	0,076	0,074
-531,335	-67,307	0,073	0,021
-530,321	-200,000	0,000	0,111
-529,306	-134,191	0,182	0,016
-528,291	92,018	0,027	-0,023
-527,277	44,940	-0,110	0,074
-526,262	257,839	-0,045	-0,057
-525,248	-27,599	-0,134	-0,056
-524,233	760,325	0,040	-0,081
-523,218	-200,000	-0,029	-0,135
-522,204	187,689	-0,016	0,018
-521,189	531,459	0,022	-0,038
-520,175	44,299	0,057	0,038
-519,160	-132,189	0,062	0,006
-518,145	-200,000	-0,027	-0,103
-517,131	-4,033	-0,073	-0,037
-516,116	800,000	-0,008	0,017
-515,102	31,024	-0,071	0,044
-514,087	145,251	0,034	0,034
-513,072	-47,816	-0,167	-0,059
-512,058	22,075	-0,071	-0,042
-511,043	-200,000	0,006	-0,100
-510,029	12,667	-0,038	0,021
-509,014	-200,000	0,017	-0,075
-507,999	-11,216	-0,052	-0,025
-506,985	800,000	-0,049	-0,148
-505,970	22,665	-0,109	0,065
-504,956	-200,000	0,004	-0,044
-503,941	-200,000	0,019	0,082
-502,926	-142,604	-0,149	-0,010
-501,912	800,000	-0,023	0,074
-500,897	-41,736	0,085	0,032
-499,883	-200,000	0,001	-0,056
-498,868	-196,552	-0,043	0,000
-497,853	-137,422	0,052	-0,004
-496,839	175,990	-0,041	0,044
-495,824	522,580	-0,032	0,056
-494,810	283,763	-0,075	0,098
-493,795	92,689	0,023	-0,019
-492,781	-200,000	-0,002	0,087
-491,766	-200,000	0,016	0,090
-490,751	-200,000	0,026	0,091
-489,737	-66,633	0,071	0,020
-488,722	109,400	-0,112	0,098
-487,708	-49,907	-0,068	0,023
-486,693	800,000	0,037	0,081
-485,678	666,834	0,029	-0,055
-484,664	-200,000	-0,007	0,068
-483,649	539,636	-0,064	0,111
-482,635	-75,514	-0,090	-0,023
-481,620	-90,077	0,098	0,021
-480,605	800,000	0,024	0,050
-479,591	-141,251	-0,097	-0,007
-478,576	-200,000	-0,015	0,050
-477,562	-73,377	-0,141	-0,037
-476,547	255,781	-0,038	-0,047
-475,532	4,601	-0,047	0,025
-474,518	-200,000	0,021	0,105
-473,503	-200,000	-0,012	-0,055
-472,489	-21,740	0,029	-0,013
-471,474	-200,000	-0,001	0,064
-470,459	-200,000	-0,019	-0,121
-469,445	-173,191	-0,087	0,002
-468,430	-200,000	0,003	-0,144
-467,416	275,864	-0,071	-0,092
-466,401	-104,036	-0,069	-0,012
-465,386	800,000	0,049	0,109
-464,372	-42,201	-0,096	0,036
-463,357	-159,685	-0,083	-0,003
-462,343	66,991	-0,053	0,039
-461,328	-91,313	0,086	0,018
-460,313	-200,000	0,016	-0,062
-459,299	117,949	-0,093	0,083
-458,284	-129,808	0,075	0,007
-457,270	297,378	-0,071	-0,095
-456,255	112,252	-0,042	-0,037
-455,241	-57,288	-0,108	0,035
-454,226	-200,000	0,004	-0,187
-453,211	-200,000	0,003	-0,161
-452,197	598,424	0,071	0,128
-451,182	356,575	-0,079	0,116
-450,168	800,000	0,080	0,164
-449,153	-114,307	-0,134	-0,019
-448,138	488,703	0,072	0,121
-447,124	-200,000	0,000	-0,119
-446,109	-200,000	0,034	-0,130
-445,095	-200,000	-0,008	0,033
-444,080	-5,194	0,009	-0,005
-443,065	21,532	0,108	0,064
-442,051	-7,936	-0,151	-0,074
-441,036	17,503	0,045	-0,026
-440,022	195,442	-0,061	-0,068
-439,007	-200,000	-0,003	0,110
-437,992	18,014	0,073	0,042
-436,978	19,403	0,031	-0,018
-435,963	-113,953	0,107	0,015
-434,949	800,000	0,054	-0,150
-433,934	71,185	-0,143	-0,108
-432,919	-200,000	-0,029	-0,111
-431,905	-20,202	-0,035	0,016
-430,890	1,336	0,130	-0,068
-429,876	-15,316	0,149	0,069
-428,861	-200,000	0,058	-0,209
-427,846	800,000	-0,028	0,060
-426,832	75,515	-0,125	-0,096
-425,817	-27,748	-0,012	-0,005
-424,803	800,000	-0,025	-0,069
-423,788	-200,000	0,003	0,012
-422,773	-171,612	0,145	0,003
-421,759	234,563	0,021	-0,025
-420,744	-200,000	0,016	0,084
-419,730	275,993	-0,028	-0,036
-418,715	-63,651	0,008	-0,002
-417,701	68,009	0,079	-0,059
-416,686	-114,298	0,162	-0,023
-415,671	800,000	-0,028	0,069
-414,657	372,472	0,097	0,144
-413,642	-121,066	-0,114	-0,014
-412,628	260,628	-0,102	-0,129
-411,613	82,601	-0,017	-0,014
-410,598	-34,933	0,124	-0,049
-409,584	800,000	-0,020	0,061
-408,569	212,288	-0,085	0,098
-407,555	199,526	-0,088	0,098
-406,540	800,000	-0,065	0,167
-405,525	800,000	0,057	-0,129
-404,511	99,983	-0,035	-0,030
-403,496	360,223	-0,072	-0,106
-402,482	-150,357	0,081	0,004
-401,467	247,187	-0,090	0,111
-400,452	800,000	0,036	0,088
-399,438	800,000	0,008	0,020
-398,423	-200,000	0,013	0,050
-397,409	470,934	0,028	0,045
-396,394	-200,000	-0,029	-0,119
-395,379	800,000	0,053	0,133
-394,365	-200,000	0,019	0,100
-393,350	93,167	0,077	-0,063
-392,336	14,824	-0,044	0,025
-391,321	324,205	-0,023	0,032
-390,306	800,000	0,015	-0,035
-389,292	800,000	-0,034	0,081
-388,277	-33,631	0,156	0,062
-387,263	16,923	0,077	-0,044
-386,248	-200,000	0,026	-0,105
-385,233	800,000	-0,016	-0,033
-384,219	-71,945	-0,065	-0,017
-383,204	76,112	-0,033	0,025
-382,190	-60,044	-0,044	-0,013
-381,175	15,222	0,077	0,044
-380,160	-33,559	0,114	-0,046
-379,146	-121,267	0,084	0,010
-378,131	-200,000	-0,003	0,066
-377,117	-200,000	0,003	0,202
-376,102	800,000	-0,085	0,176
-375,088	-200,000	0,026	0,100
-374,073	800,000	0,029	-0,072
-373,058	-200,000	-0,002	0,064
-372,044	-119,688	-0,105	0,013
-371,029	-200,000	0,047	0,181
-370,015	295,666	-0,078	0,104
-369,000	800,000	0,043	-0,091
-367,985	-200,000	-0,006	-0,037
-366,971	116,287	0,074	-0,066
-365,956	-200,000	-0,015	-0,075
-364,942	-200,000	0,010	0,110
-363,927	800,000	-0,055	-0,119
-362,912	800,000	-0,019	-0,056
-361,898	-200,000	0,027	0,132
-360,883	800,000	0,021	-0,047
-359,869	105,773	-0,062	0,053
-358,854	-61,024	0,130	0,040
-357,839	-29,242	0,050	0,021
-356,825	148,634	-0,070	0,069
-355,810	-200,000	-0,022	-0,080
-354,796	243,921	-0,043	0,052
-353,781	-200,000	-0,000	0,034
-352,766	-103,598	-0,040	0,007
-351,752	510,916	0,100	0,169
-350,737	-200,000	0,026	-0,099
-349,723	714,877	-0,044	-0,085
-348,708	-30,370	0,059	0,024
-347,693	-41,312	0,121	-0,045
-346,679	486,381	-0,079	-0,131
-345,664	800,000	0,031	0,093
-344,650	369,174	-0,040	-0,059
-343,635	-200,000	-0,002	0,028
-342,620	-200,000	0,000	0,179
-341,606	169,010	0,060	0,062
-340,591	-200,000	-0,001	0,159
-339,577	237,866	-0,060	-0,073
-338,562	196,638	-0,067	-0,074
-337,548	-200,000	0,002	-0,096
-336,533	101,489	0,106	0,090
-335,518	-200,000	-0,015	-0,051
-334,504	-200,000	0,006	0,062
-333,489	167,487	0,071	-0,074
-332,475	-53,114	0,037	-0,012
-331,460	343,652	-0,044	0,062
-330,445	553,287	0,035	-0,061
-329,431	-200,000	0,000	-0,075
-328,416	703,001	-0,045	-0,087
-327,402	124,207	0,105	0,096
-326,387	7,514	0,088	0,048
-325,372	408,379	0,045	0,069
-324,358	241,447	-0,038	0,046
-323,343	69,857	-0,065	-0,049
-322,329	5,327	0,035	0,019
-321,314	39,217	0,054	0,035
-320,299	-200,000	0,027	0,157
-319,285	594,499	0,042	0,076
-318,270	800,000	-0,057	0,171
-317,256	772,475	-0,037	-0,073
-316,241	427,920	-0,077	-0,121
-315,226	-29,456	0,128	0,053
-314,212	800,000	0,051	-0,149
-313,197	-200,000	0,011	0,082
-312,183	-117,207	-0,072	0,009
-311,168	-200,000	-0,004	0,126
-310,153	-10,064	-0,056	0,027
-309,139	637,827	-0,089	-0,164
-308,124	-130,702	0,072	-0,007
-307,110	800,000	0,065	0,157
-306,095	-93,175	-0,112	-0,022
-305,080	800,000	0,032	0,095
-304,066	39,466	-0,096	0,062
-303,051	800,000	-0,100	-0,206
-302,037	476,946	0,017	-0,028
-301,022	-53,263	0,023	0,008
-300,008	-27,537	-0,058	-0,024
-298,993	-200,000	0,021	0,086
-297,978	295,025	-0,034	-0,046
-296,964	557,701	0,065	-0,114
-295,949	-60,201	-0,041	-0,013
-294,935	-36,233	-0,035	-0,014
-293,920	350,206	0,032	-0,046
-292,905	-200,000	0,023	0,120
-291,891	103,915	0,081	0,069
-290,876	37,082	0,077	-0,049
-289,862	800,000	0,039	-0,124
-288,847	800,000	-0,046	-0,132
-287,832	-200,000	-0,004	-0,112
-286,818	-24,653	-0,076	0,032
-285,803	246,808	0,126	0,154
-284,789	65,830	-0,035	-0,026
-283,774	697,031	0,070	0,134
-282,759	494,105	-0,064	-0,106
-281,745	-182,703	0,134	0,002
-280,730	-103,617	-0,094	-0,016
-279,716	-163,335	0,140	-0,005
-278,701	-200,000	-0,016	-0,071
-277,686	734,642	0,072	0,140
-276,672	68,713	-0,006	0,004
-275,657	-164,406	0,044	-0,001
-274,643	17,964	0,122	-0,070
-273,628	-200,000	-0,022	-0,149
-272,613	244,136	0,075	-0,091
-271,599	-200,000	0,001	0,099
-270,584	800,000	0,038	0,108
-269,570	800,000	0,020	0,048
-268,555	67,494	0,127	0,094
-267,540	-134,289	0,212	-0,019
-266,526	-26,680	-0,109	-0,046
-265,511	800,000	-0,072	-0,160
-264,497	-200,000	-0,042	0,157
-263,482	25,799	0,037	-0,022
-262,467	-200,000	0,076	0,249
-261,453	154,213	-0,058	-0,058
-260,438	-130,643	-0,092	0,009
-259,424	127,143	0,111	-0,102
-258,409	140,697	-0,035	-0,033
-257,395	-200,000	0,008	0,072
-256,380	20,797	-0,055	0,032
-255,365	-200,000	-0,010	-0,086
-254,351	-200,000	-0,005	0,019
-253,336	173,175	0,024	-0,025
-252,322	59,089	0,130	-0,092
-251,307	29,674	0,051	0,031
-250,292	-105,278	0,080	0,013
-249,278	26,419	-0,069	0,042
-248,263	164,447	-0,079	0,081
-247,249	-99,416	0,112	0,020
-246,234	-49,464	-0,046	0,016
-245,219	-69,067	-0,128	-0,035
-244,205	326,531	-0,061	-0,084
-243,190	-10,195	0,147	-0,070
-242,176	-200,000	0,004	-0,013
-241,161	71,041	0,080	0,060
-240,146	800,000	0,051	-0,102
-239,132	-83,321	0,058	-0,013
-238,117	-117,618	-0,172	-0,022
-237,103	-200,000	0,021	-0,141
-236,088	-200,000	-0,003	0,072
-235,073	46,894	-0,065	0,043
-234,059	327,346	-0,072	0,100
-233,044	557,548	-0,014	-0,024
-232,030	800,000	-0,035	-0,077
-231,015	-200,000	-0,054	-0,214
-230,000	55,897	-0,108	-0,075
-228,986	-72,879	0,096	-0,025
-227,971	800,000	0,058	0,168
-226,957	-200,000	-0,004	0,092
-225,942	146,923	0,150	0,146
-224,927	-62,074	0,077	0,023
-223,913	800,000	-0,046	-0,109
-222,898	-200,000	-0,004	-0,095
-221,884	-200,000	0,031	-0,119
-220,869	-60,166	0,107	0,033
-219,855	800,000	0,036	-0,089
-218,840	800,000	-0,037	0,095
-217,825	-38,781	0,080	-0,030
-216,811	-7,237	-0,085	0,041
-215,796	-91,226	-0,030	0,006
-214,782	480,095	0,061	-0,101
-213,767	288,943	0,045	0,060
-212,752	70,625	-0,040	0,030
-211,738	-124,697	0,049	0,005
-210,723	-15,898	0,073	0,033
-209,709	266,437	-0,011	-0,014
-208,694	-200,000	-0,041	0,253
-207,679	800,000	0,062	-0,130
-206,665	588,450	0,056	-0,100
-205,650	723,020	0,040	0,077
-204,636	139,796	0,115	0,109
-203,621	-200,000	0,017	0,078
-202,606	800,000	0,013	-0,027
-201,592	396,528	-0,053	-0,080
-200,577	56,310	-0,126	-0,088
-199,563	495,985	0,066	-0,110
-198,548	8,485	-0,019	-0,010
-197,533	-67,112	-0,081	0,023
-196,519	800,000	0,019	-0,040
-195,504	-104,212	-0,069	-0,011
-194,490	-59,452	-0,015	-0,005
-193,475	-200,000	0,010	-0,120
-192,460	-200,000	-0,023	0,084
-191,446	340,903	0,011	0,016
-190,431	-66,161	0,097	0,028
-189,417	95,893	0,163	0,134
-188,402	3,807	-0,064	0,034
-187,387	800,000	-0,052	-0,109
-186,373	800,000	-0,046	-0,118
-185,358	157,331	0,086	-0,086
-184,344	-175,887	0,189	0,004
-183,329	485,034	0,027	-0,045
-182,315	-6,354	0,084	-0,041
-181,300	-76,571	0,159	0,040
-180,285	112,620	-0,109	-0,095
-179,271	237,538	-0,082	-0,098
-178,256	65,967	0,068	0,049
-177,242	399,209	0,027	0,042
-176,227	-200,000	-0,027	0,126
-175,212	-44,956	-0,066	0,024
-174,198	-200,000	-0,004	0,149
-173,183	73,071	-0,104	-0,078
-172,169	800,000	0,021	-0,064
-171,154	214,647	-0,061	-0,069
-170,139	-200,000	0,006	-0,034
-169,125	800,000	-0,075	0,155
-168,110	-79,411	0,145	-0,035
-167,096	-59,062	0,082	0,025
-166,081	-49,378	0,054	-0,019
-165,066	-42,257	-0,144	-0,053
-164,052	26,740	-0,088	0,053
-163,037	133,511	-0,101	0,094
-162,023	-200,000	-0,030	0,130
-161,008	243,653	0,078	0,094
-159,993	-124,920	0,078	-0,009
-158,979	800,000	0,030	-0,092
-157,964	-81,339	-0,095	-0,022
-156,950	-120,301	-0,096	0,012
-155,935	800,000	0,092	-0,207
-154,920	-73,933	0,217	-0,056
-153,906	-33,297	-0,020	0,008
-152,891	-93,205	-0,159	0,031
-151,877	-103,832	0,159	0,026
-150,862	800,000	-0,069	0,165
-149,847	207,596	-0,025	-0,028
-148,833	271,606	0,108	0,137
-147,818	710,891	0,039	-0,074
-146,804	-130,315	0,057	0,005
-145,789	326,217	0,037	-0,051
-144,775	-45,662	0,053	-0,019
-143,760	800,000	0,034	-0,072
-142,745	-200,000	0,022	-0,086
-141,731	-200,000	-0,005	0,117
-140,716	-200,000	0,005	0,085
-139,702	800,000	-0,015	0,034
-138,687	276,190	0,074	0,095
-137,672	95,209	-0,030	-0,025
-136,658	-171,287	-0,062	0,001
-135,643	-200,000	-0,013	-0,069
-134,629	254,963	0,036	0,045
-133,614	273,236	-0,054	0,068
-132,599	-200,000	0,007	-0,048
-131,585	-200,000	0,019	-0,078
-130,570	-94,300	-0,047	0,009
-129,556	800,000	0,029	-0,082
-128,541	-200,000	-0,021	-0,097
-127,526	65,601	0,087	-0,063
-126,512	-75,289	-0,051	-0,013
-125,497	-21,518	0,153	0,067
-124,483	-117,588	0,046	-0,006
-123,468	-55,903	-0,059	0,019
-122,453	-169,370	0,048	-0,001
-121,439	-200,000	-0,004	-0,030
-120,424	569,537	0,067	-0,118
-119,410	-200,000	0,004	-0,043
-118,395	-64,127	-0,043	0,013
-117,380	800,000	0,006	-0,017
-116,366	-22,580	0,034	-0,015
-115,351	-175,290	-0,117	0,002
-114,337	345,083	-0,038	-0,054
-113,322	-54,654	-0,108	0,035
-112,307	11,143	0,087	0,048
-111,293	-95,703	0,101	0,019
-110,278	800,000	0,029	-0,063
-109,264	-200,000	0,008	-0,072
-108,249	276,748	-0,055	0,070
-107,234	53,037	-0,072	0,050
-106,220	28,584	0,046	-0,028
-105,205	-33,624	0,071	0,028
-104,191	18,776	-0,056	0,032
-103,176	139,699	-0,042	-0,040
-102,162	536,475	-0,021	-0,036
-101,147	-83,414	0,048	0,011
-100,132	16,864	-0,083	-0,047
-99,118	-200,000	0,019	-0,069
-98,103	173,083	0,073	0,076
-97,089	-200,000	-0,002	0,028
-96,074	15,854	0,113	0,064
-95,059	7,288	-0,021	-0,011
-94,045	-32,235	-0,096	0,038
-93,030	176,597	0,091	-0,095
-92,016	103,112	0,037	-0,031
-91,001	800,000	-0,016	-0,035
-89,986	-111,033	-0,014	-0,002
-88,972	-189,113	0,050	0,000
-87,957	313,777	0,083	0,112
-86,943	-17,295	0,031	-0,014
-85,928	-164,547	-0,079	-0,003
-84,913	330,366	0,044	0,061
-83,899	268,338	-0,063	-0,080
-82,884	800,000	0,026	0,066
-81,870	-200,000	0,009	0,121
-80,855	126,762	0,079	0,072
-79,840	800,000	0,045	0,123
-78,826	-178,704	-0,073	0,001
-77,811	41,715	0,080	-0,052
-76,797	-200,000	-0,015	-0,169
-75,782	-200,000	-0,003	-0,018
-74,767	55,043	0,022	-0,015
-73,753	800,000	0,042	0,100
-72,738	323,592	-0,067	-0,093
-71,724	-35,179	-0,048	-0,019
-70,709	800,000	0,065	0,134
-69,694	-152,531	0,097	0,005
-68,680	63,971	0,025	-0,018
-67,665	-200,000	0,043	-0,149
-66,651	-200,000	-0,009	0,075
-65,636	-100,255	0,062	-0,011
-64,622	800,000	0,025	0,068
-63,607	214,231	-0,110	0,125
-62,592	800,000	0,052	0,154
-61,578	298,614	0,008	0,010
-60,563	-74,272	0,072	0,019
-59,549	-200,000	0,000	-0,038
-58,534	9,264	-2,127	-1,151
-57,519	-200,000	-0,218	-0,804
-56,505	-200,000	-1,369	-4,943
-55,490	64,762	0,857	0,620
-54,476	800,000	5,425	11,937
-53,461	-200,000	17,780	290,292
-52,446	800,000	726,958	2229,863
-51,432	536,313	1639,702	2803,965
-50,417	109,485	1629,659	1400,643
-49,403	73,077	1283,574	961,730
-48,388	31,440	1026,381	631,434
-47,373	19,903	988,302	569,994
-46,359	18,217	976,277	557,514
-45,344	15,599	972,217	546,617
-44,330	15,742	970,876	546,308
-43,315	15,334	969,195	544,009
-42,300	15,241	968,174	543,111
-41,286	15,259	966,962	542,470
-40,271	15,214	965,949	541,734
-39,257	15,257	965,153	541,405
-38,242	15,254	964,385	540,944
-37,227	15,210	963,646	540,365
-36,213	15,205	962,776	539,838
-35,198	15,158	961,697	539,059
-34,184	15,292	960,962	539,059
-33,169	15,202	960,104	538,268
-32,154	15,293	959,138	537,997
-31,140	15,275	958,198	537,390
-30,125	15,315	957,466	537,088
-29,111	15,259	956,732	536,474
-28,096	15,239	956,135	536,055
-27,082	15,231	955,434	535,615
-26,067	15,241	954,508	535,107
-25,052	15,226	953,779	534,627
-24,038	15,229	953,284	534,339
-23,023	15,200	952,533	533,804
-22,009	15,203	951,980	533,482
-20,994	15,212	951,319	533,119
-19,979	15,224	950,620	532,746
-18,965	15,236	950,025	532,429
-17,950	15,224	949,492	532,072
-16,936	15,219	948,810	531,651
-15,921	15,212	948,040	531,175
-14,906	15,189	947,330	530,684
-13,892	15,147	946,649	530,147
-12,877	15,123	946,287	529,846
-11,863	15,089	945,463	529,259
-10,848	15,160	945,095	529,254
-9,833	15,221	944,384	529,031
-8,819	15,171	943,854	528,553
-7,804	15,149	943,351	528,181
-6,790	15,075	942,770	527,600
-5,775	15,113	942,261	527,416
-4,760	15,097	941,500	526,916
-3,746	15,166	940,899	526,778
-2,731	14,981	940,213	525,789
-1,717	14,983	939,397	525,318
-0,702	14,948	938,858	524,884
0,313	14,766	938,203	524,738
1,327	18,193	936,178	534,344
2,342	27,346	789,989	475,019
3,356	23,942	444,735	262,353
4,371	-5,625	295,745	144,882
5,386	-9,528	277,305	132,135
6,400	-10,969	271,600	128,065
7,415	-11,175	269,337	126,797
8,429	-11,102	268,026	126,235
9,444	-11,026	267,071	125,844
10,459	-11,214	266,486	125,386
11,473	-11,233	265,893	125,079
12,488	-11,273	265,305	124,754
13,502	-11,259	264,592	124,420
14,517	-11,315	264,260	124,202
15,531	-11,334	263,858	123,985
16,546	-11,151	263,534	123,987
17,561	-11,116	263,111	123,808
18,575	-11,292	262,823	123,504
19,590	-11,170	262,349	123,379
20,604	-11,126	262,131	123,306
21,619	-11,319	261,939	123,032
22,634	-11,381	261,510	122,763
23,648	-11,259	261,216	122,723
24,663	-11,334	260,932	122,512
25,677	-11,294	260,669	122,413
26,692	-11,230	260,420	122,343
27,707	-11,369	260,125	122,070
28,721	-11,287	259,828	121,992
29,736	-11,462	259,548	121,694
30,750	-11,627	259,431	121,482
31,765	-11,490	259,139	121,456
32,780	-11,195	258,878	121,584
33,794	-11,197	258,532	121,409
34,809	-11,260	258,383	121,272
35,823	-11,323	258,110	121,078
36,838	-11,601	257,959	120,751
37,853	-11,481	257,661	120,706
38,867	-11,402	257,410	120,647
39,882	-11,546	257,213	120,418
40,896	-11,459	256,933	120,353
41,911	-11,493	256,733	120,218
42,926	-11,506	256,518	120,095
43,940	-11,466	256,172	119,958
44,955	-11,517	256,059	119,849
45,969	-11,602	255,905	119,693
46,984	-11,614	255,473	119,469
47,999	-12,189	255,289	118,871
49,013	-11,929	254,920	118,916
50,028	-12,278	254,855	118,571
51,042	-12,238	254,606	118,479
52,057	-12,309	254,301	118,265
53,071	-12,291	254,200	118,224
54,086	-11,982	253,982	118,379
55,101	-11,826	253,886	118,459
56,115	-11,824	253,638	118,334
57,130	-11,316	253,538	118,716
58,144	-11,079	253,366	118,830
59,159	-11,137	253,234	118,708
60,174	-11,217	252,881	118,462
61,188	-11,040	252,580	118,463
62,203	-11,297	252,599	118,240
63,217	-11,251	252,150	118,059
64,232	-11,225	252,036	118,017
65,247	-11,239	251,851	117,908
66,261	-11,268	251,701	117,803
67,276	-11,541	251,455	117,443
68,290	-11,895	251,223	117,022
69,305	-12,028	251,020	116,803
70,320	-11,695	250,669	116,913
71,334	-11,552	250,709	117,044
72,349	-11,291	250,495	117,156
73,363	-11,258	250,383	117,121
74,378	-11,262	249,939	116,900
75,393	-11,282	249,744	116,781
76,407	-11,167	249,497	116,752
77,422	-11,226	249,470	116,680
78,436	-11,317	249,153	116,444
79,451	-11,233	248,922	116,396
80,466	-11,462	248,685	116,082
81,480	-11,513	248,521	115,952
82,495	-11,641	248,376	115,765
83,509	-11,463	248,060	115,758
84,524	-11,711	247,837	115,434
85,539	-11,803	247,630	115,251
86,553	-11,692	247,570	115,306
87,568	-11,607	247,238	115,212
88,582	-11,775	247,087	114,990
89,597	-11,696	246,933	114,975
90,611	-11,405	246,859	115,174
91,626	-11,395	246,742	115,117
92,641	-11,447	246,433	114,920
93,655	-11,404	246,315	114,891
94,670	-11,494	246,021	114,668
95,684	-11,539	245,859	114,545
96,699	-11,263	245,651	114,668
97,714	-11,542	245,560	114,383
98,728	-11,521	245,132	114,191
99,743	-11,794	244,972	113,879
100,757	-11,814	244,801	113,772
101,772	-11,719	244,667	113,779
102,787	-11,697	244,546	113,731
103,801	-11,685	244,301	113,616
104,816	-11,451	244,042	113,680
105,830	-11,458	244,159	113,718
106,845	-11,359	243,898	113,668
107,860	-11,426	243,664	113,494
108,874	-11,556	243,443	113,274
109,889	-11,470	243,184	113,214
110,903	-11,603	243,071	113,042
111,918	-11,648	242,766	112,853
112,933	-11,576	242,584	112,817
113,947	-11,561	242,497	112,779
114,962	-11,445	242,385	112,812
115,976	-11,366	242,166	112,765
116,991	-11,262	241,989	112,758
118,006	-11,385	241,772	112,546
119,020	-11,385	241,753	112,527
120,035	-11,323	241,537	112,467
121,049	-11,187	241,405	112,507
122,064	-11,227	241,204	112,371
123,079	-11,526	241,160	112,096
124,093	-11,509	240,786	111,926
125,108	-11,666	240,486	111,648
126,122	-11,878	240,362	111,408
127,137	-11,872	240,003	111,237
128,151	-11,813	239,839	111,199
129,166	-11,756	239,617	111,132
130,181	-11,836	239,582	111,041
131,195	-11,866	239,518	110,977
132,210	-11,493	239,357	111,195
133,224	-11,536	239,108	111,035
134,239	-11,458	238,947	111,014
135,254	-11,530	238,848	110,899
136,268	-11,799	238,574	110,545
137,283	-11,846	238,073	110,265
138,297	-11,990	238,012	110,111
139,312	-11,992	237,825	110,013
140,327	-11,432	237,741	110,415
141,341	-11,184	237,906	110,681
142,356	-11,008	237,661	110,699
143,370	-11,175	237,497	110,478
144,385	-11,033	237,278	110,480
145,400	-10,886	237,055	110,485
146,414	-10,929	237,032	110,430
147,429	-11,137	236,629	110,066
148,443	-11,275	236,605	109,934
149,458	-11,041	236,487	110,056
150,473	-11,207	236,329	109,841
151,487	-11,258	235,940	109,609
152,502	-11,094	235,993	109,755
153,516	-11,096	235,862	109,683
154,531	-11,075	235,484	109,514
155,546	-11,359	235,488	109,280
156,560	-11,136	235,146	109,288
157,575	-11,531	234,974	108,886
158,589	-11,279	234,783	108,987
159,604	-10,933	234,749	109,236
160,619	-10,902	234,703	109,230
161,633	-11,064	234,586	109,037
162,648	-11,058	234,196	108,851
163,662	-11,096	234,050	108,743
164,677	-11,301	233,893	108,499
165,692	-11,107	233,759	108,580
166,706	-11,069	233,670	108,559
167,721	-11,119	233,545	108,452
168,735	-11,160	233,453	108,367
169,750	-11,074	233,383	108,393
170,764	-10,918	233,056	108,354
171,779	-11,117	232,990	108,157
172,794	-11,115	232,873	108,095
173,808	-11,159	232,499	107,877
174,823	-11,765	232,170	107,240
175,837	-11,858	232,094	107,123
176,852	-11,423	232,030	107,424
177,867	-11,161	231,920	107,568
178,881	-11,036	231,715	107,561
179,896	-11,188	231,718	107,434
180,910	-11,101	231,611	107,443
181,925	-11,066	231,370	107,349
182,940	-10,961	231,285	107,382
183,954	-10,915	231,018	107,284
184,969	-10,878	230,857	107,229
185,983	-10,878	230,814	107,199
186,998	-10,708	230,618	107,230
188,013	-10,953	230,553	107,000
189,027	-10,797	230,063	106,885
190,042	-10,997	230,014	106,697
191,056	-10,763	229,796	106,768
192,071	-10,759	229,912	106,815
193,086	-10,958	229,534	106,476
194,100	-10,921	229,403	106,434
195,115	-11,165	229,053	106,074
196,129	-11,222	229,003	105,998
197,144	-5,573	230,982	111,293
198,159	0,429	232,805	116,848
199,173	2,743	233,432	118,958
200,188	3,067	233,324	119,145
201,202	3,365	233,281	119,345
202,217	3,584	232,978	119,350
203,232	3,880	232,969	119,565
204,246	3,873	232,787	119,455
205,261	3,871	232,654	119,374
206,275	3,875	232,706	119,394
207,290	4,036	232,539	119,423
208,304	4,178	232,204	119,350
209,319	4,007	232,104	119,155
210,334	4,071	231,876	119,077
211,348	3,591	231,732	118,621
212,363	3,355	231,416	118,267
213,377	3,264	231,210	118,081
214,392	3,228	231,047	117,959
215,407	3,343	231,002	118,014
216,421	3,257	230,965	117,919
217,436	3,194	230,479	117,611
218,450	2,899	230,439	117,354
219,465	3,075	230,277	117,396
220,480	3,021	230,156	117,283
221,494	2,988	229,987	117,161
222,509	3,251	229,876	117,295
223,523	3,134	229,761	117,137
224,538	3,191	229,496	117,034
225,553	3,165	229,578	117,047
226,567	3,302	229,341	117,020
227,582	3,505	229,260	117,123
228,596	3,555	229,123	117,081
229,611	3,144	228,983	116,685
230,626	2,985	228,706	116,412
231,640	3,115	228,465	116,378
232,655	3,400	228,481	116,593
233,669	3,940	228,330	116,916
234,684	3,985	228,244	116,896
235,699	3,553	228,106	116,487
236,713	3,374	227,955	116,263
237,728	3,209	227,788	116,042
238,742	2,989	227,403	115,669
239,757	3,254	227,224	115,769
240,772	3,278	227,261	115,795
241,786	3,061	227,068	115,523
242,801	3,269	227,191	115,732
243,815	3,559	227,029	115,859
244,830	3,574	226,760	115,722
245,844	3,206	226,444	115,273
246,859	3,144	226,439	115,214
247,874	3,520	226,168	115,348
248,888	3,489	226,209	115,336
249,903	3,248	225,992	115,034
250,917	3,240	225,723	114,881
251,932	3,349	225,524	114,851
252,947	3,088	225,421	114,592
253,961	3,032	225,421	114,540
254,976	2,956	225,307	114,415
255,990	3,204	225,087	114,478
257,005	3,434	224,958	114,575
258,020	3,450	224,844	114,519
259,034	3,440	224,808	114,483
260,049	3,444	224,553	114,345
261,063	3,066	224,527	114,040
262,078	3,484	224,232	114,191
263,093	3,681	224,276	114,351
264,107	3,516	224,011	114,082
265,122	3,421	223,927	113,959
266,136	3,702	223,787	114,086
267,151	3,636	223,517	113,889
268,166	3,152	223,399	113,460
269,180	2,959	223,040	113,125
270,195	2,936	222,997	113,075
271,209	2,926	222,896	113,007
272,224	3,070	222,878	113,094
273,239	3,289	222,698	113,155
274,253	3,025	222,425	112,812
275,268	3,040	222,168	112,682
276,282	3,034	222,019	112,592
277,297	2,997	221,981	112,535
278,312	3,312	221,901	112,716
279,326	3,222	221,748	112,562
280,341	3,120	221,707	112,457
281,355	3,275	221,491	112,451
282,370	3,238	221,252	112,293
283,384	2,923	221,067	111,958
284,399	2,733	220,999	111,774
285,414	3,027	220,777	111,867
286,428	3,191	220,747	111,962
287,443	3,364	220,772	112,091
288,457	3,207	220,489	111,823
289,472	3,175	220,311	111,699
290,487	2,768	219,988	111,229
291,501	2,487	219,915	110,977
292,516	3,024	219,671	111,235
293,530	2,952	219,702	111,188
294,545	2,863	219,759	111,142
295,560	2,975	219,467	111,066
296,574	3,072	219,395	111,090
297,589	3,064	219,292	111,023
298,603	3,264	219,075	111,047
299,618	3,188	218,902	110,895
300,633	3,406	218,792	110,988
301,647	3,568	218,696	111,046
302,662	3,422	218,645	110,905
303,676	3,232	218,596	110,732
304,691	3,470	218,298	110,744
305,706	3,408	218,235	110,657
306,720	3,229	218,050	110,425
307,735	3,055	217,779	110,152
308,749	3,097	217,567	110,065
309,764	3,393	217,610	110,290
310,779	3,544	217,372	110,268
311,793	3,328	217,320	110,076
312,808	3,377	217,129	110,005
313,822	3,166	217,070	109,814
314,837	3,310	216,652	109,696
315,852	3,083	216,682	109,539
316,866	3,101	216,520	109,460
317,881	3,247	216,474	109,531
318,895	3,315	216,342	109,504
319,910	3,276	216,197	109,392
320,925	3,061	215,880	109,069
321,939	2,658	215,805	108,733
322,954	2,732	215,702	108,725
323,968	3,186	215,671	109,023
324,983	3,133	215,666	108,973
325,997	3,296	215,422	108,957
327,012	3,084	215,298	108,733
328,027	3,204	215,182	108,750
329,041	3,686	215,140	109,061
330,056	3,935	214,737	109,024
331,070	3,349	214,707	108,584
332,085	2,935	214,409	108,130
333,100	3,131	214,346	108,227
334,114	3,366	214,227	108,324
335,129	3,460	214,127	108,330
336,143	3,195	213,956	108,047
337,158	3,177	213,912	108,002
338,173	3,285	213,603	107,912
339,187	3,059	213,601	107,743
340,202	3,104	213,297	107,611
341,216	2,920	213,243	107,445
342,231	3,046	213,170	107,487
343,246	2,897	212,995	107,285
344,260	3,225	212,829	107,422
345,275	3,285	212,817	107,448
346,289	3,368	212,758	107,467
347,304	3,305	212,490	107,278
348,319	3,194	212,438	107,165
349,333	3,284	212,198	107,097
350,348	3,062	212,084	106,875
351,362	3,430	211,933	107,046
352,377	3,397	211,893	106,993
353,392	3,224	211,808	106,820
354,406	3,425	211,463	106,777
355,421	197,364	1339,424	1423,040
356,435	157,729	1476,834	1423,012
