DTS Sentinel unit serial number:	SN410029Multiplexer serial number:	ORYXHardware model number:	OX2-SRSoftware version number:	ORYX F/W v4,00 Oryx Data Collector v3.7.2.0data status	okinstallation	B6 Nyhavnadifferential loss correction	single-endedforward channel	channel 2reverse channel	N/Adate	2023/12/10time	04:10:08forward acquisition time	300,00reverse acquisition time	0,00gamma	499,1914k internal	0,3125k external	0,3125temperature offset calibration	1,0000default loss term (dB/km)	0,3820temperature slope calibration	1,0000multiplexer offset coefficient	1,0000multiplexer slope coefficient	1,0000fibre end	0,00T internal ref (°C)	22,13T ext. ref 1 (°C)	6,15T ext. ref 2 (°C)	6,12length (m)	temperature (°C)	Stokes	anti-Stokes-744,400	-200,000	-0,010	-0,149
-743,385	22,614	-0,211	0,128
-742,371	800,000	0,027	0,059
-741,356	-129,349	-0,296	0,030
-740,342	356,719	0,052	0,078
-739,327	-62,132	-0,266	0,082
-738,312	31,275	-0,177	-0,113
-737,298	114,808	-0,210	0,191
-736,283	800,000	-0,046	-0,151
-735,269	46,548	-0,197	0,136
-734,254	-7,726	-0,067	-0,034
-733,239	-157,115	-0,468	-0,021
-732,225	-167,441	0,074	0,002
-731,210	504,640	0,053	0,091
-730,196	356,714	-0,021	0,031
-729,181	20,397	-0,149	0,090
-728,167	-63,432	-0,018	0,005
-727,152	-200,000	0,035	-0,124
-726,137	140,627	0,030	-0,029
-725,123	604,217	-0,044	0,082
-724,108	160,869	-0,127	-0,132
-723,094	164,810	-0,087	-0,091
-722,079	251,995	-0,039	-0,049
-721,064	174,483	0,117	-0,126
-720,050	-155,407	-0,080	-0,004
-719,035	-74,971	0,020	0,005
-718,021	-78,477	-0,072	-0,018
-717,006	-60,380	-0,057	-0,018
-715,991	351,419	-0,123	-0,181
-714,977	800,000	-0,074	-0,164
-713,962	148,268	0,098	-0,099
-712,948	800,000	0,024	0,052
-711,933	-165,817	0,193	-0,006
-710,918	-200,000	-0,002	0,037
-709,904	32,543	-0,100	-0,064
-708,889	155,282	-0,027	-0,028
-707,875	695,524	-0,090	-0,177
-706,860	-30,516	0,032	-0,014
-705,845	800,000	-0,014	-0,032
-704,831	-142,708	-0,168	-0,012
-703,816	-134,319	-0,121	-0,011
-702,802	127,246	0,025	-0,024
-701,787	-34,406	0,068	-0,028
-700,772	31,852	0,038	-0,025
-699,758	294,593	-0,125	-0,171
-698,743	-69,488	0,117	0,033
-697,729	-200,000	0,000	0,062
-696,714	-200,000	-0,003	-0,064
-695,699	-26,478	-0,070	-0,030
-694,685	-59,623	-0,041	0,013
-693,670	103,809	-0,059	0,052
-692,656	207,823	-0,008	0,009
-691,641	-87,702	-0,043	-0,010
-690,627	-200,000	0,010	-0,067
-689,612	-200,000	-0,004	0,073
-688,597	-31,240	-0,131	-0,055
-687,583	-200,000	-0,014	-0,120
-686,568	54,145	-0,078	0,056
-685,554	800,000	-0,024	0,068
-684,539	389,709	0,086	0,133
-683,524	-200,000	-0,005	0,043
-682,510	-130,895	-0,143	-0,014
-681,495	-200,000	-0,010	-0,106
-680,481	64,246	-0,084	-0,063
-679,466	-17,506	-0,040	-0,018
-678,451	561,706	-0,042	-0,076
-677,437	-200,000	-0,008	0,062
-676,422	293,079	-0,065	-0,088
-675,408	-68,690	-0,030	-0,009
-674,393	172,466	-0,067	-0,071
-673,378	-183,243	-0,170	-0,002
-672,364	-74,167	-0,055	0,015
-671,349	-57,721	0,092	0,030
-670,335	676,747	-0,012	-0,023
-669,320	-200,000	0,003	0,092
-668,305	-200,000	0,007	0,079
-667,291	800,000	0,016	-0,034
-666,276	-200,000	0,010	-0,054
-665,262	359,604	-0,088	0,131
-664,247	-1,632	0,007	-0,004
-663,232	-200,000	-0,009	-0,036
-662,218	-13,721	-0,162	-0,077
-661,203	-200,000	-0,017	0,058
-660,189	58,413	-0,057	-0,041
-659,174	-38,680	-0,143	-0,056
-658,159	-200,000	-0,030	-0,122
-657,145	189,688	-0,083	-0,093
-656,130	-200,000	0,010	0,034
-655,116	201,324	0,044	-0,050
-654,101	800,000	0,019	0,047
-653,086	-119,531	0,031	-0,004
-652,072	148,854	-0,056	-0,056
-651,057	-136,626	-0,154	-0,013
-650,043	210,297	-0,005	-0,006
-649,028	-61,161	0,086	-0,027
-648,014	-200,000	-0,006	0,048
-646,999	64,906	-0,088	-0,066
-645,984	600,295	0,012	-0,022
-644,970	179,023	0,033	0,036
-643,955	65,049	0,013	-0,009
-642,941	-75,327	-0,102	-0,027
-641,926	-37,304	0,077	0,030
-640,911	-26,571	0,075	0,032
-639,897	-111,399	0,129	-0,019
-638,882	-15,252	0,021	0,010
-637,868	316,661	-0,051	0,072
-636,853	-83,702	-0,045	-0,011
-635,838	21,914	-0,115	-0,069
-634,824	-95,571	-0,251	-0,049
-633,809	-34,101	0,065	-0,027
-632,795	450,215	-0,032	0,053
-631,780	4,750	0,065	0,035
-630,765	-158,241	-0,063	0,003
-629,751	43,731	0,061	-0,041
-628,736	800,000	-0,029	-0,066
-627,722	146,670	-0,031	-0,031
-626,707	800,000	0,039	0,092
-625,692	800,000	0,049	0,104
-624,678	120,143	-0,066	0,060
-623,663	800,000	-0,037	0,082
-622,649	547,520	-0,019	-0,033
-621,634	172,547	-0,043	-0,046
-620,619	-200,000	-0,003	-0,023
-619,605	-123,290	-0,057	0,007
-618,590	783,341	-0,066	0,136
-617,576	-200,000	-0,023	0,145
-616,561	400,082	-0,049	0,076
-615,546	-57,928	0,097	0,031
-614,532	-87,064	-0,111	-0,025
-613,517	-60,891	0,056	-0,018
-612,503	-200,000	-0,006	-0,069
-611,488	346,507	0,055	0,080
-610,474	102,862	0,172	0,149
-609,459	-101,215	-0,068	0,012
-608,444	800,000	0,024	0,065
-607,430	-200,000	-0,004	0,074
-606,415	-149,303	0,113	0,007
-605,401	454,293	0,011	-0,018
-604,386	-200,000	0,016	0,088
-603,371	-89,265	0,063	-0,014
-602,357	81,966	-0,061	0,049
-601,342	61,138	0,040	-0,029
-600,328	-61,711	-0,146	-0,045
-599,313	-200,000	0,030	-0,172
-598,298	45,416	-0,094	-0,064
-597,284	-100,028	0,074	-0,013
-596,269	169,216	-0,086	0,091
-595,255	239,850	0,036	-0,045
-594,240	-200,000	0,008	-0,054
-593,225	28,586	-0,053	0,033
-592,211	-106,359	-0,159	-0,026
-591,196	-200,000	0,021	0,165
-590,182	-57,598	0,141	0,045
-589,167	-189,417	-0,090	-0,001
-588,152	209,290	-0,035	-0,041
-587,138	-143,423	-0,079	0,006
-586,123	-123,764	-0,098	-0,011
-585,109	-200,000	-0,017	-0,085
-584,094	143,270	0,117	-0,116
-583,079	800,000	-0,025	-0,066
-582,065	-11,891	-0,061	-0,029
-581,050	189,598	-0,032	-0,036
-580,036	211,887	0,043	-0,050
-579,021	-125,082	0,095	0,011
-578,006	-70,269	-0,103	-0,029
-576,992	-200,000	0,042	0,156
-575,977	-148,978	0,090	-0,005
-574,963	-200,000	-0,008	0,085
-573,948	-29,946	0,094	0,040
-572,934	-200,000	0,003	0,097
-571,919	143,039	-0,052	-0,051
-570,904	-137,305	-0,073	-0,006
-569,890	-48,844	-0,055	-0,019
-568,875	-19,099	-0,078	-0,036
-567,861	-134,646	0,086	-0,008
-566,846	800,000	0,018	0,050
-565,831	662,029	0,031	0,059
-564,817	-81,990	-0,159	-0,038
-563,802	23,786	0,016	0,010
-562,788	780,416	0,060	-0,122
-561,773	716,687	0,036	0,071
-560,758	-89,320	0,099	-0,021
-559,744	-8,034	-0,027	0,014
-558,729	-39,585	0,103	-0,040
-557,715	24,422	-0,069	-0,042
-556,700	-200,000	-0,006	-0,049
-555,685	15,981	-0,084	0,049
-554,671	68,166	0,049	-0,037
-553,656	58,172	-0,066	0,048
-552,642	-200,000	-0,006	-0,067
-551,627	-200,000	0,014	-0,076
-550,612	800,000	0,041	-0,105
-549,598	-200,000	-0,013	-0,178
-548,583	800,000	0,040	-0,130
-547,569	237,927	-0,113	-0,139
-546,554	398,562	0,073	0,113
-545,539	23,614	-0,052	-0,032
-544,525	470,793	-0,037	-0,062
-543,510	-12,644	-0,149	-0,071
-542,496	800,000	0,042	-0,137
-541,481	553,127	-0,030	-0,053
-540,466	-72,594	-0,044	-0,012
-539,452	386,270	-0,059	0,090
-538,437	476,059	0,043	-0,073
-537,423	-103,732	-0,065	0,011
-536,408	800,000	-0,036	0,094
-535,393	-74,290	-0,117	0,031
-534,379	568,385	-0,061	0,109
-533,364	-52,839	-0,104	-0,035
-532,350	-121,031	0,090	-0,011
-531,335	45,549	-0,097	0,066
-530,321	53,168	0,103	-0,073
-529,306	-200,000	-0,005	0,152
-528,291	393,394	-0,064	-0,099
-527,277	110,213	0,011	-0,010
-526,262	-200,000	0,033	-0,176
-525,248	-194,041	0,129	-0,001
-524,233	-75,200	-0,073	0,019
-523,218	30,392	0,048	0,030
-522,204	800,000	-0,051	-0,135
-521,189	-75,542	0,033	0,009
-520,175	200,608	0,070	-0,080
-519,160	213,424	0,108	-0,126
-518,145	-200,000	-0,001	-0,016
-517,131	-67,047	0,100	0,029
-516,116	-52,493	0,153	-0,052
-515,102	97,788	-0,094	-0,080
-514,087	-200,000	-0,010	-0,163
-513,072	-38,715	-0,076	-0,029
-512,058	-12,581	-0,075	0,036
-511,043	294,246	0,050	-0,067
-510,029	800,000	-0,066	0,184
-509,014	-0,303	-0,104	0,054
-507,999	-56,497	0,041	0,013
-506,985	188,517	0,025	0,028
-505,970	195,059	0,054	-0,060
-504,956	-200,000	0,003	-0,179
-503,941	-200,000	0,040	-0,141
-502,926	800,000	-0,014	-0,042
-501,912	-165,149	0,044	0,001
-500,897	276,596	0,036	0,048
-499,883	800,000	0,033	0,080
-498,868	33,068	0,066	0,042
-497,853	-21,989	-0,035	0,016
-496,839	-200,000	0,012	0,163
-495,824	800,000	-0,072	0,181
-494,810	293,838	-0,054	0,073
-493,795	800,000	-0,049	0,144
-492,781	-61,310	-0,080	-0,025
-491,766	-19,357	-0,126	-0,058
-490,751	95,586	-0,072	0,061
-489,737	-79,518	0,091	-0,022
-488,722	5,273	0,098	0,053
-487,708	182,074	0,070	0,076
-486,693	-92,512	0,047	-0,010
-485,678	-200,000	-0,023	-0,099
-484,664	800,000	-0,028	-0,066
-483,649	-112,440	-0,128	0,019
-482,635	-200,000	0,021	0,098
-481,620	-200,000	0,007	-0,046
-480,605	-200,000	-0,019	-0,072
-479,591	800,000	0,032	-0,081
-478,576	-116,326	0,066	-0,009
-477,562	-114,655	0,075	0,010
-476,547	39,408	-0,081	0,054
-475,532	748,884	-0,025	0,050
-474,518	-200,000	-0,012	-0,158
-473,503	-200,000	0,021	-0,107
-472,489	-128,209	0,212	-0,022
-471,474	-10,052	0,023	-0,011
-470,459	777,234	0,027	0,055
-469,445	261,133	-0,058	0,074
-468,430	-3,904	-0,094	-0,048
-467,416	-200,000	0,005	0,053
-466,401	-185,938	0,009	0,000
-465,386	-200,000	0,022	0,105
-464,372	-29,923	-0,027	-0,011
-463,357	350,234	0,043	-0,063
-462,343	120,393	-0,021	0,019
-461,328	-93,612	0,059	-0,012
-460,313	800,000	-0,049	0,130
-459,299	446,602	0,069	0,113
-458,284	-200,000	0,014	-0,110
-457,270	-60,963	-0,046	-0,014
-456,255	-31,030	0,079	-0,033
-455,241	-200,000	-0,004	0,076
-454,226	-123,464	-0,035	0,004
-453,211	344,591	-0,067	-0,097
-452,197	-200,000	0,013	-0,103
-451,182	197,238	-0,036	0,040
-450,168	-200,000	-0,025	-0,090
-449,153	-169,696	-0,157	0,004
-448,138	-15,778	-0,109	0,051
-447,124	549,733	0,110	-0,195
-446,109	526,093	-0,098	-0,171
-445,095	-200,000	0,037	0,143
-444,080	28,195	0,060	-0,037
-443,065	172,177	0,040	0,042
-442,051	800,000	0,025	-0,052
-441,036	191,555	-0,021	-0,023
-440,022	62,048	-0,031	-0,022
-439,007	-112,665	-0,154	0,022
-437,992	-200,000	-0,004	0,061
-436,978	-200,000	0,026	0,145
-435,963	-200,000	-0,034	-0,000
-434,949	-93,638	-0,166	-0,033
-433,934	-56,306	0,087	0,028
-432,919	-134,519	-0,174	-0,015
-431,905	-158,122	-0,046	-0,002
-430,890	-135,087	0,110	-0,010
-429,876	256,584	0,138	0,175
-428,861	226,114	0,075	0,090
-427,846	-200,000	0,004	-0,097
-426,832	-116,297	-0,067	-0,009
-425,817	247,654	-0,076	-0,094
-424,803	-103,887	0,040	-0,007
-423,788	-200,000	0,039	-0,166
-422,773	800,000	0,042	0,086
-421,759	222,542	-0,066	0,078
-420,744	-200,000	-0,023	-0,144
-419,730	800,000	0,014	0,039
-418,715	589,630	-0,015	-0,027
-417,701	5,179	0,104	-0,056
-416,686	-200,000	0,021	-0,102
-415,671	-200,000	-0,015	-0,114
-414,657	318,125	0,054	-0,075
-413,642	800,000	0,019	-0,041
-412,628	92,837	-0,034	0,028
-411,613	-200,000	-0,025	-0,098
-410,598	23,433	0,064	-0,038
-409,584	-94,591	0,090	-0,018
-408,569	-76,149	0,049	-0,013
-407,555	143,858	-0,053	0,052
-406,540	-55,207	0,016	0,005
-405,525	800,000	-0,020	0,041
-404,511	-200,000	0,023	-0,083
-403,496	-53,424	0,033	0,011
-402,482	390,373	0,063	-0,096
-401,467	349,734	0,073	0,106
-400,452	-200,000	0,005	-0,026
-399,438	-147,886	-0,014	0,001
-398,423	-60,121	0,091	0,028
-397,409	-167,233	-0,160	-0,005
-396,394	138,323	0,043	0,042
-395,379	800,000	0,010	0,028
-394,365	-19,119	-0,056	0,025
-393,350	90,953	-0,038	0,032
-392,336	-200,000	0,027	0,146
-391,321	210,972	-0,082	0,095
-390,306	65,856	-0,034	0,025
-389,292	248,588	0,100	-0,124
-388,277	-200,000	0,017	-0,098
-387,263	253,962	0,045	-0,056
-386,248	-200,000	-0,004	0,023
-385,233	-200,000	0,007	-0,026
-384,219	436,337	0,079	-0,127
-383,204	533,481	0,037	-0,064
-382,190	-89,117	-0,102	0,022
-381,175	222,978	-0,086	-0,102
-380,160	139,412	0,060	-0,058
-379,146	-189,825	0,094	-0,001
-378,131	31,227	0,045	0,028
-377,117	198,584	-0,122	0,137
-376,102	-110,754	-0,088	0,013
-375,088	177,285	-0,013	-0,014
-374,073	-200,000	0,031	-0,158
-373,058	-200,000	-0,019	-0,078
-372,044	-200,000	0,010	0,044
-371,029	-200,000	-0,003	0,083
-370,015	-200,000	-0,004	-0,096
-369,000	118,458	0,075	-0,068
-367,985	179,505	-0,047	-0,051
-366,971	209,529	0,027	0,031
-365,956	-200,000	0,021	-0,133
-364,942	-57,580	-0,079	0,025
-363,927	-200,000	-0,010	0,162
-362,912	-101,519	0,010	-0,002
-361,898	800,000	0,023	-0,070
-360,883	110,553	-0,032	-0,029
-359,869	-200,000	0,013	-0,044
-358,854	-200,000	0,015	0,119
-357,839	33,217	0,076	0,048
-356,825	-46,146	0,036	0,013
-355,810	-137,969	0,102	0,008
-354,796	777,772	-0,074	0,149
-353,781	56,460	-0,025	0,018
-352,766	-200,000	-0,003	0,034
-351,752	-200,000	-0,014	0,059
-350,737	189,251	0,007	0,008
-349,723	122,988	-0,120	0,111
-348,708	206,485	-0,058	0,067
-347,693	-200,000	0,059	0,193
-346,679	347,456	-0,026	0,037
-345,664	-1,930	-0,081	-0,042
-344,650	537,267	0,045	-0,078
-343,635	478,582	0,021	-0,035
-342,620	-200,000	-0,002	-0,082
-341,606	-200,000	-0,014	-0,080
-340,591	-200,000	0,022	-0,094
-339,577	-61,835	-0,115	-0,035
-338,562	-200,000	-0,005	-0,032
-337,548	320,717	0,069	-0,097
-336,533	-200,000	-0,020	0,068
-335,518	800,000	-0,077	0,179
-334,504	-200,000	-0,006	0,142
-333,489	800,000	0,045	0,138
-332,475	360,879	0,041	0,061
-331,460	-11,597	-0,191	-0,092
-330,445	800,000	0,014	-0,029
-329,431	-48,604	-0,026	-0,009
-328,416	-114,188	-0,098	0,014
-327,402	-153,674	0,120	0,006
-326,387	-68,861	0,104	0,029
-325,372	-33,869	0,034	0,013
-324,358	342,144	-0,072	-0,103
-323,343	-200,000	0,010	-0,054
-322,329	-135,111	0,081	0,007
-321,314	50,588	-0,040	0,028
-320,299	800,000	0,043	-0,091
-319,285	-97,546	0,198	-0,037
-318,270	97,933	0,073	0,062
-317,256	427,969	0,011	-0,017
-316,241	178,592	-0,065	-0,069
-315,226	800,000	-0,032	-0,082
-314,212	-200,000	-0,009	-0,118
-313,197	-200,000	0,003	0,012
-312,183	-200,000	-0,009	0,033
-311,168	529,470	-0,061	0,106
-310,153	197,579	-0,081	-0,090
-309,139	45,324	-0,075	0,051
-308,124	800,000	-0,029	0,079
-307,110	-86,769	0,097	0,021
-306,095	-9,556	0,095	-0,046
-305,080	14,048	0,112	-0,063
-304,066	281,484	-0,047	-0,062
-303,051	-200,000	-0,021	-0,096
-302,037	800,000	0,055	-0,112
-301,022	-36,699	-0,078	0,030
-300,008	-200,000	0,026	0,089
-298,993	-135,834	0,027	-0,002
-297,978	63,503	0,052	-0,038
-296,964	-108,690	-0,025	0,004
-295,949	403,433	-0,032	-0,049
-294,935	-200,000	-0,005	0,078
-293,920	-200,000	0,006	0,038
-292,905	1,752	0,031	-0,016
-291,891	163,743	0,166	0,171
-290,876	-200,000	-0,015	-0,059
-289,862	-53,897	-0,034	0,011
-288,847	-200,000	0,016	-0,130
-287,832	800,000	-0,039	-0,096
-286,818	-182,445	-0,172	0,002
-285,803	800,000	0,044	0,104
-284,789	58,886	0,083	0,060
-283,774	90,659	0,062	0,051
-282,759	800,000	0,043	-0,088
-281,745	31,713	-0,189	-0,119
-280,730	800,000	-0,058	-0,169
-279,716	176,396	-0,023	0,024
-278,701	-153,412	-0,208	0,010
-277,686	355,430	-0,058	0,085
-276,672	800,000	-0,071	0,153
-275,657	47,479	-0,107	0,073
-274,643	800,000	-0,044	0,100
-273,628	800,000	0,030	0,090
-272,613	-93,759	-0,199	-0,040
-271,599	441,409	0,101	-0,163
-270,584	64,758	-0,119	0,088
-269,570	-200,000	-0,027	0,092
-268,555	85,103	-0,041	0,033
-267,540	800,000	-0,078	-0,176
-266,526	-116,147	0,076	-0,010
-265,511	-200,000	-0,017	0,087
-264,497	-200,000	0,005	0,070
-263,482	-144,198	0,092	-0,006
-262,467	189,237	0,048	-0,052
-261,453	-73,211	0,095	-0,025
-260,438	800,000	-0,050	0,120
-259,424	-138,626	0,001	-0,000
-258,409	28,567	-0,041	-0,025
-257,395	196,784	0,062	-0,069
-256,380	-61,974	0,072	-0,022
-255,365	-23,513	-0,065	-0,029
-254,351	38,429	0,055	0,036
-253,336	114,219	-0,202	0,179
-252,322	-200,000	0,022	-0,159
-251,307	-32,997	-0,159	0,064
-250,292	-70,423	0,080	-0,022
-249,278	-51,581	0,197	0,067
-248,263	-200,000	-0,010	0,176
-247,249	-200,000	-0,028	0,169
-246,234	44,839	0,084	-0,056
-245,219	-200,000	0,012	0,090
-244,205	155,352	-0,091	0,091
-243,190	-0,792	0,029	-0,015
-242,176	633,453	0,029	0,055
-241,161	-149,515	0,104	0,006
-240,146	-200,000	0,003	-0,049
-239,132	-19,494	0,039	0,018
-238,117	216,756	0,049	0,057
-237,103	-200,000	-0,012	0,057
-236,088	-105,993	-0,182	0,030
-235,073	-200,000	-0,000	0,052
-234,059	-68,624	0,089	0,025
-233,044	-200,000	-0,001	-0,020
-232,030	-147,502	-0,247	-0,015
-231,015	119,326	-0,145	0,131
-230,000	-200,000	0,006	-0,130
-228,986	-200,000	0,002	-0,043
-227,971	-89,305	0,086	0,018
-226,957	-81,160	0,114	0,027
-225,942	-155,172	0,046	0,002
-224,927	-74,931	0,041	-0,011
-223,913	-56,770	0,139	-0,045
-222,898	399,344	0,021	-0,033
-221,884	101,407	-0,052	0,044
-220,869	-29,852	0,212	0,088
-219,855	176,903	-0,029	-0,031
-218,840	332,791	0,073	0,103
-217,825	237,063	-0,034	-0,042
-216,811	800,000	0,040	-0,101
-215,796	17,625	-0,089	0,052
-214,782	2,544	0,112	-0,059
-213,767	-200,000	-0,024	0,111
-212,752	-22,369	0,069	0,030
-211,738	-22,382	-0,119	0,052
-210,723	-200,000	0,002	-0,045
-209,709	-95,002	0,077	0,015
-208,694	42,574	-0,019	0,013
-207,679	800,000	0,049	-0,112
-206,665	-5,078	-0,068	0,034
-205,650	-200,000	0,011	0,042
-204,636	49,702	0,057	0,039
-203,621	50,465	0,108	0,074
-202,606	-55,495	0,135	-0,044
-201,592	-142,695	-0,131	0,009
-200,577	335,347	0,091	-0,129
-199,563	200,222	-0,046	0,052
-198,548	-200,000	0,002	0,114
-197,533	-200,000	0,006	0,117
-196,519	130,250	0,112	-0,105
-195,504	-142,896	0,054	0,004
-194,490	76,357	0,094	-0,072
-193,475	-150,721	-0,095	0,005
-192,460	-33,601	-0,063	0,025
-191,446	128,759	0,052	0,049
-190,431	232,669	0,081	-0,098
-189,417	-144,453	-0,039	0,003
-188,402	137,708	-0,124	0,118
-187,387	43,504	-0,068	0,045
-186,373	16,970	0,145	0,084
-185,358	-176,349	0,058	0,001
-184,344	677,924	-0,021	0,041
-183,329	-200,000	0,013	0,183
-182,315	-169,227	0,119	-0,003
-181,300	-39,932	0,148	-0,056
-180,285	800,000	-0,060	-0,163
-179,271	-200,000	-0,007	-0,102
-178,256	-129,373	0,107	-0,011
-177,242	550,100	0,054	-0,094
-176,227	800,000	-0,016	-0,047
-175,212	-200,000	0,006	0,038
-174,198	34,097	-0,046	0,029
-173,183	448,551	0,036	0,058
-172,169	-200,000	0,011	-0,048
-171,154	-200,000	-0,029	-0,096
-170,139	-52,409	0,045	0,015
-169,125	-20,910	0,078	-0,035
-168,110	800,000	-0,016	0,050
-167,096	731,370	0,043	0,084
-166,081	800,000	-0,028	0,071
-165,066	-200,000	0,020	-0,090
-164,052	-18,935	0,071	0,032
-163,037	-14,436	-0,108	-0,050
-162,023	-200,000	0,033	0,107
-161,008	-200,000	0,007	0,036
-159,993	47,379	0,029	0,020
-158,979	-79,397	-0,116	0,028
-157,964	800,000	0,049	-0,122
-156,950	72,261	-0,061	-0,047
-155,935	-180,699	0,060	-0,001
-154,920	736,808	0,108	0,212
-153,906	-89,496	0,092	-0,020
-152,891	-10,506	-0,055	0,026
-151,877	114,896	-0,083	-0,074
-150,862	-105,843	0,095	-0,015
-149,847	800,000	0,032	0,075
-148,833	30,146	0,043	-0,027
-147,818	6,200	0,050	-0,027
-146,804	-90,206	0,046	0,010
-145,789	411,748	0,059	0,092
-144,775	713,500	-0,048	0,092
-143,760	-182,335	-0,122	0,002
-142,745	-200,000	0,006	-0,052
-141,731	-31,187	0,141	0,058
-140,716	-200,000	0,006	-0,091
-139,702	-200,000	0,002	0,098
-138,687	547,819	-0,086	0,150
-137,672	-200,000	0,036	0,122
-136,658	372,005	-0,057	-0,085
-135,643	800,000	-0,025	-0,079
-134,629	168,224	0,029	-0,030
-133,614	-200,000	-0,003	-0,097
-132,599	195,472	0,064	0,070
-131,585	414,279	0,031	0,049
-130,570	-113,515	-0,112	-0,016
-129,556	-147,379	0,094	0,006
-128,541	-200,000	0,008	0,046
-127,526	101,163	0,078	-0,066
-126,512	127,945	0,049	-0,045
-125,497	-78,065	0,033	0,008
-124,483	480,759	0,019	0,032
-123,468	800,000	-0,065	0,148
-122,453	-200,000	-0,009	-0,038
-121,439	-98,013	-0,052	0,010
-120,424	-112,979	-0,120	-0,017
-119,410	800,000	-0,039	0,118
-118,395	20,904	0,128	0,075
-117,380	-10,816	0,097	-0,047
-116,366	-200,000	-0,022	-0,114
-115,351	-200,000	0,008	-0,103
-114,337	-52,014	-0,077	0,026
-113,322	-200,000	-0,004	-0,014
-112,307	-181,406	0,070	-0,001
-111,293	-42,408	0,103	0,038
-110,278	-200,000	0,011	0,066
-109,264	800,000	-0,045	-0,104
-108,249	800,000	-0,010	-0,030
-107,234	-98,261	-0,071	0,013
-106,220	-200,000	-0,005	0,082
-105,205	193,815	-0,068	0,074
-104,191	31,162	0,053	0,033
-103,176	728,629	-0,057	0,111
-102,162	130,057	0,096	-0,089
-101,147	350,822	0,051	0,074
-100,132	-45,399	-0,097	-0,035
-99,118	348,367	0,054	-0,078
-98,103	189,602	-0,072	0,078
-97,089	-49,917	0,095	-0,032
-96,074	23,449	-0,096	0,057
-95,059	-128,297	-0,108	0,011
-94,045	-92,793	-0,080	-0,016
-93,030	1,349	-0,143	-0,074
-92,016	-140,268	0,088	-0,007
-91,001	-200,000	0,021	0,095
-89,986	101,580	0,051	-0,043
-88,972	156,101	0,071	0,071
-87,957	-200,000	-0,023	-0,081
-86,943	-200,000	-0,003	-0,021
-85,928	661,979	-0,033	-0,062
-84,913	-145,186	-0,060	-0,004
-83,899	90,811	0,059	-0,048
-82,884	-76,689	0,039	-0,010
-81,870	-200,000	0,029	0,122
-80,855	212,438	-0,101	0,116
-79,840	-30,697	0,208	0,085
-78,826	176,876	-0,088	-0,093
-77,811	441,763	-0,017	-0,028
-76,797	-200,000	0,004	-0,026
-75,782	-200,000	0,014	-0,108
-74,767	-200,000	0,045	0,224
-73,753	-200,000	0,020	0,092
-72,738	-132,220	-0,094	0,009
-71,724	114,325	0,091	-0,080
-70,709	-35,206	0,071	0,028
-69,694	-34,153	-0,091	0,036
-68,680	263,135	0,077	0,098
-67,665	-37,747	0,142	0,055
-66,651	208,835	-0,022	-0,025
-65,636	-145,698	-0,173	0,011
-64,622	-200,000	0,009	-0,074
-63,607	223,574	-0,066	-0,077
-62,592	146,774	-0,094	-0,092
-61,578	391,795	-0,099	-0,150
-60,563	800,000	-0,067	0,162
-59,549	800,000	-0,017	0,044
-58,534	-101,493	-1,437	-0,251
-57,519	406,557	-0,879	-1,351
-56,505	-200,000	-1,075	-4,507
-55,490	-67,437	0,590	-0,167
-54,476	800,000	5,036	11,711
-53,461	-200,000	13,641	253,008
-52,446	-200,000	691,066	2245,130
-51,432	580,402	1622,442	2894,072
-50,417	118,190	1633,667	1460,478
-49,403	72,421	1287,565	972,100
-48,388	37,698	1023,474	657,543
-47,373	24,117	981,186	585,758
-46,359	23,355	970,807	577,043
-45,344	22,367	966,534	571,255
-44,330	22,288	965,123	570,142
-43,315	22,150	963,720	568,841
-42,300	22,163	962,710	568,265
-41,286	22,169	961,839	567,746
-40,271	22,128	960,878	567,022
-39,257	22,122	959,976	566,451
-38,242	22,113	959,008	565,827
-37,227	22,158	957,988	565,349
-36,213	22,104	957,202	564,686
-35,198	22,080	956,390	564,109
-34,184	22,112	955,767	563,823
-33,169	22,128	954,704	563,225
-32,154	22,182	953,941	562,924
-31,140	22,195	952,910	562,338
-30,125	22,231	952,097	561,949
-29,111	22,145	951,481	561,288
-28,096	22,172	950,633	560,854
-27,082	22,196	949,975	560,520
-26,067	22,199	949,129	560,005
-25,052	22,191	948,449	559,559
-24,038	22,147	947,928	559,086
-23,023	22,157	947,288	558,721
-22,009	22,172	946,615	558,348
-20,994	22,163	945,912	557,883
-19,979	22,194	945,262	557,577
-18,965	22,199	944,795	557,296
-17,950	22,167	944,101	556,762
-16,936	22,152	943,510	556,341
-15,921	22,113	942,865	555,815
-14,906	22,032	942,026	555,043
-13,892	22,047	941,353	554,672
-12,877	22,124	940,514	554,399
-11,863	21,970	940,200	553,702
-10,848	22,054	939,514	553,543
-9,833	22,165	939,186	553,681
-8,819	22,087	938,688	553,118
-7,804	22,045	937,874	552,482
-6,790	22,078	937,290	552,221
-5,775	22,131	936,439	551,866
-4,760	22,082	935,988	551,422
-3,746	22,006	935,647	550,961
-2,731	21,916	934,784	550,147
-1,717	21,846	933,836	549,345
-0,702	21,926	933,237	549,225
0,313	21,661	932,707	548,907
1,327	24,786	930,957	557,643
2,342	34,372	795,264	501,859
3,356	32,381	451,126	281,667
4,371	1,458	294,074	152,740
5,386	-3,203	275,077	138,446
6,400	-4,304	269,226	134,467
7,415	-4,776	266,904	132,861
8,429	-4,387	265,626	132,569
9,444	-4,579	264,811	131,975
10,459	-4,326	264,064	131,822
11,473	-4,556	263,600	131,369
12,488	-4,647	263,055	131,004
13,502	-4,780	262,456	130,573
14,517	-4,897	262,165	130,312
15,531	-4,627	261,659	130,291
16,546	-4,902	261,336	129,872
17,561	-4,733	260,910	129,800
18,575	-4,458	260,464	129,813
19,590	-4,587	260,128	129,518
20,604	-4,915	260,016	129,158
21,619	-4,764	259,761	129,155
22,634	-4,618	259,243	129,016
23,648	-4,765	258,927	128,716
24,663	-4,911	258,763	128,493
25,677	-4,733	258,425	128,472
26,692	-4,823	258,239	128,288
27,707	-4,923	258,035	128,086
28,721	-4,902	257,675	127,915
29,736	-4,852	257,500	127,861
30,750	-4,842	257,140	127,679
31,765	-4,943	256,904	127,462
32,780	-4,824	256,675	127,442
33,794	-4,664	256,530	127,500
34,809	-4,718	256,166	127,260
35,823	-4,880	255,946	126,997
36,838	-5,024	255,844	126,808
37,853	-5,035	255,592	126,662
38,867	-4,922	255,349	126,629
39,882	-5,019	255,211	126,465
40,896	-4,913	254,882	126,383
41,911	-4,769	254,601	126,359
42,926	-4,855	254,458	126,202
43,940	-4,884	254,060	125,967
44,955	-4,857	253,823	125,862
45,969	-5,150	253,811	125,589
46,984	-5,102	253,314	125,374
47,999	-5,366	253,375	125,163
49,013	-5,481	253,031	124,882
50,028	-5,644	252,771	124,600
51,042	-5,554	252,483	124,526
52,057	-5,791	252,287	124,212
53,071	-5,470	251,997	124,337
54,086	-5,567	251,889	124,188
55,101	-5,528	251,772	124,153
56,115	-5,003	251,544	124,484
57,130	-4,801	251,539	124,645
58,144	-4,672	251,502	124,726
59,159	-4,589	251,062	124,569
60,174	-4,709	250,722	124,285
61,188	-4,754	250,801	124,275
62,203	-4,689	250,428	124,135
63,217	-4,774	250,250	123,962
64,232	-4,741	250,137	123,924
65,247	-4,881	249,843	123,648
66,261	-4,817	249,660	123,601
67,276	-5,123	249,382	123,189
68,290	-5,232	249,119	122,956
69,305	-5,075	248,869	122,955
70,320	-5,233	248,760	122,756
71,334	-4,999	248,625	122,878
72,349	-4,785	248,450	122,963
73,363	-4,717	248,297	122,934
74,378	-4,702	248,087	122,832
75,393	-4,889	247,990	122,614
76,407	-4,749	247,757	122,607
77,422	-4,798	247,498	122,426
78,436	-4,731	247,207	122,328
79,451	-4,890	247,108	122,133
80,466	-4,643	246,671	122,115
81,480	-5,041	246,501	121,684
82,495	-5,092	246,402	121,581
83,509	-4,768	246,122	121,705
84,524	-4,911	245,876	121,452
85,539	-5,250	245,869	121,153
86,553	-4,880	245,447	121,245
87,568	-5,102	245,518	121,082
88,582	-4,983	245,301	121,064
89,597	-5,058	245,211	120,947
90,611	-4,908	245,032	120,973
91,626	-4,743	244,848	121,010
92,641	-4,682	244,668	120,961
93,655	-4,982	244,354	120,544
94,670	-5,016	244,117	120,388
95,684	-4,878	243,971	120,421
96,699	-4,918	243,800	120,293
97,714	-5,152	243,781	120,076
98,728	-5,042	243,435	119,987
99,743	-5,138	243,078	119,720
100,757	-5,174	243,030	119,657
101,772	-5,119	242,783	119,569
102,787	-5,054	242,667	119,556
103,801	-4,985	242,446	119,494
104,816	-4,912	242,439	119,540
105,830	-4,785	242,240	119,537
106,845	-4,667	242,034	119,522
107,860	-4,844	241,919	119,308
108,874	-4,871	241,693	119,164
109,889	-4,994	241,541	118,976
110,903	-4,749	241,212	119,006
111,918	-4,921	240,905	118,702
112,933	-4,895	240,995	118,757
113,947	-4,915	240,693	118,582
114,962	-4,952	240,667	118,527
115,976	-4,849	240,384	118,463
116,991	-4,878	240,212	118,343
118,006	-4,741	240,145	118,412
119,020	-4,853	239,983	118,230
120,035	-4,822	239,862	118,185
121,049	-4,592	239,749	118,307
122,064	-4,803	239,630	118,065
123,079	-4,819	239,310	117,884
124,093	-4,894	239,178	117,747
125,108	-5,046	238,932	117,491
126,122	-5,198	238,589	117,189
127,137	-5,272	238,344	116,998
128,151	-5,176	238,187	116,988
129,166	-5,108	238,183	117,031
130,181	-4,972	237,832	116,959
131,195	-5,155	237,723	116,746
132,210	-5,161	237,727	116,733
133,224	-4,800	237,547	116,927
134,239	-4,744	237,310	116,845
135,254	-4,855	237,138	116,660
136,268	-4,859	236,930	116,544
137,283	-5,245	236,785	116,151
138,297	-5,340	236,432	115,890
139,312	-5,253	236,262	115,867
140,327	-5,129	236,277	115,964
141,341	-4,600	236,279	116,381
142,356	-4,645	236,076	116,234
143,370	-4,548	235,872	116,201
144,385	-4,508	235,680	116,128
145,400	-4,304	235,540	116,213
146,414	-4,329	235,190	116,009
147,429	-4,716	235,298	115,742
148,443	-4,603	235,035	115,694
149,458	-4,504	234,761	115,628
150,473	-4,528	234,695	115,565
151,487	-4,601	234,491	115,396
152,502	-4,631	234,362	115,298
153,516	-4,618	234,349	115,291
154,531	-4,684	234,088	115,101
155,546	-4,466	233,826	115,135
156,560	-4,733	233,680	114,840
157,575	-4,537	233,456	114,876
158,589	-4,497	233,247	114,795
159,604	-4,442	233,165	114,788
160,619	-4,427	232,997	114,707
161,633	-4,349	232,908	114,714
162,648	-4,509	232,791	114,520
163,662	-4,298	232,519	114,543
164,677	-4,736	232,480	114,167
165,692	-4,441	232,234	114,270
166,706	-4,615	232,317	114,162
167,721	-4,334	231,927	114,182
168,735	-4,480	231,862	114,025
169,750	-4,381	231,741	114,033
170,764	-4,383	231,427	113,866
171,779	-4,491	231,443	113,780
172,794	-4,374	231,217	113,751
173,808	-4,550	231,055	113,522
174,823	-4,877	230,556	113,010
175,837	-4,932	230,471	112,916
176,852	-4,718	230,603	113,138
177,867	-4,601	230,416	113,128
178,881	-4,440	230,301	113,187
179,896	-4,490	230,067	113,023
180,910	-4,596	230,104	112,949
181,925	-4,451	229,812	112,908
182,940	-4,378	229,687	112,893
183,954	-4,362	229,385	112,748
184,969	-4,368	229,436	112,758
185,983	-4,261	229,164	112,698
186,998	-4,335	229,144	112,620
188,013	-4,369	228,907	112,467
189,027	-4,359	228,792	112,409
190,042	-4,400	228,642	112,292
191,056	-4,288	228,420	112,261
192,071	-4,025	228,243	112,367
193,086	-4,064	227,950	112,182
194,100	-4,282	227,987	112,022
195,115	-4,454	227,691	111,734
196,129	-4,894	227,430	111,256
197,144	-3,115	227,984	112,893
198,159	0,685	228,998	116,332
199,173	3,574	229,843	118,994
200,188	4,178	229,780	119,419
201,202	4,096	229,679	119,292
202,217	4,350	229,696	119,487
203,232	4,361	229,436	119,349
204,246	4,579	229,372	119,474
205,261	4,486	229,191	119,297
206,275	4,689	229,126	119,410
207,290	4,815	228,938	119,398
208,304	4,659	228,905	119,250
209,319	4,783	228,467	119,106
210,334	4,644	228,434	118,972
211,348	4,420	228,255	118,696
212,363	4,138	227,878	118,272
213,377	3,636	227,784	117,828
214,392	4,132	227,420	118,009
215,407	4,003	227,521	117,952
216,421	3,912	227,524	117,873
217,436	3,906	227,138	117,658
218,450	3,685	226,968	117,391
219,465	3,454	226,711	117,072
220,480	3,684	226,629	117,194
221,494	3,719	226,443	117,114
222,509	3,927	226,357	117,217
223,523	3,928	226,144	117,097
224,538	3,665	226,090	116,859
225,553	3,648	226,059	116,819
226,567	4,030	225,785	116,958
227,582	4,273	225,708	117,092
228,596	4,185	225,818	117,072
229,611	3,983	225,429	116,707
230,626	3,821	225,097	116,402
231,640	3,680	224,985	116,226
232,655	4,096	224,929	116,502
233,669	4,493	225,012	116,835
234,684	4,696	224,867	116,902
235,699	4,355	224,671	116,532
236,713	3,977	224,440	116,118
237,728	3,993	224,199	115,994
238,742	3,768	224,035	115,730
239,757	3,729	223,781	115,559
240,772	3,777	223,639	115,512
241,786	3,664	223,599	115,396
242,801	3,827	223,440	115,426
243,815	4,134	223,367	115,608
244,830	4,322	223,270	115,688
245,844	3,951	223,126	115,325
246,859	3,874	223,009	115,197
247,874	4,202	222,882	115,367
248,888	4,021	222,857	115,208
249,903	3,951	222,458	114,939
250,917	3,882	222,275	114,783
251,932	3,789	222,255	114,693
252,947	3,683	222,010	114,477
253,961	3,651	221,831	114,351
254,976	3,841	221,719	114,424
255,990	3,808	221,736	114,398
257,005	4,101	221,495	114,482
258,020	4,196	221,388	114,487
259,034	4,254	221,365	114,508
260,049	4,123	221,138	114,283
261,063	4,244	220,869	114,223
262,078	4,024	220,991	114,113
263,093	4,268	220,811	114,191
264,107	4,171	220,584	113,991
265,122	4,231	220,260	113,858
266,136	4,430	220,319	114,026
267,151	4,504	220,079	113,946
268,166	4,033	219,909	113,500
269,180	3,621	219,693	113,075
270,195	3,873	219,435	113,118
271,209	3,689	219,350	112,929
272,224	3,829	219,309	113,000
273,239	3,870	219,271	113,001
274,253	3,801	218,972	112,786
275,268	3,520	218,852	112,508
276,282	3,621	218,655	112,471
277,297	3,561	218,572	112,374
278,312	3,691	218,332	112,336
279,326	3,958	218,275	112,492
280,341	3,637	218,243	112,231
281,355	3,881	218,093	112,321
282,370	3,825	217,887	112,164
283,384	3,575	217,657	111,854
284,399	3,367	217,532	111,628
285,414	3,567	217,457	111,726
286,428	3,564	217,481	111,725
287,443	3,952	217,322	111,916
288,457	4,052	217,101	111,865
289,472	3,755	216,947	111,560
290,487	3,253	216,640	111,028
291,501	3,272	216,473	110,946
292,516	3,340	216,468	110,983
293,530	3,510	216,378	111,050
294,545	3,266	216,224	110,784
295,560	3,405	215,985	110,753
296,574	3,734	215,990	110,983
297,589	3,951	215,813	111,039
298,603	3,868	215,711	110,917
299,618	3,967	215,545	110,893
300,633	3,850	215,492	110,772
301,647	4,027	215,348	110,815
302,662	4,027	215,309	110,785
303,676	3,944	215,145	110,631
304,691	4,012	214,964	110,577
305,706	4,151	214,680	110,521
306,720	4,353	214,573	110,601
307,735	3,838	214,460	110,164
308,749	3,613	214,350	109,936
309,764	4,021	214,285	110,185
310,779	4,135	214,100	110,161
311,793	3,793	214,075	109,894
312,808	3,943	213,717	109,808
313,822	3,823	213,625	109,665
314,837	3,784	213,401	109,513
315,852	3,540	213,278	109,266
316,866	3,481	213,244	109,197
317,881	3,799	213,209	109,395
318,895	3,838	212,990	109,301
319,910	4,012	212,746	109,290
320,925	3,488	212,611	108,839
321,939	3,428	212,437	108,697
322,954	3,559	212,312	108,716
323,968	3,824	212,272	108,874
324,983	3,953	212,097	108,866
325,997	4,094	212,207	109,013
327,012	3,742	211,962	108,628
328,027	3,793	211,888	108,617
329,041	4,287	211,705	108,862
330,056	4,456	211,592	108,913
331,070	3,903	211,380	108,405
332,085	3,687	211,134	108,117
333,100	3,550	210,982	107,933
334,114	3,924	210,929	108,159
335,129	3,974	210,788	108,112
336,143	3,698	210,680	107,853
337,158	3,728	210,569	107,808
338,173	3,837	210,370	107,773
339,187	3,572	210,220	107,501
340,202	3,601	210,068	107,434
341,216	3,314	209,889	107,132
342,231	3,683	209,740	107,304
343,246	3,571	209,652	107,172
344,260	3,676	209,524	107,170
345,275	3,834	209,407	107,211
346,289	3,806	209,370	107,163
347,304	4,005	209,278	107,245
348,319	3,769	209,065	106,962
349,333	3,723	208,988	106,881
350,348	4,008	208,759	106,952
351,362	4,061	208,635	106,915
352,377	3,854	208,599	106,744
353,392	3,847	208,413	106,635
354,406	3,934	208,292	106,624
355,421	193,897	1344,159	1431,620
356,435	154,712	1482,649	1431,743
