DTS Sentinel unit serial number:	SN410029Multiplexer serial number:	ORYXHardware model number:	OX2-SRSoftware version number:	ORYX F/W v4,00 Oryx Data Collector v3.7.2.0data status	okinstallation	B6 Nyhavnadifferential loss correction	single-endedforward channel	channel 2reverse channel	N/Adate	2023/12/09time	17:00:08forward acquisition time	300,00reverse acquisition time	0,00gamma	499,1914k internal	0,3131k external	0,3131temperature offset calibration	1,0000default loss term (dB/km)	0,3820temperature slope calibration	1,0000multiplexer offset coefficient	1,0000multiplexer slope coefficient	1,0000fibre end	0,00T internal ref (°C)	20,94T ext. ref 1 (°C)	4,70T ext. ref 2 (°C)	4,69length (m)	temperature (°C)	Stokes	anti-Stokes-744,400	800,000	0,046	-0,131
-743,385	-107,088	-0,277	0,045
-742,371	62,281	0,051	-0,038
-741,356	60,753	-0,153	0,113
-740,342	-26,140	0,016	0,007
-739,327	-86,085	-0,283	-0,065
-738,312	-24,757	-0,082	-0,036
-737,298	-185,329	-0,209	-0,002
-736,283	126,862	0,095	-0,089
-735,269	108,913	-0,170	0,151
-734,254	-200,000	-0,012	0,067
-733,239	-118,034	-0,577	-0,076
-732,225	-90,398	0,071	-0,015
-731,210	-149,914	0,076	0,004
-730,196	685,724	-0,019	0,037
-729,181	-200,000	-0,002	-0,120
-728,167	-200,000	-0,007	0,031
-727,152	-101,874	0,017	0,003
-726,137	732,482	-0,051	-0,102
-725,123	39,025	-0,091	-0,060
-724,108	-100,047	-0,184	-0,034
-723,094	758,373	0,033	-0,067
-722,079	-120,386	-0,081	0,010
-721,064	197,532	0,007	-0,008
-720,050	-93,524	-0,030	-0,006
-719,035	14,354	-0,028	0,016
-718,021	51,602	-0,165	-0,116
-717,006	-138,395	-0,078	-0,006
-715,991	356,730	-0,032	0,047
-714,977	-128,964	-0,159	-0,016
-713,962	16,708	0,021	0,013
-712,948	800,000	-0,044	0,124
-711,933	800,000	-0,023	-0,063
-710,918	-25,812	0,043	0,019
-709,904	-2,588	-0,092	-0,048
-708,889	800,000	0,048	-0,101
-707,875	-200,000	0,028	-0,204
-706,860	0,591	0,085	0,045
-705,845	-81,198	0,103	0,025
-704,831	392,519	0,051	0,079
-703,816	-123,085	-0,072	-0,009
-702,802	183,716	-0,024	0,027
-701,787	11,455	-0,091	0,051
-700,772	535,995	-0,045	0,080
-699,758	-27,197	-0,079	0,034
-698,743	-200,000	0,014	0,129
-697,729	-57,000	0,066	-0,021
-696,714	-200,000	-0,004	0,020
-695,699	-76,997	-0,017	0,004
-694,685	-107,396	-0,038	-0,006
-693,670	-114,743	-0,138	0,019
-692,656	800,000	0,017	-0,049
-691,641	-23,451	0,026	-0,012
-690,627	800,000	0,045	0,101
-689,612	-200,000	-0,011	-0,045
-688,597	-152,975	-0,098	-0,005
-687,583	66,898	0,100	-0,075
-686,568	-13,649	-0,085	-0,041
-685,554	132,381	0,079	-0,075
-684,539	-46,542	-0,073	0,026
-683,524	-200,000	0,011	-0,140
-682,510	65,254	-0,060	-0,045
-681,495	-200,000	-0,028	0,113
-680,481	-200,000	-0,010	-0,150
-679,466	53,976	-0,111	-0,079
-678,451	-54,961	0,099	0,033
-677,437	30,239	0,022	0,014
-676,422	-200,000	0,021	0,077
-675,408	43,135	0,069	-0,047
-674,393	-126,914	0,085	-0,009
-673,378	-62,740	-0,165	0,050
-672,364	800,000	-0,037	-0,103
-671,349	382,382	0,077	-0,118
-670,335	617,539	-0,032	0,060
-669,320	80,877	-0,042	-0,033
-668,305	57,320	-0,094	0,068
-667,291	90,037	-0,075	0,062
-666,276	137,306	-0,117	-0,113
-665,262	-200,000	-0,167	0,000
-664,247	543,855	0,034	0,060
-663,232	-31,202	-0,095	0,039
-662,218	50,650	0,034	0,024
-661,203	284,290	-0,076	0,102
-660,189	-93,272	0,113	0,023
-659,174	-200,000	-0,030	0,111
-658,159	93,914	0,060	0,050
-657,145	732,955	-0,011	0,022
-656,130	5,383	-0,092	-0,050
-655,116	788,408	-0,035	0,071
-654,101	800,000	-0,083	0,175
-653,086	309,869	0,051	-0,071
-652,072	-32,926	-0,095	0,039
-651,057	-200,000	-0,034	-0,151
-650,043	-200,000	0,013	-0,083
-649,028	-28,128	0,207	0,088
-648,014	295,697	0,013	0,017
-646,999	-200,000	-0,008	0,049
-645,984	256,269	-0,062	0,080
-644,970	159,588	-0,064	0,066
-643,955	-200,000	0,017	-0,076
-642,941	262,783	-0,133	-0,171
-641,926	-9,738	0,084	0,041
-640,911	68,400	0,065	0,049
-639,897	-200,000	-0,038	0,245
-638,882	285,124	0,028	0,038
-637,868	191,880	0,043	-0,048
-636,853	273,866	-0,108	-0,142
-635,838	-46,659	-0,036	-0,013
-634,824	-200,000	0,010	0,042
-633,809	752,660	-0,026	0,052
-632,795	66,166	0,129	-0,097
-631,780	-32,143	0,136	-0,056
-630,765	413,571	-0,054	0,085
-629,751	-200,000	-0,005	0,039
-628,736	238,190	-0,078	-0,096
-627,722	1,706	0,039	0,021
-626,707	-65,040	0,025	-0,007
-625,692	318,875	0,033	-0,046
-624,678	50,749	0,005	-0,003
-623,663	-200,000	0,006	0,052
-622,649	-200,000	-0,039	-0,237
-621,634	-200,000	-0,013	-0,108
-620,619	-169,179	-0,033	0,001
-619,605	15,988	-0,066	-0,038
-618,590	-122,490	-0,151	0,018
-617,576	-27,387	0,075	0,032
-616,561	146,258	-0,072	0,071
-615,546	-7,130	0,079	-0,039
-614,532	114,625	-0,041	0,037
-613,517	319,104	-0,062	-0,087
-612,503	-200,000	0,015	-0,058
-611,488	795,718	-0,060	-0,123
-610,474	42,834	0,077	-0,052
-609,459	-22,902	0,020	0,009
-608,444	151,844	-0,147	-0,148
-607,430	24,065	-0,119	-0,072
-606,415	-200,000	0,009	-0,086
-605,401	-128,570	-0,083	-0,009
-604,386	129,916	-0,079	0,075
-603,371	-151,681	0,079	0,004
-602,357	-183,059	-0,090	-0,001
-601,342	154,371	-0,038	-0,039
-600,328	800,000	0,032	-0,087
-599,313	219,700	0,043	-0,051
-598,298	-200,000	-0,005	-0,147
-597,284	800,000	0,017	0,044
-596,269	-200,000	-0,007	0,121
-595,255	3,392	-0,067	0,036
-594,240	-200,000	0,010	-0,107
-593,225	800,000	-0,042	0,132
-592,211	-200,000	0,003	-0,075
-591,196	-200,000	0,040	-0,184
-590,182	-37,812	0,167	0,065
-589,167	219,180	0,081	0,096
-588,152	-12,031	0,095	-0,046
-587,138	201,302	-0,046	-0,053
-586,123	-33,369	-0,092	0,038
-585,109	-83,220	-0,074	0,017
-584,094	800,000	0,022	-0,065
-583,079	-152,668	0,162	-0,008
-582,065	258,584	-0,033	0,042
-581,050	800,000	0,060	-0,149
-580,036	69,421	-0,020	-0,015
-579,021	22,120	-0,067	0,040
-578,006	-95,165	-0,085	0,017
-576,992	-200,000	0,007	0,053
-575,977	-74,154	0,045	0,012
-574,963	190,826	0,037	0,041
-573,948	800,000	0,034	-0,081
-572,934	800,000	0,044	-0,131
-571,919	255,753	-0,060	-0,076
-570,904	24,139	0,024	0,015
-569,890	-200,000	-0,009	-0,107
-568,875	-91,208	0,093	0,019
-567,861	-200,000	-0,001	0,034
-566,846	112,762	-0,055	0,049
-565,831	-200,000	-0,004	0,039
-564,817	-200,000	-0,005	0,085
-563,802	-200,000	-0,140	-0,000
-562,788	419,018	-0,035	-0,055
-561,773	707,514	0,055	0,108
-560,758	337,474	-0,036	-0,051
-559,744	676,441	0,053	0,101
-558,729	800,000	0,058	0,173
-557,715	140,919	0,072	-0,070
-556,700	-200,000	-0,014	-0,083
-555,685	261,269	-0,069	0,089
-554,671	-159,263	0,134	-0,005
-553,656	164,956	-0,037	0,039
-552,642	576,186	-0,024	-0,043
-551,627	-146,931	-0,096	0,006
-550,612	362,020	0,128	0,191
-549,598	364,195	-0,015	-0,023
-548,583	336,011	0,075	-0,108
-547,569	-184,548	-0,146	-0,002
-546,554	67,506	0,061	0,046
-545,539	-16,839	0,059	0,028
-544,525	-200,000	0,001	0,026
-543,510	-8,278	0,081	0,040
-542,496	-176,911	-0,140	-0,003
-541,481	243,822	0,076	-0,094
-540,466	637,825	-0,111	-0,209
-539,452	142,466	0,101	-0,099
-538,437	128,764	0,106	0,100
-537,423	-200,000	0,009	-0,032
-536,408	15,371	0,106	0,061
-535,393	-200,000	0,003	-0,109
-534,379	-46,083	0,032	0,012
-533,364	800,000	0,060	-0,151
-532,350	-200,000	0,015	-0,103
-531,335	-148,812	0,130	-0,008
-530,321	95,679	0,108	0,091
-529,306	-51,049	0,045	0,016
-528,291	274,357	-0,034	0,045
-527,277	-19,821	-0,122	-0,055
-526,262	-200,000	-0,012	-0,043
-525,248	-98,040	-0,060	-0,011
-524,233	-200,000	0,021	0,069
-523,218	165,279	0,094	0,098
-522,204	371,245	0,061	0,091
-521,189	376,388	0,066	0,099
-520,175	42,193	0,064	-0,043
-519,160	-200,000	-0,031	-0,107
-518,145	800,000	-0,061	0,174
-517,131	-65,883	0,071	0,021
-516,116	-71,046	-0,096	-0,026
-515,102	-200,000	-0,012	0,075
-514,087	-129,916	-0,164	0,016
-513,072	22,673	-0,057	-0,034
-512,058	72,916	0,035	0,027
-511,043	-93,606	0,073	0,015
-510,029	-104,810	-0,100	-0,017
-509,014	-82,820	-0,098	0,023
-507,999	800,000	0,033	-0,075
-506,985	164,118	-0,073	-0,076
-505,970	-14,201	0,057	0,027
-504,956	-37,778	0,018	-0,007
-503,941	2,149	0,096	-0,051
-502,926	-62,225	0,096	-0,029
-501,912	560,796	0,038	0,069
-500,897	800,000	-0,009	0,019
-499,883	800,000	-0,019	0,040
-498,868	335,929	-0,017	-0,024
-497,853	800,000	0,043	-0,089
-496,839	800,000	0,024	-0,063
-495,824	-157,909	-0,057	-0,002
-494,810	-14,513	-0,077	0,036
-493,795	34,002	0,077	0,049
-492,781	527,243	0,033	0,057
-491,766	-79,962	-0,125	0,031
-490,751	190,693	0,118	-0,131
-489,737	-200,000	0,011	-0,149
-488,722	-200,000	-0,023	0,106
-487,708	-70,407	-0,029	0,008
-486,693	20,260	-0,114	-0,067
-485,678	800,000	-0,043	-0,111
-484,664	-70,328	-0,129	-0,036
-483,649	50,261	-0,078	0,054
-482,635	616,639	-0,039	-0,072
-481,620	-200,000	-0,005	0,062
-480,605	-14,186	0,060	-0,028
-479,591	-200,000	-0,008	0,212
-478,576	350,686	0,045	0,066
-477,562	234,460	-0,090	-0,109
-476,547	175,081	-0,075	-0,080
-475,532	800,000	-0,082	-0,241
-474,518	-125,638	0,125	0,014
-473,503	16,101	-0,123	-0,071
-472,489	82,849	-0,021	0,017
-471,474	800,000	-0,036	0,082
-470,459	-123,442	-0,057	-0,007
-469,445	-200,000	0,013	-0,051
-468,430	13,027	0,060	0,034
-467,416	-10,357	0,043	0,021
-466,401	-200,000	-0,003	-0,047
-465,386	-105,267	-0,078	0,013
-464,372	800,000	0,024	-0,065
-463,357	-200,000	-0,011	-0,039
-462,343	-8,468	-0,066	-0,032
-461,328	166,403	-0,079	0,082
-460,313	270,703	-0,020	0,026
-459,299	454,280	-0,099	-0,163
-458,284	-200,000	-0,013	-0,048
-457,270	-200,000	0,046	-0,154
-456,255	-200,000	0,019	-0,099
-455,241	333,776	-0,035	-0,050
-454,226	35,072	0,049	-0,032
-453,211	547,803	0,041	0,073
-452,197	123,995	-0,062	0,058
-451,182	-94,435	-0,151	-0,030
-450,168	20,215	-0,127	0,075
-449,153	92,423	-0,048	0,039
-448,138	589,591	0,046	-0,083
-447,124	210,744	-0,075	-0,087
-446,109	800,000	-0,026	0,075
-445,095	144,261	0,038	0,037
-444,080	-160,720	0,109	-0,004
-443,065	93,010	0,018	0,015
-442,051	-200,000	0,007	0,103
-441,036	3,049	-0,010	-0,005
-440,022	-12,074	-0,126	-0,061
-439,007	-18,604	0,116	0,053
-437,992	-5,731	-0,095	-0,048
-436,978	-200,000	-0,014	-0,091
-435,963	-200,000	0,012	0,044
-434,949	467,244	0,113	0,187
-433,934	-63,177	-0,159	0,048
-432,919	800,000	-0,056	-0,129
-431,905	184,131	0,019	0,021
-430,890	-7,408	0,058	-0,029
-429,876	-200,000	0,021	-0,130
-428,861	800,000	-0,068	0,147
-427,846	800,000	-0,042	-0,087
-426,832	115,087	0,111	-0,099
-425,817	-200,000	0,019	-0,112
-424,803	126,725	0,042	-0,039
-423,788	-48,689	-0,079	0,028
-422,773	-69,445	0,021	0,006
-421,759	-140,443	-0,081	-0,006
-420,744	-88,100	0,020	0,004
-419,730	-59,322	0,111	0,035
-418,715	-200,000	0,016	-0,069
-417,701	-13,016	-0,047	0,022
-416,686	653,213	0,060	0,113
-415,671	-144,790	-0,070	0,005
-414,657	800,000	0,025	-0,062
-413,642	800,000	0,028	0,086
-412,628	-200,000	0,017	0,078
-411,613	-200,000	-0,002	0,070
-410,598	-95,984	-0,085	-0,016
-409,584	-67,334	0,072	-0,021
-408,569	-56,764	0,057	-0,019
-407,555	-200,000	0,003	-0,051
-406,540	6,447	-0,099	0,054
-405,525	800,000	-0,053	0,124
-404,511	-141,135	0,040	-0,003
-403,496	691,050	-0,052	-0,100
-402,482	-41,709	-0,018	-0,007
-401,467	-200,000	-0,006	0,083
-400,452	391,980	0,057	0,087
-399,438	147,610	0,027	-0,027
-398,423	800,000	0,038	0,107
-397,409	735,291	0,049	0,097
-396,394	-200,000	-0,007	-0,121
-395,379	800,000	-0,036	-0,078
-394,365	-9,719	-0,009	0,005
-393,350	37,935	0,152	0,099
-392,336	205,187	-0,057	0,065
-391,321	-97,736	-0,054	-0,010
-390,306	-200,000	-0,000	-0,067
-389,292	-200,000	0,146	0,000
-388,277	800,000	-0,030	-0,069
-387,263	732,521	-0,084	0,166
-386,248	-78,098	0,090	-0,023
-385,233	800,000	0,071	0,149
-384,219	-178,663	-0,057	-0,001
-383,204	800,000	0,027	0,078
-382,190	-200,000	-0,032	0,111
-381,175	-137,258	0,085	-0,007
-380,160	-111,179	0,137	0,020
-379,146	85,377	0,033	0,027
-378,131	255,896	-0,017	0,022
-377,117	699,054	0,040	0,078
-376,102	-75,066	-0,124	0,032
-375,088	-200,000	-0,018	-0,063
-374,073	670,112	-0,045	0,085
-373,058	372,550	-0,059	0,088
-372,044	-200,000	-0,012	0,071
-371,029	-3,680	0,022	0,011
-370,015	800,000	-0,042	-0,096
-369,000	82,377	0,065	0,052
-367,985	22,023	-0,145	-0,086
-366,971	-200,000	-0,009	-0,066
-365,956	800,000	0,032	0,097
-364,942	-200,000	-0,000	0,048
-363,927	137,874	0,074	-0,071
-362,912	-200,000	-0,005	-0,100
-361,898	366,505	-0,039	-0,058
-360,883	-200,000	-0,002	0,018
-359,869	330,773	0,054	-0,076
-358,854	-200,000	0,003	-0,046
-357,839	800,000	-0,063	0,136
-356,825	423,015	0,008	-0,013
-355,810	-1,023	0,013	0,007
-354,796	-126,613	-0,089	0,010
-353,781	-200,000	0,037	-0,126
-352,766	-19,218	-0,103	0,047
-351,752	800,000	0,022	-0,052
-350,737	-38,784	0,187	-0,072
-349,723	449,673	0,036	0,059
-348,708	-200,000	-0,008	0,032
-347,693	44,429	0,057	0,038
-346,679	800,000	0,011	-0,026
-345,664	295,404	-0,035	0,047
-344,650	-200,000	0,014	0,082
-343,635	137,385	0,128	0,122
-342,620	-168,759	-0,099	-0,003
-341,606	-66,861	-0,010	-0,003
-340,591	-200,000	-0,006	-0,027
-339,577	755,673	0,043	-0,085
-338,562	-58,218	-0,114	-0,036
-337,548	-200,000	0,014	-0,111
-336,533	-5,258	0,129	0,065
-335,518	83,227	-0,069	-0,055
-334,504	-33,303	0,100	0,040
-333,489	189,648	-0,021	-0,023
-332,475	63,730	0,058	0,043
-331,460	68,448	0,045	0,033
-330,445	370,067	-0,086	-0,127
-329,431	800,000	0,013	-0,037
-328,416	-200,000	0,015	0,168
-327,402	-200,000	0,003	0,046
-326,387	91,734	0,096	-0,079
-325,372	184,977	0,074	0,081
-324,358	194,867	0,021	-0,023
-323,343	-200,000	-0,002	-0,006
-322,329	360,707	0,056	0,082
-321,314	29,492	-0,046	0,029
-320,299	-109,489	0,121	-0,018
-319,285	628,811	0,064	0,118
-318,270	800,000	0,018	0,046
-317,256	-39,010	-0,105	-0,040
-316,241	375,464	-0,038	-0,056
-315,226	252,870	0,037	-0,046
-314,212	-96,924	0,119	0,023
-313,197	800,000	-0,024	-0,054
-312,183	537,481	-0,051	0,089
-311,168	-200,000	0,004	0,119
-310,153	154,782	-0,105	-0,106
-309,139	32,452	0,086	-0,054
-308,124	-7,464	-0,094	-0,046
-307,110	-159,599	-0,053	-0,002
-306,095	321,157	0,038	0,053
-305,080	196,914	0,048	-0,054
-304,066	-200,000	0,022	0,137
-303,051	800,000	-0,030	-0,061
-302,037	140,815	-0,023	0,022
-301,022	-9,266	-0,048	-0,023
-300,008	800,000	-0,040	0,106
-298,993	-113,884	-0,111	0,016
-297,978	800,000	0,014	-0,046
-296,964	-200,000	-0,004	0,213
-295,949	-158,000	0,058	-0,002
-294,935	-71,766	0,048	-0,013
-293,920	-144,812	0,091	-0,006
-292,905	-200,000	0,014	0,132
-291,891	152,471	-0,015	0,015
-290,876	15,161	0,036	0,021
-289,862	465,992	0,010	-0,017
-288,847	499,370	-0,074	-0,126
-287,832	39,438	-0,043	0,028
-286,818	696,021	0,058	0,112
-285,803	683,785	0,038	0,074
-284,789	109,048	-0,014	-0,012
-283,774	-200,000	0,018	0,181
-282,759	800,000	-0,021	0,064
-281,745	-200,000	-0,013	-0,142
-280,730	-41,696	0,128	0,048
-279,716	-200,000	-0,001	0,183
-278,701	-116,928	0,075	-0,010
-277,686	-86,912	0,144	0,032
-276,672	-200,000	0,007	-0,101
-275,657	793,418	-0,114	-0,229
-274,643	-200,000	-0,002	0,022
-273,628	800,000	0,025	-0,068
-272,613	364,362	0,073	-0,108
-271,599	-73,638	-0,124	0,033
-270,584	159,438	0,024	-0,025
-269,570	-200,000	0,010	0,120
-268,555	19,930	-0,179	-0,105
-267,540	453,178	0,047	0,076
-266,526	-200,000	0,012	-0,064
-265,511	-55,663	0,110	0,036
-264,497	40,673	0,154	-0,101
-263,482	169,662	-0,069	0,072
-262,467	98,856	0,097	-0,082
-261,453	800,000	0,045	-0,125
-260,438	-46,339	0,095	0,034
-259,424	-200,000	0,001	-0,110
-258,409	-200,000	0,027	-0,116
-257,395	259,909	0,050	-0,063
-256,380	-153,958	-0,052	-0,003
-255,365	-72,535	0,038	0,010
-254,351	188,330	0,060	0,066
-253,336	-200,000	0,017	0,090
-252,322	-200,000	0,040	0,155
-251,307	-0,487	0,024	0,012
-250,292	800,000	-0,045	0,142
-249,278	800,000	0,060	0,143
-248,263	-200,000	0,000	-0,085
-247,249	-200,000	-0,003	-0,032
-246,234	-200,000	0,007	0,059
-245,219	-82,691	-0,064	0,015
-244,205	800,000	-0,040	-0,084
-243,190	-16,081	-0,105	-0,048
-242,176	800,000	0,041	0,119
-241,161	-200,000	0,017	0,074
-240,146	-200,000	-0,019	0,088
-239,132	-200,000	0,020	0,104
-238,117	92,905	0,037	-0,030
-237,103	188,487	-0,126	-0,138
-236,088	-100,563	-0,136	0,024
-235,073	122,754	0,041	0,037
-234,059	-200,000	0,033	0,172
-233,044	-45,474	0,057	0,021
-232,030	540,940	-0,080	-0,140
-231,015	800,000	0,008	-0,018
-230,000	-69,518	-0,076	0,021
-228,986	-200,000	-0,007	-0,094
-227,971	327,742	-0,016	0,023
-226,957	-200,000	-0,034	0,137
-225,942	19,055	0,076	-0,045
-224,927	800,000	-0,014	0,035
-223,913	-5,792	0,062	0,031
-222,898	-22,690	-0,114	-0,050
-221,884	-66,546	-0,050	0,014
-220,869	184,299	0,055	0,059
-219,855	-200,000	0,042	0,134
-218,840	353,091	-0,041	0,059
-217,825	-200,000	0,002	0,039
-216,811	-65,551	-0,118	-0,034
-215,796	169,343	-0,091	0,095
-214,782	800,000	-0,048	-0,101
-213,767	-200,000	-0,007	-0,157
-212,752	117,887	0,124	-0,111
-211,738	111,193	-0,055	0,048
-210,723	366,358	-0,014	0,021
-209,709	-200,000	0,005	-0,062
-208,694	-137,421	0,096	0,008
-207,679	77,285	-0,040	-0,031
-206,665	163,725	-0,075	0,077
-205,650	800,000	0,033	0,085
-204,636	-200,000	0,011	0,106
-203,621	-109,292	0,053	0,008
-202,606	275,095	-0,083	-0,108
-201,592	-8,416	0,135	-0,066
-200,577	-200,000	-0,017	0,075
-199,563	-200,000	-0,035	0,128
-198,548	459,279	0,014	-0,023
-197,533	-46,388	-0,089	0,032
-196,519	450,774	-0,006	-0,009
-195,504	108,474	0,087	0,075
-194,490	400,023	-0,093	-0,142
-193,475	-200,000	0,009	-0,063
-192,460	405,060	0,069	-0,106
-191,446	42,410	0,170	-0,112
-190,431	-152,337	-0,123	-0,006
-189,417	92,155	-0,092	0,075
-188,402	314,800	-0,026	-0,036
-187,387	351,478	-0,123	-0,177
-186,373	-87,311	-0,081	0,018
-185,358	76,286	-0,092	-0,071
-184,344	800,000	0,032	0,084
-183,329	800,000	-0,046	0,108
-182,315	132,313	-0,015	-0,014
-181,300	485,567	-0,045	0,076
-180,285	-200,000	0,020	0,067
-179,271	-67,777	-0,002	0,001
-178,256	800,000	0,017	0,037
-177,242	-200,000	0,006	-0,043
-176,227	124,070	0,090	-0,082
-175,212	25,037	0,014	-0,008
-174,198	800,000	0,021	-0,064
-173,183	-200,000	-0,039	-0,147
-172,169	72,954	0,014	0,011
-171,154	-91,999	-0,133	-0,027
-170,139	-200,000	-0,003	0,118
-169,125	-164,876	-0,087	-0,003
-168,110	800,000	0,033	0,087
-167,096	-196,693	0,037	-0,000
-166,081	207,023	0,031	-0,035
-165,066	35,862	-0,116	-0,074
-164,052	-200,000	-0,004	0,023
-163,037	-200,000	-0,004	-0,080
-162,023	55,647	0,140	0,099
-161,008	800,000	0,033	0,072
-159,993	630,575	0,011	-0,020
-158,979	-35,574	-0,009	0,004
-157,964	259,215	-0,009	-0,012
-156,950	144,055	-0,024	0,023
-155,935	550,206	0,051	-0,090
-154,920	-200,000	-0,003	0,104
-153,906	143,716	0,135	0,131
-152,891	256,446	0,066	-0,082
-151,877	4,876	0,097	-0,052
-150,862	389,981	0,114	-0,173
-149,847	16,106	0,038	-0,022
-148,833	-91,134	-0,161	-0,033
-147,818	118,948	-0,040	-0,036
-146,804	-200,000	0,027	-0,093
-145,789	-174,487	-0,070	0,001
-144,775	-44,046	0,034	0,012
-143,760	800,000	-0,032	-0,097
-142,745	-200,000	-0,016	0,112
-141,731	-200,000	0,001	0,025
-140,716	6,034	0,055	0,029
-139,702	-200,000	-0,015	0,047
-138,687	800,000	-0,022	0,053
-137,672	-69,130	-0,163	-0,045
-136,658	2,388	0,089	-0,047
-135,643	-81,339	0,029	-0,007
-134,629	800,000	-0,061	-0,159
-133,614	353,304	0,034	-0,050
-132,599	402,868	0,054	0,083
-131,585	-2,567	0,082	-0,041
-130,570	-97,483	0,111	-0,021
-129,556	-200,000	0,025	-0,145
-128,541	91,609	-0,056	-0,046
-127,526	-200,000	0,002	-0,031
-126,512	800,000	0,053	0,154
-125,497	-99,300	-0,077	0,014
-124,483	-50,778	0,116	-0,039
-123,468	800,000	-0,024	0,052
-122,453	-49,836	0,051	0,017
-121,439	73,192	0,128	-0,097
-120,424	-200,000	0,012	-0,117
-119,410	-200,000	-0,019	0,066
-118,395	-40,477	-0,125	0,047
-117,380	800,000	0,027	0,072
-116,366	-29,623	0,108	-0,044
-115,351	-77,664	0,091	-0,023
-114,337	-20,584	0,063	0,028
-113,322	-1,134	-0,164	0,084
-112,307	800,000	0,009	0,025
-111,293	-200,000	-0,010	-0,064
-110,278	164,160	-0,111	0,113
-109,264	43,463	-0,059	-0,039
-108,249	-127,690	0,067	0,007
-107,234	-71,148	-0,177	0,048
-106,220	-153,568	0,078	-0,004
-105,205	2,631	-0,034	0,018
-104,191	-200,000	-0,012	0,180
-103,176	-200,000	0,017	0,142
-102,162	-79,353	-0,108	0,026
-101,147	-46,973	0,117	0,041
-100,132	-39,926	-0,106	0,040
-99,118	-137,017	-0,036	0,003
-98,103	322,984	0,061	0,084
-97,089	69,261	-0,051	0,038
-96,074	215,829	-0,093	0,107
-95,059	-31,578	0,116	-0,047
-94,045	102,462	0,124	0,105
-93,030	356,456	0,065	-0,094
-92,016	19,108	-0,137	-0,080
-91,001	-200,000	0,005	0,086
-89,986	-200,000	-0,013	0,095
-88,972	-200,000	-0,007	0,123
-87,957	-39,696	-0,080	-0,030
-86,943	212,666	0,055	-0,063
-85,928	31,930	-0,082	0,051
-84,913	-134,156	-0,095	0,008
-83,899	-200,000	-0,022	-0,130
-82,884	110,044	-0,026	0,022
-81,870	800,000	0,061	0,126
-80,855	-2,142	0,062	0,031
-79,840	-22,841	0,043	0,019
-78,826	-200,000	0,011	-0,086
-77,811	252,462	-0,064	-0,079
-76,797	316,551	-0,080	0,110
-75,782	-63,337	0,068	-0,020
-74,767	120,188	0,161	0,144
-73,753	-200,000	-0,014	0,068
-72,738	-200,000	0,037	-0,158
-71,724	350,521	0,047	0,067
-70,709	-168,320	-0,074	-0,002
-69,694	90,996	-0,114	-0,093
-68,680	119,124	0,071	0,063
-67,665	-83,937	0,011	-0,002
-66,651	-94,161	-0,076	-0,015
-65,636	800,000	0,026	0,057
-64,622	-11,322	-0,091	-0,043
-63,607	119,383	-0,024	-0,022
-62,592	0,320	-0,121	-0,062
-61,578	62,771	-0,091	-0,066
-60,563	-17,149	-0,047	-0,021
-59,549	462,750	0,041	0,066
-58,534	-79,777	-1,482	-0,358
-57,519	799,045	-0,630	-1,264
-56,505	-200,000	-0,955	-4,469
-55,490	-41,564	0,626	-0,232
-54,476	800,000	5,122	11,772
-53,461	-200,000	14,493	259,362
-52,446	-200,000	696,074	2234,433
-51,432	565,457	1622,200	2858,265
-50,417	117,840	1629,810	1452,636
-49,403	74,860	1284,054	977,476
-48,388	37,350	1022,585	654,560
-47,373	23,164	981,700	581,814
-46,359	22,361	970,842	572,728
-45,344	21,199	966,702	566,472
-44,330	21,176	965,272	565,538
-43,315	21,011	963,777	564,103
-42,300	21,020	962,725	563,494
-41,286	20,982	961,738	562,770
-40,271	20,993	960,791	562,228
-39,257	21,031	959,988	561,859
-38,242	20,962	958,999	561,037
-37,227	20,960	958,060	560,458
-36,213	20,930	957,216	559,846
-35,198	20,922	956,466	559,357
-34,184	20,934	955,697	558,924
-33,169	20,963	954,763	558,451
-32,154	20,988	953,868	557,986
-31,140	20,972	952,996	557,400
-30,125	20,960	952,279	556,922
-29,111	21,023	951,433	556,606
-28,096	20,991	950,816	556,122
-27,082	21,005	949,950	555,638
-26,067	20,968	949,292	555,113
-25,052	20,939	948,645	554,617
-24,038	20,914	948,105	554,201
-23,023	20,912	947,238	553,666
-22,009	21,011	946,574	553,572
-20,994	21,012	945,960	553,195
-19,979	20,990	945,334	552,735
-18,965	21,001	944,810	552,443
-17,950	21,010	944,092	552,028
-16,936	20,923	943,612	551,451
-15,921	20,940	942,751	550,979
-14,906	20,844	942,251	550,358
-13,892	20,877	941,292	549,883
-12,877	20,802	940,886	549,386
-11,863	20,866	940,251	549,194
-10,848	20,893	939,615	548,887
-9,833	21,000	939,258	548,997
-8,819	20,930	938,824	548,498
-7,804	20,874	937,893	547,756
-6,790	20,898	937,376	547,508
-5,775	20,886	936,912	547,178
-4,760	20,926	936,073	546,791
-3,746	20,840	935,436	546,126
-2,731	20,724	934,861	545,405
-1,717	20,708	934,078	544,874
-0,702	20,763	933,464	544,669
0,313	20,495	932,920	544,330
1,327	23,468	930,852	552,409
2,342	32,641	793,988	495,541
3,356	30,139	450,506	277,381
4,371	0,137	294,334	151,253
5,386	-4,161	275,349	137,415
6,400	-5,628	269,756	133,249
7,415	-5,748	267,300	131,913
8,429	-5,747	266,244	131,381
9,444	-5,781	265,326	130,885
10,459	-5,717	264,682	130,614
11,473	-5,787	264,082	130,243
12,488	-5,822	263,631	129,977
13,502	-6,015	263,027	129,494
14,517	-6,009	262,770	129,360
15,531	-5,896	262,219	129,180
16,546	-5,888	261,773	128,956
17,561	-5,764	261,316	128,831
18,575	-5,791	261,226	128,751
19,590	-5,939	260,869	128,431
20,604	-5,802	260,471	128,346
21,619	-5,994	260,308	128,082
22,634	-5,945	259,781	127,855
23,648	-5,931	259,543	127,739
24,663	-5,911	259,297	127,624
25,677	-6,074	258,974	127,309
26,692	-5,830	258,854	127,456
27,707	-5,928	258,522	127,194
28,721	-5,856	258,216	127,096
29,736	-6,180	257,967	126,674
30,750	-5,992	257,589	126,644
31,765	-6,090	257,493	126,499
32,780	-6,092	257,349	126,415
33,794	-6,039	257,092	126,324
34,809	-5,994	256,704	126,162
35,823	-5,950	256,567	126,122
36,838	-6,197	256,426	125,824
37,853	-6,044	255,984	125,731
38,867	-6,166	255,905	125,574
39,882	-6,162	255,742	125,486
40,896	-6,063	255,265	125,328
41,911	-6,015	255,208	125,330
42,926	-6,194	255,053	125,086
43,940	-6,044	254,652	125,010
44,955	-6,225	254,439	124,735
45,969	-6,129	254,180	124,681
46,984	-6,264	253,942	124,436
47,999	-6,547	253,702	124,061
49,013	-6,689	253,418	123,787
50,028	-6,662	253,264	123,725
51,042	-6,714	252,947	123,513
52,057	-6,866	252,761	123,280
53,071	-6,807	252,564	123,224
54,086	-6,610	252,264	123,237
55,101	-6,428	252,049	123,278
56,115	-6,198	252,026	123,455
57,130	-6,207	252,062	123,454
58,144	-5,952	251,992	123,629
59,159	-5,778	251,555	123,553
60,174	-5,709	251,350	123,501
61,188	-5,651	251,077	123,406
62,203	-5,717	251,108	123,354
63,217	-5,978	250,734	122,934
64,232	-5,993	250,584	122,837
65,247	-5,836	250,325	122,834
66,261	-5,815	250,154	122,757
67,276	-6,273	249,888	122,223
68,290	-6,362	249,698	122,043
69,305	-6,404	249,435	121,868
70,320	-6,309	249,199	121,823
71,334	-6,237	249,076	121,814
72,349	-5,738	248,967	122,174
73,363	-5,843	248,810	121,998
74,378	-5,983	248,648	121,787
75,393	-5,970	248,385	121,659
76,407	-5,858	248,141	121,624
77,422	-5,816	247,927	121,544
78,436	-5,670	247,696	121,543
79,451	-5,667	247,366	121,374
80,466	-6,037	247,222	120,979
81,480	-6,276	246,891	120,604
82,495	-6,195	246,864	120,649
83,509	-5,933	246,601	120,731
84,524	-6,144	246,545	120,514
85,539	-6,218	246,358	120,350
86,553	-6,426	246,075	120,025
87,568	-6,424	245,931	119,946
88,582	-6,133	245,596	120,017
89,597	-6,326	245,563	119,828
90,611	-6,064	245,406	119,961
91,626	-6,083	245,319	119,891
92,641	-6,019	245,145	119,849
93,655	-6,214	244,881	119,546
94,670	-6,262	244,644	119,379
95,684	-5,995	244,363	119,455
96,699	-6,069	244,292	119,348
97,714	-6,241	244,059	119,079
98,728	-6,333	243,817	118,875
99,743	-6,310	243,558	118,757
100,757	-6,338	243,425	118,658
101,772	-6,316	243,319	118,613
102,787	-6,170	243,153	118,644
103,801	-6,200	242,887	118,478
104,816	-6,117	242,737	118,464
105,830	-6,051	242,658	118,469
106,845	-6,032	242,450	118,373
107,860	-5,901	242,286	118,390
108,874	-6,072	242,073	118,135
109,889	-6,252	241,824	117,854
110,903	-6,181	241,596	117,791
111,918	-6,171	241,375	117,681
112,933	-6,053	241,272	117,717
113,947	-6,175	241,247	117,594
114,962	-6,127	241,079	117,541
115,976	-5,949	240,854	117,567
116,991	-5,835	240,616	117,534
118,006	-6,199	240,568	117,201
119,020	-5,893	240,287	117,305
120,035	-5,955	240,223	117,212
121,049	-5,899	240,099	117,187
122,064	-5,782	239,874	117,163
123,079	-5,851	239,564	116,945
124,093	-6,300	239,520	116,546
125,108	-6,113	239,301	116,582
126,122	-6,318	239,015	116,265
127,137	-6,395	238,801	116,087
128,151	-6,404	238,635	115,989
129,166	-6,260	238,459	116,011
130,181	-6,254	238,242	115,899
131,195	-6,436	238,029	115,638
132,210	-6,037	237,986	115,931
133,224	-5,905	237,760	115,917
134,239	-6,034	237,708	115,777
135,254	-6,055	237,510	115,653
136,268	-6,078	237,213	115,480
137,283	-6,305	237,127	115,244
138,297	-6,506	236,750	114,888
139,312	-6,552	236,764	114,848
140,327	-6,019	236,539	115,157
141,341	-5,801	236,582	115,344
142,356	-5,613	236,246	115,321
143,370	-5,647	236,224	115,272
144,385	-5,437	235,929	115,287
145,400	-5,608	235,923	115,137
146,414	-5,715	235,813	114,987
147,429	-5,864	235,530	114,720
148,443	-5,705	235,439	114,792
149,458	-5,764	235,085	114,562
150,473	-5,828	235,045	114,481
151,487	-5,514	234,760	114,582
152,502	-5,617	234,723	114,472
153,516	-5,749	234,449	114,223
154,531	-5,897	234,415	114,079
155,546	-5,701	234,377	114,206
156,560	-5,553	233,838	114,051
157,575	-5,940	233,776	113,703
158,589	-5,876	233,651	113,683
159,604	-5,598	233,434	113,788
160,619	-5,603	233,414	113,764
161,633	-5,646	233,333	113,680
162,648	-5,608	233,165	113,618
163,662	-5,558	233,020	113,577
164,677	-5,807	232,851	113,287
165,692	-5,748	232,588	113,196
166,706	-5,630	232,507	113,240
167,721	-5,664	232,336	113,119
168,735	-5,545	232,257	113,165
169,750	-5,663	232,146	113,008
170,764	-5,728	231,754	112,756
171,779	-5,619	231,746	112,827
172,794	-5,728	231,480	112,603
173,808	-5,802	231,274	112,434
174,823	-6,022	231,093	112,163
175,837	-6,312	230,876	111,820
176,852	-5,902	230,938	112,162
177,867	-5,465	230,732	112,394
178,881	-5,652	230,603	112,175
179,896	-5,532	230,389	112,155
180,910	-5,646	230,317	112,021
181,925	-5,603	230,245	112,009
182,940	-5,556	230,063	111,947
183,954	-5,721	230,014	111,785
184,969	-5,643	229,798	111,731
185,983	-5,593	229,651	111,689
186,998	-5,428	229,382	111,676
188,013	-5,293	229,405	111,782
189,027	-5,592	229,197	111,438
190,042	-5,287	228,884	111,513
191,056	-5,355	228,710	111,366
192,071	-5,434	228,662	111,271
193,086	-5,475	228,493	111,147
194,100	-5,532	228,313	111,005
195,115	-5,500	227,946	110,842
196,129	-6,456	227,819	110,032
197,144	-3,449	228,652	112,753
198,159	0,701	229,994	116,630
199,173	3,578	230,458	119,092
200,188	3,711	230,434	119,171
201,202	3,867	230,374	119,251
202,217	4,032	230,252	119,305
203,232	4,117	230,250	119,359
204,246	4,147	229,926	119,204
205,261	4,184	229,843	119,179
206,275	4,349	229,842	119,295
207,290	4,506	229,580	119,270
208,304	4,417	229,489	119,144
209,319	4,476	229,225	119,041
210,334	4,110	229,120	118,694
211,348	4,269	228,847	118,664
212,363	3,842	228,638	118,217
213,377	3,531	228,356	117,822
214,392	3,589	228,284	117,818
215,407	3,674	228,124	117,791
216,421	3,823	227,989	117,825
217,436	3,548	227,850	117,531
218,450	3,319	227,581	117,207
219,465	3,169	227,495	117,037
220,480	3,465	227,318	117,162
221,494	3,315	227,151	116,952
222,509	3,649	227,153	117,197
223,523	3,537	226,907	116,974
224,538	3,467	226,707	116,807
225,553	3,482	226,607	116,757
226,567	3,838	226,520	116,972
227,582	3,926	226,454	116,995
228,596	3,960	226,388	116,976
229,611	3,683	226,141	116,628
230,626	3,518	225,898	116,366
231,640	3,500	225,523	116,150
232,655	3,695	225,648	116,351
233,669	3,966	225,642	116,543
234,684	4,273	225,560	116,723
235,699	3,967	225,275	116,334
236,713	3,844	225,016	116,096
237,728	3,756	224,738	115,877
238,742	3,716	224,600	115,765
239,757	3,450	224,501	115,503
240,772	3,565	224,406	115,531
241,786	3,457	224,180	115,322
242,801	3,486	224,225	115,358
243,815	4,102	224,163	115,778
244,830	3,959	223,995	115,574
245,844	3,727	223,698	115,236
246,859	3,525	223,548	114,998
247,874	3,767	223,482	115,135
248,888	3,798	223,388	115,099
249,903	3,857	223,115	114,992
250,917	3,721	223,000	114,821
251,932	3,613	222,778	114,615
252,947	3,614	222,560	114,494
253,961	3,463	222,414	114,296
254,976	3,400	222,487	114,277
255,990	3,586	222,124	114,219
257,005	3,869	222,173	114,444
258,020	4,029	221,907	114,415
259,034	3,918	222,019	114,381
260,049	4,017	221,778	114,320
261,063	3,858	221,675	114,139
262,078	3,905	221,459	114,052
263,093	3,836	221,478	114,000
264,107	3,904	221,175	113,884
265,122	4,124	221,049	113,972
266,136	4,077	220,993	113,899
267,151	4,014	220,741	113,712
268,166	3,665	220,574	113,359
269,180	3,414	220,296	113,020
270,195	3,289	220,094	112,814
271,209	3,534	220,046	112,960
272,224	3,737	219,852	112,999
273,239	3,676	219,921	112,980
274,253	3,546	219,597	112,708
275,268	3,265	219,451	112,417
276,282	3,538	219,210	112,483
277,297	3,528	219,091	112,405
278,312	3,551	219,003	112,366
279,326	3,544	218,970	112,335
280,341	3,685	218,919	112,402
281,355	3,655	218,714	112,265
282,370	3,906	218,356	112,254
283,384	3,362	218,203	111,769
284,399	3,168	218,155	111,592
285,414	3,109	218,145	111,534
286,428	3,628	217,925	111,790
287,443	3,822	217,766	111,840
288,457	3,603	217,749	111,662
289,472	3,705	217,484	111,590
290,487	3,192	217,214	111,069
291,501	3,063	217,254	110,986
292,516	3,285	216,899	110,955
293,530	3,381	217,031	111,082
294,545	3,386	216,682	110,898
295,560	3,355	216,627	110,838
296,574	3,231	216,723	110,787
297,589	3,481	216,499	110,843
298,603	3,952	216,219	111,031
299,618	3,556	216,197	110,724
300,633	3,675	216,128	110,764
301,647	3,749	216,151	110,819
302,662	3,702	215,854	110,623
303,676	3,844	215,583	110,577
304,691	3,576	215,485	110,323
305,706	3,986	215,459	110,595
306,720	4,070	215,313	110,570
307,735	3,796	215,130	110,270
308,749	3,644	214,899	110,033
309,764	3,727	214,880	110,073
310,779	4,155	214,712	110,284
311,793	3,982	214,556	110,070
312,808	3,816	214,499	109,912
313,822	3,864	214,189	109,778
314,837	3,444	213,965	109,353
315,852	3,279	213,984	109,235
316,866	3,219	213,829	109,105
317,881	3,832	213,746	109,489
318,895	3,837	213,578	109,396
319,910	3,733	213,293	109,167
320,925	3,317	213,196	108,811
321,939	3,030	213,111	108,555
322,954	3,329	212,883	108,641
323,968	3,604	213,051	108,912
324,983	3,749	212,852	108,904
325,997	4,055	212,636	109,000
327,012	3,799	212,461	108,720
328,027	3,562	212,417	108,520
329,041	4,129	212,332	108,868
330,056	4,162	212,222	108,825
331,070	3,741	211,862	108,333
332,085	3,362	211,785	108,018
333,100	3,354	211,695	107,957
334,114	3,565	211,496	107,994
335,129	3,818	211,328	108,076
336,143	3,800	211,185	107,981
337,158	3,633	210,985	107,751
338,173	3,642	210,909	107,709
339,187	3,369	210,815	107,461
340,202	3,209	210,606	107,233
341,216	3,273	210,476	107,201
342,231	3,503	210,354	107,290
343,246	3,455	210,247	107,193
344,260	3,412	210,109	107,083
345,275	3,439	210,029	107,051
346,289	3,761	209,920	107,211
347,304	3,769	209,811	107,152
348,319	3,580	209,665	106,936
349,333	3,459	209,547	106,781
350,348	3,697	209,292	106,808
351,362	3,746	209,407	106,891
352,377	3,740	209,279	106,812
353,392	3,653	209,060	106,630
354,406	3,756	208,907	106,615
355,421	195,857	1344,154	1435,325
356,435	156,371	1482,557	1435,422
