DTS Sentinel unit serial number:	SN410029Multiplexer serial number:	ORYXHardware model number:	OX2-SRSoftware version number:	ORYX F/W v4,00 Oryx Data Collector v3.7.2.0data status	okinstallation	B6 Nyhavnadifferential loss correction	single-endedforward channel	channel 2reverse channel	N/Adate	2023/12/08time	14:50:08forward acquisition time	300,00reverse acquisition time	0,00gamma	499,1914k internal	0,3159k external	0,3159temperature offset calibration	1,0000default loss term (dB/km)	0,3820temperature slope calibration	1,0000multiplexer offset coefficient	1,0000multiplexer slope coefficient	1,0000fibre end	0,00T internal ref (°C)	15,06T ext. ref 1 (°C)	-1,48T ext. ref 2 (°C)	-1,48length (m)	temperature (°C)	Stokes	anti-Stokes-744,400	-103,092	0,046	0,008
-743,385	-150,131	-0,304	-0,017
-742,371	-160,317	0,182	-0,007
-741,356	-69,787	-0,208	0,058
-740,342	9,184	0,123	0,068
-739,327	-151,683	-0,337	0,018
-738,312	303,430	-0,070	-0,095
-737,298	-45,437	-0,267	-0,097
-736,283	-200,000	-0,018	-0,080
-735,269	-98,821	-0,359	0,067
-734,254	-13,965	0,112	-0,053
-733,239	-71,515	-0,505	-0,138
-732,225	-113,559	0,167	0,024
-731,210	-108,254	0,144	0,023
-730,196	800,000	-0,036	-0,087
-729,181	-185,439	-0,172	0,002
-728,167	338,842	-0,015	-0,022
-727,152	-7,414	0,049	-0,024
-726,137	-200,000	-0,022	-0,370
-725,123	1,865	-0,067	-0,036
-724,108	414,315	-0,068	-0,106
-723,094	-200,000	-0,013	-0,082
-722,079	800,000	0,029	-0,083
-721,064	800,000	-0,016	-0,048
-720,050	800,000	0,044	-0,095
-719,035	147,173	0,040	-0,040
-718,021	-35,406	-0,089	-0,035
-717,006	-22,285	0,017	0,008
-715,991	-200,000	0,013	-0,170
-714,977	430,123	0,015	-0,024
-713,962	53,689	-0,122	-0,086
-712,948	-200,000	0,037	-0,190
-711,933	150,438	-0,068	-0,068
-710,918	-4,021	0,014	-0,007
-709,904	-109,907	-0,201	-0,031
-708,889	189,395	0,037	-0,041
-707,875	-200,000	-0,005	-0,100
-706,860	136,782	-0,064	-0,062
-705,845	-31,577	0,110	-0,045
-704,831	800,000	0,031	-0,064
-703,816	9,803	-0,043	-0,024
-702,802	167,434	-0,171	0,178
-701,787	102,982	-0,043	-0,037
-700,772	219,807	0,067	-0,079
-699,758	39,390	0,013	-0,009
-698,743	800,000	-0,026	0,066
-697,729	84,852	-0,036	0,029
-696,714	-97,181	0,099	0,019
-695,699	-36,887	-0,195	-0,077
-694,685	42,088	-0,057	0,038
-693,670	485,693	-0,042	-0,070
-692,656	-38,503	-0,172	0,067
-691,641	328,812	-0,045	-0,063
-690,627	141,860	0,101	0,099
-689,612	-91,628	-0,069	0,014
-688,597	-101,095	-0,059	-0,011
-687,583	-97,135	-0,232	-0,044
-686,568	-146,774	-0,146	-0,009
-685,554	309,155	0,096	0,132
-684,539	800,000	-0,012	-0,031
-683,524	-174,924	0,095	-0,002
-682,510	3,856	-0,042	-0,023
-681,495	19,655	0,070	-0,041
-680,481	-200,000	0,005	0,046
-679,466	-66,701	-0,067	-0,019
-678,451	178,032	-0,040	-0,043
-677,437	-200,000	0,024	0,116
-676,422	-200,000	0,006	0,078
-675,408	-200,000	0,016	0,067
-674,393	800,000	0,028	-0,063
-673,378	215,597	-0,029	-0,034
-672,364	-200,000	0,004	-0,142
-671,349	59,728	-0,117	0,085
-670,335	800,000	0,023	-0,068
-669,320	168,184	0,009	0,009
-668,305	-200,000	0,001	-0,066
-667,291	800,000	-0,037	-0,087
-666,276	260,110	-0,076	0,096
-665,262	800,000	0,048	-0,132
-664,247	800,000	0,013	0,028
-663,232	-2,694	0,014	0,007
-662,218	99,561	-0,057	-0,048
-661,203	-94,304	0,115	0,023
-660,189	-200,000	0,021	-0,146
-659,174	800,000	-0,044	-0,104
-658,159	-3,122	-0,004	0,002
-657,145	-153,670	-0,107	0,005
-656,130	27,862	0,105	0,065
-655,116	204,054	0,083	0,094
-654,101	-200,000	0,010	0,086
-653,086	33,772	0,031	0,020
-652,072	157,505	-0,069	-0,071
-651,057	181,075	0,058	0,062
-650,043	-14,479	0,091	0,043
-649,028	-12,547	-0,080	0,038
-648,014	416,867	0,036	-0,057
-646,999	-200,000	-0,019	0,134
-645,984	-0,055	-0,050	0,026
-644,970	-81,989	-0,055	-0,013
-643,955	-3,483	0,103	0,052
-642,941	89,790	-0,075	-0,061
-641,926	800,000	0,032	0,091
-640,911	-200,000	-0,051	0,167
-639,897	571,098	0,047	0,085
-638,882	800,000	-0,031	0,100
-637,868	178,840	-0,038	0,041
-636,853	357,318	-0,046	-0,068
-635,838	-200,000	-0,011	-0,035
-634,824	-95,588	-0,044	0,009
-633,809	-200,000	-0,018	0,136
-632,795	382,451	0,007	-0,010
-631,780	-200,000	-0,005	0,058
-630,765	-47,935	-0,023	-0,008
-629,751	800,000	0,043	-0,108
-628,736	194,700	-0,023	-0,025
-627,722	446,940	-0,082	0,132
-626,707	629,681	0,061	0,114
-625,692	201,709	0,015	-0,016
-624,678	637,817	-0,031	-0,058
-623,663	-200,000	-0,035	0,126
-622,649	-92,950	0,035	0,007
-621,634	82,542	0,016	0,013
-620,619	-11,235	-0,080	0,038
-619,605	-35,517	0,029	-0,011
-618,590	800,000	-0,020	0,048
-617,576	-200,000	-0,005	0,029
-616,561	-41,287	0,020	0,008
-615,546	96,635	-0,066	-0,055
-614,532	184,779	-0,101	-0,110
-613,517	230,348	-0,126	-0,152
-612,503	27,841	0,111	0,069
-611,488	636,160	0,051	0,096
-610,474	34,551	-0,065	0,042
-609,459	-147,963	-0,130	-0,008
-608,444	205,396	-0,040	0,045
-607,430	29,528	-0,067	0,042
-606,415	-6,286	0,027	-0,014
-605,401	32,152	-0,051	0,032
-604,386	-77,285	0,057	0,014
-603,371	-62,640	0,133	0,040
-602,357	-101,157	-0,024	0,004
-601,342	-56,655	0,031	-0,010
-600,328	22,022	-0,150	-0,089
-599,313	-200,000	0,008	-0,266
-598,298	114,800	0,059	0,053
-597,284	-129,568	0,105	-0,011
-596,269	325,289	-0,014	-0,020
-595,255	-200,000	-0,011	0,078
-594,240	662,388	0,056	-0,106
-593,225	-19,157	0,080	0,036
-592,211	783,972	0,044	-0,090
-591,196	205,445	0,042	-0,048
-590,182	-26,089	0,083	-0,035
-589,167	96,348	0,068	-0,057
-588,152	-12,641	-0,047	-0,023
-587,138	-200,000	-0,015	0,083
-586,123	-2,740	-0,086	0,044
-585,109	800,000	0,021	-0,056
-584,094	131,243	-0,081	0,077
-583,079	601,551	0,051	0,092
-582,065	800,000	0,064	0,178
-581,050	-160,506	-0,114	-0,004
-580,036	-200,000	-0,050	0,199
-579,021	-200,000	0,012	-0,105
-578,006	274,192	-0,068	0,088
-576,992	-11,510	-0,046	-0,022
-575,977	89,846	0,018	0,015
-574,963	-58,306	0,142	0,045
-573,948	-130,541	0,091	-0,009
-572,934	800,000	0,020	-0,061
-571,919	800,000	0,022	-0,066
-570,904	800,000	-0,054	-0,114
-569,890	396,203	-0,069	-0,106
-568,875	39,654	0,204	0,134
-567,861	-200,000	0,011	0,069
-566,846	-200,000	-0,017	-0,060
-565,831	92,112	0,067	-0,055
-564,817	-200,000	-0,005	0,024
-563,802	-200,000	-0,005	-0,051
-562,788	615,550	-0,054	-0,099
-561,773	-32,818	-0,115	-0,046
-560,758	679,152	0,088	0,168
-559,744	83,398	-0,056	0,045
-558,729	134,853	0,053	-0,050
-557,715	8,963	-0,073	0,040
-556,700	-49,371	0,036	-0,012
-555,685	-200,000	-0,001	-0,029
-554,671	75,725	-0,139	-0,107
-553,656	13,296	-0,067	-0,038
-552,642	-200,000	-0,001	0,032
-551,627	-200,000	-0,005	-0,028
-550,612	571,870	0,101	-0,181
-549,598	66,753	-0,089	0,066
-548,583	-6,390	-0,136	-0,068
-547,569	800,000	-0,044	-0,101
-546,554	287,462	0,042	0,056
-545,539	382,376	-0,044	0,067
-544,525	-90,319	-0,149	0,031
-543,510	17,116	0,030	-0,017
-542,496	77,454	-0,032	-0,025
-541,481	767,629	0,061	-0,122
-540,466	-150,413	-0,106	-0,006
-539,452	68,527	0,031	0,023
-538,437	-95,036	-0,039	0,008
-537,423	-200,000	-0,028	-0,108
-536,408	-200,000	-0,009	-0,099
-535,393	170,605	0,066	-0,070
-534,379	-147,540	-0,092	0,006
-533,364	82,200	-0,048	-0,038
-532,350	-182,329	-0,061	0,001
-531,335	375,675	-0,052	0,077
-530,321	196,592	0,066	-0,073
-529,306	-200,000	0,011	0,111
-528,291	800,000	-0,069	-0,156
-527,277	-200,000	0,000	-0,101
-526,262	-35,226	0,073	-0,029
-525,248	-62,030	-0,145	0,044
-524,233	-126,573	0,034	-0,004
-523,218	-143,698	0,146	0,010
-522,204	270,527	-0,066	0,086
-521,189	-118,372	-0,141	-0,018
-520,175	-200,000	-0,013	0,097
-519,160	70,095	0,158	0,119
-518,145	146,681	0,062	-0,061
-517,131	-200,000	-0,003	0,097
-516,116	198,409	-0,085	0,095
-515,102	-200,000	-0,019	0,115
-514,087	22,739	0,093	-0,055
-513,072	-200,000	-0,012	-0,164
-512,058	-200,000	-0,019	0,102
-511,043	94,050	0,043	0,035
-510,029	-84,733	0,051	0,012
-509,014	-109,799	0,057	0,009
-507,999	24,255	0,054	0,032
-506,985	-200,000	0,019	0,120
-505,970	0,613	-0,141	-0,073
-504,956	-188,228	0,050	0,000
-503,941	800,000	-0,009	0,029
-502,926	53,768	-0,022	-0,015
-501,912	280,066	0,085	0,111
-500,897	-200,000	0,004	0,037
-499,883	71,616	-0,096	0,073
-498,868	-200,000	-0,009	-0,036
-497,853	-200,000	-0,011	0,051
-496,839	-200,000	0,002	-0,029
-495,824	-57,105	0,154	-0,049
-494,810	18,873	0,191	0,112
-493,795	-43,863	-0,123	-0,045
-492,781	-88,255	0,101	-0,022
-491,766	657,313	-0,074	-0,139
-490,751	800,000	0,021	-0,063
-489,737	64,899	-0,073	-0,054
-488,722	-82,088	0,073	-0,017
-487,708	-1,420	-0,052	-0,027
-486,693	-124,924	0,021	-0,002
-485,678	-59,157	0,083	0,026
-484,664	-200,000	0,006	-0,055
-483,649	291,966	-0,039	-0,052
-482,635	-72,200	0,028	0,008
-481,620	-200,000	0,003	0,036
-480,605	16,248	0,083	-0,047
-479,591	-73,391	0,071	0,019
-478,576	-200,000	0,017	-0,131
-477,562	54,440	-0,102	-0,071
-476,547	107,945	-0,056	0,049
-475,532	34,277	0,115	-0,073
-474,518	-200,000	0,013	-0,159
-473,503	-200,000	0,009	0,053
-472,489	800,000	-0,023	0,069
-471,474	62,158	0,049	0,036
-470,459	-200,000	0,003	-0,014
-469,445	800,000	-0,042	-0,102
-468,430	-127,634	-0,214	0,022
-467,416	-65,737	0,097	0,028
-466,401	-200,000	-0,008	0,054
-465,386	530,492	-0,054	0,094
-464,372	-112,878	0,029	0,004
-463,357	342,879	-0,042	0,060
-462,343	178,180	-0,043	-0,046
-461,328	127,053	-0,103	0,095
-460,313	152,148	0,091	0,091
-459,299	-52,374	0,134	0,045
-458,284	-200,000	-0,010	0,031
-457,270	-200,000	0,002	-0,099
-456,255	-200,000	-0,017	-0,084
-455,241	-200,000	-0,029	-0,109
-454,226	14,940	0,082	-0,047
-453,211	96,616	0,061	-0,051
-452,197	-200,000	-0,022	0,128
-451,182	-141,614	0,049	0,004
-450,168	-200,000	0,011	-0,120
-449,153	-51,634	-0,050	0,017
-448,138	-200,000	-0,017	0,091
-447,124	-186,019	0,036	-0,000
-446,109	482,402	-0,060	-0,099
-445,095	-115,025	0,158	-0,022
-444,080	800,000	0,034	-0,109
-443,065	208,094	-0,097	-0,111
-442,051	88,430	0,130	0,105
-441,036	47,850	0,143	0,097
-440,022	-70,670	-0,107	-0,029
-439,007	800,000	0,074	0,153
-437,992	-134,408	0,108	-0,009
-436,978	72,977	0,118	0,089
-435,963	-200,000	0,011	0,196
-434,949	-200,000	-0,006	0,060
-433,934	-31,086	-0,129	-0,053
-432,919	-69,160	-0,080	0,022
-431,905	4,860	0,096	0,051
-430,890	6,869	0,063	-0,034
-429,876	97,945	0,097	0,081
-428,861	-200,000	0,043	0,221
-427,846	-99,371	-0,120	-0,022
-426,832	-2,523	-0,151	-0,077
-425,817	466,034	-0,055	0,089
-424,803	800,000	-0,033	0,096
-423,788	-81,604	-0,075	-0,018
-422,773	34,967	0,021	0,013
-421,759	-130,726	-0,146	-0,014
-420,744	-115,761	0,023	0,003
-419,730	800,000	-0,027	-0,054
-418,715	361,722	0,028	-0,042
-417,701	800,000	-0,017	-0,035
-416,686	283,856	0,035	-0,045
-415,671	77,195	0,073	0,057
-414,657	-110,723	0,018	-0,003
-413,642	-200,000	0,015	0,000
-412,628	-49,070	-0,062	-0,021
-411,613	48,641	-0,198	-0,135
-410,598	-52,913	-0,073	0,024
-409,584	-58,289	0,104	-0,033
-408,569	800,000	0,018	0,042
-407,555	59,944	0,191	0,137
-406,540	-200,000	0,008	0,062
-405,525	800,000	-0,025	-0,070
-404,511	800,000	0,034	-0,088
-403,496	-84,238	-0,139	-0,032
-402,482	-113,360	0,038	0,005
-401,467	-200,000	-0,008	0,034
-400,452	-165,650	0,152	0,005
-399,438	-78,465	0,053	0,013
-398,423	152,550	-0,084	-0,084
-397,409	-38,087	-0,073	-0,028
-396,394	-200,000	-0,007	-0,122
-395,379	90,784	0,067	-0,055
-394,365	-113,225	-0,078	0,011
-393,350	96,898	0,118	0,099
-392,336	-6,939	-0,030	-0,015
-391,321	800,000	0,054	-0,109
-390,306	-50,761	-0,097	-0,033
-389,292	-15,831	-0,040	-0,019
-388,277	30,493	0,116	-0,072
-387,263	-197,442	0,069	-0,000
-386,248	80,509	0,032	0,025
-385,233	800,000	-0,028	-0,080
-384,219	-200,000	-0,011	0,044
-383,204	558,248	0,013	-0,023
-382,190	59,953	-0,111	-0,080
-381,175	569,817	0,009	0,017
-380,160	-156,092	-0,039	-0,002
-379,146	-54,631	0,036	0,012
-378,131	124,194	-0,101	-0,092
-377,117	-200,000	0,012	0,043
-376,102	-200,000	0,001	0,081
-375,088	62,756	-0,014	0,010
-374,073	-164,118	0,028	0,001
-373,058	-101,412	-0,030	0,005
-372,044	58,903	-0,086	0,061
-371,029	76,535	-0,046	-0,036
-370,015	-200,000	-0,013	0,056
-369,000	713,009	0,034	-0,065
-367,985	800,000	0,038	0,115
-366,971	239,253	0,023	-0,028
-365,956	-5,128	0,122	-0,061
-364,942	566,116	0,004	-0,007
-363,927	-200,000	-0,015	0,090
-362,912	296,112	0,066	-0,089
-361,898	-129,711	-0,096	0,009
-360,883	-37,606	-0,118	0,045
-359,869	-200,000	-0,029	-0,175
-358,854	-200,000	0,036	0,220
-357,839	-200,000	-0,020	0,076
-356,825	-70,049	0,131	-0,036
-355,810	49,755	-0,143	0,097
-354,796	-200,000	-0,015	0,063
-353,781	-149,699	0,007	0,000
-352,766	377,795	0,049	-0,073
-351,752	64,199	0,062	0,046
-350,737	-66,808	0,170	-0,049
-349,723	286,254	-0,049	-0,064
-348,708	-57,501	-0,161	0,051
-347,693	-117,822	-0,072	-0,009
-346,679	220,828	0,055	0,064
-345,664	-122,180	-0,069	0,008
-344,650	-200,000	-0,044	-0,141
-343,635	-122,978	0,142	0,016
-342,620	321,232	-0,136	0,188
-341,606	402,698	0,030	0,046
-340,591	127,035	-0,055	-0,051
-339,577	14,688	-0,085	-0,048
-338,562	-82,583	-0,071	0,017
-337,548	379,455	0,029	-0,043
-336,533	36,308	0,053	0,034
-335,518	106,421	0,064	0,055
-334,504	83,761	0,038	0,030
-333,489	-200,000	-0,008	-0,102
-332,475	275,078	-0,022	-0,028
-331,460	-111,531	-0,066	-0,010
-330,445	697,567	0,048	-0,092
-329,431	-200,000	-0,004	0,120
-328,416	147,255	-0,099	0,097
-327,402	155,799	0,152	0,152
-326,387	360,282	-0,074	-0,107
-325,372	137,416	0,094	0,089
-324,358	-200,000	0,004	0,132
-323,343	466,567	0,017	0,027
-322,329	-200,000	0,060	0,201
-321,314	3,424	-0,060	-0,032
-320,299	618,433	0,079	0,144
-319,285	-200,000	-0,018	0,126
-318,270	-24,199	0,064	-0,028
-317,256	102,695	-0,076	0,064
-316,241	-200,000	0,001	-0,218
-315,226	213,507	0,114	-0,131
-314,212	-200,000	0,037	0,000
-313,197	422,298	-0,045	0,071
-312,183	728,826	0,043	0,084
-311,168	102,228	-0,059	0,050
-310,153	3,090	-0,066	0,035
-309,139	173,414	0,058	0,061
-308,124	-82,155	-0,106	-0,025
-307,110	-60,292	0,121	-0,037
-306,095	605,341	0,037	0,067
-305,080	-200,000	-0,004	0,031
-304,066	410,725	-0,089	-0,137
-303,051	745,152	0,045	-0,087
-302,037	-148,365	-0,102	0,006
-301,022	-25,251	0,054	-0,023
-300,008	-200,000	-0,014	0,103
-298,993	-200,000	-0,024	0,168
-297,978	-200,000	-0,028	0,122
-296,964	295,971	0,049	-0,066
-295,949	-24,218	0,069	0,030
-294,935	15,695	0,009	0,005
-293,920	-154,495	0,059	0,003
-292,905	-152,189	-0,099	0,005
-291,891	-200,000	-0,031	0,108
-290,876	-5,615	0,120	0,059
-289,862	308,798	0,020	0,027
-288,847	800,000	-0,039	-0,092
-287,832	218,320	-0,099	-0,115
-286,818	-200,000	-0,012	-0,178
-285,803	189,901	-0,059	0,064
-284,789	-106,956	0,103	0,016
-283,774	-116,943	-0,088	0,011
-282,759	327,029	-0,041	-0,057
-281,745	135,413	-0,102	-0,096
-280,730	304,913	-0,054	0,073
-279,716	-200,000	-0,022	-0,181
-278,701	12,197	-0,029	0,016
-277,686	-116,080	0,128	0,017
-276,672	236,296	-0,050	-0,060
-275,657	53,990	0,051	0,036
-274,643	-200,000	0,009	-0,161
-273,628	-125,102	-0,037	-0,004
-272,613	81,707	-0,032	0,025
-271,599	27,337	-0,052	0,032
-270,584	72,000	0,011	-0,008
-269,570	-200,000	-0,025	0,091
-268,555	100,063	0,098	0,082
-267,540	318,391	-0,073	0,101
-266,526	149,605	0,029	0,028
-265,511	-200,000	0,006	-0,126
-264,497	-200,000	-0,001	-0,008
-263,482	-15,071	0,104	-0,048
-262,467	300,863	0,026	-0,035
-261,453	-200,000	0,018	0,069
-260,438	469,603	-0,055	-0,090
-259,424	-200,000	-0,038	-0,128
-258,409	-200,000	-0,002	-0,151
-257,395	133,130	-0,119	0,112
-256,380	-18,478	0,090	0,040
-255,365	156,694	0,027	0,027
-254,351	-200,000	0,012	0,137
-253,336	-200,000	-0,003	-0,038
-252,322	-67,377	-0,141	-0,040
-251,307	-200,000	0,025	-0,142
-250,292	159,951	-0,096	-0,097
-249,278	-162,604	0,189	0,007
-248,263	110,792	0,139	0,120
-247,249	537,536	0,057	0,098
-246,234	132,464	-0,127	0,118
-245,219	-200,000	0,001	-0,027
-244,205	-111,588	-0,061	0,009
-243,190	-200,000	-0,002	-0,071
-242,176	-146,349	0,167	-0,010
-241,161	-200,000	0,049	-0,164
-240,146	-91,410	0,022	-0,004
-239,132	31,830	-0,082	-0,051
-238,117	-200,000	-0,020	-0,067
-237,103	296,673	0,044	-0,059
-236,088	800,000	0,052	0,146
-235,073	220,543	0,059	0,069
-234,059	-200,000	0,018	-0,067
-233,044	-115,675	0,191	0,026
-232,030	-88,295	-0,095	-0,020
-231,015	-200,000	-0,004	-0,105
-230,000	-200,000	0,005	-0,048
-228,986	-73,160	0,064	0,017
-227,971	-119,361	0,142	-0,018
-226,957	-200,000	0,000	0,095
-225,942	264,027	-0,040	-0,050
-224,927	-84,867	0,050	-0,011
-223,913	168,559	0,028	-0,029
-222,898	800,000	-0,088	-0,220
-221,884	-54,219	0,081	-0,026
-220,869	-111,707	0,178	0,026
-219,855	800,000	0,060	0,150
-218,840	-200,000	-0,002	0,113
-217,825	800,000	-0,071	0,168
-216,811	476,686	0,032	-0,052
-215,796	800,000	-0,023	-0,074
-214,782	110,093	-0,027	0,023
-213,767	800,000	-0,005	0,014
-212,752	6,326	0,147	-0,079
-211,738	2,566	0,046	-0,024
-210,723	-24,613	-0,141	-0,060
-209,709	-92,202	0,032	0,007
-208,694	115,722	0,100	0,088
-207,679	800,000	-0,061	-0,161
-206,665	-200,000	0,039	-0,160
-205,650	566,894	0,019	-0,033
-204,636	-200,000	-0,005	0,106
-203,621	164,301	-0,074	0,075
-202,606	253,071	-0,024	-0,029
-201,592	800,000	0,023	-0,065
-200,577	101,032	0,063	-0,053
-199,563	61,757	-0,081	0,058
-198,548	-200,000	-0,012	-0,062
-197,533	-53,034	-0,050	-0,016
-196,519	-59,370	-0,153	0,047
-195,504	-58,217	0,089	-0,028
-194,490	-200,000	0,038	-0,202
-193,475	165,393	-0,049	-0,050
-192,460	101,045	-0,089	-0,075
-191,446	-85,721	-0,186	-0,041
-190,431	800,000	0,031	0,086
-189,417	-107,113	0,076	0,012
-188,402	-170,173	-0,142	-0,004
-187,387	270,171	-0,014	-0,017
-186,373	-47,458	-0,086	-0,030
-185,358	-24,137	0,135	0,058
-184,344	16,819	0,243	0,139
-183,329	-63,109	0,056	0,017
-182,315	-200,000	-0,005	0,103
-181,300	58,152	-0,049	0,035
-180,285	-200,000	-0,006	0,059
-179,271	-168,353	-0,141	0,004
-178,256	-59,964	0,120	0,037
-177,242	-200,000	0,006	-0,024
-176,227	800,000	-0,039	0,091
-175,212	-132,929	0,059	-0,005
-174,198	35,094	-0,090	-0,056
-173,183	739,173	-0,040	-0,079
-172,169	-200,000	0,049	-0,198
-171,154	-200,000	-0,015	-0,153
-170,139	67,232	0,076	-0,056
-169,125	424,521	-0,070	-0,109
-168,110	-163,216	0,118	0,004
-167,096	800,000	-0,046	0,102
-166,081	42,533	-0,073	-0,048
-165,066	115,992	0,167	-0,147
-164,052	-200,000	0,003	-0,128
-163,037	-102,244	-0,051	-0,009
-162,023	204,560	0,008	-0,009
-161,008	476,231	-0,117	0,190
-159,993	-108,784	-0,104	0,016
-158,979	-30,725	0,023	-0,009
-157,964	43,534	0,071	0,047
-156,950	43,286	0,072	-0,047
-155,935	249,162	0,048	-0,059
-154,920	321,005	0,053	0,073
-153,906	394,782	0,039	0,059
-152,891	-5,049	-0,121	-0,060
-151,877	-200,000	0,003	-0,080
-150,862	6,503	-0,164	-0,087
-149,847	228,970	-0,028	0,033
-148,833	-200,000	0,020	-0,076
-147,818	171,064	0,047	-0,048
-146,804	100,763	0,133	0,111
-145,789	349,744	-0,035	-0,051
-144,775	-200,000	0,060	0,200
-143,760	-18,341	0,015	0,007
-142,745	-85,914	0,103	0,023
-141,731	89,265	-0,042	-0,034
-140,716	263,878	0,051	0,064
-139,702	437,183	0,057	-0,089
-138,687	-121,226	-0,027	0,003
-137,672	99,097	-0,057	-0,047
-136,658	88,308	0,111	0,089
-135,643	800,000	0,031	0,074
-134,629	142,933	0,036	-0,034
-133,614	-46,889	0,092	0,032
-132,599	153,043	-0,048	0,048
-131,585	-64,387	0,091	-0,027
-130,570	-200,000	-0,007	0,109
-129,556	-31,199	-0,058	-0,023
-128,541	-181,949	-0,069	0,001
-127,526	548,440	-0,044	-0,077
-126,512	-16,877	0,045	0,021
-125,497	-80,884	0,107	0,025
-124,483	-91,749	-0,091	0,019
-123,468	-30,307	0,083	-0,034
-122,453	18,015	-0,073	-0,042
-121,439	-100,420	-0,130	-0,023
-120,424	-200,000	0,001	0,027
-119,410	-200,000	0,008	-0,071
-118,395	-49,099	-0,206	0,070
-117,380	-200,000	0,035	0,164
-116,366	-65,077	-0,167	0,048
-115,351	800,000	0,005	-0,014
-114,337	-200,000	0,004	-0,018
-113,322	-15,701	-0,116	-0,053
-112,307	10,968	0,038	-0,021
-111,293	96,667	0,112	0,092
-110,278	693,639	-0,026	0,049
-109,264	189,432	0,091	0,099
-108,249	800,000	0,040	-0,122
-107,234	-200,000	0,012	-0,095
-106,220	150,275	0,092	-0,090
-105,205	-60,721	0,120	0,036
-104,191	120,148	0,134	0,120
-103,176	387,559	0,002	-0,003
-102,162	-97,887	-0,110	0,020
-101,147	-187,858	-0,187	-0,002
-100,132	800,000	0,011	-0,028
-99,118	-200,000	0,004	-0,161
-98,103	559,643	-0,047	-0,082
-97,089	114,096	-0,118	0,103
-96,074	-200,000	0,004	0,108
-95,059	92,691	-0,117	0,095
-94,045	28,305	0,131	-0,079
-93,030	-91,936	-0,039	-0,008
-92,016	-165,712	0,083	0,003
-91,001	-137,207	-0,065	0,005
-89,986	71,510	0,092	-0,069
-88,972	20,619	-0,055	-0,032
-87,957	800,000	0,027	0,083
-86,943	182,453	0,118	0,125
-85,928	-40,296	-0,118	0,044
-84,913	-200,000	0,001	-0,022
-83,899	-72,674	-0,085	0,022
-82,884	170,769	0,041	-0,043
-81,870	800,000	-0,031	-0,083
-80,855	-29,204	0,110	-0,045
-79,840	-200,000	0,006	0,065
-78,826	263,731	-0,032	0,041
-77,811	-56,170	0,078	0,025
-76,797	800,000	-0,049	-0,138
-75,782	800,000	0,026	-0,068
-74,767	800,000	-0,052	-0,140
-73,753	-112,103	0,081	0,012
-72,738	80,254	-0,036	-0,028
-71,724	-200,000	0,025	-0,159
-70,709	711,640	-0,061	-0,117
-69,694	-200,000	-0,037	0,148
-68,680	-15,494	0,060	0,027
-67,665	-77,203	-0,059	0,015
-66,651	-200,000	-0,004	-0,029
-65,636	320,279	0,065	0,089
-64,622	57,083	0,051	-0,036
-63,607	-200,000	0,004	-0,029
-62,592	403,845	-0,039	0,059
-61,578	-200,000	0,006	0,103
-60,563	-200,000	-0,002	-0,024
-59,549	105,732	0,021	-0,018
-58,534	9,327	-2,077	-1,124
-57,519	-200,000	-0,064	-0,761
-56,505	-200,000	-1,316	-4,942
-55,490	201,914	0,841	0,931
-54,476	800,000	5,026	11,573
-53,461	-200,000	17,887	289,944
-52,446	800,000	728,267	2223,508
-51,432	532,152	1640,566	2795,460
-50,417	108,638	1629,504	1395,934
-49,403	72,574	1283,012	958,934
-48,388	31,160	1025,669	629,806
-47,373	19,891	987,697	569,391
-46,359	18,162	975,818	556,863
-45,344	15,372	971,942	545,512
-44,330	15,604	970,374	545,369
-43,315	15,161	968,655	542,936
-42,300	15,020	967,580	541,855
-41,286	15,010	966,602	541,252
-40,271	15,092	965,516	540,888
-39,257	15,071	964,859	540,433
-38,242	15,092	963,843	539,908
-37,227	15,080	962,863	539,298
-36,213	15,103	962,165	538,960
-35,198	15,053	961,304	538,298
-34,184	15,069	960,610	537,938
-33,169	15,059	959,690	537,369
-32,154	15,140	958,672	537,038
-31,140	15,121	957,755	536,443
-30,125	15,121	956,886	535,934
-29,111	15,084	956,114	535,363
-28,096	15,095	955,692	535,139
-27,082	15,074	955,004	534,666
-26,067	15,085	954,122	534,185
-25,052	15,133	953,265	533,840
-24,038	15,107	952,635	533,382
-23,023	15,066	952,059	532,908
-22,009	15,115	951,397	532,670
-20,994	15,074	950,801	532,187
-19,979	15,081	950,198	531,849
-18,965	15,080	949,625	531,503
-17,950	15,087	948,990	531,149
-16,936	15,098	948,300	530,780
-15,921	15,051	947,585	530,206
-14,906	14,962	946,956	529,551
-13,892	15,003	946,189	529,230
-12,877	14,971	945,663	528,816
-11,863	14,972	944,996	528,424
-10,848	14,948	944,402	527,996
-9,833	15,044	944,029	528,071
-8,819	15,047	943,499	527,762
-7,804	14,985	942,769	527,135
-6,790	14,947	942,393	526,784
-5,775	15,041	941,541	526,584
-4,760	14,997	941,033	526,139
-3,746	15,003	940,284	525,720
-2,731	14,850	939,539	524,801
-1,717	14,834	938,936	524,393
-0,702	14,821	938,386	524,023
0,313	14,688	937,580	523,944
1,327	18,212	935,520	533,826
2,342	27,607	788,978	474,916
3,356	24,048	444,105	262,040
4,371	-5,769	295,211	144,420
5,386	-9,575	276,924	131,859
6,400	-10,828	271,342	128,026
7,415	-11,104	268,994	126,652
8,429	-11,153	267,676	125,976
9,444	-11,089	266,668	125,549
10,459	-11,199	266,008	125,127
11,473	-11,313	265,611	124,825
12,488	-11,218	265,000	124,613
13,502	-11,563	264,394	124,005
14,517	-11,438	264,000	123,922
15,531	-11,372	263,521	123,746
16,546	-11,236	263,154	123,685
17,561	-11,297	262,801	123,453
18,575	-11,344	262,587	123,300
19,590	-11,441	262,213	123,026
20,604	-11,193	261,759	123,024
21,619	-11,381	261,512	122,729
22,634	-11,377	261,114	122,534
23,648	-11,265	260,865	122,506
24,663	-11,360	260,604	122,289
25,677	-11,244	260,353	122,263
26,692	-11,309	260,061	122,057
27,707	-11,507	259,909	121,799
28,721	-11,640	259,562	121,507
29,736	-11,420	259,337	121,587
30,750	-11,549	259,018	121,312
31,765	-11,593	258,812	121,166
32,780	-11,582	258,529	121,032
33,794	-11,546	258,378	120,983
34,809	-11,575	258,102	120,817
35,823	-11,654	257,959	120,670
36,838	-11,410	257,534	120,675
37,853	-11,488	257,265	120,469
38,867	-11,492	257,107	120,381
39,882	-11,557	257,020	120,272
40,896	-11,620	256,673	120,045
41,911	-11,436	256,275	120,008
42,926	-11,441	256,090	119,907
43,940	-11,639	255,969	119,666
44,955	-11,600	255,800	119,611
45,969	-11,737	255,401	119,294
46,984	-12,035	255,237	118,947
47,999	-11,993	254,974	118,851
49,013	-12,075	254,595	118,592
50,028	-12,119	254,409	118,457
51,042	-12,309	254,239	118,202
52,057	-12,370	253,858	117,962
53,071	-12,397	253,686	117,848
54,086	-12,184	253,620	117,991
55,101	-11,996	253,385	118,034
56,115	-11,737	253,242	118,180
57,130	-11,402	253,216	118,446
58,144	-11,359	253,082	118,410
59,159	-11,259	252,823	118,364
60,174	-11,310	252,575	118,195
61,188	-11,282	252,342	118,099
62,203	-11,176	252,126	118,078
63,217	-11,531	252,147	117,772
64,232	-11,503	251,842	117,643
65,247	-11,263	251,535	117,695
66,261	-11,184	251,273	117,630
67,276	-11,600	251,011	117,142
68,290	-11,718	250,746	116,907
69,305	-11,992	250,585	116,586
70,320	-11,858	250,411	116,610
71,334	-11,615	250,220	116,718
72,349	-11,213	250,128	117,007
73,363	-11,289	249,910	116,829
74,378	-11,319	249,743	116,715
75,393	-11,353	249,557	116,590
76,407	-11,534	249,364	116,335
77,422	-11,357	248,915	116,265
78,436	-11,649	249,026	116,059
79,451	-11,647	248,654	115,877
80,466	-11,501	248,441	115,891
81,480	-11,741	248,139	115,537
82,495	-11,667	247,801	115,432
83,509	-11,486	247,678	115,517
84,524	-11,817	247,570	115,178
85,539	-11,840	247,363	115,051
86,553	-11,972	247,183	114,847
87,568	-11,834	246,974	114,856
88,582	-11,715	246,675	114,806
89,597	-11,582	246,414	114,785
90,611	-11,564	246,368	114,768
91,626	-11,517	246,367	114,798
92,641	-11,591	246,149	114,624
93,655	-11,454	245,886	114,605
94,670	-11,617	245,660	114,354
95,684	-11,689	245,448	114,185
96,699	-11,622	245,390	114,203
97,714	-11,797	245,242	113,979
98,728	-11,767	244,859	113,816
99,743	-11,795	244,619	113,670
100,757	-11,842	244,355	113,499
101,772	-11,894	244,248	113,396
102,787	-11,728	244,070	113,441
103,801	-11,879	243,936	113,243
104,816	-11,666	243,859	113,373
105,830	-11,518	243,699	113,412
106,845	-11,463	243,514	113,361
107,860	-11,387	243,267	113,298
108,874	-11,677	243,085	112,965
109,889	-11,817	242,948	112,776
110,903	-11,727	242,599	112,677
111,918	-11,650	242,320	112,601
112,933	-11,712	242,394	112,575
113,947	-11,621	242,097	112,501
114,962	-11,581	241,971	112,465
115,976	-11,401	241,736	112,493
116,991	-11,621	241,742	112,306
118,006	-11,659	241,546	112,174
119,020	-11,537	241,276	112,138
120,035	-11,584	241,419	112,156
121,049	-11,405	241,098	112,143
122,064	-11,560	240,912	111,920
123,079	-11,575	240,646	111,775
124,093	-11,738	240,513	111,570
125,108	-11,705	240,153	111,420
126,122	-12,049	239,920	111,022
127,137	-11,965	239,851	111,049
128,151	-12,144	239,589	110,772
129,166	-11,942	239,492	110,882
130,181	-11,869	239,206	110,798
131,195	-11,817	239,017	110,743
132,210	-11,567	238,726	110,800
133,224	-11,549	238,654	110,771
134,239	-11,452	238,550	110,792
135,254	-11,530	238,441	110,668
136,268	-11,727	238,054	110,320
137,283	-11,779	237,840	110,169
138,297	-12,101	237,851	109,905
139,312	-11,953	237,565	109,882
140,327	-11,713	237,353	109,967
141,341	-11,351	237,441	110,289
142,356	-11,114	237,212	110,362
143,370	-11,045	237,078	110,346
144,385	-11,097	236,950	110,235
145,400	-11,182	236,822	110,098
146,414	-11,208	236,489	109,912
147,429	-11,307	236,419	109,791
148,443	-11,162	236,219	109,803
149,458	-11,191	236,033	109,684
150,473	-11,026	235,957	109,771
151,487	-11,333	235,581	109,342
152,502	-11,439	235,623	109,267
153,516	-11,416	235,506	109,221
154,531	-11,085	235,030	109,253
155,546	-11,259	235,006	109,095
156,560	-11,174	234,671	108,997
157,575	-11,465	234,523	108,688
158,589	-11,495	234,446	108,618
159,604	-11,182	234,295	108,787
160,619	-11,005	234,148	108,848
161,633	-11,109	234,063	108,717
162,648	-11,197	233,966	108,593
163,662	-11,252	233,738	108,434
164,677	-11,333	233,525	108,261
165,692	-11,173	233,416	108,327
166,706	-11,092	233,390	108,370
167,721	-10,895	233,087	108,374
168,735	-10,929	233,006	108,300
169,750	-11,109	232,870	108,086
170,764	-11,144	232,740	107,988
171,779	-10,945	232,635	108,086
172,794	-11,247	232,555	107,803
173,808	-11,166	232,116	107,652
174,823	-11,651	231,719	107,080
175,837	-11,840	231,607	106,871
176,852	-11,345	231,716	107,299
177,867	-11,376	231,581	107,202
178,881	-11,097	231,343	107,300
179,896	-11,064	231,217	107,258
180,910	-11,133	231,171	107,173
181,925	-11,035	230,821	107,078
182,940	-11,113	230,655	106,930
183,954	-11,117	230,620	106,902
184,969	-10,987	230,515	106,945
185,983	-11,064	230,451	106,846
186,998	-10,973	230,289	106,832
188,013	-10,897	230,105	106,795
189,027	-10,874	229,951	106,732
190,042	-11,059	229,687	106,457
191,056	-11,116	229,612	106,368
192,071	-10,996	229,390	106,349
193,086	-11,111	229,177	106,152
194,100	-10,986	229,063	106,186
195,115	-11,411	228,662	105,663
196,129	-11,674	228,553	105,401
197,144	-6,191	230,498	110,539
198,159	-0,316	232,033	115,837
199,173	2,560	233,038	118,571
200,188	3,230	232,904	119,013
201,202	3,194	232,882	118,963
202,217	3,384	232,788	119,052
203,232	3,608	232,644	119,141
204,246	3,646	232,508	119,091
205,261	3,764	232,346	119,088
206,275	3,812	232,288	119,085
207,290	3,935	232,020	119,033
208,304	3,580	232,098	118,787
209,319	3,812	231,740	118,772
210,334	3,590	231,678	118,559
211,348	3,403	231,271	118,196
212,363	3,286	231,039	117,976
213,377	2,977	230,906	117,660
214,392	3,120	230,655	117,631
215,407	3,078	230,570	117,546
216,421	3,178	230,439	117,545
217,436	2,942	230,221	117,242
218,450	2,968	229,994	117,136
219,465	2,854	229,947	117,014
220,480	2,927	229,781	116,976
221,494	2,912	229,570	116,846
222,509	2,906	229,585	116,839
223,523	3,184	229,413	116,954
224,538	3,038	229,196	116,721
225,553	3,187	228,969	116,708
226,567	2,965	228,973	116,531
227,582	3,138	228,898	116,614
228,596	3,395	228,808	116,753
229,611	3,159	228,517	116,415
230,626	2,758	228,246	115,962
231,640	2,920	228,104	116,002
232,655	3,100	228,200	116,178
233,669	3,560	227,993	116,411
234,684	3,730	228,010	116,538
235,699	3,487	227,633	116,151
236,713	3,187	227,477	115,834
237,728	3,131	227,235	115,658
238,742	2,986	227,027	115,432
239,757	2,946	227,059	115,408
240,772	2,997	226,841	115,325
241,786	2,941	226,652	115,177
242,801	3,130	226,626	115,296
243,815	3,386	226,604	115,467
244,830	3,255	226,399	115,254
245,844	3,299	226,146	115,148
246,859	2,973	225,931	114,783
247,874	3,391	225,739	114,989
248,888	3,310	225,704	114,900
249,903	3,090	225,542	114,643
250,917	2,991	225,455	114,514
251,932	3,206	225,242	114,556
252,947	3,135	225,084	114,413
253,961	3,017	224,838	114,189
254,976	2,956	224,835	114,132
255,990	3,307	224,791	114,362
257,005	3,278	224,551	114,208
258,020	3,239	224,557	114,172
259,034	3,319	224,325	114,103
260,049	3,523	224,104	114,133
261,063	3,140	224,063	113,816
262,078	3,336	223,831	113,834
263,093	3,561	223,757	113,954
264,107	3,184	223,598	113,583
265,122	3,086	223,427	113,413
266,136	3,303	223,380	113,540
267,151	3,686	223,178	113,711
268,166	3,335	222,935	113,317
269,180	3,134	222,558	112,967
270,195	2,688	222,547	112,621
271,209	3,018	222,502	112,833
272,224	3,337	222,165	112,886
273,239	3,076	222,216	112,711
274,253	3,132	222,078	112,671
275,268	2,917	221,855	112,390
276,282	2,847	221,854	112,328
277,297	2,768	221,449	112,055
278,312	2,846	221,450	112,103
279,326	2,868	221,313	112,040
280,341	2,932	221,253	112,046
281,355	3,133	221,068	112,090
282,370	2,860	220,986	111,839
283,384	2,755	220,674	111,594
284,399	2,787	220,601	111,570
285,414	2,697	220,543	111,464
286,428	3,235	220,374	111,762
287,443	3,119	220,209	111,584
288,457	3,225	220,017	111,554
289,472	3,162	219,819	111,398
290,487	2,484	219,628	110,798
291,501	2,780	219,499	110,938
292,516	2,655	219,494	110,835
293,530	2,909	219,289	110,906
294,545	3,076	219,018	110,880
295,560	3,205	219,006	110,957
296,574	3,143	218,953	110,876
297,589	2,963	218,828	110,672
298,603	3,203	218,632	110,737
299,618	3,063	218,565	110,592
300,633	3,055	218,400	110,493
301,647	3,488	218,292	110,741
302,662	3,355	218,235	110,606
303,676	3,200	218,072	110,402
304,691	3,200	217,877	110,293
305,706	3,223	217,755	110,239
306,720	3,170	217,688	110,156
307,735	3,116	217,310	109,917
308,749	2,993	217,265	109,796
309,764	3,248	217,146	109,909
310,779	3,526	217,089	110,070
311,793	3,124	216,862	109,657
312,808	3,332	216,838	109,784
313,822	3,096	216,716	109,543
314,837	3,171	216,502	109,479
315,852	2,815	216,225	109,075
316,866	2,864	216,085	109,030
317,881	3,434	215,959	109,363
318,895	3,146	215,925	109,130
319,910	2,908	215,707	108,841
320,925	2,791	215,436	108,611
321,939	2,620	215,346	108,434
322,954	2,689	215,274	108,438
323,968	3,197	215,219	108,761
324,983	3,115	215,177	108,672
325,997	3,293	215,030	108,715
327,012	3,227	214,897	108,591
328,027	3,043	214,816	108,410
329,041	3,411	214,688	108,596
330,056	3,546	214,507	108,591
331,070	2,973	214,185	108,013
332,085	2,625	214,139	107,734
333,100	2,824	213,929	107,759
334,114	3,123	213,794	107,893
335,129	3,185	213,687	107,873
336,143	2,953	213,582	107,647
337,158	3,035	213,508	107,658
338,173	3,196	213,272	107,642
339,187	3,056	213,003	107,398
340,202	2,776	212,839	107,109
341,216	2,827	212,727	107,080
342,231	3,006	212,825	107,245
343,246	2,958	212,656	107,116
344,260	2,857	212,515	106,965
345,275	2,825	212,385	106,868
346,289	3,247	212,262	107,092
347,304	3,152	212,125	106,946
348,319	3,197	211,924	106,867
349,333	3,023	211,844	106,695
350,348	3,469	211,838	106,995
351,362	3,254	211,599	106,715
352,377	3,286	211,383	106,618
353,392	3,157	211,279	106,467
354,406	3,336	211,158	106,521
355,421	194,804	1339,711	1414,572
356,435	155,575	1477,180	1414,548
