DTS Sentinel unit serial number:	SN410029Multiplexer serial number:	ORYXHardware model number:	OX2-SRSoftware version number:	ORYX F/W v4,00 Oryx Data Collector v3.7.2.0data status	okinstallation	B6 Nyhavnadifferential loss correction	single-endedforward channel	channel 2reverse channel	N/Adate	2023/12/07time	23:45:08forward acquisition time	300,00reverse acquisition time	0,00gamma	499,1914k internal	0,3165k external	0,3165temperature offset calibration	1,0000default loss term (dB/km)	0,3820temperature slope calibration	1,0000multiplexer offset coefficient	1,0000multiplexer slope coefficient	1,0000fibre end	0,00T internal ref (°C)	13,42T ext. ref 1 (°C)	-3,50T ext. ref 2 (°C)	-3,49length (m)	temperature (°C)	Stokes	anti-Stokes-744,400	-125,873	0,182	0,020
-743,385	-112,641	-0,095	-0,014
-742,371	93,666	0,198	0,165
-741,356	-74,140	-0,354	0,094
-740,342	-5,510	0,047	-0,024
-739,327	-196,846	-0,244	0,001
-738,312	-80,553	0,115	-0,028
-737,298	-100,942	-0,270	0,048
-736,283	592,208	0,085	-0,156
-735,269	-127,648	-0,391	0,041
-734,254	-200,000	0,003	0,043
-733,239	-19,376	-0,458	-0,208
-732,225	142,487	0,130	0,127
-731,210	-62,379	0,062	0,019
-730,196	-159,344	-0,113	-0,005
-729,181	9,420	-0,062	-0,034
-728,167	137,235	0,024	-0,023
-727,152	-157,090	-0,067	-0,003
-726,137	-106,549	-0,087	-0,014
-725,123	800,000	-0,034	-0,084
-724,108	-32,532	-0,024	0,010
-723,094	86,837	-0,027	0,022
-722,079	-176,163	-0,172	-0,003
-721,064	-170,982	0,064	-0,002
-720,050	576,767	-0,035	0,063
-719,035	-28,774	-0,030	0,013
-718,021	-200,000	0,013	-0,178
-717,006	446,258	-0,040	0,064
-715,991	-200,000	-0,006	-0,032
-714,977	-200,000	0,032	-0,109
-713,962	-10,218	-0,068	0,033
-712,948	-83,441	0,038	0,009
-711,933	-19,455	0,089	-0,040
-710,918	63,272	0,109	-0,080
-709,904	-53,129	-0,185	0,062
-708,889	-200,000	0,016	-0,078
-707,875	115,296	0,060	-0,054
-706,860	23,806	0,064	-0,038
-705,845	50,236	-0,123	-0,086
-704,831	382,515	-0,106	0,161
-703,816	14,581	-0,103	0,059
-702,802	-200,000	-0,004	0,112
-701,787	-200,000	-0,017	-0,184
-700,772	-6,453	0,067	-0,034
-699,758	139,719	-0,008	-0,007
-698,743	800,000	0,022	-0,048
-697,729	98,529	-0,048	-0,041
-696,714	800,000	0,032	-0,074
-695,699	-200,000	-0,004	-0,100
-694,685	-200,000	0,031	-0,185
-693,670	696,094	-0,092	-0,178
-692,656	-177,495	0,193	-0,003
-691,641	297,604	0,045	0,061
-690,627	-78,338	0,014	0,004
-689,612	31,090	-0,121	0,076
-688,597	-75,468	-0,115	-0,030
-687,583	473,009	-0,025	-0,041
-686,568	68,554	-0,068	0,051
-685,554	292,439	-0,145	-0,195
-684,539	81,628	0,094	0,075
-683,524	255,552	0,075	-0,095
-682,510	46,162	-0,102	-0,069
-681,495	-160,159	-0,072	0,003
-680,481	800,000	0,008	0,022
-679,466	749,194	0,029	-0,057
-678,451	-200,000	0,023	-0,122
-677,437	85,816	0,131	0,106
-676,422	-200,000	-0,029	0,118
-675,408	-130,713	-0,089	0,009
-674,393	-200,000	0,003	0,090
-673,378	-200,000	0,003	-0,145
-672,364	-41,021	-0,072	-0,027
-671,349	-200,000	0,003	-0,065
-670,335	-37,846	-0,088	-0,034
-669,320	636,676	0,021	0,040
-668,305	-200,000	-0,001	0,064
-667,291	82,879	0,049	0,039
-666,276	218,417	-0,072	0,084
-665,262	722,538	-0,047	-0,091
-664,247	-0,649	-0,144	-0,075
-663,232	237,300	-0,027	-0,033
-662,218	15,405	0,089	-0,051
-661,203	267,433	-0,041	-0,053
-660,189	-179,858	0,060	0,001
-659,174	-5,940	-0,067	-0,034
-658,159	564,742	0,097	-0,173
-657,145	24,581	-0,127	-0,077
-656,130	406,377	0,007	0,010
-655,116	-200,000	-0,017	0,080
-654,101	-200,000	0,005	-0,040
-653,086	-200,000	-0,001	-0,107
-652,072	395,678	-0,037	-0,057
-651,057	535,066	0,098	-0,172
-650,043	15,321	-0,105	0,060
-649,028	-53,697	-0,065	-0,022
-648,014	-192,643	0,057	-0,000
-646,999	-18,664	-0,061	-0,028
-645,984	-26,661	-0,092	0,039
-644,970	-151,577	-0,144	-0,008
-643,955	157,280	0,032	0,032
-642,941	-62,207	-0,123	-0,037
-641,926	173,335	-0,065	-0,069
-640,911	110,068	-0,116	0,102
-639,897	-200,000	-0,011	-0,083
-638,882	447,242	0,034	-0,054
-637,868	50,959	0,065	0,045
-636,853	668,482	-0,059	-0,112
-635,838	800,000	-0,052	-0,154
-634,824	-200,000	0,008	-0,069
-633,809	4,486	0,048	-0,026
-632,795	123,044	0,060	0,055
-631,780	-117,015	-0,127	0,017
-630,765	265,107	0,075	-0,096
-629,751	14,965	-0,125	0,072
-628,736	172,913	0,016	0,017
-627,722	-200,000	0,000	0,044
-626,707	90,707	-0,066	0,054
-625,692	78,211	0,089	0,069
-624,678	-67,078	0,051	-0,015
-623,663	800,000	-0,031	-0,081
-622,649	-76,020	0,155	0,040
-621,634	544,376	-0,033	-0,057
-620,619	-4,420	0,056	-0,028
-619,605	800,000	-0,041	-0,114
-618,590	-153,927	-0,066	-0,003
-617,576	-200,000	0,026	0,096
-616,561	-91,290	0,101	0,021
-615,546	426,217	0,050	0,079
-614,532	102,733	-0,044	0,038
-613,517	65,911	0,072	-0,053
-612,503	74,365	0,091	-0,070
-611,488	800,000	0,024	0,056
-610,474	-106,448	0,190	-0,031
-609,459	-200,000	0,023	-0,111
-608,444	800,000	-0,021	0,046
-607,430	800,000	-0,019	-0,044
-606,415	767,144	0,021	-0,042
-605,401	199,359	-0,078	0,087
-604,386	6,800	0,121	-0,066
-603,371	52,037	-0,081	0,057
-602,357	135,771	0,038	0,037
-601,342	-83,167	-0,035	0,008
-600,328	800,000	0,007	0,019
-599,313	350,052	0,067	-0,096
-598,298	52,268	0,111	0,078
-597,284	-100,489	-0,032	0,006
-596,269	800,000	-0,036	0,093
-595,255	-72,092	-0,106	0,029
-594,240	-200,000	0,007	0,068
-593,225	-56,422	-0,082	-0,027
-592,211	68,200	-0,066	-0,049
-591,196	576,700	0,079	-0,142
-590,182	759,192	-0,022	0,044
-589,167	-88,695	0,066	-0,014
-588,152	-200,000	-0,000	0,032
-587,138	800,000	-0,076	-0,209
-586,123	-200,000	-0,044	-0,176
-585,109	-123,402	-0,129	-0,015
-584,094	800,000	-0,053	0,119
-583,079	-20,415	-0,029	0,013
-582,065	800,000	0,046	0,103
-581,050	800,000	0,039	-0,083
-580,036	309,129	0,048	-0,065
-579,021	-153,453	-0,172	-0,009
-578,006	-7,683	0,058	-0,029
-576,992	-121,101	0,071	-0,009
-575,977	-55,779	0,026	-0,008
-574,963	-200,000	0,008	0,087
-573,948	95,459	-0,096	-0,080
-572,934	-200,000	-0,015	0,067
-571,919	800,000	-0,024	-0,059
-570,904	800,000	0,038	-0,100
-569,890	-200,000	0,011	-0,067
-568,875	-31,316	0,061	-0,025
-567,861	-7,617	-0,113	-0,055
-566,846	-200,000	0,003	-0,060
-565,831	16,680	0,049	-0,028
-564,817	800,000	0,011	-0,031
-563,802	-94,344	0,040	0,008
-562,788	-108,076	0,031	0,005
-561,773	25,970	0,170	0,104
-560,758	-200,000	-0,032	0,118
-559,744	-200,000	-0,002	-0,021
-558,729	140,499	0,066	0,064
-557,715	-200,000	-0,017	0,159
-556,700	-200,000	0,029	-0,171
-555,685	-162,408	0,066	0,002
-554,671	800,000	0,058	0,171
-553,656	68,928	0,049	0,037
-552,642	29,009	-0,159	-0,099
-551,627	-111,645	-0,019	-0,003
-550,612	-54,773	0,026	-0,008
-549,598	-200,000	-0,022	-0,087
-548,583	800,000	0,024	-0,049
-547,569	-200,000	0,005	0,076
-546,554	-99,816	-0,060	0,011
-545,539	-39,214	0,198	-0,076
-544,525	-155,241	0,121	-0,006
-543,510	-112,491	-0,105	0,015
-542,496	-3,687	-0,252	0,127
-541,481	-200,000	0,046	-0,164
-540,466	341,741	0,030	-0,043
-539,452	-84,609	-0,073	-0,017
-538,437	341,004	0,046	0,065
-537,423	601,096	0,020	0,036
-536,408	613,082	0,045	0,082
-535,393	800,000	-0,028	-0,058
-534,379	-200,000	0,060	0,000
-533,364	-148,100	0,062	0,004
-532,350	800,000	-0,049	0,140
-531,335	-200,000	0,000	0,081
-530,321	-146,295	0,040	0,003
-529,306	106,307	-0,040	-0,035
-528,291	-27,543	-0,127	-0,053
-527,277	28,579	0,052	-0,032
-526,262	-66,331	-0,089	0,026
-525,248	297,894	0,042	-0,056
-524,233	-108,345	0,062	-0,010
-523,218	97,006	-0,084	0,070
-522,204	-89,100	0,029	0,006
-521,189	15,527	-0,078	-0,045
-520,175	-200,000	-0,057	-0,186
-519,160	161,035	-0,079	0,081
-518,145	345,790	0,021	-0,030
-517,131	-200,000	-0,017	0,117
-516,116	359,762	-0,033	-0,048
-515,102	-200,000	-0,029	-0,131
-514,087	800,000	0,050	-0,156
-513,072	-82,840	0,098	-0,023
-512,058	-105,960	-0,119	-0,019
-511,043	-5,848	-0,073	0,036
-510,029	-32,797	-0,015	0,006
-509,014	112,793	0,066	-0,058
-507,999	143,399	0,111	-0,107
-506,985	-95,354	0,063	-0,012
-505,970	551,584	-0,085	-0,150
-504,956	-19,606	0,061	-0,027
-503,941	124,682	-0,058	0,053
-502,926	-86,224	0,042	0,009
-501,912	-31,978	0,026	0,011
-500,897	31,583	0,041	-0,025
-499,883	-200,000	0,002	0,071
-498,868	386,904	-0,117	-0,177
-497,853	-22,687	0,091	-0,040
-496,839	423,354	-0,038	0,059
-495,824	-200,000	0,023	-0,088
-494,810	4,613	-0,106	0,057
-493,795	-200,000	0,003	0,044
-492,781	-118,506	-0,090	-0,011
-491,766	120,301	0,078	0,070
-490,751	-200,000	0,069	-0,225
-489,737	198,210	-0,042	0,047
-488,722	724,780	-0,039	0,075
-487,708	-125,090	-0,031	-0,003
-486,693	94,374	-0,099	-0,082
-485,678	-128,554	-0,057	-0,006
-484,664	2,023	0,118	-0,062
-483,649	-66,832	0,027	-0,008
-482,635	97,264	-0,092	-0,077
-481,620	-200,000	0,044	0,207
-480,605	-96,009	-0,108	0,021
-479,591	237,046	0,012	-0,015
-478,576	-200,000	-0,010	0,040
-477,562	-200,000	-0,054	-0,210
-476,547	-34,039	-0,074	-0,029
-475,532	-200,000	0,002	-0,057
-474,518	74,265	-0,117	-0,090
-473,503	-5,724	0,115	-0,057
-472,489	-131,730	0,033	0,003
-471,474	-200,000	0,011	-0,114
-470,459	-113,096	-0,062	0,009
-469,445	340,461	-0,017	0,025
-468,430	-200,000	0,014	-0,103
-467,416	-200,000	0,022	0,116
-466,401	582,700	0,082	0,147
-465,386	-143,855	0,077	-0,005
-464,372	-146,216	0,068	0,004
-463,357	309,263	0,045	-0,061
-462,343	313,502	0,063	-0,087
-461,328	-46,982	0,096	0,034
-460,313	-200,000	-0,007	-0,167
-459,299	333,067	0,066	0,093
-458,284	-200,000	0,022	0,118
-457,270	-107,790	-0,046	-0,007
-456,255	-91,502	0,060	-0,012
-455,241	128,057	-0,071	-0,066
-454,226	800,000	-0,049	0,118
-453,211	800,000	0,077	-0,208
-452,197	-200,000	0,011	0,091
-451,182	-123,873	0,080	-0,009
-450,168	-142,046	-0,113	0,008
-449,153	98,937	0,054	-0,046
-448,138	-144,116	-0,044	-0,003
-447,124	-200,000	-0,003	-0,057
-446,109	800,000	-0,024	-0,068
-445,095	-99,495	0,052	0,009
-444,080	8,159	-0,041	0,022
-443,065	800,000	-0,038	0,085
-442,051	-35,355	0,058	0,023
-441,036	800,000	-0,019	0,057
-440,022	12,900	-0,022	-0,012
-439,007	-188,479	0,226	-0,002
-437,992	662,430	0,030	-0,057
-436,978	32,442	0,179	0,112
-435,963	800,000	0,044	0,103
-434,949	-200,000	-0,008	-0,034
-433,934	254,164	-0,047	-0,059
-432,919	499,477	-0,019	0,032
-431,905	491,384	-0,038	0,063
-430,890	-59,929	0,145	-0,045
-429,876	-151,369	0,146	0,008
-428,861	54,271	0,045	-0,031
-427,846	800,000	-0,009	0,021
-426,832	-200,000	0,007	0,082
-425,817	400,999	-0,089	-0,136
-424,803	-200,000	-0,009	-0,048
-423,788	211,375	0,015	-0,017
-422,773	229,450	0,039	0,047
-421,759	800,000	0,023	0,056
-420,744	800,000	-0,054	0,140
-419,730	131,429	-0,162	-0,151
-418,715	133,817	-0,069	0,065
-417,701	182,984	-0,065	0,070
-416,686	-200,000	-0,007	0,050
-415,671	800,000	-0,050	0,101
-414,657	800,000	-0,037	0,108
-413,642	410,099	-0,060	-0,092
-412,628	-200,000	0,065	-0,217
-411,613	76,632	-0,061	-0,047
-410,598	-37,564	-0,053	-0,020
-409,584	-109,409	0,063	0,010
-408,569	-200,000	-0,030	0,228
-407,555	-46,331	0,101	-0,036
-406,540	-19,294	-0,057	0,026
-405,525	459,791	0,034	-0,055
-404,511	122,321	-0,139	-0,126
-403,496	-27,353	-0,121	0,051
-402,482	-159,149	0,017	-0,001
-401,467	620,391	0,042	0,078
-400,452	-200,000	-0,007	0,034
-399,438	366,275	0,046	0,067
-398,423	-200,000	-0,014	0,060
-397,409	34,407	-0,057	0,036
-396,394	28,679	-0,018	-0,011
-395,379	695,200	-0,044	0,083
-394,365	301,556	0,022	0,030
-393,350	658,659	-0,054	0,102
-392,336	183,245	-0,078	-0,084
-391,321	800,000	-0,034	-0,095
-390,306	17,515	-0,129	0,074
-389,292	-200,000	-0,025	-0,099
-388,277	-200,000	0,021	-0,154
-387,263	-20,544	0,083	-0,037
-386,248	-23,244	0,135	-0,059
-385,233	-54,682	0,083	0,027
-384,219	224,920	0,025	0,030
-383,204	800,000	-0,041	0,097
-382,190	280,649	0,053	-0,069
-381,175	503,213	-0,044	-0,073
-380,160	-200,000	-0,003	0,107
-379,146	-200,000	0,016	0,077
-378,131	2,044	0,108	0,056
-377,117	362,466	-0,024	-0,035
-376,102	-45,274	-0,100	-0,036
-375,088	-79,720	-0,146	-0,035
-374,073	-200,000	0,022	-0,082
-373,058	800,000	0,010	-0,032
-372,044	789,167	-0,007	0,015
-371,029	181,851	-0,070	0,075
-370,015	257,779	-0,120	0,149
-369,000	-200,000	-0,003	0,206
-367,985	28,150	-0,075	0,046
-366,971	-129,653	0,049	0,005
-365,956	800,000	0,059	0,171
-364,942	223,482	0,121	0,141
-363,927	-38,269	0,041	-0,016
-362,912	16,882	-0,044	0,025
-361,898	491,952	-0,065	-0,109
-360,883	-160,381	-0,085	-0,003
-359,869	-200,000	-0,009	0,046
-358,854	229,563	-0,051	-0,061
-357,839	-200,000	-0,004	-0,024
-356,825	800,000	0,032	0,067
-355,810	44,671	-0,028	-0,018
-354,796	425,408	0,058	-0,091
-353,781	-18,990	-0,100	-0,045
-352,766	-73,986	-0,092	-0,024
-351,752	250,618	0,031	0,038
-350,737	-200,000	-0,032	0,131
-349,723	-29,291	0,094	0,039
-348,708	250,061	0,057	0,071
-347,693	218,060	-0,051	0,059
-346,679	-87,309	0,054	0,012
-345,664	105,808	-0,075	0,064
-344,650	800,000	0,041	0,105
-343,635	-9,950	0,116	-0,056
-342,620	-53,054	0,092	0,030
-341,606	-40,289	-0,049	0,019
-340,591	-200,000	-0,002	0,047
-339,577	212,417	-0,102	-0,117
-338,562	-200,000	-0,003	-0,127
-337,548	-134,278	-0,025	-0,002
-336,533	28,521	0,070	0,043
-335,518	-200,000	0,019	0,110
-334,504	-200,000	-0,017	0,087
-333,489	118,058	0,071	-0,063
-332,475	124,892	-0,130	-0,119
-331,460	-35,827	-0,081	-0,032
-330,445	-200,000	-0,053	-0,172
-329,431	80,680	0,145	0,113
-328,416	-81,857	0,049	0,012
-327,402	107,007	-0,105	0,090
-326,387	-200,000	-0,011	-0,071
-325,372	174,976	0,042	-0,044
-324,358	191,176	-0,090	-0,099
-323,343	182,598	0,082	-0,088
-322,329	296,839	-0,089	-0,118
-321,314	-31,902	0,222	-0,090
-320,299	-200,000	-0,003	0,035
-319,285	422,666	0,043	0,068
-318,270	-200,000	-0,016	-0,058
-317,256	101,430	-0,126	0,106
-316,241	-200,000	0,010	-0,101
-315,226	-200,000	0,018	-0,118
-314,212	-60,858	-0,106	-0,032
-313,197	-200,000	-0,002	0,137
-312,183	800,000	-0,037	0,108
-311,168	-200,000	-0,011	-0,066
-310,153	-183,556	-0,141	0,002
-309,139	-41,037	0,071	-0,027
-308,124	146,414	-0,051	0,050
-307,110	141,834	0,041	0,040
-306,095	-200,000	0,026	0,106
-305,080	521,910	0,043	0,073
-304,066	-169,993	0,052	-0,001
-303,051	800,000	-0,063	-0,137
-302,037	-200,000	0,012	-0,122
-301,022	-200,000	0,013	0,078
-300,008	-200,000	0,025	-0,088
-298,993	547,110	0,028	0,048
-297,978	-102,852	-0,103	-0,018
-296,964	-122,005	0,026	0,003
-295,949	156,631	-0,030	-0,030
-294,935	-200,000	0,014	-0,083
-293,920	-200,000	0,010	0,058
-292,905	100,337	0,108	0,091
-291,891	-38,549	0,089	0,034
-290,876	-200,000	-0,005	0,067
-289,862	-69,409	-0,059	0,016
-288,847	51,554	0,097	-0,067
-287,832	100,277	-0,040	-0,034
-286,818	288,029	0,066	0,087
-285,803	-200,000	0,054	0,203
-284,789	-32,455	0,094	0,038
-283,774	209,217	-0,041	-0,047
-282,759	-200,000	-0,037	0,147
-281,745	114,935	-0,062	-0,055
-280,730	338,419	-0,066	-0,093
-279,716	83,908	-0,154	-0,121
-278,701	-12,231	0,104	-0,049
-277,686	-200,000	0,016	0,205
-276,672	41,899	0,039	0,026
-275,657	-29,066	0,086	0,036
-274,643	800,000	0,046	-0,100
-273,628	-83,935	-0,109	0,025
-272,613	605,834	-0,047	-0,085
-271,599	-200,000	-0,029	0,104
-270,584	-200,000	-0,031	0,114
-269,570	198,265	0,082	-0,091
-268,555	774,362	-0,047	0,094
-267,540	140,275	-0,020	0,019
-266,526	332,777	0,033	0,047
-265,511	72,991	0,034	-0,026
-264,497	-39,241	-0,127	-0,048
-263,482	209,416	0,082	0,093
-262,467	-5,722	-0,205	-0,101
-261,453	-154,264	0,198	0,009
-260,438	166,487	-0,062	0,064
-259,424	238,949	-0,046	0,055
-258,409	-109,007	-0,151	-0,023
-257,395	-25,198	-0,151	0,064
-256,380	-200,000	0,017	0,116
-255,365	-127,126	0,046	-0,005
-254,351	-200,000	0,017	-0,056
-253,336	119,353	0,042	-0,037
-252,322	-200,000	-0,063	-0,216
-251,307	74,396	0,027	0,021
-250,292	-113,380	-0,097	-0,014
-249,278	414,086	0,038	0,059
-248,263	-200,000	-0,001	-0,036
-247,249	-200,000	-0,010	0,101
-246,234	-79,942	-0,182	-0,044
-245,219	244,204	0,038	-0,046
-244,205	-78,358	-0,119	0,029
-243,190	266,192	0,073	0,093
-242,176	-127,642	-0,076	-0,008
-241,161	11,953	0,060	-0,033
-240,146	-148,457	0,081	-0,005
-239,132	26,772	-0,055	0,033
-238,117	-200,000	0,003	0,061
-237,103	494,773	0,097	-0,161
-236,088	100,205	-0,115	0,096
-235,073	-200,000	-0,012	0,093
-234,059	396,538	-0,049	0,074
-233,044	-200,000	-0,003	-0,042
-232,030	-200,000	-0,014	-0,047
-231,015	-200,000	0,004	0,084
-230,000	17,369	-0,115	-0,066
-228,986	-200,000	-0,006	-0,221
-227,971	439,351	-0,057	0,090
-226,957	800,000	0,014	-0,041
-225,942	-200,000	0,012	0,061
-224,927	-24,643	0,049	-0,021
-223,913	538,735	-0,053	-0,092
-222,898	461,987	0,041	-0,067
-221,884	800,000	0,020	-0,048
-220,869	-136,053	0,076	0,006
-219,855	109,204	0,121	0,104
-218,840	350,015	-0,037	0,053
-217,825	441,398	-0,017	-0,027
-216,811	800,000	0,020	-0,058
-215,796	-161,735	-0,011	0,000
-214,782	263,690	-0,057	0,072
-213,767	-37,272	0,087	0,034
-212,752	635,672	-0,039	-0,071
-211,738	-32,632	0,020	0,008
-210,723	758,845	-0,064	0,125
-209,709	-200,000	0,006	0,072
-208,694	64,597	0,074	0,054
-207,679	343,837	-0,045	0,063
-206,665	47,450	-0,087	0,059
-205,650	-200,000	-0,039	-0,213
-204,636	69,775	0,086	0,064
-203,621	221,888	-0,010	-0,011
-202,606	101,683	-0,091	0,076
-201,592	-159,159	0,164	0,007
-200,577	198,020	-0,043	-0,047
-199,563	87,774	0,096	0,076
-198,548	658,406	0,096	0,178
-197,533	58,995	0,045	0,032
-196,519	-123,045	-0,092	0,011
-195,504	131,479	0,054	-0,050
-194,490	-96,444	0,077	-0,015
-193,475	-200,000	0,020	-0,149
-192,460	-188,781	0,087	0,001
-191,446	507,383	-0,046	0,077
-190,431	-99,616	0,120	-0,021
-189,417	517,504	-0,058	-0,099
-188,402	-200,000	-0,003	-0,040
-187,387	-200,000	0,009	-0,037
-186,373	-23,787	0,092	0,039
-185,358	-75,192	0,067	0,017
-184,344	-200,000	0,031	0,117
-183,329	185,608	-0,052	-0,055
-182,315	373,309	0,078	0,114
-181,300	-5,813	0,075	-0,037
-180,285	800,000	0,057	-0,123
-179,271	329,881	-0,008	0,012
-178,256	-169,242	-0,091	0,002
-177,242	-51,042	0,109	-0,036
-176,227	-200,000	-0,001	-0,194
-175,212	-200,000	0,026	0,124
-174,198	598,879	0,030	-0,053
-173,183	-75,196	-0,026	-0,007
-172,169	-200,000	-0,002	0,046
-171,154	-76,725	0,093	-0,023
-170,139	-53,665	0,083	-0,027
-169,125	352,933	0,057	0,081
-168,110	211,379	-0,034	0,039
-167,096	624,929	-0,053	-0,096
-166,081	-141,557	-0,096	0,007
-165,066	-200,000	-0,022	0,183
-164,052	257,164	0,045	-0,055
-163,037	-116,133	0,055	0,007
-162,023	14,972	0,055	-0,031
-161,008	-200,000	-0,036	0,133
-159,993	800,000	0,036	-0,078
-158,979	-200,000	-0,020	0,151
-157,964	52,939	-0,061	0,042
-156,950	800,000	-0,028	-0,056
-155,935	-151,641	0,178	-0,009
-154,920	-166,204	0,100	0,003
-153,906	513,428	0,076	0,127
-152,891	-200,000	0,013	0,118
-151,877	229,800	-0,029	0,034
-150,862	47,493	-0,105	-0,070
-149,847	764,727	-0,036	0,071
-148,833	-112,071	-0,140	0,020
-147,818	254,859	-0,112	0,139
-146,804	-155,217	0,083	0,004
-145,789	-200,000	-0,007	-0,077
-144,775	800,000	-0,012	-0,029
-143,760	800,000	0,009	-0,020
-142,745	392,122	0,047	0,070
-141,731	13,653	0,047	0,026
-140,716	-43,355	-0,086	0,031
-139,702	-170,079	0,087	-0,002
-138,687	-200,000	-0,038	0,195
-137,672	-68,910	-0,025	0,007
-136,658	800,000	-0,070	-0,158
-135,643	265,094	-0,073	-0,092
-134,629	-75,506	0,112	-0,028
-133,614	800,000	0,034	-0,099
-132,599	-200,000	-0,022	0,128
-131,585	247,732	-0,012	-0,015
-130,570	-200,000	-0,025	-0,223
-129,556	667,456	-0,075	-0,140
-128,541	-165,506	-0,195	-0,006
-127,526	-121,705	0,157	0,018
-126,512	79,803	-0,084	-0,065
-125,497	-200,000	0,009	0,051
-124,483	-1,738	-0,016	-0,008
-123,468	-200,000	0,003	-0,078
-122,453	276,558	-0,034	0,043
-121,439	695,917	-0,047	-0,090
-120,424	-134,431	0,050	-0,004
-119,410	-100,029	0,122	-0,022
-118,395	-66,970	-0,039	0,011
-117,380	63,160	0,064	0,046
-116,366	215,459	-0,024	-0,027
-115,351	800,000	-0,008	0,019
-114,337	474,837	-0,027	-0,044
-113,322	295,142	0,022	-0,029
-112,307	-66,021	-0,144	-0,041
-111,293	15,995	-0,009	0,005
-110,278	800,000	-0,057	0,146
-109,264	636,827	-0,044	-0,080
-108,249	124,537	0,054	-0,049
-107,234	5,369	0,048	-0,025
-106,220	482,612	0,055	-0,090
-105,205	-91,196	-0,074	-0,015
-104,191	800,000	0,048	0,145
-103,176	-84,823	-0,078	-0,017
-102,162	-142,279	-0,117	0,008
-101,147	55,865	-0,182	-0,126
-100,132	-200,000	-0,001	-0,071
-99,118	177,428	-0,044	-0,046
-98,103	70,916	-0,110	-0,082
-97,089	149,319	0,079	0,077
-96,074	-46,943	-0,080	0,028
-95,059	-96,756	0,109	-0,020
-94,045	91,254	-0,051	-0,041
-93,030	800,000	0,037	-0,091
-92,016	800,000	-0,011	-0,024
-91,001	562,848	-0,052	-0,091
-89,986	800,000	0,049	0,108
-88,972	800,000	0,046	-0,119
-87,957	-200,000	-0,007	0,073
-86,943	-200,000	0,001	-0,008
-85,928	-66,702	0,049	0,014
-84,913	-113,666	-0,166	0,023
-83,899	800,000	-0,005	0,012
-82,884	552,311	-0,049	-0,084
-81,870	-39,329	0,080	0,030
-80,855	-200,000	-0,013	0,127
-79,840	104,256	0,121	0,102
-78,826	470,286	-0,047	0,077
-77,811	-135,710	-0,021	0,002
-76,797	488,975	-0,024	-0,040
-75,782	90,767	-0,062	0,050
-74,767	-55,706	0,086	-0,027
-73,753	291,587	0,094	0,123
-72,738	-200,000	0,010	0,080
-71,724	484,263	0,034	-0,055
-70,709	-91,855	-0,042	0,009
-69,694	-200,000	0,034	-0,110
-68,680	-200,000	0,025	0,109
-67,665	-200,000	-0,015	-0,125
-66,651	160,411	0,138	0,138
-65,636	379,778	0,078	0,115
-64,622	472,342	0,032	-0,052
-63,607	432,890	-0,034	-0,053
-62,592	152,904	0,137	-0,135
-61,578	800,000	0,053	0,112
-60,563	138,224	0,062	0,059
-59,549	212,688	-0,081	-0,092
-58,534	37,770	-2,161	-1,372
-57,519	-200,000	-0,011	-0,732
-56,505	-200,000	-1,445	-5,200
-55,490	108,148	0,851	0,726
-54,476	800,000	5,409	12,153
-53,461	-200,000	18,684	314,573
-52,446	800,000	740,686	2311,198
-51,432	547,880	1653,631	2846,112
-50,417	109,706	1636,941	1404,829
-49,403	73,282	1287,300	963,197
-48,388	29,817	1029,169	626,217
-47,373	19,659	991,953	570,018
-46,359	17,199	979,269	554,637
-45,344	13,789	975,662	541,396
-44,330	14,146	973,925	541,582
-43,315	13,500	972,134	538,449
-42,300	13,388	971,251	537,575
-41,286	13,412	970,378	537,150
-40,271	13,468	969,368	536,751
-39,257	13,437	968,498	536,148
-38,242	13,492	967,536	535,772
-37,227	13,445	966,741	535,157
-36,213	13,423	965,846	534,570
-35,198	13,358	965,042	533,892
-34,184	13,495	964,270	533,888
-33,169	13,414	963,265	533,046
-32,154	13,455	962,167	532,554
-31,140	13,446	961,544	532,156
-30,125	13,507	960,779	531,909
-29,111	13,465	959,962	531,302
-28,096	13,448	959,316	530,868
-27,082	13,451	958,519	530,413
-26,067	13,435	957,789	529,937
-25,052	13,506	957,121	529,777
-24,038	13,457	956,462	529,234
-23,023	13,411	955,848	528,725
-22,009	13,473	954,994	528,429
-20,994	13,456	954,471	528,064
-19,979	13,452	953,924	527,728
-18,965	13,387	953,364	527,190
-17,950	13,461	952,651	527,013
-16,936	13,428	951,951	526,496
-15,921	13,394	951,393	526,058
-14,906	13,328	950,617	525,400
-13,892	13,364	949,889	525,089
-12,877	13,346	949,394	524,738
-11,863	13,356	948,488	524,248
-10,848	13,339	948,286	524,060
-9,833	13,486	947,546	524,099
-8,819	13,416	947,040	523,576
-7,804	13,378	946,414	523,088
-6,790	13,365	945,947	522,769
-5,775	13,416	945,203	522,499
-4,760	13,403	944,634	522,123
-3,746	13,318	943,983	521,470
-2,731	13,212	943,269	520,720
-1,717	13,144	942,711	520,176
-0,702	13,190	942,013	519,915
0,313	12,988	941,251	519,642
1,327	16,554	939,205	529,720
2,342	25,823	789,872	469,898
3,356	21,957	444,069	258,440
4,371	-7,645	296,820	143,040
5,386	-11,521	278,683	130,599
6,400	-12,744	272,893	126,733
7,415	-12,930	270,550	125,462
8,429	-12,949	269,002	124,716
9,444	-12,884	268,035	124,316
10,459	-12,848	267,475	124,078
11,473	-13,205	266,930	123,488
12,488	-13,338	266,355	123,090
13,502	-13,312	265,802	122,847
14,517	-13,133	265,308	122,770
15,531	-13,116	264,941	122,604
16,546	-13,057	264,649	122,512
17,561	-13,241	264,154	122,106
18,575	-12,994	263,862	122,182
19,590	-13,087	263,533	121,936
20,604	-13,115	263,209	121,749
21,619	-13,300	262,976	121,465
22,634	-13,280	262,464	121,236
23,648	-13,070	262,126	121,256
24,663	-13,226	262,036	121,065
25,677	-13,207	261,657	120,896
26,692	-13,124	261,391	120,836
27,707	-13,200	261,315	120,723
28,721	-13,324	260,937	120,427
29,736	-13,268	260,702	120,358
30,750	-13,092	260,287	120,311
31,765	-13,287	260,153	120,066
32,780	-13,027	259,828	120,135
33,794	-13,092	259,618	119,969
34,809	-13,175	259,350	119,762
35,823	-13,168	259,011	119,601
36,838	-13,340	258,947	119,409
37,853	-13,137	258,535	119,387
38,867	-13,293	258,396	119,175
39,882	-13,247	258,142	119,087
40,896	-13,277	257,923	118,949
41,911	-13,172	257,738	118,945
42,926	-13,384	257,455	118,618
43,940	-13,636	257,306	118,318
44,955	-13,310	256,976	118,442
45,969	-13,353	256,759	118,293
46,984	-13,565	256,462	117,961
47,999	-13,860	256,187	117,566
49,013	-13,888	256,012	117,451
50,028	-14,057	255,737	117,168
51,042	-14,078	255,462	117,013
52,057	-14,151	255,344	116,885
53,071	-13,945	254,995	116,893
54,086	-13,871	254,856	116,883
55,101	-13,699	254,650	116,928
56,115	-13,719	254,622	116,886
57,130	-13,174	254,359	117,228
58,144	-12,899	254,352	117,452
59,159	-13,102	254,138	117,168
60,174	-13,186	253,867	116,959
61,188	-13,119	253,666	116,914
62,203	-13,064	253,347	116,804
63,217	-13,087	253,183	116,698
64,232	-13,160	252,863	116,477
65,247	-13,178	252,716	116,384
66,261	-13,046	252,295	116,293
67,276	-13,486	252,522	116,009
68,290	-13,561	252,046	115,715
69,305	-13,611	251,710	115,509
70,320	-13,451	251,521	115,548
71,334	-13,332	251,413	115,590
72,349	-13,061	251,246	115,734
73,363	-12,775	251,058	115,882
74,378	-13,139	251,013	115,540
75,393	-13,091	250,599	115,380
76,407	-13,083	250,351	115,262
77,422	-13,070	250,182	115,185
78,436	-13,088	250,029	115,089
79,451	-13,049	249,756	114,987
80,466	-13,252	249,575	114,720
81,480	-13,205	249,248	114,600
82,495	-13,359	248,943	114,319
83,509	-13,160	248,950	114,480
84,524	-13,474	248,787	114,130
85,539	-13,652	248,518	113,847
86,553	-13,423	248,214	113,890
87,568	-13,582	248,202	113,740
88,582	-13,421	247,871	113,714
89,597	-13,540	247,720	113,534
90,611	-13,422	247,676	113,604
91,626	-13,243	247,539	113,681
92,641	-13,056	247,136	113,643
93,655	-13,303	247,036	113,379
94,670	-13,357	246,781	113,207
95,684	-13,111	246,588	113,314
96,699	-13,210	246,399	113,134
97,714	-13,468	246,303	112,864
98,728	-13,597	245,986	112,601
99,743	-13,487	245,791	112,594
100,757	-13,613	245,449	112,323
101,772	-13,504	245,317	112,343
102,787	-13,459	245,211	112,322
103,801	-13,467	245,010	112,213
104,816	-13,339	244,803	112,214
105,830	-13,411	244,906	112,191
106,845	-13,285	244,624	112,157
107,860	-13,261	244,404	112,066
108,874	-13,347	243,969	111,785
109,889	-13,332	243,822	111,720
110,903	-13,413	243,751	111,611
111,918	-13,412	243,538	111,505
112,933	-13,240	243,437	111,590
113,947	-13,292	243,272	111,462
114,962	-13,122	243,001	111,467
115,976	-13,284	242,895	111,276
116,991	-13,301	242,705	111,164
118,006	-13,301	242,408	111,019
119,020	-13,171	242,533	111,172
120,035	-13,103	242,224	111,077
121,049	-13,403	242,059	110,746
122,064	-13,247	241,855	110,770
123,079	-13,466	241,735	110,526
124,093	-13,276	241,457	110,545
125,108	-13,419	241,037	110,226
126,122	-13,551	240,945	110,066
127,137	-13,725	240,661	109,785
128,151	-13,532	240,639	109,922
129,166	-13,580	240,382	109,756
130,181	-13,541	240,280	109,732
131,195	-13,628	240,146	109,590
132,210	-13,444	239,847	109,593
133,224	-13,244	239,625	109,643
134,239	-13,222	239,467	109,579
135,254	-13,377	239,504	109,461
136,268	-13,436	239,115	109,226
137,283	-13,579	238,924	109,013
138,297	-13,583	238,692	108,895
139,312	-13,714	238,558	108,718
140,327	-13,439	238,443	108,878
141,341	-13,103	238,414	109,125
142,356	-12,759	238,214	109,301
143,370	-12,975	238,095	109,063
144,385	-13,042	237,907	108,913
145,400	-12,931	237,760	108,926
146,414	-12,894	237,431	108,794
147,429	-13,076	237,335	108,595
148,443	-13,030	237,267	108,591
149,458	-12,882	237,079	108,614
150,473	-12,934	236,910	108,485
151,487	-13,271	236,690	108,106
152,502	-12,920	236,490	108,285
153,516	-13,049	236,367	108,116
154,531	-12,970	236,202	108,094
155,546	-12,986	236,083	108,016
156,560	-13,111	235,903	107,825
157,575	-13,302	235,649	107,547
158,589	-13,338	235,409	107,400
159,604	-12,981	235,328	107,637
160,619	-12,996	235,152	107,535
161,633	-12,837	235,037	107,598
162,648	-12,831	234,921	107,541
163,662	-13,080	234,676	107,222
164,677	-13,000	234,555	107,220
165,692	-12,989	234,346	107,124
166,706	-12,915	234,323	107,162
167,721	-12,812	234,124	107,143
168,735	-12,690	233,908	107,131
169,750	-12,795	233,774	106,977
170,764	-12,994	233,648	106,753
171,779	-13,010	233,704	106,756
172,794	-12,866	233,328	106,689
173,808	-13,025	233,124	106,461
174,823	-13,451	232,758	105,950
175,837	-13,700	232,626	105,686
176,852	-13,252	232,650	106,038
177,867	-13,237	232,585	106,011
178,881	-12,988	232,347	106,087
179,896	-12,729	232,192	106,210
180,910	-12,790	231,956	106,045
181,925	-12,875	231,892	105,940
182,940	-12,820	231,753	105,909
183,954	-12,890	231,487	105,724
184,969	-12,919	231,607	105,747
185,983	-12,756	231,189	105,674
186,998	-12,929	231,133	105,504
188,013	-12,781	231,068	105,580
189,027	-12,542	230,669	105,574
190,042	-12,757	230,529	105,334
191,056	-12,622	230,368	105,355
192,071	-12,874	230,236	105,090
193,086	-12,744	230,122	105,129
194,100	-12,780	229,987	105,030
195,115	-13,072	229,425	104,539
196,129	-13,102	229,616	104,593
197,144	-7,588	231,443	109,704
198,159	-1,993	233,109	114,852
199,173	1,869	234,269	118,436
200,188	2,669	234,282	119,057
201,202	2,494	234,126	118,831
202,217	2,711	233,892	118,871
203,232	2,826	233,811	118,908
204,246	2,714	233,736	118,773
205,261	2,830	233,679	118,824
206,275	3,244	233,460	119,023
207,290	3,383	233,183	118,979
208,304	3,136	233,234	118,803
209,319	3,069	232,999	118,621
210,334	3,044	232,670	118,424
211,348	3,001	232,538	118,312
212,363	2,456	232,231	117,724
213,377	2,415	232,110	117,620
214,392	2,216	231,924	117,362
215,407	2,456	231,953	117,551
216,421	2,611	231,597	117,481
217,436	2,432	231,467	117,265
218,450	2,282	231,175	116,992
219,465	2,094	231,212	116,856
220,480	2,338	231,019	116,935
221,494	2,182	230,878	116,733
222,509	2,273	230,922	116,815
223,523	2,470	230,735	116,861
224,538	2,472	230,392	116,679
225,553	2,404	230,251	116,545
226,567	2,419	230,267	116,555
227,582	2,620	230,053	116,590
228,596	2,784	230,062	116,709
229,611	2,587	229,766	116,398
230,626	2,141	229,681	116,003
231,640	2,123	229,416	115,846
232,655	2,588	229,257	116,109
233,669	2,662	229,248	116,151
234,684	2,847	229,257	116,287
235,699	2,826	228,875	116,067
236,713	2,323	228,760	115,615
237,728	2,277	228,723	115,551
238,742	2,284	228,240	115,302
239,757	2,221	228,252	115,250
240,772	2,561	228,025	115,383
241,786	2,577	227,851	115,297
242,801	2,469	227,908	115,233
243,815	2,777	227,798	115,401
244,830	2,797	227,618	115,314
245,844	2,359	227,390	114,858
246,859	2,294	227,255	114,730
247,874	2,633	227,143	114,919
248,888	2,692	226,872	114,816
249,903	2,496	226,733	114,588
250,917	2,451	226,602	114,478
251,932	2,540	226,569	114,518
252,947	2,104	226,265	114,027
253,961	2,078	226,187	113,957
254,976	2,198	225,948	113,917
255,990	2,544	225,890	114,137
257,005	2,609	225,658	114,058
258,020	2,782	225,588	114,142
259,034	2,746	225,443	114,032
260,049	2,478	225,425	113,812
261,063	2,622	225,150	113,770
262,078	2,792	225,179	113,902
263,093	2,808	224,990	113,808
264,107	2,592	224,849	113,566
265,122	2,822	224,589	113,596
266,136	2,859	224,704	113,671
267,151	2,743	224,421	113,431
268,166	2,392	224,198	113,048
269,180	2,239	223,901	112,774
270,195	2,279	223,768	112,728
271,209	2,351	223,590	112,681
272,224	2,441	223,603	112,744
273,239	2,484	223,526	112,727
274,253	2,553	223,231	112,619
275,268	2,109	223,118	112,224
276,282	2,130	222,928	112,133
277,297	2,001	222,686	111,907
278,312	2,062	222,752	111,975
279,326	2,484	222,590	112,195
280,341	2,467	222,419	112,086
281,355	2,625	222,248	112,106
282,370	2,479	222,163	111,946
283,384	2,532	221,831	111,808
284,399	2,239	221,709	111,521
285,414	2,211	221,668	111,470
286,428	2,217	221,599	111,430
287,443	2,420	221,484	111,511
288,457	2,715	221,355	111,652
289,472	2,434	221,157	111,337
290,487	1,925	220,834	110,792
291,501	1,820	220,737	110,656
292,516	2,052	220,607	110,751
293,530	2,242	220,478	110,815
294,545	2,116	220,259	110,603
295,560	2,213	220,243	110,656
296,574	2,451	220,143	110,769
297,589	2,377	220,040	110,653
298,603	2,307	219,915	110,530
299,618	2,361	219,701	110,451
300,633	2,687	219,529	110,592
301,647	2,547	219,604	110,518
302,662	2,574	219,426	110,438
303,676	2,705	219,117	110,368
304,691	2,667	218,889	110,216
305,706	2,787	218,936	110,316
306,720	2,765	218,787	110,215
307,735	2,690	218,525	110,019
308,749	2,404	218,420	109,751
309,764	2,694	218,279	109,879
310,779	2,570	218,209	109,744
311,793	2,455	217,916	109,505
312,808	2,560	217,923	109,574
313,822	2,531	217,816	109,489
314,837	2,538	217,642	109,397
315,852	2,054	217,503	108,970
316,866	2,377	217,488	109,185
317,881	2,687	217,306	109,306
318,895	2,558	217,100	109,100
319,910	2,156	216,898	108,701
320,925	2,229	216,538	108,563
321,939	1,658	216,560	108,157
322,954	1,887	216,257	108,159
323,968	2,665	216,312	108,732
324,983	2,620	216,330	108,699
325,997	2,769	216,120	108,691
327,012	2,703	215,905	108,526
328,027	2,610	215,907	108,451
329,041	2,925	215,862	108,643
330,056	2,780	215,712	108,454
331,070	2,513	215,357	108,077
332,085	2,356	215,174	107,864
333,100	2,525	215,133	107,954
334,114	2,356	215,141	107,828
335,129	2,547	214,713	107,739
336,143	2,296	214,677	107,534
337,158	2,366	214,661	107,566
338,173	2,204	214,413	107,317
339,187	2,033	214,157	107,059
340,202	2,115	214,054	107,056
341,216	2,445	214,040	107,272
342,231	2,516	214,018	107,301
343,246	2,555	213,726	107,173
344,260	2,342	213,726	107,013
345,275	2,743	213,559	107,202
346,289	2,735	213,435	107,125
347,304	2,737	213,203	107,001
348,319	2,504	213,021	106,736
349,333	2,771	212,918	106,862
350,348	2,744	212,914	106,832
351,362	2,599	212,829	106,678
352,377	2,752	212,590	106,656
353,392	2,510	212,541	106,452
354,406	2,658	212,319	106,435
355,421	198,160	1311,401	1392,661
356,435	158,563	1445,255	1392,598
