DTS Sentinel unit serial number:	SN410029Multiplexer serial number:	ORYXHardware model number:	OX2-SRSoftware version number:	ORYX F/W v4,00 Oryx Data Collector v3.7.2.0data status	okinstallation	B6 Nyhavnadifferential loss correction	single-endedforward channel	channel 2reverse channel	N/Adate	2023/12/10time	01:40:08forward acquisition time	300,00reverse acquisition time	0,00gamma	499,1914k internal	0,3125k external	0,3125temperature offset calibration	1,0000default loss term (dB/km)	0,3820temperature slope calibration	1,0000multiplexer offset coefficient	1,0000multiplexer slope coefficient	1,0000fibre end	0,00T internal ref (°C)	21,93T ext. ref 1 (°C)	5,67T ext. ref 2 (°C)	5,67length (m)	temperature (°C)	Stokes	anti-Stokes-744,400	-17,319	0,094	0,044
-743,385	-122,548	-0,259	0,031
-742,371	150,243	0,119	-0,121
-741,356	-20,784	-0,216	0,098
-740,342	434,630	0,063	0,102
-739,327	7,201	-0,344	0,191
-738,312	299,457	-0,020	-0,027
-737,298	-93,242	-0,165	0,034
-736,283	800,000	-0,008	-0,026
-735,269	179,762	-0,168	0,183
-734,254	800,000	0,030	0,075
-733,239	-56,357	-0,356	-0,117
-732,225	800,000	0,049	-0,126
-731,210	78,743	0,039	0,031
-730,196	110,946	-0,066	0,059
-729,181	-200,000	-0,000	0,018
-728,167	-200,000	0,023	-0,076
-727,152	-60,792	0,069	-0,022
-726,137	-100,711	-0,045	-0,008
-725,123	140,751	-0,113	0,111
-724,108	-200,000	-0,002	-0,170
-723,094	53,015	-0,135	-0,096
-722,079	-41,436	-0,125	-0,048
-721,064	566,419	-0,061	0,111
-720,050	-200,000	0,016	-0,079
-719,035	119,714	-0,051	-0,047
-718,021	-128,339	-0,078	0,008
-717,006	-164,810	0,027	0,001
-715,991	57,341	0,065	-0,047
-714,977	-39,242	-0,119	-0,046
-713,962	321,667	-0,037	0,052
-712,948	-186,785	-0,052	-0,001
-711,933	-188,679	-0,067	-0,001
-710,918	-200,000	0,050	0,182
-709,904	393,811	-0,036	-0,055
-708,889	-49,198	-0,090	-0,032
-707,875	-200,000	0,019	0,105
-706,860	332,707	0,056	-0,081
-705,845	67,010	-0,090	0,068
-704,831	212,873	0,060	0,070
-703,816	94,248	0,059	0,050
-702,802	800,000	-0,030	0,076
-701,787	13,271	-0,096	0,055
-700,772	-53,371	-0,018	-0,006
-699,758	444,998	-0,029	0,047
-698,743	-200,000	0,024	0,093
-697,729	562,934	0,058	0,105
-696,714	-200,000	0,030	0,107
-695,699	95,250	-0,042	-0,036
-694,685	649,846	-0,040	-0,077
-693,670	-138,667	-0,146	0,012
-692,656	249,616	0,068	-0,085
-691,641	-173,153	-0,084	0,002
-690,627	-200,000	-0,002	0,202
-689,612	92,180	-0,076	-0,064
-688,597	800,000	0,025	0,067
-687,583	-200,000	-0,011	-0,064
-686,568	-157,049	0,048	-0,002
-685,554	-103,811	-0,034	-0,006
-684,539	62,423	-0,057	0,042
-683,524	258,629	0,047	-0,061
-682,510	-31,705	0,138	0,057
-681,495	-91,535	-0,105	-0,022
-680,481	201,363	-0,073	-0,083
-679,466	390,608	-0,074	-0,114
-678,451	571,387	-0,017	-0,031
-677,437	800,000	0,069	-0,177
-676,422	386,053	0,056	-0,086
-675,408	257,126	0,033	0,042
-674,393	-81,875	-0,072	0,017
-673,378	182,636	-0,085	-0,093
-672,364	-35,068	-0,070	-0,028
-671,349	-60,906	-0,139	-0,043
-670,335	133,423	0,143	0,137
-669,320	800,000	0,041	0,090
-668,305	-200,000	0,016	0,104
-667,291	800,000	-0,057	0,143
-666,276	515,460	0,030	0,053
-665,262	-110,974	-0,064	-0,010
-664,247	-78,332	0,013	-0,003
-663,232	3,887	-0,146	0,079
-662,218	-200,000	-0,025	0,140
-661,203	221,800	-0,102	0,122
-660,189	-63,201	-0,028	0,008
-659,174	-45,523	-0,117	-0,043
-658,159	-158,341	0,143	0,006
-657,145	-200,000	0,000	-0,175
-656,130	800,000	0,057	0,134
-655,116	-200,000	0,005	0,048
-654,101	-200,000	-0,017	0,130
-653,086	61,712	-0,069	-0,051
-652,072	-37,970	-0,148	-0,058
-651,057	-93,075	0,093	-0,019
-650,043	800,000	0,043	-0,125
-649,028	-200,000	-0,014	-0,134
-648,014	118,881	0,035	0,032
-646,999	-200,000	-0,002	0,028
-645,984	35,588	0,070	-0,045
-644,970	-200,000	-0,014	-0,098
-643,955	631,541	-0,051	-0,095
-642,941	-61,018	-0,082	0,026
-641,926	474,167	0,073	-0,122
-640,911	800,000	0,043	0,102
-639,897	35,986	-0,091	-0,060
-638,882	-200,000	0,012	0,053
-637,868	398,611	0,058	0,090
-636,853	133,078	-0,036	0,034
-635,838	161,453	-0,073	-0,076
-634,824	-35,717	0,092	-0,037
-633,809	-134,153	-0,155	-0,014
-632,795	-200,000	-0,002	0,033
-631,780	-88,363	-0,092	-0,020
-630,765	168,367	0,079	-0,084
-629,751	-200,000	-0,030	-0,134
-628,736	-200,000	-0,012	-0,071
-627,722	800,000	0,011	-0,033
-626,707	-3,956	-0,158	0,081
-625,692	-200,000	-0,007	-0,028
-624,678	800,000	-0,031	0,092
-623,663	680,678	0,030	0,059
-622,649	-162,851	-0,117	-0,004
-621,634	-49,280	-0,151	-0,053
-620,619	-69,553	-0,116	-0,033
-619,605	-156,727	-0,057	-0,003
-618,590	25,907	0,034	-0,021
-617,576	-200,000	-0,000	0,026
-616,561	-112,673	0,037	-0,005
-615,546	-56,291	0,059	0,019
-614,532	170,416	-0,055	-0,058
-613,517	-153,794	-0,028	0,001
-612,503	-200,000	-0,042	0,177
-611,488	-122,666	-0,120	0,014
-610,474	-63,088	0,047	0,014
-609,459	-200,000	0,024	-0,181
-608,444	-200,000	0,004	-0,090
-607,430	-200,000	-0,008	-0,231
-606,415	55,539	0,067	0,048
-605,401	-85,813	-0,026	-0,006
-604,386	800,000	0,026	0,074
-603,371	800,000	0,035	0,074
-602,357	-200,000	-0,015	-0,071
-601,342	-118,087	-0,087	-0,011
-600,328	-23,074	-0,181	0,080
-599,313	157,095	-0,082	-0,084
-598,298	7,354	0,046	-0,026
-597,284	-200,000	0,004	-0,067
-596,269	-200,000	-0,003	-0,027
-595,255	800,000	0,085	0,193
-594,240	-200,000	0,009	-0,069
-593,225	800,000	-0,060	-0,127
-592,211	-32,963	-0,062	-0,026
-591,196	800,000	0,019	0,050
-590,182	323,059	0,088	0,124
-589,167	-102,129	-0,071	0,013
-588,152	-176,085	0,138	0,003
-587,138	-93,846	-0,128	0,026
-586,123	696,118	-0,046	0,090
-585,109	485,862	-0,051	-0,087
-584,094	347,602	-0,038	-0,056
-583,079	355,507	-0,031	-0,046
-582,065	491,305	0,041	0,070
-581,050	571,127	0,046	0,084
-580,036	800,000	0,009	0,025
-579,021	-31,152	-0,074	0,031
-578,006	800,000	-0,078	-0,169
-576,992	-200,000	-0,002	-0,020
-575,977	366,198	-0,092	0,138
-574,963	-71,284	0,149	0,041
-573,948	-14,861	-0,228	0,108
-572,934	-41,683	0,181	0,069
-571,919	800,000	-0,013	0,039
-570,904	263,773	-0,043	-0,055
-569,890	-27,926	-0,099	-0,042
-568,875	-200,000	-0,001	-0,039
-567,861	49,974	0,065	0,045
-566,846	512,791	0,027	-0,046
-565,831	76,861	-0,036	-0,029
-564,817	93,422	-0,087	-0,073
-563,802	-150,677	-0,178	0,010
-562,788	685,668	-0,056	-0,109
-561,773	800,000	0,036	-0,091
-560,758	-87,053	-0,163	0,037
-559,744	-9,114	0,053	0,026
-558,729	10,814	-0,045	0,025
-557,715	9,199	-0,091	-0,051
-556,700	-107,009	-0,084	-0,014
-555,685	-174,842	0,093	0,002
-554,671	-196,876	-0,049	0,000
-553,656	800,000	-0,062	-0,136
-552,642	-200,000	0,017	0,081
-551,627	64,307	-0,099	-0,073
-550,612	-200,000	-0,004	-0,077
-549,598	-43,267	0,103	0,038
-548,583	-200,000	0,001	0,099
-547,569	-125,861	0,128	-0,014
-546,554	48,941	0,066	0,046
-545,539	-118,873	0,035	-0,004
-544,525	131,560	-0,018	-0,017
-543,510	370,885	0,008	0,012
-542,496	0,950	-0,150	-0,079
-541,481	0,954	-0,034	-0,018
-540,466	374,963	-0,054	0,082
-539,452	539,264	0,047	0,084
-538,437	-200,000	0,007	-0,074
-537,423	-200,000	0,019	-0,183
-536,408	195,368	0,026	-0,029
-535,393	-82,200	-0,127	0,030
-534,379	23,170	-0,111	-0,067
-533,364	-165,893	-0,040	0,001
-532,350	-200,000	0,003	0,099
-531,335	357,493	-0,036	0,053
-530,321	-200,000	0,023	0,179
-529,306	240,616	-0,073	0,090
-528,291	643,326	-0,062	-0,117
-527,277	-200,000	0,019	-0,080
-526,262	-200,000	-0,018	0,095
-525,248	-165,431	-0,022	0,001
-524,233	-112,913	-0,001	-0,000
-523,218	33,754	0,069	0,044
-522,204	157,340	0,039	0,039
-521,189	800,000	-0,072	-0,158
-520,175	-12,578	0,108	0,052
-519,160	-200,000	-0,016	0,074
-518,145	800,000	-0,024	0,055
-517,131	124,805	0,099	0,092
-516,116	-97,397	0,102	0,019
-515,102	-87,930	0,072	-0,016
-514,087	268,173	-0,051	-0,067
-513,072	-129,591	-0,128	0,013
-512,058	-27,731	0,159	-0,068
-511,043	-38,317	-0,034	0,013
-510,029	-19,873	0,017	-0,008
-509,014	-176,371	-0,193	-0,004
-507,999	523,411	-0,103	0,179
-506,985	-200,000	0,005	0,149
-505,970	-90,170	0,177	0,038
-504,956	659,567	-0,035	-0,067
-503,941	-200,000	0,007	0,098
-502,926	-200,000	0,004	-0,068
-501,912	-200,000	-0,006	0,106
-500,897	311,240	-0,045	-0,062
-499,883	303,462	-0,019	-0,026
-498,868	-200,000	-0,012	-0,093
-497,853	-200,000	0,037	-0,135
-496,839	-145,269	0,091	0,006
-495,824	-200,000	-0,011	0,172
-494,810	53,144	0,047	-0,033
-493,795	422,965	-0,017	0,026
-492,781	540,028	-0,015	0,027
-491,766	135,350	0,102	-0,098
-490,751	-44,647	0,042	-0,015
-489,737	184,235	0,051	0,056
-488,722	800,000	0,041	0,111
-487,708	-28,914	0,179	0,076
-486,693	90,230	-0,013	0,011
-485,678	-189,139	-0,125	-0,001
-484,664	-200,000	-0,015	-0,142
-483,649	800,000	0,030	-0,062
-482,635	-54,544	-0,036	-0,012
-481,620	800,000	0,015	-0,037
-480,605	24,633	-0,047	-0,028
-479,591	-12,467	-0,010	0,005
-478,576	-200,000	-0,021	-0,115
-477,562	-87,440	0,104	-0,023
-476,547	800,000	0,019	-0,054
-475,532	187,982	0,029	0,031
-474,518	-61,395	0,138	0,042
-473,503	-69,589	0,157	0,044
-472,489	294,026	0,036	0,048
-471,474	49,457	0,073	-0,051
-470,459	-122,534	-0,096	0,011
-469,445	-200,000	0,015	-0,144
-468,430	13,666	0,134	-0,076
-467,416	-200,000	0,007	0,029
-466,401	-53,927	0,046	0,015
-465,386	-200,000	0,033	0,117
-464,372	35,253	0,038	0,025
-463,357	326,519	-0,056	-0,079
-462,343	13,490	0,035	0,020
-461,328	-86,025	-0,062	0,014
-460,313	-58,290	0,132	-0,042
-459,299	800,000	0,023	-0,050
-458,284	72,159	0,095	0,073
-457,270	-200,000	0,004	-0,061
-456,255	139,328	-0,258	-0,250
-455,241	-35,177	-0,115	-0,046
-454,226	-200,000	-0,007	-0,042
-453,211	54,152	-0,109	0,077
-452,197	105,017	0,057	0,049
-451,182	258,707	-0,065	-0,083
-450,168	355,454	0,055	-0,081
-449,153	-200,000	-0,013	-0,124
-448,138	-57,705	-0,110	-0,035
-447,124	-91,100	0,026	0,006
-446,109	-52,391	0,118	-0,040
-445,095	-200,000	-0,012	-0,062
-444,080	12,681	0,065	0,037
-443,065	-51,529	0,065	0,022
-442,051	308,437	-0,021	-0,029
-441,036	-51,507	-0,151	0,052
-440,022	-89,195	-0,121	0,026
-439,007	-78,175	-0,083	0,021
-437,992	-200,000	0,004	-0,103
-436,978	-38,814	0,028	-0,011
-435,963	412,732	0,059	0,092
-434,949	-200,000	-0,027	0,123
-433,934	800,000	-0,007	-0,016
-432,919	-94,250	0,075	-0,015
-431,905	-33,851	0,164	-0,066
-430,890	143,912	-0,028	0,028
-429,876	155,984	-0,116	0,118
-428,861	-147,750	0,103	-0,006
-427,846	500,877	-0,089	-0,152
-426,832	-200,000	0,027	-0,132
-425,817	-200,000	0,006	0,138
-424,803	-98,595	-0,069	0,013
-423,788	-200,000	0,004	0,021
-422,773	47,180	0,024	0,016
-421,759	104,082	-0,052	0,045
-420,744	230,951	-0,063	-0,076
-419,730	-75,324	0,089	-0,023
-418,715	399,583	0,056	-0,086
-417,701	108,563	-0,056	-0,050
-416,686	-98,982	-0,012	0,002
-415,671	-200,000	-0,004	0,026
-414,657	-106,868	0,095	0,015
-413,642	-200,000	0,024	0,124
-412,628	-128,840	-0,073	0,007
-411,613	151,744	-0,049	0,049
-410,598	800,000	0,042	0,102
-409,584	194,280	-0,052	-0,058
-408,569	147,150	0,066	-0,065
-407,555	800,000	-0,062	0,135
-406,540	-200,000	0,028	0,105
-405,525	800,000	-0,049	0,143
-404,511	1,539	-0,184	-0,097
-403,496	-200,000	-0,002	-0,079
-402,482	716,948	0,014	0,027
-401,467	-200,000	0,022	0,105
-400,452	-200,000	0,024	0,158
-399,438	73,665	-0,071	0,055
-398,423	-158,926	-0,135	0,006
-397,409	-46,712	0,064	0,023
-396,394	800,000	-0,029	0,093
-395,379	89,993	-0,009	-0,008
-394,365	-196,119	0,149	-0,001
-393,350	18,114	-0,112	-0,066
-392,336	-40,256	0,082	-0,031
-391,321	-100,435	-0,113	-0,020
-390,306	-200,000	-0,015	-0,104
-389,292	406,677	-0,057	-0,089
-388,277	-200,000	0,008	-0,044
-387,263	-107,418	0,115	-0,018
-386,248	172,805	0,149	0,157
-385,233	74,169	-0,061	-0,047
-384,219	218,861	-0,132	0,155
-383,204	101,360	-0,071	0,061
-382,190	-167,380	0,101	0,003
-381,175	-54,321	0,096	0,032
-380,160	800,000	0,028	-0,079
-379,146	-167,913	0,056	-0,002
-378,131	217,260	0,052	0,061
-377,117	-200,000	0,007	0,081
-376,102	438,755	0,006	0,009
-375,088	800,000	-0,021	-0,046
-374,073	98,355	-0,050	-0,043
-373,058	-25,552	0,133	0,057
-372,044	124,005	-0,066	0,061
-371,029	-39,557	0,079	0,030
-370,015	14,778	-0,125	-0,072
-369,000	-95,074	-0,110	0,022
-367,985	4,113	0,031	-0,017
-366,971	36,864	-0,035	-0,023
-365,956	800,000	-0,013	0,041
-364,942	-76,192	0,108	0,028
-363,927	800,000	-0,128	0,263
-362,912	-156,721	0,091	-0,004
-361,898	287,702	-0,055	0,073
-360,883	681,024	0,055	-0,107
-359,869	102,399	-0,015	0,013
-358,854	407,444	-0,084	-0,130
-357,839	-1,688	0,044	0,022
-356,825	186,467	0,069	-0,076
-355,810	-100,244	0,107	0,019
-354,796	515,417	-0,094	-0,161
-353,781	-76,152	-0,141	0,036
-352,766	-200,000	-0,006	-0,032
-351,752	-200,000	0,014	-0,093
-350,737	-166,516	-0,164	-0,005
-349,723	-64,158	0,040	-0,012
-348,708	-200,000	0,000	0,049
-347,693	155,584	-0,062	0,063
-346,679	100,307	-0,068	0,058
-345,664	643,570	0,023	0,043
-344,650	338,180	-0,051	0,072
-343,635	800,000	0,038	-0,093
-342,620	800,000	-0,020	0,047
-341,606	100,971	0,086	-0,073
-340,591	800,000	0,037	-0,082
-339,577	-182,836	-0,074	-0,001
-338,562	-23,975	-0,089	-0,039
-337,548	-200,000	0,034	0,213
-336,533	-134,928	0,133	0,012
-335,518	-137,078	0,115	-0,009
-334,504	-92,163	-0,168	-0,034
-333,489	375,950	-0,077	-0,116
-332,475	800,000	0,051	-0,133
-331,460	-200,000	-0,003	0,090
-330,445	-177,558	-0,071	-0,001
-329,431	-126,834	-0,118	-0,013
-328,416	-75,052	0,151	0,039
-327,402	-56,831	0,128	0,041
-326,387	180,930	-0,024	-0,026
-325,372	306,070	0,011	-0,015
-324,358	-0,239	0,142	-0,074
-323,343	83,329	0,017	-0,014
-322,329	-200,000	-0,022	0,173
-321,314	-87,699	0,113	-0,025
-320,299	-200,000	-0,000	-0,020
-319,285	-31,521	0,100	0,041
-318,270	800,000	-0,041	0,089
-317,256	-200,000	-0,024	-0,093
-316,241	179,160	-0,023	-0,024
-315,226	-144,799	-0,013	-0,001
-314,212	-200,000	0,039	0,132
-313,197	-111,105	0,022	-0,003
-312,183	-200,000	0,007	-0,100
-311,168	-200,000	-0,020	-0,145
-310,153	-15,306	0,160	0,074
-309,139	513,351	-0,071	0,122
-308,124	31,075	-0,118	-0,074
-307,110	143,862	-0,082	0,080
-306,095	-10,524	0,028	-0,013
-305,080	-80,764	0,118	0,028
-304,066	88,411	-0,057	-0,047
-303,051	-168,548	0,052	0,001
-302,037	-200,000	0,003	0,036
-301,022	413,480	0,051	0,080
-300,008	-119,568	0,080	-0,010
-298,993	-132,863	0,097	-0,009
-297,978	655,378	-0,034	0,064
-296,964	800,000	-0,019	-0,041
-295,949	-200,000	0,020	-0,124
-294,935	-200,000	0,006	-0,043
-293,920	96,223	-0,103	-0,087
-292,905	800,000	-0,033	-0,105
-291,891	226,780	-0,070	0,084
-290,876	142,555	-0,035	-0,034
-289,862	800,000	-0,054	-0,159
-288,847	800,000	-0,042	-0,130
-287,832	-200,000	0,003	-0,078
-286,818	-52,146	-0,081	0,027
-285,803	6,593	-0,103	0,056
-284,789	-16,769	0,059	-0,027
-283,774	800,000	0,021	0,057
-282,759	-23,668	0,096	-0,042
-281,745	-64,007	0,063	0,019
-280,730	129,157	-0,052	-0,049
-279,716	19,145	0,107	0,063
-278,701	-66,474	0,021	0,006
-277,686	800,000	0,063	0,129
-276,672	-200,000	0,029	0,109
-275,657	-198,699	0,125	-0,000
-274,643	800,000	0,033	-0,081
-273,628	-11,635	-0,061	-0,029
-272,613	214,737	0,014	0,016
-271,599	713,649	0,065	0,127
-270,584	800,000	-0,032	0,086
-269,570	161,441	-0,051	0,053
-268,555	-200,000	0,006	-0,027
-267,540	168,870	0,009	0,009
-266,526	-200,000	-0,017	-0,054
-265,511	311,774	0,051	0,070
-264,497	-200,000	-0,004	0,088
-263,482	83,157	-0,136	0,108
-262,467	213,780	-0,064	0,075
-261,453	140,888	0,094	-0,091
-260,438	14,270	0,051	0,029
-259,424	183,054	-0,062	-0,067
-258,409	41,171	0,100	-0,066
-257,395	-200,000	-0,004	-0,179
-256,380	-200,000	0,017	0,123
-255,365	-200,000	-0,015	0,160
-254,351	-35,744	0,190	0,075
-253,336	45,293	0,156	0,105
-252,322	231,526	-0,026	-0,032
-251,307	56,434	-0,079	-0,056
-250,292	-44,656	0,158	0,057
-249,278	-164,157	0,067	0,002
-248,263	-200,000	-0,013	-0,099
-247,249	-75,815	-0,075	0,019
-246,234	-200,000	0,016	0,094
-245,219	239,680	0,028	-0,034
-244,205	-11,584	-0,061	0,029
-243,190	-200,000	-0,003	-0,040
-242,176	-117,095	0,047	0,006
-241,161	-137,091	0,199	-0,016
-240,146	-200,000	-0,019	0,106
-239,132	29,862	-0,031	-0,019
-238,117	701,552	-0,070	-0,135
-237,103	333,135	0,045	-0,064
-236,088	800,000	0,026	-0,054
-235,073	800,000	0,023	0,050
-234,059	-15,707	-0,095	0,044
-233,044	63,419	0,029	0,021
-232,030	91,256	0,052	0,043
-231,015	56,545	-0,082	-0,058
-230,000	-89,740	-0,117	0,025
-228,986	79,223	0,092	0,072
-227,971	800,000	-0,021	0,049
-226,957	-200,000	-0,014	0,146
-225,942	-39,981	-0,081	-0,031
-224,927	548,601	-0,028	-0,050
-223,913	800,000	0,011	0,030
-222,898	-200,000	-0,008	-0,112
-221,884	219,851	0,059	0,070
-220,869	-34,178	0,073	0,029
-219,855	97,556	0,057	0,048
-218,840	-110,275	0,157	-0,024
-217,825	563,369	-0,011	0,020
-216,811	541,820	-0,071	-0,125
-215,796	-69,024	-0,109	-0,031
-214,782	-200,000	-0,016	-0,065
-213,767	-3,928	0,113	0,057
-212,752	193,605	-0,024	0,026
-211,738	123,467	-0,061	0,056
-210,723	-96,643	0,153	-0,029
-209,709	50,724	0,020	-0,013
-208,694	-200,000	0,003	-0,021
-207,679	-140,422	0,044	-0,003
-206,665	-200,000	0,006	0,036
-205,650	-102,934	-0,087	-0,015
-204,636	-84,635	-0,066	-0,015
-203,621	117,076	0,005	-0,005
-202,606	478,514	0,026	0,043
-201,592	98,849	-0,151	-0,127
-200,577	175,899	-0,048	-0,051
-199,563	-112,949	-0,104	-0,015
-198,548	-58,394	0,035	-0,011
-197,533	-200,000	-0,017	0,066
-196,519	369,321	0,094	0,139
-195,504	-112,896	0,060	-0,009
-194,490	149,443	-0,059	-0,058
-193,475	-57,037	-0,088	0,028
-192,460	-200,000	0,007	0,033
-191,446	-14,523	0,074	0,034
-190,431	800,000	0,037	0,108
-189,417	30,898	0,127	0,079
-188,402	-48,430	0,061	0,021
-187,387	800,000	-0,018	0,038
-186,373	43,965	0,131	-0,087
-185,358	-200,000	-0,025	-0,114
-184,344	519,973	0,086	0,147
-183,329	-200,000	-0,006	0,060
-182,315	-166,083	0,066	0,002
-181,300	-63,237	0,045	0,013
-180,285	-48,503	-0,085	0,030
-179,271	606,680	-0,056	-0,103
-178,256	-200,000	-0,004	-0,055
-177,242	800,000	0,041	0,102
-176,227	-86,309	0,027	0,006
-175,212	53,969	0,116	-0,081
-174,198	-25,779	-0,113	0,048
-173,183	13,216	-0,079	-0,044
-172,169	-200,000	0,005	-0,070
-171,154	800,000	0,054	-0,150
-170,139	169,120	-0,011	0,012
-169,125	800,000	0,017	-0,041
-168,110	800,000	-0,017	-0,038
-167,096	-200,000	-0,006	0,048
-166,081	-200,000	0,013	-0,055
-165,066	304,695	0,073	-0,098
-164,052	800,000	0,032	0,096
-163,037	185,349	0,065	-0,071
-162,023	129,045	0,066	0,061
-161,008	199,763	0,064	0,071
-159,993	281,205	0,074	-0,097
-158,979	800,000	0,039	-0,079
-157,964	528,894	-0,027	0,046
-156,950	127,042	-0,093	0,086
-155,935	46,267	0,020	0,013
-154,920	-61,009	0,148	-0,045
-153,906	212,953	0,164	0,189
-152,891	-200,000	-0,007	-0,059
-151,877	-200,000	-0,009	-0,059
-150,862	-200,000	-0,008	0,070
-149,847	-114,986	-0,078	-0,011
-148,833	-118,874	-0,089	0,011
-147,818	756,776	0,046	-0,091
-146,804	271,846	-0,064	0,082
-145,789	-51,711	-0,095	0,032
-144,775	733,004	-0,044	-0,087
-143,760	800,000	0,029	-0,081
-142,745	-109,054	-0,143	-0,022
-141,731	-200,000	-0,010	0,068
-140,716	77,931	0,115	-0,089
-139,702	280,340	-0,080	0,104
-138,687	-56,655	-0,061	-0,020
-137,672	-200,000	0,002	0,043
-136,658	767,730	-0,055	-0,108
-135,643	-104,305	-0,116	-0,019
-134,629	-200,000	-0,003	-0,013
-133,614	139,593	0,083	-0,080
-132,599	800,000	-0,017	-0,037
-131,585	-200,000	0,027	0,144
-130,570	-200,000	0,006	0,075
-129,556	-82,993	-0,186	0,043
-128,541	-76,874	-0,029	-0,007
-127,526	800,000	0,036	-0,102
-126,512	-200,000	0,007	0,105
-125,497	163,768	0,052	0,053
-124,483	-200,000	0,003	0,140
-123,468	135,811	-0,073	0,069
-122,453	-171,657	0,064	-0,001
-121,439	-200,000	-0,010	-0,121
-120,424	608,111	-0,014	0,026
-119,410	-87,567	-0,093	0,020
-118,395	-32,769	0,052	0,021
-117,380	441,072	0,082	-0,131
-116,366	-200,000	0,016	-0,077
-115,351	-75,048	-0,061	0,016
-114,337	-57,010	-0,163	-0,052
-113,322	-200,000	-0,004	-0,039
-112,307	800,000	-0,045	0,106
-111,293	800,000	0,014	0,040
-110,278	39,094	0,051	0,033
-109,264	195,152	0,064	-0,070
-108,249	71,606	0,035	-0,026
-107,234	402,873	0,035	0,054
-106,220	15,096	-0,216	0,123
-105,205	-200,000	0,003	0,036
-104,191	800,000	-0,082	0,198
-103,176	-118,030	0,086	0,011
-102,162	-200,000	0,010	0,042
-101,147	110,773	-0,059	-0,051
-100,132	-71,621	-0,057	0,015
-99,118	-200,000	-0,045	-0,194
-98,103	-200,000	-0,010	-0,099
-97,089	800,000	-0,046	-0,097
-96,074	206,468	0,044	-0,050
-95,059	213,313	-0,087	0,100
-94,045	-129,431	-0,088	0,009
-93,030	800,000	-0,061	0,125
-92,016	-93,702	-0,157	-0,031
-91,001	197,797	0,095	-0,106
-89,986	-200,000	0,000	0,029
-88,972	-52,385	-0,051	0,017
-87,957	164,917	-0,077	0,079
-86,943	-20,239	-0,165	-0,073
-85,928	800,000	0,019	-0,049
-84,913	-136,375	0,100	-0,008
-83,899	-92,581	0,208	0,042
-82,884	78,172	-0,109	0,085
-81,870	11,791	0,059	-0,033
-80,855	204,447	-0,034	0,039
-79,840	708,777	-0,012	-0,023
-78,826	154,857	0,074	-0,074
-77,811	-31,465	0,082	0,033
-76,797	-56,022	-0,174	0,056
-75,782	-93,925	-0,072	-0,014
-74,767	-106,564	-0,081	0,013
-73,753	474,123	-0,015	0,025
-72,738	-200,000	-0,006	-0,056
-71,724	-200,000	-0,000	0,029
-70,709	535,839	0,029	-0,050
-69,694	133,474	-0,096	0,090
-68,680	92,457	-0,086	0,070
-67,665	800,000	0,014	0,039
-66,651	-13,926	0,092	-0,043
-65,636	-200,000	-0,005	0,058
-64,622	-200,000	0,002	0,039
-63,607	25,286	-0,114	-0,069
-62,592	-17,826	0,053	-0,024
-61,578	121,973	-0,048	-0,043
-60,563	60,423	0,108	0,078
-59,549	274,557	-0,041	0,053
-58,534	-109,502	-1,289	-0,195
-57,519	800,000	-0,716	-1,458
-56,505	-200,000	-0,827	-4,437
-55,490	-40,529	0,683	-0,256
-54,476	800,000	5,011	11,723
-53,461	-200,000	14,011	253,265
-52,446	-200,000	692,800	2239,306
-51,432	575,155	1623,423	2885,047
-50,417	117,616	1633,143	1457,118
-49,403	72,373	1286,943	971,330
-48,388	37,537	1023,183	656,738
-47,373	23,958	981,287	585,227
-46,359	23,167	970,813	576,368
-45,344	22,124	966,582	570,428
-44,330	22,158	964,895	569,519
-43,315	21,974	963,753	568,224
-42,300	21,934	962,698	567,450
-41,286	21,998	961,792	567,100
-40,271	21,903	960,780	566,173
-39,257	21,915	959,667	565,532
-38,242	21,920	958,742	564,983
-37,227	21,949	957,938	564,579
-36,213	21,903	957,185	563,964
-35,198	21,834	956,485	563,306
-34,184	21,979	955,499	563,172
-33,169	21,975	954,697	562,663
-32,154	21,976	953,789	562,111
-31,140	21,951	952,938	561,504
-30,125	22,016	951,981	561,129
-29,111	21,947	951,409	560,547
-28,096	21,988	950,469	560,102
-27,082	21,967	949,848	559,649
-26,067	21,979	949,102	559,226
-25,052	21,971	948,412	558,770
-24,038	21,945	947,740	558,269
-23,023	21,980	947,102	557,983
-22,009	22,034	946,519	557,788
-20,994	22,034	945,819	557,356
-19,979	22,007	945,186	556,874
-18,965	21,944	944,638	556,328
-17,950	21,954	943,994	555,957
-16,936	21,931	943,319	555,465
-15,921	21,906	942,604	554,945
-14,906	21,844	941,806	554,254
-13,892	21,930	941,104	554,093
-12,877	21,865	940,642	553,593
-11,863	21,854	939,936	553,118
-10,848	21,844	939,491	552,805
-9,833	21,943	939,033	552,826
-8,819	21,926	938,429	552,395
-7,804	21,892	937,544	551,744
-6,790	21,830	937,134	551,285
-5,775	21,885	936,540	551,088
-4,760	21,864	935,967	550,663
-3,746	21,825	935,346	550,151
-2,731	21,720	934,459	549,277
-1,717	21,639	934,010	548,734
-0,702	21,672	933,183	548,334
0,313	21,484	932,553	548,197
1,327	24,545	930,595	556,612
2,342	34,065	794,883	500,752
3,356	31,801	450,734	280,519
4,371	1,256	293,499	152,222
5,386	-3,400	274,570	137,990
6,400	-4,554	268,802	134,008
7,415	-5,100	266,554	132,374
8,429	-4,769	265,366	132,075
9,444	-5,030	264,523	131,406
10,459	-4,777	263,822	131,277
11,473	-5,022	263,470	130,867
12,488	-4,942	262,915	130,652
13,502	-5,110	262,369	130,217
14,517	-4,983	261,804	130,039
15,531	-5,016	261,420	129,808
16,546	-4,885	261,004	129,707
17,561	-4,950	260,852	129,561
18,575	-4,830	260,558	129,512
19,590	-4,966	260,225	129,213
20,604	-4,894	259,930	129,120
21,619	-4,848	259,487	128,929
22,634	-5,040	259,149	128,579
23,648	-4,954	258,937	128,538
24,663	-5,033	258,630	128,304
25,677	-4,997	258,423	128,222
26,692	-5,054	258,126	128,013
27,707	-5,076	257,938	127,888
28,721	-5,020	257,593	127,755
29,736	-5,151	257,384	127,525
30,750	-4,999	256,964	127,439
31,765	-5,042	256,873	127,345
32,780	-5,062	256,732	127,246
33,794	-5,122	256,465	127,049
34,809	-5,074	256,205	126,952
35,823	-4,940	255,917	126,915
36,838	-5,073	255,752	126,705
37,853	-5,153	255,587	126,542
38,867	-5,014	255,171	126,447
39,882	-5,162	255,029	126,235
40,896	-5,309	254,911	126,036
41,911	-4,857	254,555	126,245
42,926	-5,041	254,338	125,965
43,940	-5,233	254,255	125,745
44,955	-5,200	253,869	125,572
45,969	-5,131	253,642	125,508
46,984	-5,353	253,368	125,168
47,999	-5,365	253,132	125,030
49,013	-5,685	252,879	124,615
50,028	-5,793	252,599	124,373
51,042	-5,878	252,419	124,200
52,057	-5,837	252,216	124,124
53,071	-5,581	251,954	124,205
54,086	-5,633	251,900	124,123
55,101	-5,716	251,646	123,915
56,115	-5,392	251,622	124,172
57,130	-4,965	251,434	124,437
58,144	-4,964	251,403	124,412
59,159	-4,754	251,107	124,435
60,174	-5,001	250,900	124,109
61,188	-4,837	250,619	124,100
62,203	-4,906	250,565	124,003
63,217	-4,773	250,221	123,935
64,232	-5,013	250,188	123,702
65,247	-4,853	249,802	123,638
66,261	-4,946	249,678	123,485
67,276	-5,121	249,343	123,158
68,290	-5,208	249,052	122,930
69,305	-5,478	248,849	122,588
70,320	-5,243	248,678	122,693
71,334	-5,200	248,530	122,645
72,349	-4,761	248,281	122,886
73,363	-5,040	248,228	122,612
74,378	-4,828	247,862	122,600
75,393	-4,895	247,801	122,501
76,407	-4,988	247,452	122,239
77,422	-5,130	247,214	121,991
78,436	-4,844	247,191	122,211
79,451	-4,912	247,010	122,053
80,466	-5,038	246,781	121,822
81,480	-5,225	246,582	121,555
82,495	-5,311	246,316	121,341
83,509	-5,095	246,214	121,462
84,524	-5,199	245,851	121,184
85,539	-5,403	245,825	120,989
86,553	-5,310	245,666	120,977
87,568	-5,413	245,445	120,772
88,582	-5,187	245,169	120,815
89,597	-5,342	245,069	120,625
90,611	-5,018	244,856	120,781
91,626	-5,029	244,751	120,709
92,641	-4,935	244,413	120,610
93,655	-4,981	244,306	120,508
94,670	-5,134	244,064	120,250
95,684	-5,034	243,911	120,248
96,699	-5,254	243,839	120,017
97,714	-5,116	243,483	119,946
98,728	-5,332	243,462	119,746
99,743	-5,475	243,203	119,489
100,757	-5,543	242,917	119,281
101,772	-5,352	242,628	119,287
102,787	-5,314	242,651	119,319
103,801	-5,168	242,392	119,302
104,816	-5,130	242,389	119,321
105,830	-4,850	242,076	119,388
106,845	-4,833	241,911	119,311
107,860	-4,984	241,825	119,133
108,874	-5,035	241,565	118,952
109,889	-5,101	241,226	118,720
110,903	-5,169	241,262	118,671
111,918	-5,267	241,008	118,455
112,933	-5,291	240,979	118,411
113,947	-4,911	240,723	118,587
114,962	-5,012	240,592	118,428
115,976	-5,041	240,371	118,285
116,991	-4,981	240,300	118,289
118,006	-5,239	240,159	117,997
119,020	-5,154	239,941	117,950
120,035	-5,065	239,875	117,980
121,049	-4,941	239,704	117,986
122,064	-4,962	239,411	117,815
123,079	-4,979	239,243	117,707
124,093	-5,184	239,026	117,423
125,108	-5,336	238,848	117,201
126,122	-5,456	238,605	116,973
127,137	-5,347	238,323	116,913
128,151	-5,336	238,270	116,886
129,166	-5,330	238,053	116,774
130,181	-5,319	237,873	116,684
131,195	-5,251	237,651	116,620
132,210	-5,312	237,650	116,560
133,224	-5,182	237,385	116,524
134,239	-4,916	237,353	116,714
135,254	-5,077	237,273	116,534
136,268	-5,152	236,811	116,236
137,283	-5,379	236,648	115,963
138,297	-5,593	236,565	115,739
139,312	-5,457	236,360	115,738
140,327	-5,241	236,237	115,841
141,341	-4,838	236,047	116,062
142,356	-4,703	235,909	116,093
143,370	-4,556	235,630	116,062
144,385	-4,724	235,780	115,991
145,400	-4,686	235,435	115,842
146,414	-4,589	235,291	115,838
147,429	-4,692	235,058	115,631
148,443	-4,749	234,862	115,478
149,458	-4,606	234,738	115,521
150,473	-4,863	234,673	115,274
151,487	-4,870	234,449	115,148
152,502	-4,837	234,148	115,016
153,516	-4,764	234,210	115,095
154,531	-4,649	233,817	114,983
155,546	-4,812	233,791	114,830
156,560	-4,898	233,613	114,664
157,575	-4,961	233,460	114,528
158,589	-5,124	233,348	114,334
159,604	-4,626	233,134	114,614
160,619	-4,813	232,931	114,356
161,633	-4,699	232,802	114,373
162,648	-4,852	232,752	114,217
163,662	-4,700	232,581	114,243
164,677	-4,995	232,317	113,870
165,692	-4,846	232,206	113,923
166,706	-4,591	232,067	114,045
167,721	-4,429	231,788	114,026
168,735	-4,689	231,688	113,762
169,750	-4,994	231,744	113,539
170,764	-4,767	231,489	113,583
171,779	-4,605	231,273	113,594
172,794	-4,657	231,175	113,494
173,808	-4,716	230,977	113,341
174,823	-5,403	230,729	112,670
175,837	-5,280	230,554	112,672
176,852	-4,954	230,564	112,922
177,867	-4,879	230,396	112,888
178,881	-4,905	230,197	112,760
179,896	-4,731	230,051	112,815
180,910	-4,680	229,983	112,811
181,925	-4,549	229,786	112,807
182,940	-4,690	229,633	112,611
183,954	-4,662	229,433	112,525
184,969	-4,608	229,394	112,538
185,983	-4,610	229,157	112,410
186,998	-4,441	228,884	112,397
188,013	-4,414	228,780	112,358
189,027	-4,554	228,764	112,231
190,042	-4,455	228,476	112,156
191,056	-4,702	228,473	111,953
192,071	-4,325	228,153	112,078
193,086	-4,626	228,066	111,793
194,100	-4,660	227,949	111,699
195,115	-4,819	227,636	111,413
196,129	-5,241	227,455	110,989
197,144	-2,632	228,248	113,385
198,159	1,286	229,385	116,982
199,173	3,864	229,893	119,231
200,188	4,092	229,891	119,396
201,202	3,866	229,701	119,112
202,217	4,226	229,588	119,322
203,232	4,405	229,514	119,411
204,246	4,560	229,416	119,469
205,261	4,586	229,269	119,402
206,275	4,625	229,317	119,446
207,290	4,784	228,927	119,355
208,304	4,727	228,708	119,187
209,319	4,729	228,636	119,140
210,334	4,505	228,460	118,866
211,348	4,364	228,261	118,643
212,363	3,959	228,106	118,241
213,377	3,919	227,617	117,946
214,392	3,850	227,495	117,819
215,407	3,821	227,472	117,775
216,421	3,842	227,427	117,756
217,436	3,681	227,245	117,529
218,450	3,833	226,932	117,473
219,465	3,515	226,798	117,150
220,480	3,691	226,786	117,267
221,494	3,531	226,533	117,004
222,509	3,742	226,408	117,090
223,523	3,667	226,248	116,940
224,538	3,608	226,163	116,841
225,553	3,883	226,005	116,958
226,567	3,915	225,911	116,923
227,582	4,078	225,877	117,019
228,596	4,103	225,780	116,977
229,611	3,798	225,465	116,572
230,626	3,886	225,125	116,452
231,640	3,451	225,254	116,179
232,655	3,879	225,167	116,448
233,669	4,171	225,046	116,597
234,684	4,687	224,878	116,889
235,699	4,086	224,532	116,245
236,713	4,078	224,364	116,142
237,728	3,831	224,266	115,894
238,742	3,633	224,110	115,654
239,757	3,855	223,822	115,662
240,772	3,798	223,693	115,542
241,786	3,632	223,616	115,367
242,801	3,900	223,604	115,553
243,815	4,163	223,446	115,658
244,830	4,175	223,322	115,592
245,844	3,918	223,076	115,262
246,859	4,016	222,842	115,204
247,874	4,075	222,796	115,215
248,888	4,115	222,771	115,221
249,903	3,916	222,490	114,917
250,917	3,908	222,244	114,774
251,932	3,845	222,192	114,689
252,947	3,695	221,943	114,439
253,961	3,693	221,889	114,400
254,976	3,494	221,824	114,207
255,990	3,884	221,683	114,415
257,005	3,858	221,612	114,349
258,020	3,871	221,559	114,321
259,034	4,260	221,299	114,465
260,049	4,079	221,145	114,241
261,063	4,207	220,885	114,192
262,078	4,192	220,830	114,142
263,093	4,281	220,815	114,191
264,107	4,296	220,594	114,077
265,122	4,025	220,493	113,814
266,136	4,283	220,378	113,935
267,151	4,149	220,248	113,758
268,166	3,909	219,899	113,391
269,180	3,759	219,787	113,213
270,195	3,752	219,693	113,149
271,209	3,625	219,452	112,922
272,224	3,789	219,381	112,995
273,239	3,917	219,258	113,016
274,253	3,854	218,958	112,805
275,268	3,804	218,913	112,735
276,282	3,658	218,650	112,483
277,297	3,560	218,565	112,357
278,312	3,625	218,495	112,359
279,326	3,717	218,485	112,411
280,341	3,856	218,112	112,310
281,355	3,793	218,066	112,231
282,370	3,782	217,935	112,145
283,384	3,616	217,698	111,893
284,399	3,676	217,534	111,842
285,414	3,450	217,472	111,635
286,428	3,590	217,403	111,692
287,443	4,025	217,282	111,936
288,457	4,105	217,105	111,893
289,472	4,062	216,864	111,728
290,487	3,376	216,718	111,145
291,501	3,111	216,596	110,880
292,516	3,592	216,479	111,160
293,530	3,472	216,381	111,012
294,545	3,293	216,180	110,769
295,560	3,723	216,093	111,026
296,574	3,852	216,069	111,097
297,589	3,680	216,000	110,927
298,603	3,974	215,756	111,004
299,618	3,764	215,680	110,804
300,633	3,678	215,474	110,627
301,647	3,969	215,500	110,839
302,662	4,064	215,319	110,804
303,676	4,032	215,088	110,653
304,691	4,197	214,898	110,663
305,706	4,014	214,880	110,513
306,720	4,015	214,704	110,414
307,735	3,861	214,616	110,248
308,749	3,637	214,366	109,950
309,764	3,880	214,309	110,085
310,779	3,960	214,271	110,113
311,793	4,080	214,019	110,059
312,808	3,913	213,915	109,877
313,822	3,902	213,697	109,747
314,837	3,966	213,584	109,724
315,852	3,718	213,335	109,410
316,866	3,785	213,215	109,386
317,881	3,986	213,100	109,461
318,895	4,341	212,986	109,645
319,910	3,770	212,927	109,199
320,925	3,602	212,677	108,941
321,939	3,199	212,424	108,516
322,954	3,223	212,491	108,558
323,968	3,981	212,286	108,980
324,983	3,818	212,261	108,843
325,997	3,910	212,112	108,822
327,012	3,806	212,053	108,708
328,027	3,902	212,006	108,742
329,041	3,989	211,775	108,676
330,056	4,347	211,597	108,827
331,070	3,813	211,509	108,396
332,085	3,448	211,378	108,062
333,100	3,666	211,202	108,115
334,114	3,718	211,049	108,064
335,129	3,776	210,885	108,011
336,143	3,797	210,660	107,901
337,158	3,860	210,568	107,889
338,173	3,759	210,346	107,694
339,187	3,645	210,219	107,540
340,202	3,599	210,049	107,411
341,216	3,564	209,909	107,305
342,231	3,784	209,854	107,421
343,246	3,547	209,624	107,129
344,260	3,561	209,560	107,096
345,275	3,703	209,428	107,118
346,289	3,995	209,491	107,345
347,304	4,203	209,235	107,349
348,319	3,734	209,204	106,996
349,333	3,777	208,958	106,891
350,348	4,002	208,930	107,024
351,362	3,953	208,818	106,923
352,377	3,832	208,659	106,748
353,392	3,716	208,553	106,603
354,406	3,938	208,397	106,669
355,421	193,928	1345,200	1432,673
356,435	154,734	1483,802	1432,784
