DTS Sentinel unit serial number:	SN410029Multiplexer serial number:	ORYXHardware model number:	OX2-SRSoftware version number:	ORYX F/W v4,00 Oryx Data Collector v3.7.2.0data status	okinstallation	B6 Nyhavnadifferential loss correction	single-endedforward channel	channel 2reverse channel	N/Adate	2023/12/11time	00:05:08forward acquisition time	300,00reverse acquisition time	0,00gamma	499,1914k internal	0,3122k external	0,3122temperature offset calibration	1,0000default loss term (dB/km)	0,3820temperature slope calibration	1,0000multiplexer offset coefficient	1,0000multiplexer slope coefficient	1,0000fibre end	0,00T internal ref (°C)	22,38T ext. ref 1 (°C)	5,96T ext. ref 2 (°C)	5,98length (m)	temperature (°C)	Stokes	anti-Stokes-744,400	800,000	0,046	-0,112
-743,385	-22,772	-0,272	0,122
-742,371	55,853	0,046	-0,033
-741,356	283,423	-0,142	0,190
-740,342	800,000	0,016	-0,049
-739,327	313,342	-0,138	0,194
-738,312	-27,253	0,063	-0,027
-737,298	782,923	-0,095	0,196
-736,283	800,000	-0,015	0,032
-735,269	-33,256	-0,171	0,070
-734,254	10,215	0,107	-0,060
-733,239	-0,437	-0,377	-0,199
-732,225	-125,635	0,098	0,011
-731,210	-200,000	0,009	-0,081
-730,196	7,819	-0,034	0,019
-729,181	-9,466	0,016	0,008
-728,167	84,374	-0,049	0,040
-727,152	426,734	-0,014	0,022
-726,137	460,834	0,112	-0,187
-725,123	455,979	-0,079	0,131
-724,108	-0,852	-0,064	0,034
-723,094	-200,000	-0,007	-0,151
-722,079	800,000	0,057	-0,135
-721,064	-200,000	0,003	0,108
-720,050	-108,639	0,105	0,017
-719,035	-57,762	-0,053	0,017
-718,021	800,000	0,022	0,051
-717,006	-81,119	-0,137	0,033
-715,991	-150,298	-0,155	-0,009
-714,977	-9,292	-0,101	-0,050
-713,962	-19,617	-0,082	-0,038
-712,948	13,432	-0,051	-0,030
-711,933	-200,000	0,006	0,094
-710,918	276,462	-0,056	-0,074
-709,904	53,556	-0,127	0,090
-708,889	-145,394	-0,075	-0,005
-707,875	-27,067	0,141	-0,061
-706,860	-15,357	0,101	0,048
-705,845	-51,532	0,034	0,012
-704,831	800,000	0,005	0,014
-703,816	220,520	0,063	-0,076
-702,802	-158,949	-0,120	0,005
-701,787	-81,787	-0,114	0,028
-700,772	-200,000	0,004	-0,046
-699,758	-84,124	-0,082	0,019
-698,743	800,000	0,054	0,136
-697,729	-200,000	0,021	0,093
-696,714	-101,940	0,083	0,015
-695,699	64,293	0,127	0,095
-694,685	86,535	0,027	0,022
-693,670	-200,000	0,045	0,155
-692,656	35,780	-0,137	-0,089
-691,641	395,577	0,046	0,071
-690,627	-47,239	0,091	0,033
-689,612	-81,714	0,057	0,014
-688,597	800,000	-0,043	-0,094
-687,583	486,625	-0,045	-0,077
-686,568	480,894	0,016	-0,028
-685,554	-166,445	0,075	-0,002
-684,539	95,617	-0,039	0,033
-683,524	76,746	-0,063	-0,050
-682,510	169,901	0,069	-0,073
-681,495	-135,160	0,049	0,004
-680,481	142,356	0,102	0,101
-679,466	35,125	-0,115	-0,075
-678,451	-200,000	0,026	-0,115
-677,437	-56,005	0,100	0,033
-676,422	559,360	0,064	0,116
-675,408	-30,466	-0,073	-0,030
-674,393	-76,956	0,024	0,006
-673,378	-34,105	-0,182	-0,074
-672,364	-194,274	0,070	-0,000
-671,349	64,384	0,039	-0,029
-670,335	-200,000	-0,006	0,028
-669,320	20,581	-0,090	-0,054
-668,305	-20,953	-0,068	0,031
-667,291	-113,586	0,147	-0,021
-666,276	-200,000	0,005	-0,033
-665,262	800,000	-0,068	-0,148
-664,247	-200,000	0,027	-0,182
-663,232	-51,783	-0,031	-0,011
-662,218	-65,976	0,119	0,035
-661,203	-80,854	-0,094	-0,023
-660,189	325,964	-0,016	0,022
-659,174	800,000	-0,044	-0,096
-658,159	800,000	0,026	0,062
-657,145	-200,000	-0,002	0,020
-656,130	10,004	-0,030	-0,017
-655,116	-71,183	-0,117	0,032
-654,101	41,032	0,059	0,039
-653,086	207,163	0,082	0,095
-652,072	800,000	0,061	-0,128
-651,057	-29,224	-0,066	-0,028
-650,043	12,027	0,089	0,051
-649,028	-70,000	0,069	0,019
-648,014	-181,753	-0,091	-0,001
-646,999	800,000	-0,025	-0,060
-645,984	371,808	-0,028	0,043
-644,970	-99,872	-0,061	-0,011
-643,955	-131,311	0,104	-0,010
-642,941	194,400	-0,100	-0,113
-641,926	174,492	0,042	-0,045
-640,911	54,782	-0,033	-0,024
-639,897	4,676	-0,078	0,042
-638,882	-114,177	0,154	0,022
-637,868	717,663	0,024	0,048
-636,853	-200,000	-0,001	0,014
-635,838	-200,000	0,025	-0,108
-634,824	201,946	-0,051	0,059
-633,809	414,368	0,072	-0,115
-632,795	58,741	-0,096	-0,070
-631,780	65,070	-0,126	-0,094
-630,765	-200,000	-0,016	0,112
-629,751	-200,000	-0,008	-0,179
-628,736	-117,599	-0,089	-0,012
-627,722	238,852	0,074	-0,091
-626,707	800,000	0,039	-0,128
-625,692	175,217	0,125	0,135
-624,678	269,080	-0,091	-0,118
-623,663	800,000	0,015	-0,037
-622,649	19,626	-0,062	0,037
-621,634	72,426	-0,088	0,068
-620,619	43,357	-0,062	0,042
-619,605	-200,000	0,019	-0,079
-618,590	-49,982	0,073	0,026
-617,576	-200,000	-0,022	0,222
-616,561	-35,866	-0,095	-0,038
-615,546	-123,985	-0,044	0,005
-614,532	800,000	-0,013	-0,034
-613,517	-58,819	-0,057	0,018
-612,503	-35,025	0,046	0,019
-611,488	-75,529	-0,034	-0,009
-610,474	-147,153	0,032	0,002
-609,459	-200,000	0,009	-0,036
-608,444	-140,943	-0,093	0,007
-607,430	-180,537	-0,042	-0,001
-606,415	9,409	-0,101	-0,056
-605,401	-80,895	-0,018	-0,005
-604,386	-200,000	-0,006	0,059
-603,371	-153,036	-0,122	0,006
-602,357	37,900	-0,016	-0,011
-601,342	-200,000	0,002	-0,097
-600,328	169,601	0,071	-0,075
-599,313	190,348	-0,052	0,057
-598,298	-17,309	-0,084	-0,039
-597,284	113,004	0,118	0,106
-596,269	159,331	0,101	0,105
-595,255	-26,803	-0,047	-0,020
-594,240	-81,154	-0,060	-0,015
-593,225	201,637	0,060	0,069
-592,211	312,817	0,042	0,059
-591,196	800,000	-0,079	-0,179
-590,182	-27,202	-0,085	-0,036
-589,167	-20,818	0,053	0,024
-588,152	-120,913	0,168	0,021
-587,138	-96,251	0,104	0,020
-586,123	-200,000	-0,021	-0,109
-585,109	800,000	0,022	-0,068
-584,094	-31,101	-0,132	0,055
-583,079	-200,000	0,008	-0,060
-582,065	-200,000	-0,005	-0,063
-581,050	46,232	-0,102	0,070
-580,036	-155,976	-0,064	-0,003
-579,021	-200,000	-0,014	0,195
-578,006	-71,995	-0,204	0,056
-576,992	88,945	0,051	0,042
-575,977	-87,215	-0,057	-0,013
-574,963	215,955	-0,027	-0,032
-573,948	2,619	0,049	0,026
-572,934	-200,000	0,030	-0,191
-571,919	-102,401	0,099	-0,017
-570,904	-77,687	0,053	-0,013
-569,890	37,980	-0,087	0,057
-568,875	234,528	0,062	-0,076
-567,861	-70,886	0,025	0,007
-566,846	-200,000	0,000	-0,015
-565,831	-156,766	0,078	-0,003
-564,817	24,452	-0,050	-0,030
-563,802	131,701	-0,129	0,123
-562,788	-37,189	-0,083	0,033
-561,773	-200,000	0,016	-0,079
-560,758	-200,000	0,002	-0,014
-559,744	-200,000	-0,005	0,159
-558,729	546,407	0,039	-0,070
-557,715	800,000	0,044	0,102
-556,700	-36,215	-0,134	0,053
-555,685	147,032	-0,020	0,020
-554,671	-102,879	0,092	0,016
-553,656	-200,000	0,000	0,064
-552,642	-37,995	0,143	0,056
-551,627	21,023	-0,065	0,039
-550,612	109,305	0,043	-0,038
-549,598	-55,798	-0,141	0,046
-548,583	174,528	-0,094	0,100
-547,569	-30,134	0,069	0,029
-546,554	304,035	-0,026	-0,035
-545,539	800,000	-0,061	-0,155
-544,525	360,733	-0,017	-0,025
-543,510	194,523	0,103	-0,116
-542,496	93,450	-0,081	-0,068
-541,481	800,000	-0,025	0,076
-540,466	-151,232	0,123	0,007
-539,452	-138,828	0,191	0,015
-538,437	59,876	-0,086	-0,063
-537,423	-127,996	0,093	0,010
-536,408	119,364	0,011	-0,010
-535,393	-200,000	0,006	-0,179
-534,379	1,126	-0,019	0,010
-533,364	800,000	-0,055	-0,113
-532,350	-14,600	0,092	-0,044
-531,335	156,688	-0,036	0,036
-530,321	33,293	0,027	0,017
-529,306	217,967	0,047	-0,055
-528,291	-200,000	0,015	-0,158
-527,277	-62,155	-0,133	-0,041
-526,262	-90,127	0,068	0,014
-525,248	-200,000	-0,013	0,123
-524,233	784,457	0,073	-0,148
-523,218	402,884	0,077	0,121
-522,204	-96,633	0,039	0,008
-521,189	-200,000	-0,009	0,043
-520,175	-200,000	-0,015	-0,182
-519,160	264,615	-0,074	-0,096
-518,145	-15,049	0,124	-0,059
-517,131	632,264	0,009	-0,017
-516,116	524,314	0,103	0,180
-515,102	87,699	0,044	0,036
-514,087	236,761	-0,072	0,088
-513,072	-200,000	0,002	0,045
-512,058	800,000	-0,042	-0,113
-511,043	-200,000	0,004	0,066
-510,029	-200,000	0,060	0,200
-509,014	-40,833	0,043	-0,016
-507,999	497,231	-0,090	0,153
-506,985	800,000	-0,022	-0,056
-505,970	269,086	-0,128	-0,166
-504,956	-200,000	0,015	-0,079
-503,941	524,281	0,033	0,058
-502,926	-200,000	0,020	-0,100
-501,912	101,270	0,088	0,076
-500,897	-107,135	0,187	0,030
-499,883	-61,307	0,040	-0,013
-498,868	-200,000	0,022	-0,084
-497,853	-200,000	0,024	-0,108
-496,839	800,000	-0,020	-0,063
-495,824	208,849	0,125	0,145
-494,810	33,607	0,129	0,083
-493,795	-200,000	-0,015	-0,105
-492,781	575,855	-0,033	-0,060
-491,766	588,353	-0,085	-0,155
-490,751	-200,000	0,005	-0,062
-489,737	389,246	0,024	0,037
-488,722	-200,000	0,027	0,109
-487,708	-200,000	0,040	0,143
-486,693	472,707	-0,026	-0,043
-485,678	-119,877	-0,195	0,024
-484,664	88,170	-0,025	-0,021
-483,649	-200,000	-0,010	0,064
-482,635	103,658	0,069	-0,060
-481,620	-200,000	0,002	0,105
-480,605	249,043	0,070	-0,088
-479,591	55,270	0,051	0,036
-478,576	156,020	0,060	0,061
-477,562	-89,381	-0,092	-0,020
-476,547	-108,558	-0,159	-0,025
-475,532	-10,835	-0,072	0,035
-474,518	486,881	0,022	-0,038
-473,503	-175,753	0,122	-0,002
-472,489	-68,506	0,071	-0,020
-471,474	-200,000	0,002	-0,070
-470,459	-76,915	-0,104	-0,026
-469,445	-143,963	-0,046	0,003
-468,430	323,337	-0,038	-0,053
-467,416	800,000	0,022	-0,056
-466,401	-116,258	-0,039	-0,005
-465,386	109,022	-0,036	0,032
-464,372	-200,000	-0,021	-0,128
-463,357	164,958	-0,073	-0,076
-462,343	10,403	-0,115	-0,065
-461,328	191,403	-0,037	0,041
-460,313	107,648	0,043	0,038
-459,299	38,610	-0,146	0,096
-458,284	800,000	0,043	0,099
-457,270	-200,000	-0,026	0,118
-456,255	98,876	0,063	-0,054
-455,241	38,843	0,061	-0,040
-454,226	800,000	0,016	0,051
-453,211	60,185	-0,056	-0,041
-452,197	-12,416	0,129	0,062
-451,182	791,135	0,047	0,095
-450,168	-50,640	0,152	0,053
-449,153	428,173	0,039	-0,062
-448,138	88,026	0,095	-0,078
-447,124	-116,065	-0,143	0,019
-446,109	800,000	0,029	-0,060
-445,095	261,456	0,138	0,177
-444,080	25,204	0,077	0,047
-443,065	192,759	-0,110	0,123
-442,051	-45,511	-0,119	0,043
-441,036	-200,000	0,002	-0,064
-440,022	53,349	-0,077	0,054
-439,007	204,605	-0,129	0,148
-437,992	34,892	-0,082	0,053
-436,978	707,448	0,119	0,233
-435,963	-16,612	0,052	0,024
-434,949	-200,000	-0,013	-0,053
-433,934	800,000	-0,042	-0,117
-432,919	800,000	0,044	-0,116
-431,905	-200,000	-0,008	-0,061
-430,890	53,909	0,064	-0,046
-429,876	-157,693	0,116	-0,005
-428,861	300,542	0,023	-0,031
-427,846	5,515	-0,101	-0,055
-426,832	22,903	-0,095	-0,057
-425,817	-42,716	-0,077	0,029
-424,803	800,000	-0,030	0,087
-423,788	-111,281	0,071	0,011
-422,773	300,009	-0,041	0,056
-421,759	248,543	0,064	0,080
-420,744	-57,884	-0,077	-0,025
-419,730	-200,000	-0,036	-0,118
-418,715	749,395	0,037	-0,074
-417,701	800,000	0,014	-0,030
-416,686	-128,629	0,149	0,015
-415,671	1,808	0,091	0,048
-414,657	67,010	0,078	0,059
-413,642	800,000	-0,015	-0,046
-412,628	800,000	-0,025	-0,070
-411,613	599,263	-0,071	-0,129
-410,598	-31,468	-0,111	-0,046
-409,584	143,745	-0,076	-0,075
-408,569	-53,543	0,050	0,017
-407,555	800,000	0,070	0,179
-406,540	-54,583	0,112	0,037
-405,525	-63,325	-0,104	-0,031
-404,511	-200,000	-0,023	-0,106
-403,496	53,713	-0,109	-0,077
-402,482	-200,000	0,016	-0,079
-401,467	-200,000	0,041	-0,229
-400,452	-200,000	0,012	0,174
-399,438	-200,000	-0,025	0,116
-398,423	-200,000	0,017	-0,074
-397,409	-127,963	-0,152	0,016
-396,394	800,000	0,038	-0,081
-395,379	800,000	-0,013	-0,030
-394,365	800,000	0,029	0,088
-393,350	-173,187	0,099	-0,002
-392,336	800,000	-0,039	-0,082
-391,321	392,851	0,071	-0,110
-390,306	569,573	0,069	-0,124
-389,292	-52,588	-0,093	-0,032
-388,277	-60,291	0,044	-0,014
-387,263	-43,058	0,074	-0,027
-386,248	299,147	0,036	0,049
-385,233	-200,000	-0,004	-0,033
-384,219	-110,476	-0,073	0,011
-383,204	43,239	-0,031	-0,021
-382,190	114,241	-0,053	-0,047
-381,175	-200,000	-0,008	-0,103
-380,160	-63,155	0,092	-0,028
-379,146	-37,936	0,060	0,023
-378,131	-200,000	0,009	0,094
-377,117	800,000	-0,045	0,094
-376,102	42,147	-0,090	0,060
-375,088	3,265	-0,115	0,062
-374,073	27,240	-0,021	-0,013
-373,058	800,000	-0,040	-0,102
-372,044	157,146	0,047	0,048
-371,029	-16,389	0,095	-0,044
-370,015	401,742	0,033	-0,051
-369,000	-139,303	-0,149	-0,012
-367,985	414,032	0,063	0,098
-366,971	178,920	-0,018	0,019
-365,956	-200,000	-0,002	-0,025
-364,942	705,634	0,044	0,087
-363,927	290,159	-0,061	0,082
-362,912	-200,000	-0,014	0,088
-361,898	88,884	-0,112	0,092
-360,883	65,767	0,092	0,068
-359,869	-53,140	0,118	0,040
-358,854	187,195	-0,043	-0,048
-357,839	-200,000	0,006	0,098
-356,825	800,000	0,004	0,007
-355,810	-42,165	0,119	-0,044
-354,796	-200,000	0,002	-0,108
-353,781	-113,947	-0,056	0,008
-352,766	183,226	0,016	-0,017
-351,752	378,325	0,057	0,086
-350,737	800,000	-0,011	0,036
-349,723	-200,000	0,004	-0,014
-348,708	-80,987	0,061	0,015
-347,693	-200,000	0,010	0,125
-346,679	397,310	-0,089	-0,137
-345,664	459,081	-0,083	-0,136
-344,650	-200,000	0,020	0,132
-343,635	-164,814	-0,047	0,002
-342,620	-150,987	0,086	-0,005
-341,606	800,000	-0,040	-0,102
-340,591	-41,862	0,100	-0,038
-339,577	-200,000	0,100	0,000
-338,562	-58,659	-0,108	-0,034
-337,548	-200,000	-0,019	-0,151
-336,533	61,165	-0,037	-0,027
-335,518	-31,881	0,022	0,009
-334,504	66,085	-0,037	0,027
-333,489	464,512	-0,020	-0,033
-332,475	-7,197	-0,143	0,071
-331,460	109,705	0,151	-0,132
-330,445	-9,389	0,019	0,009
-329,431	117,268	0,114	0,103
-328,416	800,000	-0,029	-0,083
-327,402	-35,598	0,163	-0,065
-326,387	38,396	0,124	0,081
-325,372	27,762	-0,063	0,039
-324,358	-200,000	0,005	0,117
-323,343	-16,233	0,041	0,019
-322,329	800,000	-0,026	0,069
-321,314	-108,585	0,056	0,009
-320,299	89,460	-0,048	-0,039
-319,285	800,000	-0,077	-0,169
-318,270	469,324	-0,037	0,061
-317,256	44,992	-0,033	-0,022
-316,241	-200,000	0,008	0,078
-315,226	-200,000	-0,022	0,083
-314,212	-200,000	-0,007	0,166
-313,197	477,842	0,058	0,096
-312,183	43,677	0,059	0,040
-311,168	-48,975	0,102	0,036
-310,153	-145,690	-0,083	-0,005
-309,139	-6,435	0,032	-0,016
-308,124	-17,554	0,048	-0,022
-307,110	5,418	0,062	-0,033
-306,095	-77,798	0,106	0,027
-305,080	-200,000	0,096	0,000
-304,066	80,840	-0,090	0,071
-303,051	-200,000	0,022	-0,127
-302,037	-200,000	0,018	0,088
-301,022	-134,368	-0,059	-0,005
-300,008	85,878	0,086	0,069
-298,993	-100,546	-0,121	0,022
-297,978	142,388	0,013	-0,013
-296,964	-200,000	-0,039	-0,128
-295,949	85,204	-0,087	-0,070
-294,935	462,879	-0,075	-0,124
-293,920	121,657	-0,048	-0,044
-292,905	-200,000	-0,009	-0,052
-291,891	-150,441	-0,102	-0,006
-290,876	110,474	0,041	-0,036
-289,862	-30,401	0,057	-0,024
-288,847	800,000	-0,057	-0,170
-287,832	-128,910	0,033	0,003
-286,818	-200,000	0,019	0,073
-285,803	50,585	-0,048	-0,034
-284,789	333,840	-0,034	0,049
-283,774	477,356	0,071	0,117
-282,759	800,000	0,041	0,090
-281,745	-200,000	-0,023	-0,166
-280,730	707,722	0,032	-0,062
-279,716	104,367	0,096	-0,083
-278,701	-200,000	0,009	-0,035
-277,686	-89,676	0,106	0,023
-276,672	662,970	-0,035	-0,067
-275,657	-200,000	0,002	0,052
-274,643	234,260	0,009	0,011
-273,628	-163,812	-0,142	-0,005
-272,613	-102,265	-0,106	0,018
-271,599	-200,000	-0,004	-0,025
-270,584	-200,000	0,001	0,076
-269,570	-200,000	0,007	0,056
-268,555	181,985	-0,065	-0,070
-267,540	-7,496	-0,075	0,037
-266,526	113,614	-0,039	-0,035
-265,511	-200,000	-0,019	-0,170
-264,497	242,238	-0,020	-0,024
-263,482	9,956	0,085	-0,047
-262,467	-153,390	0,113	0,006
-261,453	290,237	-0,050	-0,067
-260,438	183,836	0,081	0,087
-259,424	26,126	0,043	-0,026
-258,409	92,445	-0,028	-0,023
-257,395	104,273	0,028	-0,024
-256,380	538,742	0,071	-0,125
-255,365	-40,659	-0,096	0,036
-254,351	800,000	-0,022	-0,044
-253,336	-130,909	-0,041	-0,004
-252,322	-91,244	0,046	0,010
-251,307	7,014	-0,111	0,061
-250,292	-200,000	0,028	0,120
-249,278	-200,000	-0,013	0,172
-248,263	-200,000	-0,008	0,148
-247,249	217,451	0,010	0,011
-246,234	-177,260	0,102	-0,002
-245,219	548,208	0,029	-0,052
-244,205	-200,000	-0,017	0,060
-243,190	84,775	0,075	0,060
-242,176	97,554	-0,123	0,103
-241,161	14,293	0,039	-0,022
-240,146	-200,000	-0,020	0,175
-239,132	27,717	-0,021	-0,013
-238,117	287,791	-0,058	0,077
-237,103	7,247	0,011	0,006
-236,088	-110,420	-0,063	0,010
-235,073	-28,338	0,061	0,026
-234,059	87,470	-0,120	0,097
-233,044	31,226	0,164	0,102
-232,030	239,113	0,038	-0,047
-231,015	37,269	-0,072	0,046
-230,000	-84,868	-0,063	-0,014
-228,986	472,148	0,019	-0,032
-227,971	-200,000	-0,022	0,091
-226,957	-200,000	0,007	0,107
-225,942	-118,172	-0,066	0,008
-224,927	569,431	-0,003	-0,006
-223,913	-200,000	-0,021	-0,087
-222,898	301,189	-0,027	0,037
-221,884	497,714	-0,056	0,094
-220,869	-200,000	0,016	0,166
-219,855	800,000	-0,018	-0,055
-218,840	497,568	0,056	-0,095
-217,825	425,806	0,092	0,145
-216,811	305,905	0,033	0,044
-215,796	800,000	-0,029	-0,082
-214,782	-200,000	0,027	0,109
-213,767	-18,621	0,055	-0,025
-212,752	304,354	-0,012	0,016
-211,738	800,000	-0,026	-0,076
-210,723	-19,882	-0,113	-0,051
-209,709	800,000	0,035	0,105
-208,694	123,742	-0,052	-0,048
-207,679	-59,115	-0,056	0,018
-206,665	27,880	0,081	0,050
-205,650	-92,366	-0,033	-0,007
-204,636	3,680	0,074	0,039
-203,621	-81,294	-0,044	-0,011
-202,606	-175,579	-0,149	0,003
-201,592	800,000	0,025	0,065
-200,577	735,928	0,032	0,064
-199,563	-200,000	-0,013	-0,060
-198,548	-32,859	0,139	0,056
-197,533	-200,000	-0,019	0,083
-196,519	-24,899	0,121	0,052
-195,504	123,220	0,090	0,083
-194,490	-69,642	-0,060	-0,017
-193,475	-200,000	0,011	0,088
-192,460	-200,000	0,030	0,133
-191,446	155,053	0,114	0,115
-190,431	-200,000	0,016	0,085
-189,417	665,306	0,046	0,086
-188,402	-134,138	0,149	-0,013
-187,387	800,000	-0,040	-0,097
-186,373	78,104	-0,089	0,069
-185,358	-200,000	-0,003	0,017
-184,344	135,701	-0,050	-0,048
-183,329	800,000	-0,009	-0,029
-182,315	-88,701	0,127	-0,027
-181,300	-134,769	-0,045	-0,004
-180,285	800,000	-0,025	0,056
-179,271	800,000	-0,015	-0,043
-178,256	-200,000	0,033	0,137
-177,242	-18,182	0,082	-0,037
-176,227	800,000	-0,074	-0,156
-175,212	540,714	-0,037	-0,064
-174,198	497,865	0,033	-0,055
-173,183	-200,000	0,001	-0,019
-172,169	-123,356	-0,097	0,011
-171,154	-200,000	0,017	-0,112
-170,139	69,004	0,081	0,061
-169,125	-9,107	-0,135	0,066
-168,110	-200,000	-0,034	0,114
-167,096	800,000	-0,008	0,020
-166,081	-64,961	-0,007	0,002
-165,066	-149,326	-0,097	0,006
-164,052	800,000	0,053	-0,136
-163,037	80,535	0,028	-0,022
-162,023	-200,000	0,007	-0,079
-161,008	182,309	0,046	-0,049
-159,993	-127,850	0,158	-0,016
-158,979	797,756	-0,070	-0,141
-157,964	-200,000	0,047	-0,159
-156,950	-200,000	0,007	-0,027
-155,935	-31,748	0,111	-0,045
-154,920	590,750	-0,064	-0,115
-153,906	-200,000	-0,009	0,042
-152,891	135,913	-0,062	0,059
-151,877	-96,604	-0,125	-0,024
-150,862	560,566	0,044	-0,079
-149,847	-57,932	-0,119	0,038
-148,833	484,122	0,052	0,086
-147,818	-3,075	0,114	0,058
-146,804	-15,282	0,077	-0,036
-145,789	59,447	-0,044	-0,032
-144,775	-200,000	-0,002	0,044
-143,760	-107,033	0,078	-0,012
-142,745	406,292	0,051	-0,079
-141,731	166,530	-0,076	0,078
-140,716	-188,217	0,082	-0,001
-139,702	-200,000	-0,012	0,113
-138,687	230,356	-0,058	0,069
-137,672	529,633	-0,070	0,121
-136,658	-200,000	0,029	-0,109
-135,643	696,954	-0,062	0,120
-134,629	235,546	0,063	0,076
-133,614	613,454	-0,068	-0,124
-132,599	-200,000	0,002	-0,040
-131,585	800,000	-0,055	0,111
-130,570	-200,000	0,007	0,047
-129,556	635,025	0,032	0,060
-128,541	-200,000	-0,003	-0,177
-127,526	-55,080	0,023	-0,007
-126,512	77,679	-0,077	-0,060
-125,497	-110,425	0,186	-0,028
-124,483	119,001	0,137	0,124
-123,468	23,740	-0,129	0,077
-122,453	-200,000	-0,003	-0,129
-121,439	-14,536	-0,123	-0,057
-120,424	770,770	0,022	-0,044
-119,410	154,210	0,037	-0,037
-118,395	12,664	0,093	0,052
-117,380	800,000	0,022	0,061
-116,366	327,288	-0,074	0,104
-115,351	-125,826	0,105	-0,011
-114,337	-99,241	0,055	-0,010
-113,322	-200,000	-0,013	-0,050
-112,307	-88,871	0,163	-0,035
-111,293	-102,777	0,126	0,022
-110,278	22,602	-0,013	-0,008
-109,264	-72,859	0,052	0,014
-108,249	-127,898	-0,055	0,006
-107,234	28,734	0,031	-0,019
-106,220	-118,051	-0,144	-0,018
-105,205	-84,758	0,111	0,025
-104,191	800,000	-0,014	0,041
-103,176	-44,426	-0,023	-0,008
-102,162	263,135	0,031	0,039
-101,147	-60,961	-0,077	-0,023
-100,132	-77,481	0,176	-0,044
-99,118	-101,271	0,066	-0,012
-98,103	800,000	0,020	-0,061
-97,089	-200,000	-0,012	0,062
-96,074	-200,000	-0,036	0,000
-95,059	154,517	0,089	0,089
-94,045	22,070	-0,085	0,051
-93,030	194,317	-0,033	-0,037
-92,016	-52,409	0,028	0,010
-91,001	797,088	-0,007	0,015
-89,986	128,992	0,060	0,056
-88,972	-200,000	-0,002	0,162
-87,957	-179,619	0,043	0,001
-86,943	-200,000	-0,006	-0,046
-85,928	-144,889	0,107	-0,007
-84,913	240,494	-0,029	0,036
-83,899	54,969	0,112	0,079
-82,884	-200,000	0,041	-0,141
-81,870	87,966	0,112	0,090
-80,855	-200,000	0,018	0,076
-79,840	800,000	-0,018	-0,041
-78,826	-2,819	0,052	0,026
-77,811	-102,530	0,115	-0,020
-76,797	-200,000	0,004	0,082
-75,782	800,000	0,013	-0,030
-74,767	800,000	-0,026	0,054
-73,753	-101,399	0,065	-0,011
-72,738	83,109	0,125	0,099
-71,724	800,000	-0,012	-0,031
-70,709	-129,637	-0,104	0,010
-69,694	31,027	-0,076	0,047
-68,680	757,975	0,029	0,057
-67,665	-122,233	0,257	-0,030
-66,651	800,000	0,043	-0,119
-65,636	-200,000	-0,022	0,096
-64,622	-164,276	0,062	0,002
-63,607	-192,351	-0,182	0,001
-62,592	-200,000	-0,005	-0,103
-61,578	800,000	0,036	-0,108
-60,563	-51,276	0,089	-0,030
-59,549	305,989	0,075	0,102
-58,534	-162,809	-1,433	-0,050
-57,519	376,578	-0,874	-1,300
-56,505	-200,000	-0,924	-4,368
-55,490	25,724	0,505	-0,304
-54,476	800,000	4,980	11,895
-53,461	-200,000	13,480	252,858
-52,446	-200,000	689,665	2259,734
-51,432	591,908	1622,242	2919,049
-50,417	119,350	1634,930	1468,502
-49,403	73,262	1288,920	977,458
-48,388	38,145	1024,071	660,064
-47,373	24,329	981,872	587,420
-46,359	23,564	971,566	578,723
-45,344	22,593	967,232	572,942
-44,330	22,574	965,736	571,974
-43,315	22,452	964,286	570,694
-42,300	22,408	963,231	569,902
-41,286	22,420	962,225	569,325
-40,271	22,408	961,188	568,651
-39,257	22,350	960,464	568,010
-38,242	22,381	959,649	567,607
-37,227	22,362	958,599	566,902
-36,213	22,373	957,700	566,383
-35,198	22,335	956,889	565,758
-34,184	22,398	956,207	565,535
-33,169	22,375	955,556	565,055
-32,154	22,440	954,432	564,575
-31,140	22,428	953,549	563,992
-30,125	22,432	952,833	563,561
-29,111	22,406	951,892	562,897
-28,096	22,419	951,197	562,505
-27,082	22,391	950,610	562,047
-26,067	22,402	949,876	561,625
-25,052	22,445	949,042	561,246
-24,038	22,439	948,360	560,804
-23,023	22,398	947,949	560,407
-22,009	22,432	947,297	560,109
-20,994	22,441	946,482	559,632
-19,979	22,445	945,879	559,267
-18,965	22,438	945,343	558,903
-17,950	22,402	944,692	558,381
-16,936	22,405	944,006	557,966
-15,921	22,361	943,334	557,404
-14,906	22,263	942,550	556,606
-13,892	22,350	941,790	556,413
-12,877	22,342	941,207	556,022
-11,863	22,206	940,902	555,386
-10,848	22,314	940,065	555,212
-9,833	22,394	939,777	555,276
-8,819	22,423	939,043	554,913
-7,804	22,381	938,271	554,301
-6,790	22,297	937,751	553,706
-5,775	22,359	937,323	553,627
-4,760	22,286	936,588	552,939
-3,746	22,279	936,146	552,635
-2,731	22,150	935,430	551,784
-1,717	22,112	934,498	551,092
-0,702	22,149	933,967	550,872
0,313	21,926	933,314	550,616
1,327	25,111	931,262	559,371
2,342	34,799	795,826	503,820
3,356	32,681	451,438	282,580
4,371	1,660	293,679	152,882
5,386	-2,904	274,607	138,623
6,400	-4,487	268,666	134,143
7,415	-4,940	266,432	132,599
8,429	-4,637	265,206	132,255
9,444	-4,754	264,408	131,738
10,459	-4,547	263,537	131,482
11,473	-4,733	263,100	131,083
12,488	-4,738	262,703	130,869
13,502	-4,696	261,919	130,504
14,517	-4,740	261,574	130,281
15,531	-4,641	261,134	130,140
16,546	-4,667	260,947	130,011
17,561	-4,732	260,590	129,763
18,575	-4,598	260,184	129,669
19,590	-4,750	259,878	129,370
20,604	-4,631	259,613	129,332
21,619	-4,703	259,276	129,089
22,634	-4,561	258,896	129,015
23,648	-4,762	258,611	128,682
24,663	-4,673	258,376	128,633
25,677	-4,799	258,132	128,389
26,692	-4,898	257,959	128,203
27,707	-4,706	257,604	128,185
28,721	-4,816	257,359	127,955
29,736	-4,885	257,168	127,787
30,750	-4,750	256,750	127,687
31,765	-4,864	256,612	127,506
32,780	-4,865	256,409	127,393
33,794	-4,734	256,245	127,416
34,809	-4,692	255,840	127,240
35,823	-4,740	255,656	127,095
36,838	-4,990	255,547	126,810
37,853	-4,752	255,126	126,799
38,867	-4,891	255,091	126,648
39,882	-4,692	254,922	126,727
40,896	-4,914	254,580	126,351
41,911	-4,953	254,266	126,150
42,926	-4,812	254,105	126,182
43,940	-4,946	253,868	125,936
44,955	-4,953	253,624	125,797
45,969	-5,179	253,451	125,504
46,984	-5,186	253,172	125,348
47,999	-5,538	252,997	124,943
49,013	-5,366	252,603	124,887
50,028	-5,624	252,298	124,502
51,042	-5,880	252,019	124,130
52,057	-5,935	252,066	124,095
53,071	-5,806	251,648	123,990
54,086	-5,744	251,587	124,003
55,101	-5,452	251,394	124,149
56,115	-5,221	251,389	124,335
57,130	-4,797	251,187	124,590
58,144	-4,754	251,047	124,547
59,159	-4,504	250,707	124,583
60,174	-4,599	250,582	124,427
61,188	-4,785	250,387	124,160
62,203	-4,672	250,265	124,185
63,217	-4,710	250,105	124,062
64,232	-4,611	249,828	123,999
65,247	-4,765	249,668	123,776
66,261	-4,704	249,441	123,705
67,276	-4,935	249,016	123,285
68,290	-5,109	248,877	123,057
69,305	-5,417	248,678	122,684
70,320	-5,205	248,461	122,747
71,334	-5,026	248,346	122,832
72,349	-4,808	248,274	122,971
73,363	-4,732	248,069	122,924
74,378	-4,583	247,858	122,935
75,393	-4,696	247,417	122,609
76,407	-4,809	247,342	122,465
77,422	-4,748	247,173	122,422
78,436	-4,615	246,908	122,393
79,451	-4,705	246,769	122,237
80,466	-4,745	246,589	122,103
81,480	-4,942	246,173	121,720
82,495	-5,159	246,189	121,533
83,509	-5,012	245,925	121,516
84,524	-4,907	245,828	121,546
85,539	-4,993	245,378	121,241
86,553	-5,112	245,319	121,100
87,568	-5,193	245,162	120,944
88,582	-5,036	245,017	120,993
89,597	-5,027	244,717	120,843
90,611	-4,785	244,737	121,044
91,626	-4,941	244,567	120,818
92,641	-4,857	244,347	120,770
93,655	-4,747	244,036	120,697
94,670	-4,744	243,861	120,602
95,684	-4,994	243,760	120,333
96,699	-4,970	243,572	120,249
97,714	-5,153	243,495	120,048
98,728	-5,034	243,254	120,018
99,743	-5,085	242,914	119,797
100,757	-5,259	242,733	119,551
101,772	-5,052	242,533	119,615
102,787	-4,968	242,403	119,610
103,801	-5,002	242,231	119,486
104,816	-4,595	242,011	119,704
105,830	-4,678	242,146	119,691
106,845	-4,814	241,908	119,450
107,860	-4,848	241,539	119,229
108,874	-4,908	241,408	119,104
109,889	-5,047	241,177	118,865
110,903	-5,090	241,037	118,750
111,918	-4,928	240,824	118,768
112,933	-5,003	240,705	118,637
113,947	-4,992	240,552	118,560
114,962	-4,810	240,295	118,572
115,976	-4,823	240,261	118,534
116,991	-4,822	239,992	118,392
118,006	-4,711	239,747	118,352
119,020	-4,938	239,779	118,171
120,035	-4,947	239,527	118,029
121,049	-4,668	239,360	118,164
122,064	-4,789	239,263	118,006
123,079	-4,684	239,017	117,961
124,093	-4,765	238,731	117,743
125,108	-5,245	238,682	117,317
126,122	-5,392	238,498	117,096
127,137	-5,284	238,124	116,990
128,151	-5,219	237,962	116,953
129,166	-5,062	237,877	117,027
130,181	-5,099	237,704	116,902
131,195	-5,147	237,452	116,729
132,210	-5,044	237,359	116,756
133,224	-4,991	237,225	116,723
134,239	-4,905	236,987	116,665
135,254	-4,682	236,856	116,771
136,268	-5,085	236,742	116,379
137,283	-5,377	236,517	116,021
138,297	-5,261	236,205	115,952
139,312	-5,289	236,149	115,891
140,327	-4,936	235,905	116,045
141,341	-4,464	235,952	116,438
142,356	-4,583	235,736	116,226
143,370	-4,497	235,684	116,258
144,385	-4,307	235,390	116,255
145,400	-4,374	235,288	116,141
146,414	-4,442	235,235	116,050
147,429	-4,620	235,045	115,803
148,443	-4,798	234,895	115,576
149,458	-4,698	234,703	115,552
150,473	-4,795	234,566	115,397
151,487	-4,509	234,253	115,461
152,502	-4,608	234,090	115,291
153,516	-4,599	233,986	115,236
154,531	-4,446	233,692	115,203
155,546	-4,626	233,583	114,996
156,560	-4,796	233,540	114,829
157,575	-4,830	233,241	114,645
158,589	-4,602	233,068	114,731
159,604	-4,332	232,848	114,826
160,619	-4,428	232,868	114,750
161,633	-4,371	232,721	114,713
162,648	-4,398	232,605	114,624
163,662	-4,576	232,402	114,373
164,677	-4,712	232,143	114,128
165,692	-4,473	231,931	114,202
166,706	-4,381	232,013	114,305
167,721	-4,393	231,675	114,118
168,735	-4,526	231,693	114,012
169,750	-4,389	231,559	114,044
170,764	-4,481	231,305	113,837
171,779	-4,386	231,196	113,847
172,794	-4,496	231,147	113,726
173,808	-4,411	230,906	113,665
174,823	-4,939	230,382	112,983
175,837	-5,287	230,356	112,687
176,852	-4,519	230,068	113,137
177,867	-4,461	230,135	113,205
178,881	-4,475	230,184	113,209
179,896	-4,386	229,947	113,151
180,910	-4,426	229,859	113,067
181,925	-4,273	229,523	113,011
182,940	-4,387	229,434	112,868
183,954	-4,420	229,241	112,738
184,969	-4,393	229,131	112,694
185,983	-4,276	229,067	112,744
186,998	-4,260	228,891	112,660
188,013	-4,300	228,760	112,554
189,027	-4,278	228,472	112,419
190,042	-4,130	228,548	112,562
191,056	-4,454	228,276	112,166
192,071	-4,390	228,066	112,103
193,086	-4,637	227,973	111,856
194,100	-4,130	227,660	112,085
195,115	-4,725	227,286	111,431
196,129	-5,754	226,975	110,476
197,144	-2,348	228,224	113,712
198,159	2,700	229,423	118,220
199,173	4,070	229,863	119,501
200,188	4,459	229,621	119,666
201,202	4,421	229,542	119,584
202,217	4,521	229,423	119,589
203,232	4,847	229,384	119,811
204,246	4,950	229,330	119,852
205,261	4,986	229,105	119,750
206,275	4,973	229,077	119,716
207,290	4,996	228,872	119,615
208,304	5,120	228,663	119,591
209,319	4,933	228,538	119,371
210,334	4,920	228,324	119,239
211,348	4,848	228,047	119,028
212,363	4,513	227,822	118,643
213,377	4,146	227,582	118,225
214,392	3,617	227,675	117,857
215,407	4,239	227,420	118,191
216,421	4,363	227,275	118,200
217,436	4,266	227,145	118,048
218,450	4,028	226,824	117,688
219,465	3,776	226,703	117,423
220,480	4,138	226,502	117,585
221,494	4,019	226,383	117,422
222,509	4,088	226,384	117,464
223,523	4,101	226,213	117,375
224,538	3,972	226,007	117,160
225,553	4,118	225,835	117,171
226,567	4,219	225,811	117,225
227,582	4,474	225,667	117,333
228,596	4,659	225,541	117,398
229,611	4,232	225,296	116,936
230,626	3,993	225,181	116,685
231,640	4,151	224,964	116,682
232,655	4,393	224,853	116,797
233,669	4,632	225,023	117,056
234,684	4,904	224,782	117,126
235,699	4,642	224,617	116,831
236,713	4,343	224,443	116,505
237,728	4,298	224,092	116,278
238,742	4,057	223,938	116,006
239,757	4,124	223,821	115,986
240,772	3,919	223,811	115,816
241,786	4,164	223,541	115,850
242,801	4,357	223,447	115,936
243,815	4,514	223,261	115,947
244,830	4,633	223,096	115,940
245,844	4,202	223,018	115,566
246,859	4,254	222,832	115,499
247,874	4,661	222,709	115,729
248,888	4,665	222,547	115,638
249,903	4,346	222,364	115,294
250,917	4,061	222,205	114,988
251,932	4,007	222,147	114,908
252,947	4,202	221,916	114,923
253,961	3,940	221,877	114,698
254,976	4,102	221,600	114,664
255,990	4,538	221,369	114,860
257,005	4,198	221,462	114,644
258,020	4,344	221,426	114,724
259,034	4,465	221,205	114,689
260,049	4,475	221,007	114,584
261,063	4,478	220,797	114,467
262,078	4,622	220,773	114,551
263,093	4,678	220,634	114,510
264,107	4,489	220,392	114,234
265,122	4,409	220,308	114,122
266,136	4,609	220,142	114,173
267,151	4,692	220,047	114,175
268,166	4,052	219,917	113,625
269,180	4,081	219,635	113,490
270,195	3,789	219,520	113,206
271,209	3,897	219,399	113,213
272,224	3,831	219,330	113,118
273,239	4,404	219,127	113,425
274,253	4,151	218,779	113,049
275,268	3,926	218,834	112,903
276,282	3,776	218,607	112,665
277,297	3,754	218,441	112,553
278,312	4,010	218,302	112,659
279,326	4,007	218,262	112,627
280,341	4,060	218,096	112,569
281,355	4,277	218,113	112,727
282,370	4,134	217,917	112,511
283,384	3,959	217,766	112,295
284,399	3,840	217,518	112,071
285,414	3,819	217,379	111,974
286,428	4,013	217,311	112,070
287,443	4,295	217,191	112,203
288,457	4,367	217,029	112,162
289,472	4,160	216,840	111,904
290,487	3,796	216,612	111,512
291,501	3,486	216,413	111,175
292,516	3,809	216,361	111,372
293,530	3,962	216,316	111,450
294,545	3,858	216,045	111,226
295,560	4,134	216,003	111,393
296,574	4,178	215,896	111,360
297,589	3,937	215,868	111,162
298,603	4,247	215,659	111,268
299,618	4,354	215,496	111,251
300,633	4,155	215,363	111,029
301,647	4,529	215,305	111,259
302,662	4,495	215,145	111,142
303,676	4,546	214,880	111,031
304,691	4,088	214,959	110,733
305,706	4,433	214,694	110,834
306,720	4,355	214,577	110,708
307,735	4,072	214,512	110,462
308,749	3,859	214,271	110,175
309,764	4,161	214,243	110,367
310,779	4,418	214,106	110,470
311,793	4,331	213,920	110,303
312,808	4,344	213,858	110,271
313,822	4,264	213,660	110,101
314,837	4,321	213,285	109,939
315,852	4,161	213,216	109,780
316,866	4,164	213,177	109,751
317,881	4,423	213,196	109,936
318,895	4,370	212,927	109,750
319,910	4,032	212,742	109,404
320,925	3,785	212,577	109,134
321,939	3,806	212,224	108,958
322,954	3,813	212,258	108,971
323,968	4,268	212,209	109,259
324,983	4,382	212,118	109,282
325,997	4,498	211,971	109,279
327,012	4,317	211,761	109,034
328,027	4,276	211,690	108,958
329,041	4,439	211,610	109,022
330,056	4,644	211,578	109,141
331,070	3,905	211,372	108,503
332,085	3,858	211,022	108,281
333,100	4,186	210,926	108,453
334,114	4,093	210,858	108,343
335,129	3,966	210,647	108,136
336,143	3,716	210,525	107,888
337,158	4,101	210,443	108,107
338,173	4,076	210,207	107,958
339,187	3,926	210,126	107,802
340,202	4,026	209,895	107,744
341,216	3,589	209,910	107,436
342,231	4,018	209,756	107,648
343,246	4,102	209,543	107,587
344,260	4,218	209,453	107,613
345,275	3,960	209,381	107,386
346,289	4,183	209,339	107,511
347,304	4,227	209,176	107,448
348,319	4,270	209,010	107,383
349,333	4,186	208,799	107,207
350,348	4,219	208,707	107,173
351,362	4,459	208,616	107,283
352,377	4,289	208,574	107,134
353,392	4,162	208,423	106,959
354,406	4,180	208,263	106,880
355,421	194,616	1345,038	1436,255
356,435	155,308	1483,648	1436,381
