DTS Sentinel unit serial number:	SN410029Multiplexer serial number:	ORYXHardware model number:	OX2-SRSoftware version number:	ORYX F/W v4,00 Oryx Data Collector v3.7.2.0data status	okinstallation	B6 Nyhavnadifferential loss correction	single-endedforward channel	channel 2reverse channel	N/Adate	2023/12/07time	14:15:08forward acquisition time	300,00reverse acquisition time	0,00gamma	499,1914k internal	0,3198k external	0,3198temperature offset calibration	1,0000default loss term (dB/km)	0,3820temperature slope calibration	1,0000multiplexer offset coefficient	1,0000multiplexer slope coefficient	1,0000fibre end	0,00T internal ref (°C)	13,44T ext. ref 1 (°C)	-1,73T ext. ref 2 (°C)	-1,72length (m)	temperature (°C)	Stokes	anti-Stokes-744,400	68,925	0,120	0,089
-743,385	-144,359	-0,430	-0,029
-742,371	2,865	0,159	0,084
-741,356	-151,756	-0,212	0,011
-740,342	800,000	0,087	0,178
-739,327	-100,686	-0,212	0,038
-738,312	221,922	0,094	0,110
-737,298	-65,793	-0,387	-0,112
-736,283	2,142	0,137	0,072
-735,269	-113,376	-0,246	0,035
-734,254	-87,990	0,131	0,028
-733,239	62,813	-0,510	-0,371
-732,225	-32,218	0,245	0,099
-731,210	-29,933	0,088	0,036
-730,196	-154,067	0,074	-0,004
-729,181	157,400	-0,078	0,079
-728,167	28,803	-0,069	0,043
-727,152	19,164	0,128	-0,075
-726,137	-83,445	-0,115	-0,026
-725,123	-200,000	-0,036	-0,195
-724,108	800,000	0,031	0,099
-723,094	-200,000	0,002	-0,007
-722,079	513,426	-0,135	-0,229
-721,064	274,024	-0,057	-0,074
-720,050	-200,000	-0,007	-0,047
-719,035	-106,879	-0,046	0,007
-718,021	-30,386	-0,073	-0,030
-717,006	-91,772	-0,122	-0,025
-715,991	27,078	-0,131	-0,080
-714,977	53,925	0,167	-0,117
-713,962	-60,319	-0,050	-0,015
-712,948	-100,463	-0,045	-0,008
-711,933	-200,000	-0,018	-0,123
-710,918	-200,000	-0,010	-0,086
-709,904	562,466	-0,024	0,042
-708,889	264,441	0,037	-0,047
-707,875	-37,487	-0,040	-0,016
-706,860	-42,722	-0,069	-0,025
-705,845	-128,778	0,048	0,005
-704,831	131,971	0,037	0,035
-703,816	3,969	-0,056	-0,030
-702,802	517,875	0,030	-0,050
-701,787	-57,077	-0,126	-0,040
-700,772	-121,118	0,078	0,009
-699,758	800,000	0,045	-0,117
-698,743	-200,000	0,004	-0,039
-697,729	671,255	0,022	-0,042
-696,714	-163,252	-0,040	-0,001
-695,699	543,174	0,002	0,003
-694,685	-200,000	-0,011	-0,138
-693,670	800,000	-0,051	-0,121
-692,656	-55,395	-0,140	-0,045
-691,641	406,643	0,020	-0,031
-690,627	299,691	0,061	-0,081
-689,612	-7,152	-0,075	0,037
-688,597	-64,700	-0,126	-0,037
-687,583	800,000	-0,027	-0,079
-686,568	329,520	-0,037	-0,052
-685,554	121,642	-0,109	0,099
-684,539	2,783	0,126	-0,066
-683,524	-35,616	0,054	0,021
-682,510	-97,417	0,094	0,018
-681,495	-23,385	-0,007	0,003
-680,481	539,320	-0,044	-0,076
-679,466	800,000	-0,032	-0,067
-678,451	794,773	0,060	-0,120
-677,437	800,000	0,035	-0,075
-676,422	156,405	-0,059	0,060
-675,408	68,224	0,083	0,061
-674,393	66,487	-0,050	0,037
-673,378	-46,865	-0,091	-0,032
-672,364	54,369	-0,056	-0,039
-671,349	265,049	-0,059	-0,075
-670,335	-118,810	0,053	0,007
-669,320	57,663	-0,014	-0,010
-668,305	-140,716	0,096	-0,007
-667,291	25,720	-0,123	0,074
-666,276	58,216	0,115	-0,082
-665,262	800,000	0,017	0,047
-664,247	-200,000	-0,013	-0,106
-663,232	-200,000	-0,026	-0,119
-662,218	-200,000	0,136	-0,000
-661,203	-200,000	0,014	-0,081
-660,189	-200,000	0,026	-0,093
-659,174	-200,000	0,037	-0,165
-658,159	16,351	0,071	-0,041
-657,145	-85,811	-0,071	-0,016
-656,130	-43,628	0,037	0,014
-655,116	346,911	0,050	0,072
-654,101	-200,000	0,000	-0,061
-653,086	-200,000	0,015	0,099
-652,072	93,314	-0,058	-0,048
-651,057	800,000	-0,071	-0,150
-650,043	-22,573	-0,182	-0,079
-649,028	-66,981	0,054	-0,015
-648,014	6,244	-0,118	0,064
-646,999	800,000	0,016	-0,034
-645,984	196,856	0,030	0,034
-644,970	235,548	-0,054	-0,064
-643,955	-72,321	0,005	-0,001
-642,941	-74,470	-0,091	0,024
-641,926	-26,555	-0,068	-0,029
-640,911	-85,264	0,010	0,002
-639,897	-200,000	0,013	0,084
-638,882	-200,000	0,005	-0,042
-637,868	-200,000	0,028	-0,177
-636,853	800,000	0,036	-0,086
-635,838	-12,121	-0,111	-0,052
-634,824	210,332	-0,017	-0,020
-633,809	587,472	-0,043	0,077
-632,795	-200,000	-0,009	-0,046
-631,780	800,000	0,042	0,118
-630,765	129,071	-0,021	-0,019
-629,751	-11,148	-0,128	-0,061
-628,736	274,984	-0,098	-0,126
-627,722	127,893	0,084	0,077
-626,707	-200,000	0,026	-0,092
-625,692	-200,000	0,007	0,100
-624,678	800,000	-0,055	-0,141
-623,663	-200,000	0,023	-0,170
-622,649	59,750	0,064	-0,046
-621,634	255,533	-0,071	-0,088
-620,619	190,015	-0,078	-0,085
-619,605	183,580	0,115	0,123
-618,590	253,149	0,050	0,062
-617,576	800,000	-0,065	0,157
-616,561	75,389	-0,051	-0,039
-615,546	-200,000	0,034	0,192
-614,532	800,000	0,093	-0,202
-613,517	-200,000	-0,014	-0,131
-612,503	360,731	0,043	-0,063
-611,488	-200,000	0,005	-0,024
-610,474	300,951	0,025	-0,034
-609,459	-200,000	-0,008	0,098
-608,444	-113,595	-0,074	-0,010
-607,430	-45,125	-0,142	-0,051
-606,415	201,807	-0,093	-0,104
-605,401	247,151	0,078	0,096
-604,386	-200,000	-0,026	0,095
-603,371	-22,138	0,045	0,019
-602,357	-118,475	-0,116	-0,015
-601,342	-200,000	-0,011	0,136
-600,328	-200,000	-0,003	-0,107
-599,313	800,000	0,047	-0,098
-598,298	-200,000	0,015	-0,099
-597,284	265,958	-0,054	-0,069
-596,269	26,487	0,030	-0,018
-595,255	-182,586	-0,131	-0,002
-594,240	-116,492	-0,094	0,012
-593,225	-3,644	-0,041	0,021
-592,211	43,827	-0,062	-0,041
-591,196	16,083	-0,007	0,004
-590,182	450,391	-0,062	0,100
-589,167	102,490	0,036	0,030
-588,152	158,448	0,032	0,032
-587,138	18,948	0,064	-0,037
-586,123	199,341	-0,086	0,095
-585,109	-200,000	-0,025	-0,110
-584,094	483,436	0,065	-0,107
-583,079	-160,853	-0,022	-0,001
-582,065	-200,000	-0,023	-0,091
-581,050	86,704	-0,040	-0,032
-580,036	-200,000	0,006	-0,044
-579,021	131,327	-0,053	0,049
-578,006	800,000	0,031	-0,087
-576,992	237,219	0,033	0,040
-575,977	-200,000	-0,002	0,027
-574,963	800,000	0,023	0,048
-573,948	800,000	0,039	-0,092
-572,934	660,700	-0,046	-0,086
-571,919	70,952	-0,040	-0,030
-570,904	-200,000	-0,035	-0,117
-569,890	181,105	-0,042	0,045
-568,875	-147,693	0,153	0,009
-567,861	-99,711	-0,076	0,014
-566,846	800,000	0,059	0,158
-565,831	-108,810	-0,043	-0,007
-564,817	-37,008	0,042	-0,016
-563,802	-112,719	0,202	-0,029
-562,788	800,000	-0,019	0,042
-561,773	-200,000	-0,008	-0,107
-560,758	800,000	0,082	0,177
-559,744	-22,600	0,084	0,037
-558,729	-72,477	0,107	0,028
-557,715	-200,000	-0,013	0,170
-556,700	32,027	-0,093	-0,058
-555,685	39,589	-0,157	-0,101
-554,671	103,865	0,113	0,096
-553,656	102,866	-0,011	0,009
-552,642	800,000	0,048	0,097
-551,627	756,125	-0,019	-0,037
-550,612	-200,000	0,022	-0,146
-549,598	-88,375	0,091	0,020
-548,583	800,000	0,011	0,030
-547,569	-56,682	0,059	-0,019
-546,554	-200,000	-0,028	-0,242
-545,539	-172,617	0,040	-0,001
-544,525	-79,188	0,051	-0,012
-543,510	209,401	-0,072	-0,082
-542,496	800,000	-0,062	-0,160
-541,481	-111,570	-0,021	0,003
-540,466	176,635	0,039	-0,041
-539,452	-200,000	0,024	0,137
-538,437	800,000	-0,044	0,115
-537,423	154,131	0,031	0,031
-536,408	215,419	0,075	-0,086
-535,393	-111,451	-0,142	0,021
-534,379	-76,021	0,082	0,021
-533,364	-130,410	0,092	-0,009
-532,350	-200,000	0,012	0,050
-531,335	347,152	-0,037	-0,053
-530,321	220,944	-0,087	-0,101
-529,306	80,028	0,051	0,039
-528,291	-200,000	0,000	0,015
-527,277	52,876	-0,014	0,009
-526,262	110,082	-0,024	0,021
-525,248	-62,665	0,016	-0,005
-524,233	-137,307	0,072	-0,006
-523,218	-200,000	-0,020	-0,067
-522,204	248,793	0,083	0,101
-521,189	-200,000	-0,020	-0,078
-520,175	57,355	-0,078	-0,055
-519,160	36,892	-0,026	0,016
-518,145	102,951	-0,090	0,076
-517,131	45,037	0,079	-0,052
-516,116	800,000	0,016	0,049
-515,102	147,928	0,094	-0,091
-514,087	453,222	-0,089	0,143
-513,072	-200,000	0,014	-0,055
-512,058	-155,619	-0,065	-0,003
-511,043	-24,767	0,119	-0,051
-510,029	-53,536	-0,134	0,044
-509,014	45,615	0,043	-0,029
-507,999	147,310	0,067	-0,065
-506,985	284,804	-0,058	0,076
-505,970	95,646	-0,121	-0,099
-504,956	9,939	-0,022	-0,012
-503,941	800,000	0,052	-0,111
-502,926	-59,216	0,109	0,034
-501,912	-135,786	0,030	0,003
-500,897	85,127	0,060	-0,048
-499,883	-44,082	0,110	-0,040
-498,868	425,868	-0,048	-0,075
-497,853	-200,000	-0,004	0,017
-496,839	212,823	0,070	-0,080
-495,824	-200,000	-0,004	-0,042
-494,810	239,272	-0,083	0,100
-493,795	-200,000	-0,005	0,160
-492,781	302,425	0,030	0,040
-491,766	7,806	0,003	-0,001
-490,751	568,827	0,053	-0,094
-489,737	346,859	-0,061	0,087
-488,722	314,590	0,056	0,076
-487,708	182,900	-0,081	-0,086
-486,693	-116,981	0,040	0,005
-485,678	-200,000	-0,031	-0,141
-484,664	180,054	-0,022	0,024
-483,649	175,253	-0,093	-0,097
-482,635	-200,000	0,026	0,110
-481,620	179,698	0,058	-0,061
-480,605	278,968	0,024	-0,031
-479,591	-162,951	0,118	0,004
-478,576	-200,000	-0,029	-0,181
-477,562	-200,000	0,008	-0,146
-476,547	-200,000	0,020	-0,197
-475,532	7,418	0,079	-0,042
-474,518	622,016	0,036	0,066
-473,503	792,200	-0,037	0,073
-472,489	-35,063	0,042	0,016
-471,474	-200,000	0,004	0,107
-470,459	-200,000	0,021	-0,079
-469,445	442,562	-0,063	-0,100
-468,430	800,000	-0,057	-0,118
-467,416	121,354	0,114	0,103
-466,401	-11,102	0,103	0,049
-465,386	387,350	0,074	0,110
-464,372	12,970	-0,095	0,053
-463,357	-76,629	-0,179	0,045
-462,343	117,062	0,058	0,051
-461,328	93,192	-0,044	-0,035
-460,313	800,000	0,053	-0,118
-459,299	-200,000	0,005	-0,039
-458,284	52,771	-0,055	0,038
-457,270	-126,670	0,059	-0,006
-456,255	-200,000	-0,035	-0,136
-455,241	36,619	0,027	0,017
-454,226	-24,734	-0,033	0,014
-453,211	-25,595	0,071	0,030
-452,197	279,891	0,075	-0,097
-451,182	318,307	-0,051	0,070
-450,168	-200,000	0,006	0,187
-449,153	212,039	-0,125	0,142
-448,138	-200,000	0,004	0,015
-447,124	-58,742	-0,073	-0,023
-446,109	566,072	0,052	-0,091
-445,095	-200,000	-0,009	0,096
-444,080	-185,409	-0,083	-0,001
-443,065	-200,000	0,012	0,111
-442,051	33,074	0,071	-0,044
-441,036	432,589	0,065	-0,102
-440,022	370,882	-0,022	-0,032
-439,007	-24,391	-0,040	-0,017
-437,992	-161,396	0,140	-0,005
-436,978	-200,000	0,004	0,022
-435,963	-200,000	0,041	-0,130
-434,949	-172,170	0,050	0,001
-433,934	-133,932	-0,061	0,005
-432,919	-200,000	0,009	-0,089
-431,905	272,033	0,032	0,040
-430,890	530,459	0,079	-0,134
-429,876	174,157	0,138	0,144
-428,861	737,013	0,011	0,020
-427,846	339,768	0,049	0,068
-426,832	42,203	-0,082	0,053
-425,817	-154,989	-0,069	0,003
-424,803	-37,738	-0,135	0,051
-423,788	637,861	0,051	0,094
-422,773	800,000	0,021	0,053
-421,759	-200,000	-0,004	-0,175
-420,744	-41,585	-0,072	-0,027
-419,730	102,665	0,016	-0,013
-418,715	318,543	-0,043	0,059
-417,701	800,000	-0,030	-0,060
-416,686	135,350	-0,050	-0,047
-415,671	91,957	0,109	0,088
-414,657	305,119	0,081	-0,108
-413,642	-102,233	-0,094	-0,016
-412,628	800,000	-0,026	-0,057
-411,613	89,785	0,128	0,103
-410,598	-67,149	0,032	-0,009
-409,584	-200,000	0,025	-0,118
-408,569	-200,000	-0,005	0,029
-407,555	800,000	0,062	0,140
-406,540	-43,297	-0,060	0,022
-405,525	-200,000	0,014	0,055
-404,511	800,000	-0,066	-0,184
-403,496	-200,000	0,005	0,054
-402,482	-200,000	-0,006	0,031
-401,467	-200,000	0,001	0,072
-400,452	-30,140	-0,060	-0,025
-399,438	-46,593	0,083	0,029
-398,423	-200,000	0,017	-0,060
-397,409	-152,996	0,043	0,002
-396,394	-107,485	-0,007	0,001
-395,379	-200,000	-0,010	0,155
-394,365	800,000	0,028	0,068
-393,350	-52,752	0,092	-0,030
-392,336	191,250	0,078	-0,084
-391,321	-200,000	-0,014	-0,106
-390,306	-8,231	0,096	0,046
-389,292	-200,000	-0,011	0,085
-388,277	-200,000	0,004	0,014
-387,263	-44,298	0,091	0,032
-386,248	-200,000	0,001	-0,082
-385,233	-80,345	0,073	0,017
-384,219	376,702	0,032	-0,047
-383,204	10,384	-0,168	0,091
-382,190	26,484	-0,074	0,044
-381,175	-82,466	-0,162	0,038
-380,160	-200,000	-0,008	0,039
-379,146	-52,884	-0,022	-0,007
-378,131	-200,000	0,001	0,115
-377,117	13,606	-0,099	-0,055
-376,102	-122,926	-0,095	-0,011
-375,088	-200,000	0,004	0,058
-374,073	-157,699	-0,081	-0,003
-373,058	-200,000	-0,009	0,060
-372,044	800,000	0,060	0,141
-371,029	669,965	-0,091	0,170
-370,015	-200,000	0,021	-0,084
-369,000	-10,469	-0,056	0,027
-367,985	-134,913	0,074	0,006
-366,971	-22,347	-0,100	0,043
-365,956	-200,000	-0,018	0,073
-364,942	-200,000	0,008	0,107
-363,927	-123,355	0,039	0,004
-362,912	-200,000	-0,025	0,098
-361,898	111,398	-0,040	-0,035
-360,883	-200,000	-0,035	-0,144
-359,869	-200,000	0,007	-0,139
-358,854	43,688	0,018	-0,011
-357,839	334,357	-0,026	0,036
-356,825	800,000	0,057	0,142
-355,810	307,938	0,055	-0,073
-354,796	-200,000	0,020	-0,217
-353,781	18,481	0,085	-0,049
-352,766	-200,000	0,002	-0,095
-351,752	324,288	-0,165	0,227
-350,737	86,683	0,089	-0,070
-349,723	360,666	0,032	0,047
-348,708	57,861	0,046	0,032
-347,693	-124,001	0,143	0,016
-346,679	-7,853	-0,082	-0,040
-345,664	-200,000	0,006	-0,173
-344,650	-200,000	-0,003	0,093
-343,635	-136,062	0,085	0,007
-342,620	13,449	0,062	-0,034
-341,606	55,596	-0,119	0,083
-340,591	800,000	-0,028	-0,065
-339,577	-45,032	0,109	-0,039
-338,562	-200,000	-0,001	-0,104
-337,548	-200,000	-0,005	-0,049
-336,533	-85,889	-0,072	0,016
-335,518	-200,000	0,031	0,145
-334,504	72,721	0,119	0,089
-333,489	-200,000	0,007	-0,068
-332,475	-200,000	0,006	0,027
-331,460	-48,844	0,123	-0,042
-330,445	-137,363	-0,186	-0,015
-329,431	16,013	0,093	-0,052
-328,416	188,589	-0,059	-0,063
-327,402	199,619	0,087	0,096
-326,387	-94,197	0,083	0,016
-325,372	-33,245	-0,101	-0,040
-324,358	800,000	0,043	0,105
-323,343	21,905	-0,158	-0,092
-322,329	-118,905	0,018	-0,002
-321,314	136,625	0,133	0,124
-320,299	-200,000	0,023	0,107
-319,285	-200,000	-0,010	-0,195
-318,270	-200,000	0,009	-0,029
-317,256	-200,000	0,006	-0,066
-316,241	-200,000	-0,049	0,166
-315,226	187,311	0,011	-0,012
-314,212	136,030	0,045	0,042
-313,197	-64,640	0,063	0,018
-312,183	462,013	-0,121	0,193
-311,168	-200,000	0,002	-0,060
-310,153	-157,390	-0,136	-0,006
-309,139	-200,000	-0,024	0,102
-308,124	58,340	-0,092	0,064
-307,110	-200,000	0,018	0,066
-306,095	800,000	0,010	0,026
-305,080	111,065	0,063	0,054
-304,066	338,334	-0,060	0,083
-303,051	-200,000	0,015	0,053
-302,037	-8,261	-0,028	-0,013
-301,022	-146,184	-0,114	-0,007
-300,008	-200,000	0,009	-0,051
-298,993	394,822	-0,030	-0,045
-297,978	-17,686	0,130	0,058
-296,964	-86,556	-0,239	0,052
-295,949	579,543	0,073	-0,129
-294,935	-111,150	0,245	0,036
-293,920	800,000	-0,052	-0,112
-292,905	76,669	-0,097	0,074
-291,891	88,917	-0,042	0,033
-290,876	-94,172	0,045	0,009
-289,862	-200,000	-0,017	0,059
-288,847	135,763	-0,111	-0,103
-287,832	83,977	-0,077	-0,060
-286,818	24,938	0,124	0,073
-285,803	-200,000	-0,020	0,093
-284,789	800,000	-0,053	0,118
-283,774	-6,227	-0,078	0,038
-282,759	-118,102	0,078	0,010
-281,745	-200,000	0,034	0,116
-280,730	130,554	-0,092	-0,085
-279,716	-200,000	-0,004	-0,025
-278,701	-200,000	-0,020	0,097
-277,686	279,439	-0,074	0,095
-276,672	-200,000	0,014	-0,126
-275,657	800,000	0,035	0,089
-274,643	107,297	-0,108	-0,092
-273,628	-200,000	0,047	-0,226
-272,613	463,661	0,045	-0,072
-271,599	231,663	-0,030	-0,035
-270,584	800,000	0,032	0,075
-269,570	-200,000	-0,013	-0,050
-268,555	800,000	0,047	0,094
-267,540	-50,468	-0,097	0,032
-266,526	-200,000	0,008	0,036
-265,511	26,979	-0,071	0,043
-264,497	-51,251	0,056	0,019
-263,482	54,309	-0,025	-0,017
-262,467	12,028	0,195	0,107
-261,453	800,000	0,059	0,129
-260,438	-6,658	-0,048	-0,023
-259,424	-200,000	-0,059	0,215
-258,409	800,000	0,041	-0,115
-257,395	-200,000	-0,006	0,168
-256,380	-115,515	0,077	0,010
-255,365	40,805	0,082	0,052
-254,351	509,775	-0,061	0,101
-253,336	-200,000	-0,016	0,117
-252,322	-200,000	-0,004	0,043
-251,307	-139,897	-0,129	0,010
-250,292	-85,559	-0,018	0,004
-249,278	103,153	0,043	0,036
-248,263	167,544	0,111	0,113
-247,249	149,104	0,035	-0,034
-246,234	-52,537	-0,144	-0,047
-245,219	122,147	0,033	-0,029
-244,205	138,049	-0,066	-0,062
-243,190	431,771	0,087	0,135
-242,176	-97,953	0,047	-0,009
-241,161	133,403	0,072	-0,066
-240,146	-134,483	-0,013	0,001
-239,132	-46,622	-0,045	0,016
-238,117	-93,472	-0,072	0,014
-237,103	-200,000	0,024	-0,203
-236,088	-17,925	0,050	-0,022
-235,073	45,081	0,005	0,003
-234,059	-158,159	-0,059	-0,002
-233,044	-200,000	-0,016	0,051
-232,030	-165,353	-0,129	-0,004
-231,015	-146,850	-0,049	-0,003
-230,000	-4,990	0,116	-0,057
-228,986	-81,062	-0,123	-0,029
-227,971	412,965	0,030	0,045
-226,957	-200,000	0,019	0,187
-225,942	576,905	0,066	-0,115
-224,927	-11,724	-0,057	0,027
-223,913	37,925	-0,161	-0,102
-222,898	-200,000	0,011	-0,118
-221,884	88,692	-0,056	0,045
-220,869	251,259	0,091	0,110
-219,855	-75,748	0,008	0,002
-218,840	-35,188	-0,034	-0,013
-217,825	-103,383	0,130	0,022
-216,811	800,000	0,040	-0,095
-215,796	64,026	-0,046	-0,033
-214,782	-114,205	0,149	0,020
-213,767	800,000	0,041	0,095
-212,752	800,000	0,058	0,115
-211,738	-200,000	-0,013	0,153
-210,723	-35,766	-0,143	-0,055
-209,709	-79,113	-0,131	0,032
-208,694	-200,000	0,010	0,096
-207,679	647,531	-0,036	0,067
-206,665	230,813	0,077	-0,090
-205,650	-43,632	0,082	-0,029
-204,636	345,992	-0,079	0,112
-203,621	-9,157	-0,086	0,041
-202,606	-62,067	0,044	0,013
-201,592	-200,000	-0,009	-0,041
-200,577	-93,826	0,058	0,011
-199,563	478,395	-0,049	0,080
-198,548	116,470	-0,098	-0,086
-197,533	-200,000	0,029	-0,143
-196,519	649,285	-0,043	0,078
-195,504	314,690	-0,052	0,070
-194,490	-200,000	0,013	-0,122
-193,475	494,801	0,076	0,125
-192,460	535,446	0,037	0,063
-191,446	47,265	0,142	-0,094
-190,431	406,501	0,070	-0,105
-189,417	149,399	-0,103	-0,100
-188,402	38,331	-0,078	0,050
-187,387	64,013	0,029	0,021
-186,373	-200,000	-0,002	-0,028
-185,358	-37,018	0,069	0,026
-184,344	738,595	0,044	-0,084
-183,329	800,000	-0,018	0,052
-182,315	-35,688	0,058	-0,022
-181,300	800,000	0,018	-0,054
-180,285	28,445	0,020	-0,012
-179,271	466,362	0,065	-0,104
-178,256	15,890	0,076	0,043
-177,242	-94,149	0,092	-0,018
-176,227	-122,686	0,044	-0,005
-175,212	-200,000	-0,003	0,014
-174,198	-75,050	0,042	0,011
-173,183	800,000	-0,019	-0,047
-172,169	142,066	0,093	0,088
-171,154	479,931	-0,016	-0,026
-170,139	800,000	0,027	0,062
-169,125	800,000	-0,016	-0,036
-168,110	-57,586	-0,048	-0,015
-167,096	-74,969	0,105	0,027
-166,081	-110,997	-0,130	-0,019
-165,066	325,242	-0,134	-0,183
-164,052	-43,491	0,040	0,014
-163,037	181,477	0,115	-0,121
-162,023	-200,000	-0,026	0,161
-161,008	270,555	-0,022	-0,027
-159,993	-98,500	-0,074	0,013
-158,979	227,957	-0,019	0,022
-157,964	339,482	-0,019	0,026
-156,950	556,204	0,014	-0,025
-155,935	-56,084	-0,104	-0,033
-154,920	800,000	0,040	-0,082
-153,906	-48,324	0,049	-0,017
-152,891	-98,803	-0,047	-0,008
-151,877	800,000	-0,026	-0,063
-150,862	530,301	0,049	-0,083
-149,847	87,156	-0,125	0,098
-148,833	169,674	-0,043	-0,043
-147,818	361,696	0,029	0,041
-146,804	86,643	0,136	0,106
-145,789	-200,000	-0,003	0,171
-144,775	75,893	0,072	-0,054
-143,760	134,120	-0,019	0,018
-142,745	-200,000	-0,006	-0,113
-141,731	-113,338	0,056	-0,008
-140,716	142,241	0,146	0,138
-139,702	255,361	0,026	-0,032
-138,687	-200,000	-0,014	0,054
-137,672	-161,512	0,089	0,003
-136,658	-120,231	-0,048	-0,006
-135,643	135,796	-0,099	-0,091
-134,629	-200,000	0,004	0,074
-133,614	-113,280	0,128	-0,018
-132,599	-97,549	-0,175	0,032
-131,585	-1,857	-0,146	-0,073
-130,570	-25,990	0,047	-0,019
-129,556	800,000	0,080	-0,187
-128,541	-200,000	0,014	-0,168
-127,526	-200,000	-0,020	0,105
-126,512	291,924	0,062	-0,080
-125,497	466,658	0,024	0,039
-124,483	-200,000	0,004	0,055
-123,468	228,496	-0,096	-0,111
-122,453	-95,750	-0,211	-0,040
-121,439	-133,482	-0,023	0,002
-120,424	93,525	0,042	-0,034
-119,410	647,787	-0,015	0,027
-118,395	-200,000	-0,026	0,126
-117,380	-200,000	0,007	0,058
-116,366	149,691	-0,101	-0,097
-115,351	-200,000	-0,029	-0,110
-114,337	383,901	0,045	-0,067
-113,322	206,089	-0,051	0,056
-112,307	-24,227	0,069	-0,029
-111,293	-109,984	-0,023	0,003
-110,278	-100,905	0,035	0,006
-109,264	-161,671	0,013	-0,000
-108,249	-200,000	-0,012	-0,116
-107,234	-97,764	-0,095	0,017
-106,220	800,000	-0,015	-0,030
-105,205	-29,892	0,094	0,038
-104,191	-130,284	0,173	0,016
-103,176	472,866	0,087	0,140
-102,162	-200,000	-0,012	-0,129
-101,147	142,707	0,028	0,026
-100,132	-200,000	-0,027	-0,166
-99,118	-91,428	-0,079	-0,016
-98,103	89,471	-0,155	0,123
-97,089	355,105	0,016	0,023
-96,074	-173,251	0,109	0,002
-95,059	167,165	-0,086	0,087
-94,045	40,933	-0,097	0,062
-93,030	-200,000	-0,003	-0,064
-92,016	72,471	-0,120	0,089
-91,001	60,231	-0,055	-0,038
-89,986	-200,000	0,000	-0,055
-88,972	-38,933	0,187	-0,070
-87,957	800,000	0,025	0,061
-86,943	-168,880	0,040	0,001
-85,928	800,000	-0,076	-0,155
-84,913	-34,256	0,075	-0,029
-83,899	-86,172	0,264	0,057
-82,884	800,000	0,060	0,133
-81,870	155,257	0,065	0,063
-80,855	-200,000	0,002	-0,023
-79,840	-74,204	0,121	0,031
-78,826	484,559	-0,055	0,090
-77,811	448,012	-0,078	-0,123
-76,797	-176,352	0,130	0,002
-75,782	25,067	0,072	-0,043
-74,767	133,541	0,043	-0,040
-73,753	256,947	0,048	0,059
-72,738	-40,081	-0,050	0,018
-71,724	-200,000	0,012	-0,100
-70,709	-200,000	-0,008	0,118
-69,694	-200,000	0,001	-0,063
-68,680	-49,089	0,187	0,063
-67,665	287,013	0,045	0,058
-66,651	-200,000	0,015	0,095
-65,636	-75,381	-0,155	0,039
-64,622	303,413	0,052	0,069
-63,607	-200,000	-0,003	-0,046
-62,592	-100,379	0,046	0,008
-61,578	-2,275	-0,019	-0,010
-60,563	713,090	0,068	0,129
-59,549	-122,398	-0,142	-0,016
-58,534	31,464	-2,206	-1,341
-57,519	-200,000	-0,121	-0,750
-56,505	-200,000	-1,342	-5,048
-55,490	157,458	0,890	0,874
-54,476	800,000	5,277	11,910
-53,461	-200,000	18,714	309,656
-52,446	800,000	737,903	2267,996
-51,432	538,993	1649,459	2791,095
-50,417	75,988	1676,146	1255,233
-49,403	20,517	1597,174	912,969
-48,388	15,093	1551,135	858,708
-47,373	17,622	1542,528	866,866
-46,359	16,609	1531,684	855,586
-45,344	13,593	1527,189	837,726
-44,330	13,499	1525,188	836,115
-43,315	13,468	1523,668	835,092
-42,300	13,389	1522,441	833,986
-41,286	13,374	1520,891	833,026
-40,271	13,461	1519,045	832,423
-39,257	13,449	1517,689	831,585
-38,242	13,482	1516,052	830,825
-37,227	13,460	1514,800	829,992
-36,213	13,437	1513,531	829,151
-35,198	13,450	1512,057	828,375
-34,184	13,513	1510,679	827,905
-33,169	13,441	1509,526	826,878
-32,154	13,457	1508,002	826,091
-31,140	13,510	1506,557	825,533
-30,125	13,507	1505,267	824,776
-29,111	13,492	1503,775	823,853
-28,096	13,501	1502,848	823,359
-27,082	13,501	1501,796	822,746
-26,067	13,520	1500,567	822,135
-25,052	13,474	1499,466	821,272
-24,038	13,463	1498,306	820,550
-23,023	13,486	1497,041	819,935
-22,009	13,492	1496,194	819,470
-20,994	13,535	1495,302	819,162
-19,979	13,458	1494,181	818,134
-18,965	13,467	1493,433	817,739
-17,950	13,497	1492,141	817,147
-16,936	13,412	1491,010	816,074
-15,921	13,394	1490,157	815,485
-14,906	13,373	1488,987	814,706
-13,892	13,375	1487,687	813,973
-12,877	13,346	1487,106	813,481
-11,863	13,322	1485,685	812,550
-10,848	13,322	1485,206	812,255
-9,833	13,473	1484,029	812,329
-8,819	13,420	1483,054	811,497
-7,804	13,341	1482,150	810,585
-6,790	13,356	1481,233	810,125
-5,775	13,403	1480,469	809,904
-4,760	13,402	1479,519	809,346
-3,746	13,357	1478,478	808,527
-2,731	13,256	1477,504	807,463
-1,717	13,175	1476,279	806,367
-0,702	13,201	1475,196	805,868
0,313	13,015	1474,142	805,596
1,327	16,628	1471,153	821,570
2,342	25,867	1238,995	729,682
3,356	22,179	698,007	402,559
4,371	-7,256	466,703	223,207
5,386	-10,892	438,319	204,228
6,400	-12,182	429,440	198,200
7,415	-12,230	425,847	196,454
8,429	-12,726	423,487	194,637
9,444	-12,750	422,182	193,987
10,459	-12,864	421,013	193,269
11,473	-13,146	420,122	192,443
12,488	-13,166	418,893	191,834
13,502	-13,516	418,197	191,004
14,517	-13,443	417,354	190,704
15,531	-13,615	416,834	190,207
16,546	-13,665	416,010	189,743
17,561	-13,596	415,310	189,505
18,575	-13,644	414,769	189,173
19,590	-13,682	414,170	188,830
20,604	-13,619	413,758	188,713
21,619	-13,754	413,273	188,287
22,634	-13,760	412,752	188,025
23,648	-13,801	412,208	187,702
24,663	-13,850	411,798	187,431
25,677	-13,774	411,284	187,287
26,692	-13,815	410,860	187,019
27,707	-13,868	410,305	186,676
28,721	-13,742	410,016	186,703
29,736	-13,803	409,430	186,336
30,750	-13,805	409,017	186,129
31,765	-13,866	408,683	185,875
32,780	-13,833	408,306	185,732
33,794	-13,757	407,742	185,564
34,809	-13,874	407,490	185,272
35,823	-13,881	407,123	185,078
36,838	-13,867	406,713	184,895
37,853	-13,944	406,231	184,554
38,867	-13,934	405,956	184,426
39,882	-13,941	405,584	184,232
40,896	-14,016	405,291	183,979
41,911	-13,945	404,718	183,800
42,926	-13,939	404,346	183,623
43,940	-13,943	404,105	183,492
44,955	-14,042	403,613	183,117
45,969	-14,159	403,247	182,776
46,984	-14,276	402,867	182,427
47,999	-14,524	402,433	181,879
49,013	-14,510	401,887	181,635
50,028	-14,648	401,531	181,270
51,042	-14,703	401,193	181,027
52,057	-14,790	400,798	180,716
53,071	-14,615	400,439	180,773
54,086	-14,597	400,405	180,766
55,101	-14,497	400,021	180,712
56,115	-14,277	399,763	180,876
57,130	-13,809	399,763	181,491
58,144	-13,603	399,369	181,572
59,159	-13,441	399,089	181,646
60,174	-13,421	398,558	181,415
61,188	-13,590	398,257	181,035
62,203	-13,617	397,953	180,845
63,217	-13,700	397,615	180,564
64,232	-13,715	397,301	180,385
65,247	-13,660	396,982	180,297
66,261	-13,620	396,407	180,074
67,276	-14,035	396,081	179,356
68,290	-14,273	395,794	178,893
69,305	-14,150	394,968	178,667
70,320	-14,154	394,769	178,556
71,334	-13,962	394,594	178,717
72,349	-13,623	394,511	179,113
73,363	-13,606	394,398	179,068
74,378	-13,536	393,820	178,882
75,393	-13,711	393,546	178,510
76,407	-13,724	393,202	178,321
77,422	-13,780	392,785	178,043
78,436	-13,810	392,506	177,860
79,451	-13,647	391,948	177,806
80,466	-13,669	391,595	177,601
81,480	-14,176	391,374	176,818
82,495	-14,082	390,993	176,754
83,509	-13,941	390,749	176,813
84,524	-14,125	390,362	176,381
85,539	-14,210	389,945	176,064
86,553	-14,277	389,666	175,835
87,568	-14,139	389,561	175,953
88,582	-14,090	389,069	175,779
89,597	-14,056	388,720	175,650
90,611	-13,909	388,654	175,797
91,626	-13,730	388,426	175,912
92,641	-13,900	388,202	175,573
93,655	-13,947	387,640	175,243
94,670	-13,913	387,422	175,172
95,684	-13,999	387,086	174,892
96,699	-13,828	386,821	174,979
97,714	-13,942	386,270	174,566
98,728	-14,171	386,164	174,206
99,743	-14,150	385,670	173,995
100,757	-14,321	385,426	173,648
101,772	-14,156	385,014	173,660
102,787	-14,046	384,870	173,721
103,801	-14,022	384,577	173,605
104,816	-13,888	384,462	173,710
105,830	-13,705	384,231	173,827
106,845	-13,757	383,904	173,597
107,860	-13,787	383,609	173,409
108,874	-13,763	383,238	173,257
109,889	-13,737	382,793	173,074
110,903	-13,892	382,502	172,727
111,918	-13,836	382,171	172,635
112,933	-13,845	381,886	172,478
113,947	-13,739	381,812	172,566
114,962	-13,734	381,483	172,408
115,976	-13,798	381,235	172,199
116,991	-13,826	380,948	172,018
118,006	-13,708	380,442	171,925
119,020	-13,848	380,451	171,735
120,035	-13,697	380,217	171,806
121,049	-13,699	379,897	171,644
122,064	-13,668	379,601	171,534
123,079	-13,769	379,157	171,190
124,093	-13,894	378,833	170,870
125,108	-14,141	378,593	170,434
126,122	-14,283	378,080	170,006
127,137	-14,287	377,746	169,836
128,151	-14,090	377,544	169,979
129,166	-14,187	377,326	169,744
130,181	-14,244	377,070	169,541
131,195	-14,223	376,673	169,374
132,210	-13,815	376,421	169,760
133,224	-13,824	376,316	169,686
134,239	-13,768	376,004	169,601
135,254	-13,690	375,622	169,512
136,268	-13,789	375,254	169,206
137,283	-14,152	374,878	168,566
138,297	-14,309	374,566	168,214
139,312	-14,500	374,393	167,882
140,327	-13,769	374,161	168,679
141,341	-13,437	374,126	169,062
142,356	-13,339	373,979	169,104
143,370	-13,488	373,747	168,798
144,385	-13,463	373,383	168,649
145,400	-13,399	373,125	168,598
146,414	-13,224	372,741	168,628
147,429	-13,402	372,450	168,259
148,443	-13,461	372,207	168,061
149,458	-13,577	371,868	167,748
150,473	-13,492	371,746	167,783
151,487	-13,585	371,388	167,493
152,502	-13,434	370,998	167,489
153,516	-13,419	371,002	167,494
154,531	-13,490	370,759	167,282
155,546	-13,389	370,262	167,167
156,560	-13,586	370,103	166,837
157,575	-13,642	369,635	166,542
158,589	-13,497	369,489	166,640
159,604	-13,315	369,238	166,737
160,619	-13,235	369,025	166,724
161,633	-13,226	368,832	166,633
162,648	-13,250	368,560	166,466
163,662	-13,321	368,235	166,217
164,677	-13,458	368,017	165,935
165,692	-13,307	367,779	165,998
166,706	-13,286	367,582	165,921
167,721	-13,295	367,356	165,793
168,735	-13,005	367,303	166,110
169,750	-13,236	366,888	165,624
170,764	-13,205	366,497	165,472
171,779	-13,372	366,439	165,226
172,794	-13,176	366,058	165,279
173,808	-13,500	365,831	164,767
174,823	-13,964	365,215	163,909
175,837	-14,082	364,828	163,578
176,852	-13,584	364,832	164,169
177,867	-13,322	364,771	164,446
178,881	-13,250	364,387	164,346
179,896	-13,428	364,259	164,058
180,910	-13,267	364,250	164,235
181,925	-13,337	363,889	163,973
182,940	-13,097	363,621	164,128
183,954	-13,069	363,400	164,047
184,969	-13,081	363,025	163,849
185,983	-13,041	362,907	163,829
186,998	-13,102	362,759	163,674
188,013	-13,171	362,412	163,419
189,027	-13,089	362,196	163,406
190,042	-13,209	361,975	163,148
191,056	-12,969	361,664	163,282
192,071	-12,960	361,311	163,118
193,086	-13,072	361,262	162,947
194,100	-12,749	361,049	163,225
195,115	-12,474	360,750	163,406
196,129	-12,279	360,940	163,711
197,144	-8,193	363,032	169,576
198,159	-4,382	364,812	175,006
199,173	-0,716	366,238	180,120
200,188	-0,065	366,265	180,906
201,202	-0,234	366,007	180,558
202,217	-0,371	365,700	180,224
203,232	-0,082	365,497	180,457
204,246	0,063	365,466	180,602
205,261	0,294	365,211	180,737
206,275	0,317	365,071	180,680
207,290	0,289	364,901	180,547
208,304	0,307	364,425	180,317
209,319	0,295	364,291	180,219
210,334	0,217	364,025	179,978
211,348	0,187	363,546	179,689
212,363	-0,022	363,265	179,284
213,377	0,068	363,074	179,281
214,392	-0,115	362,890	178,955
215,407	0,002	362,754	179,012
216,421	0,049	362,559	178,956
217,436	0,006	362,146	178,685
218,450	-0,109	361,732	178,328
219,465	-0,388	361,702	177,963
220,480	-0,209	361,313	177,970
221,494	-0,279	361,175	177,802
222,509	0,046	361,116	178,145
223,523	0,294	360,725	178,232
224,538	-0,246	360,550	177,487
225,553	-0,167	360,223	177,404
226,567	-0,118	359,945	177,309
227,582	0,246	360,065	177,785
228,596	0,413	359,901	177,886
229,611	0,097	359,461	177,278
230,626	-0,235	358,862	176,574
231,640	-0,060	358,791	176,730
232,655	0,183	358,911	177,061
233,669	0,537	358,551	177,286
234,684	0,507	358,375	177,148
235,699	0,404	358,177	176,912
236,713	0,072	357,722	176,281
237,728	-0,047	357,387	175,960
238,742	-0,181	356,980	175,586
239,757	-0,155	356,817	175,522
240,772	-0,084	356,562	175,464
241,786	-0,161	356,420	175,288
242,801	0,206	356,333	175,660
243,815	0,528	356,174	175,943
244,830	0,370	355,884	175,599
245,844	-0,203	355,443	174,696
246,859	-0,017	355,219	174,787
247,874	0,029	355,163	174,798
248,888	0,298	354,949	174,991
249,903	0,152	354,810	174,737
250,917	0,018	354,490	174,407
251,932	-0,037	354,238	174,204
252,947	-0,309	353,887	173,698
253,961	-0,420	353,715	173,470
254,976	0,002	353,476	173,827
255,990	0,215	353,382	174,014
257,005	0,294	353,225	174,012
258,020	0,172	353,012	173,750
259,034	0,047	352,788	173,480
260,049	0,248	352,422	173,517
261,063	0,183	352,171	173,303
262,078	0,455	352,078	173,556
263,093	0,576	351,952	173,618
264,107	0,397	351,746	173,295
265,122	0,354	351,247	172,984
266,136	0,405	351,087	172,949
267,151	0,509	350,832	172,927
268,166	0,016	350,439	172,151
269,180	-0,314	350,113	171,595
270,195	-0,193	350,147	171,736
271,209	-0,130	349,768	171,608
272,224	0,074	349,597	171,742
273,239	0,085	349,429	171,657
274,253	0,119	349,156	171,546
275,268	-0,214	348,928	171,038
276,282	-0,164	348,548	170,893
277,297	-0,190	348,352	170,752
278,312	-0,092	348,268	170,808
279,326	0,172	348,159	171,041
280,341	0,071	347,958	170,812
281,355	0,119	347,675	170,712
282,370	0,270	347,488	170,777
283,384	0,199	346,998	170,441
284,399	-0,061	346,599	169,934
285,414	-0,274	346,468	169,612
286,428	-0,069	346,412	169,802
287,443	0,077	346,256	169,877
288,457	0,176	346,080	169,887
289,472	0,009	345,710	169,501
290,487	-0,251	345,302	168,992
291,501	-0,426	344,956	168,609
292,516	-0,421	345,131	168,685
293,530	-0,403	344,851	168,554
294,545	-0,130	344,643	168,745
295,560	0,015	344,478	168,814
296,574	0,093	344,379	168,838
297,589	0,009	344,003	168,544
298,603	0,050	343,722	168,438
299,618	0,126	343,677	168,486
300,633	0,202	343,463	168,452
301,647	0,361	343,278	168,524
302,662	0,479	342,971	168,491
303,676	0,415	342,764	168,303
304,691	0,441	342,621	168,247
305,706	0,289	342,372	167,940
306,720	0,287	342,183	167,829
307,735	0,037	341,831	167,361
308,749	-0,021	341,703	167,219
309,764	0,319	341,532	167,502
310,779	0,134	341,138	167,086
311,793	0,044	340,870	166,840
312,808	0,172	340,751	166,909
313,822	0,146	340,473	166,730
314,837	0,186	340,265	166,657
315,852	0,017	340,039	166,343
316,866	0,141	340,006	166,450
317,881	0,333	339,783	166,540
318,895	0,123	339,568	166,187
319,910	-0,122	339,119	165,680
320,925	-0,390	338,731	165,179
321,939	-0,493	338,481	164,928
322,954	-0,055	338,397	165,357
323,968	0,137	338,463	165,587
324,983	0,572	338,244	165,946
325,997	0,691	338,159	166,021
327,012	0,367	337,859	165,501
328,027	0,374	337,628	165,381
329,041	0,571	337,517	165,530
330,056	0,494	337,163	165,256
331,070	0,252	336,662	164,730
332,085	-0,048	336,350	164,232
333,100	0,107	336,278	164,352
334,114	0,439	336,312	164,720
335,129	0,441	336,033	164,570
336,143	0,342	335,664	164,267
337,158	0,277	335,609	164,154
338,173	0,151	335,262	163,831
339,187	0,122	335,032	163,673
340,202	-0,048	334,680	163,301
341,216	-0,099	334,618	163,200
342,231	0,054	334,416	163,254
343,246	0,029	334,145	163,080
344,260	-0,074	333,974	162,869
345,275	0,205	333,761	163,055
346,289	0,272	333,551	163,011
347,304	0,040	333,287	162,615
348,319	0,304	333,148	162,819
349,333	0,473	333,128	162,979
350,348	0,433	332,862	162,791
351,362	0,629	332,815	162,967
352,377	0,679	332,486	162,844
353,392	0,341	332,370	162,407
354,406	0,332	332,068	162,235
355,421	198,634	1327,019	1396,232
356,435	162,669	1448,165	1396,173
