DTS Sentinel unit serial number:	SN410029Multiplexer serial number:	ORYXHardware model number:	OX2-SRSoftware version number:	ORYX F/W v4,00 Oryx Data Collector v3.7.2.0data status	okinstallation	B6 Nyhavnadifferential loss correction	single-endedforward channel	channel 2reverse channel	N/Adate	2023/12/08time	01:25:08forward acquisition time	300,00reverse acquisition time	0,00gamma	499,1914k internal	0,3165k external	0,3165temperature offset calibration	1,0000default loss term (dB/km)	0,3820temperature slope calibration	1,0000multiplexer offset coefficient	1,0000multiplexer slope coefficient	1,0000fibre end	0,00T internal ref (°C)	13,25T ext. ref 1 (°C)	-3,62T ext. ref 2 (°C)	-3,62length (m)	temperature (°C)	Stokes	anti-Stokes-744,400	-40,134	0,154	0,059
-743,385	-110,661	-0,329	-0,049
-742,371	423,050	0,123	0,195
-741,356	-93,005	-0,261	0,053
-740,342	318,745	0,067	0,094
-739,327	-60,749	-0,230	0,071
-738,312	-81,571	0,201	0,048
-737,298	-134,668	-0,357	-0,032
-736,283	214,345	0,126	0,147
-735,269	-103,492	-0,247	0,042
-734,254	-200,000	0,013	0,114
-733,239	-71,824	-0,476	-0,129
-732,225	-140,484	0,120	0,009
-731,210	-200,000	0,008	0,044
-730,196	70,625	-0,047	0,036
-729,181	115,435	-0,104	-0,093
-728,167	-200,000	0,002	0,028
-727,152	135,309	-0,056	-0,054
-726,137	529,470	-0,130	-0,227
-725,123	-1,807	-0,139	-0,071
-724,108	800,000	-0,033	-0,092
-723,094	-200,000	-0,007	-0,146
-722,079	-200,000	0,009	-0,066
-721,064	-39,024	0,092	-0,035
-720,050	-68,516	-0,060	0,017
-719,035	80,164	-0,008	0,006
-718,021	197,567	-0,110	0,124
-717,006	236,560	-0,031	-0,038
-715,991	375,424	0,035	-0,052
-714,977	-200,000	-0,041	-0,151
-713,962	-65,616	0,040	0,012
-712,948	578,422	0,017	-0,030
-711,933	-124,344	-0,102	0,012
-710,918	667,003	0,032	0,061
-709,904	64,668	-0,123	-0,091
-708,889	89,555	-0,071	0,058
-707,875	-51,776	-0,136	0,046
-706,860	415,392	-0,057	-0,089
-705,845	353,485	-0,089	0,130
-704,831	-200,000	0,010	0,085
-703,816	-200,000	0,032	-0,201
-702,802	800,000	0,037	0,104
-701,787	152,163	-0,031	0,031
-700,772	-167,086	-0,088	-0,003
-699,758	27,422	0,031	-0,019
-698,743	-190,427	-0,127	0,001
-697,729	-18,036	-0,075	0,034
-696,714	-158,278	-0,070	0,003
-695,699	-39,118	-0,098	-0,038
-694,685	-200,000	0,014	-0,077
-693,670	-200,000	0,003	0,035
-692,656	-61,459	-0,066	-0,020
-691,641	205,665	-0,071	0,081
-690,627	2,052	-0,118	-0,062
-689,612	193,785	-0,042	-0,047
-688,597	329,451	-0,057	-0,081
-687,583	62,200	-0,117	-0,085
-686,568	-200,000	-0,014	-0,096
-685,554	58,142	-0,118	-0,085
-684,539	40,972	-0,029	0,019
-683,524	17,610	0,152	0,089
-682,510	-151,926	0,153	-0,008
-681,495	537,917	0,020	-0,035
-680,481	-70,193	-0,084	0,023
-679,466	-200,000	0,018	-0,095
-678,451	734,980	0,124	-0,245
-677,437	-55,282	-0,034	0,011
-676,422	800,000	-0,032	-0,074
-675,408	-172,167	-0,131	-0,003
-674,393	108,135	-0,100	0,087
-673,378	-200,000	0,002	0,116
-672,364	-200,000	-0,006	-0,172
-671,349	-200,000	0,011	-0,091
-670,335	-72,053	0,129	0,035
-669,320	139,946	0,009	0,009
-668,305	458,290	-0,018	-0,030
-667,291	214,060	0,030	-0,035
-666,276	7,836	-0,160	-0,088
-665,262	-200,000	-0,001	-0,073
-664,247	-119,359	-0,031	-0,004
-663,232	-200,000	0,018	-0,284
-662,218	-174,193	-0,036	-0,001
-661,203	100,816	-0,060	-0,051
-660,189	114,044	-0,073	0,065
-659,174	-96,312	-0,108	-0,021
-658,159	800,000	0,020	-0,045
-657,145	184,748	-0,099	-0,108
-656,130	115,200	-0,116	-0,104
-655,116	-155,774	0,129	-0,006
-654,101	-82,164	-0,067	-0,016
-653,086	800,000	-0,004	-0,008
-652,072	-200,000	0,010	-0,071
-651,057	55,920	-0,083	-0,059
-650,043	8,012	0,018	-0,010
-649,028	-71,540	0,057	-0,015
-648,014	203,464	-0,093	0,105
-646,999	6,841	0,065	-0,036
-645,984	31,807	-0,060	-0,038
-644,970	-200,000	0,014	-0,119
-643,955	-33,611	-0,066	0,027
-642,941	-200,000	-0,029	-0,129
-641,926	-200,000	0,006	-0,167
-640,911	-200,000	0,006	0,112
-639,897	63,993	0,076	0,056
-638,882	301,193	0,072	-0,098
-637,868	-200,000	0,024	0,083
-636,853	101,258	-0,111	-0,094
-635,838	-200,000	0,010	-0,231
-634,824	-83,661	0,052	-0,012
-633,809	33,057	0,055	-0,035
-632,795	165,819	-0,049	-0,051
-631,780	100,469	0,023	-0,020
-630,765	629,490	0,039	-0,072
-629,751	507,269	-0,040	-0,067
-628,736	386,002	0,032	-0,049
-627,722	800,000	0,007	0,020
-626,707	228,563	0,097	0,116
-625,692	112,136	0,115	0,102
-624,678	-200,000	-0,007	0,030
-623,663	45,175	-0,090	0,061
-622,649	148,455	-0,052	-0,051
-621,634	27,986	-0,097	-0,060
-620,619	105,360	0,042	0,036
-619,605	34,531	-0,030	-0,019
-618,590	378,332	-0,066	-0,100
-617,576	-200,000	-0,012	0,051
-616,561	-200,000	0,000	0,083
-615,546	800,000	-0,028	-0,083
-614,532	800,000	0,040	-0,122
-613,517	25,314	-0,132	0,080
-612,503	-200,000	0,034	0,120
-611,488	-129,055	-0,060	0,006
-610,474	800,000	-0,032	-0,073
-609,459	9,865	0,058	0,032
-608,444	-120,075	-0,067	0,008
-607,430	-160,555	0,143	-0,005
-606,415	528,811	-0,090	-0,156
-605,401	-130,099	0,017	0,002
-604,386	4,863	0,051	0,027
-603,371	-14,107	0,078	0,037
-602,357	800,000	-0,040	-0,114
-601,342	-159,607	-0,152	0,006
-600,328	-200,000	-0,049	0,161
-599,313	-163,811	-0,110	0,004
-598,298	16,185	-0,072	-0,041
-597,284	-113,125	-0,093	0,013
-596,269	30,314	-0,119	0,074
-595,255	300,900	0,044	0,060
-594,240	-82,614	-0,150	-0,035
-593,225	73,514	-0,089	-0,068
-592,211	-97,849	0,060	-0,011
-591,196	95,289	0,012	0,010
-590,182	-129,787	0,107	-0,011
-589,167	-200,000	-0,024	-0,088
-588,152	82,630	-0,050	0,040
-587,138	162,794	-0,053	0,054
-586,123	-95,207	-0,061	0,012
-585,109	391,591	-0,058	0,088
-584,094	-126,488	0,131	-0,014
-583,079	573,780	-0,050	-0,089
-582,065	177,830	-0,043	0,046
-581,050	-200,000	0,027	0,190
-580,036	800,000	-0,036	-0,078
-579,021	800,000	-0,048	0,117
-578,006	-200,000	-0,006	-0,061
-576,992	-122,242	-0,116	-0,014
-575,977	259,245	0,058	0,074
-574,963	-200,000	0,007	0,167
-573,948	-122,070	0,079	0,009
-572,934	426,503	-0,008	0,012
-571,919	30,503	-0,132	-0,082
-570,904	603,122	-0,065	-0,119
-569,890	-50,072	-0,082	0,028
-568,875	160,134	-0,068	-0,069
-567,861	228,222	-0,061	0,073
-566,846	282,698	0,033	-0,044
-565,831	-200,000	0,034	-0,155
-564,817	-13,102	-0,110	-0,052
-563,802	-200,000	0,021	-0,083
-562,788	800,000	-0,027	-0,058
-561,773	-200,000	-0,013	-0,106
-560,758	-34,524	0,154	-0,061
-559,744	-100,545	-0,042	0,008
-558,729	-124,116	-0,008	-0,001
-557,715	161,059	0,047	0,048
-556,700	309,518	0,110	-0,150
-555,685	74,580	-0,122	-0,093
-554,671	522,926	0,051	0,088
-553,656	-44,736	-0,018	-0,007
-552,642	-140,361	0,059	0,004
-551,627	-200,000	-0,007	0,035
-550,612	428,930	-0,015	0,024
-549,598	101,498	-0,067	0,057
-548,583	-123,304	0,046	0,005
-547,569	208,959	-0,059	-0,067
-546,554	-200,000	-0,019	0,129
-545,539	-200,000	-0,019	0,091
-544,525	140,987	-0,025	-0,024
-543,510	97,347	-0,073	-0,061
-542,496	-47,771	0,036	-0,013
-541,481	766,787	-0,042	0,084
-540,466	-35,667	0,076	0,030
-539,452	-200,000	-0,009	-0,088
-538,437	-107,044	-0,008	0,001
-537,423	-19,576	0,058	0,026
-536,408	-200,000	-0,004	0,118
-535,393	418,582	-0,048	-0,076
-534,379	183,497	-0,149	-0,161
-533,364	-132,060	0,024	0,002
-532,350	-199,772	0,178	-0,001
-531,335	453,361	0,044	0,072
-530,321	353,349	0,017	0,025
-529,306	49,765	-0,017	0,012
-528,291	-2,055	-0,151	-0,077
-527,277	-1,457	0,073	-0,037
-526,262	54,493	0,102	-0,071
-525,248	-3,173	0,066	-0,033
-524,233	276,765	-0,029	0,038
-523,218	800,000	0,059	0,182
-522,204	180,129	0,067	0,072
-521,189	-200,000	0,020	-0,147
-520,175	-200,000	-0,037	0,127
-519,160	211,838	-0,102	0,117
-518,145	-200,000	0,031	0,139
-517,131	-200,000	0,011	0,063
-516,116	362,635	0,091	-0,133
-515,102	114,999	-0,054	-0,048
-514,087	-200,000	0,008	-0,046
-513,072	374,652	-0,079	-0,117
-512,058	569,241	-0,020	0,035
-511,043	800,000	-0,021	-0,052
-510,029	-18,928	0,082	-0,037
-509,014	800,000	-0,050	0,147
-507,999	800,000	-0,026	-0,070
-506,985	212,036	-0,029	-0,034
-505,970	100,540	-0,093	-0,078
-504,956	178,160	-0,068	-0,073
-503,941	800,000	-0,050	0,116
-502,926	-109,585	0,127	0,019
-501,912	-111,040	0,104	0,015
-500,897	-200,000	-0,002	-0,187
-499,883	274,429	-0,087	-0,113
-498,868	77,621	-0,102	0,079
-497,853	480,298	0,035	-0,058
-496,839	76,811	-0,114	-0,088
-495,824	-200,000	0,031	-0,160
-494,810	360,642	0,078	0,115
-493,795	23,783	0,018	0,010
-492,781	91,979	-0,079	0,064
-491,766	283,635	0,094	-0,124
-490,751	553,438	0,063	-0,111
-489,737	34,537	-0,082	-0,052
-488,722	157,460	0,064	0,064
-487,708	800,000	-0,006	0,016
-486,693	74,642	-0,095	0,073
-485,678	123,524	0,046	0,042
-484,664	-195,861	-0,172	-0,001
-483,649	800,000	-0,009	-0,020
-482,635	326,152	0,013	-0,018
-481,620	-11,746	-0,085	0,041
-480,605	-200,000	0,026	-0,097
-479,591	800,000	0,048	0,118
-478,576	-200,000	-0,038	-0,125
-477,562	1,328	-0,137	0,071
-476,547	118,811	-0,089	-0,080
-475,532	800,000	0,070	-0,151
-474,518	800,000	-0,026	-0,067
-473,503	-200,000	0,018	0,072
-472,489	371,236	-0,036	0,053
-471,474	155,953	-0,084	-0,084
-470,459	157,730	0,028	-0,028
-469,445	800,000	0,021	-0,061
-468,430	488,958	0,050	-0,084
-467,416	53,618	-0,051	0,036
-466,401	-69,723	-0,126	-0,035
-465,386	800,000	0,038	0,108
-464,372	-200,000	-0,008	0,089
-463,357	-107,529	0,012	-0,002
-462,343	-37,261	0,098	0,038
-461,328	-81,003	-0,047	-0,011
-460,313	-200,000	0,034	0,144
-459,299	-200,000	0,005	0,153
-458,284	546,086	0,056	0,097
-457,270	-115,689	-0,037	0,005
-456,255	800,000	0,075	0,170
-455,241	-43,458	-0,156	-0,057
-454,226	-110,995	-0,023	0,003
-453,211	800,000	0,044	0,094
-452,197	800,000	0,075	0,213
-451,182	123,109	-0,052	0,047
-450,168	18,575	0,082	0,047
-449,153	-200,000	0,012	-0,123
-448,138	-200,000	-0,019	-0,191
-447,124	-64,204	-0,109	-0,032
-446,109	-179,710	0,057	-0,001
-445,095	107,551	-0,018	-0,016
-444,080	800,000	0,030	0,076
-443,065	291,559	-0,040	0,052
-442,051	-200,000	0,007	-0,131
-441,036	-141,669	-0,099	-0,007
-440,022	385,132	0,024	0,036
-439,007	-34,953	0,048	0,019
-437,992	-53,629	-0,015	0,005
-436,978	-200,000	0,008	0,053
-435,963	-58,267	0,060	-0,019
-434,949	98,277	-0,120	0,101
-433,934	800,000	0,035	-0,083
-432,919	196,650	-0,078	0,086
-431,905	-131,153	-0,055	0,005
-430,890	-99,348	0,139	-0,025
-429,876	800,000	0,041	0,092
-428,861	-200,000	0,017	0,115
-427,846	800,000	-0,027	-0,071
-426,832	-117,332	-0,078	-0,010
-425,817	-126,361	-0,118	-0,013
-424,803	-8,947	-0,082	-0,040
-423,788	605,233	0,073	-0,132
-422,773	-87,823	-0,044	-0,010
-421,759	497,661	0,050	-0,084
-420,744	-200,000	0,003	0,042
-419,730	137,519	0,033	0,031
-418,715	-31,045	-0,103	0,042
-417,701	-200,000	-0,020	-0,154
-416,686	800,000	0,046	-0,103
-415,671	-200,000	-0,026	0,088
-414,657	-66,441	0,037	-0,010
-413,642	800,000	0,020	0,052
-412,628	-200,000	-0,014	0,075
-411,613	-109,467	0,117	-0,018
-410,598	800,000	0,022	0,070
-409,584	800,000	-0,020	-0,051
-408,569	35,985	-0,018	0,011
-407,555	250,212	-0,061	0,075
-406,540	800,000	0,032	0,086
-405,525	-200,000	-0,005	-0,049
-404,511	-8,477	-0,072	0,035
-403,496	-30,339	-0,159	-0,065
-402,482	-45,080	0,029	0,011
-401,467	-200,000	0,027	0,088
-400,452	-37,924	-0,064	-0,025
-399,438	-200,000	-0,011	-0,044
-398,423	-105,491	-0,054	-0,009
-397,409	-200,000	-0,009	-0,183
-396,394	50,418	0,068	-0,046
-395,379	418,573	-0,006	-0,010
-394,365	800,000	-0,010	0,021
-393,350	197,790	0,016	-0,018
-392,336	-200,000	0,026	0,100
-391,321	800,000	0,022	0,065
-390,306	-55,241	-0,098	-0,032
-389,292	-124,594	0,083	0,009
-388,277	800,000	0,028	0,081
-387,263	330,876	-0,040	-0,056
-386,248	200,947	0,051	0,057
-385,233	503,610	0,063	0,107
-384,219	-200,000	-0,003	0,159
-383,204	-121,606	-0,067	-0,008
-382,190	112,457	-0,058	-0,051
-381,175	256,603	-0,066	0,082
-380,160	408,505	0,036	-0,055
-379,146	378,458	-0,086	0,128
-378,131	-200,000	-0,033	-0,128
-377,117	-200,000	-0,036	0,121
-376,102	-128,235	0,069	0,007
-375,088	47,943	0,069	-0,047
-374,073	-175,728	0,062	-0,001
-373,058	500,295	-0,038	0,065
-372,044	78,798	0,026	-0,020
-371,029	87,174	0,086	0,069
-370,015	-33,050	-0,090	-0,036
-369,000	340,078	0,079	0,113
-367,985	800,000	-0,005	0,015
-366,971	3,764	0,191	-0,101
-365,956	-73,450	-0,046	0,012
-364,942	800,000	-0,068	0,149
-363,927	-142,067	0,122	0,009
-362,912	534,292	0,078	-0,135
-361,898	-125,037	-0,126	-0,014
-360,883	215,341	0,016	-0,018
-359,869	-200,000	-0,001	-0,108
-358,854	-19,825	0,068	-0,030
-357,839	-109,993	-0,052	-0,008
-356,825	-30,055	0,075	0,031
-355,810	83,122	0,013	-0,010
-354,796	-177,088	-0,086	-0,002
-353,781	593,917	-0,087	0,156
-352,766	190,151	-0,029	0,031
-351,752	383,267	0,030	-0,044
-350,737	770,845	-0,039	-0,078
-349,723	-130,294	0,076	-0,007
-348,708	9,490	0,049	-0,027
-347,693	-144,441	0,092	0,006
-346,679	-200,000	0,001	-0,054
-345,664	54,274	-0,041	0,029
-344,650	-21,661	0,108	0,048
-343,635	0,626	0,121	-0,063
-342,620	-116,829	0,078	0,010
-341,606	60,859	0,160	0,115
-340,591	75,538	0,106	0,081
-339,577	-55,036	0,065	-0,021
-338,562	-200,000	0,015	-0,145
-337,548	800,000	-0,019	-0,051
-336,533	35,727	0,066	0,042
-335,518	-200,000	-0,033	0,146
-334,504	-200,000	-0,010	0,038
-333,489	369,048	-0,045	-0,066
-332,475	-200,000	0,011	-0,056
-331,460	-28,592	0,045	-0,019
-330,445	-120,575	0,034	-0,004
-329,431	67,615	0,002	-0,002
-328,416	176,887	0,095	-0,100
-327,402	-25,363	-0,114	0,048
-326,387	456,693	0,076	0,123
-325,372	-200,000	-0,028	-0,101
-324,358	-126,231	-0,123	0,013
-323,343	-95,104	-0,051	-0,010
-322,329	191,160	0,055	0,060
-321,314	618,958	-0,038	-0,070
-320,299	-151,951	0,050	-0,003
-319,285	112,783	0,076	-0,067
-318,270	304,359	-0,016	-0,021
-317,256	-200,000	-0,002	0,086
-316,241	193,060	-0,052	0,057
-315,226	-38,912	0,093	0,035
-314,212	-56,200	0,120	-0,038
-313,197	-62,510	0,057	0,017
-312,183	-200,000	0,004	0,080
-311,168	500,198	-0,017	-0,028
-310,153	-69,718	0,045	0,012
-309,139	800,000	-0,042	-0,102
-308,124	800,000	0,026	-0,053
-307,110	-55,112	0,047	0,015
-306,095	-200,000	0,004	0,017
-305,080	-0,900	0,095	0,048
-304,066	-171,999	-0,085	-0,002
-303,051	800,000	-0,087	-0,213
-302,037	82,438	0,079	-0,062
-301,022	-18,111	0,081	0,037
-300,008	-62,217	-0,020	-0,006
-298,993	-26,723	0,122	0,051
-297,978	-200,000	0,005	0,043
-296,964	19,739	-0,036	0,021
-295,949	-171,074	-0,027	0,001
-294,935	-93,729	0,024	0,005
-293,920	-200,000	0,000	0,047
-292,905	736,937	0,045	0,088
-291,891	169,045	0,119	0,123
-290,876	-200,000	0,003	-0,030
-289,862	155,947	-0,042	0,042
-288,847	-108,304	-0,045	-0,007
-287,832	800,000	-0,010	0,026
-286,818	53,072	-0,055	0,038
-285,803	-154,432	-0,050	0,002
-284,789	-200,000	0,035	0,151
-283,774	-200,000	0,012	-0,066
-282,759	176,163	0,054	0,056
-281,745	259,711	-0,041	0,051
-280,730	32,724	0,037	-0,023
-279,716	-51,725	0,056	0,019
-278,701	1,687	0,041	0,021
-277,686	800,000	0,012	-0,029
-276,672	800,000	-0,030	-0,075
-275,657	-135,942	-0,193	-0,016
-274,643	-63,610	0,071	-0,021
-273,628	58,055	-0,087	-0,061
-272,613	-10,329	0,099	0,047
-271,599	-157,410	0,162	0,007
-270,584	800,000	0,029	-0,069
-269,570	-131,213	0,170	0,016
-268,555	800,000	-0,026	0,059
-267,540	65,281	0,035	0,025
-266,526	223,360	-0,065	0,076
-265,511	-30,892	0,045	-0,018
-264,497	-80,266	0,069	0,017
-263,482	-101,908	0,121	0,021
-262,467	707,317	0,054	0,103
-261,453	528,848	-0,079	0,135
-260,438	412,974	0,070	-0,108
-259,424	316,135	-0,106	-0,145
-258,409	9,993	-0,183	-0,100
-257,395	230,992	0,025	-0,029
-256,380	104,623	0,096	0,081
-255,365	-64,443	0,010	-0,003
-254,351	-119,270	-0,105	-0,013
-253,336	-200,000	-0,005	-0,087
-252,322	115,049	-0,089	-0,078
-251,307	203,941	-0,025	-0,028
-250,292	-100,747	0,067	-0,012
-249,278	10,902	-0,052	0,029
-248,263	800,000	0,082	0,183
-247,249	123,135	-0,062	0,056
-246,234	297,848	0,055	-0,073
-245,219	130,399	-0,056	-0,052
-244,205	223,557	-0,027	-0,032
-243,190	35,958	0,064	-0,041
-242,176	-136,859	0,095	0,008
-241,161	79,258	0,074	0,057
-240,146	362,761	0,042	-0,061
-239,132	-56,553	-0,061	0,019
-238,117	-7,677	-0,177	-0,086
-237,103	-171,867	-0,061	-0,001
-236,088	-44,144	-0,137	0,049
-235,073	800,000	-0,047	0,124
-234,059	-44,474	0,113	0,041
-233,044	503,265	0,020	0,033
-232,030	-200,000	0,005	-0,118
-231,015	316,118	0,005	0,007
-230,000	396,828	-0,061	-0,092
-228,986	-200,000	0,009	0,043
-227,971	-200,000	-0,025	-0,125
-226,957	382,666	0,059	0,087
-225,942	253,387	0,108	-0,133
-224,927	501,774	0,074	-0,124
-223,913	59,524	0,005	-0,004
-222,898	-44,586	-0,087	-0,031
-221,884	-142,179	-0,155	-0,011
-220,869	116,825	0,048	0,042
-219,855	800,000	-0,026	0,079
-218,840	785,884	0,004	-0,009
-217,825	487,531	-0,037	-0,061
-216,811	332,372	0,095	0,133
-215,796	-64,634	0,107	-0,031
-214,782	70,347	0,072	0,054
-213,767	-137,719	-0,055	-0,004
-212,752	-200,000	-0,020	0,077
-211,738	800,000	0,076	0,197
-210,723	800,000	0,037	-0,094
-209,709	255,700	-0,051	-0,063
-208,694	-48,887	-0,024	0,008
-207,679	182,369	0,127	0,135
-206,665	110,331	-0,045	0,039
-205,650	510,398	0,020	0,034
-204,636	51,679	0,063	0,043
-203,621	-200,000	0,023	0,126
-202,606	310,392	0,060	0,081
-201,592	326,281	-0,010	0,014
-200,577	-200,000	-0,028	0,109
-199,563	120,955	0,108	-0,097
-198,548	229,746	0,059	0,070
-197,533	-200,000	-0,003	0,113
-196,519	-200,000	-0,006	-0,046
-195,504	-77,034	0,065	-0,016
-194,490	-38,021	-0,112	-0,043
-193,475	755,724	0,024	-0,046
-192,460	800,000	-0,040	-0,104
-191,446	-200,000	0,018	-0,073
-190,431	-46,088	-0,098	0,035
-189,417	-179,459	0,134	0,002
-188,402	-90,215	-0,043	-0,009
-187,387	-200,000	-0,008	-0,086
-186,373	94,098	0,013	-0,011
-185,358	-70,073	0,032	0,009
-184,344	-140,548	0,082	0,006
-183,329	-200,000	0,003	-0,042
-182,315	-200,000	-0,022	0,141
-181,300	-200,000	-0,003	0,027
-180,285	196,154	-0,123	0,135
-179,271	-161,560	0,155	-0,006
-178,256	-15,474	0,112	0,051
-177,242	318,550	0,077	-0,106
-176,227	502,514	0,050	-0,083
-175,212	-200,000	-0,012	-0,067
-174,198	-66,164	-0,034	-0,010
-173,183	81,329	-0,067	-0,052
-172,169	-174,285	-0,180	-0,004
-171,154	686,827	0,027	-0,052
-170,139	-5,598	-0,046	0,023
-169,125	-149,141	-0,099	0,006
-168,110	-200,000	-0,024	-0,130
-167,096	47,079	0,118	-0,078
-166,081	349,928	-0,018	0,026
-165,066	211,480	-0,104	-0,117
-164,052	-135,820	0,057	-0,005
-163,037	800,000	0,079	0,234
-162,023	800,000	0,034	0,080
-161,008	800,000	-0,017	0,036
-159,993	-95,904	-0,141	-0,027
-158,979	800,000	-0,060	-0,182
-157,964	125,504	0,091	-0,082
-156,950	-41,247	-0,069	0,025
-155,935	-30,306	-0,066	0,027
-154,920	266,216	0,122	0,154
-153,906	-78,065	0,074	0,018
-152,891	76,647	0,102	-0,078
-151,877	800,000	-0,070	-0,162
-150,862	-200,000	-0,012	-0,084
-149,847	-165,392	-0,105	0,003
-148,833	195,178	0,086	-0,094
-147,818	495,051	0,086	-0,143
-146,804	11,476	0,021	0,011
-145,789	800,000	-0,045	-0,131
-144,775	-30,493	-0,125	0,051
-143,760	-136,192	-0,113	0,009
-142,745	48,863	-0,034	-0,023
-141,731	-101,497	0,049	-0,008
-140,716	-92,840	0,016	0,003
-139,702	800,000	0,021	-0,059
-138,687	87,516	-0,113	0,090
-137,672	-82,736	0,029	-0,007
-136,658	-4,203	-0,045	0,022
-135,643	-93,845	0,115	-0,023
-134,629	35,524	0,063	-0,040
-133,614	800,000	0,071	0,155
-132,599	455,119	0,056	-0,090
-131,585	47,728	-0,125	-0,084
-130,570	102,453	-0,076	0,064
-129,556	-200,000	0,032	-0,134
-128,541	59,276	-0,066	0,047
-127,526	-200,000	-0,034	-0,148
-126,512	-200,000	-0,001	-0,087
-125,497	-17,848	0,096	0,043
-124,483	58,517	-0,018	0,013
-123,468	800,000	0,051	-0,127
-122,453	182,423	0,052	0,056
-121,439	91,475	0,084	-0,068
-120,424	168,910	0,087	-0,089
-119,410	800,000	0,059	0,136
-118,395	135,713	0,095	0,088
-117,380	-29,797	0,125	0,051
-116,366	-200,000	0,020	-0,068
-115,351	325,000	-0,042	0,058
-114,337	-101,330	-0,121	-0,021
-113,322	800,000	0,008	-0,017
-112,307	-154,666	0,072	0,003
-111,293	800,000	0,018	0,057
-110,278	345,831	-0,067	-0,095
-109,264	739,179	0,029	0,057
-108,249	-91,163	-0,069	0,014
-107,234	-2,909	0,095	0,047
-106,220	-200,000	-0,006	0,033
-105,205	26,607	0,051	-0,031
-104,191	-63,682	0,129	0,038
-103,176	-77,364	-0,066	0,016
-102,162	-111,644	0,089	0,013
-101,147	800,000	-0,029	-0,081
-100,132	-200,000	-0,052	-0,187
-99,118	101,535	-0,100	0,084
-98,103	-200,000	-0,014	0,098
-97,089	-116,430	0,148	-0,019
-96,074	84,261	0,029	0,023
-95,059	528,886	0,070	0,118
-94,045	-200,000	-0,019	-0,121
-93,030	13,956	0,074	-0,041
-92,016	-47,021	0,068	0,024
-91,001	-78,176	0,124	-0,030
-89,986	233,253	-0,070	-0,082
-88,972	-101,688	0,113	0,020
-87,957	3,284	0,068	-0,036
-86,943	-200,000	-0,005	-0,042
-85,928	321,277	0,039	-0,053
-84,913	83,701	0,070	0,055
-83,899	-162,478	-0,121	0,004
-82,884	77,911	-0,049	0,037
-81,870	-200,000	0,066	0,243
-80,855	14,472	0,099	-0,055
-79,840	14,166	-0,158	-0,088
-78,826	-200,000	-0,040	-0,305
-77,811	97,268	0,086	0,071
-76,797	800,000	-0,029	0,062
-75,782	11,245	0,019	-0,010
-74,767	35,686	0,105	-0,066
-73,753	49,333	0,075	0,051
-72,738	-94,449	-0,085	-0,016
-71,724	-200,000	0,009	0,052
-70,709	-107,378	-0,112	-0,017
-69,694	-200,000	-0,018	0,129
-68,680	-200,000	-0,006	0,046
-67,665	-30,073	-0,052	0,021
-66,651	800,000	-0,006	0,016
-65,636	1,227	-0,055	-0,028
-64,622	57,285	-0,028	0,020
-63,607	13,129	-0,061	-0,034
-62,592	302,828	0,054	-0,071
-61,578	301,866	-0,075	-0,099
-60,563	800,000	0,052	0,116
-59,549	-187,814	-0,108	0,001
-58,534	22,136	-2,320	-1,353
-57,519	-200,000	0,027	-0,772
-56,505	-200,000	-1,479	-5,132
-55,490	113,962	0,852	0,742
-54,476	800,000	5,414	12,151
-53,461	-200,000	18,821	318,361
-52,446	800,000	740,730	2321,870
-51,432	549,775	1654,344	2850,963
-50,417	110,035	1637,479	1406,684
-49,403	73,624	1287,821	964,835
-48,388	29,685	1029,615	625,958
-47,373	19,668	992,351	570,202
-46,359	17,041	979,913	554,411
-45,344	13,665	976,193	541,213
-44,330	13,967	974,674	541,341
-43,315	13,364	972,634	538,214
-42,300	13,295	971,678	537,438
-41,286	13,263	970,756	536,803
-40,271	13,191	969,951	536,101
-39,257	13,299	968,887	535,842
-38,242	13,289	968,177	535,396
-37,227	13,315	967,251	534,948
-36,213	13,217	966,273	534,066
-35,198	13,188	965,532	533,541
-34,184	13,273	964,723	533,350
-33,169	13,238	963,772	532,688
-32,154	13,334	962,751	532,416
-31,140	13,214	962,089	531,640
-30,125	13,276	961,373	531,422
-29,111	13,243	960,269	530,686
-28,096	13,293	959,827	530,582
-27,082	13,207	959,384	530,037
-26,067	13,301	958,157	529,641
-25,052	13,237	957,636	529,128
-24,038	13,359	956,694	528,976
-23,023	13,286	956,335	528,524
-22,009	13,334	955,573	528,236
-20,994	13,322	955,024	527,873
-19,979	13,345	954,352	527,553
-18,965	13,263	953,831	526,981
-17,950	13,263	953,204	526,615
-16,936	13,213	952,635	526,118
-15,921	13,270	951,783	525,811
-14,906	13,269	950,965	525,335
-13,892	13,203	950,602	524,901
-12,877	13,138	949,950	524,315
-11,863	13,079	949,206	523,695
-10,848	13,189	948,573	523,673
-9,833	13,298	948,184	523,785
-8,819	13,258	947,419	523,214
-7,804	13,264	946,711	522,823
-6,790	13,189	946,400	522,391
-5,775	13,194	945,674	521,985
-4,760	13,194	945,172	521,688
-3,746	13,220	944,449	521,351
-2,731	13,081	943,785	520,524
-1,717	13,027	943,064	519,933
-0,702	13,050	942,342	519,587
0,313	12,832	941,731	519,345
1,327	16,273	939,738	529,067
2,342	25,420	790,366	469,073
3,356	21,458	444,815	258,099
4,371	-7,887	297,671	143,186
5,386	-11,737	279,684	130,844
6,400	-12,814	273,917	127,127
7,415	-12,842	271,512	125,973
8,429	-13,123	270,105	125,050
9,444	-13,257	269,186	124,490
10,459	-13,212	268,555	124,228
11,473	-13,342	267,933	123,811
12,488	-13,379	267,245	123,448
13,502	-13,445	266,671	123,111
14,517	-13,570	266,278	122,805
15,531	-13,388	265,967	122,817
16,546	-13,157	265,585	122,838
17,561	-13,394	265,217	122,442
18,575	-13,101	264,910	122,555
19,590	-13,685	264,526	121,839
20,604	-13,218	264,323	122,156
21,619	-13,290	263,820	121,849
22,634	-13,410	263,565	121,611
23,648	-13,467	263,129	121,348
24,663	-13,321	262,932	121,378
25,677	-13,301	262,629	121,245
26,692	-13,316	262,408	121,119
27,707	-13,461	262,072	120,823
28,721	-13,441	261,892	120,748
29,736	-13,624	261,643	120,458
30,750	-13,433	261,295	120,458
31,765	-13,437	261,026	120,319
32,780	-13,369	260,773	120,252
33,794	-13,489	260,648	120,078
34,809	-13,450	260,322	119,951
35,823	-13,558	260,074	119,730
36,838	-13,292	259,776	119,818
37,853	-13,530	259,706	119,564
38,867	-13,447	259,240	119,412
39,882	-13,608	259,147	119,216
40,896	-13,593	258,816	119,068
41,911	-13,461	258,667	119,104
42,926	-13,345	258,388	119,067
43,940	-13,644	258,035	118,631
44,955	-13,571	257,882	118,615
45,969	-13,786	257,752	118,355
46,984	-13,920	257,391	118,061
47,999	-14,081	257,064	117,760
49,013	-14,163	256,852	117,581
50,028	-14,175	256,478	117,388
51,042	-14,317	256,343	117,192
52,057	-14,338	256,198	117,097
53,071	-14,465	256,233	116,991
54,086	-14,266	255,779	116,948
55,101	-14,129	255,669	117,006
56,115	-14,004	255,558	117,053
57,130	-13,401	255,431	117,509
58,144	-13,315	255,254	117,492
59,159	-13,332	254,955	117,329
60,174	-13,199	254,674	117,305
61,188	-13,289	254,458	117,116
62,203	-13,373	254,251	116,938
63,217	-13,349	254,012	116,839
64,232	-13,227	253,873	116,869
65,247	-13,257	253,537	116,679
66,261	-13,364	253,372	116,500
67,276	-13,610	253,092	116,149
68,290	-13,631	252,669	115,927
69,305	-13,939	252,594	115,618
70,320	-13,761	252,546	115,738
71,334	-13,471	252,312	115,869
72,349	-13,350	252,164	115,895
73,363	-13,318	252,027	115,849
74,378	-13,449	251,752	115,600
75,393	-13,430	251,345	115,419
76,407	-13,482	251,319	115,352
77,422	-13,500	251,111	115,232
78,436	-13,506	250,931	115,133
79,451	-13,221	250,654	115,239
80,466	-13,628	250,400	114,765
81,480	-13,516	250,019	114,675
82,495	-13,658	249,913	114,496
83,509	-13,554	249,719	114,485
84,524	-13,680	249,558	114,295
85,539	-13,700	249,309	114,153
86,553	-13,840	249,039	113,902
87,568	-13,743	248,962	113,938
88,582	-13,697	248,915	113,945
89,597	-13,918	248,732	113,665
90,611	-13,553	248,350	113,788
91,626	-13,319	248,376	113,987
92,641	-13,470	248,036	113,693
93,655	-13,503	247,953	113,618
94,670	-13,670	247,665	113,335
95,684	-13,460	247,397	113,378
96,699	-13,412	247,254	113,343
97,714	-13,551	247,030	113,114
98,728	-13,753	247,024	112,932
99,743	-13,701	246,537	112,742
100,757	-13,934	246,430	112,488
101,772	-13,591	246,183	112,652
102,787	-13,664	246,124	112,554
103,801	-13,663	246,082	112,526
104,816	-13,576	245,821	112,469
105,830	-13,309	245,646	112,601
106,845	-13,367	245,482	112,468
107,860	-13,190	245,117	112,438
108,874	-13,454	244,765	112,047
109,889	-13,465	244,924	112,101
110,903	-13,287	244,568	112,076
111,918	-13,405	244,446	111,912
112,933	-13,366	244,217	111,829
113,947	-13,370	243,974	111,704
114,962	-13,634	243,958	111,469
115,976	-13,519	243,653	111,415
116,991	-13,482	243,592	111,407
118,006	-13,526	243,413	111,280
119,020	-13,499	243,404	111,288
120,035	-13,333	243,031	111,243
121,049	-13,545	242,998	111,044
122,064	-13,331	242,710	111,078
123,079	-13,357	242,527	110,963
124,093	-13,387	242,229	110,792
125,108	-13,738	242,055	110,416
126,122	-14,003	241,789	110,068
127,137	-13,884	241,500	110,023
128,151	-13,758	241,528	110,130
129,166	-13,788	241,268	109,977
130,181	-14,019	241,188	109,742
131,195	-13,955	240,908	109,657
132,210	-13,680	240,733	109,791
133,224	-13,553	240,680	109,861
134,239	-13,462	240,577	109,878
135,254	-13,389	240,305	109,803
136,268	-13,670	240,143	109,491
137,283	-13,745	239,688	109,213
138,297	-13,928	239,361	108,906
139,312	-13,838	239,271	108,928
140,327	-13,537	239,282	109,167
141,341	-13,163	239,258	109,448
142,356	-13,035	239,009	109,429
143,370	-13,082	238,997	109,376
144,385	-13,059	238,769	109,280
145,400	-13,284	238,602	109,013
146,414	-13,232	238,453	108,976
147,429	-13,357	238,185	108,744
148,443	-13,273	237,907	108,674
149,458	-13,328	237,850	108,595
150,473	-13,191	237,640	108,599
151,487	-13,398	237,538	108,377
152,502	-13,227	237,412	108,447
153,516	-13,046	237,210	108,490
154,531	-13,331	237,084	108,194
155,546	-13,106	236,716	108,197
156,560	-13,322	236,608	107,965
157,575	-13,468	236,372	107,731
158,589	-13,342	236,206	107,747
159,604	-13,007	236,050	107,933
160,619	-13,037	235,907	107,833
161,633	-13,008	235,663	107,735
162,648	-13,169	235,653	107,593
163,662	-13,307	235,537	107,421
164,677	-13,332	235,385	107,322
165,692	-13,113	235,197	107,400
166,706	-12,886	235,033	107,496
167,721	-13,090	235,002	107,311
168,735	-13,177	234,814	107,146
169,750	-13,291	234,614	106,956
170,764	-13,070	234,504	107,070
171,779	-13,142	234,180	106,856
172,794	-13,108	234,158	106,863
173,808	-13,377	233,854	106,503
174,823	-13,796	233,554	106,027
175,837	-13,982	233,464	105,831
176,852	-13,416	233,438	106,255
177,867	-13,290	233,322	106,291
178,881	-13,269	233,133	106,212
179,896	-13,018	232,816	106,255
180,910	-12,973	232,748	106,250
181,925	-12,908	232,583	106,216
182,940	-12,923	232,374	106,100
183,954	-13,116	232,413	105,957
184,969	-13,110	232,148	105,831
185,983	-13,010	232,209	105,928
186,998	-12,924	232,010	105,894
188,013	-13,026	231,778	105,700
189,027	-12,990	231,530	105,605
190,042	-13,080	231,294	105,418
191,056	-12,868	231,094	105,482
192,071	-13,072	231,095	105,315
193,086	-13,231	230,958	105,119
194,100	-12,943	230,732	105,230
195,115	-13,313	230,317	104,746
196,129	-12,982	230,518	105,084
197,144	-7,694	232,210	109,970
198,159	-2,739	233,851	114,619
199,173	1,822	235,029	118,768
200,188	2,817	235,261	119,655
201,202	2,479	235,138	119,317
202,217	2,786	234,920	119,436
203,232	3,071	234,703	119,539
204,246	3,015	234,655	119,460
205,261	3,056	234,526	119,415
206,275	3,041	234,515	119,388
207,290	3,290	234,134	119,377
208,304	3,470	234,025	119,451
209,319	3,106	233,780	119,032
210,334	3,105	233,620	118,939
211,348	2,726	233,513	118,579
212,363	2,469	233,205	118,213
213,377	2,279	233,059	117,980
214,392	2,163	232,961	117,831
215,407	2,230	232,874	117,828
216,421	2,583	232,580	117,942
217,436	2,192	232,419	117,547
218,450	2,065	232,230	117,343
219,465	2,249	231,997	117,356
220,480	2,186	231,825	117,211
221,494	2,104	231,706	117,077
222,509	2,320	231,801	117,281
223,523	2,322	231,554	117,148
224,538	2,223	231,353	116,959
225,553	2,176	231,178	116,824
226,567	2,244	231,184	116,869
227,582	2,704	230,867	117,052
228,596	2,562	230,979	116,988
229,611	2,333	230,712	116,668
230,626	2,228	230,451	116,444
231,640	2,306	230,135	116,334
232,655	2,621	230,226	116,611
233,669	2,798	230,169	116,707
234,684	2,807	230,071	116,654
235,699	2,712	229,895	116,482
236,713	2,482	229,581	116,137
237,728	2,480	229,424	116,045
238,742	2,154	229,134	115,640
239,757	2,451	229,048	115,812
240,772	2,376	228,903	115,672
241,786	2,448	228,660	115,594
242,801	2,537	228,666	115,653
243,815	2,878	228,713	115,926
244,830	2,763	228,564	115,752
245,844	2,563	228,240	115,427
246,859	2,419	228,003	115,187
247,874	2,699	227,929	115,352
248,888	2,614	227,912	115,268
249,903	2,463	227,728	115,052
250,917	2,146	227,579	114,726
251,932	2,279	227,378	114,715
252,947	2,321	227,077	114,584
253,961	2,095	227,090	114,410
254,976	2,412	226,825	114,506
255,990	2,487	226,804	114,541
257,005	2,548	226,603	114,475
258,020	2,524	226,541	114,416
259,034	2,788	226,310	114,487
260,049	2,886	226,134	114,461
261,063	2,631	225,928	114,155
262,078	2,745	226,023	114,279
263,093	2,945	225,819	114,315
264,107	2,844	225,650	114,144
265,122	2,704	225,585	113,997
266,136	2,766	225,508	113,994
267,151	2,841	225,218	113,893
268,166	2,409	224,921	113,411
269,180	2,272	224,793	113,234
270,195	2,407	224,634	113,244
271,209	2,240	224,568	113,077
272,224	2,452	224,309	113,094
273,239	2,024	224,423	112,823
274,253	2,533	224,012	112,984
275,268	2,327	223,854	112,742
276,282	1,953	223,722	112,387
277,297	1,989	223,577	112,331
278,312	2,281	223,593	112,545
279,326	2,479	223,375	112,572
280,341	2,327	223,422	112,474
281,355	2,513	223,201	112,490
282,370	2,479	223,117	112,412
283,384	2,213	222,770	112,031
284,399	2,295	222,636	112,014
285,414	2,283	222,492	111,923
286,428	2,449	222,520	112,049
287,443	2,488	222,389	112,002
288,457	2,501	222,219	111,916
289,472	2,058	221,994	111,467
290,487	2,026	221,665	111,269
291,501	1,918	221,541	111,118
292,516	2,004	221,393	111,096
293,530	1,979	221,283	111,013
294,545	2,008	221,274	111,019
295,560	2,372	221,079	111,178
296,574	2,461	220,884	111,135
297,589	2,463	220,921	111,145
298,603	2,319	220,745	110,941
299,618	2,273	220,632	110,842
300,633	2,465	220,413	110,861
301,647	2,723	220,338	111,001
302,662	2,788	220,174	110,956
303,676	2,503	220,122	110,713
304,691	2,544	220,087	110,715
305,706	2,568	219,999	110,679
306,720	2,594	219,680	110,528
307,735	2,531	219,431	110,346
308,749	2,398	219,229	110,139
309,764	2,472	219,183	110,159
310,779	2,817	219,036	110,325
311,793	2,623	218,864	110,089
312,808	2,639	218,764	110,040
313,822	2,598	218,477	109,856
314,837	2,352	218,307	109,583
315,852	2,364	218,364	109,610
316,866	2,432	218,131	109,533
317,881	2,815	217,997	109,731
318,895	2,611	217,869	109,510
319,910	2,376	217,550	109,172
320,925	2,058	217,408	108,863
321,939	1,687	217,332	108,549
322,954	1,692	217,361	108,558
323,968	2,311	217,218	108,920
324,983	2,673	217,174	109,147
325,997	2,834	217,007	109,169
327,012	2,477	216,890	108,845
328,027	2,621	216,705	108,845
329,041	3,101	216,630	109,141
330,056	2,932	216,517	108,954
331,070	2,652	216,201	108,586
332,085	2,339	216,185	108,345
333,100	2,258	215,974	108,172
334,114	2,514	215,809	108,261
335,129	2,568	215,690	108,230
336,143	2,518	215,383	108,031
337,158	2,341	215,405	107,907
338,173	2,368	215,279	107,854
339,187	2,153	215,105	107,604
340,202	2,083	214,858	107,421
341,216	2,401	214,869	107,642
342,231	2,703	214,769	107,796
343,246	2,514	214,687	107,612
344,260	2,649	214,419	107,563
345,275	2,798	214,360	107,629
346,289	2,570	214,327	107,442
347,304	2,749	214,076	107,433
348,319	2,445	213,970	107,156
349,333	2,342	213,836	107,007
350,348	2,343	213,722	106,941
351,362	2,572	213,685	107,074
352,377	2,752	213,387	107,041
353,392	2,540	213,339	106,859
354,406	2,550	213,263	106,818
355,421	197,171	1313,075	1391,156
356,435	157,755	1447,015	1391,092
