DTS Sentinel unit serial number:	SN410029Multiplexer serial number:	ORYXHardware model number:	OX2-SRSoftware version number:	ORYX F/W v4,00 Oryx Data Collector v3.7.2.0data status	okinstallation	B6 Nyhavnadifferential loss correction	single-endedforward channel	channel 2reverse channel	N/Adate	2023/12/08time	03:25:08forward acquisition time	300,00reverse acquisition time	0,00gamma	499,1914k internal	0,3165k external	0,3165temperature offset calibration	1,0000default loss term (dB/km)	0,3820temperature slope calibration	1,0000multiplexer offset coefficient	1,0000multiplexer slope coefficient	1,0000fibre end	0,00T internal ref (°C)	13,12T ext. ref 1 (°C)	-3,76T ext. ref 2 (°C)	-3,77length (m)	temperature (°C)	Stokes	anti-Stokes-744,400	-24,434	0,129	0,056
-743,385	-163,722	-0,273	0,009
-742,371	111,574	0,061	0,054
-741,356	-193,900	-0,367	-0,002
-740,342	-81,510	0,175	0,042
-739,327	-68,413	-0,299	-0,085
-738,312	-112,731	0,072	0,010
-737,298	27,982	-0,336	-0,208
-736,283	214,536	-0,022	0,025
-735,269	-188,183	-0,352	0,003
-734,254	-83,981	0,181	0,042
-733,239	-91,679	-0,495	-0,103
-732,225	256,241	0,094	0,118
-731,210	167,111	-0,060	-0,062
-730,196	78,604	-0,044	-0,035
-729,181	-100,487	-0,091	-0,016
-728,167	-200,000	-0,005	0,070
-727,152	-200,000	-0,028	-0,099
-726,137	800,000	-0,053	-0,171
-725,123	7,588	-0,117	-0,064
-724,108	-200,000	-0,054	-0,219
-723,094	424,947	-0,123	-0,196
-722,079	741,106	0,027	-0,054
-721,064	-136,640	0,105	0,009
-720,050	-200,000	-0,080	-0,000
-719,035	-152,948	-0,082	0,004
-718,021	-42,920	-0,058	-0,021
-717,006	381,648	0,023	-0,034
-715,991	-41,938	-0,101	-0,038
-714,977	243,853	-0,129	-0,159
-713,962	-136,747	-0,049	0,004
-712,948	-89,177	0,146	-0,031
-711,933	-200,000	0,000	-0,002
-710,918	-115,828	-0,113	-0,015
-709,904	-200,000	-0,050	-0,187
-708,889	-200,000	-0,013	-0,136
-707,875	-200,000	-0,018	-0,078
-706,860	-52,865	-0,136	0,046
-705,845	-105,506	0,103	0,017
-704,831	-200,000	-0,001	0,172
-703,816	-200,000	0,029	0,125
-702,802	-200,000	-0,009	-0,030
-701,787	396,711	-0,066	-0,102
-700,772	-200,000	-0,118	-0,000
-699,758	239,920	0,033	0,041
-698,743	-200,000	-0,002	0,049
-697,729	-95,769	-0,060	0,012
-696,714	161,133	0,030	0,030
-695,699	-200,000	0,011	-0,052
-694,685	15,446	0,090	0,051
-693,670	-180,795	-0,014	0,000
-692,656	800,000	-0,043	0,095
-691,641	-54,252	0,069	0,023
-690,627	171,511	-0,083	0,087
-689,612	-58,782	-0,035	-0,011
-688,597	19,983	-0,106	-0,062
-687,583	-172,892	-0,130	0,003
-686,568	-200,000	-0,011	-0,042
-685,554	-200,000	-0,021	-0,098
-684,539	139,241	0,018	0,017
-683,524	32,792	-0,099	-0,063
-682,510	-200,000	-0,003	0,055
-681,495	800,000	0,023	-0,066
-680,481	-29,628	-0,124	-0,052
-679,466	349,070	-0,074	-0,107
-678,451	-153,094	0,078	0,004
-677,437	-154,379	0,029	-0,001
-676,422	292,906	0,032	-0,042
-675,408	104,013	-0,068	0,058
-674,393	-200,000	-0,002	0,103
-673,378	102,301	-0,076	-0,066
-672,364	211,980	0,062	-0,072
-671,349	144,495	0,008	-0,008
-670,335	-113,275	0,089	-0,013
-669,320	-164,723	-0,050	-0,002
-668,305	-200,000	0,018	0,110
-667,291	-1,751	-0,117	-0,060
-666,276	382,359	0,022	-0,033
-665,262	-200,000	-0,014	-0,163
-664,247	279,667	-0,063	-0,083
-663,232	-35,937	0,027	0,010
-662,218	-200,000	-0,049	0,178
-661,203	-157,634	-0,088	-0,004
-660,189	-83,177	0,137	-0,032
-659,174	75,255	-0,060	0,046
-658,159	160,384	-0,051	0,052
-657,145	15,975	-0,028	-0,016
-656,130	-200,000	-0,007	0,149
-655,116	-200,000	-0,001	0,021
-654,101	-100,461	0,043	-0,008
-653,086	-200,000	-0,021	0,146
-652,072	-200,000	-0,007	0,057
-651,057	-200,000	-0,014	-0,087
-650,043	-200,000	0,004	0,032
-649,028	317,433	-0,098	-0,137
-648,014	431,643	-0,034	-0,054
-646,999	-174,063	0,154	0,003
-645,984	389,994	0,033	0,050
-644,970	-200,000	0,008	-0,174
-643,955	-200,000	-0,052	-0,233
-642,941	8,996	-0,155	-0,086
-641,926	-200,000	0,014	-0,060
-640,911	-200,000	0,013	-0,077
-639,897	433,888	0,036	-0,058
-638,882	-105,317	0,053	-0,009
-637,868	217,726	-0,061	-0,072
-636,853	-200,000	0,018	-0,063
-635,838	798,393	0,061	-0,124
-634,824	-200,000	0,038	-0,164
-633,809	78,526	-0,051	0,040
-632,795	800,000	-0,045	0,124
-631,780	50,337	0,094	0,065
-630,765	705,312	-0,053	-0,103
-629,751	-200,000	-0,011	0,057
-628,736	151,800	0,057	0,057
-627,722	-51,629	-0,070	-0,024
-626,707	83,404	0,036	0,029
-625,692	55,409	-0,079	0,056
-624,678	-110,700	-0,048	0,007
-623,663	-94,928	0,195	-0,038
-622,649	-200,000	-0,005	0,066
-621,634	116,901	0,100	0,090
-620,619	800,000	-0,033	0,067
-619,605	20,034	0,115	-0,068
-618,590	704,595	-0,021	-0,041
-617,576	-22,384	0,078	-0,034
-616,561	170,885	-0,027	-0,029
-615,546	121,921	0,057	0,052
-614,532	112,400	-0,065	-0,058
-613,517	-100,375	0,112	0,020
-612,503	-149,193	0,039	-0,002
-611,488	-161,940	0,073	0,003
-610,474	-200,000	-0,021	0,127
-609,459	79,707	0,056	-0,044
-608,444	165,355	-0,107	-0,111
-607,430	-83,190	0,101	-0,023
-606,415	-95,666	-0,101	-0,020
-605,401	-109,802	-0,105	-0,016
-604,386	-134,040	0,098	0,009
-603,371	800,000	0,073	0,196
-602,357	200,413	0,047	-0,053
-601,342	800,000	-0,012	0,037
-600,328	34,858	-0,084	0,053
-599,313	-200,000	0,007	0,092
-598,298	69,809	-0,033	-0,025
-597,284	-124,425	-0,178	0,020
-596,269	-188,557	-0,060	0,001
-595,255	-200,000	0,028	-0,103
-594,240	800,000	-0,041	-0,100
-593,225	-57,963	0,102	-0,032
-592,211	800,000	-0,057	-0,154
-591,196	499,455	0,071	0,120
-590,182	800,000	0,008	0,026
-589,167	800,000	0,020	0,062
-588,152	192,595	-0,034	-0,037
-587,138	98,218	0,087	-0,073
-586,123	109,203	-0,018	-0,016
-585,109	-17,323	0,019	-0,009
-584,094	800,000	0,043	-0,104
-583,079	118,482	0,072	0,065
-582,065	94,567	0,032	0,027
-581,050	323,619	-0,050	-0,070
-580,036	-54,353	-0,107	-0,035
-579,021	800,000	0,037	0,086
-578,006	102,899	0,069	0,059
-576,992	76,636	-0,108	0,084
-575,977	7,570	-0,092	-0,050
-574,963	379,888	-0,055	0,083
-573,948	-59,858	0,036	0,011
-572,934	-0,845	-0,074	0,038
-571,919	800,000	0,019	0,052
-570,904	-200,000	-0,014	-0,146
-569,890	-200,000	0,021	-0,077
-568,875	346,267	-0,048	-0,069
-567,861	-74,184	0,061	0,016
-566,846	-171,273	0,084	0,002
-565,831	-200,000	0,012	-0,087
-564,817	31,990	-0,082	0,051
-563,802	129,121	-0,050	-0,047
-562,788	-200,000	0,003	-0,124
-561,773	55,729	0,118	0,083
-560,758	136,598	0,070	-0,067
-559,744	800,000	-0,054	0,166
-558,729	-200,000	0,024	-0,153
-557,715	800,000	0,025	0,072
-556,700	-15,259	-0,098	-0,046
-555,685	487,519	0,017	0,029
-554,671	-88,586	0,156	-0,034
-553,656	-113,876	0,025	0,003
-552,642	-28,290	0,118	0,050
-551,627	-92,824	0,057	0,011
-550,612	102,459	-0,050	0,043
-549,598	-200,000	-0,022	-0,082
-548,583	800,000	-0,039	0,108
-547,569	-165,456	-0,114	0,004
-546,554	-34,854	-0,032	-0,013
-545,539	-200,000	0,021	0,167
-544,525	305,934	-0,060	0,082
-543,510	-200,000	-0,032	-0,150
-542,496	153,090	0,059	0,059
-541,481	741,062	0,047	0,093
-540,466	-156,877	-0,126	-0,006
-539,452	540,631	0,042	0,074
-538,437	-200,000	-0,000	0,002
-537,423	-44,503	-0,095	0,035
-536,408	46,327	-0,108	0,073
-535,393	800,000	0,055	-0,120
-534,379	147,839	-0,057	-0,056
-533,364	235,529	-0,102	0,123
-532,350	-162,880	0,117	0,004
-531,335	26,010	-0,052	-0,031
-530,321	-200,000	-0,026	0,155
-529,306	272,024	0,052	0,067
-528,291	562,707	0,036	0,064
-527,277	58,815	0,053	-0,038
-526,262	-114,307	-0,062	-0,009
-525,248	-135,397	0,081	-0,007
-524,233	360,635	0,042	0,062
-523,218	800,000	0,026	0,080
-522,204	45,571	-0,117	-0,079
-521,189	355,311	0,083	-0,121
-520,175	305,665	-0,122	-0,166
-519,160	-200,000	0,012	0,102
-518,145	5,397	-0,054	0,029
-517,131	-200,000	0,009	-0,094
-516,116	28,714	0,059	0,036
-515,102	-102,915	0,029	-0,005
-514,087	326,937	0,038	-0,053
-513,072	-33,647	-0,145	-0,058
-512,058	-200,000	-0,003	0,109
-511,043	800,000	0,100	0,251
-510,029	140,528	0,138	0,133
-509,014	-115,930	0,155	-0,021
-507,999	210,062	-0,045	0,052
-506,985	-200,000	0,006	0,028
-505,970	632,883	-0,050	-0,092
-504,956	534,028	-0,089	-0,155
-503,941	-142,687	0,047	-0,003
-502,926	-200,000	-0,011	0,039
-501,912	-64,619	0,044	-0,013
-500,897	-200,000	-0,015	0,088
-499,883	-200,000	-0,011	-0,122
-498,868	736,515	0,035	0,068
-497,853	48,535	-0,059	-0,041
-496,839	113,329	0,071	0,063
-495,824	145,497	-0,063	0,062
-494,810	-112,965	-0,039	0,006
-493,795	-116,997	0,079	-0,010
-492,781	-111,601	-0,139	0,020
-491,766	-38,884	0,031	0,012
-490,751	367,959	-0,070	-0,104
-489,737	800,000	-0,015	0,034
-488,722	-42,005	0,051	-0,019
-487,708	-0,531	0,012	-0,006
-486,693	800,000	0,011	-0,029
-485,678	800,000	0,047	-0,111
-484,664	25,605	-0,093	-0,056
-483,649	-200,000	0,026	-0,122
-482,635	388,787	-0,044	-0,066
-481,620	-64,990	0,149	0,043
-480,605	-200,000	-0,048	0,231
-479,591	162,615	-0,039	0,039
-478,576	-200,000	0,026	0,144
-477,562	-200,000	0,001	-0,070
-476,547	-132,280	-0,134	-0,012
-475,532	-111,393	0,116	-0,017
-474,518	61,534	-0,069	0,050
-473,503	-200,000	-0,031	-0,128
-472,489	588,137	0,045	-0,082
-471,474	-27,762	-0,148	-0,062
-470,459	-200,000	0,011	-0,259
-469,445	637,743	-0,156	-0,290
-468,430	-200,000	0,042	-0,136
-467,416	71,303	0,144	-0,108
-466,401	-200,000	0,028	0,121
-465,386	-200,000	0,032	0,116
-464,372	800,000	0,045	-0,129
-463,357	-200,000	-0,012	-0,105
-462,343	-50,280	-0,161	-0,055
-461,328	800,000	0,014	-0,029
-460,313	-200,000	-0,004	0,052
-459,299	-36,629	-0,139	-0,054
-458,284	-138,756	0,109	0,009
-457,270	800,000	0,038	0,107
-456,255	-200,000	0,035	0,121
-455,241	800,000	-0,048	-0,138
-454,226	8,539	0,051	0,028
-453,211	253,150	-0,063	0,079
-452,197	-31,474	0,048	0,020
-451,182	-84,269	0,072	-0,016
-450,168	39,068	0,035	-0,022
-449,153	-47,996	-0,126	0,044
-448,138	-200,000	-0,027	-0,110
-447,124	800,000	0,087	-0,253
-446,109	149,941	-0,068	0,067
-445,095	-76,437	-0,032	-0,008
-444,080	597,703	-0,038	-0,069
-443,065	-129,407	0,090	0,009
-442,051	134,312	0,022	-0,021
-441,036	-200,000	0,005	-0,017
-440,022	-155,631	-0,073	0,003
-439,007	103,386	-0,040	0,034
-437,992	555,704	0,053	-0,092
-436,978	-28,257	0,088	-0,037
-435,963	420,861	0,039	0,060
-434,949	-115,837	-0,007	0,001
-433,934	-95,333	-0,185	-0,036
-432,919	-82,621	-0,062	-0,014
-431,905	-136,850	0,184	-0,015
-430,890	-200,000	-0,012	0,086
-429,876	-5,099	0,053	0,027
-428,861	-52,634	-0,044	-0,015
-427,846	-54,796	0,108	0,035
-426,832	-200,000	-0,022	-0,102
-425,817	233,576	0,068	-0,081
-424,803	-137,109	0,049	-0,004
-423,788	122,279	-0,030	0,027
-422,773	-200,000	0,016	0,105
-421,759	-200,000	0,001	0,054
-420,744	-200,000	0,013	0,104
-419,730	64,094	-0,040	-0,029
-418,715	-200,000	0,008	0,068
-417,701	-54,373	0,076	-0,025
-416,686	71,257	0,088	-0,066
-415,671	49,242	0,081	0,055
-414,657	-44,494	-0,081	-0,029
-413,642	-141,297	0,128	0,009
-412,628	6,351	-0,110	-0,059
-411,613	106,734	-0,064	-0,055
-410,598	800,000	-0,063	0,132
-409,584	-200,000	-0,033	0,000
-408,569	287,305	0,058	0,077
-407,555	-200,000	0,010	-0,051
-406,540	-200,000	0,005	0,022
-405,525	-165,671	-0,112	-0,003
-404,511	-200,000	0,037	-0,166
-403,496	-105,878	0,052	-0,008
-402,482	325,978	0,087	0,121
-401,467	-12,248	0,135	0,064
-400,452	-200,000	0,042	0,150
-399,438	800,000	-0,041	-0,093
-398,423	-8,355	0,022	-0,011
-397,409	127,043	0,041	-0,038
-396,394	-65,728	-0,059	0,017
-395,379	-200,000	-0,013	-0,070
-394,365	-37,237	-0,116	0,045
-393,350	50,163	-0,034	-0,023
-392,336	103,568	-0,031	0,026
-391,321	74,161	0,114	-0,087
-390,306	-200,000	0,010	-0,184
-389,292	-200,000	0,002	-0,137
-388,277	800,000	0,047	0,100
-387,263	-200,000	0,004	-0,031
-386,248	3,169	0,038	0,020
-385,233	267,950	-0,040	-0,051
-384,219	127,233	-0,058	0,054
-383,204	65,271	0,035	-0,026
-382,190	-146,426	0,122	0,008
-381,175	800,000	0,017	-0,050
-380,160	247,913	0,064	0,079
-379,146	22,635	0,119	0,070
-378,131	-83,787	0,069	-0,016
-377,117	98,403	0,102	-0,085
-376,102	-200,000	0,009	0,083
-375,088	99,010	-0,084	0,071
-374,073	-200,000	0,007	-0,034
-373,058	84,224	0,048	-0,038
-372,044	-200,000	0,005	0,021
-371,029	-200,000	-0,005	0,083
-370,015	800,000	0,033	0,101
-369,000	-200,000	0,005	-0,107
-367,985	-84,958	-0,117	-0,026
-366,971	765,073	0,016	0,033
-365,956	329,757	0,030	0,043
-364,942	800,000	0,060	0,140
-363,927	397,755	-0,038	0,057
-362,912	128,103	-0,059	0,054
-361,898	125,191	-0,064	0,058
-360,883	360,438	0,068	-0,099
-359,869	318,639	0,076	-0,105
-358,854	800,000	-0,048	0,145
-357,839	-200,000	0,004	-0,013
-356,825	30,727	0,093	0,057
-355,810	438,616	0,022	-0,034
-354,796	300,473	-0,093	-0,125
-353,781	-87,865	-0,034	0,007
-352,766	320,996	-0,064	-0,088
-351,752	-200,000	-0,003	-0,049
-350,737	-104,426	-0,102	-0,017
-349,723	800,000	-0,048	0,138
-348,708	800,000	0,052	-0,131
-347,693	-55,738	-0,106	0,034
-346,679	67,117	-0,057	0,042
-345,664	-200,000	-0,028	-0,194
-344,650	94,715	-0,054	-0,044
-343,635	-113,321	0,073	-0,010
-342,620	-200,000	-0,007	-0,025
-341,606	63,408	-0,111	0,081
-340,591	800,000	0,051	0,134
-339,577	145,440	-0,041	-0,040
-338,562	800,000	-0,025	-0,063
-337,548	-200,000	0,026	-0,109
-336,533	130,529	0,097	0,090
-335,518	-148,865	-0,230	0,013
-334,504	30,203	0,010	0,006
-333,489	-109,056	-0,196	0,030
-332,475	-200,000	-0,037	-0,163
-331,460	269,409	-0,071	-0,090
-330,445	778,304	-0,007	0,015
-329,431	-145,436	-0,097	0,006
-328,416	-200,000	-0,007	0,039
-327,402	-44,217	0,050	0,018
-326,387	-200,000	0,006	0,033
-325,372	-109,632	0,105	-0,016
-324,358	-200,000	0,000	0,025
-323,343	800,000	-0,048	-0,129
-322,329	-79,127	0,128	-0,031
-321,314	252,014	0,061	0,076
-320,299	-184,492	-0,114	-0,001
-319,285	-97,882	-0,042	0,008
-318,270	142,287	-0,069	-0,067
-317,256	-200,000	0,003	-0,101
-316,241	177,243	-0,069	-0,073
-315,226	55,462	0,038	0,027
-314,212	800,000	0,040	0,084
-313,197	381,058	0,045	-0,067
-312,183	-200,000	0,015	-0,146
-311,168	-64,415	0,162	-0,047
-310,153	-39,211	-0,173	0,065
-309,139	-122,621	-0,059	0,007
-308,124	-86,599	0,073	0,016
-307,110	-200,000	-0,003	0,153
-306,095	679,017	0,092	0,175
-305,080	-48,659	-0,093	-0,032
-304,066	-70,999	-0,160	-0,043
-303,051	-200,000	-0,003	0,102
-302,037	-179,142	0,035	-0,001
-301,022	-18,098	0,053	-0,024
-300,008	-2,406	0,111	0,056
-298,993	751,109	-0,051	0,100
-297,978	20,705	-0,125	-0,073
-296,964	212,850	0,028	0,031
-295,949	800,000	0,044	0,108
-294,935	375,341	-0,040	-0,060
-293,920	-62,808	0,164	0,049
-292,905	-200,000	-0,007	0,035
-291,891	-200,000	-0,002	-0,036
-290,876	188,234	-0,009	0,010
-289,862	199,253	0,020	-0,022
-288,847	369,064	-0,107	-0,157
-287,832	6,744	0,117	0,063
-286,818	-144,157	0,113	0,008
-285,803	-172,490	-0,101	0,002
-284,789	101,560	-0,011	-0,009
-283,774	122,829	-0,049	-0,044
-282,759	-151,359	0,068	-0,004
-281,745	452,425	-0,051	-0,082
-280,730	-141,012	-0,020	0,001
-279,716	352,655	-0,037	-0,052
-278,701	-20,831	0,035	0,015
-277,686	-92,761	-0,077	0,015
-276,672	605,509	-0,016	-0,029
-275,657	-200,000	-0,001	0,036
-274,643	88,600	-0,074	-0,059
-273,628	-200,000	0,004	-0,091
-272,613	-200,000	0,004	-0,178
-271,599	35,825	-0,126	-0,080
-270,584	63,426	0,081	0,059
-269,570	385,840	0,037	-0,056
-268,555	16,106	-0,056	0,032
-267,540	-93,511	-0,093	0,018
-266,526	800,000	0,019	0,046
-265,511	247,314	-0,032	0,040
-264,497	148,134	0,072	-0,070
-263,482	720,488	0,032	0,062
-262,467	-200,000	-0,011	0,169
-261,453	-40,860	-0,051	-0,019
-260,438	-200,000	-0,010	-0,033
-259,424	62,868	0,034	0,025
-258,409	-200,000	0,013	-0,101
-257,395	39,222	-0,019	-0,012
-256,380	2,530	0,065	-0,034
-255,365	-200,000	0,024	0,117
-254,351	-200,000	0,008	0,123
-253,336	-134,474	0,095	0,008
-252,322	800,000	-0,044	-0,125
-251,307	290,507	-0,059	0,078
-250,292	340,767	0,033	0,047
-249,278	-200,000	-0,033	0,118
-248,263	-15,628	0,199	0,091
-247,249	-200,000	0,017	0,120
-246,234	108,100	-0,065	-0,056
-245,219	-72,711	0,080	0,021
-244,205	-112,722	0,051	0,007
-243,190	290,072	0,018	0,024
-242,176	336,655	0,102	0,143
-241,161	800,000	0,046	0,097
-240,146	60,148	0,061	0,044
-239,132	721,176	-0,035	0,068
-238,117	560,409	-0,058	0,102
-237,103	-200,000	-0,002	-0,062
-236,088	-200,000	-0,017	0,067
-235,073	-16,883	0,141	-0,064
-234,059	-70,912	0,116	-0,031
-233,044	-200,000	-0,002	-0,027
-232,030	-200,000	0,010	-0,036
-231,015	275,511	-0,037	0,047
-230,000	-36,186	-0,027	0,010
-228,986	-3,628	-0,137	0,069
-227,971	-65,247	0,070	0,020
-226,957	800,000	-0,022	0,055
-225,942	-200,000	-0,003	0,162
-224,927	-200,000	0,008	0,081
-223,913	-18,585	-0,028	-0,013
-222,898	800,000	-0,026	0,063
-221,884	-200,000	0,024	0,155
-220,869	312,018	0,104	-0,140
-219,855	-83,477	-0,081	-0,019
-218,840	-200,000	0,009	0,090
-217,825	-132,296	-0,095	0,009
-216,811	-200,000	0,006	-0,062
-215,796	529,615	-0,060	0,103
-214,782	-106,824	-0,038	-0,006
-213,767	-200,000	-0,005	-0,121
-212,752	65,617	-0,088	-0,064
-211,738	-105,862	0,055	-0,009
-210,723	-51,649	-0,148	-0,049
-209,709	800,000	-0,010	-0,020
-208,694	-200,000	-0,024	-0,081
-207,679	148,513	-0,065	0,063
-206,665	-200,000	0,003	0,079
-205,650	286,079	-0,117	0,153
-204,636	-47,648	0,122	0,042
-203,621	344,943	-0,062	-0,088
-202,606	-21,639	-0,104	-0,045
-201,592	-200,000	0,013	0,050
-200,577	119,812	-0,063	0,056
-199,563	-200,000	0,014	-0,062
-198,548	26,712	-0,060	0,036
-197,533	-109,596	0,100	-0,015
-196,519	642,054	-0,055	-0,102
-195,504	240,955	-0,103	-0,124
-194,490	187,265	0,077	-0,083
-193,475	-13,181	-0,051	-0,024
-192,460	424,199	-0,012	-0,019
-191,446	498,700	-0,026	0,043
-190,431	-71,731	0,187	0,050
-189,417	-9,315	-0,006	0,003
-188,402	500,380	0,069	-0,116
-187,387	-35,948	-0,070	-0,027
-186,373	20,224	-0,110	0,063
-185,358	295,280	-0,086	-0,113
-184,344	155,645	0,142	0,141
-183,329	-132,332	0,088	0,008
-182,315	430,828	0,073	0,115
-181,300	-58,633	0,028	0,009
-180,285	-45,060	-0,140	0,050
-179,271	-99,584	-0,084	0,015
-178,256	-200,000	-0,001	0,143
-177,242	-200,000	0,025	0,124
-176,227	168,730	0,026	-0,027
-175,212	347,070	-0,051	0,072
-174,198	-80,223	-0,100	-0,024
-173,183	-200,000	-0,016	-0,059
-172,169	-2,535	0,113	0,057
-171,154	-110,874	-0,064	0,009
-170,139	800,000	-0,013	-0,039
-169,125	-43,202	0,201	0,073
-168,110	800,000	0,064	0,190
-167,096	800,000	-0,016	-0,040
-166,081	-69,712	-0,061	-0,017
-165,066	243,886	-0,084	0,102
-164,052	370,920	0,062	0,091
-163,037	-200,000	-0,001	-0,051
-162,023	-43,933	0,110	-0,040
-161,008	307,698	-0,024	0,032
-159,993	-139,205	-0,082	0,006
-158,979	272,018	0,095	-0,120
-157,964	109,211	-0,061	0,052
-156,950	-200,000	-0,020	-0,067
-155,935	-79,985	0,033	0,008
-154,920	-200,000	0,016	0,132
-153,906	412,064	0,149	0,227
-152,891	-33,525	-0,031	-0,012
-151,877	143,366	0,059	-0,057
-150,862	49,343	0,015	-0,010
-149,847	96,954	0,160	-0,132
-148,833	54,446	0,039	0,027
-147,818	150,468	0,062	-0,061
-146,804	-200,000	-0,004	0,091
-145,789	39,619	-0,128	0,082
-144,775	488,076	0,033	0,054
-143,760	-200,000	-0,030	-0,183
-142,745	-200,000	-0,010	-0,106
-141,731	303,304	-0,022	-0,029
-140,716	-200,000	0,038	0,133
-139,702	-200,000	-0,006	-0,043
-138,687	-200,000	-0,022	0,135
-137,672	307,306	-0,075	0,101
-136,658	-24,424	-0,041	0,018
-135,643	313,118	0,060	-0,082
-134,629	192,790	-0,040	0,043
-133,614	-69,659	0,136	-0,037
-132,599	110,060	0,047	-0,040
-131,585	-44,033	0,107	0,039
-130,570	-200,000	-0,003	0,033
-129,556	323,330	0,035	0,048
-128,541	116,857	0,051	0,045
-127,526	6,515	0,048	-0,026
-126,512	637,160	-0,009	0,017
-125,497	-44,249	0,049	-0,017
-124,483	80,043	-0,043	-0,033
-123,468	-200,000	0,008	-0,073
-122,453	695,785	-0,051	-0,096
-121,439	-103,151	0,061	0,010
-120,424	800,000	-0,038	-0,101
-119,410	7,144	0,131	0,070
-118,395	-200,000	0,007	-0,146
-117,380	-102,331	0,111	-0,019
-116,366	334,946	0,072	0,100
-115,351	36,716	-0,034	0,021
-114,337	-200,000	0,000	-0,066
-113,322	-115,695	0,075	0,010
-112,307	156,516	-0,038	0,038
-111,293	17,449	0,021	0,012
-110,278	5,678	-0,084	-0,045
-109,264	-109,101	-0,064	-0,010
-108,249	107,866	-0,058	0,050
-107,234	138,465	0,048	0,045
-106,220	30,249	-0,115	-0,070
-105,205	-118,079	0,209	-0,026
-104,191	-200,000	0,022	0,097
-103,176	800,000	0,056	0,149
-102,162	659,842	-0,043	0,080
-101,147	-200,000	-0,017	-0,065
-100,132	-162,259	-0,053	-0,002
-99,118	-71,321	0,135	0,036
-98,103	96,361	-0,045	-0,037
-97,089	-54,680	0,058	0,019
-96,074	265,098	-0,066	0,083
-95,059	72,472	-0,092	0,069
-94,045	-15,503	-0,162	0,074
-93,030	-73,686	0,102	-0,026
-92,016	97,248	0,088	-0,073
-91,001	102,701	0,081	0,068
-89,986	-145,247	0,062	0,004
-88,972	198,518	-0,021	0,024
-87,957	160,844	-0,051	0,051
-86,943	-124,450	0,030	0,003
-85,928	800,000	0,034	0,092
-84,913	-98,217	0,105	-0,019
-83,899	-52,668	-0,063	-0,021
-82,884	212,884	0,060	-0,067
-81,870	-200,000	-0,019	-0,073
-80,855	-200,000	0,002	0,007
-79,840	-200,000	-0,003	-0,079
-78,826	-144,114	-0,116	0,008
-77,811	-77,674	-0,063	0,015
-76,797	-200,000	0,000	-0,029
-75,782	220,419	0,060	0,069
-74,767	82,714	-0,036	-0,028
-73,753	503,006	-0,045	-0,074
-72,738	800,000	0,026	0,053
-71,724	-200,000	0,001	-0,009
-70,709	-200,000	0,002	-0,038
-69,694	-16,560	-0,064	-0,029
-68,680	-102,935	0,122	0,021
-67,665	-91,015	-0,025	0,005
-66,651	-104,334	0,049	-0,008
-65,636	-200,000	-0,016	0,101
-64,622	176,459	-0,105	-0,109
-63,607	800,000	0,025	-0,056
-62,592	643,932	0,056	-0,102
-61,578	-173,822	-0,180	0,004
-60,563	163,405	0,088	0,089
-59,549	-52,557	-0,104	0,034
-58,534	43,632	-2,131	-1,394
-57,519	-200,000	0,050	-0,806
-56,505	-200,000	-1,414	-5,187
-55,490	159,359	0,841	0,838
-54,476	800,000	5,306	12,171
-53,461	-200,000	18,968	320,627
-52,446	800,000	741,740	2325,274
-51,432	548,886	1654,657	2849,617
-50,417	109,718	1637,559	1405,225
-49,403	73,349	1287,960	963,832
-48,388	29,457	1029,589	625,165
-47,373	19,603	992,646	570,153
-46,359	16,901	980,130	554,071
-45,344	13,465	976,656	540,811
-44,330	13,800	974,967	540,953
-43,315	13,208	973,048	537,929
-42,300	13,123	971,874	536,979
-41,286	13,210	970,901	536,705
-40,271	13,129	970,169	536,015
-39,257	13,143	969,240	535,525
-38,242	13,133	968,370	534,992
-37,227	13,155	967,583	534,608
-36,213	13,162	966,468	533,994
-35,198	13,134	965,648	533,427
-34,184	13,141	965,108	533,130
-33,169	13,101	964,155	532,454
-32,154	13,167	963,035	532,028
-31,140	13,128	962,293	531,471
-30,125	13,186	961,414	531,151
-29,111	13,139	960,629	530,545
-28,096	13,132	960,013	530,161
-27,082	13,159	959,397	529,888
-26,067	13,141	958,512	529,319
-25,052	13,188	957,605	528,948
-24,038	13,179	956,925	528,524
-23,023	13,137	956,561	528,167
-22,009	13,169	955,854	527,857
-20,994	13,206	955,342	527,673
-19,979	13,167	954,609	527,122
-18,965	13,166	953,992	526,758
-17,950	13,154	953,501	526,426
-16,936	13,119	952,856	525,936
-15,921	13,135	951,972	525,478
-14,906	13,059	951,279	524,832
-13,892	13,051	950,743	524,491
-12,877	13,070	950,024	524,134
-11,863	13,014	949,396	523,588
-10,848	13,086	948,833	523,488
-9,833	13,185	948,241	523,454
-8,819	13,094	947,762	522,880
-7,804	13,059	947,085	522,374
-6,790	13,029	946,573	521,975
-5,775	13,123	945,823	521,839
-4,760	13,009	945,349	521,196
-3,746	13,016	944,720	520,851
-2,731	12,896	944,082	520,096
-1,717	12,896	943,270	519,629
-0,702	12,912	942,592	519,285
0,313	12,666	942,023	518,976
1,327	16,137	940,006	528,784
2,342	25,379	790,266	468,905
3,356	21,315	445,035	258,015
4,371	-7,837	298,344	143,559
5,386	-11,737	280,214	131,091
6,400	-12,974	274,500	127,246
7,415	-13,145	272,254	126,035
8,429	-13,227	270,876	125,309
9,444	-13,217	269,756	124,790
10,459	-13,222	269,272	124,550
11,473	-13,432	268,450	123,966
12,488	-13,388	268,010	123,793
13,502	-13,506	267,214	123,306
14,517	-13,469	266,923	123,195
15,531	-13,429	266,607	123,074
16,546	-13,436	266,260	122,897
17,561	-13,332	265,886	122,807
18,575	-13,154	265,509	122,784
19,590	-13,321	265,240	122,497
20,604	-13,185	264,709	122,364
21,619	-13,375	264,383	122,031
22,634	-13,333	264,147	121,948
23,648	-13,448	263,799	121,674
24,663	-13,243	263,543	121,729
25,677	-13,294	263,341	121,579
26,692	-13,422	263,070	121,328
27,707	-13,459	262,807	121,163
28,721	-13,622	262,517	120,873
29,736	-13,466	262,242	120,874
30,750	-13,536	262,034	120,706
31,765	-13,546	261,734	120,548
32,780	-13,454	261,359	120,446
33,794	-13,315	261,066	120,424
34,809	-13,377	260,851	120,259
35,823	-13,533	260,723	120,051
36,838	-13,544	260,405	119,884
37,853	-13,444	260,171	119,854
38,867	-13,437	259,916	119,732
39,882	-13,469	259,691	119,589
40,896	-13,491	259,425	119,436
41,911	-13,461	259,238	119,367
42,926	-13,622	259,010	119,109
43,940	-13,593	258,767	119,012
44,955	-13,662	258,414	118,778
45,969	-13,439	258,232	118,880
46,984	-13,852	257,854	118,333
47,999	-14,159	257,764	118,011
49,013	-14,190	257,549	117,875
50,028	-14,351	257,100	117,518
51,042	-14,273	256,982	117,522
52,057	-14,361	256,655	117,285
53,071	-14,145	256,368	117,332
54,086	-14,222	256,392	117,265
55,101	-13,988	256,188	117,366
56,115	-13,926	256,064	117,353
57,130	-13,519	255,856	117,602
58,144	-13,359	255,808	117,708
59,159	-13,331	255,580	117,617
60,174	-13,135	255,252	117,626
61,188	-13,232	255,088	117,455
62,203	-13,197	254,780	117,333
63,217	-13,431	254,771	117,116
64,232	-13,469	254,528	116,962
65,247	-13,443	254,213	116,828
66,261	-13,401	253,942	116,730
67,276	-13,391	253,613	116,576
68,290	-13,897	253,416	116,040
69,305	-13,829	253,325	116,046
70,320	-13,767	252,841	115,868
71,334	-13,683	252,898	115,955
72,349	-13,389	252,805	116,155
73,363	-13,095	252,519	116,266
74,378	-13,314	252,320	115,976
75,393	-13,468	252,176	115,768
76,407	-13,195	251,734	115,788
77,422	-13,370	251,591	115,562
78,436	-13,235	251,380	115,570
79,451	-13,491	251,354	115,329
80,466	-13,535	250,901	115,074
81,480	-13,804	250,805	114,790
82,495	-13,794	250,580	114,686
83,509	-13,658	250,419	114,717
84,524	-13,723	250,194	114,549
85,539	-13,819	249,854	114,301
86,553	-13,787	249,671	114,235
87,568	-13,599	249,556	114,330
88,582	-13,719	249,351	114,125
89,597	-13,691	249,041	113,997
90,611	-13,490	248,927	114,104
91,626	-13,411	248,963	114,177
92,641	-13,578	248,694	113,903
93,655	-13,590	248,462	113,777
94,670	-13,547	248,255	113,708
95,684	-13,820	248,083	113,389
96,699	-13,775	247,853	113,312
97,714	-13,611	247,552	113,302
98,728	-13,768	247,284	113,037
99,743	-13,919	247,146	112,838
100,757	-14,027	247,043	112,690
101,772	-13,932	246,799	112,649
102,787	-13,907	246,581	112,559
103,801	-13,728	246,401	112,617
104,816	-13,578	246,163	112,623
105,830	-13,566	246,167	112,626
106,845	-13,238	245,954	112,791
107,860	-13,520	245,818	112,483
108,874	-13,661	245,532	112,226
109,889	-13,702	245,292	112,072
110,903	-13,730	245,118	111,959
111,918	-13,685	244,859	111,867
112,933	-13,753	244,795	111,772
113,947	-13,648	244,571	111,747
114,962	-13,395	244,327	111,835
115,976	-13,430	244,186	111,731
116,991	-13,446	244,118	111,677
118,006	-13,385	243,780	111,563
119,020	-13,350	243,755	111,571
120,035	-13,591	243,695	111,334
121,049	-13,387	243,471	111,390
122,064	-13,477	243,230	111,195
123,079	-13,655	243,056	110,960
124,093	-13,760	242,847	110,768
125,108	-13,833	242,574	110,573
126,122	-13,858	242,330	110,432
127,137	-14,046	242,100	110,164
128,151	-14,002	241,926	110,111
129,166	-13,770	241,720	110,197
130,181	-13,923	241,586	110,000
131,195	-13,901	241,282	109,871
132,210	-13,759	241,330	109,998
133,224	-13,456	241,002	110,086
134,239	-13,613	241,054	109,972
135,254	-13,656	240,807	109,815
136,268	-13,775	240,584	109,607
137,283	-13,944	240,304	109,331
138,297	-14,119	240,089	109,082
139,312	-14,152	239,841	108,933
140,327	-13,755	239,862	109,255
141,341	-13,248	239,689	109,577
142,356	-13,188	239,663	109,604
143,370	-13,143	239,442	109,529
144,385	-13,131	239,269	109,450
145,400	-13,286	239,087	109,232
146,414	-13,206	238,897	109,200
147,429	-13,314	238,678	109,003
148,443	-13,277	238,511	108,947
149,458	-13,205	238,358	108,925
150,473	-13,197	238,322	108,905
151,487	-13,543	237,977	108,460
152,502	-13,305	237,907	108,609
153,516	-13,194	237,661	108,577
154,531	-13,015	237,527	108,649
155,546	-13,321	237,305	108,293
156,560	-13,362	237,138	108,174
157,575	-13,317	236,898	108,091
158,589	-13,190	236,686	108,086
159,604	-13,135	236,621	108,090
160,619	-13,287	236,543	107,924
161,633	-13,069	236,270	107,964
162,648	-13,124	236,152	107,856
163,662	-13,173	235,990	107,734
164,677	-13,311	235,718	107,490
165,692	-13,210	235,646	107,528
166,706	-13,085	235,578	107,587
167,721	-13,181	235,472	107,453
168,735	-13,062	235,260	107,441
169,750	-13,035	235,016	107,341
170,764	-13,070	234,945	107,271
171,779	-13,151	234,755	107,111
172,794	-13,023	234,650	107,155
173,808	-13,292	234,333	106,788
174,823	-13,819	234,085	106,250
175,837	-13,901	233,992	106,133
176,852	-13,633	234,009	106,343
177,867	-13,407	233,829	106,430
178,881	-13,174	233,465	106,438
179,896	-13,187	233,476	106,423
180,910	-13,095	233,404	106,453
181,925	-13,106	233,107	106,300
182,940	-13,164	233,018	106,204
183,954	-13,012	232,801	106,215
184,969	-13,111	232,830	106,140
185,983	-12,935	232,459	106,100
186,998	-13,019	232,491	106,039
188,013	-13,085	232,310	105,896
189,027	-13,009	232,048	105,826
190,042	-12,925	231,865	105,798
191,056	-12,945	231,820	105,753
192,071	-13,121	231,634	105,522
193,086	-13,009	231,491	105,535
194,100	-12,841	231,186	105,516
195,115	-13,377	230,768	104,900
196,129	-13,684	230,854	104,692
197,144	-8,037	232,618	109,895
198,159	-2,305	234,453	115,254
199,173	1,960	235,715	119,223
200,188	2,849	235,762	119,935
201,202	2,859	235,559	119,829
202,217	2,846	235,476	119,766
203,232	3,323	235,197	119,987
204,246	3,043	235,158	119,737
205,261	3,437	235,134	120,023
206,275	3,304	235,055	119,867
207,290	3,433	234,866	119,861
208,304	3,316	234,601	119,624
209,319	3,341	234,458	119,560
210,334	3,135	234,223	119,269
211,348	2,972	234,014	119,025
212,363	2,758	233,813	118,745
213,377	2,585	233,551	118,467
214,392	2,540	233,438	118,364
215,407	2,906	233,195	118,514
216,421	2,765	233,156	118,375
217,436	2,751	232,800	118,173
218,450	2,459	232,777	117,924
219,465	2,447	232,554	117,791
220,480	2,417	232,411	117,685
221,494	2,303	232,416	117,589
222,509	2,683	232,187	117,756
223,523	2,725	232,098	117,733
224,538	2,426	231,898	117,391
225,553	2,514	231,746	117,371
226,567	2,868	231,614	117,566
227,582	3,137	231,537	117,724
228,596	2,850	231,490	117,469
229,611	2,757	231,093	117,186
230,626	2,414	230,978	116,853
231,640	2,451	230,787	116,774
232,655	2,628	230,929	116,971
233,669	2,979	230,631	117,079
234,684	3,036	230,652	117,123
235,699	3,085	230,366	117,005
236,713	2,643	230,131	116,537
237,728	2,689	229,896	116,443
238,742	2,497	229,640	116,156
239,757	2,542	229,792	116,257
240,772	2,725	229,425	116,201
241,786	2,445	229,330	115,929
242,801	2,808	229,196	116,128
243,815	3,348	229,188	116,524
244,830	2,884	229,139	116,136
245,844	2,751	228,797	115,851
246,859	2,490	228,705	115,596
247,874	2,895	228,524	115,801
248,888	2,829	228,517	115,737
249,903	2,711	228,223	115,488
250,917	2,545	228,105	115,292
251,932	2,694	227,862	115,273
252,947	2,420	227,635	114,940
253,961	2,301	227,645	114,845
254,976	2,607	227,424	114,955
255,990	2,781	227,426	115,076
257,005	2,730	227,176	114,901
258,020	2,857	226,971	114,883
259,034	2,873	226,798	114,797
260,049	2,882	226,917	114,854
261,063	2,874	226,599	114,677
262,078	2,766	226,600	114,586
263,093	3,015	226,442	114,683
264,107	2,979	226,256	114,551
265,122	2,736	226,164	114,312
266,136	3,049	226,146	114,528
267,151	3,185	225,765	114,426
268,166	2,778	225,496	113,976
269,180	2,450	225,304	113,623
270,195	2,506	225,266	113,636
271,209	2,645	224,928	113,559
272,224	2,677	225,053	113,636
273,239	2,712	224,825	113,536
274,253	2,486	224,708	113,299
275,268	2,574	224,363	113,180
276,282	2,335	224,203	112,912
277,297	2,082	224,208	112,716
278,312	2,484	224,116	112,959
279,326	2,609	223,959	112,962
280,341	2,741	223,742	112,941
281,355	2,787	223,635	112,911
282,370	2,556	223,603	112,713
283,384	2,265	223,350	112,360
284,399	2,371	223,134	112,320
285,414	2,521	223,002	112,354
286,428	2,473	222,843	112,229
287,443	2,992	222,688	112,523
288,457	2,868	222,761	112,459
289,472	2,465	222,543	112,042
290,487	2,152	222,163	111,611
291,501	2,090	221,973	111,460
292,516	2,375	222,041	111,693
293,530	2,082	221,963	111,428
294,545	2,381	221,689	111,500
295,560	2,572	221,602	111,587
296,574	2,728	221,539	111,659
297,589	2,905	221,307	111,662
298,603	2,771	221,180	111,490
299,618	2,726	221,079	111,397
300,633	2,582	221,069	111,276
301,647	3,003	220,754	111,414
302,662	2,948	220,706	111,340
303,676	3,104	220,470	111,325
304,691	2,919	220,494	111,192
305,706	2,887	220,339	111,081
306,720	2,968	220,178	111,049
307,735	2,570	219,977	110,648
308,749	2,505	219,864	110,535
309,764	2,731	219,728	110,621
310,779	2,896	219,706	110,720
311,793	2,746	219,412	110,453
312,808	2,759	219,447	110,470
313,822	2,548	219,093	110,129
314,837	2,662	218,974	110,142
315,852	2,335	218,774	109,795
316,866	2,728	218,749	110,057
317,881	2,818	218,661	110,067
318,895	2,877	218,395	109,966
319,910	2,472	218,176	109,555
320,925	2,218	218,047	109,297
321,939	1,921	217,756	108,929
322,954	2,340	217,832	109,258
323,968	2,690	217,889	109,528
324,983	2,710	217,637	109,406
325,997	2,986	217,615	109,583
327,012	3,014	217,325	109,448
328,027	2,845	217,191	109,249
329,041	3,012	217,306	109,417
330,056	3,110	216,975	109,310
331,070	2,752	216,816	108,965
332,085	2,401	216,688	108,640
333,100	2,591	216,424	108,634
334,114	2,773	216,255	108,669
335,129	2,506	216,262	108,473
336,143	2,359	216,068	108,261
337,158	2,485	215,791	108,202
338,173	2,384	215,635	108,042
339,187	2,456	215,706	108,119
340,202	2,686	215,509	108,174
341,216	2,609	215,370	108,040
342,231	2,648	215,238	107,992
343,246	2,750	215,069	107,970
344,260	3,033	215,082	108,167
345,275	2,928	215,048	108,066
346,289	2,814	214,783	107,842
347,304	2,817	214,628	107,758
348,319	2,591	214,411	107,479
349,333	2,642	214,369	107,484
350,348	2,848	214,183	107,527
351,362	2,903	214,106	107,517
352,377	2,749	214,080	107,387
353,392	2,603	213,870	107,168
354,406	2,891	213,755	107,304
355,421	196,598	1314,080	1390,412
356,435	157,286	1448,074	1390,348
