DTS Sentinel unit serial number:	SN410029Multiplexer serial number:	ORYXHardware model number:	OX2-SRSoftware version number:	ORYX F/W v4,00 Oryx Data Collector v3.7.2.0data status	okinstallation	B6 Nyhavnadifferential loss correction	single-endedforward channel	channel 2reverse channel	N/Adate	2023/12/08time	15:20:08forward acquisition time	300,00reverse acquisition time	0,00gamma	499,1914k internal	0,3158k external	0,3158temperature offset calibration	1,0000default loss term (dB/km)	0,3820temperature slope calibration	1,0000multiplexer offset coefficient	1,0000multiplexer slope coefficient	1,0000fibre end	0,00T internal ref (°C)	15,06T ext. ref 1 (°C)	-1,45T ext. ref 2 (°C)	-1,46length (m)	temperature (°C)	Stokes	anti-Stokes-744,400	-200,000	0,010	0,074
-743,385	-109,776	-0,250	0,038
-742,371	-173,595	0,147	-0,003
-741,356	-54,489	-0,270	-0,090
-740,342	-42,318	0,137	-0,051
-739,327	-73,278	-0,283	0,076
-738,312	-94,016	0,126	0,025
-737,298	-24,999	-0,207	0,090
-736,283	122,096	0,041	-0,037
-735,269	-112,174	-0,294	0,043
-734,254	-200,000	0,211	0,000
-733,239	-76,521	-0,593	-0,152
-732,225	11,175	0,161	0,091
-731,210	800,000	0,016	-0,043
-730,196	45,046	-0,035	0,024
-729,181	-188,057	-0,077	0,001
-728,167	514,494	0,023	0,040
-727,152	582,624	0,053	0,096
-726,137	-132,512	-0,160	-0,015
-725,123	800,000	-0,029	-0,071
-724,108	79,384	-0,117	-0,093
-723,094	800,000	-0,048	-0,119
-722,079	30,251	0,123	0,077
-721,064	25,971	0,074	0,046
-720,050	800,000	-0,011	-0,022
-719,035	-124,051	0,080	0,009
-718,021	-86,149	0,040	-0,009
-717,006	284,918	0,037	-0,050
-715,991	800,000	0,043	-0,104
-714,977	37,994	0,066	0,043
-713,962	-200,000	-0,011	-0,098
-712,948	78,841	0,090	0,071
-711,933	-200,000	-0,015	0,078
-710,918	5,924	-0,018	-0,010
-709,904	-138,817	0,033	-0,003
-708,889	800,000	-0,022	0,054
-707,875	104,659	-0,029	0,025
-706,860	105,730	0,057	0,050
-705,845	19,705	-0,093	-0,055
-704,831	-200,000	-0,002	0,049
-703,816	4,624	0,016	-0,009
-702,802	290,413	-0,074	-0,100
-701,787	-200,000	0,003	-0,020
-700,772	-112,321	0,163	-0,024
-699,758	-124,056	-0,116	-0,013
-698,743	-57,516	-0,078	-0,025
-697,729	48,187	-0,029	-0,020
-696,714	-30,195	-0,008	-0,003
-695,699	468,456	-0,064	-0,106
-694,685	37,591	-0,037	0,024
-693,670	168,998	-0,058	0,061
-692,656	-51,840	-0,074	0,025
-691,641	-200,000	-0,019	-0,098
-690,627	750,215	-0,014	-0,028
-689,612	-118,374	-0,088	0,011
-688,597	-200,000	0,016	-0,058
-687,583	144,954	0,075	-0,074
-686,568	-200,000	0,011	-0,077
-685,554	-200,000	-0,008	-0,056
-684,539	-200,000	-0,008	0,120
-683,524	342,605	0,051	0,074
-682,510	540,955	-0,058	0,103
-681,495	-200,000	0,008	-0,073
-680,481	-49,987	-0,120	0,042
-679,466	-200,000	0,005	-0,131
-678,451	800,000	0,076	0,168
-677,437	103,378	-0,100	-0,086
-676,422	-148,343	-0,061	-0,004
-675,408	-113,747	0,064	0,009
-674,393	-126,355	-0,047	-0,005
-673,378	-200,000	0,023	-0,103
-672,364	-35,166	-0,082	-0,033
-671,349	800,000	-0,050	0,106
-670,335	244,831	0,072	0,090
-669,320	-200,000	0,003	0,039
-668,305	-200,000	0,004	-0,023
-667,291	-200,000	-0,019	0,098
-666,276	163,900	0,020	-0,021
-665,262	-89,331	-0,038	0,008
-664,247	-7,348	-0,154	-0,076
-663,232	-66,992	-0,050	0,014
-662,218	-99,778	0,103	0,019
-661,203	21,147	-0,067	0,040
-660,189	-200,000	-0,021	0,080
-659,174	78,959	0,079	-0,062
-658,159	-155,440	0,050	-0,002
-657,145	-33,656	-0,042	0,017
-656,130	800,000	-0,033	-0,104
-655,116	-72,978	0,016	0,004
-654,101	-56,606	-0,118	0,038
-653,086	800,000	-0,060	0,157
-652,072	614,347	0,038	0,070
-651,057	198,469	-0,091	-0,103
-650,043	180,266	-0,103	0,111
-649,028	292,642	0,065	0,087
-648,014	150,537	-0,088	0,088
-646,999	405,091	0,039	0,061
-645,984	513,582	0,040	-0,068
-644,970	-200,000	0,005	-0,020
-643,955	800,000	0,055	-0,112
-642,941	-22,371	-0,082	-0,036
-641,926	162,964	-0,059	-0,060
-640,911	215,602	-0,052	0,061
-639,897	77,313	-0,044	0,034
-638,882	423,501	0,077	-0,122
-637,868	52,563	-0,057	0,040
-636,853	578,494	-0,019	-0,035
-635,838	726,141	0,034	-0,066
-634,824	223,097	0,121	-0,143
-633,809	-200,000	-0,001	-0,011
-632,795	800,000	-0,026	-0,065
-631,780	47,465	0,054	-0,037
-630,765	139,010	0,155	-0,150
-629,751	-23,623	-0,144	0,063
-628,736	-129,161	-0,127	-0,013
-627,722	-200,000	0,013	-0,057
-626,707	19,918	-0,056	-0,033
-625,692	-18,784	-0,042	0,019
-624,678	-200,000	-0,033	0,111
-623,663	-200,000	-0,034	0,149
-622,649	-177,575	0,077	-0,001
-621,634	52,951	-0,046	-0,033
-620,619	-14,133	-0,109	-0,051
-619,605	-20,930	-0,010	-0,004
-618,590	335,398	0,041	0,058
-617,576	800,000	-0,019	0,059
-616,561	-200,000	-0,014	-0,140
-615,546	-200,000	-0,001	-0,031
-614,532	-200,000	-0,031	-0,099
-613,517	-105,394	-0,190	0,031
-612,503	109,516	0,110	0,097
-611,488	-200,000	-0,017	0,093
-610,474	-200,000	-0,010	0,046
-609,459	-88,600	-0,061	0,013
-608,444	-200,000	-0,021	-0,124
-607,430	130,236	-0,090	-0,084
-606,415	45,687	-0,083	-0,056
-605,401	800,000	0,033	-0,075
-604,386	-200,000	0,004	-0,030
-603,371	310,992	-0,122	0,168
-602,357	1,530	-0,077	0,040
-601,342	110,124	-0,131	-0,115
-600,328	200,960	0,036	0,041
-599,313	164,923	-0,062	-0,064
-598,298	-200,000	0,009	-0,133
-597,284	800,000	-0,020	-0,058
-596,269	-200,000	0,026	0,094
-595,255	-121,886	-0,068	-0,008
-594,240	800,000	-0,048	-0,105
-593,225	-27,248	-0,162	-0,069
-592,211	37,444	0,027	-0,018
-591,196	-200,000	-0,019	-0,143
-590,182	427,462	-0,036	-0,057
-589,167	427,542	0,098	0,155
-588,152	433,464	0,087	-0,139
-587,138	147,378	0,029	-0,028
-586,123	95,262	-0,061	-0,051
-585,109	150,075	0,048	-0,047
-584,094	297,303	0,083	-0,112
-583,079	-169,479	-0,068	0,002
-582,065	-200,000	0,008	-0,043
-581,050	-53,168	0,048	-0,016
-580,036	64,564	-0,029	0,021
-579,021	-124,828	-0,083	0,009
-578,006	-200,000	0,020	0,080
-576,992	94,192	-0,085	-0,070
-575,977	553,847	0,023	-0,040
-574,963	146,349	-0,097	-0,095
-573,948	-178,355	0,049	0,001
-572,934	473,706	-0,038	-0,063
-571,919	204,162	-0,016	0,018
-570,904	-178,738	0,070	0,001
-569,890	616,509	0,088	0,162
-568,875	-113,487	0,160	-0,023
-567,861	-200,000	-0,010	0,093
-566,846	27,470	-0,132	-0,081
-565,831	38,201	0,063	-0,041
-564,817	1,066	-0,083	0,043
-563,802	38,420	-0,068	-0,044
-562,788	-100,805	-0,078	0,014
-561,773	-163,891	-0,085	0,003
-560,758	800,000	0,019	0,058
-559,744	-200,000	0,001	0,005
-558,729	170,249	-0,028	0,029
-557,715	229,402	-0,079	-0,095
-556,700	-200,000	-0,013	-0,135
-555,685	109,766	-0,100	0,088
-554,671	-200,000	-0,008	-0,032
-553,656	266,471	0,062	0,079
-552,642	-200,000	0,013	0,180
-551,627	-200,000	-0,012	0,103
-550,612	-200,000	-0,011	0,091
-549,598	-200,000	0,002	-0,015
-548,583	-200,000	0,011	-0,102
-547,569	-200,000	-0,010	-0,067
-546,554	308,144	0,054	0,073
-545,539	-128,936	-0,102	0,010
-544,525	-37,811	0,081	0,031
-543,510	19,110	-0,127	-0,074
-542,496	-142,114	-0,185	-0,013
-541,481	171,708	0,076	-0,080
-540,466	18,234	-0,057	-0,033
-539,452	143,020	0,080	0,078
-538,437	-6,581	0,059	-0,029
-537,423	749,790	-0,008	0,017
-536,408	-46,048	0,009	-0,003
-535,393	382,315	0,083	-0,126
-534,379	-42,951	0,053	0,020
-533,364	8,890	0,136	-0,075
-532,350	-200,000	-0,005	-0,040
-531,335	432,490	-0,018	-0,028
-530,321	-200,000	0,013	0,058
-529,306	-200,000	0,022	-0,076
-528,291	12,021	-0,090	-0,050
-527,277	589,712	-0,043	-0,078
-526,262	85,645	0,059	-0,048
-525,248	38,583	-0,122	0,079
-524,233	109,056	0,042	-0,037
-523,218	111,528	-0,094	-0,083
-522,204	-200,000	0,023	-0,085
-521,189	76,319	0,109	-0,084
-520,175	-66,119	-0,165	-0,048
-519,160	-200,000	0,002	0,136
-518,145	-200,000	0,016	0,132
-517,131	-200,000	0,039	0,134
-516,116	-66,170	-0,030	-0,009
-515,102	82,011	-0,185	-0,146
-514,087	-141,324	-0,045	0,003
-513,072	494,040	-0,047	-0,080
-512,058	786,182	0,013	-0,027
-511,043	325,993	0,042	-0,059
-510,029	204,306	0,077	-0,088
-509,014	-200,000	-0,024	-0,158
-507,999	-200,000	-0,002	0,047
-506,985	-53,843	-0,126	0,042
-505,970	-29,156	-0,024	0,010
-504,956	-106,714	-0,041	-0,007
-503,941	800,000	-0,023	-0,048
-502,926	229,479	-0,143	0,171
-501,912	75,093	-0,059	0,045
-500,897	-48,442	-0,011	0,004
-499,883	260,564	-0,022	-0,027
-498,868	-66,934	-0,079	0,023
-497,853	161,051	0,018	-0,019
-496,839	473,618	0,027	0,045
-495,824	-64,465	0,091	-0,027
-494,810	800,000	-0,026	0,080
-493,795	-124,688	-0,043	0,005
-492,781	-134,596	0,088	0,008
-491,766	-109,748	-0,041	0,006
-490,751	17,011	-0,070	-0,040
-489,737	33,300	-0,123	-0,077
-488,722	-200,000	0,019	0,145
-487,708	-36,024	-0,050	0,020
-486,693	-25,836	0,040	-0,017
-485,678	-11,126	0,165	0,079
-484,664	-114,073	-0,225	0,031
-483,649	-58,866	0,132	-0,042
-482,635	-142,911	-0,072	-0,005
-481,620	343,962	-0,036	0,051
-480,605	800,000	0,026	0,062
-479,591	21,112	0,045	0,027
-478,576	292,279	-0,042	0,056
-477,562	190,195	-0,048	-0,053
-476,547	158,492	-0,041	0,042
-475,532	59,657	0,104	0,075
-474,518	-200,000	0,017	0,142
-473,503	148,889	0,117	0,116
-472,489	14,238	-0,052	0,030
-471,474	-134,896	0,164	0,014
-470,459	-200,000	-0,015	-0,053
-469,445	-200,000	-0,010	-0,066
-468,430	62,934	-0,069	-0,050
-467,416	-17,306	0,081	0,037
-466,401	-200,000	-0,019	-0,082
-465,386	141,418	0,080	0,077
-464,372	800,000	-0,046	-0,123
-463,357	800,000	-0,053	-0,163
-462,343	19,178	-0,037	0,021
-461,328	-33,951	-0,069	-0,028
-460,313	306,405	0,014	-0,019
-459,299	-200,000	-0,002	0,043
-458,284	-152,151	0,146	-0,008
-457,270	-74,774	-0,166	-0,043
-456,255	-133,514	-0,082	-0,007
-455,241	-200,000	-0,010	-0,133
-454,226	344,295	0,043	0,061
-453,211	298,136	0,052	0,070
-452,197	797,423	0,032	0,064
-451,182	-105,668	-0,036	0,006
-450,168	53,062	0,101	0,070
-449,153	800,000	-0,060	0,158
-448,138	800,000	0,030	-0,089
-447,124	239,410	-0,068	-0,083
-446,109	-200,000	-0,015	-0,145
-445,095	-122,502	-0,072	-0,008
-444,080	257,950	0,099	0,125
-443,065	228,135	0,097	0,115
-442,051	800,000	0,041	0,108
-441,036	393,739	0,056	-0,085
-440,022	68,796	-0,085	0,063
-439,007	468,231	-0,062	0,102
-437,992	-200,000	0,014	-0,104
-436,978	126,674	0,054	0,049
-435,963	-200,000	0,017	-0,102
-434,949	-200,000	-0,003	0,023
-433,934	159,256	-0,040	-0,040
-432,919	203,471	-0,042	0,047
-431,905	131,499	0,087	0,081
-430,890	-200,000	-0,025	0,150
-429,876	-200,000	-0,003	0,174
-428,861	563,028	0,038	-0,067
-427,846	21,472	-0,009	0,005
-426,832	167,335	-0,124	-0,129
-425,817	499,438	0,046	-0,077
-424,803	-105,572	-0,171	-0,028
-423,788	-200,000	-0,000	0,057
-422,773	-200,000	0,002	-0,007
-421,759	-1,260	0,071	-0,036
-420,744	-11,591	0,062	-0,030
-419,730	257,623	-0,072	-0,090
-418,715	84,015	-0,063	0,050
-417,701	63,072	-0,069	-0,051
-416,686	-134,711	0,158	-0,014
-415,671	-19,282	-0,138	0,062
-414,657	286,668	0,019	-0,024
-413,642	25,040	-0,092	-0,055
-412,628	1,099	0,035	0,018
-411,613	-85,197	0,099	-0,022
-410,598	-200,000	-0,020	0,064
-409,584	414,634	0,022	0,035
-408,569	445,541	0,051	-0,081
-407,555	32,641	0,094	0,059
-406,540	-55,382	0,005	0,002
-405,525	-48,267	-0,083	0,029
-404,511	652,656	0,008	-0,015
-403,496	-43,987	0,071	-0,026
-402,482	-106,544	0,010	-0,002
-401,467	-99,822	0,075	-0,013
-400,452	-55,252	0,084	-0,027
-399,438	-66,729	-0,123	-0,035
-398,423	596,726	0,034	-0,062
-397,409	-140,437	-0,160	0,012
-396,394	-108,769	-0,049	-0,008
-395,379	-127,010	-0,032	-0,003
-394,365	240,415	0,069	0,084
-393,350	-200,000	0,035	0,118
-392,336	355,052	-0,044	0,063
-391,321	-97,587	0,119	0,022
-390,306	38,414	-0,074	-0,048
-389,292	-200,000	-0,063	-0,207
-388,277	-200,000	0,006	-0,078
-387,263	800,000	0,036	0,079
-386,248	-10,266	0,100	-0,048
-385,233	800,000	-0,051	0,158
-384,219	507,777	0,083	-0,140
-383,204	62,566	0,070	-0,051
-382,190	103,136	-0,079	0,067
-381,175	-184,347	0,061	0,001
-380,160	57,013	-0,098	-0,069
-379,146	800,000	0,024	0,075
-378,131	-200,000	0,006	0,049
-377,117	338,095	-0,074	-0,106
-376,102	-131,824	-0,083	-0,008
-375,088	-200,000	-0,024	-0,081
-374,073	91,004	0,029	0,023
-373,058	17,124	0,052	0,030
-372,044	-200,000	-0,007	0,051
-371,029	10,490	-0,070	0,039
-370,015	447,464	-0,056	-0,090
-369,000	-174,256	0,055	-0,001
-367,985	-13,525	-0,138	-0,065
-366,971	219,448	0,039	0,046
-365,956	-200,000	-0,001	0,030
-364,942	128,791	0,072	-0,066
-363,927	-200,000	-0,012	0,067
-362,912	761,133	-0,002	-0,005
-361,898	265,715	0,013	-0,016
-360,883	-106,183	-0,102	-0,016
-359,869	-200,000	0,021	-0,127
-358,854	-101,603	0,181	0,032
-357,839	-153,506	0,117	0,006
-356,825	-200,000	0,041	-0,137
-355,810	-28,795	0,091	0,038
-354,796	51,033	0,042	-0,029
-353,781	-57,691	0,098	0,031
-352,766	536,869	-0,024	-0,042
-351,752	-26,113	0,136	0,058
-350,737	112,251	0,090	0,079
-349,723	-136,928	0,088	0,007
-348,708	-58,048	0,006	-0,002
-347,693	36,517	-0,043	0,027
-346,679	-200,000	-0,033	0,111
-345,664	800,000	-0,014	0,036
-344,650	-200,000	0,002	0,011
-343,635	-13,365	0,092	-0,043
-342,620	-81,533	-0,101	0,024
-341,606	-200,000	0,014	0,087
-340,591	-200,000	-0,013	-0,081
-339,577	-44,274	0,023	0,008
-338,562	-200,000	-0,007	-0,066
-337,548	36,280	0,145	-0,092
-336,533	-49,986	-0,017	0,006
-335,518	129,625	0,048	0,045
-334,504	-37,470	-0,094	0,036
-333,489	-200,000	0,008	0,038
-332,475	83,579	-0,050	-0,039
-331,460	527,924	-0,004	-0,007
-330,445	-200,000	-0,001	0,051
-329,431	-186,619	-0,039	0,000
-328,416	-104,701	-0,087	0,014
-327,402	800,000	-0,058	0,152
-326,387	-200,000	-0,013	0,090
-325,372	-200,000	-0,025	0,084
-324,358	134,979	-0,090	-0,085
-323,343	-200,000	0,005	-0,036
-322,329	92,915	0,079	0,065
-321,314	-28,031	0,100	-0,042
-320,299	-101,070	-0,071	0,012
-319,285	-86,002	0,096	0,021
-318,270	49,904	-0,123	-0,084
-317,256	-1,477	0,185	-0,094
-316,241	-59,830	-0,155	0,048
-315,226	-52,652	-0,098	-0,033
-314,212	480,303	0,106	0,174
-313,197	33,160	-0,012	-0,007
-312,183	800,000	0,039	0,089
-311,168	-200,000	-0,000	0,034
-310,153	508,683	0,020	0,034
-309,139	-53,163	-0,078	0,026
-308,124	300,179	0,049	0,065
-307,110	-200,000	0,003	-0,063
-306,095	60,996	0,077	-0,055
-305,080	-159,461	0,151	0,006
-304,066	107,600	0,067	-0,058
-303,051	800,000	-0,009	0,027
-302,037	-57,477	-0,102	0,032
-301,022	91,374	-0,033	0,027
-300,008	-3,234	0,074	-0,037
-298,993	-99,223	0,202	-0,037
-297,978	-10,979	0,141	0,067
-296,964	280,374	-0,049	0,064
-295,949	800,000	-0,058	-0,123
-294,935	800,000	-0,066	-0,136
-293,920	800,000	0,058	-0,120
-292,905	-178,450	0,174	-0,003
-291,891	518,181	-0,026	-0,044
-290,876	-200,000	0,007	0,201
-289,862	800,000	0,019	-0,044
-288,847	423,647	0,122	-0,191
-287,832	-21,924	-0,068	-0,030
-286,818	68,445	0,139	-0,103
-285,803	3,575	-0,147	0,077
-284,789	26,543	-0,029	-0,017
-283,774	-200,000	0,037	0,126
-282,759	139,735	-0,051	-0,049
-281,745	52,284	0,069	0,047
-280,730	39,884	-0,089	0,058
-279,716	554,271	-0,021	-0,036
-278,701	-94,431	0,105	0,021
-277,686	68,186	-0,023	0,017
-276,672	-33,117	0,135	0,054
-275,657	800,000	-0,007	-0,016
-274,643	173,254	-0,100	-0,105
-273,628	147,782	0,059	0,057
-272,613	-36,092	0,111	-0,043
-271,599	-144,390	0,025	0,002
-270,584	-23,440	0,089	0,039
-269,570	308,035	0,094	0,127
-268,555	142,372	-0,071	0,068
-267,540	-200,000	0,002	0,199
-266,526	157,348	0,039	0,039
-265,511	-60,951	0,059	-0,018
-264,497	-200,000	-0,018	0,131
-263,482	-200,000	0,007	0,093
-262,467	201,791	0,063	0,070
-261,453	800,000	0,048	0,099
-260,438	-200,000	0,004	0,078
-259,424	44,376	-0,073	-0,049
-258,409	-200,000	-0,023	-0,095
-257,395	265,436	-0,015	-0,019
-256,380	-92,453	-0,092	0,019
-255,365	-133,140	0,063	0,006
-254,351	182,850	-0,056	-0,060
-253,336	-187,670	0,099	0,001
-252,322	-16,080	-0,074	0,034
-251,307	-20,640	0,167	-0,074
-250,292	9,879	0,081	-0,044
-249,278	7,111	0,084	-0,045
-248,263	-200,000	0,001	-0,042
-247,249	145,850	0,096	0,093
-246,234	800,000	-0,029	-0,076
-245,219	249,811	-0,039	-0,048
-244,205	360,082	-0,021	-0,031
-243,190	800,000	0,036	0,097
-242,176	-196,778	-0,130	0,001
-241,161	245,022	0,080	-0,098
-240,146	-164,998	0,070	-0,002
-239,132	-200,000	-0,023	0,077
-238,117	635,136	0,070	0,128
-237,103	56,032	0,067	-0,047
-236,088	-151,783	0,078	0,004
-235,073	125,635	-0,088	0,080
-234,059	-50,274	0,083	0,028
-233,044	-200,000	-0,004	-0,033
-232,030	93,037	0,152	-0,124
-231,015	-200,000	-0,007	-0,104
-230,000	-42,589	-0,075	0,027
-228,986	-200,000	0,035	0,154
-227,971	235,303	0,027	-0,032
-226,957	-16,894	0,077	0,035
-225,942	466,698	-0,014	0,023
-224,927	69,550	-0,081	-0,060
-223,913	-64,127	0,073	0,021
-222,898	-36,103	0,109	-0,042
-221,884	-200,000	-0,020	-0,077
-220,869	473,000	-0,045	-0,074
-219,855	-200,000	0,002	-0,115
-218,840	-200,000	-0,004	-0,018
-217,825	-20,722	0,112	0,049
-216,811	-200,000	-0,012	0,066
-215,796	61,839	-0,111	0,080
-214,782	56,286	0,110	0,077
-213,767	565,485	-0,028	-0,048
-212,752	-200,000	-0,007	-0,135
-211,738	800,000	-0,036	0,113
-210,723	800,000	-0,038	-0,083
-209,709	800,000	-0,010	0,032
-208,694	-11,461	0,017	-0,008
-207,679	424,946	0,033	0,052
-206,665	-200,000	-0,003	-0,076
-205,650	-200,000	-0,001	0,095
-204,636	231,646	0,106	0,126
-203,621	264,470	-0,094	0,118
-202,606	-79,650	-0,090	0,022
-201,592	215,286	0,044	-0,050
-200,577	-200,000	-0,015	-0,092
-199,563	800,000	-0,021	-0,058
-198,548	502,199	-0,028	0,046
-197,533	-39,837	0,130	0,049
-196,519	800,000	0,081	0,216
-195,504	22,291	-0,091	0,053
-194,490	201,160	0,069	-0,077
-193,475	-200,000	0,002	-0,079
-192,460	-86,571	0,079	-0,017
-191,446	21,885	-0,063	-0,037
-190,431	-200,000	-0,002	-0,072
-189,417	-1,273	0,111	-0,056
-188,402	-200,000	-0,021	-0,072
-187,387	-200,000	-0,012	0,039
-186,373	-200,000	0,006	-0,063
-185,358	-200,000	-0,015	0,087
-184,344	-200,000	0,003	0,130
-183,329	245,767	0,072	0,087
-182,315	16,017	0,053	-0,030
-181,300	-75,149	-0,065	0,017
-180,285	200,352	-0,143	0,159
-179,271	-117,828	-0,038	0,005
-178,256	-50,693	-0,017	-0,006
-177,242	78,387	0,102	0,079
-176,227	17,425	-0,091	-0,052
-175,212	-200,000	-0,024	0,110
-174,198	229,040	-0,132	0,156
-173,183	-25,681	-0,052	-0,022
-172,169	-200,000	-0,019	0,069
-171,154	800,000	0,017	0,042
-170,139	489,393	0,084	-0,139
-169,125	-200,000	0,014	0,063
-168,110	-200,000	-0,001	0,056
-167,096	597,467	0,016	-0,029
-166,081	299,897	-0,070	-0,093
-165,066	585,255	-0,054	-0,095
-164,052	800,000	-0,039	-0,079
-163,037	285,977	-0,024	0,032
-162,023	-19,350	-0,028	-0,012
-161,008	-200,000	-0,014	-0,056
-159,993	403,784	0,048	0,074
-158,979	-61,216	0,069	0,021
-157,964	-200,000	0,004	0,042
-156,950	-200,000	-0,025	0,108
-155,935	-122,399	0,027	0,003
-154,920	108,931	-0,028	0,024
-153,906	-29,304	0,189	0,077
-152,891	309,042	-0,077	-0,104
-151,877	31,740	-0,158	-0,098
-150,862	-10,166	-0,034	0,016
-149,847	448,733	-0,067	0,107
-148,833	15,878	-0,074	0,042
-147,818	371,693	0,026	0,039
-146,804	-200,000	-0,008	-0,040
-145,789	-92,468	-0,063	-0,013
-144,775	-85,468	-0,054	0,012
-143,760	487,500	-0,051	0,085
-142,745	-200,000	-0,043	-0,140
-141,731	800,000	0,009	0,027
-140,716	-200,000	-0,011	0,108
-139,702	800,000	0,015	0,039
-138,687	-37,730	-0,066	0,025
-137,672	176,104	-0,061	-0,064
-136,658	605,892	-0,005	-0,009
-135,643	-114,762	-0,108	-0,015
-134,629	-117,003	0,160	-0,021
-133,614	-96,796	0,103	0,019
-132,599	-94,667	-0,067	-0,013
-131,585	17,019	0,062	0,035
-130,570	468,301	-0,015	-0,024
-129,556	-200,000	-0,019	-0,060
-128,541	109,887	-0,139	-0,120
-127,526	528,183	0,036	-0,062
-126,512	378,886	0,088	0,130
-125,497	-102,781	-0,114	0,019
-124,483	215,880	0,024	0,028
-123,468	-28,722	0,063	-0,026
-122,453	-175,008	-0,097	0,002
-121,439	383,588	0,057	0,085
-120,424	800,000	0,050	0,100
-119,410	451,092	0,074	0,117
-118,395	125,277	0,034	-0,031
-117,380	-200,000	-0,027	-0,158
-116,366	-200,000	0,006	0,092
-115,351	-46,894	-0,026	-0,009
-114,337	-200,000	-0,016	-0,106
-113,322	297,195	-0,066	-0,088
-112,307	-19,802	0,098	-0,043
-111,293	-200,000	0,002	-0,009
-110,278	197,662	-0,026	-0,029
-109,264	39,090	0,018	0,012
-108,249	-72,237	-0,103	-0,027
-107,234	367,441	-0,013	0,019
-106,220	128,130	0,032	0,029
-105,205	-119,464	0,062	-0,008
-104,191	-200,000	0,009	0,094
-103,176	-18,865	0,135	-0,060
-102,162	101,577	-0,046	-0,039
-101,147	271,837	-0,089	-0,113
-100,132	150,939	0,032	-0,031
-99,118	138,704	-0,045	-0,042
-98,103	336,608	0,055	-0,077
-97,089	360,530	-0,079	-0,114
-96,074	-110,279	0,048	0,007
-95,059	298,520	0,082	-0,108
-94,045	-79,000	0,064	0,016
-93,030	-163,218	-0,049	-0,002
-92,016	-74,900	0,128	0,033
-91,001	65,365	-0,089	0,065
-89,986	-200,000	-0,009	-0,057
-88,972	-145,286	-0,134	0,009
-87,957	791,209	-0,054	-0,108
-86,943	515,835	-0,046	-0,077
-85,928	282,921	-0,036	-0,047
-84,913	139,323	0,034	-0,032
-83,899	163,277	0,058	0,059
-82,884	-200,000	-0,018	-0,112
-81,870	-10,161	0,080	0,038
-80,855	518,874	-0,076	0,128
-79,840	399,515	0,045	-0,068
-78,826	208,564	-0,055	0,062
-77,811	-200,000	0,036	-0,133
-76,797	34,783	-0,041	-0,026
-75,782	225,517	0,060	0,070
-74,767	-48,426	0,096	0,033
-73,753	273,818	0,013	-0,017
-72,738	-140,333	-0,132	0,010
-71,724	-101,528	-0,050	-0,009
-70,709	34,980	-0,163	0,102
-69,694	273,941	-0,027	-0,035
-68,680	-81,389	0,042	-0,010
-67,665	-129,701	0,136	-0,013
-66,651	-200,000	-0,005	0,060
-65,636	532,176	-0,029	0,050
-64,622	-200,000	-0,003	-0,083
-63,607	268,083	-0,021	0,026
-62,592	-105,515	0,022	-0,004
-61,578	-200,000	0,051	-0,171
-60,563	-59,905	-0,037	0,011
-59,549	134,884	0,112	0,105
-58,534	-10,230	-2,111	-1,002
-57,519	-200,000	-0,127	-0,799
-56,505	-200,000	-1,217	-5,106
-55,490	151,950	0,895	0,876
-54,476	800,000	5,091	11,668
-53,461	-200,000	17,907	288,984
-52,446	800,000	727,431	2222,951
-51,432	533,134	1640,168	2797,323
-50,417	108,741	1629,701	1396,810
-49,403	72,620	1283,099	959,331
-48,388	31,217	1025,704	630,117
-47,373	19,836	987,872	569,397
-46,359	18,169	975,755	556,933
-45,344	15,411	971,919	545,710
-44,330	15,624	970,285	545,467
-43,315	15,142	968,646	542,955
-42,300	15,061	967,516	542,034
-41,286	15,070	966,598	541,529
-40,271	15,054	965,447	540,809
-39,257	15,084	964,726	540,483
-38,242	15,093	963,904	540,029
-37,227	15,109	963,024	539,568
-36,213	15,100	962,162	539,032
-35,198	15,028	961,240	538,263
-34,184	15,176	960,408	538,255
-33,169	15,062	959,706	537,472
-32,154	15,162	958,696	537,204
-31,140	15,065	957,877	536,412
-30,125	15,132	956,971	536,101
-29,111	15,071	956,342	535,531
-28,096	15,123	955,792	535,369
-27,082	15,101	954,946	534,804
-26,067	15,145	954,056	534,424
-25,052	15,112	953,456	533,962
-24,038	15,068	952,711	533,382
-23,023	15,059	952,159	533,022
-22,009	15,147	951,430	532,875
-20,994	15,094	950,694	532,273
-19,979	15,062	950,176	531,859
-18,965	15,083	949,524	531,539
-17,950	15,117	948,976	531,319
-16,936	15,069	948,331	530,784
-15,921	15,024	947,780	530,313
-14,906	14,999	946,786	529,655
-13,892	15,011	946,343	529,424
-12,877	14,958	945,646	528,845
-11,863	14,964	944,912	528,431
-10,848	14,931	944,652	528,162
-9,833	15,050	943,945	528,122
-8,819	15,088	943,357	527,893
-7,804	14,978	942,874	527,254
-6,790	14,955	942,253	526,811
-5,775	15,045	941,446	526,627
-4,760	15,001	940,848	526,131
-3,746	15,011	940,235	525,797
-2,731	14,851	939,728	524,989
-1,717	14,855	939,043	524,597
-0,702	14,849	938,235	524,107
0,313	14,660	937,691	523,998
1,327	18,161	935,668	533,832
2,342	27,514	789,270	474,922
3,356	24,163	444,288	262,358
4,371	-5,593	295,062	144,547
5,386	-9,672	276,859	131,756
6,400	-10,862	271,208	127,950
7,415	-11,080	268,869	126,635
8,429	-11,021	267,494	126,031
9,444	-11,264	266,708	125,427
10,459	-11,099	265,895	125,184
11,473	-11,337	265,498	124,770
12,488	-11,298	264,924	124,524
13,502	-11,274	264,401	124,289
14,517	-11,633	264,010	123,770
15,531	-11,256	263,414	123,819
16,546	-11,207	263,163	123,734
17,561	-11,532	262,764	123,243
18,575	-11,236	262,540	123,393
19,590	-11,239	262,041	123,144
20,604	-11,158	261,757	123,073
21,619	-11,460	261,472	122,658
22,634	-11,407	261,162	122,549
23,648	-11,386	260,862	122,416
24,663	-11,341	260,526	122,288
25,677	-11,342	260,205	122,125
26,692	-11,357	260,165	122,082
27,707	-11,504	259,733	121,738
28,721	-11,360	259,642	121,812
29,736	-11,456	259,291	121,552
30,750	-11,475	258,932	121,356
31,765	-11,447	258,669	121,246
32,780	-11,510	258,494	121,098
33,794	-11,579	258,302	120,936
34,809	-11,392	257,975	120,937
35,823	-11,668	257,963	120,678
36,838	-11,520	257,561	120,608
37,853	-11,498	257,269	120,481
38,867	-11,732	257,048	120,161
39,882	-11,461	256,905	120,321
40,896	-11,420	256,663	120,234
41,911	-11,449	256,255	120,005
42,926	-11,499	256,205	119,928
43,940	-11,671	255,959	119,652
44,955	-11,670	255,564	119,458
45,969	-11,726	255,352	119,299
46,984	-11,921	255,158	119,028
47,999	-12,053	254,788	118,730
49,013	-12,318	254,605	118,404
50,028	-12,419	254,342	118,183
51,042	-12,495	254,093	117,991
52,057	-12,369	253,857	117,980
53,071	-12,263	253,638	117,960
54,086	-12,286	253,396	117,816
55,101	-12,102	253,279	117,911
56,115	-11,770	253,212	118,156
57,130	-11,373	253,146	118,457
58,144	-11,182	252,950	118,520
59,159	-11,251	252,719	118,341
60,174	-11,260	252,535	118,236
61,188	-11,190	252,301	118,177
62,203	-11,298	252,141	117,999
63,217	-11,162	251,918	118,001
64,232	-11,360	251,673	117,705
65,247	-11,225	251,469	117,715
66,261	-11,207	251,252	117,618
67,276	-11,759	250,987	117,012
68,290	-11,940	250,748	116,736
69,305	-11,988	250,591	116,611
70,320	-11,897	250,310	116,548
71,334	-11,619	250,057	116,656
72,349	-11,404	250,081	116,839
73,363	-11,024	249,675	116,963
74,378	-11,305	249,736	116,742
75,393	-11,446	249,455	116,481
76,407	-11,492	249,072	116,252
77,422	-11,280	248,799	116,294
78,436	-11,174	248,737	116,344
79,451	-11,353	248,574	116,107
80,466	-11,411	248,277	115,908
81,480	-11,703	248,086	115,562
82,495	-11,752	247,902	115,425
83,509	-11,828	247,906	115,353
84,524	-11,751	247,431	115,186
85,539	-11,876	247,297	115,008
86,553	-11,797	247,043	114,946
87,568	-11,723	246,949	114,954
88,582	-11,680	246,730	114,878
89,597	-11,763	246,397	114,644
90,611	-11,633	246,315	114,704
91,626	-11,415	246,204	114,825
92,641	-11,327	246,136	114,856
93,655	-11,477	245,784	114,556
94,670	-11,501	245,584	114,433
95,684	-11,457	245,291	114,322
96,699	-11,511	245,332	114,287
97,714	-11,635	244,916	113,980
98,728	-11,943	244,786	113,653
99,743	-11,949	244,630	113,565
100,757	-11,893	244,323	113,458
101,772	-11,827	244,165	113,430
102,787	-11,711	243,993	113,436
103,801	-11,731	243,873	113,354
104,816	-11,526	243,631	113,401
105,830	-11,582	243,668	113,362
106,845	-11,311	243,411	113,456
107,860	-11,602	243,187	113,101
108,874	-11,520	242,917	113,033
109,889	-11,546	242,789	112,942
110,903	-11,701	242,510	112,674
111,918	-11,540	242,260	112,681
112,933	-11,611	242,289	112,626
113,947	-11,540	242,045	112,561
114,962	-11,560	241,960	112,495
115,976	-11,529	241,721	112,399
116,991	-11,416	241,422	112,343
118,006	-11,484	241,263	112,203
119,020	-11,601	241,256	112,093
120,035	-11,560	241,161	112,073
121,049	-11,501	241,106	112,086
122,064	-11,572	240,758	111,856
123,079	-11,372	240,519	111,898
124,093	-11,707	240,275	111,502
125,108	-11,780	240,007	111,308
126,122	-12,031	239,889	111,040
127,137	-11,866	239,585	111,023
128,151	-11,981	239,572	110,913
129,166	-11,965	239,316	110,798
130,181	-11,890	239,106	110,751
131,195	-12,050	238,885	110,510
132,210	-11,668	238,748	110,746
133,224	-11,598	238,623	110,734
134,239	-11,618	238,531	110,665
135,254	-11,569	238,292	110,585
136,268	-11,595	238,016	110,426
137,283	-12,118	237,911	109,946
138,297	-12,156	237,579	109,752
139,312	-12,091	237,525	109,769
140,327	-11,771	237,373	109,946
141,341	-11,245	237,383	110,364
142,356	-11,244	237,086	110,217
143,370	-11,291	237,161	110,204
144,385	-11,197	236,926	110,161
145,400	-11,154	236,687	110,074
146,414	-11,272	236,610	109,934
147,429	-11,255	236,400	109,840
148,443	-11,264	236,375	109,811
149,458	-11,242	235,941	109,618
150,473	-11,287	235,854	109,532
151,487	-11,490	235,809	109,339
152,502	-11,277	235,531	109,370
153,516	-11,133	235,353	109,392
154,531	-11,176	235,170	109,264
155,546	-11,217	235,093	109,185
156,560	-11,162	234,725	109,048
157,575	-11,401	234,590	108,786
158,589	-11,437	234,232	108,582
159,604	-11,110	234,260	108,844
160,619	-11,131	234,050	108,720
161,633	-11,318	234,007	108,543
162,648	-11,263	233,841	108,499
163,662	-11,187	233,668	108,470
164,677	-11,363	233,737	108,353
165,692	-11,344	233,500	108,249
166,706	-11,081	233,250	108,330
167,721	-10,920	233,086	108,371
168,735	-11,019	233,204	108,338
169,750	-11,087	232,808	108,091
170,764	-11,342	232,696	107,829
171,779	-11,017	232,411	107,943
172,794	-10,986	232,335	107,921
173,808	-11,112	232,077	107,694
174,823	-11,742	231,698	107,016
175,837	-11,923	231,473	106,761
176,852	-11,352	231,638	107,273
177,867	-11,116	231,384	107,330
178,881	-11,241	231,312	107,190
179,896	-11,151	231,224	107,210
180,910	-10,871	230,949	107,291
181,925	-11,202	230,956	107,026
182,940	-11,133	230,595	106,904
183,954	-11,274	230,618	106,795
184,969	-11,049	230,486	106,899
185,983	-11,034	230,354	106,841
186,998	-10,812	230,185	106,924
188,013	-10,969	230,070	106,740
189,027	-10,833	229,970	106,789
190,042	-11,034	229,689	106,493
191,056	-11,068	229,480	106,361
192,071	-11,061	229,359	106,301
193,086	-11,124	229,248	106,191
194,100	-10,729	228,961	106,353
195,115	-11,258	228,705	105,818
196,129	-11,626	228,540	105,449
197,144	-6,602	230,437	110,209
198,159	-0,580	231,943	115,605
199,173	2,770	232,891	118,677
200,188	3,101	232,969	118,963
201,202	3,191	232,785	118,929
202,217	3,391	232,710	119,036
203,232	3,755	232,571	119,236
204,246	3,798	232,249	119,094
205,261	3,623	232,184	118,914
206,275	3,828	232,335	119,140
207,290	3,782	232,102	118,974
208,304	3,921	231,893	118,964
209,319	3,848	231,586	118,740
210,334	3,752	231,438	118,579
211,348	3,362	231,252	118,172
212,363	3,287	230,884	117,916
213,377	2,971	230,821	117,630
214,392	3,186	230,671	117,708
215,407	2,968	230,531	117,459
216,421	3,310	230,420	117,655
217,436	3,117	230,120	117,343
218,450	2,983	229,918	117,127
219,465	2,786	229,788	116,899
220,480	3,039	229,726	117,051
221,494	2,727	229,592	116,733
222,509	3,091	229,702	117,058
223,523	3,067	229,258	116,803
224,538	2,940	229,048	116,588
225,553	3,055	229,025	116,654
226,567	3,151	228,881	116,644
227,582	3,459	228,878	116,866
228,596	3,541	228,795	116,876
229,611	3,090	228,558	116,401
230,626	2,999	228,123	116,100
231,640	2,827	228,031	115,913
232,655	3,214	228,011	116,185
233,669	3,629	227,984	116,476
234,684	3,571	227,856	116,357
235,699	3,332	227,779	116,126
236,713	3,180	227,453	115,834
237,728	3,084	227,171	115,608
238,742	2,886	227,067	115,394
239,757	3,186	226,829	115,490
240,772	3,000	226,674	115,260
241,786	2,925	226,616	115,164
242,801	2,956	226,586	115,162
243,815	3,711	226,450	115,651
244,830	3,365	226,418	115,365
245,844	3,111	226,057	114,979
246,859	3,320	225,879	115,035
247,874	3,252	225,916	114,993
248,888	3,393	225,731	114,994
249,903	3,268	225,513	114,779
250,917	3,264	225,359	114,687
251,932	3,116	225,172	114,471
252,947	2,976	224,944	114,241
253,961	2,772	224,927	114,069
254,976	3,008	224,793	114,167
255,990	3,138	224,666	114,189
257,005	3,086	224,650	114,132
258,020	3,002	224,519	113,993
259,034	3,335	224,258	114,099
260,049	3,161	224,130	113,894
261,063	3,204	223,979	113,839
262,078	3,306	223,852	113,840
263,093	3,514	223,832	113,975
264,107	3,515	223,497	113,794
265,122	3,408	223,364	113,637
266,136	3,392	223,343	113,604
267,151	3,570	223,081	113,593
268,166	3,308	222,691	113,191
269,180	2,862	222,695	112,853
270,195	2,844	222,533	112,748
271,209	2,956	222,340	112,722
272,224	3,028	222,216	112,702
273,239	3,409	222,103	112,916
274,253	3,309	221,932	112,745
275,268	2,917	221,729	112,344
276,282	3,015	221,690	112,386
277,297	2,813	221,455	112,108
278,312	2,931	221,251	112,082
279,326	2,927	221,431	112,160
280,341	3,108	221,098	112,114
281,355	3,105	220,986	112,045
282,370	2,984	220,838	111,871
283,384	2,793	220,591	111,596
284,399	2,645	220,498	111,431
285,414	2,711	220,467	111,454
286,428	3,030	220,254	111,569
287,443	3,275	220,247	111,734
288,457	3,245	220,080	111,618
289,472	3,078	219,668	111,277
290,487	2,360	219,705	110,764
291,501	2,922	219,452	111,035
292,516	2,682	219,393	110,820
293,530	2,962	219,176	110,904
294,545	2,786	219,111	110,734
295,560	3,090	218,888	110,832
296,574	3,165	218,790	110,826
297,589	3,360	218,578	110,850
298,603	3,119	218,688	110,722
299,618	3,184	218,538	110,683
300,633	3,054	218,363	110,490
301,647	3,348	218,171	110,596
302,662	3,280	218,155	110,529
303,676	3,465	217,871	110,509
304,691	3,071	217,734	110,145
305,706	3,445	217,588	110,331
306,720	3,393	217,521	110,249
307,735	2,902	217,479	109,865
308,749	2,845	217,208	109,678
309,764	3,243	217,186	109,942
310,779	3,305	217,000	109,883
311,793	3,219	216,975	109,799
312,808	3,350	216,697	109,743
313,822	3,063	216,674	109,515
314,837	3,067	216,345	109,342
315,852	2,990	216,262	109,235
316,866	2,996	216,085	109,140
317,881	3,283	215,975	109,280
318,895	3,232	215,863	109,178
319,910	2,938	215,607	108,829
320,925	2,912	215,418	108,705
321,939	2,508	215,364	108,380
322,954	2,789	215,337	108,558
323,968	3,082	215,322	108,748
324,983	3,266	215,093	108,753
325,997	3,434	214,931	108,781
327,012	2,898	214,761	108,306
328,027	3,301	214,463	108,431
329,041	3,466	214,576	108,595
330,056	3,311	214,568	108,472
331,070	2,980	214,213	108,049
332,085	2,599	213,885	107,604
333,100	2,756	213,840	107,683
334,114	2,925	213,812	107,778
335,129	3,392	213,683	108,033
336,143	3,193	213,385	107,733
337,158	3,233	213,340	107,729
338,173	3,087	213,319	107,606
339,187	2,873	213,115	107,343
340,202	2,700	212,770	107,038
341,216	2,862	212,710	107,112
342,231	3,061	212,604	107,188
343,246	2,986	212,581	107,114
344,260	3,092	212,261	107,018
345,275	3,116	212,369	107,080
346,289	3,214	212,292	107,100
347,304	3,164	212,120	106,969
348,319	3,081	212,021	106,851
349,333	3,202	211,647	106,738
350,348	3,285	211,551	106,738
351,362	3,467	211,590	106,874
352,377	3,297	211,461	106,682
353,392	3,278	211,256	106,555
354,406	3,236	211,196	106,486
355,421	195,606	1339,822	1417,490
356,435	156,245	1477,308	1417,459
