DTS Sentinel unit serial number:	SN410029Multiplexer serial number:	ORYXHardware model number:	OX2-SRSoftware version number:	ORYX F/W v4,00 Oryx Data Collector v3.7.2.0data status	okinstallation	B6 Nyhavnadifferential loss correction	single-endedforward channel	channel 2reverse channel	N/Adate	2023/12/09time	01:25:08forward acquisition time	300,00reverse acquisition time	0,00gamma	499,1914k internal	0,3156k external	0,3156temperature offset calibration	1,0000default loss term (dB/km)	0,3820temperature slope calibration	1,0000multiplexer offset coefficient	1,0000multiplexer slope coefficient	1,0000fibre end	0,00T internal ref (°C)	15,76T ext. ref 1 (°C)	-0,56T ext. ref 2 (°C)	-0,56length (m)	temperature (°C)	Stokes	anti-Stokes-744,400	-73,948	0,098	0,026
-743,385	-73,283	-0,103	-0,027
-742,371	-142,409	0,167	0,012
-741,356	-53,316	-0,228	0,077
-740,342	-105,907	0,073	-0,012
-739,327	-155,651	-0,305	-0,014
-738,312	538,471	0,094	0,166
-737,298	-165,297	-0,287	-0,009
-736,283	-200,000	0,014	0,076
-735,269	-175,578	-0,273	-0,005
-734,254	-200,000	-0,002	-0,056
-733,239	-38,244	-0,505	-0,197
-732,225	111,149	0,080	0,071
-731,210	51,487	0,028	0,020
-730,196	800,000	-0,051	0,110
-729,181	-31,802	0,047	0,019
-728,167	-109,981	-0,152	-0,023
-727,152	24,723	-0,102	0,062
-726,137	-200,000	-0,008	0,028
-725,123	94,284	-0,067	0,056
-724,108	285,492	-0,026	-0,035
-723,094	35,822	-0,086	0,056
-722,079	37,886	-0,112	-0,073
-721,064	-16,675	-0,043	0,020
-720,050	800,000	-0,015	-0,040
-719,035	-53,789	-0,034	-0,011
-718,021	-200,000	0,008	-0,089
-717,006	-200,000	-0,006	-0,028
-715,991	-98,228	-0,177	0,033
-714,977	277,703	-0,083	0,109
-713,962	167,258	-0,070	-0,074
-712,948	-200,000	0,019	0,096
-711,933	29,302	0,058	-0,036
-710,918	-6,142	-0,084	-0,042
-709,904	487,179	0,060	-0,101
-708,889	-108,207	-0,058	-0,009
-707,875	-75,663	-0,120	-0,031
-706,860	-200,000	0,020	-0,164
-705,845	800,000	-0,024	0,067
-704,831	-200,000	0,021	0,117
-703,816	-99,430	0,170	0,031
-702,802	222,121	0,053	-0,062
-701,787	175,401	0,079	0,085
-700,772	100,918	-0,176	-0,150
-699,758	-200,000	0,032	-0,204
-698,743	-200,000	0,005	-0,061
-697,729	1,266	0,038	-0,020
-696,714	111,205	-0,093	0,082
-695,699	79,320	0,061	-0,048
-694,685	-161,708	-0,060	0,002
-693,670	-101,435	-0,087	-0,015
-692,656	-35,633	-0,055	-0,022
-691,641	-200,000	0,004	0,101
-690,627	-154,293	0,118	-0,006
-689,612	800,000	0,021	0,060
-688,597	44,279	-0,087	0,059
-687,583	142,923	-0,087	0,085
-686,568	-21,480	-0,104	0,046
-685,554	-41,648	-0,088	0,033
-684,539	-200,000	-0,006	-0,120
-683,524	264,106	-0,045	-0,058
-682,510	57,888	0,087	0,063
-681,495	516,440	-0,041	-0,071
-680,481	800,000	-0,016	0,038
-679,466	-142,549	-0,168	-0,012
-678,451	-200,000	-0,010	0,154
-677,437	-68,821	-0,057	-0,016
-676,422	366,533	0,054	0,081
-675,408	229,362	0,026	0,031
-674,393	3,507	-0,080	-0,043
-673,378	-91,373	-0,157	-0,033
-672,364	-161,390	-0,051	0,002
-671,349	-117,748	0,034	0,004
-670,335	514,951	0,069	0,118
-669,320	800,000	0,069	0,157
-668,305	293,283	-0,008	-0,010
-667,291	84,395	-0,106	0,085
-666,276	-114,832	-0,062	0,009
-665,262	-200,000	0,028	-0,158
-664,247	516,767	0,023	-0,041
-663,232	-200,000	0,002	-0,172
-662,218	345,394	-0,075	-0,109
-661,203	28,120	0,103	-0,064
-660,189	383,564	-0,067	-0,102
-659,174	-200,000	0,001	0,088
-658,159	-84,582	-0,152	-0,035
-657,145	-49,603	-0,144	-0,050
-656,130	214,151	-0,080	0,093
-655,116	-200,000	-0,004	-0,038
-654,101	291,272	0,122	0,163
-653,086	20,881	-0,191	-0,113
-652,072	-200,000	-0,033	-0,114
-651,057	-200,000	-0,059	-0,220
-650,043	-91,106	-0,077	0,016
-649,028	-200,000	-0,057	-0,220
-648,014	161,621	-0,022	0,023
-646,999	800,000	0,016	0,043
-645,984	295,496	0,043	0,058
-644,970	-76,367	-0,060	0,016
-643,955	240,621	0,074	-0,091
-642,941	84,977	-0,077	-0,062
-641,926	800,000	-0,058	-0,126
-640,911	430,323	0,076	-0,121
-639,897	-200,000	-0,001	0,074
-638,882	98,932	-0,015	0,013
-637,868	-160,089	-0,065	0,003
-636,853	-200,000	0,001	0,060
-635,838	-151,750	-0,119	-0,006
-634,824	162,549	-0,062	0,064
-633,809	-200,000	-0,010	0,033
-632,795	198,463	-0,045	-0,050
-631,780	-61,369	-0,077	0,023
-630,765	116,506	0,083	-0,074
-629,751	272,113	-0,075	-0,097
-628,736	151,684	-0,149	-0,149
-627,722	-200,000	-0,006	0,100
-626,707	148,012	0,130	0,129
-625,692	-95,190	0,111	0,022
-624,678	3,662	-0,141	-0,075
-623,663	0,999	0,097	-0,051
-622,649	620,081	-0,049	-0,091
-621,634	-200,000	0,000	-0,066
-620,619	2,140	-0,109	0,057
-619,605	62,889	-0,026	-0,019
-618,590	800,000	0,008	-0,018
-617,576	-72,172	-0,073	0,020
-616,561	-200,000	-0,029	0,163
-615,546	800,000	0,038	-0,090
-614,532	-200,000	-0,014	-0,088
-613,517	-200,000	-0,011	0,096
-612,503	-200,000	-0,023	0,098
-611,488	7,201	0,116	-0,064
-610,474	800,000	-0,040	-0,082
-609,459	-200,000	-0,011	0,083
-608,444	17,234	-0,157	0,091
-607,430	-154,479	0,126	-0,006
-606,415	116,890	-0,131	-0,118
-605,401	126,861	0,099	0,092
-604,386	-200,000	0,023	0,096
-603,371	640,797	-0,035	-0,066
-602,357	216,256	0,040	-0,047
-601,342	800,000	-0,053	-0,133
-600,328	176,433	-0,090	-0,096
-599,313	-140,894	0,079	-0,006
-598,298	23,368	-0,134	-0,080
-597,284	101,699	0,061	0,052
-596,269	-200,000	0,020	0,119
-595,255	408,010	-0,081	0,125
-594,240	-200,000	-0,010	-0,105
-593,225	800,000	-0,049	-0,144
-592,211	155,496	0,033	0,034
-591,196	-200,000	-0,010	0,097
-590,182	305,253	0,073	0,100
-589,167	800,000	0,053	0,147
-588,152	800,000	0,027	-0,080
-587,138	136,599	0,071	-0,068
-586,123	-95,252	-0,133	-0,026
-585,109	362,522	-0,046	0,067
-584,094	-57,258	0,027	0,009
-583,079	124,508	0,051	0,047
-582,065	-27,873	0,070	-0,030
-581,050	371,038	0,095	0,141
-580,036	-26,245	-0,085	-0,037
-579,021	215,450	0,107	-0,125
-578,006	-134,271	-0,077	-0,007
-576,992	105,813	-0,125	0,108
-575,977	113,346	0,065	0,058
-574,963	-200,000	-0,001	0,083
-573,948	340,809	0,049	-0,070
-572,934	-78,154	0,065	-0,016
-571,919	800,000	-0,040	-0,102
-570,904	150,590	0,054	0,054
-569,890	151,397	-0,072	-0,072
-568,875	340,843	0,020	-0,028
-567,861	-29,401	-0,127	-0,053
-566,846	365,664	0,054	0,081
-565,831	113,086	-0,088	-0,078
-564,817	-93,167	0,085	-0,017
-563,802	-110,255	-0,074	0,011
-562,788	196,237	0,015	-0,016
-561,773	-200,000	-0,005	0,022
-560,758	-200,000	0,015	0,131
-559,744	-62,135	-0,107	0,033
-558,729	196,000	0,040	0,045
-557,715	112,582	-0,056	0,050
-556,700	-14,307	-0,129	-0,061
-555,685	-200,000	0,032	-0,168
-554,671	3,071	0,118	0,062
-553,656	4,253	0,196	0,105
-552,642	508,349	-0,051	0,086
-551,627	-105,370	-0,029	0,005
-550,612	800,000	-0,052	-0,111
-549,598	-200,000	-0,060	-0,211
-548,583	610,008	-0,068	-0,124
-547,569	-200,000	0,011	-0,092
-546,554	-73,374	0,048	0,013
-545,539	106,197	0,063	0,055
-544,525	-37,043	-0,136	0,053
-543,510	-200,000	0,006	-0,118
-542,496	800,000	-0,058	-0,163
-541,481	15,243	-0,073	-0,042
-540,466	-56,190	-0,023	-0,007
-539,452	198,770	0,084	-0,094
-538,437	-121,935	-0,058	-0,007
-537,423	409,086	-0,029	0,046
-536,408	163,399	0,087	-0,090
-535,393	800,000	-0,015	-0,033
-534,379	-54,761	0,022	0,007
-533,364	-34,626	0,009	0,004
-532,350	133,950	-0,045	0,043
-531,335	800,000	0,044	0,107
-530,321	-87,413	-0,034	0,008
-529,306	-200,000	-0,028	0,123
-528,291	-200,000	-0,028	0,123
-527,277	-149,463	-0,027	-0,002
-526,262	140,698	-0,104	-0,100
-525,248	175,912	0,034	-0,037
-524,233	338,184	-0,060	-0,085
-523,218	149,194	0,076	0,075
-522,204	-33,207	0,149	-0,060
-521,189	-129,190	-0,090	-0,009
-520,175	156,224	-0,057	-0,057
-519,160	47,101	-0,040	-0,027
-518,145	413,205	-0,036	-0,057
-517,131	-200,000	0,011	-0,064
-516,116	50,510	-0,031	0,022
-515,102	-62,734	0,075	-0,023
-514,087	283,413	-0,043	0,057
-513,072	83,295	-0,108	0,086
-512,058	2,815	-0,048	-0,025
-511,043	-33,071	0,067	-0,027
-510,029	-32,469	0,116	-0,047
-509,014	-21,843	0,071	0,031
-507,999	148,960	0,021	-0,020
-506,985	-116,583	-0,126	0,017
-505,970	-30,367	0,051	-0,021
-504,956	-98,579	-0,070	0,013
-503,941	-200,000	0,012	0,046
-502,926	-64,401	-0,069	0,020
-501,912	-200,000	0,007	-0,036
-500,897	-62,767	0,074	-0,022
-499,883	-163,819	-0,050	0,002
-498,868	-48,035	0,108	-0,038
-497,853	800,000	-0,024	0,063
-496,839	223,990	-0,068	0,080
-495,824	-69,207	0,120	0,033
-494,810	-82,793	-0,106	0,025
-493,795	182,258	-0,122	0,132
-492,781	-31,125	-0,047	-0,019
-491,766	45,286	-0,064	-0,043
-490,751	195,638	0,057	-0,063
-489,737	-200,000	-0,014	-0,104
-488,722	-200,000	-0,003	-0,034
-487,708	800,000	-0,056	0,116
-486,693	-200,000	0,007	-0,059
-485,678	-24,658	-0,046	-0,020
-484,664	680,037	-0,021	0,040
-483,649	-200,000	0,031	-0,199
-482,635	158,127	0,105	-0,107
-481,620	-55,683	0,042	-0,014
-480,605	283,736	0,019	-0,026
-479,591	111,894	0,048	-0,043
-478,576	32,062	0,051	-0,032
-477,562	440,730	0,041	0,066
-476,547	-200,000	-0,009	0,042
-475,532	410,535	0,082	0,127
-474,518	-121,039	0,088	-0,011
-473,503	71,857	0,034	0,026
-472,489	46,177	-0,090	0,061
-471,474	-20,913	-0,174	-0,077
-470,459	800,000	-0,049	0,107
-469,445	-200,000	0,031	-0,114
-468,430	800,000	-0,034	0,095
-467,416	-134,926	0,097	0,008
-466,401	149,359	0,026	0,026
-465,386	-23,027	-0,186	-0,081
-464,372	35,811	0,039	-0,025
-463,357	-200,000	0,007	-0,031
-462,343	405,597	0,090	-0,139
-461,328	-19,955	-0,059	-0,027
-460,313	-15,537	0,148	0,069
-459,299	800,000	-0,019	-0,040
-458,284	148,010	-0,050	-0,049
-457,270	-200,000	-0,007	0,035
-456,255	-10,558	-0,040	-0,019
-455,241	-200,000	0,008	-0,049
-454,226	4,675	0,052	0,028
-453,211	800,000	0,027	-0,086
-452,197	313,184	0,065	0,089
-451,182	800,000	0,028	-0,072
-450,168	-133,674	0,079	-0,007
-449,153	-84,008	-0,065	-0,015
-448,138	90,717	-0,122	-0,100
-447,124	800,000	-0,030	0,084
-446,109	534,180	-0,022	0,038
-445,095	49,736	0,050	0,034
-444,080	544,591	0,040	0,071
-443,065	800,000	0,055	0,111
-442,051	-130,008	-0,097	0,010
-441,036	-200,000	-0,000	-0,022
-440,022	326,009	0,053	-0,074
-439,007	800,000	0,025	0,077
-437,992	-27,290	0,160	-0,068
-436,978	107,452	-0,041	-0,036
-435,963	232,970	-0,053	-0,064
-434,949	59,458	-0,112	-0,081
-433,934	-1,348	0,081	-0,042
-432,919	-10,765	-0,129	-0,062
-431,905	-200,000	-0,029	-0,104
-430,890	-105,867	0,091	-0,015
-429,876	-18,036	-0,027	0,012
-428,861	33,607	0,077	-0,048
-427,846	-16,102	0,014	0,007
-426,832	-38,859	-0,013	0,005
-425,817	800,000	-0,028	-0,059
-424,803	80,207	-0,106	0,083
-423,788	82,494	-0,080	0,063
-422,773	45,596	0,181	0,121
-421,759	156,730	-0,078	0,079
-420,744	-200,000	0,012	0,068
-419,730	325,718	-0,063	0,088
-418,715	800,000	-0,032	-0,072
-417,701	-200,000	0,008	-0,073
-416,686	800,000	-0,027	-0,062
-415,671	151,860	0,129	0,128
-414,657	55,205	-0,004	-0,003
-413,642	-60,847	-0,060	-0,019
-412,628	282,507	-0,031	-0,040
-411,613	359,750	-0,031	0,045
-410,598	129,919	0,044	-0,041
-409,584	-200,000	-0,028	-0,139
-408,569	800,000	0,016	-0,035
-407,555	-200,000	-0,014	0,064
-406,540	-126,587	-0,173	-0,018
-405,525	800,000	0,025	0,075
-404,511	201,833	0,032	-0,036
-403,496	674,813	-0,049	-0,092
-402,482	800,000	-0,039	0,098
-401,467	152,420	0,035	0,035
-400,452	800,000	-0,043	0,110
-399,438	336,438	0,051	0,073
-398,423	483,225	-0,116	0,192
-397,409	154,058	-0,018	-0,018
-396,394	-200,000	0,002	-0,154
-395,379	98,511	-0,034	0,029
-394,365	172,511	0,036	0,038
-393,350	57,677	-0,034	0,024
-392,336	-88,071	0,128	0,028
-391,321	150,169	-0,035	0,034
-390,306	-200,000	0,001	-0,060
-389,292	-200,000	-0,025	-0,129
-388,277	11,415	-0,078	-0,043
-387,263	-81,004	0,034	0,008
-386,248	-105,812	0,139	0,023
-385,233	-200,000	-0,006	-0,071
-384,219	-200,000	0,018	0,072
-383,204	800,000	-0,050	-0,106
-382,190	800,000	0,072	-0,160
-381,175	-61,903	0,048	0,015
-380,160	-200,000	0,020	0,065
-379,146	105,993	0,087	0,075
-378,131	12,880	-0,030	0,017
-377,117	510,249	-0,042	0,071
-376,102	-200,000	-0,002	-0,105
-375,088	3,810	-0,069	0,037
-374,073	33,768	-0,081	0,051
-373,058	800,000	0,037	-0,112
-372,044	-86,623	0,055	-0,012
-371,029	-36,582	0,089	-0,035
-370,015	800,000	0,048	-0,137
-369,000	-200,000	-0,043	0,163
-367,985	129,808	-0,160	-0,149
-366,971	79,356	0,093	0,073
-365,956	-55,076	-0,075	0,024
-364,942	-114,932	-0,102	0,014
-363,927	-200,000	-0,011	0,090
-362,912	-200,000	-0,032	0,129
-361,898	-93,769	-0,089	-0,018
-360,883	-200,000	-0,023	-0,230
-359,869	115,966	0,072	-0,064
-358,854	238,507	0,053	-0,064
-357,839	181,481	-0,046	0,050
-356,825	-200,000	0,005	-0,043
-355,810	-32,420	-0,148	0,060
-354,796	11,218	-0,143	-0,079
-353,781	259,361	0,048	-0,060
-352,766	-200,000	0,018	-0,101
-351,752	-200,000	-0,000	-0,106
-350,737	-38,475	0,020	-0,007
-349,723	511,762	0,024	0,041
-348,708	165,887	0,090	-0,092
-347,693	-21,682	-0,079	0,035
-346,679	-149,389	-0,105	-0,006
-345,664	800,000	-0,022	-0,047
-344,650	-200,000	0,025	-0,154
-343,635	-77,215	0,210	-0,053
-342,620	443,808	0,040	0,063
-341,606	-151,786	0,178	-0,009
-340,591	94,489	-0,068	0,056
-339,577	96,229	0,155	0,129
-338,562	114,285	0,040	0,035
-337,548	-200,000	-0,012	-0,091
-336,533	-200,000	-0,020	-0,159
-335,518	-24,684	0,027	0,011
-334,504	-200,000	0,009	0,092
-333,489	9,510	0,066	-0,036
-332,475	19,738	-0,051	0,030
-331,460	-62,269	-0,050	-0,015
-330,445	800,000	-0,022	0,065
-329,431	-98,511	0,064	0,012
-328,416	800,000	0,033	0,071
-327,402	259,930	-0,047	0,059
-326,387	-200,000	0,040	0,136
-325,372	70,932	-0,022	0,016
-324,358	176,372	-0,113	0,120
-323,343	800,000	0,046	0,113
-322,329	126,172	0,132	0,122
-321,314	-200,000	0,011	0,043
-320,299	-200,000	-0,009	0,080
-319,285	-91,693	0,110	0,022
-318,270	-20,100	-0,078	-0,035
-317,256	-200,000	-0,033	-0,123
-316,241	-200,000	0,032	-0,189
-315,226	675,029	-0,012	-0,024
-314,212	18,949	0,058	0,034
-313,197	-200,000	0,014	0,088
-312,183	484,971	-0,036	0,059
-311,168	800,000	0,020	-0,059
-310,153	-200,000	0,008	0,059
-309,139	-200,000	0,015	0,085
-308,124	14,119	0,073	-0,041
-307,110	800,000	0,023	0,071
-306,095	-97,880	0,100	0,019
-305,080	82,398	-0,019	0,015
-304,066	-140,813	0,124	-0,009
-303,051	-200,000	0,013	-0,106
-302,037	-200,000	0,039	0,137
-301,022	-75,040	-0,061	-0,016
-300,008	-81,190	0,074	0,018
-298,993	-200,000	-0,008	0,041
-297,978	-193,768	0,103	0,001
-296,964	800,000	-0,007	-0,021
-295,949	124,212	-0,067	0,061
-294,935	553,771	-0,028	0,049
-293,920	-200,000	0,001	-0,088
-292,905	72,452	0,079	-0,060
-291,891	486,539	0,092	0,152
-290,876	100,282	0,052	-0,044
-289,862	415,454	0,053	0,082
-288,847	-200,000	-0,008	-0,062
-287,832	246,695	-0,029	-0,036
-286,818	99,304	0,095	-0,080
-285,803	800,000	0,019	0,054
-284,789	-107,051	0,075	0,012
-283,774	-88,145	0,091	0,020
-282,759	-200,000	0,011	-0,131
-281,745	800,000	-0,032	-0,081
-280,730	7,919	-0,045	-0,024
-279,716	800,000	0,007	-0,020
-278,701	271,196	0,017	0,021
-277,686	-200,000	-0,001	-0,025
-276,672	114,214	-0,100	0,088
-275,657	-5,737	-0,038	-0,019
-274,643	89,225	-0,048	-0,039
-273,628	26,490	0,083	0,050
-272,613	714,115	-0,051	-0,098
-271,599	55,518	0,107	0,075
-270,584	-98,225	0,153	-0,028
-269,570	-200,000	0,019	0,075
-268,555	49,953	-0,162	0,110
-267,540	-200,000	-0,036	0,144
-266,526	285,680	0,043	0,056
-265,511	87,261	0,062	0,050
-264,497	800,000	0,095	0,245
-263,482	800,000	-0,032	-0,094
-262,467	36,139	-0,137	0,087
-261,453	-72,747	-0,077	0,020
-260,438	-3,605	-0,127	0,064
-259,424	-200,000	-0,022	-0,088
-258,409	95,709	-0,082	-0,068
-257,395	-180,635	0,050	0,001
-256,380	64,944	0,129	-0,094
-255,365	800,000	0,034	0,080
-254,351	189,094	-0,071	0,077
-253,336	490,040	-0,072	0,119
-252,322	278,076	-0,048	0,062
-251,307	-170,987	-0,020	-0,000
-250,292	413,543	0,068	0,104
-249,278	-200,000	-0,001	0,085
-248,263	-100,626	0,193	0,034
-247,249	292,768	0,087	0,115
-246,234	-36,666	0,069	-0,027
-245,219	416,941	-0,035	-0,054
-244,205	-200,000	-0,012	-0,040
-243,190	51,402	0,030	0,020
-242,176	-53,630	0,055	-0,018
-241,161	353,345	0,001	-0,002
-240,146	71,907	0,106	-0,079
-239,132	-200,000	0,019	-0,144
-238,117	800,000	0,039	0,078
-237,103	-14,476	-0,156	0,072
-236,088	123,220	-0,058	-0,052
-235,073	-41,206	-0,017	-0,006
-234,059	624,103	0,046	0,085
-233,044	-57,438	0,110	-0,035
-232,030	784,366	-0,043	-0,085
-231,015	800,000	-0,012	0,025
-230,000	121,677	-0,064	-0,057
-228,986	-144,505	0,010	-0,001
-227,971	-191,514	0,116	0,001
-226,957	-200,000	0,049	0,159
-225,942	800,000	0,005	-0,012
-224,927	122,872	0,068	0,061
-223,913	694,624	-0,052	0,099
-222,898	-187,444	-0,164	-0,002
-221,884	-200,000	0,008	0,045
-220,869	161,223	0,060	0,060
-219,855	-115,002	-0,131	-0,018
-218,840	347,282	0,099	0,141
-217,825	-200,000	-0,001	-0,038
-216,811	-26,208	0,137	0,058
-215,796	761,300	-0,044	-0,086
-214,782	-200,000	0,013	0,117
-213,767	-93,957	0,039	0,008
-212,752	-76,244	0,069	0,017
-211,738	-200,000	0,051	0,173
-210,723	197,095	0,059	0,065
-209,709	800,000	-0,087	-0,187
-208,694	256,772	-0,055	-0,068
-207,679	510,266	0,071	0,119
-206,665	-194,077	-0,031	0,000
-205,650	-112,042	-0,040	-0,006
-204,636	661,419	0,083	-0,155
-203,621	92,692	-0,090	0,074
-202,606	-89,700	0,097	-0,020
-201,592	800,000	-0,021	0,058
-200,577	-44,077	-0,187	-0,068
-199,563	800,000	-0,007	-0,019
-198,548	-200,000	0,041	0,147
-197,533	800,000	0,067	-0,162
-196,519	368,285	-0,024	-0,035
-195,504	-66,204	-0,080	0,023
-194,490	-105,669	-0,047	0,008
-193,475	-25,425	-0,086	-0,037
-192,460	-4,986	-0,093	-0,046
-191,446	-200,000	0,018	0,086
-190,431	-173,088	0,083	0,002
-189,417	-182,126	-0,160	0,002
-188,402	107,890	0,130	-0,111
-187,387	800,000	0,035	-0,071
-186,373	-200,000	0,025	-0,123
-185,358	-35,491	-0,123	-0,048
-184,344	-165,711	0,186	0,006
-183,329	800,000	0,074	0,158
-182,315	664,451	-0,024	0,045
-181,300	162,368	-0,052	0,052
-180,285	215,384	0,039	0,045
-179,271	-100,070	0,090	-0,016
-178,256	169,940	0,089	-0,092
-177,242	216,482	0,069	-0,080
-176,227	800,000	0,038	0,086
-175,212	-200,000	0,008	0,058
-174,198	-94,658	0,064	-0,012
-173,183	800,000	-0,021	-0,061
-172,169	70,316	-0,061	-0,045
-171,154	-200,000	-0,005	0,020
-170,139	-200,000	0,028	-0,128
-169,125	250,653	0,103	0,127
-168,110	314,258	0,118	0,161
-167,096	-20,314	-0,057	-0,025
-166,081	-142,744	-0,105	0,007
-165,066	171,112	-0,080	-0,083
-164,052	337,526	-0,056	0,079
-163,037	800,000	0,012	-0,030
-162,023	335,800	-0,066	-0,093
-161,008	-200,000	0,007	0,027
-159,993	800,000	0,026	0,074
-158,979	-78,628	-0,036	0,009
-157,964	800,000	-0,024	-0,076
-156,950	-10,220	-0,052	0,025
-155,935	-121,372	-0,102	0,012
-154,920	800,000	0,028	0,082
-153,906	-130,982	0,061	-0,006
-152,891	-139,971	0,076	-0,006
-151,877	-71,841	0,095	0,025
-150,862	-200,000	0,018	-0,064
-149,847	517,195	0,007	-0,012
-148,833	-200,000	-0,018	-0,095
-147,818	-41,139	-0,051	-0,019
-146,804	-134,912	-0,069	0,006
-145,789	8,044	0,067	0,036
-144,775	800,000	-0,098	-0,295
-143,760	76,051	-0,066	-0,050
-142,745	-200,000	-0,040	-0,129
-141,731	-200,000	0,012	0,065
-140,716	143,033	0,092	-0,088
-139,702	320,602	-0,068	0,094
-138,687	49,633	0,041	-0,028
-137,672	-43,731	0,075	-0,027
-136,658	318,086	-0,067	0,091
-135,643	25,079	-0,108	-0,064
-134,629	800,000	-0,029	0,091
-133,614	800,000	-0,031	0,088
-132,599	-50,248	-0,026	-0,009
-131,585	102,768	-0,144	-0,121
-130,570	800,000	0,035	-0,101
-129,556	4,341	-0,064	-0,034
-128,541	-200,000	-0,014	-0,054
-127,526	208,464	0,034	-0,038
-126,512	800,000	-0,039	0,080
-125,497	800,000	-0,015	-0,031
-124,483	303,628	-0,077	0,103
-123,468	12,776	0,113	-0,063
-122,453	-106,557	-0,105	-0,017
-121,439	800,000	-0,058	0,159
-120,424	-200,000	-0,005	-0,041
-119,410	335,411	-0,071	0,099
-118,395	-200,000	-0,017	0,061
-117,380	56,617	-0,009	0,006
-116,366	227,148	-0,108	-0,127
-115,351	-101,660	-0,135	0,023
-114,337	87,855	-0,048	0,038
-113,322	274,066	0,038	-0,049
-112,307	-200,000	-0,012	-0,056
-111,293	41,190	0,006	0,004
-110,278	28,226	0,130	0,079
-109,264	-32,226	0,061	0,024
-108,249	107,348	-0,055	-0,047
-107,234	800,000	-0,016	-0,035
-106,220	161,315	-0,033	0,033
-105,205	495,089	0,087	0,145
-104,191	-200,000	-0,007	0,094
-103,176	-141,100	0,056	-0,004
-102,162	26,738	0,049	-0,029
-101,147	145,889	-0,078	-0,075
-100,132	800,000	-0,075	0,155
-99,118	800,000	0,021	-0,054
-98,103	100,930	-0,094	0,079
-97,089	-200,000	0,030	-0,142
-96,074	29,029	-0,108	0,066
-95,059	-194,848	0,047	-0,000
-94,045	-200,000	-0,009	0,036
-93,030	56,535	-0,061	-0,043
-92,016	-200,000	0,013	-0,077
-91,001	-200,000	0,009	-0,091
-89,986	-200,000	0,012	0,041
-88,972	-200,000	-0,013	0,135
-87,957	800,000	0,017	-0,053
-86,943	-90,112	0,085	0,018
-85,928	17,326	0,056	-0,032
-84,913	800,000	-0,061	-0,125
-83,899	800,000	-0,037	0,076
-82,884	-136,607	0,110	-0,009
-81,870	-177,699	0,079	-0,001
-80,855	-200,000	-0,002	0,040
-79,840	-60,635	-0,131	0,040
-78,826	41,432	-0,068	0,044
-77,811	-134,010	-0,071	-0,006
-76,797	-200,000	-0,000	0,034
-75,782	53,440	-0,152	0,105
-74,767	142,708	-0,070	0,067
-73,753	245,988	0,053	0,064
-72,738	-157,497	0,099	0,004
-71,724	-104,277	0,065	-0,011
-70,709	-172,583	-0,188	0,004
-69,694	45,264	0,072	0,048
-68,680	49,525	0,051	-0,034
-67,665	-84,025	0,110	-0,025
-66,651	-124,826	-0,091	0,010
-65,636	-200,000	0,001	-0,026
-64,622	-200,000	0,006	0,028
-63,607	59,827	0,114	-0,081
-62,592	800,000	-0,058	-0,149
-61,578	272,358	0,053	-0,067
-60,563	-60,344	0,061	0,019
-59,549	800,000	0,017	0,041
-58,534	24,040	-2,019	-1,194
-57,519	-200,000	-0,160	-0,955
-56,505	-200,000	-1,174	-5,044
-55,490	-32,268	0,829	0,331
-54,476	800,000	5,363	12,184
-53,461	-200,000	17,547	285,795
-52,446	800,000	722,775	2222,550
-51,432	537,740	1635,880	2801,911
-50,417	111,233	1627,813	1408,104
-49,403	74,442	1284,513	968,397
-48,388	32,445	1028,584	636,537
-47,373	20,076	990,312	572,025
-46,359	18,503	978,816	560,194
-45,344	16,096	974,745	549,952
-44,330	16,211	973,290	549,485
-43,315	15,809	971,475	547,126
-42,300	15,791	970,449	546,465
-41,286	15,795	969,487	545,918
-40,271	15,780	968,317	545,187
-39,257	15,764	967,540	544,677
-38,242	15,844	966,542	544,353
-37,227	15,825	965,723	543,809
-36,213	15,788	965,148	543,341
-35,198	15,779	964,170	542,741
-34,184	15,851	963,332	542,480
-33,169	15,747	962,349	541,568
-32,154	15,779	961,511	541,179
-31,140	15,791	960,524	540,642
-30,125	15,797	959,826	540,247
-29,111	15,830	958,930	539,828
-28,096	15,854	958,507	539,644
-27,082	15,819	957,787	539,105
-26,067	15,807	957,168	538,698
-25,052	15,782	956,270	538,089
-24,038	15,725	955,682	537,555
-23,023	15,719	954,879	537,061
-22,009	15,824	954,107	536,942
-20,994	15,711	953,668	536,313
-19,979	15,808	953,021	536,239
-18,965	15,820	952,554	535,993
-17,950	15,814	951,864	535,564
-16,936	15,780	951,092	534,999
-15,921	15,791	950,533	534,698
-14,906	15,693	949,861	533,986
-13,892	15,702	949,080	533,554
-12,877	15,681	948,577	533,185
-11,863	15,667	947,974	532,780
-10,848	15,650	947,586	532,487
-9,833	15,744	946,862	532,359
-8,819	15,699	946,439	531,957
-7,804	15,677	945,600	531,392
-6,790	15,648	944,979	530,930
-5,775	15,660	944,628	530,752
-4,760	15,700	943,665	530,316
-3,746	15,683	943,159	529,956
-2,731	15,553	942,533	529,172
-1,717	15,554	941,874	528,782
-0,702	15,493	941,199	528,189
0,313	15,298	940,498	527,978
1,327	18,708	938,568	537,607
2,342	27,779	793,096	478,276
3,356	24,343	446,711	264,252
4,371	-5,023	296,523	145,948
5,386	-8,850	278,112	133,233
6,400	-10,132	272,419	129,299
7,415	-10,384	270,067	127,938
8,429	-10,222	268,707	127,431
9,444	-10,487	267,788	126,741
10,459	-10,357	267,207	126,573
11,473	-10,396	266,651	126,264
12,488	-10,512	266,106	125,889
13,502	-10,759	265,576	125,403
14,517	-10,752	265,251	125,244
15,531	-10,773	264,720	124,963
16,546	-10,494	264,322	125,016
17,561	-10,592	263,928	124,730
18,575	-10,658	263,709	124,555
19,590	-10,695	263,131	124,239
20,604	-10,651	262,987	124,199
21,619	-10,665	262,701	124,040
22,634	-10,589	262,142	123,834
23,648	-10,865	261,989	123,503
24,663	-10,773	261,818	123,494
25,677	-10,773	261,409	123,290
26,692	-10,825	261,246	123,155
27,707	-10,862	260,952	122,973
28,721	-10,835	260,684	122,859
29,736	-10,844	260,402	122,708
30,750	-10,701	260,062	122,664
31,765	-10,845	259,886	122,442
32,780	-10,579	259,636	122,549
33,794	-10,672	259,330	122,311
34,809	-10,697	259,060	122,151
35,823	-10,828	258,946	121,970
36,838	-11,034	258,855	121,734
37,853	-11,006	258,576	121,617
38,867	-11,060	258,195	121,379
39,882	-11,069	258,005	121,272
40,896	-10,950	257,778	121,259
41,911	-10,967	257,495	121,099
42,926	-10,820	257,286	121,120
43,940	-11,096	257,088	120,773
44,955	-11,014	256,841	120,719
45,969	-11,052	256,593	120,558
46,984	-11,255	256,282	120,223
47,999	-11,557	256,009	119,821
49,013	-11,511	255,813	119,759
50,028	-11,693	255,347	119,372
51,042	-11,677	255,142	119,279
52,057	-11,649	254,914	119,186
53,071	-11,582	254,800	119,180
54,086	-11,673	254,658	119,024
55,101	-11,628	254,565	119,009
56,115	-11,349	254,448	119,186
57,130	-10,938	254,366	119,493
58,144	-10,705	254,153	119,585
59,159	-10,508	253,900	119,626
60,174	-10,440	253,492	119,481
61,188	-10,689	253,588	119,301
62,203	-10,823	253,362	119,068
63,217	-10,685	253,085	119,046
64,232	-10,735	252,789	118,854
65,247	-10,668	252,665	118,842
66,261	-10,626	252,365	118,727
67,276	-10,868	252,055	118,362
68,290	-11,258	251,808	117,901
69,305	-11,328	251,570	117,719
70,320	-11,416	251,405	117,557
71,334	-11,014	251,300	117,841
72,349	-10,709	251,124	118,008
73,363	-10,465	251,029	118,162
74,378	-10,696	250,876	117,882
75,393	-10,730	250,582	117,704
76,407	-10,770	250,411	117,579
77,422	-10,586	250,043	117,552
78,436	-10,719	249,860	117,343
79,451	-10,794	249,793	117,237
80,466	-10,742	249,477	117,123
81,480	-11,091	249,076	116,628
82,495	-11,231	248,931	116,431
83,509	-11,127	248,845	116,469
84,524	-11,139	248,655	116,359
85,539	-11,224	248,459	116,185
86,553	-11,376	248,294	115,969
87,568	-11,225	248,173	116,030
88,582	-11,194	247,882	115,910
89,597	-11,205	247,593	115,755
90,611	-10,846	247,515	116,011
91,626	-10,890	247,556	115,982
92,641	-10,862	247,284	115,868
93,655	-10,953	246,916	115,609
94,670	-10,889	246,748	115,574
95,684	-10,831	246,532	115,511
96,699	-10,942	246,361	115,327
97,714	-11,109	246,069	115,041
98,728	-11,183	246,064	114,966
99,743	-11,298	245,695	114,688
100,757	-11,251	245,500	114,625
101,772	-11,270	245,222	114,470
102,787	-11,214	245,200	114,496
103,801	-10,975	245,121	114,648
104,816	-10,961	244,865	114,530
105,830	-10,906	244,767	114,519
106,845	-10,551	244,510	114,683
107,860	-10,856	244,296	114,320
108,874	-10,925	244,015	114,121
109,889	-11,094	243,918	113,926
110,903	-10,970	243,827	113,975
111,918	-11,019	243,521	113,782
112,933	-10,864	243,480	113,880
113,947	-10,977	243,278	113,683
114,962	-10,887	242,983	113,609
115,976	-10,893	242,908	113,558
116,991	-10,824	242,647	113,483
118,006	-10,781	242,408	113,397
119,020	-10,812	242,450	113,381
120,035	-10,907	242,350	113,246
121,049	-10,776	242,134	113,243
122,064	-10,920	242,019	113,061
123,079	-10,748	241,753	113,067
124,093	-11,026	241,409	112,669
125,108	-11,359	241,289	112,330
126,122	-11,521	241,100	112,100
127,137	-11,360	240,739	112,053
128,151	-11,379	240,689	112,004
129,166	-11,065	240,376	112,104
130,181	-11,197	240,278	111,941
131,195	-11,140	240,026	111,861
132,210	-11,296	239,989	111,706
133,224	-11,058	239,936	111,865
134,239	-10,941	239,682	111,831
135,254	-11,042	239,562	111,684
136,268	-10,992	239,288	111,587
137,283	-11,666	239,128	110,956
138,297	-11,355	238,654	110,978
139,312	-11,335	238,638	110,977
140,327	-11,161	238,621	111,100
141,341	-10,506	238,585	111,602
142,356	-10,515	238,253	111,429
143,370	-10,566	238,294	111,397
144,385	-10,453	238,140	111,407
145,400	-10,429	237,912	111,309
146,414	-10,582	237,968	111,203
147,429	-10,735	237,577	110,887
148,443	-10,664	237,275	110,793
149,458	-10,623	237,118	110,743
150,473	-10,643	237,013	110,667
151,487	-10,604	236,855	110,615
152,502	-10,678	236,568	110,412
153,516	-10,440	236,481	110,552
154,531	-10,587	236,250	110,317
155,546	-10,619	236,146	110,232
156,560	-10,740	235,923	110,023
157,575	-10,764	235,570	109,829
158,589	-10,817	235,601	109,791
159,604	-10,438	235,256	109,922
160,619	-10,177	235,273	110,127
161,633	-10,369	235,189	109,926
162,648	-10,183	235,015	109,982
163,662	-10,588	234,796	109,548
164,677	-10,598	234,630	109,454
165,692	-10,712	234,646	109,361
166,706	-10,462	234,346	109,410
167,721	-10,381	234,209	109,400
168,735	-10,165	234,134	109,526
169,750	-10,551	233,982	109,140
170,764	-10,628	233,768	108,969
171,779	-10,470	233,670	109,039
172,794	-10,301	233,588	109,124
173,808	-10,515	233,285	108,804
174,823	-11,032	233,008	108,259
175,837	-11,332	232,670	107,856
176,852	-10,757	232,805	108,361
177,867	-10,592	232,700	108,433
178,881	-10,684	232,669	108,336
179,896	-10,369	232,412	108,454
180,910	-10,416	232,126	108,274
181,925	-10,509	232,072	108,166
182,940	-10,238	231,930	108,302
183,954	-10,429	231,759	108,064
184,969	-10,379	231,712	108,071
185,983	-10,370	231,508	107,973
186,998	-10,412	231,298	107,833
188,013	-10,353	231,004	107,732
189,027	-10,305	231,017	107,766
190,042	-10,242	230,914	107,757
191,056	-10,292	230,868	107,688
192,071	-10,209	230,431	107,539
193,086	-10,391	230,325	107,338
194,100	-10,416	230,131	107,219
195,115	-10,399	229,749	107,045
196,129	-10,639	229,794	106,870
197,144	-5,374	231,609	111,808
198,159	0,270	233,276	117,020
199,173	3,084	233,964	119,558
200,188	3,537	234,040	119,940
201,202	3,627	233,901	119,928
202,217	3,613	233,749	119,829
203,232	3,821	233,591	119,900
204,246	3,826	233,521	119,857
205,261	4,042	233,269	119,886
206,275	4,013	233,277	119,855
207,290	4,106	233,025	119,788
208,304	4,145	233,016	119,803
209,319	4,186	232,831	119,729
210,334	4,054	232,561	119,477
211,348	3,743	232,293	119,087
212,363	3,565	232,035	118,807
213,377	3,218	231,889	118,453
214,392	3,361	231,714	118,463
215,407	3,442	231,510	118,411
216,421	3,482	231,481	118,417
217,436	3,202	231,285	118,090
218,450	3,064	231,081	117,869
219,465	3,068	230,943	117,791
220,480	3,124	230,775	117,738
221,494	3,021	230,512	117,514
222,509	3,389	230,438	117,749
223,523	3,373	230,270	117,641
224,538	3,185	230,063	117,379
225,553	3,347	230,164	117,545
226,567	3,498	229,817	117,473
227,582	3,504	229,961	117,541
228,596	3,726	229,731	117,582
229,611	3,477	229,545	117,286
230,626	3,253	229,041	116,848
231,640	3,286	229,015	116,849
232,655	3,430	229,121	117,003
233,669	3,759	229,230	117,299
234,684	3,951	228,897	117,264
235,699	3,603	228,708	116,892
236,713	3,475	228,429	116,642
237,728	3,364	228,318	116,491
238,742	3,374	227,958	116,304
239,757	3,488	227,861	116,331
240,772	3,403	227,753	116,201
241,786	3,013	227,583	115,808
242,801	3,236	227,496	115,922
243,815	3,754	227,557	116,335
244,830	3,656	227,331	116,136
245,844	3,469	227,149	115,891
246,859	3,528	226,943	115,820
247,874	3,704	226,746	115,841
248,888	3,567	226,796	115,754
249,903	3,450	226,565	115,538
250,917	3,342	226,312	115,317
251,932	3,357	226,284	115,303
252,947	3,363	226,102	115,205
253,961	3,077	225,897	114,875
254,976	3,409	225,858	115,094
255,990	3,332	225,767	114,980
257,005	3,337	225,596	114,886
258,020	3,729	225,397	115,069
259,034	3,694	225,353	115,010
260,049	3,763	225,030	114,886
261,063	3,587	224,929	114,693
262,078	3,872	224,843	114,852
263,093	3,823	224,670	114,716
264,107	3,675	224,526	114,522
265,122	3,546	224,529	114,417
266,136	3,692	224,483	114,492
267,151	3,783	224,193	114,402
268,166	3,520	223,945	114,070
269,180	3,241	223,582	113,667
270,195	3,470	223,494	113,783
271,209	3,144	223,401	113,483
272,224	3,421	223,267	113,611
273,239	3,235	223,325	113,492
274,253	3,397	222,964	113,419
275,268	3,083	222,755	113,070
276,282	3,291	222,473	113,070
277,297	3,237	222,464	113,015
278,312	3,146	222,442	112,927
279,326	3,175	222,324	112,878
280,341	3,115	222,154	112,738
281,355	3,545	222,122	113,029
282,370	3,473	221,851	112,827
283,384	3,104	221,632	112,435
284,399	3,035	221,527	112,321
285,414	3,061	221,369	112,250
286,428	3,205	221,409	112,366
287,443	3,482	221,332	112,520
288,457	3,577	221,134	112,479
289,472	3,314	220,855	112,135
290,487	2,849	220,657	111,684
291,501	2,852	220,575	111,634
292,516	2,990	220,386	111,630
293,530	3,116	220,254	111,645
294,545	2,989	220,087	111,458
295,560	2,981	220,063	111,429
296,574	3,307	219,900	111,574
297,589	3,237	219,694	111,409
298,603	3,397	219,689	111,514
299,618	3,283	219,488	111,319
300,633	3,435	219,418	111,384
301,647	3,724	219,285	111,516
302,662	3,584	219,139	111,330
303,676	3,340	219,116	111,132
304,691	3,417	218,961	111,098
305,706	3,642	218,724	111,132
306,720	3,537	218,664	111,015
307,735	3,415	218,312	110,738
308,749	3,188	218,290	110,553
309,764	3,244	218,223	110,550
310,779	3,721	217,956	110,749
311,793	3,547	217,879	110,574
312,808	3,458	217,741	110,431
313,822	3,485	217,644	110,391
314,837	3,381	217,435	110,200
315,852	3,222	217,168	109,941
316,866	3,316	217,125	109,977
317,881	3,411	217,086	110,016
318,895	3,617	216,824	110,021
319,910	3,477	216,623	109,808
320,925	3,045	216,442	109,398
321,939	2,743	216,202	109,051
322,954	3,048	216,168	109,242
323,968	3,436	216,302	109,577
324,983	3,753	216,059	109,670
325,997	3,769	215,852	109,567
327,012	3,496	215,788	109,331
328,027	3,443	215,621	109,198
329,041	3,902	215,617	109,513
330,056	3,636	215,572	109,291
331,070	3,407	215,186	108,923
332,085	3,198	215,042	108,692
333,100	3,169	214,814	108,547
334,114	3,217	214,807	108,568
335,129	3,590	214,650	108,743
336,143	3,459	214,505	108,566
337,158	3,374	214,462	108,475
338,173	3,251	214,301	108,297
339,187	3,198	214,077	108,137
340,202	3,130	213,866	107,973
341,216	2,962	213,723	107,772
342,231	3,335	213,685	108,007
343,246	3,121	213,571	107,788
344,260	3,212	213,362	107,737
345,275	3,290	213,221	107,712
346,289	3,237	213,188	107,648
347,304	3,501	213,018	107,738
348,319	3,316	212,827	107,502
349,333	3,431	212,616	107,466
350,348	3,065	212,756	107,271
351,362	3,600	212,433	107,474
352,377	3,546	212,526	107,473
353,392	3,256	212,251	107,122
354,406	3,341	212,131	107,110
355,421	195,992	1340,097	1420,077
356,435	156,600	1477,500	1420,055
