DTS Sentinel unit serial number:	SN410029Multiplexer serial number:	ORYXHardware model number:	OX2-SRSoftware version number:	ORYX F/W v4,00 Oryx Data Collector v3.7.2.0data status	okinstallation	B6 Nyhavnadifferential loss correction	single-endedforward channel	channel 2reverse channel	N/Adate	2023/12/09time	18:00:08forward acquisition time	300,00reverse acquisition time	0,00gamma	499,1914k internal	0,3130k external	0,3130temperature offset calibration	1,0000default loss term (dB/km)	0,3820temperature slope calibration	1,0000multiplexer offset coefficient	1,0000multiplexer slope coefficient	1,0000fibre end	0,00T internal ref (°C)	21,03T ext. ref 1 (°C)	4,77T ext. ref 2 (°C)	4,77length (m)	temperature (°C)	Stokes	anti-Stokes-744,400	-98,935	0,143	0,027
-743,385	1,650	-0,167	0,089
-742,371	-76,658	0,088	0,023
-741,356	-57,133	-0,166	0,054
-740,342	-60,933	0,103	-0,032
-739,327	-86,355	-0,246	0,056
-738,312	-176,675	0,125	-0,002
-737,298	-114,006	-0,164	-0,023
-736,283	44,155	0,039	0,026
-735,269	-81,050	-0,281	-0,069
-734,254	206,038	-0,039	-0,045
-733,239	-108,996	-0,378	-0,059
-732,225	18,186	0,124	0,073
-731,210	800,000	0,028	0,059
-730,196	800,000	0,022	-0,060
-729,181	800,000	0,022	-0,059
-728,167	71,485	0,031	-0,024
-727,152	147,665	0,018	-0,019
-726,137	-200,000	-0,034	-0,146
-725,123	71,011	-0,179	-0,138
-724,108	-200,000	-0,032	-0,186
-723,094	-200,000	-0,004	-0,038
-722,079	92,865	-0,089	-0,075
-721,064	360,782	-0,041	-0,061
-720,050	135,069	0,129	-0,124
-719,035	-154,096	0,117	0,006
-718,021	-109,781	0,043	0,007
-717,006	307,238	0,048	0,067
-715,991	-76,087	-0,147	-0,038
-714,977	800,000	-0,013	-0,036
-713,962	800,000	0,008	0,026
-712,948	800,000	-0,061	0,154
-711,933	-178,162	-0,041	-0,001
-710,918	77,589	-0,103	-0,081
-709,904	-200,000	0,004	-0,025
-708,889	800,000	0,096	-0,222
-707,875	116,324	-0,045	0,041
-706,860	323,432	0,039	-0,055
-705,845	-200,000	0,003	0,101
-704,831	15,801	0,053	-0,031
-703,816	-200,000	-0,003	0,011
-702,802	-152,796	-0,034	0,002
-701,787	-200,000	0,034	-0,150
-700,772	-87,525	-0,013	0,003
-699,758	-92,129	0,069	0,014
-698,743	-171,119	0,064	0,002
-697,729	19,999	0,089	0,053
-696,714	-200,000	0,015	-0,062
-695,699	-27,504	-0,079	0,034
-694,685	-200,000	-0,013	0,095
-693,670	800,000	0,052	-0,138
-692,656	-168,476	-0,029	-0,001
-691,641	800,000	-0,035	0,079
-690,627	381,617	0,059	0,090
-689,612	-200,000	0,018	0,094
-688,597	29,636	-0,093	0,059
-687,583	-114,512	-0,105	-0,015
-686,568	215,437	0,051	0,061
-685,554	-79,271	-0,058	-0,014
-684,539	6,502	-0,071	-0,039
-683,524	220,618	0,061	0,073
-682,510	800,000	0,006	0,014
-681,495	459,461	-0,026	-0,043
-680,481	-200,000	0,005	-0,094
-679,466	-45,429	-0,068	0,025
-678,451	268,026	0,100	0,130
-677,437	-200,000	0,002	-0,086
-676,422	800,000	-0,014	-0,035
-675,408	-32,027	0,130	0,054
-674,393	488,699	-0,057	-0,098
-673,378	13,879	-0,092	-0,053
-672,364	286,704	-0,052	-0,069
-671,349	-200,000	0,002	0,065
-670,335	800,000	0,031	0,071
-669,320	37,613	-0,112	-0,073
-668,305	800,000	0,020	0,051
-667,291	-200,000	0,002	0,118
-666,276	91,039	0,088	-0,073
-665,262	303,138	-0,072	-0,099
-664,247	800,000	-0,006	0,018
-663,232	-193,580	-0,113	-0,001
-662,218	-99,254	0,141	-0,026
-661,203	50,267	-0,078	-0,055
-660,189	-55,621	0,099	-0,033
-659,174	615,501	-0,059	-0,110
-658,159	-200,000	-0,024	-0,107
-657,145	68,896	-0,060	-0,046
-656,130	-200,000	-0,003	-0,073
-655,116	800,000	0,016	0,042
-654,101	-103,816	0,011	-0,002
-653,086	210,181	-0,063	-0,074
-652,072	-78,062	-0,127	-0,032
-651,057	-107,830	-0,109	-0,017
-650,043	-154,821	-0,133	0,006
-649,028	-200,000	-0,003	-0,094
-648,014	-85,756	0,176	-0,040
-646,999	168,200	0,080	-0,085
-645,984	767,937	0,043	0,088
-644,970	626,758	-0,028	-0,052
-643,955	-15,237	-0,041	0,019
-642,941	-51,413	-0,107	0,037
-641,926	272,109	0,011	0,014
-640,911	-37,814	-0,014	-0,006
-639,897	751,063	0,027	-0,054
-638,882	408,374	-0,021	-0,033
-637,868	-8,983	-0,148	0,073
-636,853	800,000	-0,023	-0,075
-635,838	525,936	-0,040	-0,071
-634,824	159,201	0,125	-0,128
-633,809	36,047	-0,007	-0,004
-632,795	58,472	0,068	-0,050
-631,780	171,510	0,007	0,008
-630,765	115,023	-0,050	0,045
-629,751	-200,000	-0,024	-0,117
-628,736	-121,039	-0,055	-0,007
-627,722	371,066	-0,014	-0,020
-626,707	21,015	-0,106	0,063
-625,692	632,637	0,032	0,061
-624,678	73,536	0,057	0,044
-623,663	706,010	-0,012	0,024
-622,649	12,098	-0,017	0,010
-621,634	-200,000	-0,014	-0,090
-620,619	-200,000	0,019	-0,079
-619,605	800,000	-0,020	0,045
-618,590	-200,000	-0,010	0,034
-617,576	-73,838	0,069	0,019
-616,561	152,188	-0,017	0,017
-615,546	-200,000	0,069	-0,241
-614,532	334,949	-0,060	-0,087
-613,517	29,068	-0,045	0,028
-612,503	-35,309	-0,029	-0,012
-611,488	-85,871	0,077	-0,018
-610,474	346,391	-0,022	0,032
-609,459	800,000	-0,092	-0,214
-608,444	673,564	-0,089	-0,171
-607,430	-0,883	-0,025	-0,013
-606,415	-200,000	-0,023	-0,109
-605,401	521,083	0,025	0,044
-604,386	599,427	0,039	0,072
-603,371	-90,128	0,031	-0,007
-602,357	800,000	0,059	-0,159
-601,342	-200,000	0,016	0,075
-600,328	405,634	0,050	-0,078
-599,313	-24,602	-0,157	-0,069
-598,298	800,000	-0,016	-0,046
-597,284	65,721	-0,074	-0,056
-596,269	199,273	0,060	-0,068
-595,255	-133,922	-0,100	-0,009
-594,240	-99,652	-0,088	-0,016
-593,225	-200,000	-0,019	-0,063
-592,211	800,000	-0,014	-0,044
-591,196	537,741	-0,063	0,111
-590,182	353,758	0,063	0,093
-589,167	-133,987	0,140	0,013
-588,152	162,920	-0,091	0,094
-587,138	-119,554	-0,112	0,014
-586,123	800,000	0,012	-0,025
-585,109	110,388	0,095	-0,084
-584,094	469,907	-0,029	-0,048
-583,079	-123,812	-0,032	0,004
-582,065	-147,577	0,078	-0,005
-581,050	-41,385	0,051	-0,019
-580,036	-200,000	-0,009	0,062
-579,021	226,547	-0,005	0,006
-578,006	-87,048	0,029	0,007
-576,992	-97,577	-0,137	0,026
-575,977	-25,097	0,072	-0,031
-574,963	-38,392	-0,080	0,031
-573,948	-200,000	-0,003	0,111
-572,934	574,885	-0,066	0,120
-571,919	-152,038	0,013	0,001
-570,904	-23,976	0,112	-0,049
-569,890	-30,197	-0,076	-0,032
-568,875	-200,000	0,003	0,096
-567,861	-21,279	-0,032	0,014
-566,846	205,426	-0,058	0,066
-565,831	800,000	-0,035	-0,104
-564,817	54,568	-0,160	0,114
-563,802	-200,000	-0,020	-0,112
-562,788	796,632	0,060	0,124
-561,773	-200,000	0,021	-0,151
-560,758	-99,119	0,069	-0,013
-559,744	271,554	-0,066	0,086
-558,729	258,512	0,057	0,073
-557,715	333,294	0,022	-0,031
-556,700	-100,443	0,044	0,008
-555,685	161,874	-0,058	0,060
-554,671	-106,332	-0,052	0,008
-553,656	127,089	0,027	0,025
-552,642	-200,000	0,003	0,039
-551,627	-12,875	0,021	-0,010
-550,612	-200,000	0,003	-0,013
-549,598	-7,776	-0,065	-0,032
-548,583	-200,000	0,011	-0,164
-547,569	139,144	-0,083	0,081
-546,554	800,000	0,065	0,169
-545,539	91,326	-0,116	0,096
-544,525	300,299	0,042	-0,057
-543,510	-97,491	0,077	0,015
-542,496	61,073	0,142	0,104
-541,481	0,348	-0,142	-0,075
-540,466	800,000	-0,025	0,068
-539,452	800,000	0,027	-0,063
-538,437	800,000	0,059	0,175
-537,423	-98,153	-0,026	0,005
-536,408	-69,143	-0,059	0,017
-535,393	25,500	-0,060	-0,037
-534,379	100,903	-0,070	-0,060
-533,364	-4,286	-0,150	0,076
-532,350	272,193	0,086	0,112
-531,335	-26,211	0,061	0,027
-530,321	58,739	-0,073	-0,053
-529,306	328,216	0,044	0,063
-528,291	-85,647	-0,093	-0,021
-527,277	800,000	0,120	0,291
-526,262	-200,000	0,014	0,099
-525,248	546,417	-0,021	-0,037
-524,233	261,456	0,020	-0,026
-523,218	-171,582	0,075	-0,002
-522,204	-133,251	-0,089	0,008
-521,189	707,475	-0,058	0,113
-520,175	-200,000	0,035	-0,123
-519,160	-6,949	-0,051	-0,026
-518,145	800,000	-0,037	0,109
-517,131	86,490	-0,086	-0,070
-516,116	600,268	-0,048	-0,088
-515,102	-200,000	0,009	-0,071
-514,087	-114,361	-0,181	0,025
-513,072	-140,751	-0,054	-0,004
-512,058	13,780	0,063	0,036
-511,043	270,733	0,035	-0,046
-510,029	-81,764	-0,047	0,011
-509,014	512,551	0,096	0,165
-507,999	800,000	0,077	-0,193
-506,985	-200,000	-0,023	-0,093
-505,970	-101,115	-0,154	-0,028
-504,956	-127,126	-0,069	0,007
-503,941	-200,000	0,019	-0,071
-502,926	-200,000	-0,008	0,039
-501,912	23,338	0,060	-0,036
-500,897	-200,000	-0,009	0,033
-499,883	800,000	-0,033	-0,081
-498,868	-200,000	-0,019	-0,168
-497,853	146,052	-0,060	-0,059
-496,839	183,556	-0,080	-0,087
-495,824	240,810	-0,120	0,148
-494,810	358,165	-0,040	-0,059
-493,795	800,000	-0,022	-0,066
-492,781	25,059	0,058	0,035
-491,766	-40,454	-0,107	0,041
-490,751	-200,000	-0,020	-0,099
-489,737	305,831	0,010	-0,014
-488,722	227,529	-0,104	-0,124
-487,708	61,212	0,041	0,030
-486,693	13,488	0,112	-0,064
-485,678	-200,000	0,021	-0,112
-484,664	-48,209	-0,050	-0,018
-483,649	-119,615	-0,152	0,019
-482,635	800,000	-0,044	0,124
-481,620	800,000	-0,024	0,049
-480,605	267,973	-0,051	-0,065
-479,591	20,013	0,074	0,044
-478,576	59,932	0,073	0,053
-477,562	-200,000	-0,001	0,004
-476,547	-200,000	-0,018	-0,133
-475,532	-200,000	0,015	-0,077
-474,518	800,000	0,028	-0,068
-473,503	-28,468	0,084	0,035
-472,489	86,587	-0,041	0,033
-471,474	201,649	0,007	-0,008
-470,459	266,016	-0,008	-0,010
-469,445	-200,000	-0,006	-0,031
-468,430	-111,164	-0,113	-0,017
-467,416	-155,410	-0,093	-0,004
-466,401	-154,967	-0,097	0,005
-465,386	-200,000	-0,000	0,011
-464,372	-86,135	0,025	-0,006
-463,357	-113,968	-0,028	-0,004
-462,343	85,453	0,064	-0,052
-461,328	-99,013	-0,025	0,005
-460,313	118,292	0,053	0,048
-459,299	53,225	-0,066	0,046
-458,284	-200,000	-0,018	0,078
-457,270	-90,960	-0,003	0,001
-456,255	-36,676	-0,046	-0,018
-455,241	75,380	-0,063	-0,049
-454,226	70,251	-0,090	-0,068
-453,211	96,206	-0,032	0,027
-452,197	800,000	0,050	0,118
-451,182	140,262	-0,045	0,044
-450,168	319,286	-0,044	0,062
-449,153	-163,356	-0,020	0,001
-448,138	600,134	-0,082	-0,151
-447,124	-200,000	0,013	-0,061
-446,109	279,946	-0,010	-0,014
-445,095	800,000	0,020	0,065
-444,080	-41,953	0,055	-0,021
-443,065	461,800	0,040	-0,065
-442,051	-121,672	0,114	0,014
-441,036	18,464	-0,136	-0,080
-440,022	-200,000	0,007	-0,064
-439,007	800,000	-0,017	-0,053
-437,992	48,712	-0,077	-0,053
-436,978	-200,000	-0,014	0,128
-435,963	-200,000	0,021	0,090
-434,949	800,000	-0,027	-0,060
-433,934	-72,283	-0,096	0,026
-432,919	-181,584	-0,097	-0,001
-431,905	-200,000	-0,012	-0,094
-430,890	-200,000	0,019	-0,100
-429,876	-200,000	-0,029	0,195
-428,861	-47,190	0,116	-0,041
-427,846	683,048	-0,032	-0,061
-426,832	800,000	0,012	-0,035
-425,817	298,843	0,023	-0,031
-424,803	800,000	-0,023	0,065
-423,788	-200,000	-0,017	0,094
-422,773	800,000	0,071	0,169
-421,759	-170,564	0,106	-0,003
-420,744	242,936	0,006	-0,007
-419,730	68,866	-0,060	0,045
-418,715	-30,355	-0,065	-0,027
-417,701	572,756	0,051	-0,092
-416,686	-200,000	0,009	0,184
-415,671	4,744	0,052	-0,028
-414,657	800,000	0,037	-0,093
-413,642	346,626	0,013	0,019
-412,628	508,054	-0,001	-0,002
-411,613	-200,000	-0,008	-0,133
-410,598	-200,000	0,015	-0,089
-409,584	-200,000	0,001	0,048
-408,569	315,654	-0,002	-0,003
-407,555	286,475	0,086	0,114
-406,540	195,350	0,034	0,038
-405,525	176,608	0,051	0,055
-404,511	311,394	-0,058	0,080
-403,496	-2,838	-0,044	0,023
-402,482	-200,000	0,020	0,142
-401,467	-43,050	0,046	-0,017
-400,452	-170,455	-0,024	0,001
-399,438	-46,740	-0,227	0,081
-398,423	-153,211	0,076	-0,004
-397,409	-127,155	-0,157	0,017
-396,394	86,438	0,029	-0,023
-395,379	-200,000	0,026	-0,098
-394,365	-65,119	-0,051	-0,015
-393,350	-162,121	-0,091	-0,003
-392,336	-200,000	0,024	-0,083
-391,321	-44,319	0,134	-0,049
-390,306	-25,061	-0,022	-0,009
-389,292	-200,000	0,011	0,089
-388,277	-31,529	0,105	0,043
-387,263	128,843	0,143	0,134
-386,248	-135,141	0,065	0,006
-385,233	-200,000	0,018	-0,085
-384,219	400,960	-0,031	-0,048
-383,204	-98,181	0,011	0,002
-382,190	-64,894	-0,062	0,018
-381,175	25,004	0,120	0,073
-380,160	382,330	0,090	0,135
-379,146	800,000	-0,031	-0,063
-378,131	171,780	0,056	0,059
-377,117	800,000	0,034	-0,071
-376,102	449,829	-0,038	0,062
-375,088	-127,476	0,066	-0,007
-374,073	-200,000	-0,066	0,000
-373,058	-200,000	-0,008	-0,061
-372,044	253,483	-0,019	-0,023
-371,029	-200,000	-0,019	0,163
-370,015	-129,103	-0,107	-0,011
-369,000	26,309	0,110	0,067
-367,985	800,000	0,050	-0,108
-366,971	-132,599	0,060	0,006
-365,956	-200,000	0,010	-0,054
-364,942	62,793	-0,019	-0,014
-363,927	-200,000	0,000	-0,038
-362,912	800,000	-0,040	-0,119
-361,898	-78,280	-0,083	0,021
-360,883	-28,694	-0,183	-0,077
-359,869	646,530	-0,041	-0,076
-358,854	387,237	0,078	-0,119
-357,839	185,799	-0,049	-0,053
-356,825	-200,000	0,021	0,134
-355,810	497,168	0,068	-0,115
-354,796	321,979	0,058	0,082
-353,781	-12,186	0,063	-0,030
-352,766	21,119	-0,028	-0,017
-351,752	695,285	0,044	0,085
-350,737	86,624	-0,041	-0,033
-349,723	-123,283	0,137	-0,016
-348,708	98,104	0,023	-0,019
-347,693	347,442	0,050	-0,072
-346,679	124,910	0,061	-0,056
-345,664	-200,000	0,013	-0,104
-344,650	-200,000	-0,012	-0,145
-343,635	85,614	0,163	-0,131
-342,620	-97,393	0,115	0,022
-341,606	-200,000	0,039	0,190
-340,591	-39,304	0,132	0,050
-339,577	-71,310	0,071	0,019
-338,562	37,235	-0,117	0,076
-337,548	-14,890	0,064	-0,030
-336,533	-200,000	0,016	0,080
-335,518	-70,703	-0,106	-0,029
-334,504	-120,704	0,119	0,015
-333,489	-200,000	0,012	-0,078
-332,475	-200,000	-0,001	-0,082
-331,460	-113,142	-0,063	0,009
-330,445	19,993	0,049	-0,029
-329,431	-138,639	0,103	-0,008
-328,416	26,624	0,023	-0,014
-327,402	800,000	0,025	0,077
-326,387	-104,361	-0,032	-0,005
-325,372	-200,000	0,006	-0,092
-324,358	286,941	-0,060	-0,079
-323,343	-200,000	-0,009	-0,120
-322,329	-200,000	0,013	0,048
-321,314	-104,210	-0,061	-0,010
-320,299	256,779	-0,058	0,073
-319,285	282,441	0,107	0,141
-318,270	-48,962	0,141	0,049
-317,256	50,236	-0,076	-0,052
-316,241	-200,000	0,005	-0,041
-315,226	154,020	0,040	-0,040
-314,212	-78,616	-0,097	0,024
-313,197	-200,000	-0,033	0,168
-312,183	-200,000	0,020	0,148
-311,168	-200,000	-0,035	-0,172
-310,153	253,346	-0,074	-0,092
-309,139	-177,109	0,039	0,001
-308,124	538,473	-0,012	-0,020
-307,110	-10,688	0,135	0,065
-306,095	610,316	0,030	-0,055
-305,080	-122,489	-0,029	0,003
-304,066	-63,448	0,095	0,028
-303,051	-192,507	-0,057	0,000
-302,037	178,146	0,052	0,055
-301,022	-135,338	0,202	0,017
-300,008	-200,000	0,004	0,118
-298,993	221,020	-0,117	0,138
-297,978	248,111	-0,055	0,068
-296,964	-200,000	0,005	0,151
-295,949	588,150	0,049	-0,089
-294,935	-200,000	-0,015	-0,128
-293,920	-114,770	0,107	0,015
-292,905	-36,171	0,136	0,053
-291,891	-122,959	-0,086	-0,010
-290,876	-152,271	0,140	-0,007
-289,862	800,000	0,041	0,097
-288,847	-200,000	0,037	-0,214
-287,832	13,832	0,050	0,028
-286,818	-200,000	0,004	-0,055
-285,803	-77,395	0,100	-0,025
-284,789	-17,218	-0,139	-0,064
-283,774	281,797	-0,043	0,057
-282,759	15,386	-0,072	-0,041
-281,745	-200,000	0,017	-0,085
-280,730	800,000	-0,014	-0,037
-279,716	800,000	0,030	-0,073
-278,701	-37,771	0,035	-0,014
-277,686	707,604	-0,016	0,031
-276,672	-103,647	-0,051	-0,009
-275,657	-200,000	-0,013	-0,132
-274,643	291,553	-0,047	-0,063
-273,628	108,264	0,121	-0,105
-272,613	393,161	-0,019	0,029
-271,599	-146,980	-0,038	0,002
-270,584	198,618	0,145	0,162
-269,570	-200,000	0,062	0,254
-268,555	800,000	0,067	0,181
-267,540	-59,660	0,106	-0,033
-266,526	-200,000	0,008	0,037
-265,511	21,513	-0,059	0,035
-264,497	36,062	-0,063	0,040
-263,482	646,231	0,035	-0,065
-262,467	363,026	0,035	-0,052
-261,453	53,233	-0,095	-0,066
-260,438	-200,000	-0,021	0,117
-259,424	-72,740	0,057	0,015
-258,409	-127,936	0,098	0,010
-257,395	202,117	0,112	-0,126
-256,380	64,445	0,069	0,050
-255,365	-193,902	-0,009	0,000
-254,351	800,000	-0,047	0,112
-253,336	177,207	-0,039	0,041
-252,322	-77,077	-0,053	0,013
-251,307	-73,802	0,067	0,018
-250,292	11,204	0,025	0,014
-249,278	65,768	0,073	0,054
-248,263	-81,914	0,114	-0,027
-247,249	20,006	0,083	0,049
-246,234	14,820	-0,092	-0,052
-245,219	371,908	-0,054	-0,080
-244,205	800,000	-0,055	0,117
-243,190	211,062	0,033	-0,038
-242,176	540,389	-0,031	-0,054
-241,161	-1,384	0,107	0,055
-240,146	-52,516	0,128	-0,043
-239,132	177,958	0,017	0,018
-238,117	800,000	0,043	-0,099
-237,103	-67,725	0,153	0,043
-236,088	-9,822	0,023	-0,011
-235,073	-83,704	0,172	0,040
-234,059	163,510	-0,056	0,058
-233,044	-200,000	0,006	0,027
-232,030	715,717	0,013	-0,025
-231,015	-3,699	0,100	-0,050
-230,000	800,000	-0,026	-0,064
-228,986	800,000	0,058	-0,139
-227,971	-200,000	0,034	0,170
-226,957	-27,915	0,181	0,076
-225,942	100,951	-0,053	0,045
-224,927	315,687	-0,085	0,117
-223,913	800,000	-0,054	-0,121
-222,898	48,641	-0,039	-0,027
-221,884	800,000	0,024	-0,075
-220,869	13,446	-0,137	0,077
-219,855	390,277	0,082	0,125
-218,840	14,323	-0,090	0,051
-217,825	33,753	0,013	-0,008
-216,811	-200,000	-0,022	0,081
-215,796	19,657	0,038	-0,022
-214,782	445,269	-0,076	-0,122
-213,767	-115,516	0,031	0,004
-212,752	76,099	0,118	0,091
-211,738	-200,000	-0,001	0,040
-210,723	800,000	-0,019	0,052
-209,709	-200,000	-0,022	0,114
-208,694	800,000	-0,046	-0,139
-207,679	626,599	0,029	-0,054
-206,665	-200,000	-0,019	0,106
-205,650	-177,345	0,071	0,001
-204,636	-107,397	0,064	-0,010
-203,621	-200,000	0,033	-0,115
-202,606	37,355	-0,170	0,109
-201,592	-82,548	0,143	-0,033
-200,577	195,592	-0,081	-0,090
-199,563	-14,293	0,073	0,034
-198,548	64,449	0,024	0,018
-197,533	48,769	-0,085	0,058
-196,519	103,786	-0,081	0,069
-195,504	-200,000	-0,014	0,107
-194,490	-200,000	-0,016	0,191
-193,475	164,402	-0,143	-0,147
-192,460	574,947	0,079	0,142
-191,446	-88,506	0,124	-0,027
-190,431	800,000	-0,039	0,124
-189,417	-200,000	0,008	0,059
-188,402	-200,000	0,023	0,192
-187,387	800,000	-0,033	0,081
-186,373	250,208	0,100	0,123
-185,358	13,820	0,060	-0,034
-184,344	17,152	0,096	-0,055
-183,329	-200,000	0,010	0,082
-182,315	63,247	0,114	0,083
-181,300	0,211	-0,147	-0,076
-180,285	800,000	0,018	0,039
-179,271	-17,990	-0,139	-0,063
-178,256	-131,356	-0,132	-0,013
-177,242	-119,703	-0,065	0,008
-176,227	-200,000	-0,002	0,069
-175,212	85,938	0,115	-0,092
-174,198	306,967	-0,063	-0,086
-173,183	-32,405	-0,015	0,006
-172,169	-57,047	-0,129	0,041
-171,154	-56,780	-0,078	0,025
-170,139	-60,250	-0,047	-0,015
-169,125	99,678	0,070	-0,059
-168,110	58,428	0,053	0,038
-167,096	429,422	-0,050	0,078
-166,081	-43,414	-0,052	-0,019
-165,066	179,180	-0,109	-0,117
-164,052	149,336	-0,131	-0,129
-163,037	271,532	-0,030	-0,039
-162,023	-96,615	-0,052	-0,010
-161,008	-10,419	0,063	-0,030
-159,993	17,639	0,015	0,008
-158,979	203,046	-0,034	0,038
-157,964	-200,000	-0,034	-0,113
-156,950	800,000	0,009	0,022
-155,935	61,933	0,050	0,036
-154,920	292,333	0,111	0,147
-153,906	-114,184	-0,074	0,010
-152,891	41,061	0,131	-0,086
-151,877	-160,677	-0,155	0,006
-150,862	634,479	-0,007	0,012
-149,847	185,737	-0,047	0,051
-148,833	-200,000	0,027	-0,150
-147,818	48,513	0,089	-0,061
-146,804	-200,000	-0,019	0,138
-145,789	290,204	0,060	0,079
-144,775	-107,956	0,023	0,004
-143,760	-81,900	0,036	0,009
-142,745	-200,000	-0,019	-0,141
-141,731	-200,000	-0,004	0,032
-140,716	-200,000	0,006	0,043
-139,702	-11,474	-0,087	0,042
-138,687	150,062	-0,079	-0,078
-137,672	800,000	-0,015	0,042
-136,658	454,779	0,046	-0,074
-135,643	-0,858	-0,022	0,011
-134,629	205,585	0,052	0,058
-133,614	-200,000	-0,015	-0,148
-132,599	207,182	0,084	-0,095
-131,585	800,000	-0,049	0,107
-130,570	-132,696	0,097	0,009
-129,556	82,077	-0,060	-0,047
-128,541	-200,000	0,005	-0,081
-127,526	-22,924	-0,137	0,060
-126,512	430,655	0,081	-0,128
-125,497	172,778	0,064	0,067
-124,483	-200,000	0,007	0,144
-123,468	800,000	0,013	0,039
-122,453	36,585	0,024	-0,015
-121,439	5,661	-0,047	0,025
-120,424	-200,000	0,001	-0,094
-119,410	100,746	-0,076	0,064
-118,395	241,832	0,045	-0,055
-117,380	430,030	0,033	0,052
-116,366	800,000	-0,025	0,066
-115,351	161,310	-0,067	-0,068
-114,337	12,073	-0,075	0,042
-113,322	-28,771	0,042	0,018
-112,307	-60,203	0,082	-0,025
-111,293	-200,000	-0,011	-0,035
-110,278	122,191	0,068	0,061
-109,264	-200,000	-0,007	0,088
-108,249	800,000	0,015	0,034
-107,234	281,133	0,078	-0,102
-106,220	-200,000	0,009	-0,055
-105,205	4,730	0,043	-0,023
-104,191	121,055	-0,027	-0,024
-103,176	332,481	0,102	0,143
-102,162	667,388	-0,027	0,051
-101,147	200,773	0,101	-0,113
-100,132	91,737	-0,070	-0,057
-99,118	9,918	-0,196	0,108
-98,103	212,519	-0,068	-0,078
-97,089	800,000	-0,028	-0,066
-96,074	800,000	0,040	0,107
-95,059	-200,000	-0,033	0,164
-94,045	-200,000	-0,059	0,193
-93,030	-99,694	0,102	-0,018
-92,016	187,671	-0,134	-0,145
-91,001	-84,185	0,089	-0,020
-89,986	-200,000	0,007	-0,109
-88,972	28,240	0,058	0,035
-87,957	515,348	0,040	0,068
-86,943	494,265	0,061	-0,102
-85,928	587,722	0,068	-0,123
-84,913	-82,950	-0,094	0,022
-83,899	283,989	0,054	0,070
-82,884	-139,164	0,096	-0,007
-81,870	105,661	-0,027	0,023
-80,855	124,821	-0,038	0,034
-79,840	-100,639	0,105	-0,019
-78,826	63,292	-0,068	-0,050
-77,811	800,000	-0,055	0,155
-76,797	-200,000	0,001	0,093
-75,782	-200,000	-0,008	0,135
-74,767	800,000	-0,035	-0,084
-73,753	172,378	0,031	0,032
-72,738	145,860	-0,017	-0,016
-71,724	157,574	-0,077	-0,077
-70,709	131,913	0,110	-0,103
-69,694	-200,000	0,023	-0,275
-68,680	774,154	-0,001	0,003
-67,665	800,000	0,062	0,178
-66,651	-200,000	-0,015	0,075
-65,636	-142,314	0,139	-0,010
-64,622	-200,000	0,015	0,143
-63,607	135,714	-0,027	0,026
-62,592	-173,446	0,013	-0,000
-61,578	-53,052	-0,019	-0,006
-60,563	800,000	0,066	0,164
-59,549	87,090	0,115	0,092
-58,534	-100,192	-1,492	-0,266
-57,519	516,292	-0,803	-1,365
-56,505	-200,000	-1,034	-4,599
-55,490	-70,511	0,482	-0,131
-54,476	800,000	4,980	11,840
-53,461	-200,000	14,588	259,551
-52,446	-200,000	696,478	2235,450
-51,432	565,355	1622,586	2859,449
-50,417	117,651	1630,129	1452,388
-49,403	74,663	1284,198	977,035
-48,388	37,437	1022,566	655,006
-47,373	23,207	981,859	582,196
-46,359	22,414	971,056	573,172
-45,344	21,324	966,604	566,965
-44,330	21,285	965,272	566,034
-43,315	21,139	963,674	564,599
-42,300	21,002	962,864	563,657
-41,286	21,120	961,781	563,383
-40,271	21,087	960,761	562,658
-39,257	21,081	959,835	562,074
-38,242	21,045	958,993	561,440
-37,227	21,075	958,080	560,980
-36,213	21,029	957,187	560,286
-35,198	21,012	956,223	559,644
-34,184	21,008	955,769	559,345
-33,169	20,990	954,651	558,609
-32,154	21,088	953,878	558,450
-31,140	21,063	953,030	557,852
-30,125	21,081	952,263	557,440
-29,111	21,107	951,368	556,977
-28,096	21,106	950,770	556,602
-27,082	21,058	950,149	556,062
-26,067	21,043	949,412	555,561
-25,052	21,096	948,499	555,175
-24,038	21,089	948,006	554,841
-23,023	21,050	947,244	554,249
-22,009	21,103	946,579	554,006
-20,994	21,088	945,958	553,572
-19,979	21,086	945,341	553,184
-18,965	21,042	944,967	552,803
-17,950	21,082	944,191	552,452
-16,936	21,038	943,404	551,831
-15,921	21,041	942,764	551,445
-14,906	21,002	941,930	550,810
-13,892	20,919	941,501	550,274
-12,877	20,908	940,906	549,872
-11,863	20,921	940,259	549,512
-10,848	20,971	939,844	549,407
-9,833	21,011	939,244	549,159
-8,819	21,034	938,771	548,933
-7,804	20,956	938,002	548,215
-6,790	20,942	937,438	547,820
-5,775	20,952	936,828	547,475
-4,760	20,929	936,170	546,995
-3,746	20,966	935,560	546,732
-2,731	20,855	934,739	545,881
-1,717	20,760	934,099	545,186
-0,702	20,787	933,515	544,909
0,313	20,521	932,945	544,563
1,327	23,645	930,887	553,120
2,342	32,927	794,069	496,470
3,356	30,531	450,570	278,080
4,371	0,125	294,341	151,282
5,386	-4,238	275,307	137,355
6,400	-5,534	269,775	133,379
7,415	-5,986	267,415	131,784
8,429	-5,730	266,172	131,394
9,444	-5,619	265,266	131,037
10,459	-5,794	264,674	130,573
11,473	-5,713	264,065	130,335
12,488	-5,743	263,545	130,040
13,502	-5,912	263,050	129,630
14,517	-5,964	262,771	129,434
15,531	-5,757	262,236	129,346
16,546	-5,636	261,819	129,238
17,561	-5,782	261,509	128,942
18,575	-5,587	261,100	128,904
19,590	-5,826	260,810	128,535
20,604	-5,701	260,584	128,524
21,619	-5,835	260,293	128,249
22,634	-5,617	259,752	128,166
23,648	-5,874	259,557	127,829
24,663	-5,805	259,382	127,793
25,677	-5,743	259,151	127,723
26,692	-5,852	258,871	127,476
27,707	-5,706	258,508	127,417
28,721	-6,120	258,377	126,972
29,736	-5,768	258,001	127,089
30,750	-5,885	257,715	126,833
31,765	-5,879	257,590	126,765
32,780	-5,958	257,481	126,630
33,794	-5,876	257,119	126,513
34,809	-5,706	256,804	126,497
35,823	-5,823	256,567	126,266
36,838	-5,849	256,350	126,125
37,853	-5,899	256,203	125,998
38,867	-6,088	256,016	125,728
39,882	-5,800	255,616	125,774
40,896	-5,884	255,539	125,650
41,911	-5,887	255,284	125,511
42,926	-5,990	255,069	125,304
43,940	-6,073	254,741	125,059
44,955	-5,947	254,562	125,070
45,969	-6,246	254,292	124,665
46,984	-6,190	254,063	124,590
47,999	-6,423	253,858	124,276
49,013	-6,550	253,563	124,010
50,028	-6,504	253,386	123,952
51,042	-6,703	253,096	123,627
52,057	-6,643	252,803	123,524
53,071	-6,728	252,660	123,369
54,086	-6,613	252,408	123,335
55,101	-6,503	252,266	123,350
56,115	-6,090	252,116	123,623
57,130	-5,961	252,047	123,690
58,144	-5,688	251,867	123,827
59,159	-5,769	251,735	123,680
60,174	-5,674	251,517	123,645
61,188	-5,781	251,180	123,375
62,203	-5,928	251,156	123,226
63,217	-5,831	250,771	123,109
64,232	-5,683	250,606	123,145
65,247	-5,653	250,348	123,033
66,261	-5,819	250,215	122,814
67,276	-5,685	249,813	122,720
68,290	-6,053	249,626	122,302
69,305	-6,276	249,454	122,017
70,320	-6,152	249,290	122,032
71,334	-5,782	249,017	122,203
72,349	-5,630	248,918	122,273
73,363	-5,659	248,855	122,207
74,378	-5,749	248,600	121,994
75,393	-5,832	248,402	121,815
76,407	-5,768	248,130	121,725
77,422	-5,838	248,036	121,609
78,436	-5,688	247,768	121,594
79,451	-5,834	247,638	121,396
80,466	-5,929	247,387	121,181
81,480	-6,162	247,107	120,836
82,495	-6,109	246,907	120,773
83,509	-5,889	246,776	120,884
84,524	-5,897	246,468	120,715
85,539	-6,190	246,338	120,394
86,553	-6,167	246,066	120,269
87,568	-6,236	245,890	120,115
88,582	-6,048	245,696	120,167
89,597	-6,127	245,588	120,038
90,611	-6,112	245,435	119,964
91,626	-6,016	245,346	119,990
92,641	-6,003	245,184	119,912
93,655	-5,968	245,044	119,862
94,670	-5,957	244,723	119,703
95,684	-5,766	244,469	119,728
96,699	-6,050	244,377	119,435
97,714	-5,986	244,110	119,347
98,728	-6,143	243,988	119,146
99,743	-6,196	243,776	118,987
100,757	-6,206	243,485	118,827
101,772	-6,217	243,273	118,704
102,787	-6,075	243,091	118,722
103,801	-6,017	242,949	118,690
104,816	-5,982	242,986	118,727
105,830	-5,818	242,856	118,789
106,845	-5,824	242,534	118,616
107,860	-5,769	242,392	118,581
108,874	-5,866	242,111	118,353
109,889	-6,119	241,933	118,047
110,903	-6,066	241,772	118,001
111,918	-6,135	241,527	117,814
112,933	-5,874	241,391	117,952
113,947	-5,963	241,315	117,832
114,962	-5,802	241,136	117,866
115,976	-5,852	240,984	117,740
116,991	-5,842	240,672	117,585
118,006	-6,077	240,667	117,380
119,020	-5,885	240,426	117,409
120,035	-5,913	240,384	117,354
121,049	-5,828	240,217	117,333
122,064	-6,021	240,043	117,079
123,079	-5,975	239,779	116,977
124,093	-5,939	239,493	116,857
125,108	-6,206	239,241	116,506
126,122	-6,252	239,199	116,438
127,137	-6,369	238,940	116,205
128,151	-6,263	238,740	116,184
129,166	-5,976	238,486	116,284
130,181	-6,028	238,318	116,149
131,195	-6,079	238,231	116,054
132,210	-6,144	238,083	115,919
133,224	-5,901	237,943	116,038
134,239	-5,914	237,844	115,969
135,254	-5,887	237,744	115,932
136,268	-6,041	237,348	115,604
137,283	-6,148	237,233	115,452
138,297	-6,481	236,875	114,998
139,312	-6,364	236,759	115,026
140,327	-5,944	236,562	115,258
141,341	-5,537	236,634	115,611
142,356	-5,656	236,536	115,457
143,370	-5,530	236,289	115,427
144,385	-5,694	236,296	115,289
145,400	-5,599	235,916	115,169
146,414	-5,584	235,781	115,105
147,429	-5,646	235,536	114,926
148,443	-5,649	235,382	114,837
149,458	-5,456	235,165	114,876
150,473	-5,597	235,061	114,702
151,487	-5,426	234,814	114,708
152,502	-5,680	234,760	114,469
153,516	-5,612	234,693	114,480
154,531	-5,522	234,440	114,418
155,546	-5,657	234,333	114,248
156,560	-5,734	234,078	114,052
157,575	-5,905	233,838	113,789
158,589	-5,753	233,752	113,858
159,604	-5,456	233,592	114,006
160,619	-5,579	233,470	113,839
161,633	-5,484	233,380	113,860
162,648	-5,569	233,303	113,744
163,662	-5,577	233,012	113,586
164,677	-5,527	232,678	113,452
165,692	-5,569	232,647	113,395
166,706	-5,657	232,672	113,327
167,721	-5,305	232,466	113,495
168,735	-5,272	232,059	113,312
169,750	-5,549	232,161	113,133
170,764	-5,758	231,945	112,853
171,779	-5,421	231,796	113,036
172,794	-5,578	231,725	112,867
173,808	-5,561	231,436	112,731
174,823	-6,156	231,061	112,070
175,837	-6,287	231,057	111,956
176,852	-5,788	230,909	112,265
177,867	-5,460	230,781	112,450
178,881	-5,697	230,615	112,174
179,896	-5,366	230,434	112,335
180,910	-5,546	230,533	112,231
181,925	-5,696	230,253	111,969
182,940	-5,512	230,096	112,026
183,954	-5,498	229,933	111,947
184,969	-5,267	229,669	111,988
185,983	-5,395	229,623	111,856
186,998	-5,284	229,583	111,913
188,013	-5,422	229,368	111,691
189,027	-5,336	229,238	111,685
190,042	-5,433	229,145	111,554
191,056	-5,542	228,963	111,372
192,071	-5,407	228,772	111,373
193,086	-5,505	228,688	111,246
194,100	-5,634	228,475	111,033
195,115	-5,686	227,939	110,722
196,129	-6,525	227,710	109,953
197,144	-3,610	228,604	112,633
198,159	1,029	230,008	116,921
199,173	3,742	230,675	119,361
200,188	4,115	230,606	119,604
201,202	4,022	230,427	119,428
202,217	4,088	230,328	119,417
203,232	4,276	230,214	119,493
204,246	4,298	230,003	119,390
205,261	4,272	229,864	119,288
206,275	4,399	229,908	119,398
207,290	4,498	229,765	119,390
208,304	4,312	229,470	119,082
209,319	4,747	229,257	119,296
210,334	4,508	229,252	119,099
211,348	4,314	228,884	118,748
212,363	3,745	228,689	118,198
213,377	3,383	228,465	117,794
214,392	3,831	228,363	118,074
215,407	3,898	228,158	118,009
216,421	3,667	228,072	117,777
217,436	3,665	227,846	117,648
218,450	3,212	227,721	117,226
219,465	3,551	227,399	117,310
220,480	3,372	227,386	117,155
221,494	3,509	227,241	117,175
222,509	3,785	227,156	117,331
223,523	3,521	226,965	117,021
224,538	3,742	226,768	117,078
225,553	3,494	226,672	116,829
226,567	3,817	226,666	117,061
227,582	3,901	226,484	117,021
228,596	4,037	226,408	117,074
229,611	4,029	226,061	116,878
230,626	3,454	225,883	116,339
231,640	3,533	225,794	116,343
232,655	3,815	225,727	116,512
233,669	4,032	225,744	116,675
234,684	4,482	225,647	116,955
235,699	3,851	225,381	116,329
236,713	3,573	225,182	116,006
237,728	3,715	224,901	115,959
238,742	3,703	224,629	115,798
239,757	3,625	224,618	115,724
240,772	3,700	224,467	115,693
241,786	3,888	224,178	115,674
242,801	3,768	224,243	115,608
243,815	4,035	224,142	115,746
244,830	3,963	224,069	115,644
245,844	3,928	223,697	115,415
246,859	3,608	223,664	115,148
247,874	4,091	223,413	115,371
248,888	3,898	223,408	115,213
249,903	3,596	223,250	114,895
250,917	3,696	223,073	114,868
251,932	3,695	222,831	114,733
252,947	3,516	222,759	114,551
253,961	3,694	222,481	114,531
254,976	3,553	222,372	114,360
255,990	3,812	222,405	114,560
257,005	3,836	222,290	114,509
258,020	3,767	222,134	114,367
259,034	4,137	222,045	114,586
260,049	4,048	221,960	114,465
261,063	4,064	221,578	114,270
262,078	4,101	221,548	114,271
263,093	3,870	221,539	114,086
264,107	3,706	221,397	113,881
265,122	3,949	221,082	113,889
266,136	4,123	220,983	113,956
267,151	4,003	220,852	113,789
268,166	3,752	220,617	113,473
269,180	3,272	220,361	112,977
270,195	3,519	220,338	113,137
271,209	3,732	220,069	113,146
272,224	3,627	220,087	113,068
273,239	3,783	219,949	113,102
274,253	3,629	219,623	112,810
275,268	3,606	219,445	112,692
276,282	3,523	219,185	112,488
277,297	3,276	219,274	112,342
278,312	3,456	219,080	112,365
279,326	3,671	219,038	112,490
280,341	3,658	218,821	112,360
281,355	3,970	218,623	112,476
282,370	3,612	218,509	112,146
283,384	3,365	218,379	111,888
284,399	3,275	218,298	111,772
285,414	3,696	217,936	111,883
286,428	3,624	218,169	111,940
287,443	3,801	217,867	111,904
288,457	3,897	217,805	111,932
289,472	3,733	217,631	111,714
290,487	3,034	217,334	111,044
291,501	3,190	217,154	111,055
292,516	3,451	217,108	111,211
293,530	3,277	217,049	111,044
294,545	3,261	216,980	110,988
295,560	3,375	216,776	110,956
296,574	3,535	216,684	111,015
297,589	3,634	216,481	110,972
298,603	3,824	216,411	111,064
299,618	3,730	216,261	110,909
300,633	3,589	216,157	110,744
301,647	3,743	216,036	110,783
302,662	3,947	215,834	110,817
303,676	3,982	215,764	110,797
304,691	3,912	215,683	110,694
305,706	3,997	215,557	110,681
306,720	4,110	215,237	110,588
307,735	3,725	215,113	110,238
308,749	3,634	214,818	110,012
309,764	3,810	214,908	110,174
310,779	3,805	214,974	110,195
311,793	3,957	214,592	110,098
312,808	3,766	214,530	109,920
313,822	3,627	214,355	109,721
314,837	3,684	214,098	109,620
315,852	3,565	214,019	109,485
316,866	3,625	213,850	109,432
317,881	3,987	213,755	109,631
318,895	3,997	213,635	109,567
319,910	3,537	213,484	109,152
320,925	3,375	213,375	108,971
321,939	3,157	213,012	108,622
322,954	3,270	212,922	108,646
323,968	3,643	212,978	108,930
324,983	3,882	212,861	109,030
325,997	3,892	212,749	108,970
327,012	3,665	212,541	108,693
328,027	3,828	212,377	108,715
329,041	3,971	212,436	108,836
330,056	4,054	212,476	108,906
331,070	3,694	211,966	108,381
332,085	3,117	211,854	107,907
333,100	3,744	211,739	108,281
334,114	3,781	211,721	108,288
335,129	3,753	211,419	108,104
336,143	3,610	211,383	107,975
337,158	3,825	211,141	107,993
338,173	3,705	211,020	107,838
339,187	3,528	210,772	107,577
340,202	3,330	210,766	107,426
341,216	3,207	210,562	107,225
342,231	3,573	210,343	107,361
343,246	3,314	210,428	107,213
344,260	3,279	210,357	107,143
345,275	3,473	210,118	107,147
346,289	3,701	210,011	107,243
347,304	3,583	209,917	107,102
348,319	3,709	209,776	107,109
349,333	3,840	209,538	107,069
350,348	3,535	209,545	106,851
351,362	3,739	209,431	106,925
352,377	3,919	209,152	106,898
353,392	3,793	209,025	106,736
354,406	3,680	208,993	106,632
355,421	194,562	1343,904	1431,192
356,435	155,288	1482,256	1431,277
