DTS Sentinel unit serial number:	SN410029Multiplexer serial number:	ORYXHardware model number:	OX2-SRSoftware version number:	ORYX F/W v4,00 Oryx Data Collector v3.7.2.0data status	okinstallation	B6 Nyhavnadifferential loss correction	single-endedforward channel	channel 2reverse channel	N/Adate	2023/12/09time	21:40:08forward acquisition time	300,00reverse acquisition time	0,00gamma	499,1914k internal	0,3127k external	0,3127temperature offset calibration	1,0000default loss term (dB/km)	0,3820temperature slope calibration	1,0000multiplexer offset coefficient	1,0000multiplexer slope coefficient	1,0000fibre end	0,00T internal ref (°C)	21,58T ext. ref 1 (°C)	5,43T ext. ref 2 (°C)	5,43length (m)	temperature (°C)	Stokes	anti-Stokes-744,400	167,310	0,123	-0,130
-743,385	-104,871	-0,238	0,040
-742,371	-114,253	-0,077	-0,011
-741,356	95,272	-0,224	0,190
-740,342	800,000	-0,046	0,104
-739,327	-167,572	-0,246	0,007
-738,312	87,990	-0,097	-0,080
-737,298	189,223	-0,134	0,150
-736,283	800,000	0,051	0,117
-735,269	111,942	-0,211	0,190
-734,254	6,335	0,042	-0,023
-733,239	-109,723	-0,360	0,056
-732,225	58,549	0,114	0,083
-731,210	15,285	-0,116	-0,068
-730,196	217,694	-0,034	0,040
-729,181	-41,178	-0,097	-0,037
-728,167	-200,000	-0,012	-0,046
-727,152	800,000	0,039	0,081
-726,137	77,994	-0,095	-0,075
-725,123	800,000	-0,024	0,070
-724,108	-146,694	-0,160	0,010
-723,094	-200,000	0,024	-0,210
-722,079	187,196	0,045	-0,049
-721,064	-200,000	-0,000	-0,005
-720,050	33,792	-0,112	-0,072
-719,035	132,075	-0,077	-0,074
-718,021	-200,000	0,006	-0,036
-717,006	-93,024	-0,247	-0,051
-715,991	482,177	-0,044	0,074
-714,977	800,000	0,063	-0,147
-713,962	-161,569	-0,072	-0,003
-712,948	-73,054	0,049	0,013
-711,933	-103,103	-0,228	0,040
-710,918	79,968	-0,081	0,064
-709,904	-101,911	-0,104	-0,018
-708,889	-43,516	-0,056	0,021
-707,875	-154,569	-0,077	0,004
-706,860	609,079	0,032	0,060
-705,845	-145,420	-0,098	-0,006
-704,831	-200,000	-0,006	-0,026
-703,816	-200,000	-0,002	0,031
-702,802	-4,820	0,131	-0,067
-701,787	-178,703	-0,110	0,002
-700,772	-200,000	-0,027	-0,180
-699,758	800,000	-0,025	0,055
-698,743	249,404	0,026	-0,033
-697,729	175,072	0,073	-0,079
-696,714	-44,027	0,059	0,022
-695,699	776,451	-0,050	-0,101
-694,685	-105,054	-0,074	0,012
-693,670	-128,882	-0,017	0,002
-692,656	-42,439	-0,085	0,032
-691,641	91,460	0,021	0,017
-690,627	-17,868	0,061	0,029
-689,612	119,194	-0,110	0,101
-688,597	800,000	-0,054	-0,154
-687,583	-155,348	-0,064	-0,003
-686,568	21,074	0,025	0,015
-685,554	-200,000	-0,019	-0,173
-684,539	-20,617	-0,088	0,040
-683,524	30,393	-0,050	-0,032
-682,510	-200,000	-0,023	0,114
-681,495	552,214	-0,117	-0,209
-680,481	138,228	-0,173	-0,169
-679,466	800,000	-0,021	-0,045
-678,451	375,132	-0,058	-0,088
-677,437	800,000	-0,034	0,077
-676,422	97,220	-0,046	0,039
-675,408	52,054	-0,039	-0,028
-674,393	191,731	0,008	0,009
-673,378	-63,119	0,131	-0,040
-672,364	138,405	-0,123	-0,120
-671,349	-200,000	0,007	-0,026
-670,335	75,680	0,087	0,068
-669,320	538,211	0,041	-0,073
-668,305	566,632	-0,021	-0,038
-667,291	184,087	0,042	0,046
-666,276	-176,146	-0,157	-0,003
-665,262	-200,000	0,013	-0,203
-664,247	-200,000	0,012	-0,074
-663,232	800,000	-0,037	-0,107
-662,218	68,974	-0,107	0,081
-661,203	-200,000	0,026	0,108
-660,189	-43,040	-0,046	-0,017
-659,174	-87,878	-0,025	0,006
-658,159	-55,615	-0,067	0,022
-657,145	52,321	-0,066	-0,046
-656,130	64,966	0,120	0,090
-655,116	-19,385	0,024	0,011
-654,101	-200,000	0,002	-0,031
-653,086	800,000	-0,010	0,031
-652,072	-147,644	-0,125	0,008
-651,057	-200,000	0,001	-0,101
-650,043	-112,996	-0,044	-0,006
-649,028	133,767	-0,097	0,093
-648,014	-200,000	-0,008	0,053
-646,999	-109,811	0,089	0,014
-645,984	47,992	0,019	-0,013
-644,970	-28,245	-0,083	0,035
-643,955	77,386	-0,099	-0,078
-642,941	730,032	0,080	-0,160
-641,926	19,592	-0,123	-0,073
-640,911	-88,648	-0,073	0,016
-639,897	258,631	-0,056	0,072
-638,882	109,310	0,105	0,093
-637,868	98,170	-0,142	-0,121
-636,853	800,000	-0,089	-0,182
-635,838	457,833	-0,053	-0,087
-634,824	97,735	0,019	-0,016
-633,809	-133,925	-0,091	0,008
-632,795	800,000	0,015	-0,045
-631,780	-200,000	-0,003	0,122
-630,765	10,940	-0,088	0,050
-629,751	-200,000	-0,011	-0,121
-628,736	-200,000	0,003	-0,014
-627,722	529,253	0,044	0,077
-626,707	-103,554	-0,160	-0,028
-625,692	363,399	-0,020	0,031
-624,678	37,789	-0,093	-0,061
-623,663	-114,935	-0,095	0,013
-622,649	-200,000	0,005	0,061
-621,634	-125,687	-0,085	0,009
-620,619	518,698	0,081	-0,141
-619,605	-200,000	0,035	-0,168
-618,590	121,070	-0,135	0,125
-617,576	-119,089	0,105	0,013
-616,561	-200,000	0,020	-0,231
-615,546	-53,706	-0,112	0,037
-614,532	-200,000	-0,001	-0,055
-613,517	303,742	-0,037	-0,051
-612,503	-200,000	0,020	-0,078
-611,488	800,000	-0,030	0,095
-610,474	462,715	0,043	0,071
-609,459	-200,000	0,003	0,064
-608,444	-72,550	-0,092	0,025
-607,430	370,100	-0,074	0,111
-606,415	-138,931	-0,082	-0,006
-605,401	-67,454	0,088	-0,025
-604,386	156,230	-0,060	0,062
-603,371	-200,000	-0,010	-0,088
-602,357	568,985	-0,048	0,087
-601,342	-13,471	-0,104	-0,050
-600,328	-200,000	0,022	-0,173
-599,313	23,007	0,087	-0,053
-598,298	-40,181	-0,087	0,033
-597,284	272,077	-0,091	-0,120
-596,269	219,551	-0,085	0,101
-595,255	-200,000	0,006	-0,089
-594,240	-200,000	-0,003	-0,070
-593,225	-158,838	-0,195	-0,008
-592,211	-9,705	-0,151	-0,074
-591,196	380,143	-0,013	-0,020
-590,182	-200,000	0,028	0,185
-589,167	27,886	-0,056	0,035
-588,152	29,845	-0,013	-0,008
-587,138	-116,143	-0,080	0,011
-586,123	-137,984	0,061	-0,005
-585,109	800,000	-0,024	-0,062
-584,094	800,000	0,031	-0,074
-583,079	800,000	-0,043	-0,114
-582,065	-129,350	-0,131	-0,013
-581,050	501,689	0,059	-0,101
-580,036	-200,000	-0,021	0,077
-579,021	-200,000	-0,005	-0,040
-578,006	153,676	-0,088	-0,090
-576,992	241,578	0,034	-0,042
-575,977	800,000	-0,013	0,030
-574,963	51,088	0,096	0,067
-573,948	-38,713	-0,084	0,033
-572,934	92,476	0,054	0,045
-571,919	226,574	0,125	-0,150
-570,904	-182,997	-0,090	-0,001
-569,890	800,000	-0,045	-0,111
-568,875	-30,193	-0,039	-0,016
-567,861	-200,000	0,007	0,139
-566,846	-200,000	-0,055	0,211
-565,831	-200,000	-0,024	0,142
-564,817	-127,700	-0,094	0,010
-563,802	20,428	-0,090	-0,053
-562,788	315,259	0,089	-0,125
-561,773	196,468	-0,054	0,061
-560,758	233,170	0,057	-0,069
-559,744	550,737	0,055	-0,097
-558,729	247,917	-0,076	0,095
-557,715	-105,781	-0,042	-0,007
-556,700	-69,867	-0,106	-0,030
-555,685	-79,951	-0,141	-0,035
-554,671	-200,000	-0,004	-0,083
-553,656	-124,750	-0,039	0,004
-552,642	-3,123	0,087	0,045
-551,627	800,000	0,012	0,029
-550,612	-200,000	-0,024	-0,130
-549,598	-80,609	-0,068	0,017
-548,583	800,000	0,063	-0,163
-547,569	-200,000	-0,009	-0,074
-546,554	454,097	0,045	-0,073
-545,539	-56,812	0,081	0,026
-544,525	411,043	-0,011	0,017
-543,510	130,876	0,088	0,084
-542,496	-102,567	0,114	0,020
-541,481	-200,000	0,015	-0,080
-540,466	-200,000	-0,012	0,107
-539,452	-66,776	0,052	-0,015
-538,437	474,847	0,053	-0,089
-537,423	-200,000	-0,018	0,080
-536,408	333,000	-0,053	-0,076
-535,393	244,139	0,052	-0,065
-534,379	153,411	-0,056	-0,057
-533,364	-27,998	-0,046	-0,020
-532,350	-113,629	-0,042	-0,006
-531,335	351,298	0,041	-0,061
-530,321	415,664	0,051	-0,081
-529,306	300,023	-0,024	-0,033
-528,291	329,805	-0,082	-0,117
-527,277	-200,000	-0,015	-0,108
-526,262	800,000	0,057	-0,179
-525,248	-69,948	-0,014	-0,004
-524,233	-31,352	-0,114	-0,047
-523,218	-79,799	-0,071	-0,018
-522,204	800,000	-0,025	0,080
-521,189	2,842	-0,130	-0,069
-520,175	-200,000	0,004	-0,039
-519,160	-75,920	0,065	0,017
-518,145	800,000	-0,028	0,076
-517,131	800,000	0,069	0,149
-516,116	270,006	-0,022	0,029
-515,102	196,040	0,037	0,041
-514,087	109,111	-0,092	-0,081
-513,072	337,844	-0,021	0,030
-512,058	-126,761	0,030	0,003
-511,043	-200,000	-0,011	0,074
-510,029	15,089	-0,076	0,044
-509,014	-53,319	-0,127	0,043
-507,999	-129,168	0,110	-0,011
-506,985	-188,814	-0,073	0,001
-505,970	305,812	0,058	0,080
-504,956	-198,332	-0,103	0,000
-503,941	57,599	0,069	0,050
-502,926	140,982	0,047	0,045
-501,912	-140,187	0,107	0,008
-500,897	-200,000	-0,021	-0,119
-499,883	55,169	0,042	-0,030
-498,868	800,000	-0,025	-0,066
-497,853	221,300	-0,090	-0,107
-496,839	-200,000	-0,003	-0,112
-495,824	-8,427	0,106	-0,052
-494,810	-200,000	-0,002	0,110
-493,795	276,611	0,036	0,048
-492,781	148,319	0,088	-0,088
-491,766	-22,989	0,018	0,008
-490,751	262,271	-0,097	0,124
-489,737	-100,008	-0,050	-0,009
-488,722	48,155	-0,036	0,025
-487,708	239,867	0,133	0,163
-486,693	145,502	0,057	0,057
-485,678	111,770	0,059	0,052
-484,664	-40,419	0,115	-0,044
-483,649	-140,052	-0,120	-0,009
-482,635	-114,273	-0,101	-0,014
-481,620	800,000	-0,066	0,191
-480,605	800,000	0,073	0,161
-479,591	162,621	-0,095	0,098
-478,576	800,000	-0,008	-0,016
-477,562	-26,536	0,051	0,022
-476,547	800,000	0,006	0,015
-475,532	-200,000	-0,026	-0,157
-474,518	-116,141	0,053	0,007
-473,503	-200,000	-0,040	0,159
-472,489	-200,000	0,015	0,241
-471,474	65,518	-0,110	-0,082
-470,459	-14,286	0,066	-0,031
-469,445	-200,000	-0,010	0,045
-468,430	-25,524	0,071	-0,031
-467,416	-200,000	-0,006	-0,076
-466,401	121,884	0,041	-0,037
-465,386	48,655	-0,098	0,067
-464,372	-200,000	-0,006	0,074
-463,357	-14,388	-0,078	0,037
-462,343	-200,000	0,001	-0,072
-461,328	-91,936	-0,084	0,017
-460,313	196,143	0,076	0,085
-459,299	-109,843	0,090	0,014
-458,284	-200,000	-0,014	-0,066
-457,270	-156,359	0,103	0,005
-456,255	800,000	0,031	0,091
-455,241	800,000	0,026	0,076
-454,226	-200,000	-0,002	-0,073
-453,211	194,992	0,138	-0,155
-452,197	-200,000	-0,018	-0,062
-451,182	84,542	0,045	-0,036
-450,168	-122,805	-0,039	0,005
-449,153	209,688	0,076	0,088
-448,138	41,406	-0,051	-0,034
-447,124	-200,000	-0,021	-0,098
-446,109	-200,000	-0,020	-0,089
-445,095	301,951	0,068	0,092
-444,080	-39,946	-0,021	0,008
-443,065	-35,584	0,155	-0,061
-442,051	-200,000	-0,014	-0,062
-441,036	76,062	0,021	-0,016
-440,022	627,028	0,040	0,075
-439,007	-115,120	-0,050	0,007
-437,992	38,040	-0,085	0,056
-436,978	95,366	0,071	0,059
-435,963	-200,000	0,029	0,108
-434,949	800,000	-0,041	0,092
-433,934	800,000	0,042	-0,104
-432,919	179,886	0,022	-0,024
-431,905	199,839	0,026	-0,030
-430,890	15,239	-0,064	0,037
-429,876	-98,950	0,098	-0,018
-428,861	-200,000	-0,006	0,038
-427,846	-16,176	-0,015	0,007
-426,832	-128,439	-0,087	0,009
-425,817	-83,330	-0,181	0,042
-424,803	88,444	-0,088	0,072
-423,788	-21,984	0,124	0,055
-422,773	128,891	-0,030	0,028
-421,759	-102,757	0,093	-0,016
-420,744	116,105	-0,078	-0,070
-419,730	-59,953	0,129	0,040
-418,715	800,000	-0,024	-0,058
-417,701	-200,000	0,002	0,086
-416,686	-178,442	-0,063	-0,001
-415,671	-50,219	0,140	0,048
-414,657	207,830	0,045	0,051
-413,642	800,000	-0,031	-0,087
-412,628	-36,769	-0,052	-0,021
-411,613	604,463	-0,008	-0,015
-410,598	800,000	-0,041	0,118
-409,584	-63,741	0,128	0,038
-408,569	-8,057	0,083	-0,041
-407,555	-200,000	0,018	0,249
-406,540	676,400	-0,053	0,101
-405,525	-200,000	-0,028	-0,175
-404,511	54,238	-0,082	0,058
-403,496	800,000	0,044	-0,132
-402,482	-127,042	-0,039	-0,004
-401,467	160,651	0,076	0,078
-400,452	177,540	-0,048	0,051
-399,438	476,312	-0,097	-0,161
-398,423	-57,185	0,126	0,040
-397,409	-11,370	0,063	-0,030
-396,394	-79,607	0,082	-0,020
-395,379	147,478	0,057	-0,056
-394,365	-21,145	0,114	0,051
-393,350	82,576	-0,046	0,036
-392,336	-200,000	0,040	0,185
-391,321	-55,138	-0,137	0,045
-390,306	-28,600	-0,266	0,112
-389,292	-200,000	-0,002	0,021
-388,277	33,504	0,040	0,026
-387,263	-40,052	-0,026	-0,010
-386,248	49,097	-0,066	0,046
-385,233	-70,462	0,015	-0,004
-384,219	-112,700	-0,044	-0,006
-383,204	88,769	-0,076	-0,062
-382,190	-101,953	-0,055	0,010
-381,175	789,417	0,042	-0,085
-380,160	502,100	0,012	-0,020
-379,146	63,415	-0,094	0,069
-378,131	800,000	-0,025	-0,074
-377,117	235,695	0,034	0,042
-376,102	183,868	-0,052	-0,057
-375,088	166,563	0,054	0,056
-374,073	11,017	0,035	0,019
-373,058	800,000	-0,022	0,062
-372,044	-200,000	-0,037	0,176
-371,029	-200,000	-0,011	0,059
-370,015	43,939	0,102	-0,068
-369,000	148,244	0,040	-0,040
-367,985	800,000	-0,059	-0,149
-366,971	-200,000	-0,016	-0,091
-365,956	-200,000	0,006	0,080
-364,942	56,718	0,120	0,086
-363,927	191,162	-0,068	-0,075
-362,912	-200,000	0,014	-0,064
-361,898	800,000	0,003	0,008
-360,883	-141,533	0,127	-0,009
-359,869	69,302	-0,044	0,033
-358,854	255,365	0,035	-0,044
-357,839	-200,000	0,000	-0,011
-356,825	24,456	0,059	-0,036
-355,810	66,087	0,069	-0,051
-354,796	35,787	-0,048	-0,031
-353,781	-78,140	-0,104	-0,026
-352,766	-200,000	0,010	-0,065
-351,752	800,000	0,031	0,090
-350,737	372,026	0,026	-0,039
-349,723	-200,000	-0,004	-0,049
-348,708	530,116	-0,013	-0,022
-347,693	-99,822	0,044	0,008
-346,679	400,131	-0,046	-0,071
-345,664	-166,470	-0,103	-0,003
-344,650	16,270	0,100	-0,058
-343,635	139,653	0,093	-0,090
-342,620	800,000	0,037	0,078
-341,606	800,000	0,016	-0,035
-340,591	105,741	0,080	-0,069
-339,577	-200,000	0,032	0,105
-338,562	21,540	0,118	-0,070
-337,548	309,587	-0,026	-0,036
-336,533	-200,000	-0,019	-0,105
-335,518	-45,442	0,034	0,012
-334,504	359,667	0,021	0,031
-333,489	-119,181	-0,053	0,007
-332,475	622,148	-0,073	-0,135
-331,460	800,000	0,029	-0,062
-330,445	29,597	0,103	-0,064
-329,431	-70,576	-0,085	0,023
-328,416	-143,065	0,087	-0,006
-327,402	-102,251	0,164	0,029
-326,387	-110,785	-0,061	-0,009
-325,372	-200,000	-0,003	-0,081
-324,358	-200,000	-0,007	-0,034
-323,343	800,000	0,009	0,019
-322,329	442,462	-0,037	0,060
-321,314	235,350	0,035	-0,042
-320,299	47,811	0,020	0,014
-319,285	389,168	0,096	-0,146
-318,270	30,300	0,039	0,024
-317,256	-200,000	-0,011	-0,063
-316,241	-200,000	-0,008	-0,238
-315,226	8,408	-0,058	-0,032
-314,212	-40,818	0,073	-0,028
-313,197	-200,000	-0,025	0,086
-312,183	218,241	0,133	0,156
-311,168	571,082	0,035	-0,063
-310,153	800,000	-0,107	-0,232
-309,139	710,242	-0,041	-0,079
-308,124	-7,027	0,041	0,020
-307,110	103,874	0,122	0,105
-306,095	-103,700	0,097	-0,016
-305,080	398,804	0,036	0,055
-304,066	-200,000	0,023	0,086
-303,051	-39,252	0,060	-0,023
-302,037	-87,623	-0,076	-0,017
-301,022	141,505	0,134	0,130
-300,008	-119,700	0,114	0,014
-298,993	-115,038	0,124	0,017
-297,978	-200,000	0,001	0,083
-296,964	294,823	0,075	-0,101
-295,949	290,620	-0,039	-0,052
-294,935	225,417	-0,019	-0,022
-293,920	-36,457	0,036	0,014
-292,905	168,350	-0,018	-0,019
-291,891	38,715	0,058	0,038
-290,876	-92,401	0,123	0,025
-289,862	196,766	0,046	-0,051
-288,847	-55,968	0,060	-0,020
-287,832	-200,000	-0,014	0,083
-286,818	-200,000	0,011	0,109
-285,803	383,032	0,065	-0,098
-284,789	-69,597	0,246	-0,068
-283,774	-82,571	-0,093	0,022
-282,759	582,399	-0,058	-0,105
-281,745	57,028	-0,234	-0,166
-280,730	-67,629	-0,081	-0,023
-279,716	203,457	0,050	-0,057
-278,701	105,125	-0,040	0,034
-277,686	-6,369	0,076	-0,038
-276,672	800,000	0,043	-0,135
-275,657	-200,000	-0,011	0,071
-274,643	-11,399	-0,073	0,035
-273,628	599,920	-0,035	-0,064
-272,613	51,875	-0,015	-0,011
-271,599	198,162	0,076	-0,085
-270,584	46,218	0,074	0,050
-269,570	-49,892	-0,032	0,011
-268,555	257,775	-0,082	0,103
-267,540	36,505	0,017	0,011
-266,526	220,184	0,047	0,055
-265,511	391,523	-0,030	-0,046
-264,497	210,552	-0,053	0,061
-263,482	-200,000	0,009	0,130
-262,467	201,411	0,021	-0,023
-261,453	34,849	-0,122	-0,078
-260,438	-200,000	0,014	-0,050
-259,424	210,266	-0,099	0,114
-258,409	-200,000	-0,032	0,115
-257,395	800,000	-0,039	0,110
-256,380	193,473	-0,060	-0,066
-255,365	-200,000	-0,029	0,102
-254,351	-87,632	0,087	0,019
-253,336	-200,000	-0,021	0,111
-252,322	-200,000	-0,032	-0,174
-251,307	-200,000	-0,015	0,111
-250,292	216,195	0,108	0,126
-249,278	-200,000	0,028	0,099
-248,263	800,000	0,072	0,172
-247,249	-90,823	-0,156	0,032
-246,234	800,000	-0,012	0,030
-245,219	527,413	-0,012	-0,020
-244,205	-120,950	-0,095	-0,012
-243,190	596,556	-0,021	0,037
-242,176	800,000	-0,027	-0,084
-241,161	-28,713	0,034	0,014
-240,146	-21,669	-0,110	0,049
-239,132	-47,067	-0,077	-0,027
-238,117	-200,000	0,019	-0,123
-237,103	136,795	-0,013	0,012
-236,088	-72,703	0,077	-0,020
-235,073	-144,735	0,149	0,010
-234,059	-91,596	0,121	-0,025
-233,044	-200,000	0,020	0,219
-232,030	-200,000	-0,012	0,104
-231,015	181,420	-0,059	-0,063
-230,000	-200,000	0,042	-0,144
-228,986	729,476	0,033	-0,065
-227,971	-29,689	0,049	0,020
-226,957	59,020	0,050	0,036
-225,942	-23,072	0,053	0,023
-224,927	279,068	-0,091	0,119
-223,913	53,293	0,141	0,099
-222,898	-200,000	0,020	0,071
-221,884	45,586	0,085	0,057
-220,869	-200,000	0,021	0,148
-219,855	-200,000	-0,021	-0,081
-218,840	291,610	0,119	0,159
-217,825	232,625	0,037	0,045
-216,811	7,551	0,084	-0,046
-215,796	-64,511	-0,019	0,006
-214,782	-131,403	-0,027	0,003
-213,767	96,011	0,015	-0,012
-212,752	-111,164	0,048	-0,007
-211,738	-109,897	0,148	-0,022
-210,723	113,769	0,015	0,013
-209,709	717,983	-0,059	0,116
-208,694	759,808	-0,044	-0,088
-207,679	-83,044	0,145	0,034
-206,665	-49,053	-0,047	-0,016
-205,650	-29,776	0,163	-0,067
-204,636	-200,000	-0,020	0,099
-203,621	81,612	0,027	0,021
-202,606	-28,747	0,017	-0,007
-201,592	800,000	-0,020	-0,057
-200,577	289,575	-0,058	-0,077
-199,563	-200,000	0,054	0,175
-198,548	132,457	0,091	-0,085
-197,533	-23,166	0,039	0,017
-196,519	-200,000	0,000	0,041
-195,504	-200,000	0,045	-0,154
-194,490	800,000	0,051	-0,108
-193,475	207,938	0,132	-0,150
-192,460	-200,000	0,010	-0,048
-191,446	-200,000	-0,009	0,075
-190,431	497,350	-0,074	0,124
-189,417	-143,395	0,125	-0,009
-188,402	309,766	0,054	-0,074
-187,387	55,413	0,029	-0,021
-186,373	132,973	-0,048	-0,045
-185,358	-200,000	0,000	0,040
-184,344	217,708	0,035	0,041
-183,329	-175,148	-0,149	0,003
-182,315	-135,802	0,097	0,008
-181,300	2,909	-0,125	0,066
-180,285	183,959	-0,036	-0,039
-179,271	-94,566	-0,196	-0,038
-178,256	-136,401	-0,074	0,006
-177,242	-126,289	0,103	0,011
-176,227	-200,000	0,039	0,149
-175,212	800,000	-0,072	0,148
-174,198	-200,000	-0,001	0,009
-173,183	-200,000	0,014	0,058
-172,169	-111,160	0,067	0,010
-171,154	-47,960	0,027	0,009
-170,139	419,488	-0,008	-0,013
-169,125	-69,697	-0,073	0,020
-168,110	433,612	-0,035	0,055
-167,096	-5,434	-0,084	0,042
-166,081	-86,252	-0,144	-0,032
-165,066	232,798	-0,039	-0,046
-164,052	-68,290	-0,054	0,015
-163,037	346,715	-0,055	-0,080
-162,023	98,094	0,144	0,120
-161,008	146,171	0,057	0,055
-159,993	-141,945	0,101	-0,007
-158,979	-200,000	0,006	0,078
-157,964	-115,032	-0,058	-0,008
-156,950	787,571	0,026	0,052
-155,935	-121,394	0,105	0,013
-154,920	-200,000	0,022	-0,101
-153,906	79,318	0,054	0,042
-152,891	353,461	-0,039	0,056
-151,877	-200,000	0,003	-0,087
-150,862	147,340	-0,083	0,081
-149,847	160,434	-0,101	-0,102
-148,833	25,895	0,084	-0,051
-147,818	800,000	0,009	0,024
-146,804	233,820	0,104	0,125
-145,789	445,312	0,026	-0,041
-144,775	800,000	-0,056	0,136
-143,760	-200,000	-0,014	-0,071
-142,745	-200,000	0,003	0,099
-141,731	-200,000	-0,023	-0,093
-140,716	751,440	-0,022	-0,043
-139,702	-99,491	-0,045	0,008
-138,687	-21,113	0,015	0,007
-137,672	-96,826	-0,123	-0,023
-136,658	-72,715	-0,053	-0,014
-135,643	800,000	0,044	-0,116
-134,629	455,243	0,032	-0,052
-133,614	9,505	-0,068	-0,037
-132,599	-200,000	0,019	0,145
-131,585	46,218	-0,043	0,029
-130,570	800,000	-0,025	0,058
-129,556	-200,000	-0,006	0,133
-128,541	421,541	0,042	0,066
-127,526	97,216	0,109	0,091
-126,512	800,000	0,057	0,160
-125,497	91,037	0,150	0,122
-124,483	606,111	-0,039	-0,071
-123,468	19,693	0,052	-0,030
-122,453	422,517	-0,060	-0,094
-121,439	133,327	-0,169	-0,158
-120,424	-200,000	0,023	0,145
-119,410	7,332	0,056	0,030
-118,395	-80,075	0,122	0,029
-117,380	-200,000	0,017	-0,125
-116,366	180,388	-0,073	-0,077
-115,351	159,225	-0,004	0,004
-114,337	-73,002	-0,072	0,019
-113,322	196,466	-0,050	-0,055
-112,307	513,631	0,105	0,178
-111,293	99,097	0,056	0,047
-110,278	-200,000	-0,026	0,089
-109,264	-200,000	0,000	0,048
-108,249	49,096	-0,029	0,019
-107,234	793,062	-0,029	-0,058
-106,220	-200,000	-0,000	0,011
-105,205	800,000	-0,051	0,139
-104,191	-200,000	0,032	0,106
-103,176	425,073	-0,016	-0,025
-102,162	799,659	0,009	-0,017
-101,147	-118,763	0,029	0,004
-100,132	104,331	0,096	0,082
-99,118	-200,000	0,003	0,021
-98,103	102,441	0,052	-0,044
-97,089	-200,000	0,018	-0,075
-96,074	-21,749	0,038	-0,017
-95,059	800,000	0,023	-0,055
-94,045	-200,000	0,024	-0,091
-93,030	8,806	-0,111	-0,060
-92,016	-27,743	-0,034	-0,014
-91,001	537,956	0,036	0,063
-89,986	-27,185	0,022	-0,009
-88,972	-200,000	0,001	-0,033
-87,957	173,905	0,085	-0,089
-86,943	296,996	-0,076	-0,101
-85,928	-11,388	-0,061	-0,029
-84,913	-177,649	0,113	-0,002
-83,899	461,216	0,038	-0,061
-82,884	-200,000	0,001	0,057
-81,870	-61,044	0,200	0,061
-80,855	192,090	0,071	0,077
-79,840	295,315	0,050	-0,066
-78,826	-5,102	-0,092	-0,046
-77,811	-80,035	-0,079	-0,019
-76,797	-79,223	-0,013	0,003
-75,782	-129,883	0,162	0,016
-74,767	-200,000	-0,004	0,032
-73,753	800,000	0,026	0,057
-72,738	-200,000	0,018	0,126
-71,724	-178,785	-0,096	0,002
-70,709	-117,386	0,111	-0,014
-69,694	687,141	0,009	0,018
-68,680	781,721	0,037	-0,075
-67,665	-200,000	-0,005	0,131
-66,651	-200,000	0,009	0,072
-65,636	269,791	-0,083	-0,106
-64,622	309,726	-0,024	0,033
-63,607	-24,872	-0,018	-0,008
-62,592	-200,000	-0,013	-0,093
-61,578	379,287	0,082	0,123
-60,563	-200,000	-0,013	0,065
-59,549	-82,632	0,124	0,029
-58,534	-112,336	-1,486	-0,213
-57,519	800,000	-0,672	-1,419
-56,505	-200,000	-0,937	-4,411
-55,490	-15,172	0,614	-0,284
-54,476	800,000	4,883	11,766
-53,461	-200,000	14,319	253,716
-52,446	-200,000	695,915	2229,579
-51,432	566,683	1624,256	2868,005
-50,417	116,880	1631,058	1451,027
-49,403	73,044	1284,765	971,917
-48,388	37,426	1022,243	655,426
-47,373	23,592	980,866	583,472
-46,359	22,850	970,250	574,705
-45,344	21,758	966,166	568,701
-44,330	21,693	964,575	567,531
-43,315	21,635	963,105	566,453
-42,300	21,623	961,950	565,714
-41,286	21,654	960,946	565,200
-40,271	21,646	960,057	564,629
-39,257	21,591	959,140	563,890
-38,242	21,612	958,043	563,291
-37,227	21,599	957,113	562,681
-36,213	21,563	956,392	562,117
-35,198	21,573	955,504	561,604
-34,184	21,567	955,040	561,291
-33,169	21,586	953,942	560,686
-32,154	21,604	953,064	560,203
-31,140	21,640	952,205	559,793
-30,125	21,706	951,194	559,389
-29,111	21,634	950,618	558,795
-28,096	21,643	949,868	558,361
-27,082	21,602	949,286	557,866
-26,067	21,619	948,432	557,397
-25,052	21,661	947,689	557,071
-24,038	21,600	947,190	556,561
-23,023	21,618	946,323	556,087
-22,009	21,668	945,729	555,877
-20,994	21,625	945,067	555,327
-19,979	21,643	944,533	555,050
-18,965	21,587	943,958	554,511
-17,950	21,652	943,256	554,283
-16,936	21,608	942,708	553,799
-15,921	21,536	941,967	553,114
-14,906	21,524	941,107	552,547
-13,892	21,452	940,896	552,173
-12,877	21,514	940,197	551,939
-11,863	21,480	939,252	551,255
-10,848	21,417	938,828	550,785
-9,833	21,589	938,352	551,029
-8,819	21,569	937,829	550,636
-7,804	21,501	937,207	550,034
-6,790	21,467	936,608	549,551
-5,775	21,562	935,920	549,428
-4,760	21,466	935,297	548,735
-3,746	21,489	934,793	548,491
-2,731	21,380	933,938	547,626
-1,717	21,308	933,339	547,026
-0,702	21,308	932,587	546,563
0,313	21,085	932,036	546,361
1,327	24,075	930,017	554,515
2,342	33,114	793,819	497,314
3,356	30,798	450,867	278,950
4,371	0,615	294,803	152,171
5,386	-3,602	275,700	138,296
6,400	-4,961	269,964	134,142
7,415	-5,226	267,720	132,770
8,429	-5,040	266,293	132,221
9,444	-5,102	265,584	131,801
10,459	-4,949	264,944	131,611
11,473	-5,166	264,312	131,089
12,488	-5,270	263,879	130,768
13,502	-5,230	263,281	130,495
14,517	-5,325	262,948	130,233
15,531	-5,218	262,408	130,050
16,546	-5,117	262,144	129,999
17,561	-5,061	261,623	129,780
18,575	-5,136	261,483	129,631
19,590	-5,202	261,153	129,396
20,604	-5,154	260,858	129,282
21,619	-5,207	260,547	129,068
22,634	-5,151	259,969	128,821
23,648	-5,329	259,875	128,603
24,663	-5,198	259,507	128,527
25,677	-5,147	259,239	128,429
26,692	-5,337	259,087	128,172
27,707	-5,313	258,888	128,084
28,721	-5,267	258,597	127,969
29,736	-5,186	258,187	127,827
30,750	-5,404	258,078	127,568
31,765	-5,217	257,646	127,509
32,780	-5,440	257,665	127,309
33,794	-5,317	257,372	127,262
34,809	-5,198	257,063	127,203
35,823	-5,455	256,775	126,822
36,838	-5,295	256,464	126,799
37,853	-5,416	256,525	126,710
38,867	-5,337	256,062	126,539
39,882	-5,125	255,882	126,626
40,896	-5,255	255,612	126,367
41,911	-5,375	255,530	126,210
42,926	-5,315	255,257	126,117
43,940	-5,392	254,918	125,870
44,955	-5,411	254,795	125,782
45,969	-5,385	254,505	125,650
46,984	-5,855	254,310	125,132
47,999	-5,867	254,078	124,995
49,013	-5,885	253,866	124,865
50,028	-5,931	253,493	124,630
51,042	-6,033	253,292	124,431
52,057	-5,971	252,963	124,313
53,071	-6,018	252,961	124,259
54,086	-6,035	252,847	124,178
55,101	-5,933	252,542	124,105
56,115	-5,715	252,535	124,280
57,130	-5,387	252,427	124,500
58,144	-5,085	252,259	124,668
59,159	-5,026	251,792	124,476
60,174	-5,266	251,894	124,309
61,188	-5,160	251,484	124,186
62,203	-5,193	251,264	124,038
63,217	-5,403	251,146	123,788
64,232	-5,161	250,874	123,851
65,247	-5,060	250,572	123,778
66,261	-5,242	250,556	123,603
67,276	-5,455	250,260	123,263
68,290	-5,554	249,943	123,011
69,305	-5,812	249,745	122,682
70,320	-5,630	249,528	122,720
71,334	-5,310	249,391	122,915
72,349	-5,116	249,333	123,041
73,363	-5,025	248,981	122,935
74,378	-5,134	248,809	122,745
75,393	-5,281	248,641	122,526
76,407	-5,284	248,543	122,465
77,422	-5,250	248,196	122,312
78,436	-5,282	248,130	122,241
79,451	-5,397	247,847	121,994
80,466	-5,367	247,651	121,911
81,480	-5,327	247,292	121,757
82,495	-5,371	247,170	121,650
83,509	-5,480	247,091	121,508
84,524	-5,492	246,987	121,435
85,539	-5,566	246,553	121,148
86,553	-5,603	246,369	121,016
87,568	-5,480	246,299	121,075
88,582	-5,635	246,073	120,822
89,597	-5,516	245,892	120,823
90,611	-5,404	245,808	120,865
91,626	-5,267	245,683	120,908
92,641	-5,436	245,457	120,644
93,655	-5,304	245,252	120,643
94,670	-5,472	245,043	120,389
95,684	-5,394	244,866	120,356
96,699	-5,569	244,598	120,067
97,714	-5,290	244,366	120,176
98,728	-5,523	244,181	119,880
99,743	-5,405	243,980	119,869
100,757	-5,742	243,790	119,484
101,772	-5,646	243,702	119,510
102,787	-5,399	243,522	119,616
103,801	-5,313	243,264	119,551
104,816	-5,494	243,250	119,382
105,830	-5,148	242,940	119,507
106,845	-5,214	242,854	119,400
107,860	-5,363	242,589	119,135
108,874	-5,383	242,479	119,054
109,889	-5,349	242,270	118,969
110,903	-5,440	242,005	118,753
111,918	-5,474	241,882	118,654
112,933	-5,274	241,564	118,653
113,947	-5,437	241,586	118,517
114,962	-5,375	241,352	118,444
115,976	-5,314	241,127	118,373
116,991	-5,484	241,017	118,168
118,006	-5,404	240,833	118,134
119,020	-5,240	240,826	118,254
120,035	-5,433	240,785	118,065
121,049	-5,185	240,363	118,051
122,064	-5,085	240,208	118,046
123,079	-5,227	240,077	117,855
124,093	-5,309	239,779	117,631
125,108	-5,515	239,652	117,390
126,122	-5,753	239,448	117,085
127,137	-5,595	239,199	117,081
128,151	-5,526	239,095	117,077
129,166	-5,463	238,912	117,028
130,181	-5,582	238,618	116,777
131,195	-5,573	238,488	116,711
132,210	-5,450	238,417	116,765
133,224	-5,462	238,249	116,663
134,239	-5,082	237,993	116,835
135,254	-5,412	237,988	116,554
136,268	-5,445	237,609	116,332
137,283	-5,603	237,407	116,094
138,297	-5,719	237,239	115,908
139,312	-5,832	236,999	115,689
140,327	-5,363	236,827	115,973
141,341	-5,022	237,023	116,335
142,356	-5,135	236,796	116,122
143,370	-5,197	236,699	116,014
144,385	-5,075	236,323	115,918
145,400	-4,940	236,281	115,995
146,414	-4,975	236,127	115,881
147,429	-5,154	236,018	115,674
148,443	-5,291	235,757	115,426
149,458	-5,124	235,566	115,455
150,473	-4,923	235,408	115,529
151,487	-5,006	235,247	115,373
152,502	-5,043	235,071	115,247
153,516	-4,873	234,923	115,300
154,531	-4,950	234,706	115,122
155,546	-4,969	234,527	115,008
156,560	-5,219	234,410	114,741
157,575	-5,184	234,144	114,629
158,589	-5,157	233,885	114,514
159,604	-5,180	233,871	114,478
160,619	-5,002	233,639	114,496
161,633	-4,893	233,519	114,513
162,648	-5,074	233,454	114,327
163,662	-4,981	233,291	114,311
164,677	-5,195	233,155	114,065
165,692	-5,083	233,174	114,152
166,706	-4,741	232,782	114,221
167,721	-4,882	232,669	114,043
168,735	-4,898	232,476	113,927
169,750	-5,126	232,455	113,726
170,764	-4,932	232,309	113,798
171,779	-4,885	232,136	113,739
172,794	-4,972	231,991	113,589
173,808	-4,964	231,697	113,442
174,823	-5,447	231,410	112,912
175,837	-5,574	231,289	112,743
176,852	-5,360	231,267	112,890
177,867	-4,954	231,016	113,076
178,881	-4,878	231,034	113,135
179,896	-4,871	230,956	113,092
180,910	-4,612	230,632	113,126
181,925	-4,898	230,551	112,852
182,940	-5,132	230,360	112,565
183,954	-4,822	230,231	112,735
184,969	-4,904	229,967	112,531
185,983	-4,728	229,875	112,613
186,998	-4,767	229,764	112,519
188,013	-4,792	229,661	112,439
189,027	-4,828	229,464	112,304
190,042	-4,791	229,321	112,253
191,056	-4,672	229,221	112,287
192,071	-4,916	229,047	112,002
193,086	-4,951	228,766	111,828
194,100	-4,810	228,781	111,934
195,115	-5,004	228,348	111,562
196,129	-5,440	228,194	111,139
197,144	-2,149	229,131	114,141
198,159	1,780	230,436	117,843
199,173	3,537	230,875	119,426
200,188	3,990	230,605	119,628
201,202	4,016	230,528	119,598
202,217	4,263	230,356	119,690
203,232	4,442	230,231	119,753
204,246	4,424	230,148	119,685
205,261	4,612	229,963	119,724
206,275	4,622	229,990	119,734
207,290	4,302	230,063	119,514
208,304	4,476	229,792	119,497
209,319	4,743	229,429	119,504
210,334	4,638	229,158	119,271
211,348	4,250	229,225	118,996
212,363	3,837	228,798	118,446
213,377	3,681	228,564	118,194
214,392	3,714	228,482	118,166
215,407	3,758	228,314	118,102
216,421	3,923	228,158	118,138
217,436	3,687	228,005	117,867
218,450	3,556	227,847	117,674
219,465	3,588	227,544	117,532
220,480	3,673	227,421	117,524
221,494	3,539	227,278	117,336
222,509	3,916	227,200	117,574
223,523	3,699	227,112	117,352
224,538	3,405	226,919	117,017
225,553	3,649	226,815	117,140
226,567	3,896	226,578	117,195
227,582	4,037	226,692	117,351
228,596	4,139	226,338	117,235
229,611	3,819	226,243	116,932
230,626	3,652	225,942	116,639
231,640	3,613	225,857	116,555
232,655	4,025	225,712	116,782
233,669	4,091	225,898	116,918
234,684	4,244	225,760	116,953
235,699	4,080	225,478	116,671
236,713	3,788	225,240	116,317
237,728	3,836	225,021	116,230
238,742	3,697	224,863	116,033
239,757	3,694	224,659	115,915
240,772	3,817	224,542	115,937
241,786	3,679	224,506	115,805
242,801	3,828	224,394	115,849
243,815	4,027	224,282	115,930
244,830	4,026	224,133	115,842
245,844	3,890	223,855	115,585
246,859	3,689	223,818	115,405
247,874	3,937	223,589	115,464
248,888	3,938	223,633	115,476
249,903	3,862	223,375	115,276
250,917	3,828	223,088	115,092
251,932	3,577	222,968	114,832
252,947	3,609	222,820	114,769
253,961	3,491	222,666	114,591
254,976	3,558	222,584	114,589
255,990	3,916	222,503	114,805
257,005	3,738	222,565	114,693
258,020	3,981	222,152	114,652
259,034	4,385	222,065	114,897
260,049	3,852	222,010	114,462
261,063	3,739	221,822	114,270
262,078	4,042	221,641	114,392
263,093	4,167	221,406	114,354
264,107	3,951	221,312	114,135
265,122	4,191	221,188	114,239
266,136	4,176	221,120	114,182
267,151	4,311	220,926	114,171
268,166	3,778	220,788	113,696
269,180	3,551	220,475	113,357
270,195	3,508	220,410	113,281
271,209	3,619	220,306	113,300
272,224	3,663	220,135	113,234
273,239	3,973	219,976	113,371
274,253	3,840	219,828	113,186
275,268	3,376	219,588	112,712
276,282	3,417	219,527	112,700
277,297	3,419	219,320	112,586
278,312	3,818	219,189	112,801
279,326	3,595	219,193	112,629
280,341	3,670	219,048	112,600
281,355	3,827	218,803	112,579
282,370	3,938	218,606	112,548
283,384	3,442	218,490	112,116
284,399	3,390	218,357	111,999
285,414	3,387	218,253	111,934
286,428	3,567	218,187	112,022
287,443	3,879	218,155	112,223
288,457	4,050	217,879	112,196
289,472	3,739	217,732	111,884
290,487	3,446	217,412	111,496
291,501	3,198	217,326	111,262
292,516	3,345	217,311	111,351
293,530	3,438	217,189	111,346
294,545	3,409	216,901	111,167
295,560	3,294	216,954	111,101
296,574	3,503	216,733	111,130
297,589	3,592	216,603	111,118
298,603	3,700	216,560	111,164
299,618	3,884	216,537	111,275
300,633	3,777	216,358	111,095
301,647	4,106	216,189	111,237
302,662	4,128	216,156	111,226
303,676	3,812	215,979	110,897
304,691	4,029	215,668	110,883
305,706	4,048	215,576	110,840
306,720	3,900	215,447	110,658
307,735	3,830	215,265	110,503
308,749	3,436	215,200	110,177
309,764	3,640	215,030	110,227
310,779	4,119	214,994	110,543
311,793	3,754	214,783	110,163
312,808	3,840	214,571	110,106
313,822	3,893	214,437	110,065
314,837	3,642	214,298	109,804
315,852	3,456	214,187	109,605
316,866	3,495	214,069	109,562
317,881	3,959	213,995	109,846
318,895	4,051	213,702	109,751
319,910	3,836	213,578	109,525
320,925	3,267	213,445	109,041
321,939	3,262	213,225	108,916
322,954	3,496	213,085	109,001
323,968	3,682	213,017	109,089
324,983	3,900	213,039	109,245
325,997	3,763	212,962	109,099
327,012	3,750	212,685	108,938
328,027	3,764	212,636	108,912
329,041	4,183	212,423	109,091
330,056	4,278	212,408	109,141
331,070	3,773	212,212	108,673
332,085	3,575	211,865	108,346
333,100	3,532	211,851	108,298
334,114	3,796	211,712	108,404
335,129	3,703	211,603	108,274
336,143	3,425	211,300	107,913
337,158	3,772	211,222	108,108
338,173	3,656	211,148	107,978
339,187	3,369	210,923	107,652
340,202	3,426	210,708	107,572
341,216	3,303	210,651	107,448
342,231	3,479	210,413	107,440
343,246	3,358	210,408	107,343
344,260	3,771	210,210	107,521
345,275	3,670	210,244	107,458
346,289	3,803	210,188	107,513
347,304	3,692	210,099	107,381
348,319	3,713	209,825	107,246
349,333	3,707	209,637	107,136
350,348	3,454	209,693	106,978
351,362	3,805	209,513	107,122
352,377	3,897	209,341	107,088
353,392	3,684	209,211	106,864
354,406	3,733	209,085	106,824
355,421	194,279	1343,943	1431,763
356,435	155,054	1482,301	1431,866
