DTS Sentinel unit serial number:	SN410029Multiplexer serial number:	ORYXHardware model number:	OX2-SRSoftware version number:	ORYX F/W v4,00 Oryx Data Collector v3.7.2.0data status	okinstallation	B6 Nyhavnadifferential loss correction	single-endedforward channel	channel 2reverse channel	N/Adate	2023/12/09time	08:45:08forward acquisition time	300,00reverse acquisition time	0,00gamma	499,1914k internal	0,3138k external	0,3138temperature offset calibration	1,0000default loss term (dB/km)	0,3820temperature slope calibration	1,0000multiplexer offset coefficient	1,0000multiplexer slope coefficient	1,0000fibre end	0,00T internal ref (°C)	18,47T ext. ref 1 (°C)	1,95T ext. ref 2 (°C)	1,94length (m)	temperature (°C)	Stokes	anti-Stokes-744,400	290,217	0,073	-0,099
-743,385	-140,628	-0,331	0,025
-742,371	-106,813	0,061	-0,010
-741,356	-72,949	-0,220	0,060
-740,342	46,042	0,175	0,120
-739,327	-27,245	-0,239	-0,103
-738,312	800,000	0,040	-0,086
-737,298	-7,512	-0,253	0,126
-736,283	113,434	0,064	-0,058
-735,269	-65,296	-0,263	0,078
-734,254	-63,320	0,117	0,036
-733,239	-75,328	-0,462	-0,121
-732,225	-55,245	0,168	0,056
-731,210	-106,916	-0,045	-0,007
-730,196	21,946	-0,030	0,018
-729,181	800,000	-0,025	0,066
-728,167	119,680	-0,036	0,033
-727,152	-31,771	-0,125	0,052
-726,137	800,000	0,004	0,012
-725,123	800,000	-0,044	-0,114
-724,108	-200,000	0,021	-0,082
-723,094	-200,000	-0,016	-0,165
-722,079	48,362	-0,058	0,040
-721,064	-68,410	0,084	0,024
-720,050	800,000	0,014	0,046
-719,035	-124,103	-0,158	-0,018
-718,021	-103,978	-0,137	0,023
-717,006	-140,490	-0,131	0,010
-715,991	125,365	-0,062	-0,058
-714,977	-31,152	-0,068	0,028
-713,962	-200,000	0,001	0,047
-712,948	2,107	0,026	0,014
-711,933	-138,464	-0,095	-0,008
-710,918	-200,000	-0,001	0,037
-709,904	3,168	-0,085	0,046
-708,889	-113,574	-0,170	-0,024
-707,875	27,369	-0,096	0,060
-706,860	282,367	-0,057	-0,076
-705,845	656,246	0,066	0,126
-704,831	348,349	-0,046	0,067
-703,816	800,000	0,015	0,033
-702,802	-14,016	-0,050	-0,024
-701,787	-88,647	-0,034	-0,007
-700,772	741,053	-0,020	-0,041
-699,758	762,628	-0,023	0,046
-698,743	800,000	-0,021	-0,048
-697,729	157,904	-0,025	0,026
-696,714	-111,528	0,198	-0,029
-695,699	-140,934	0,018	-0,001
-694,685	227,463	-0,103	-0,124
-693,670	261,447	-0,053	-0,068
-692,656	17,886	-0,116	0,068
-691,641	-200,000	-0,005	-0,162
-690,627	-200,000	0,000	0,025
-689,612	597,949	0,002	0,003
-688,597	-200,000	0,002	0,015
-687,583	-29,120	-0,136	-0,057
-686,568	-200,000	-0,011	-0,173
-685,554	800,000	-0,043	-0,123
-684,539	151,800	0,024	-0,025
-683,524	49,411	-0,080	0,056
-682,510	-180,190	0,109	0,002
-681,495	752,449	0,039	-0,079
-680,481	800,000	-0,011	0,033
-679,466	-200,000	-0,003	0,041
-678,451	-200,000	-0,001	0,064
-677,437	-75,627	-0,129	-0,034
-676,422	-198,661	-0,062	0,000
-675,408	-69,961	-0,236	0,066
-674,393	-17,278	0,118	0,055
-673,378	-200,000	0,016	-0,055
-672,364	800,000	0,014	-0,033
-671,349	577,793	0,012	0,022
-670,335	362,905	-0,064	-0,096
-669,320	115,832	0,054	0,049
-668,305	800,000	-0,023	0,056
-667,291	800,000	0,063	0,138
-666,276	-200,000	0,000	-0,127
-665,262	-73,444	-0,094	-0,025
-664,247	59,641	-0,069	0,050
-663,232	168,089	0,066	-0,070
-662,218	112,196	-0,088	-0,079
-661,203	-113,499	0,074	0,011
-660,189	-5,129	-0,116	-0,059
-659,174	113,441	-0,072	-0,065
-658,159	800,000	-0,066	-0,161
-657,145	-41,632	-0,062	0,023
-656,130	-200,000	-0,018	0,141
-655,116	800,000	0,046	0,130
-654,101	86,518	0,076	-0,062
-653,086	-200,000	-0,008	0,050
-652,072	-200,000	-0,020	-0,128
-651,057	26,059	-0,121	-0,074
-650,043	-200,000	-0,027	-0,184
-649,028	800,000	0,029	-0,074
-648,014	-200,000	-0,017	0,082
-646,999	-200,000	-0,005	-0,033
-645,984	794,800	-0,028	0,057
-644,970	800,000	-0,026	-0,075
-643,955	163,505	-0,086	0,089
-642,941	-200,000	-0,006	-0,163
-641,926	800,000	0,035	-0,075
-640,911	-200,000	-0,001	-0,014
-639,897	-80,961	0,096	0,023
-638,882	-64,378	-0,082	-0,024
-637,868	172,100	0,025	0,027
-636,853	-169,048	-0,069	0,002
-635,838	800,000	0,032	-0,100
-634,824	195,804	-0,020	-0,023
-633,809	800,000	-0,057	-0,142
-632,795	-200,000	-0,002	-0,030
-631,780	159,434	0,019	-0,020
-630,765	-72,833	-0,049	0,013
-629,751	41,331	-0,114	-0,076
-628,736	25,999	0,034	-0,021
-627,722	-138,402	0,054	0,004
-626,707	-72,624	0,128	-0,035
-625,692	111,286	0,033	0,029
-624,678	-6,073	0,072	0,036
-623,663	-200,000	0,003	0,061
-622,649	-200,000	0,002	-0,077
-621,634	-111,142	-0,141	0,021
-620,619	614,901	-0,049	-0,091
-619,605	135,524	0,108	0,104
-618,590	-200,000	-0,012	0,065
-617,576	93,578	0,053	-0,044
-616,561	-107,131	-0,101	0,016
-615,546	182,408	-0,025	0,027
-614,532	522,137	-0,066	-0,115
-613,517	40,965	-0,086	-0,057
-612,503	-200,000	-0,006	0,059
-611,488	800,000	0,020	-0,045
-610,474	174,809	0,112	0,119
-609,459	-61,071	-0,082	0,026
-608,444	62,594	0,119	0,088
-607,430	-139,274	0,120	-0,009
-606,415	445,889	0,041	-0,067
-605,401	800,000	0,011	-0,032
-604,386	40,100	0,080	0,053
-603,371	800,000	-0,078	0,160
-602,357	-200,000	-0,027	0,112
-601,342	0,398	0,062	-0,032
-600,328	110,867	-0,114	-0,101
-599,313	-33,626	-0,101	-0,041
-598,298	-200,000	0,001	0,059
-597,284	800,000	-0,012	0,038
-596,269	-45,768	0,090	0,033
-595,255	230,151	-0,080	0,097
-594,240	-190,908	-0,067	-0,001
-593,225	-164,871	0,062	-0,002
-592,211	106,414	-0,170	-0,149
-591,196	-113,866	-0,216	0,031
-590,182	156,734	0,025	0,026
-589,167	800,000	0,037	0,088
-588,152	800,000	-0,043	0,101
-587,138	-94,026	0,116	0,023
-586,123	-200,000	-0,007	-0,028
-585,109	247,231	0,116	-0,145
-584,094	-200,000	0,002	-0,071
-583,079	-127,992	0,064	0,007
-582,065	800,000	-0,020	-0,043
-581,050	-83,351	0,134	-0,031
-580,036	-159,577	-0,066	-0,003
-579,021	-69,101	-0,068	-0,019
-578,006	-55,366	0,054	0,018
-576,992	-10,736	-0,109	-0,053
-575,977	-79,728	0,127	-0,031
-574,963	-128,771	-0,147	-0,015
-573,948	-200,000	0,017	-0,172
-572,934	632,780	-0,050	-0,094
-571,919	800,000	-0,073	-0,162
-570,904	35,660	-0,073	0,047
-569,890	26,771	-0,063	-0,039
-568,875	-200,000	-0,005	0,141
-567,861	-200,000	0,013	-0,104
-566,846	-85,900	0,039	-0,009
-565,831	512,804	-0,055	-0,095
-564,817	721,566	-0,043	-0,084
-563,802	-54,477	-0,116	-0,039
-562,788	-200,000	-0,007	0,059
-561,773	283,823	0,060	0,080
-560,758	380,783	-0,052	-0,078
-559,744	-88,038	-0,086	0,019
-558,729	-86,213	-0,080	-0,018
-557,715	183,187	0,050	-0,054
-556,700	170,205	-0,107	-0,113
-555,685	66,140	-0,017	0,012
-554,671	-102,183	0,117	-0,020
-553,656	-200,000	-0,025	0,099
-552,642	216,091	0,066	0,078
-551,627	107,653	-0,072	-0,063
-550,612	-200,000	-0,024	-0,114
-549,598	-68,964	-0,040	-0,011
-548,583	141,965	0,091	-0,089
-547,569	-91,547	-0,037	0,008
-546,554	342,697	0,040	0,058
-545,539	62,469	0,142	-0,104
-544,525	151,542	-0,097	0,097
-543,510	-200,000	0,018	0,064
-542,496	-9,052	-0,183	-0,090
-541,481	326,020	-0,047	-0,066
-540,466	-200,000	0,045	-0,160
-539,452	-200,000	0,016	-0,085
-538,437	73,929	0,072	-0,055
-537,423	37,168	0,109	-0,071
-536,408	215,288	-0,050	-0,058
-535,393	168,092	-0,078	-0,081
-534,379	-35,810	0,071	0,028
-533,364	90,168	0,199	-0,163
-532,350	-200,000	0,036	0,118
-531,335	-200,000	0,018	-0,109
-530,321	169,605	-0,068	0,072
-529,306	146,318	-0,059	-0,058
-528,291	201,783	-0,016	-0,018
-527,277	800,000	0,041	-0,095
-526,262	29,839	-0,083	0,052
-525,248	-161,012	0,062	-0,002
-524,233	-200,000	0,042	0,148
-523,218	205,007	-0,008	0,010
-522,204	238,541	-0,092	0,112
-521,189	-200,000	0,003	-0,081
-520,175	-200,000	-0,012	0,070
-519,160	46,242	0,078	-0,053
-518,145	93,851	-0,016	-0,013
-517,131	37,070	0,129	0,084
-516,116	-200,000	0,002	-0,009
-515,102	-50,316	0,080	0,028
-514,087	-54,648	-0,069	0,023
-513,072	-83,042	0,040	-0,009
-512,058	518,944	-0,048	0,084
-511,043	-200,000	0,000	-0,080
-510,029	-200,000	-0,012	-0,140
-509,014	9,732	0,043	-0,024
-507,999	135,687	-0,067	-0,065
-506,985	-62,309	-0,053	-0,016
-505,970	-200,000	-0,003	-0,035
-504,956	800,000	-0,047	-0,111
-503,941	240,190	0,050	-0,062
-502,926	510,735	-0,081	0,140
-501,912	-120,362	0,091	-0,011
-500,897	800,000	-0,048	0,113
-499,883	-109,374	0,060	-0,009
-498,868	200,416	-0,036	-0,041
-497,853	247,020	-0,038	-0,047
-496,839	-200,000	-0,002	0,075
-495,824	749,601	0,017	-0,033
-494,810	-81,164	0,081	-0,019
-493,795	-200,000	0,030	0,147
-492,781	329,110	-0,060	0,084
-491,766	55,693	0,108	-0,077
-490,751	-200,000	-0,002	-0,039
-489,737	-200,000	0,012	0,075
-488,722	-200,000	0,045	0,163
-487,708	365,991	-0,017	0,025
-486,693	148,866	0,008	0,008
-485,678	800,000	0,008	-0,021
-484,664	152,085	0,069	0,070
-483,649	800,000	-0,049	0,118
-482,635	-48,055	-0,018	0,006
-481,620	-200,000	0,003	-0,045
-480,605	711,618	0,053	0,104
-479,591	160,813	0,123	0,126
-478,576	581,069	-0,059	-0,106
-477,562	-200,000	-0,035	-0,163
-476,547	800,000	0,075	-0,196
-475,532	62,633	-0,031	-0,023
-474,518	-200,000	-0,032	0,180
-473,503	18,232	0,095	0,055
-472,489	65,850	0,044	0,033
-471,474	-104,170	0,077	-0,013
-470,459	-42,088	-0,146	0,054
-469,445	5,865	-0,052	0,028
-468,430	-24,263	0,162	-0,070
-467,416	-200,000	-0,008	-0,062
-466,401	-200,000	-0,013	0,124
-465,386	800,000	-0,024	0,061
-464,372	109,140	0,110	0,097
-463,357	-106,604	-0,136	-0,022
-462,343	115,587	-0,035	-0,031
-461,328	800,000	-0,022	0,045
-460,313	800,000	0,077	0,217
-459,299	-200,000	0,032	-0,207
-458,284	-200,000	-0,010	0,080
-457,270	-125,031	-0,022	0,002
-456,255	26,312	0,052	-0,032
-455,241	164,009	-0,068	-0,070
-454,226	64,338	-0,102	0,075
-453,211	-200,000	-0,040	0,158
-452,197	-200,000	0,004	-0,045
-451,182	173,062	0,097	-0,103
-450,168	232,808	-0,087	0,105
-449,153	800,000	-0,022	-0,057
-448,138	24,020	-0,100	0,060
-447,124	800,000	0,020	0,042
-446,109	-65,483	0,157	0,046
-445,095	-41,592	0,149	0,056
-444,080	-200,000	-0,043	0,196
-443,065	-200,000	-0,007	-0,051
-442,051	43,079	0,047	-0,031
-441,036	197,660	-0,095	-0,106
-440,022	262,526	0,129	-0,164
-439,007	132,779	0,137	0,130
-437,992	-145,286	-0,143	-0,009
-436,978	-200,000	-0,030	0,151
-435,963	121,654	-0,115	0,105
-434,949	-200,000	-0,008	0,097
-433,934	-200,000	-0,020	-0,071
-432,919	772,888	0,036	-0,073
-431,905	375,688	-0,067	-0,100
-430,890	244,552	0,055	0,068
-429,876	135,683	-0,023	0,022
-428,861	-125,834	0,186	-0,020
-427,846	-164,030	-0,090	-0,003
-426,832	454,022	-0,093	-0,151
-425,817	-200,000	0,002	-0,026
-424,803	166,875	0,067	-0,070
-423,788	-200,000	0,005	0,096
-422,773	-200,000	0,008	-0,092
-421,759	-200,000	-0,010	0,063
-420,744	-200,000	-0,002	-0,035
-419,730	-121,075	-0,035	0,004
-418,715	24,437	0,024	-0,015
-417,701	800,000	0,010	-0,031
-416,686	-24,951	0,103	0,044
-415,671	-200,000	0,045	0,000
-414,657	-153,106	-0,130	-0,007
-413,642	-78,513	0,071	-0,018
-412,628	-200,000	0,022	-0,145
-411,613	576,796	-0,015	-0,027
-410,598	175,612	0,034	0,036
-409,584	203,770	-0,037	0,042
-408,569	142,924	0,050	0,049
-407,555	-54,683	-0,093	-0,031
-406,540	-14,972	0,076	0,036
-405,525	800,000	0,031	-0,073
-404,511	-93,311	-0,046	-0,009
-403,496	113,498	-0,075	0,066
-402,482	-57,436	-0,095	0,030
-401,467	-11,511	0,091	-0,044
-400,452	61,869	-0,087	0,063
-399,438	-200,000	-0,001	-0,008
-398,423	800,000	-0,015	0,045
-397,409	541,907	-0,026	0,045
-396,394	224,343	-0,062	-0,074
-395,379	-50,972	-0,108	-0,037
-394,365	36,760	-0,045	0,029
-393,350	-62,623	0,071	0,022
-392,336	-49,817	0,119	0,041
-391,321	-200,000	0,010	0,144
-390,306	44,115	-0,082	0,055
-389,292	-150,557	-0,125	-0,007
-388,277	-101,738	-0,167	-0,029
-387,263	75,089	-0,064	0,049
-386,248	-0,334	0,077	0,040
-385,233	302,958	-0,081	-0,110
-384,219	-77,652	-0,109	-0,027
-383,204	-87,973	-0,060	-0,013
-382,190	-142,951	-0,225	-0,016
-381,175	51,070	-0,140	0,097
-380,160	-79,123	0,116	0,029
-379,146	256,797	0,037	0,047
-378,131	112,967	0,147	0,131
-377,117	-23,849	0,036	-0,016
-376,102	-200,000	-0,003	-0,051
-375,088	-200,000	-0,032	-0,103
-374,073	63,412	-0,121	-0,089
-373,058	-108,733	0,170	0,026
-372,044	552,681	0,041	0,072
-371,029	-200,000	-0,032	-0,122
-370,015	-200,000	0,002	-0,125
-369,000	518,372	0,041	0,070
-367,985	96,717	-0,082	0,069
-366,971	-200,000	0,055	0,188
-365,956	679,043	0,035	-0,068
-364,942	208,674	-0,075	0,086
-363,927	-200,000	0,022	0,175
-362,912	-96,779	-0,040	-0,008
-361,898	186,905	0,115	0,125
-360,883	-30,922	0,044	0,018
-359,869	-95,379	0,109	-0,021
-358,854	81,280	-0,089	0,071
-357,839	-143,023	0,216	0,015
-356,825	800,000	0,022	0,057
-355,810	-46,973	-0,086	0,030
-354,796	65,982	-0,091	-0,067
-353,781	525,871	0,066	-0,114
-352,766	-104,180	0,016	0,003
-351,752	56,569	0,023	-0,017
-350,737	-82,702	0,053	-0,012
-349,723	-200,000	-0,000	-0,015
-348,708	-200,000	-0,015	0,186
-347,693	-71,028	-0,090	-0,025
-346,679	800,000	-0,048	-0,111
-345,664	69,575	0,093	-0,070
-344,650	-194,885	0,086	0,000
-343,635	398,418	0,056	-0,086
-342,620	800,000	0,080	0,195
-341,606	-93,885	0,070	0,014
-340,591	22,336	-0,087	-0,052
-339,577	419,702	-0,038	-0,059
-338,562	-112,565	0,049	0,007
-337,548	-200,000	-0,012	0,127
-336,533	-41,814	-0,136	0,051
-335,518	-6,310	0,059	0,029
-334,504	-47,412	-0,083	-0,029
-333,489	421,849	0,029	0,046
-332,475	504,074	-0,086	0,146
-331,460	-121,691	-0,084	-0,010
-330,445	83,078	-0,035	-0,028
-329,431	-85,101	0,076	-0,017
-328,416	-200,000	-0,024	0,114
-327,402	-200,000	-0,003	0,057
-326,387	-200,000	-0,007	0,030
-325,372	-200,000	-0,004	0,047
-324,358	-200,000	-0,031	-0,113
-323,343	35,686	0,038	-0,024
-322,329	-69,146	0,073	0,020
-321,314	-200,000	-0,002	0,079
-320,299	-29,528	0,141	-0,058
-319,285	158,597	-0,018	-0,018
-318,270	-135,679	-0,058	-0,005
-317,256	340,663	-0,086	-0,123
-316,241	96,463	0,075	0,062
-315,226	92,106	-0,048	-0,039
-314,212	-87,772	-0,185	0,040
-313,197	800,000	0,025	-0,074
-312,183	-71,958	-0,142	0,038
-311,168	63,687	0,127	-0,093
-310,153	-200,000	-0,023	-0,094
-309,139	144,800	-0,104	-0,101
-308,124	210,518	-0,052	-0,059
-307,110	-63,552	0,131	0,039
-306,095	217,107	0,020	-0,023
-305,080	82,936	0,061	0,049
-304,066	287,008	0,038	-0,050
-303,051	-200,000	-0,023	-0,082
-302,037	-200,000	-0,021	-0,087
-301,022	-48,720	0,174	0,061
-300,008	59,306	0,180	0,129
-298,993	-110,403	-0,087	-0,013
-297,978	18,080	-0,151	0,088
-296,964	-143,937	-0,084	-0,006
-295,949	-200,000	-0,003	0,026
-294,935	134,728	-0,076	-0,072
-293,920	-71,651	0,108	0,029
-292,905	-200,000	0,009	0,076
-291,891	436,816	0,060	-0,095
-290,876	176,792	0,054	0,058
-289,862	215,163	0,042	-0,048
-288,847	58,407	-0,082	0,059
-287,832	498,442	-0,072	-0,122
-286,818	162,646	0,098	-0,100
-285,803	-77,377	0,099	0,025
-284,789	491,397	-0,040	-0,067
-283,774	-88,705	-0,081	0,017
-282,759	69,674	-0,039	0,029
-281,745	800,000	-0,046	0,138
-280,730	-43,221	-0,051	0,019
-279,716	108,526	-0,043	-0,037
-278,701	-12,508	-0,120	-0,057
-277,686	800,000	0,046	-0,100
-276,672	-116,750	-0,036	-0,005
-275,657	-58,586	0,011	0,003
-274,643	800,000	0,090	-0,188
-273,628	544,540	-0,020	0,035
-272,613	384,216	0,023	0,035
-271,599	309,926	-0,090	0,123
-270,584	-200,000	-0,005	0,101
-269,570	-121,753	-0,155	-0,018
-268,555	37,561	0,165	-0,106
-267,540	-200,000	0,009	0,044
-266,526	800,000	-0,007	0,017
-265,511	413,929	0,043	-0,067
-264,497	6,066	0,067	-0,036
-263,482	800,000	0,024	0,051
-262,467	-200,000	-0,014	0,109
-261,453	800,000	0,059	-0,123
-260,438	236,156	-0,006	-0,007
-259,424	800,000	-0,029	0,079
-258,409	-29,572	-0,044	0,018
-257,395	-200,000	0,036	0,143
-256,380	-200,000	0,000	-0,084
-255,365	758,828	0,047	0,093
-254,351	-95,446	0,088	-0,017
-253,336	100,759	0,046	0,039
-252,322	-200,000	0,010	-0,064
-251,307	-200,000	0,005	0,078
-250,292	-200,000	0,018	-0,059
-249,278	800,000	0,034	-0,092
-248,263	800,000	-0,058	0,155
-247,249	800,000	0,060	0,129
-246,234	101,943	-0,079	0,067
-245,219	52,687	0,074	0,051
-244,205	90,805	-0,091	-0,074
-243,190	28,524	0,085	-0,052
-242,176	502,144	0,040	0,067
-241,161	476,001	-0,095	0,157
-240,146	-200,000	-0,017	-0,069
-239,132	-80,474	0,038	-0,009
-238,117	-200,000	0,008	-0,042
-237,103	361,537	0,036	0,052
-236,088	800,000	0,033	0,082
-235,073	-101,176	0,103	0,018
-234,059	-124,330	-0,214	-0,024
-233,044	-121,270	0,101	-0,012
-232,030	-129,879	-0,168	-0,017
-231,015	-146,551	0,034	0,002
-230,000	11,397	-0,032	0,018
-228,986	486,746	-0,011	0,018
-227,971	-129,913	0,005	-0,001
-226,957	285,274	0,048	0,063
-225,942	-200,000	0,014	0,109
-224,927	-110,721	0,092	0,014
-223,913	-200,000	0,026	0,099
-222,898	-36,751	-0,136	-0,053
-221,884	800,000	0,052	0,142
-220,869	-115,162	-0,085	-0,012
-219,855	398,243	0,069	-0,105
-218,840	-116,726	0,142	0,019
-217,825	5,743	-0,018	0,010
-216,811	-27,942	-0,075	-0,031
-215,796	-200,000	0,007	-0,205
-214,782	292,999	0,054	-0,072
-213,767	-80,157	0,130	-0,031
-212,752	193,171	0,096	0,105
-211,738	-9,914	-0,064	0,031
-210,723	800,000	0,043	0,117
-209,709	-83,681	-0,103	0,024
-208,694	-200,000	0,009	0,081
-207,679	-56,769	0,135	-0,043
-206,665	800,000	-0,024	-0,064
-205,650	756,248	0,023	-0,046
-204,636	565,270	0,050	0,088
-203,621	-75,336	0,160	-0,041
-202,606	-200,000	-0,007	-0,146
-201,592	-83,733	0,091	-0,021
-200,577	800,000	0,045	-0,101
-199,563	341,550	0,051	0,072
-198,548	800,000	-0,011	-0,029
-197,533	800,000	0,020	0,052
-196,519	94,743	0,059	-0,049
-195,504	-74,193	-0,165	0,043
-194,490	242,057	-0,040	-0,048
-193,475	-200,000	-0,003	-0,065
-192,460	-148,914	-0,137	0,008
-191,446	-14,532	-0,184	0,086
-190,431	263,766	0,147	0,186
-189,417	457,618	0,022	0,036
-188,402	-102,566	-0,021	0,004
-187,387	179,601	-0,091	0,097
-186,373	800,000	0,045	-0,118
-185,358	-200,000	0,017	0,090
-184,344	90,383	0,020	-0,016
-183,329	131,540	0,104	0,097
-182,315	-200,000	-0,016	0,074
-181,300	-200,000	-0,020	0,077
-180,285	-60,857	-0,049	-0,015
-179,271	488,913	0,051	-0,084
-178,256	800,000	-0,035	-0,085
-177,242	347,158	-0,110	0,158
-176,227	-200,000	0,012	0,048
-175,212	-200,000	-0,027	-0,142
-174,198	428,758	0,056	-0,088
-173,183	500,745	0,056	-0,094
-172,169	800,000	-0,043	-0,137
-171,154	76,565	-0,064	0,049
-170,139	17,488	0,122	-0,070
-169,125	149,326	0,081	0,080
-168,110	800,000	-0,015	-0,031
-167,096	116,006	0,076	0,068
-166,081	446,857	0,015	-0,025
-165,066	21,302	-0,070	0,041
-164,052	-200,000	-0,048	-0,154
-163,037	-13,627	0,069	-0,032
-162,023	-200,000	-0,005	-0,040
-161,008	-200,000	-0,012	-0,051
-159,993	-200,000	0,013	0,074
-158,979	12,963	-0,035	-0,020
-157,964	800,000	-0,073	-0,164
-156,950	800,000	0,004	0,012
-155,935	66,515	0,047	-0,034
-154,920	-122,353	0,020	-0,002
-153,906	264,456	0,083	0,106
-152,891	26,889	0,082	-0,050
-151,877	-200,000	-0,032	-0,107
-150,862	156,286	0,019	-0,019
-149,847	25,787	0,046	0,028
-148,833	231,230	0,076	0,091
-147,818	-98,413	0,132	0,024
-146,804	238,228	0,032	-0,039
-145,789	-20,714	0,131	0,058
-144,775	-200,000	-0,008	0,117
-143,760	318,529	-0,120	-0,165
-142,745	-102,118	0,081	0,014
-141,731	-200,000	-0,004	-0,127
-140,716	-200,000	-0,004	0,065
-139,702	800,000	-0,024	0,072
-138,687	800,000	0,049	0,114
-137,672	71,845	-0,086	-0,065
-136,658	-56,222	-0,125	-0,040
-135,643	-78,100	-0,133	0,033
-134,629	-157,561	0,064	0,003
-133,614	39,475	0,108	0,070
-132,599	44,518	-0,092	0,061
-131,585	62,745	0,074	0,054
-130,570	-62,426	-0,149	-0,045
-129,556	-59,631	0,089	0,027
-128,541	-200,000	0,015	-0,052
-127,526	800,000	0,028	0,084
-126,512	376,929	0,023	0,034
-125,497	-200,000	-0,044	-0,160
-124,483	-162,775	0,045	0,002
-123,468	-200,000	0,020	0,078
-122,453	116,554	0,080	0,071
-121,439	-200,000	-0,001	0,047
-120,424	636,169	-0,047	0,086
-119,410	-186,647	0,105	-0,001
-118,395	19,056	0,187	0,108
-117,380	-200,000	0,001	0,091
-116,366	583,761	0,050	0,089
-115,351	349,853	0,081	0,116
-114,337	800,000	0,035	0,071
-113,322	-156,785	-0,129	0,006
-112,307	46,844	-0,083	0,056
-111,293	-71,787	-0,059	0,016
-110,278	-200,000	0,012	-0,041
-109,264	-200,000	-0,002	-0,069
-108,249	-200,000	-0,017	-0,098
-107,234	146,965	0,095	-0,092
-106,220	45,429	0,137	-0,092
-105,205	-89,469	0,118	-0,025
-104,191	391,064	0,058	0,087
-103,176	121,492	0,040	0,036
-102,162	242,947	-0,128	0,155
-101,147	-200,000	0,053	0,188
-100,132	727,581	-0,031	-0,060
-99,118	-138,706	-0,068	0,005
-98,103	-78,133	0,108	0,027
-97,089	162,976	-0,062	-0,063
-96,074	-81,500	0,126	0,030
-95,059	-200,000	-0,003	-0,022
-94,045	-200,000	0,005	-0,024
-93,030	-28,135	-0,130	-0,054
-92,016	45,946	-0,084	0,056
-91,001	-19,043	-0,013	0,006
-89,986	800,000	0,034	0,089
-88,972	-128,179	0,020	-0,002
-87,957	800,000	-0,026	-0,072
-86,943	-164,777	-0,046	-0,001
-85,928	-200,000	-0,003	-0,044
-84,913	94,532	-0,121	0,099
-83,899	73,414	-0,020	-0,015
-82,884	-60,888	0,101	-0,031
-81,870	723,087	-0,056	0,109
-80,855	800,000	-0,046	-0,113
-79,840	-144,026	-0,117	-0,008
-78,826	-159,582	0,070	-0,003
-77,811	-138,619	-0,024	-0,002
-76,797	192,188	-0,038	-0,042
-75,782	-184,967	-0,065	-0,001
-74,767	356,681	0,075	0,109
-73,753	176,051	-0,050	-0,053
-72,738	136,576	0,111	-0,105
-71,724	14,188	-0,087	-0,049
-70,709	358,641	-0,056	0,082
-69,694	-200,000	-0,003	0,020
-68,680	170,648	0,071	0,073
-67,665	-38,581	0,014	-0,005
-66,651	309,048	0,068	-0,092
-65,636	-65,583	-0,168	-0,048
-64,622	84,171	-0,067	0,053
-63,607	283,831	-0,148	-0,193
-62,592	-23,916	-0,086	0,037
-61,578	800,000	-0,002	-0,005
-60,563	-162,201	0,162	0,006
-59,549	-31,640	-0,238	0,096
-58,534	-35,342	-1,641	-0,641
-57,519	800,000	-0,521	-1,087
-56,505	-200,000	-1,100	-4,709
-55,490	-147,520	0,652	0,039
-54,476	800,000	5,381	12,178
-53,461	-200,000	15,803	278,394
-52,446	-200,000	702,380	2248,905
-51,432	565,659	1618,703	2845,696
-50,417	122,110	1623,118	1463,258
-49,403	82,888	1283,975	1007,136
-48,388	36,932	1028,324	655,238
-47,373	21,490	990,213	579,879
-46,359	20,450	978,844	569,770
-45,344	18,696	974,738	561,589
-44,330	18,823	973,601	561,328
-43,315	18,581	971,685	559,408
-42,300	18,508	970,723	558,593
-41,286	18,552	969,658	558,103
-40,271	18,449	968,780	557,236
-39,257	18,507	968,118	557,024
-38,242	18,536	967,104	556,515
-37,227	18,430	966,602	555,856
-36,213	18,498	965,528	555,440
-35,198	18,438	964,602	554,690
-34,184	18,522	963,907	554,539
-33,169	18,491	962,985	553,885
-32,154	18,544	961,989	553,465
-31,140	18,562	961,206	553,051
-30,125	18,559	960,434	552,574
-29,111	18,538	959,676	552,049
-28,096	18,508	959,280	551,703
-27,082	18,452	958,645	551,133
-26,067	18,463	957,586	550,537
-25,052	18,487	956,775	550,126
-24,038	18,559	955,892	549,829
-23,023	18,483	955,293	549,218
-22,009	18,525	954,826	549,062
-20,994	18,490	954,185	548,559
-19,979	18,505	953,575	548,236
-18,965	18,468	953,057	547,799
-17,950	18,544	952,138	547,493
-16,936	18,445	951,734	546,919
-15,921	18,459	951,074	546,566
-14,906	18,390	950,336	545,898
-13,892	18,361	949,698	545,416
-12,877	18,417	949,024	545,188
-11,863	18,325	948,350	544,483
-10,848	18,378	947,745	544,284
-9,833	18,479	947,414	544,396
-8,819	18,416	946,510	543,654
-7,804	18,376	946,057	543,245
-6,790	18,423	945,443	543,019
-5,775	18,406	944,957	542,665
-4,760	18,386	944,265	542,181
-3,746	18,387	943,613	541,788
-2,731	18,242	942,893	540,893
-1,717	18,183	942,279	540,333
-0,702	18,211	941,542	539,975
0,313	17,993	940,923	539,743
1,327	21,180	939,069	548,725
2,342	30,290	796,718	489,821
3,356	27,274	449,635	271,884
4,371	-2,680	295,556	148,663
5,386	-6,767	276,925	135,391
6,400	-8,149	271,209	131,295
7,415	-8,554	268,708	129,698
8,429	-8,002	267,395	129,560
9,444	-8,171	266,713	129,064
10,459	-8,083	265,947	128,762
11,473	-8,384	265,443	128,232
12,488	-8,755	265,061	127,697
13,502	-8,594	264,372	127,501
14,517	-8,466	263,835	127,347
15,531	-8,445	263,461	127,174
16,546	-8,493	263,435	127,106
17,561	-8,579	262,984	126,800
18,575	-8,231	262,458	126,849
19,590	-8,557	262,085	126,363
20,604	-8,510	261,885	126,298
21,619	-8,372	261,404	126,179
22,634	-8,446	261,205	126,005
23,648	-8,513	260,887	125,780
24,663	-8,409	260,674	125,759
25,677	-8,553	260,334	125,455
26,692	-8,443	260,054	125,408
27,707	-8,413	259,890	125,344
28,721	-8,351	259,569	125,234
29,736	-8,632	259,395	124,888
30,750	-8,502	258,980	124,793
31,765	-8,500	258,792	124,692
32,780	-8,477	258,457	124,541
33,794	-8,339	258,347	124,599
34,809	-8,576	258,173	124,294
35,823	-8,566	257,871	124,146
36,838	-8,694	257,610	123,897
37,853	-8,573	257,393	123,887
38,867	-8,574	257,110	123,740
39,882	-8,588	256,878	123,605
40,896	-8,456	256,687	123,618
41,911	-8,689	256,625	123,372
42,926	-8,584	256,316	123,304
43,940	-8,570	255,918	123,115
44,955	-8,532	255,692	123,028
45,969	-8,625	255,594	122,888
46,984	-9,088	255,318	122,340
47,999	-9,180	254,989	122,091
49,013	-9,262	254,677	121,858
50,028	-9,270	254,597	121,802
51,042	-9,509	254,288	121,436
52,057	-9,425	253,921	121,323
53,071	-9,469	253,833	121,231
54,086	-9,440	253,511	121,091
55,101	-9,167	253,446	121,287
56,115	-9,048	253,434	121,374
57,130	-8,596	253,316	121,699
58,144	-8,272	253,048	121,841
59,159	-8,468	252,990	121,631
60,174	-8,481	252,760	121,499
61,188	-8,590	252,580	121,307
62,203	-8,667	252,262	121,077
63,217	-8,512	252,158	121,150
64,232	-8,349	251,819	121,117
65,247	-8,438	251,728	120,986
66,261	-8,454	251,334	120,772
67,276	-8,728	251,024	120,377
68,290	-8,976	250,973	120,128
69,305	-8,995	250,529	119,889
70,320	-9,064	250,391	119,753
71,334	-8,639	250,265	120,046
72,349	-8,377	250,158	120,209
73,363	-8,199	249,878	120,215
74,378	-8,360	249,688	119,976
75,393	-8,367	249,583	119,909
76,407	-8,526	249,258	119,607
77,422	-8,420	249,123	119,621
78,436	-8,427	248,934	119,513
79,451	-8,430	248,805	119,439
80,466	-8,740	248,415	118,978
81,480	-8,695	248,101	118,855
82,495	-8,804	247,978	118,693
83,509	-8,687	247,805	118,698
84,524	-8,666	247,639	118,626
85,539	-8,971	247,396	118,241
86,553	-8,868	247,214	118,230
87,568	-8,958	246,955	118,020
88,582	-8,688	246,774	118,150
89,597	-8,845	246,646	117,947
90,611	-8,784	246,645	117,987
91,626	-8,584	246,458	118,055
92,641	-8,724	246,409	117,903
93,655	-8,671	246,131	117,804
94,670	-8,711	245,737	117,572
95,684	-8,781	245,674	117,472
96,699	-8,646	245,538	117,511
97,714	-8,820	245,341	117,260
98,728	-8,849	245,027	117,076
99,743	-9,063	244,910	116,829
100,757	-9,038	244,676	116,729
101,772	-8,993	244,548	116,695
102,787	-8,822	244,277	116,698
103,801	-8,605	244,093	116,780
104,816	-8,897	244,070	116,516
105,830	-8,719	243,954	116,597
106,845	-8,496	243,636	116,621
107,860	-8,588	243,503	116,471
108,874	-8,678	243,256	116,267
109,889	-8,842	243,035	116,016
110,903	-8,765	242,833	115,972
111,918	-8,803	242,614	115,826
112,933	-8,784	242,376	115,717
113,947	-8,635	242,456	115,868
114,962	-8,710	242,202	115,675
115,976	-8,611	241,973	115,637
116,991	-8,694	241,958	115,551
118,006	-8,502	241,597	115,527
119,020	-8,550	241,448	115,405
120,035	-8,623	241,390	115,307
121,049	-8,298	241,091	115,421
122,064	-8,603	241,035	115,134
123,079	-8,672	240,849	114,978
124,093	-8,818	240,727	114,789
125,108	-8,910	240,421	114,558
126,122	-9,083	240,128	114,267
127,137	-9,142	240,047	114,170
128,151	-8,931	239,736	114,184
129,166	-8,908	239,774	114,210
130,181	-8,946	239,478	114,029
131,195	-8,979	239,250	113,883
132,210	-8,684	239,182	114,081
133,224	-8,580	238,876	114,009
134,239	-8,385	238,839	114,140
135,254	-8,791	238,762	113,763
136,268	-8,786	238,391	113,580
137,283	-9,006	238,160	113,282
138,297	-9,075	237,987	113,134
139,312	-8,917	237,772	113,149
140,327	-8,824	237,930	113,289
141,341	-8,334	237,737	113,583
142,356	-8,255	237,453	113,502
143,370	-8,196	237,436	113,531
144,385	-8,199	237,254	113,431
145,400	-8,284	237,000	113,231
146,414	-8,156	236,820	113,238
147,429	-8,286	236,676	113,055
148,443	-8,464	236,596	112,863
149,458	-8,258	236,300	112,877
150,473	-8,385	236,162	112,700
151,487	-8,484	235,843	112,458
152,502	-8,400	235,901	112,543
153,516	-8,506	235,757	112,379
154,531	-8,356	235,651	112,439
155,546	-8,234	235,224	112,322
156,560	-8,528	235,213	112,072
157,575	-8,560	234,889	111,882
158,589	-8,537	234,609	111,757
159,604	-8,350	234,603	111,894
160,619	-8,372	234,665	111,896
161,633	-8,125	234,393	111,953
162,648	-8,410	234,300	111,671
163,662	-8,246	234,085	111,689
164,677	-8,513	234,009	111,431
165,692	-8,295	233,672	111,433
166,706	-8,110	233,644	111,556
167,721	-8,025	233,553	111,571
168,735	-8,206	233,411	111,349
169,750	-8,388	233,324	111,154
170,764	-8,422	233,074	110,998
171,779	-8,458	232,893	110,874
172,794	-8,272	232,723	110,930
173,808	-8,322	232,430	110,741
174,823	-8,940	232,148	110,110
175,837	-8,894	231,888	110,012
176,852	-8,516	231,869	110,291
177,867	-8,432	231,855	110,341
178,881	-8,398	231,794	110,329
179,896	-8,286	231,674	110,349
180,910	-8,164	231,429	110,319
181,925	-8,163	231,409	110,300
182,940	-8,275	231,188	110,097
183,954	-8,418	231,052	109,911
184,969	-8,185	230,980	110,049
185,983	-8,002	230,792	110,093
186,998	-7,882	230,311	109,947
188,013	-8,012	230,361	109,860
189,027	-8,165	230,267	109,686
190,042	-8,145	230,139	109,631
191,056	-8,160	230,056	109,569
192,071	-8,016	229,813	109,556
193,086	-8,300	229,568	109,209
194,100	-8,185	229,488	109,250
195,115	-8,391	229,119	108,905
196,129	-9,370	228,871	108,019
197,144	-4,471	230,265	112,483
198,159	1,079	232,080	117,703
199,173	3,225	232,392	119,528
200,188	3,332	232,537	119,675
201,202	3,325	232,333	119,554
202,217	3,804	232,271	119,885
203,232	3,861	232,109	119,835
204,246	3,707	232,020	119,659
205,261	4,104	231,831	119,860
206,275	4,271	231,795	119,961
207,290	4,397	231,635	119,965
208,304	4,257	231,436	119,743
209,319	4,300	231,252	119,670
210,334	4,132	231,131	119,466
211,348	3,761	230,880	119,038
212,363	3,484	230,625	118,682
213,377	3,201	230,341	118,306
214,392	3,337	230,175	118,316
215,407	3,487	229,908	118,284
216,421	3,547	230,062	118,399
217,436	3,194	229,795	117,978
218,450	3,050	229,580	117,746
219,465	3,028	229,403	117,628
220,480	3,197	229,241	117,665
221,494	3,174	229,091	117,560
222,509	3,350	229,075	117,676
223,523	3,199	228,981	117,502
224,538	3,358	228,610	117,423
225,553	3,432	228,559	117,443
226,567	3,591	228,379	117,462
227,582	3,799	228,370	117,606
228,596	3,695	228,418	117,540
229,611	3,577	227,956	117,202
230,626	3,186	227,782	116,803
231,640	3,036	227,756	116,665
232,655	3,536	227,617	116,965
233,669	4,100	227,530	117,340
234,684	3,857	227,464	117,110
235,699	3,773	227,249	116,925
236,713	3,699	226,834	116,645
237,728	3,438	226,769	116,402
238,742	3,347	226,511	116,191
239,757	3,309	226,400	116,094
240,772	3,264	226,337	116,018
241,786	3,268	226,120	115,900
242,801	3,454	226,052	115,995
243,815	3,810	226,036	116,246
244,830	3,735	225,925	116,122
245,844	3,616	225,698	115,905
246,859	3,424	225,444	115,619
247,874	3,679	225,297	115,726
248,888	3,655	225,310	115,704
249,903	3,422	225,110	115,415
250,917	3,372	225,023	115,323
251,932	3,406	224,732	115,189
252,947	3,264	224,662	115,036
253,961	3,167	224,340	114,789
254,976	3,287	224,337	114,866
255,990	3,485	224,342	115,007
257,005	3,664	224,208	115,063
258,020	3,782	223,931	114,999
259,034	3,811	223,907	114,998
260,049	3,839	223,725	114,915
261,063	3,339	223,591	114,462
262,078	3,670	223,389	114,596
263,093	3,854	223,212	114,632
264,107	3,674	223,132	114,447
265,122	3,488	223,032	114,247
266,136	3,669	222,941	114,324
267,151	3,676	222,696	114,194
268,166	3,388	222,373	113,804
269,180	3,245	222,265	113,633
270,195	3,368	222,184	113,672
271,209	3,267	221,999	113,492
272,224	3,321	221,827	113,434
273,239	3,449	221,647	113,427
274,253	3,386	221,582	113,337
275,268	3,354	221,233	113,125
276,282	3,193	221,177	112,967
277,297	3,198	221,025	112,883
278,312	3,305	220,975	112,927
279,326	3,280	220,897	112,858
280,341	3,364	220,691	112,805
281,355	3,342	220,538	112,700
282,370	3,483	220,439	112,743
283,384	3,350	220,094	112,459
284,399	3,064	220,038	112,211
285,414	3,088	219,840	112,117
286,428	3,357	219,895	112,332
287,443	3,753	219,657	112,490
288,457	3,673	219,658	112,423
289,472	3,414	219,303	112,042
290,487	2,902	219,013	111,509
291,501	2,939	219,069	111,555
292,516	2,885	218,933	111,437
293,530	3,104	218,839	111,538
294,545	3,075	218,708	111,441
295,560	2,950	218,818	111,396
296,574	3,386	218,458	111,520
297,589	3,515	218,351	111,549
298,603	3,565	218,322	111,561
299,618	3,660	217,965	111,437
300,633	3,529	217,926	111,313
301,647	3,592	217,798	111,283
302,662	3,534	217,861	111,263
303,676	3,408	217,619	111,039
304,691	3,671	217,450	111,132
305,706	3,758	217,322	111,120
306,720	3,519	217,156	110,852
307,735	3,557	216,855	110,716
308,749	3,422	216,686	110,522
309,764	3,490	216,696	110,567
310,779	3,621	216,589	110,597
311,793	3,418	216,340	110,314
312,808	3,265	216,195	110,120
313,822	3,317	216,041	110,069
314,837	3,325	216,243	110,168
315,852	3,223	215,924	109,922
316,866	3,643	215,699	110,099
317,881	3,782	215,667	110,173
318,895	3,618	215,598	110,010
319,910	3,300	215,297	109,619
320,925	3,151	215,114	109,410
321,939	2,693	214,888	108,957
322,954	3,209	214,831	109,287
323,968	3,373	214,859	109,409
324,983	3,355	214,697	109,304
325,997	3,807	214,488	109,511
327,012	3,535	214,316	109,219
328,027	3,501	214,218	109,135
329,041	3,703	214,238	109,279
330,056	4,076	213,993	109,410
331,070	3,457	213,795	108,859
332,085	3,141	213,652	108,553
333,100	3,138	213,555	108,492
334,114	3,438	213,398	108,614
335,129	3,457	213,316	108,576
336,143	3,148	213,254	108,316
337,158	3,374	213,002	108,339
338,173	3,443	212,923	108,338
339,187	3,379	212,524	108,079
340,202	3,295	212,415	107,956
341,216	3,005	212,324	107,695
342,231	3,140	212,204	107,720
343,246	3,049	212,015	107,550
344,260	2,977	211,976	107,470
345,275	3,253	211,933	107,633
346,289	3,424	211,793	107,673
347,304	3,556	211,667	107,692
348,319	3,551	211,561	107,625
349,333	3,378	211,263	107,342
350,348	3,264	211,254	107,248
351,362	3,498	211,097	107,323
352,377	3,523	211,077	107,320
353,392	3,441	210,826	107,126
354,406	3,429	210,661	107,024
355,421	193,952	1344,206	1425,748
356,435	154,823	1482,342	1425,777
