DTS Sentinel unit serial number:	SN410029Multiplexer serial number:	ORYXHardware model number:	OX2-SRSoftware version number:	ORYX F/W v4,00 Oryx Data Collector v3.7.2.0data status	okinstallation	B6 Nyhavnadifferential loss correction	single-endedforward channel	channel 2reverse channel	N/Adate	2023/12/09time	16:00:08forward acquisition time	300,00reverse acquisition time	0,00gamma	499,1914k internal	0,3132k external	0,3132temperature offset calibration	1,0000default loss term (dB/km)	0,3820temperature slope calibration	1,0000multiplexer offset coefficient	1,0000multiplexer slope coefficient	1,0000fibre end	0,00T internal ref (°C)	20,78T ext. ref 1 (°C)	4,70T ext. ref 2 (°C)	4,69length (m)	temperature (°C)	Stokes	anti-Stokes-744,400	-36,275	0,158	-0,063
-743,385	-105,943	-0,243	0,040
-742,371	-200,000	0,044	-0,158
-741,356	-17,225	-0,121	0,056
-740,342	-32,745	-0,072	0,030
-739,327	-161,860	-0,209	0,008
-738,312	800,000	-0,032	-0,093
-737,298	17,152	-0,255	0,150
-736,283	-200,000	-0,006	-0,046
-735,269	1,197	-0,338	0,180
-734,254	525,047	0,045	-0,079
-733,239	-162,368	-0,321	-0,012
-732,225	181,922	0,121	0,132
-731,210	-167,348	-0,068	-0,002
-730,196	-135,164	-0,015	-0,001
-729,181	129,848	-0,042	0,040
-728,167	-64,199	0,038	0,011
-727,152	174,267	-0,033	0,035
-726,137	800,000	0,033	-0,079
-725,123	62,371	-0,147	-0,109
-724,108	16,176	0,074	-0,043
-723,094	800,000	0,053	-0,113
-722,079	71,563	-0,148	-0,114
-721,064	-115,275	0,074	0,010
-720,050	9,227	-0,083	-0,046
-719,035	-94,751	-0,147	-0,029
-718,021	-51,358	-0,053	0,018
-717,006	185,627	-0,044	-0,049
-715,991	-92,441	0,083	0,017
-714,977	-184,500	0,143	-0,002
-713,962	-154,636	0,048	-0,002
-712,948	-21,076	-0,073	-0,033
-711,933	-144,483	-0,092	-0,006
-710,918	103,744	-0,015	-0,013
-709,904	-200,000	-0,007	0,038
-708,889	-14,928	-0,100	0,047
-707,875	800,000	0,009	-0,019
-706,860	-200,000	0,019	-0,096
-705,845	-200,000	-0,015	-0,094
-704,831	476,191	0,032	-0,054
-703,816	27,215	-0,079	-0,049
-702,802	-129,809	-0,095	-0,010
-701,787	-200,000	0,009	0,148
-700,772	800,000	-0,033	-0,078
-699,758	-24,042	-0,074	-0,033
-698,743	-200,000	-0,040	0,133
-697,729	800,000	0,036	0,098
-696,714	-200,000	0,003	0,074
-695,699	5,337	0,064	0,035
-694,685	-200,000	0,026	-0,163
-693,670	800,000	-0,026	-0,071
-692,656	393,071	0,043	0,067
-691,641	99,699	-0,031	-0,027
-690,627	-200,000	-0,015	-0,055
-689,612	-165,383	-0,120	-0,004
-688,597	-107,211	0,151	0,024
-687,583	-83,717	0,053	0,012
-686,568	-35,240	-0,174	-0,070
-685,554	137,491	0,042	0,041
-684,539	422,560	0,040	-0,064
-683,524	-200,000	-0,006	0,105
-682,510	-64,006	0,074	-0,022
-681,495	0,928	-0,080	-0,042
-680,481	-200,000	0,041	-0,241
-679,466	-123,143	-0,174	-0,020
-678,451	-200,000	-0,014	0,086
-677,437	800,000	-0,018	0,041
-676,422	-28,926	-0,079	-0,034
-675,408	74,033	-0,074	0,057
-674,393	253,572	-0,084	0,106
-673,378	218,885	-0,052	0,061
-672,364	121,004	0,025	-0,023
-671,349	-154,938	-0,026	-0,001
-670,335	39,213	0,084	-0,056
-669,320	117,327	0,080	0,073
-668,305	-200,000	-0,001	-0,111
-667,291	-83,540	-0,009	0,002
-666,276	-200,000	0,021	-0,178
-665,262	199,724	-0,127	-0,144
-664,247	145,727	-0,085	-0,084
-663,232	-52,868	-0,092	-0,031
-662,218	-36,365	0,088	-0,035
-661,203	-34,195	0,031	-0,012
-660,189	726,039	-0,020	0,039
-659,174	364,258	0,022	-0,032
-658,159	199,227	-0,059	-0,067
-657,145	124,549	0,055	-0,051
-656,130	-184,961	0,061	0,001
-655,116	800,000	-0,068	0,156
-654,101	-72,515	-0,121	0,033
-653,086	-92,205	-0,171	-0,035
-652,072	-70,186	0,052	0,014
-651,057	-3,218	-0,075	0,039
-650,043	40,394	-0,100	-0,067
-649,028	-11,573	0,029	-0,014
-648,014	-58,002	-0,046	0,015
-646,999	-200,000	0,011	-0,083
-645,984	405,827	-0,081	0,127
-644,970	-200,000	0,011	0,042
-643,955	44,904	0,065	-0,044
-642,941	-106,861	-0,036	-0,006
-641,926	640,621	0,061	0,115
-640,911	-106,178	0,124	-0,020
-639,897	250,118	0,059	0,075
-638,882	339,922	0,059	0,085
-637,868	30,438	0,068	-0,043
-636,853	49,375	-0,050	0,035
-635,838	-200,000	-0,002	0,026
-634,824	52,438	-0,050	0,035
-633,809	-2,311	-0,111	-0,057
-632,795	800,000	-0,028	-0,064
-631,780	154,714	-0,031	-0,031
-630,765	161,835	-0,135	-0,140
-629,751	54,859	0,027	0,020
-628,736	5,740	-0,088	-0,048
-627,722	-131,966	-0,040	-0,004
-626,707	-71,914	-0,139	-0,038
-625,692	117,006	0,115	0,104
-624,678	-200,000	0,007	-0,072
-623,663	-146,584	0,023	0,001
-622,649	55,848	-0,061	0,044
-621,634	-25,957	-0,156	-0,068
-620,619	67,336	0,044	0,034
-619,605	-200,000	-0,013	0,065
-618,590	-154,261	0,054	-0,003
-617,576	800,000	-0,023	0,062
-616,561	208,775	-0,084	0,097
-615,546	-200,000	-0,001	-0,214
-614,532	-77,114	-0,089	0,023
-613,517	178,797	-0,063	0,068
-612,503	610,903	-0,061	-0,112
-611,488	-200,000	0,026	0,090
-610,474	154,427	-0,071	-0,072
-609,459	276,678	0,054	-0,071
-608,444	800,000	-0,047	-0,126
-607,430	-0,372	0,070	-0,037
-606,415	-200,000	0,004	-0,070
-605,401	147,339	-0,082	0,082
-604,386	128,242	-0,021	0,020
-603,371	-75,855	0,160	-0,042
-602,357	9,032	-0,076	-0,042
-601,342	639,392	-0,073	-0,138
-600,328	85,101	-0,094	0,076
-599,313	55,683	0,038	-0,027
-598,298	-128,425	-0,218	-0,023
-597,284	-97,621	-0,074	0,014
-596,269	-200,000	0,006	0,039
-595,255	88,710	-0,069	-0,057
-594,240	135,980	0,069	-0,066
-593,225	-200,000	0,011	-0,141
-592,211	-200,000	0,012	-0,058
-591,196	210,839	-0,082	0,095
-590,182	-200,000	-0,004	0,045
-589,167	-95,171	0,088	-0,017
-588,152	148,487	0,038	-0,038
-587,138	-9,765	-0,174	0,085
-586,123	-23,091	-0,179	0,079
-585,109	23,588	-0,080	-0,048
-584,094	632,093	-0,012	0,023
-583,079	800,000	0,013	0,036
-582,065	-83,307	-0,052	-0,012
-581,050	-200,000	-0,021	0,163
-580,036	-88,165	-0,116	0,026
-579,021	369,418	0,027	0,040
-578,006	-144,126	0,088	-0,006
-576,992	707,555	-0,050	0,099
-575,977	-200,000	-0,007	0,108
-574,963	-200,000	-0,001	0,007
-573,948	18,717	0,022	-0,013
-572,934	-23,821	-0,093	0,041
-571,919	560,634	-0,075	0,135
-570,904	-104,071	-0,065	-0,011
-569,890	-200,000	0,013	-0,068
-568,875	-200,000	-0,020	0,108
-567,861	139,618	0,096	0,093
-566,846	-200,000	0,003	-0,021
-565,831	-26,890	-0,089	0,038
-564,817	151,272	0,045	-0,045
-563,802	766,148	0,058	-0,116
-562,788	-200,000	-0,011	-0,037
-561,773	536,292	0,049	-0,086
-560,758	-50,124	-0,082	-0,028
-559,744	128,177	0,132	0,124
-558,729	-14,368	-0,135	0,064
-557,715	129,664	0,028	0,026
-556,700	305,722	-0,065	-0,090
-555,685	332,597	-0,080	0,114
-554,671	5,332	-0,056	0,030
-553,656	-81,813	0,091	-0,022
-552,642	-140,803	-0,181	0,014
-551,627	257,325	-0,104	0,132
-550,612	-88,925	-0,124	0,027
-549,598	800,000	0,023	0,048
-548,583	800,000	0,030	0,068
-547,569	-200,000	0,004	0,036
-546,554	-200,000	0,030	-0,120
-545,539	97,343	-0,101	-0,085
-544,525	800,000	0,027	0,085
-543,510	-108,825	-0,038	-0,006
-542,496	354,312	0,038	0,055
-541,481	800,000	0,011	-0,030
-540,466	69,170	0,097	0,073
-539,452	731,480	0,030	0,060
-538,437	94,166	-0,086	0,072
-537,423	75,931	-0,059	0,046
-536,408	800,000	0,019	0,049
-535,393	3,583	-0,099	0,053
-534,379	226,498	-0,022	0,027
-533,364	-200,000	0,004	-0,114
-532,350	51,890	0,106	-0,074
-531,335	800,000	0,061	0,152
-530,321	-20,788	0,057	0,026
-529,306	-78,026	0,063	-0,016
-528,291	-100,187	-0,040	-0,007
-527,277	617,860	-0,025	0,047
-526,262	117,691	0,057	-0,052
-525,248	-108,572	0,082	-0,013
-524,233	-200,000	-0,017	0,062
-523,218	800,000	-0,053	0,132
-522,204	494,924	0,040	0,068
-521,189	700,801	0,037	-0,072
-520,175	800,000	0,013	0,035
-519,160	4,896	-0,101	0,054
-518,145	-200,000	-0,010	-0,106
-517,131	-26,682	0,128	0,055
-516,116	-95,175	0,127	-0,025
-515,102	800,000	-0,081	-0,177
-514,087	-128,879	-0,020	-0,002
-513,072	800,000	0,014	0,039
-512,058	274,130	-0,018	-0,024
-511,043	734,170	0,026	-0,052
-510,029	410,892	-0,027	-0,042
-509,014	-4,620	0,050	0,025
-507,999	-195,900	-0,137	0,001
-506,985	-200,000	-0,002	-0,027
-505,970	-11,275	0,020	-0,010
-504,956	-1,639	-0,107	-0,055
-503,941	800,000	-0,015	0,049
-502,926	117,295	-0,027	-0,024
-501,912	378,921	0,039	0,060
-500,897	-124,664	-0,130	0,015
-499,883	-200,000	-0,025	-0,114
-498,868	800,000	-0,023	0,053
-497,853	402,892	-0,076	-0,118
-496,839	623,046	0,050	-0,093
-495,824	14,116	0,118	0,067
-494,810	-200,000	0,029	0,198
-493,795	84,624	-0,064	-0,051
-492,781	-16,996	0,118	-0,055
-491,766	-112,063	0,019	0,003
-490,751	207,605	-0,087	-0,100
-489,737	589,118	0,043	-0,078
-488,722	-152,697	-0,062	-0,003
-487,708	800,000	-0,027	-0,074
-486,693	800,000	-0,066	-0,152
-485,678	800,000	0,019	-0,059
-484,664	-200,000	-0,006	-0,098
-483,649	-200,000	0,000	0,039
-482,635	17,726	0,232	0,136
-481,620	62,923	0,071	0,053
-480,605	-200,000	0,020	0,117
-479,591	-141,080	-0,194	0,014
-478,576	-83,926	0,117	-0,027
-477,562	158,395	-0,095	-0,097
-476,547	-200,000	0,004	-0,015
-475,532	-130,994	-0,036	0,004
-474,518	-200,000	0,016	-0,113
-473,503	327,554	0,073	0,104
-472,489	-200,000	0,012	0,123
-471,474	258,071	-0,048	-0,061
-470,459	800,000	-0,026	-0,073
-469,445	800,000	0,037	-0,106
-468,430	-200,000	0,000	-0,147
-467,416	168,008	-0,073	0,076
-466,401	-96,286	0,080	-0,015
-465,386	35,651	-0,093	0,060
-464,372	-63,241	-0,041	0,012
-463,357	-104,115	-0,012	-0,002
-462,343	-200,000	0,006	0,022
-461,328	236,654	-0,034	0,042
-460,313	-200,000	0,013	0,064
-459,299	-200,000	-0,000	-0,018
-458,284	-152,033	0,137	0,007
-457,270	-52,496	0,194	-0,065
-456,255	78,211	-0,155	-0,121
-455,241	235,706	-0,064	-0,078
-454,226	247,533	0,066	0,082
-453,211	-64,096	-0,090	-0,027
-452,197	-200,000	-0,017	0,147
-451,182	-200,000	0,033	0,128
-450,168	-200,000	0,005	-0,125
-449,153	90,948	-0,072	0,060
-448,138	800,000	0,021	-0,064
-447,124	616,011	-0,059	-0,109
-446,109	-93,298	0,020	0,004
-445,095	800,000	0,061	0,168
-444,080	158,452	0,061	-0,062
-443,065	-149,507	0,071	-0,004
-442,051	199,052	-0,060	-0,068
-441,036	-62,873	-0,097	-0,029
-440,022	206,059	0,095	-0,109
-439,007	338,738	0,052	-0,074
-437,992	494,401	0,043	-0,072
-436,978	167,951	0,029	-0,030
-435,963	-46,963	0,079	0,028
-434,949	-82,630	-0,079	0,019
-433,934	-168,044	-0,052	-0,001
-432,919	-36,677	-0,131	-0,051
-431,905	98,435	0,083	-0,070
-430,890	-200,000	0,007	-0,047
-429,876	84,942	0,010	0,008
-428,861	12,450	-0,072	0,041
-427,846	336,037	-0,027	-0,038
-426,832	102,420	0,011	-0,010
-425,817	33,567	0,019	0,012
-424,803	-200,000	0,020	0,137
-423,788	11,137	0,160	0,089
-422,773	604,920	0,028	0,051
-421,759	-94,255	0,085	0,017
-420,744	218,244	0,004	-0,005
-419,730	390,262	-0,034	-0,051
-418,715	98,857	-0,054	-0,045
-417,701	800,000	-0,053	0,123
-416,686	-42,885	0,090	0,034
-415,671	-21,570	0,028	0,012
-414,657	-60,817	-0,044	0,014
-413,642	88,919	-0,054	-0,044
-412,628	108,847	-0,037	0,032
-411,613	-15,738	-0,074	0,035
-410,598	457,739	-0,043	-0,070
-409,584	47,104	0,061	-0,042
-408,569	-200,000	0,014	0,054
-407,555	2,329	0,125	0,066
-406,540	-200,000	-0,035	-0,202
-405,525	356,472	-0,051	-0,074
-404,511	-87,150	0,067	-0,015
-403,496	-200,000	0,007	0,060
-402,482	-65,569	-0,150	0,044
-401,467	-81,426	0,072	0,017
-400,452	-35,186	0,080	0,032
-399,438	-200,000	0,000	-0,017
-398,423	-78,604	-0,099	-0,025
-397,409	-200,000	0,019	-0,107
-396,394	17,452	0,062	-0,036
-395,379	51,366	-0,041	-0,028
-394,365	-164,354	0,011	0,000
-393,350	87,399	-0,074	0,060
-392,336	-25,962	0,072	0,031
-391,321	-200,000	-0,001	-0,034
-390,306	474,685	-0,031	-0,051
-389,292	534,544	-0,046	-0,081
-388,277	-43,634	0,129	0,047
-387,263	581,426	0,024	0,043
-386,248	800,000	0,019	-0,047
-385,233	-200,000	-0,016	0,059
-384,219	800,000	-0,033	-0,105
-383,204	-179,265	-0,064	-0,001
-382,190	-200,000	-0,046	0,174
-381,175	800,000	0,046	0,126
-380,160	169,624	0,124	0,130
-379,146	29,071	-0,070	-0,044
-378,131	800,000	0,016	0,042
-377,117	140,353	0,087	0,084
-376,102	318,993	0,039	-0,054
-375,088	324,221	0,060	-0,084
-374,073	396,031	0,006	0,009
-373,058	-77,402	0,050	-0,013
-372,044	800,000	-0,032	-0,082
-371,029	-106,509	-0,093	-0,015
-370,015	-102,394	-0,148	-0,026
-369,000	276,309	-0,020	-0,027
-367,985	-200,000	-0,004	-0,115
-366,971	-200,000	0,006	-0,035
-365,956	136,151	-0,140	0,133
-364,942	152,507	0,079	0,079
-363,927	-200,000	-0,002	0,050
-362,912	-200,000	-0,028	0,149
-361,898	-121,630	0,174	-0,021
-360,883	-200,000	-0,023	-0,184
-359,869	110,429	-0,082	-0,072
-358,854	88,793	0,102	-0,083
-357,839	21,969	0,196	0,117
-356,825	76,294	-0,054	0,042
-355,810	-200,000	-0,012	-0,085
-354,796	332,841	0,036	-0,051
-353,781	-48,273	0,055	0,019
-352,766	492,597	-0,077	-0,130
-351,752	800,000	0,005	-0,012
-350,737	800,000	0,056	-0,180
-349,723	734,399	0,022	0,043
-348,708	-46,295	0,082	-0,030
-347,693	30,397	-0,008	0,005
-346,679	-42,044	0,061	-0,023
-345,664	-200,000	0,001	0,136
-344,650	153,362	0,073	0,073
-343,635	-176,504	0,062	-0,001
-342,620	800,000	0,005	0,014
-341,606	-64,608	0,099	0,029
-340,591	-115,190	-0,148	0,020
-339,577	116,283	-0,156	-0,140
-338,562	-153,212	-0,046	0,002
-337,548	339,516	-0,040	-0,057
-336,533	270,518	0,033	-0,042
-335,518	-88,394	0,081	0,018
-334,504	220,184	-0,028	0,032
-333,489	56,516	0,023	0,017
-332,475	377,688	0,028	-0,042
-331,460	-200,000	0,011	-0,192
-330,445	462,672	-0,014	0,024
-329,431	-51,145	0,048	0,016
-328,416	-200,000	0,012	0,101
-327,402	75,652	-0,108	-0,084
-326,387	-6,900	0,158	-0,078
-325,372	-200,000	-0,008	0,072
-324,358	800,000	-0,093	0,192
-323,343	229,816	-0,024	-0,029
-322,329	202,565	0,020	0,022
-321,314	153,468	0,065	0,065
-320,299	-200,000	-0,014	0,067
-319,285	-200,000	-0,013	0,056
-318,270	57,377	-0,074	-0,053
-317,256	-200,000	-0,007	-0,049
-316,241	134,130	0,124	-0,118
-315,226	-200,000	-0,006	0,033
-314,212	-60,202	0,216	-0,067
-313,197	66,197	-0,026	-0,019
-312,183	-74,972	0,075	-0,020
-311,168	63,837	-0,096	-0,070
-310,153	-200,000	-0,025	0,088
-309,139	-73,916	0,061	0,016
-308,124	-97,555	0,093	0,018
-307,110	-200,000	0,027	-0,183
-306,095	-121,415	-0,012	0,001
-305,080	-145,892	0,160	0,010
-304,066	-115,266	0,017	0,002
-303,051	800,000	-0,036	-0,096
-302,037	800,000	0,023	-0,064
-301,022	-200,000	-0,019	0,153
-300,008	-99,086	0,071	0,013
-298,993	83,852	0,067	0,054
-297,978	-102,075	0,105	0,018
-296,964	492,222	0,005	-0,008
-295,949	-123,627	-0,089	-0,010
-294,935	102,492	0,052	-0,045
-293,920	-22,824	0,095	0,042
-292,905	-72,828	0,147	0,039
-291,891	800,000	-0,030	0,067
-290,876	-200,000	-0,016	0,120
-289,862	-155,632	-0,078	-0,004
-288,847	197,808	-0,088	-0,098
-287,832	-22,897	-0,121	-0,053
-286,818	-16,311	0,063	0,029
-285,803	-91,106	0,070	-0,015
-284,789	7,387	0,085	0,046
-283,774	-200,000	-0,013	0,157
-282,759	800,000	-0,009	-0,021
-281,745	-66,947	-0,075	0,022
-280,730	649,428	-0,091	-0,171
-279,716	25,374	0,133	0,081
-278,701	-114,845	0,149	0,020
-277,686	-134,257	-0,120	0,011
-276,672	-142,623	0,059	0,004
-275,657	377,034	0,009	0,014
-274,643	-67,464	0,154	-0,044
-273,628	-200,000	-0,034	-0,177
-272,613	-92,014	0,067	0,014
-271,599	-66,201	-0,046	0,013
-270,584	-159,313	-0,074	-0,003
-269,570	-148,963	0,150	-0,009
-268,555	105,709	-0,080	-0,069
-267,540	-122,631	0,179	-0,021
-266,526	216,204	-0,057	0,066
-265,511	-200,000	0,032	-0,114
-264,497	149,189	0,025	-0,025
-263,482	-72,301	0,056	-0,015
-262,467	-200,000	-0,026	0,189
-261,453	-200,000	-0,011	-0,037
-260,438	-142,435	-0,068	0,005
-259,424	54,128	-0,107	0,075
-258,409	174,458	0,051	-0,054
-257,395	81,684	0,051	0,040
-256,380	124,115	0,041	0,038
-255,365	800,000	0,025	0,077
-254,351	-200,000	0,012	0,053
-253,336	800,000	-0,053	-0,124
-252,322	615,444	-0,115	-0,212
-251,307	800,000	0,030	-0,066
-250,292	-102,659	0,069	0,012
-249,278	-200,000	0,006	0,081
-248,263	347,623	-0,043	-0,062
-247,249	-85,220	-0,100	0,023
-246,234	-200,000	0,001	-0,004
-245,219	-200,000	0,004	-0,195
-244,205	-200,000	-0,035	-0,144
-243,190	-200,000	0,018	-0,178
-242,176	-17,954	0,083	-0,038
-241,161	23,226	0,083	0,050
-240,146	800,000	0,026	-0,069
-239,132	311,948	0,028	-0,038
-238,117	-200,000	-0,010	0,057
-237,103	-200,000	0,009	-0,061
-236,088	89,316	-0,135	0,109
-235,073	696,638	0,072	0,138
-234,059	-200,000	-0,041	0,156
-233,044	-200,000	-0,010	0,057
-232,030	-143,151	-0,073	0,005
-231,015	-200,000	0,000	0,055
-230,000	390,741	-0,076	0,115
-228,986	-86,949	-0,062	0,014
-227,971	27,289	0,093	-0,057
-226,957	7,412	0,104	0,056
-225,942	-200,000	0,006	-0,041
-224,927	121,941	-0,085	0,077
-223,913	17,739	0,089	-0,051
-222,898	102,558	-0,103	-0,088
-221,884	-200,000	-0,021	0,103
-220,869	800,000	0,028	-0,077
-219,855	105,259	0,061	-0,052
-218,840	129,119	-0,057	0,053
-217,825	-38,588	-0,146	-0,056
-216,811	-8,829	0,027	0,013
-215,796	800,000	0,036	-0,116
-214,782	-130,741	-0,110	0,011
-213,767	187,980	-0,029	-0,032
-212,752	-200,000	0,013	0,076
-211,738	145,009	-0,038	0,037
-210,723	-200,000	-0,005	0,053
-209,709	-200,000	0,005	-0,101
-208,694	529,821	-0,115	-0,198
-207,679	-133,244	-0,173	-0,016
-206,665	800,000	0,025	-0,067
-205,650	800,000	0,067	0,212
-204,636	-200,000	0,020	0,096
-203,621	501,040	0,053	-0,089
-202,606	-39,828	-0,123	-0,046
-201,592	-200,000	0,009	0,041
-200,577	800,000	0,059	0,137
-199,563	338,162	0,086	0,122
-198,548	-200,000	-0,005	0,128
-197,533	35,043	0,074	-0,047
-196,519	-134,258	-0,047	0,004
-195,504	327,652	0,071	-0,099
-194,490	-200,000	-0,011	-0,070
-193,475	111,830	-0,038	-0,034
-192,460	-119,202	-0,049	0,006
-191,446	15,509	0,068	0,039
-190,431	800,000	0,057	0,133
-189,417	-6,492	0,047	-0,023
-188,402	460,210	0,082	-0,133
-187,387	-71,815	-0,099	0,027
-186,373	-200,000	0,028	-0,129
-185,358	43,903	-0,034	-0,022
-184,344	-200,000	0,006	0,095
-183,329	-200,000	0,014	0,106
-182,315	-200,000	0,003	0,032
-181,300	151,149	-0,086	-0,085
-180,285	-81,196	0,085	0,020
-179,271	130,715	0,021	-0,019
-178,256	-42,834	-0,112	0,041
-177,242	-51,215	0,154	-0,052
-176,227	616,652	-0,077	0,141
-175,212	-84,668	0,045	-0,010
-174,198	154,424	-0,110	0,110
-173,183	800,000	0,043	-0,109
-172,169	168,647	0,028	0,029
-171,154	-200,000	-0,017	0,150
-170,139	800,000	-0,012	-0,034
-169,125	588,384	0,034	-0,061
-168,110	-24,226	0,158	0,068
-167,096	-200,000	-0,027	0,093
-166,081	76,814	-0,046	0,036
-165,066	-10,903	0,072	-0,035
-164,052	800,000	-0,022	0,045
-163,037	-38,664	0,092	-0,035
-162,023	474,997	-0,059	-0,097
-161,008	-40,813	0,078	-0,029
-159,993	704,828	-0,048	0,093
-158,979	-9,512	0,150	0,072
-157,964	170,777	-0,048	-0,049
-156,950	-57,816	0,158	0,050
-155,935	-200,000	-0,010	0,048
-154,920	40,112	-0,069	0,045
-153,906	183,532	0,054	0,058
-152,891	-76,127	0,146	0,037
-151,877	290,441	-0,046	-0,060
-150,862	123,412	0,104	-0,094
-149,847	42,899	-0,188	-0,124
-148,833	-114,650	0,090	-0,012
-147,818	231,985	0,049	-0,058
-146,804	800,000	0,016	-0,042
-145,789	-24,846	0,117	0,050
-144,775	104,461	-0,074	-0,063
-143,760	2,482	-0,013	-0,007
-142,745	157,560	-0,052	0,052
-141,731	112,348	-0,034	0,030
-140,716	293,882	0,065	-0,087
-139,702	393,938	-0,046	0,070
-138,687	86,866	0,112	-0,089
-137,672	39,843	-0,023	0,015
-136,658	295,573	-0,094	-0,125
-135,643	482,657	-0,048	-0,079
-134,629	39,255	0,085	0,055
-133,614	-157,543	0,161	0,007
-132,599	172,149	0,110	-0,115
-131,585	-15,837	-0,028	-0,013
-130,570	148,482	0,061	0,060
-129,556	35,709	-0,079	-0,051
-128,541	-129,564	-0,126	0,012
-127,526	-26,696	-0,029	0,012
-126,512	153,848	-0,068	-0,068
-125,497	428,606	0,094	0,147
-124,483	-200,000	-0,089	-0,000
-123,468	-52,808	-0,107	-0,035
-122,453	-59,301	0,146	-0,045
-121,439	800,000	-0,057	-0,142
-120,424	-200,000	-0,004	-0,079
-119,410	236,223	-0,033	-0,040
-118,395	409,447	-0,013	0,020
-117,380	40,876	0,054	0,035
-116,366	800,000	0,035	0,073
-115,351	-101,822	-0,059	-0,010
-114,337	711,642	-0,071	-0,136
-113,322	197,837	-0,020	0,023
-112,307	56,928	-0,095	-0,067
-111,293	422,390	0,078	0,121
-110,278	-140,284	0,041	0,003
-109,264	78,797	0,045	-0,035
-108,249	207,851	-0,143	0,163
-107,234	440,504	-0,052	-0,082
-106,220	800,000	-0,043	0,097
-105,205	-136,883	-0,051	0,004
-104,191	51,600	0,030	-0,021
-103,176	-115,230	-0,054	-0,007
-102,162	359,475	-0,022	-0,032
-101,147	185,238	0,050	0,054
-100,132	-200,000	0,031	-0,243
-99,118	-200,000	0,001	-0,107
-98,103	-200,000	-0,004	0,016
-97,089	-75,571	0,109	0,028
-96,074	388,419	0,023	-0,035
-95,059	106,547	0,075	0,064
-94,045	132,246	-0,025	-0,023
-93,030	-200,000	-0,004	-0,061
-92,016	-200,000	-0,044	-0,188
-91,001	183,825	0,069	-0,074
-89,986	-73,256	-0,132	0,035
-88,972	-200,000	0,003	0,064
-87,957	-200,000	0,007	0,112
-86,943	-34,905	-0,043	-0,017
-85,928	308,919	0,088	-0,120
-84,913	619,145	-0,068	-0,125
-83,899	261,970	0,072	0,090
-82,884	-89,349	0,086	0,018
-81,870	-21,992	0,012	-0,005
-80,855	800,000	-0,017	-0,045
-79,840	250,343	-0,071	-0,088
-78,826	-200,000	-0,001	0,005
-77,811	106,188	-0,078	-0,067
-76,797	-138,471	0,101	0,008
-75,782	141,647	0,072	-0,069
-74,767	-156,821	0,090	0,004
-73,753	-11,118	-0,026	-0,012
-72,738	-46,671	-0,135	0,048
-71,724	363,386	-0,066	0,096
-70,709	137,598	-0,105	0,099
-69,694	800,000	-0,053	-0,130
-68,680	26,414	0,033	0,020
-67,665	182,621	-0,037	0,040
-66,651	392,564	-0,023	0,034
-65,636	194,127	0,044	0,048
-64,622	217,705	-0,039	0,045
-63,607	516,575	-0,064	-0,109
-62,592	800,000	-0,038	0,111
-61,578	800,000	0,019	0,047
-60,563	50,124	-0,061	-0,042
-59,549	27,269	-0,104	0,063
-58,534	-62,581	-1,511	-0,451
-57,519	594,606	-0,779	-1,400
-56,505	-200,000	-1,065	-4,713
-55,490	-115,907	0,689	-0,092
-54,476	800,000	5,131	11,875
-53,461	-200,000	14,648	261,056
-52,446	-200,000	696,810	2236,659
-51,432	565,132	1621,730	2855,634
-50,417	118,249	1629,046	1453,313
-49,403	75,510	1283,210	979,060
-48,388	37,430	1022,095	654,255
-47,373	23,098	981,530	581,261
-46,359	22,215	970,940	572,079
-45,344	21,040	966,778	565,774
-44,330	20,984	965,271	564,685
-43,315	20,870	963,846	563,459
-42,300	20,838	962,834	562,740
-41,286	20,857	961,879	562,221
-40,271	20,865	960,613	561,486
-39,257	20,828	959,734	560,830
-38,242	20,838	958,968	560,392
-37,227	20,814	958,045	559,754
-36,213	20,778	957,265	559,158
-35,198	20,811	956,170	558,602
-34,184	20,841	955,398	558,227
-33,169	20,704	954,742	557,379
-32,154	20,821	953,936	557,263
-31,140	20,832	952,922	556,685
-30,125	20,889	952,147	556,393
-29,111	20,856	951,352	555,800
-28,096	20,742	950,676	555,019
-27,082	20,803	950,140	554,879
-26,067	20,833	949,152	554,374
-25,052	20,774	948,453	553,757
-24,038	20,812	947,920	553,545
-23,023	20,773	947,306	553,039
-22,009	20,787	946,663	552,688
-20,994	20,864	945,946	552,490
-19,979	20,812	945,354	551,960
-18,965	20,801	944,784	551,569
-17,950	20,895	943,952	551,362
-16,936	20,786	943,320	550,622
-15,921	20,766	942,634	550,138
-14,906	20,674	942,058	549,487
-13,892	20,698	941,589	549,266
-12,877	20,717	940,892	548,901
-11,863	20,648	940,124	548,210
-10,848	20,694	939,680	548,075
-9,833	20,801	939,323	548,185
-8,819	20,742	938,651	547,585
-7,804	20,711	937,974	547,071
-6,790	20,686	937,482	546,682
-5,775	20,781	936,710	546,511
-4,760	20,699	936,221	545,943
-3,746	20,692	935,633	545,557
-2,731	20,601	934,735	544,724
-1,717	20,486	934,165	544,010
-0,702	20,549	933,481	543,788
0,313	20,380	932,843	543,707
1,327	23,408	930,935	552,048
2,342	32,680	793,793	495,325
3,356	30,133	450,992	277,561
4,371	0,033	295,785	151,833
5,386	-4,225	276,961	138,103
6,400	-5,284	271,080	134,171
7,415	-5,955	268,927	132,472
8,429	-5,567	267,600	132,163
9,444	-5,465	266,767	131,834
10,459	-5,571	266,046	131,369
11,473	-5,761	265,412	130,871
12,488	-5,806	264,947	130,589
13,502	-6,071	264,466	130,099
14,517	-5,948	263,939	129,940
15,531	-6,065	263,709	129,709
16,546	-5,821	263,203	129,669
17,561	-6,100	262,968	129,290
18,575	-5,794	262,577	129,362
19,590	-6,070	262,099	128,866
20,604	-5,807	261,861	128,975
21,619	-5,879	261,521	128,731
22,634	-5,916	261,136	128,497
23,648	-6,259	260,936	128,079
24,663	-6,139	260,651	128,035
25,677	-5,997	260,532	128,093
26,692	-6,171	260,201	127,763
27,707	-6,104	259,764	127,597
28,721	-6,138	259,601	127,475
29,736	-6,122	259,439	127,398
30,750	-6,169	259,075	127,167
31,765	-6,112	258,829	127,085
32,780	-5,923	258,583	127,121
33,794	-6,177	258,564	126,874
34,809	-6,103	258,218	126,759
35,823	-6,194	257,916	126,519
36,838	-6,108	257,638	126,447
37,853	-6,054	257,401	126,367
38,867	-6,277	257,284	126,101
39,882	-6,124	257,045	126,108
40,896	-6,175	256,791	125,927
41,911	-6,247	256,583	125,751
42,926	-6,068	256,282	125,750
43,940	-6,247	256,051	125,468
44,955	-6,301	255,931	125,350
45,969	-6,523	255,654	125,008
46,984	-6,292	255,417	125,084
47,999	-6,823	255,124	124,464
49,013	-6,847	254,816	124,281
50,028	-6,928	254,682	124,135
51,042	-7,094	254,331	123,808
52,057	-7,015	254,083	123,745
53,071	-6,716	253,777	123,845
54,086	-6,877	253,669	123,641
55,101	-6,755	253,487	123,648
56,115	-6,548	253,461	123,804
57,130	-5,876	253,340	124,318
58,144	-5,789	253,152	124,290
59,159	-5,797	252,922	124,159
60,174	-5,826	252,659	123,994
61,188	-6,079	252,589	123,729
62,203	-6,009	252,290	123,632
63,217	-6,223	252,172	123,378
64,232	-6,047	251,939	123,405
65,247	-5,909	251,781	123,436
66,261	-6,000	251,388	123,154
67,276	-6,229	251,167	122,838
68,290	-6,399	250,971	122,585
69,305	-6,655	250,845	122,292
70,320	-6,378	250,488	122,345
71,334	-6,270	250,426	122,396
72,349	-5,960	250,371	122,624
73,363	-5,689	250,121	122,723
74,378	-5,982	249,916	122,361
75,393	-6,012	249,586	122,163
76,407	-6,030	249,501	122,095
77,422	-5,970	249,172	121,974
78,436	-6,033	249,074	121,861
79,451	-6,109	248,954	121,727
80,466	-6,149	248,644	121,531
81,480	-6,263	248,259	121,234
82,495	-6,346	248,226	121,137
83,509	-6,369	248,023	121,008
84,524	-6,288	247,754	120,934
85,539	-6,554	247,563	120,605
86,553	-6,360	247,313	120,637
87,568	-6,425	247,207	120,519
88,582	-6,295	247,062	120,548
89,597	-6,261	246,670	120,374
90,611	-6,217	246,826	120,477
91,626	-6,087	246,563	120,448
92,641	-6,149	246,349	120,281
93,655	-5,954	246,125	120,324
94,670	-6,275	246,067	120,015
95,684	-6,142	245,704	119,938
96,699	-6,065	245,628	119,956
97,714	-6,253	245,353	119,653
98,728	-6,399	245,156	119,424
99,743	-6,511	244,903	119,196
100,757	-6,677	244,863	119,028
101,772	-6,422	244,705	119,153
102,787	-6,332	244,280	119,011
103,801	-6,245	244,229	119,048
104,816	-6,340	244,180	118,934
105,830	-6,256	244,043	118,927
106,845	-6,019	243,948	119,067
107,860	-6,122	243,637	118,820
108,874	-6,135	243,392	118,679
109,889	-6,212	243,303	118,560
110,903	-6,310	242,979	118,311
111,918	-6,315	242,806	118,212
112,933	-6,442	242,723	118,056
113,947	-6,204	242,426	118,098
114,962	-6,096	242,394	118,161
115,976	-6,207	242,103	117,917
116,991	-6,130	241,964	117,902
118,006	-6,113	241,722	117,788
119,020	-6,051	241,663	117,800
120,035	-6,187	241,543	117,618
121,049	-6,062	241,443	117,663
122,064	-6,083	241,169	117,501
123,079	-6,032	240,921	117,411
124,093	-6,292	240,721	117,091
125,108	-6,245	240,545	117,033
126,122	-6,371	240,221	116,762
127,137	-6,696	240,107	116,430
128,151	-6,509	240,059	116,549
129,166	-6,412	239,812	116,498
130,181	-6,485	239,665	116,356
131,195	-6,492	239,387	116,206
132,210	-6,269	239,283	116,326
133,224	-6,258	239,279	116,323
134,239	-6,056	238,880	116,283
135,254	-5,874	238,795	116,379
136,268	-6,255	238,566	115,948
137,283	-6,464	238,280	115,629
138,297	-6,555	238,152	115,483
139,312	-6,459	237,961	115,458
140,327	-6,532	238,021	115,417
141,341	-5,869	237,803	115,838
142,356	-5,809	237,693	115,822
143,370	-5,952	237,647	115,674
144,385	-5,600	237,306	115,782
145,400	-5,650	237,257	115,708
146,414	-5,795	237,126	115,517
147,429	-5,887	236,869	115,306
148,443	-5,868	236,713	115,235
149,458	-5,802	236,598	115,222
150,473	-5,662	236,375	115,216
151,487	-5,842	236,241	114,996
152,502	-5,798	236,050	114,929
153,516	-5,690	235,870	114,917
154,531	-5,758	235,831	114,833
155,546	-5,811	235,506	114,622
156,560	-6,093	235,374	114,322
157,575	-5,869	235,081	114,349
158,589	-6,077	234,905	114,087
159,604	-5,539	234,730	114,421
160,619	-5,630	234,681	114,314
161,633	-5,598	234,601	114,290
162,648	-5,681	234,495	114,162
163,662	-5,793	234,131	113,886
164,677	-5,926	234,144	113,777
165,692	-5,842	233,931	113,729
166,706	-5,780	233,782	113,696
167,721	-5,677	233,550	113,655
168,735	-5,658	233,443	113,607
169,750	-5,629	233,258	113,530
170,764	-5,789	233,161	113,347
171,779	-5,709	233,114	113,376
172,794	-5,792	232,932	113,213
173,808	-5,811	232,667	113,059
174,823	-6,263	232,161	112,446
175,837	-6,422	232,156	112,309
176,852	-5,850	232,001	112,674
177,867	-5,769	232,097	112,775
178,881	-5,901	231,951	112,590
179,896	-5,650	231,701	112,655
180,910	-5,669	231,502	112,533
181,925	-5,725	231,387	112,424
182,940	-5,686	231,157	112,333
183,954	-5,695	231,090	112,283
184,969	-5,689	231,146	112,305
185,983	-5,619	230,911	112,235
186,998	-5,720	230,665	112,027
188,013	-5,485	230,468	112,105
189,027	-5,636	230,456	111,972
190,042	-5,428	230,047	111,924
191,056	-5,633	230,189	111,823
192,071	-5,447	229,969	111,852
193,086	-5,672	229,659	111,516
194,100	-5,509	229,540	111,576
195,115	-5,669	229,297	111,323
196,129	-6,133	229,148	110,880
197,144	-2,826	230,000	113,857
198,159	1,075	231,356	117,566
199,173	3,596	231,963	119,835
200,188	4,072	231,908	120,168
201,202	3,957	231,559	119,886
202,217	4,004	231,656	119,962
203,232	4,248	231,485	120,053
204,246	4,239	231,330	119,955
205,261	4,388	231,117	119,949
206,275	4,513	231,214	120,087
207,290	4,607	230,942	120,008
208,304	4,478	230,818	119,833
209,319	4,282	230,643	119,579
210,334	4,470	230,384	119,579
211,348	4,273	230,163	119,301
212,363	3,982	229,891	118,925
213,377	3,742	229,678	118,620
214,392	3,662	229,565	118,489
215,407	3,612	229,521	118,417
216,421	3,703	229,315	118,370
217,436	3,862	228,842	118,237
218,450	3,574	228,883	118,026
219,465	3,381	228,663	117,754
220,480	3,453	228,535	117,733
221,494	3,407	228,535	117,688
222,509	3,726	228,493	117,900
223,523	3,527	228,248	117,610
224,538	3,626	227,958	117,526
225,553	3,512	227,864	117,380
226,567	3,776	227,826	117,552
227,582	3,813	227,829	117,572
228,596	3,918	227,677	117,563
229,611	3,812	227,318	117,286
230,626	3,740	227,084	117,100
231,640	3,608	227,041	116,967
232,655	3,866	226,958	117,111
233,669	4,394	226,830	117,436
234,684	4,277	226,779	117,310
235,699	4,080	226,488	116,999
236,713	3,793	226,435	116,743
237,728	3,622	226,202	116,483
238,742	3,685	226,017	116,425
239,757	3,680	225,821	116,310
240,772	3,681	225,501	116,136
241,786	3,421	225,455	115,905
242,801	3,755	225,532	116,186
243,815	3,984	225,461	116,313
244,830	4,103	225,162	116,238
245,844	3,787	225,121	115,968
246,859	3,591	224,781	115,635
247,874	3,841	224,772	115,808
248,888	4,037	224,554	115,833
249,903	3,949	224,345	115,649
250,917	3,723	224,408	115,501
251,932	3,644	224,142	115,295
252,947	3,636	223,779	115,092
253,961	3,624	223,717	115,041
254,976	3,742	223,661	115,090
255,990	3,842	223,414	115,028
257,005	4,116	223,411	115,220
258,020	3,905	223,290	114,991
259,034	4,434	223,151	115,304
260,049	4,111	223,085	115,017
261,063	3,987	222,915	114,827
262,078	3,910	222,852	114,727
263,093	4,093	222,713	114,782
264,107	4,048	222,465	114,610
265,122	4,133	222,304	114,580
266,136	4,330	222,189	114,658
267,151	4,238	222,025	114,494
268,166	3,792	221,670	113,970
269,180	3,485	221,617	113,705
270,195	3,590	221,470	113,698
271,209	3,625	221,295	113,624
272,224	3,557	221,246	113,538
273,239	3,958	221,074	113,736
274,253	3,664	220,815	113,375
275,268	3,522	220,713	113,208
276,282	3,434	220,477	113,012
277,297	3,432	220,429	112,976
278,312	3,561	220,550	113,123
279,326	3,640	220,273	113,029
280,341	3,676	220,103	112,958
281,355	3,719	220,013	112,934
282,370	3,894	219,652	112,866
283,384	3,418	219,682	112,522
284,399	3,143	219,431	112,182
285,414	3,474	219,257	112,326
286,428	3,504	219,246	112,332
287,443	3,722	219,141	112,428
288,457	3,697	218,955	112,304
289,472	3,744	218,714	112,205
290,487	3,449	218,389	111,813
291,501	3,315	218,391	111,706
292,516	3,457	218,231	111,718
293,530	3,209	218,218	111,521
294,545	3,335	217,978	111,480
295,560	3,548	217,962	111,617
296,574	3,719	217,856	111,677
297,589	3,667	217,739	111,569
298,603	3,673	217,620	111,502
299,618	3,616	217,381	111,329
300,633	3,818	217,278	111,413
301,647	4,065	217,192	111,537
302,662	3,919	217,067	111,357
303,676	4,018	216,817	111,291
304,691	3,820	216,666	111,060
305,706	3,765	216,557	110,955
306,720	4,019	216,511	111,105
307,735	4,199	216,279	111,105
308,749	3,790	216,141	110,730
309,764	3,820	216,110	110,726
310,779	3,990	215,947	110,755
311,793	4,038	215,644	110,624
312,808	3,864	215,646	110,491
313,822	3,759	215,599	110,381
314,837	3,788	215,279	110,228
315,852	3,603	215,013	109,950
316,866	3,545	215,106	109,946
317,881	3,733	214,982	110,007
318,895	3,972	214,838	110,095
319,910	3,568	214,662	109,706
320,925	3,532	214,473	109,573
321,939	3,146	214,295	109,197
322,954	3,329	214,157	109,248
323,968	3,741	214,117	109,512
324,983	3,802	214,021	109,496
325,997	3,873	213,823	109,435
327,012	3,655	213,855	109,287
328,027	3,902	213,632	109,338
329,041	4,231	213,528	109,509
330,056	4,261	213,429	109,470
331,070	3,868	213,025	108,975
332,085	3,711	212,866	108,773
333,100	3,510	212,893	108,634
334,114	3,617	212,736	108,620
335,129	3,871	212,561	108,701
336,143	3,601	212,444	108,441
337,158	3,610	212,361	108,395
338,173	3,519	212,219	108,249
339,187	3,167	212,096	107,928
340,202	3,412	211,990	108,037
341,216	3,231	211,719	107,762
342,231	3,436	211,537	107,803
343,246	3,294	211,382	107,615
344,260	3,273	211,353	107,576
345,275	3,573	211,347	107,774
346,289	3,659	211,222	107,761
347,304	3,903	210,939	107,778
348,319	3,810	210,790	107,627
349,333	3,726	210,670	107,497
350,348	3,747	210,597	107,466
351,362	3,959	210,559	107,585
352,377	3,859	210,459	107,454
353,392	3,755	210,289	107,285
354,406	3,656	210,131	107,126
355,421	195,514	1342,788	1432,176
356,435	156,126	1480,867	1432,260
