DTS Sentinel unit serial number:	SN410029Multiplexer serial number:	ORYXHardware model number:	OX2-SRSoftware version number:	ORYX F/W v4,00 Oryx Data Collector v3.7.2.0data status	okinstallation	B6 Nyhavnadifferential loss correction	single-endedforward channel	channel 2reverse channel	N/Adate	2023/12/10time	16:45:08forward acquisition time	300,00reverse acquisition time	0,00gamma	499,1914k internal	0,3122k external	0,3122temperature offset calibration	1,0000default loss term (dB/km)	0,3820temperature slope calibration	1,0000multiplexer offset coefficient	1,0000multiplexer slope coefficient	1,0000fibre end	0,00T internal ref (°C)	22,39T ext. ref 1 (°C)	6,16T ext. ref 2 (°C)	6,18length (m)	temperature (°C)	Stokes	anti-Stokes-744,400	310,520	0,041	-0,058
-743,385	-138,143	-0,243	0,020
-742,371	-149,649	0,134	0,008
-741,356	206,828	-0,290	0,338
-740,342	800,000	-0,018	0,045
-739,327	131,986	-0,322	0,309
-738,312	13,241	0,127	0,073
-737,298	-139,573	-0,373	0,029
-736,283	120,034	-0,006	0,006
-735,269	800,000	0,052	0,117
-734,254	-200,000	0,014	-0,122
-733,239	-29,410	-0,423	-0,180
-732,225	189,741	0,107	0,119
-731,210	800,000	-0,025	0,056
-730,196	288,238	-0,107	-0,145
-729,181	-108,891	-0,150	-0,024
-728,167	-145,512	0,078	0,005
-727,152	140,361	-0,095	0,094
-726,137	194,353	-0,041	-0,047
-725,123	104,592	-0,070	0,061
-724,108	135,767	-0,142	-0,138
-723,094	184,421	-0,121	-0,134
-722,079	122,449	-0,027	0,026
-721,064	509,320	-0,026	0,044
-720,050	-200,000	0,018	-0,076
-719,035	32,597	-0,057	0,037
-718,021	113,952	-0,110	0,100
-717,006	28,988	-0,182	-0,115
-715,991	265,859	-0,031	-0,041
-714,977	-19,551	-0,174	-0,080
-713,962	-25,845	-0,064	0,028
-712,948	76,639	-0,154	0,122
-711,933	-200,000	-0,152	-0,000
-710,918	776,416	0,058	0,118
-709,904	800,000	-0,034	-0,098
-708,889	-144,987	0,039	-0,003
-707,875	610,185	-0,079	-0,149
-706,860	-28,986	-0,125	-0,053
-705,845	-22,440	0,157	0,070
-704,831	13,048	-0,063	0,036
-703,816	-200,000	-0,013	-0,066
-702,802	-49,243	0,057	-0,020
-701,787	461,746	-0,084	-0,141
-700,772	800,000	-0,046	-0,115
-699,758	187,981	0,046	-0,051
-698,743	-175,328	-0,051	-0,001
-697,729	313,798	-0,080	0,112
-696,714	-63,417	0,074	0,023
-695,699	-200,000	0,009	0,052
-694,685	392,235	0,018	-0,028
-693,670	-165,813	0,101	-0,003
-692,656	84,667	0,093	-0,076
-691,641	85,161	-0,115	0,094
-690,627	-169,963	0,135	0,004
-689,612	-200,000	0,006	-0,028
-688,597	-55,905	0,038	0,013
-687,583	137,205	0,067	-0,065
-686,568	-55,560	-0,157	0,052
-685,554	102,864	-0,021	-0,018
-684,539	-21,424	0,061	-0,028
-683,524	-115,503	0,112	0,016
-682,510	-37,662	0,118	-0,047
-681,495	-200,000	0,010	-0,182
-680,481	-15,322	-0,142	-0,067
-679,466	-63,872	-0,041	-0,012
-678,451	-1,734	-0,047	-0,024
-677,437	218,724	-0,064	0,077
-676,422	-200,000	0,005	0,128
-675,408	-119,829	0,040	-0,005
-674,393	6,273	0,032	0,018
-673,378	-200,000	0,006	-0,107
-672,364	-200,000	0,007	0,034
-671,349	-200,000	-0,041	-0,142
-670,335	-200,000	-0,034	-0,185
-669,320	-76,340	-0,032	0,008
-668,305	281,273	-0,023	0,030
-667,291	252,814	-0,083	-0,106
-666,276	105,246	-0,091	-0,080
-665,262	-200,000	-0,008	-0,125
-664,247	-200,000	0,005	-0,152
-663,232	245,663	-0,070	0,088
-662,218	-200,000	0,001	-0,007
-661,203	-200,000	0,024	0,084
-660,189	266,272	-0,069	0,090
-659,174	35,046	-0,026	0,017
-658,159	93,370	0,034	-0,029
-657,145	-31,655	-0,043	-0,018
-656,130	-165,121	0,059	0,002
-655,116	-98,824	0,036	-0,007
-654,101	-154,662	0,092	0,004
-653,086	273,903	0,014	-0,019
-652,072	-10,649	-0,106	-0,052
-651,057	154,604	-0,124	-0,126
-650,043	-61,191	-0,163	0,051
-649,028	-45,926	-0,053	-0,019
-648,014	-6,206	-0,049	-0,025
-646,999	800,000	-0,052	0,119
-645,984	-200,000	-0,017	0,073
-644,970	-22,703	-0,101	-0,045
-643,955	301,771	-0,069	-0,095
-642,941	165,507	-0,066	-0,070
-641,926	144,679	-0,097	-0,096
-640,911	-88,553	-0,044	0,010
-639,897	-87,319	-0,093	-0,021
-638,882	36,200	0,044	-0,029
-637,868	-200,000	-0,013	0,070
-636,853	-33,911	0,077	0,031
-635,838	183,416	-0,024	0,026
-634,824	-98,995	-0,108	-0,020
-633,809	-200,000	0,038	-0,202
-632,795	494,442	0,051	-0,088
-631,780	341,098	0,017	0,025
-630,765	-144,996	0,125	-0,008
-629,751	-98,373	-0,061	-0,011
-628,736	287,483	-0,043	-0,058
-627,722	-200,000	0,025	0,095
-626,707	117,345	-0,044	-0,040
-625,692	78,426	-0,064	-0,051
-624,678	704,883	-0,080	0,158
-623,663	95,439	0,034	0,029
-622,649	480,294	-0,088	-0,149
-621,634	228,337	-0,068	-0,082
-620,619	800,000	0,058	-0,152
-619,605	559,640	-0,052	-0,094
-618,590	-200,000	0,014	-0,066
-617,576	-200,000	-0,024	-0,129
-616,561	-200,000	0,011	0,069
-615,546	-66,698	0,077	0,022
-614,532	38,170	-0,176	0,116
-613,517	375,728	0,035	-0,053
-612,503	-200,000	-0,029	0,133
-611,488	800,000	0,052	0,132
-610,474	800,000	-0,034	0,108
-609,459	130,697	-0,114	0,108
-608,444	-8,214	-0,085	0,042
-607,430	-112,018	0,015	-0,002
-606,415	-200,000	-0,022	-0,111
-605,401	-200,000	0,014	0,091
-604,386	209,956	0,093	-0,108
-603,371	344,309	-0,063	0,092
-602,357	590,107	-0,095	0,174
-601,342	-30,820	-0,070	0,029
-600,328	436,130	0,058	-0,094
-599,313	321,396	0,109	-0,155
-598,298	800,000	-0,009	0,028
-597,284	-30,018	0,088	-0,037
-596,269	-21,069	-0,072	-0,033
-595,255	-1,246	0,122	-0,064
-594,240	-57,443	-0,129	-0,042
-593,225	91,906	-0,058	-0,048
-592,211	800,000	-0,025	0,059
-591,196	-10,984	-0,132	0,064
-590,182	-169,058	-0,089	-0,002
-589,167	800,000	0,042	0,092
-588,152	-200,000	0,009	0,031
-587,138	-200,000	0,008	-0,093
-586,123	-200,000	-0,037	-0,130
-585,109	-200,000	0,010	-0,046
-584,094	-200,000	-0,003	-0,121
-583,079	170,993	0,084	0,090
-582,065	-167,652	-0,061	-0,002
-581,050	123,728	0,076	0,071
-580,036	-80,772	0,138	-0,034
-579,021	-42,876	-0,150	0,056
-578,006	-200,000	0,006	-0,072
-576,992	-200,000	-0,025	-0,105
-575,977	-91,221	0,014	-0,003
-574,963	325,652	0,034	0,048
-573,948	-200,000	-0,006	0,028
-572,934	800,000	0,044	-0,096
-571,919	118,629	-0,081	0,074
-570,904	-31,564	-0,040	0,017
-569,890	714,240	-0,066	-0,130
-568,875	-49,684	0,052	0,018
-567,861	384,464	0,032	0,048
-566,846	614,568	-0,036	-0,068
-565,831	590,627	0,008	-0,015
-564,817	131,217	-0,085	0,081
-563,802	212,442	-0,105	-0,122
-562,788	-93,967	0,067	-0,013
-561,773	79,286	0,028	0,022
-560,758	97,524	-0,119	0,101
-559,744	164,834	0,071	0,074
-558,729	-79,885	0,048	-0,012
-557,715	113,692	-0,091	-0,082
-556,700	-200,000	-0,015	-0,064
-555,685	800,000	-0,035	-0,099
-554,671	282,772	0,044	-0,059
-553,656	301,746	-0,018	-0,025
-552,642	166,320	-0,048	0,050
-551,627	-200,000	-0,058	0,000
-550,612	-200,000	-0,016	-0,075
-549,598	30,900	-0,093	-0,059
-548,583	-48,354	-0,171	0,061
-547,569	152,807	0,061	0,062
-546,554	69,758	0,089	-0,068
-545,539	569,324	-0,066	0,119
-544,525	-44,423	-0,128	-0,047
-543,510	800,000	-0,038	-0,118
-542,496	-200,000	0,021	-0,068
-541,481	591,337	-0,073	-0,134
-540,466	706,051	0,028	-0,055
-539,452	110,648	0,125	0,111
-538,437	-70,016	-0,053	0,015
-537,423	8,704	-0,024	-0,013
-536,408	-200,000	0,036	0,159
-535,393	-50,140	0,085	-0,030
-534,379	426,132	0,034	-0,055
-533,364	353,193	0,032	-0,047
-532,350	33,000	-0,065	-0,042
-531,335	90,390	0,081	0,067
-530,321	-200,000	-0,022	0,105
-529,306	-160,396	0,164	-0,006
-528,291	-97,466	-0,119	-0,023
-527,277	800,000	-0,027	-0,087
-526,262	-200,000	0,009	-0,105
-525,248	800,000	0,033	0,075
-524,233	234,354	-0,058	0,070
-523,218	320,008	0,077	0,109
-522,204	71,687	0,047	-0,036
-521,189	-200,000	0,008	0,061
-520,175	-200,000	0,026	-0,194
-519,160	-25,907	-0,118	0,051
-518,145	800,000	-0,047	-0,101
-517,131	-200,000	0,008	0,148
-516,116	218,011	-0,058	0,068
-515,102	-200,000	-0,001	-0,123
-514,087	-200,000	0,008	-0,029
-513,072	800,000	-0,009	-0,024
-512,058	-200,000	-0,010	-0,093
-511,043	-144,581	-0,078	-0,005
-510,029	-165,650	0,054	0,002
-509,014	-200,000	0,001	0,118
-507,999	-118,202	-0,047	0,006
-506,985	-200,000	-0,023	-0,153
-505,970	800,000	-0,065	0,134
-504,956	81,984	-0,087	-0,069
-503,941	326,623	0,070	-0,099
-502,926	-75,937	0,196	0,051
-501,912	-142,352	0,160	0,012
-500,897	-144,154	-0,072	-0,005
-499,883	101,336	-0,035	0,030
-498,868	-71,436	-0,089	0,024
-497,853	82,634	-0,079	-0,063
-496,839	-86,080	-0,064	0,014
-495,824	-169,936	0,123	0,003
-494,810	81,799	0,095	0,076
-493,795	-200,000	-0,009	0,180
-492,781	492,371	-0,093	0,157
-491,766	800,000	0,031	-0,093
-490,751	800,000	-0,046	-0,097
-489,737	97,053	0,022	0,018
-488,722	758,500	0,059	0,118
-487,708	800,000	-0,007	0,020
-486,693	800,000	-0,023	-0,063
-485,678	-142,728	-0,089	0,006
-484,664	341,289	0,031	-0,045
-483,649	-78,948	-0,043	-0,011
-482,635	66,831	-0,093	-0,070
-481,620	-2,449	-0,063	-0,033
-480,605	-100,277	0,074	0,013
-479,591	-0,633	0,064	0,034
-478,576	800,000	0,050	0,118
-477,562	-200,000	-0,007	0,089
-476,547	232,481	-0,054	0,065
-475,532	-14,764	-0,060	-0,028
-474,518	111,514	-0,010	-0,009
-473,503	110,422	0,087	0,077
-472,489	411,085	0,059	0,092
-471,474	800,000	0,020	0,044
-470,459	66,459	0,061	-0,046
-469,445	-164,281	0,064	0,002
-468,430	80,692	-0,185	-0,147
-467,416	-200,000	0,001	-0,010
-466,401	-62,001	0,037	0,011
-465,386	534,632	0,037	-0,066
-464,372	800,000	-0,060	0,128
-463,357	-200,000	0,029	0,146
-462,343	-84,594	0,045	0,010
-461,328	-49,250	-0,054	-0,019
-460,313	75,884	0,068	-0,053
-459,299	48,303	-0,138	-0,095
-458,284	-173,190	-0,139	-0,003
-457,270	-16,121	0,005	-0,003
-456,255	-37,954	-0,082	0,032
-455,241	-200,000	0,016	-0,100
-454,226	800,000	0,068	-0,143
-453,211	800,000	-0,017	-0,052
-452,197	800,000	-0,011	-0,025
-451,182	-8,275	0,032	-0,016
-450,168	397,440	0,017	-0,026
-449,153	-200,000	-0,005	-0,060
-448,138	114,565	0,044	0,039
-447,124	-22,889	0,056	-0,025
-446,109	-126,728	0,115	0,012
-445,095	177,795	0,075	0,081
-444,080	312,834	0,059	-0,082
-443,065	-200,000	-0,012	-0,158
-442,051	-13,083	-0,068	0,033
-441,036	47,708	-0,106	-0,073
-440,022	213,295	-0,112	-0,131
-439,007	-200,000	-0,037	-0,139
-437,992	29,793	0,064	-0,040
-436,978	-33,881	0,076	0,031
-435,963	-183,132	-0,062	-0,001
-434,949	-115,220	0,072	0,010
-433,934	72,882	-0,081	-0,062
-432,919	-79,712	-0,077	0,019
-431,905	9,797	0,021	0,012
-430,890	-85,762	0,089	-0,020
-429,876	-107,465	0,036	0,006
-428,861	-145,674	0,033	0,002
-427,846	251,705	0,022	-0,027
-426,832	533,674	0,065	-0,114
-425,817	-28,198	-0,065	0,028
-424,803	367,339	0,027	0,041
-423,788	43,641	0,021	0,014
-422,773	-200,000	-0,035	0,121
-421,759	800,000	0,033	-0,097
-420,744	-200,000	0,001	-0,051
-419,730	-170,880	0,029	0,001
-418,715	55,824	-0,041	0,030
-417,701	216,930	0,069	0,081
-416,686	-1,253	0,035	0,018
-415,671	18,963	-0,054	0,032
-414,657	312,015	0,009	0,013
-413,642	-26,188	-0,053	-0,023
-412,628	160,200	-0,135	0,139
-411,613	129,175	0,009	0,009
-410,598	-110,446	0,128	0,019
-409,584	-127,907	0,065	-0,007
-408,569	560,503	-0,055	0,099
-407,555	-28,424	-0,075	-0,032
-406,540	-200,000	-0,004	0,015
-405,525	-200,000	-0,016	-0,114
-404,511	800,000	0,059	-0,166
-403,496	-200,000	0,013	0,205
-402,482	352,300	0,061	0,089
-401,467	-41,412	-0,045	0,017
-400,452	394,314	-0,047	0,072
-399,438	94,394	0,055	-0,046
-398,423	-30,231	-0,132	-0,055
-397,409	132,360	0,078	-0,074
-396,394	547,312	0,058	-0,103
-395,379	44,527	0,037	0,025
-394,365	-49,846	-0,024	-0,008
-393,350	139,105	0,055	-0,053
-392,336	-200,000	0,015	0,139
-391,321	-200,000	0,002	-0,025
-390,306	-31,534	-0,103	0,043
-389,292	-200,000	-0,021	-0,104
-388,277	800,000	0,044	-0,093
-387,263	-200,000	0,015	0,117
-386,248	800,000	0,017	0,043
-385,233	-183,525	0,046	-0,001
-384,219	-64,897	0,102	0,030
-383,204	84,938	-0,120	-0,096
-382,190	521,444	-0,069	0,119
-381,175	-200,000	-0,004	-0,076
-380,160	345,888	0,039	0,056
-379,146	394,675	0,098	-0,151
-378,131	-200,000	-0,002	0,034
-377,117	49,532	-0,077	0,053
-376,102	-200,000	-0,012	-0,129
-375,088	630,058	0,009	-0,017
-374,073	120,689	0,061	0,055
-373,058	510,062	-0,047	-0,081
-372,044	75,405	0,068	0,053
-371,029	157,731	-0,032	0,033
-370,015	556,012	-0,018	-0,032
-369,000	192,271	-0,037	-0,041
-367,985	800,000	-0,034	-0,085
-366,971	-154,964	-0,064	-0,003
-365,956	174,535	0,039	-0,042
-364,942	800,000	0,023	0,052
-363,927	-180,271	0,132	-0,002
-362,912	-115,473	0,153	0,021
-361,898	147,400	-0,065	0,065
-360,883	161,127	-0,061	0,063
-359,869	216,499	-0,015	-0,018
-358,854	-139,449	0,193	0,015
-357,839	80,743	0,179	-0,142
-356,825	150,584	0,141	0,140
-355,810	-187,148	-0,040	0,000
-354,796	-154,918	-0,070	0,003
-353,781	352,373	0,045	-0,066
-352,766	-119,064	-0,103	0,013
-351,752	-183,661	-0,032	0,000
-350,737	301,710	-0,023	-0,031
-349,723	-200,000	0,118	0,000
-348,708	91,706	0,065	-0,054
-347,693	800,000	-0,035	-0,083
-346,679	-200,000	0,008	-0,197
-345,664	-108,479	-0,013	-0,002
-344,650	800,000	0,028	0,080
-343,635	-78,869	-0,038	0,009
-342,620	24,626	-0,017	0,011
-341,606	-200,000	0,024	0,099
-340,591	-90,331	-0,098	0,021
-339,577	26,393	0,049	0,030
-338,562	377,147	-0,017	-0,026
-337,548	370,761	0,048	-0,071
-336,533	800,000	0,027	-0,087
-335,518	-200,000	-0,004	0,042
-334,504	-200,000	-0,012	0,087
-333,489	-200,000	0,019	0,143
-332,475	2,327	0,042	-0,022
-331,460	-200,000	0,036	-0,143
-330,445	-70,924	0,029	0,008
-329,431	421,422	0,036	-0,057
-328,416	43,379	0,093	0,062
-327,402	-141,479	0,077	-0,006
-326,387	618,390	-0,035	-0,064
-325,372	723,435	-0,044	-0,086
-324,358	-200,000	-0,021	-0,090
-323,343	-200,000	-0,008	-0,091
-322,329	-33,641	-0,018	-0,007
-321,314	-29,102	0,113	-0,047
-320,299	29,702	0,142	0,089
-319,285	82,534	-0,067	0,054
-318,270	-168,687	0,050	0,001
-317,256	111,369	-0,036	-0,032
-316,241	87,809	-0,061	-0,049
-315,226	309,139	0,125	0,172
-314,212	56,646	-0,044	0,031
-313,197	62,468	0,079	0,058
-312,183	800,000	0,054	0,144
-311,168	720,413	0,018	-0,035
-310,153	-200,000	0,018	-0,102
-309,139	-146,677	0,027	0,002
-308,124	-34,650	0,051	-0,020
-307,110	-142,954	0,170	-0,012
-306,095	-16,172	0,105	0,049
-305,080	800,000	0,043	0,088
-304,066	-71,493	-0,097	0,026
-303,051	181,531	-0,077	0,083
-302,037	800,000	0,053	0,126
-301,022	556,137	0,026	0,045
-300,008	-134,168	-0,075	-0,007
-298,993	-200,000	-0,008	0,029
-297,978	-52,616	0,120	0,040
-296,964	-200,000	0,001	-0,055
-295,949	339,389	0,025	-0,036
-294,935	174,635	-0,058	-0,061
-293,920	-105,166	0,054	-0,009
-292,905	685,724	0,062	0,119
-291,891	800,000	-0,022	-0,071
-290,876	-200,000	0,005	0,050
-289,862	-75,926	0,152	-0,039
-288,847	60,365	-0,083	-0,060
-287,832	193,861	0,028	0,031
-286,818	302,553	0,060	-0,082
-285,803	144,211	0,069	0,067
-284,789	-9,205	-0,079	0,038
-283,774	470,970	-0,044	0,073
-282,759	94,320	-0,046	-0,038
-281,745	201,188	-0,136	-0,154
-280,730	57,809	0,042	-0,030
-279,716	800,000	-0,014	-0,037
-278,701	285,622	0,121	-0,160
-277,686	173,114	0,044	0,046
-276,672	800,000	0,030	0,088
-275,657	252,465	-0,035	-0,044
-274,643	350,839	0,155	0,224
-273,628	-1,522	-0,099	-0,051
-272,613	339,592	0,026	0,037
-271,599	-200,000	0,019	-0,092
-270,584	-200,000	-0,015	0,079
-269,570	165,825	-0,052	0,054
-268,555	-200,000	-0,040	-0,163
-267,540	-173,129	-0,052	0,001
-266,526	-200,000	-0,013	-0,080
-265,511	-72,795	0,060	0,016
-264,497	-55,417	0,110	0,036
-263,482	-5,014	0,039	0,019
-262,467	9,583	0,088	0,049
-261,453	185,673	-0,024	0,026
-260,438	41,516	-0,074	-0,049
-259,424	-200,000	-0,003	0,043
-258,409	107,099	-0,035	0,030
-257,395	203,640	-0,085	0,097
-256,380	-182,360	-0,152	0,002
-255,365	-141,856	0,110	-0,008
-254,351	-200,000	0,020	0,082
-253,336	-124,768	0,147	0,016
-252,322	-200,000	-0,007	-0,148
-251,307	800,000	-0,052	-0,122
-250,292	57,512	0,043	-0,031
-249,278	-134,076	0,070	0,006
-248,263	-200,000	-0,017	0,110
-247,249	-24,021	0,060	0,026
-246,234	-200,000	0,021	-0,104
-245,219	320,952	-0,101	0,141
-244,205	173,513	-0,036	-0,038
-243,190	-176,172	-0,125	0,002
-242,176	71,764	-0,116	0,088
-241,161	800,000	0,040	0,117
-240,146	800,000	0,030	-0,061
-239,132	506,456	0,061	0,103
-238,117	-200,000	0,006	0,040
-237,103	-200,000	0,046	-0,167
-236,088	119,407	-0,064	-0,058
-235,073	56,210	0,097	0,068
-234,059	-200,000	-0,014	0,148
-233,044	-196,866	0,086	0,000
-232,030	174,712	0,106	0,112
-231,015	738,139	-0,039	-0,077
-230,000	-23,071	-0,113	0,049
-228,986	669,913	-0,041	-0,078
-227,971	235,473	-0,093	-0,112
-226,957	800,000	0,029	0,089
-225,942	-200,000	-0,015	0,156
-224,927	-103,037	0,097	-0,017
-223,913	53,332	0,028	-0,019
-222,898	-139,731	-0,160	-0,012
-221,884	-16,527	-0,086	-0,040
-220,869	-23,706	-0,067	0,029
-219,855	290,975	0,053	0,070
-218,840	-200,000	-0,002	0,146
-217,825	151,431	0,105	0,104
-216,811	1,058	-0,050	-0,026
-215,796	-59,607	-0,041	0,013
-214,782	-200,000	0,013	-0,143
-213,767	-119,348	-0,089	0,011
-212,752	3,378	0,092	0,049
-211,738	-144,382	-0,183	-0,012
-210,723	800,000	-0,054	-0,110
-209,709	-200,000	0,006	0,024
-208,694	321,583	0,043	-0,060
-207,679	86,065	-0,012	-0,010
-206,665	-2,012	0,078	0,040
-205,650	800,000	-0,055	0,129
-204,636	-27,330	0,026	-0,011
-203,621	25,849	0,041	0,025
-202,606	-3,206	-0,049	-0,025
-201,592	662,894	0,011	-0,020
-200,577	-166,115	0,059	0,002
-199,563	65,659	0,029	0,021
-198,548	-9,638	0,087	0,042
-197,533	-200,000	0,000	-0,069
-196,519	-152,494	0,095	-0,005
-195,504	-134,478	-0,056	-0,005
-194,490	132,841	-0,106	0,099
-193,475	-200,000	-0,012	-0,127
-192,460	318,132	-0,034	-0,047
-191,446	-200,000	0,013	0,093
-190,431	-200,000	0,001	-0,051
-189,417	-200,000	-0,003	0,161
-188,402	27,831	0,055	0,033
-187,387	698,626	-0,012	0,023
-186,373	-10,227	-0,091	-0,044
-185,358	110,740	-0,030	-0,027
-184,344	226,885	0,094	0,111
-183,329	-200,000	-0,002	0,047
-182,315	69,876	0,129	0,097
-181,300	390,145	0,023	-0,035
-180,285	-171,877	-0,082	0,002
-179,271	154,031	-0,074	-0,074
-178,256	800,000	0,035	0,092
-177,242	-175,792	0,082	-0,002
-176,227	-119,075	-0,163	-0,021
-175,212	91,743	0,044	-0,036
-174,198	-200,000	0,015	-0,056
-173,183	-29,243	0,064	-0,027
-172,169	-19,421	-0,109	0,049
-171,154	800,000	0,015	0,034
-170,139	139,014	0,036	-0,034
-169,125	39,512	0,079	-0,052
-168,110	800,000	-0,046	0,094
-167,096	-100,809	0,139	0,025
-166,081	-200,000	0,000	0,114
-165,066	800,000	0,010	-0,029
-164,052	-89,829	0,127	-0,027
-163,037	800,000	-0,030	0,075
-162,023	800,000	0,057	0,151
-161,008	-200,000	-0,014	0,114
-159,993	-89,844	-0,041	0,009
-158,979	-57,020	-0,085	-0,027
-157,964	640,959	0,099	0,185
-156,950	3,538	-0,132	0,070
-155,935	-120,501	0,120	-0,015
-154,920	-200,000	0,020	0,078
-153,906	63,828	0,072	0,053
-152,891	582,621	-0,068	-0,122
-151,877	-87,253	0,057	0,013
-150,862	-200,000	-0,019	-0,141
-149,847	800,000	0,030	-0,088
-148,833	-176,414	0,079	-0,001
-147,818	-200,000	-0,005	0,021
-146,804	800,000	-0,022	0,054
-145,789	-74,448	0,131	-0,034
-144,775	460,303	-0,033	0,054
-143,760	65,097	-0,169	-0,124
-142,745	-200,000	-0,043	-0,173
-141,731	170,730	0,064	-0,067
-140,716	165,436	0,037	-0,038
-139,702	300,340	0,024	0,032
-138,687	4,838	0,072	-0,038
-137,672	295,493	-0,065	0,087
-136,658	-200,000	-0,006	-0,158
-135,643	612,488	-0,045	0,083
-134,629	-200,000	-0,001	0,045
-133,614	-111,613	0,185	-0,027
-132,599	-61,638	-0,013	0,004
-131,585	-62,430	-0,067	-0,020
-130,570	26,315	0,096	-0,058
-129,556	117,529	0,048	-0,043
-128,541	-146,094	-0,129	0,008
-127,526	121,440	0,033	0,030
-126,512	75,100	0,033	-0,025
-125,497	42,176	0,130	0,086
-124,483	800,000	0,021	0,054
-123,468	38,489	-0,130	0,084
-122,453	44,318	-0,124	-0,083
-121,439	-200,000	-0,003	0,042
-120,424	-105,799	0,067	-0,011
-119,410	84,007	0,088	0,070
-118,395	-81,390	0,081	-0,019
-117,380	-67,219	0,133	-0,038
-116,366	-200,000	-0,026	0,100
-115,351	-53,351	-0,118	0,039
-114,337	56,363	-0,030	0,021
-113,322	-200,000	0,008	0,061
-112,307	-200,000	-0,031	0,126
-111,293	800,000	0,071	0,178
-110,278	111,326	-0,063	0,055
-109,264	180,507	-0,045	0,048
-108,249	-46,984	0,022	-0,008
-107,234	-200,000	0,003	-0,256
-106,220	-200,000	-0,008	-0,095
-105,205	-200,000	-0,133	0,000
-104,191	800,000	0,059	0,142
-103,176	49,705	0,125	0,085
-102,162	-83,296	-0,106	-0,024
-101,147	-200,000	0,012	0,061
-100,132	153,690	-0,008	0,008
-99,118	800,000	-0,053	0,144
-98,103	-81,757	-0,178	-0,042
-97,089	72,438	0,129	0,098
-96,074	-155,183	0,080	-0,004
-95,059	189,877	0,062	0,068
-94,045	74,256	0,089	-0,068
-93,030	-200,000	-0,048	-0,199
-92,016	2,325	-0,052	-0,027
-91,001	800,000	-0,047	0,097
-89,986	45,182	0,039	0,026
-88,972	-200,000	0,006	0,115
-87,957	-200,000	0,027	0,131
-86,943	-71,393	-0,127	-0,034
-85,928	-29,213	-0,173	-0,072
-84,913	-200,000	0,013	0,053
-83,899	267,145	-0,071	0,091
-82,884	-200,000	0,051	0,174
-81,870	396,223	-0,006	-0,009
-80,855	18,263	0,040	0,023
-79,840	-138,308	0,106	0,008
-78,826	-65,070	-0,199	0,058
-77,811	800,000	0,026	-0,080
-76,797	-21,632	0,021	0,009
-75,782	139,131	0,050	0,048
-74,767	167,963	0,134	-0,138
-73,753	-38,352	-0,011	0,004
-72,738	-5,078	0,044	0,022
-71,724	128,005	0,054	-0,050
-70,709	17,921	-0,020	0,011
-69,694	-200,000	-0,022	-0,077
-68,680	173,214	-0,044	0,046
-67,665	-200,000	-0,019	-0,072
-66,651	-200,000	-0,019	0,079
-65,636	109,184	0,052	0,045
-64,622	-170,225	0,053	-0,001
-63,607	-135,093	-0,060	0,005
-62,592	69,446	0,010	-0,008
-61,578	-64,432	-0,147	-0,043
-60,563	-114,502	0,212	0,029
-59,549	137,297	-0,039	0,037
-58,534	-184,875	-1,316	0,015
-57,519	450,828	-0,837	-1,347
-56,505	-200,000	-1,044	-4,524
-55,490	34,862	0,708	-0,449
-54,476	800,000	5,072	11,863
-53,461	-200,000	13,492	253,205
-52,446	-200,000	689,731	2261,028
-51,432	592,026	1622,371	2919,328
-50,417	119,542	1635,040	1469,427
-49,403	73,341	1288,974	977,760
-48,388	38,168	1024,052	660,090
-47,373	24,388	981,763	587,514
-46,359	23,580	971,552	578,729
-45,344	22,616	967,349	573,053
-44,330	22,587	965,876	572,061
-43,315	22,430	964,308	570,600
-42,300	22,443	963,341	570,047
-41,286	22,438	962,447	569,479
-40,271	22,357	961,474	568,616
-39,257	22,413	960,476	568,186
-38,242	22,377	959,518	567,479
-37,227	22,356	958,868	567,007
-36,213	22,315	957,905	566,278
-35,198	22,356	957,135	565,934
-34,184	22,426	956,317	565,655
-33,169	22,394	955,612	565,113
-32,154	22,390	954,656	564,512
-31,140	22,427	953,771	564,085
-30,125	22,439	952,918	563,596
-29,111	22,431	952,097	563,062
-28,096	22,471	951,360	562,734
-27,082	22,473	950,665	562,307
-26,067	22,393	950,066	561,673
-25,052	22,534	949,054	561,506
-24,038	22,485	948,588	561,049
-23,023	22,406	948,011	560,435
-22,009	22,481	947,190	560,164
-20,994	22,483	946,581	559,791
-19,979	22,489	946,041	559,467
-18,965	22,430	945,526	558,951
-17,950	22,456	944,706	558,529
-16,936	22,372	944,212	557,946
-15,921	22,422	943,319	557,555
-14,906	22,323	942,818	556,922
-13,892	22,351	942,191	556,620
-12,877	22,270	941,663	556,028
-11,863	22,218	940,894	555,387
-10,848	22,320	940,431	555,413
-9,833	22,442	939,851	555,437
-8,819	22,358	939,265	554,803
-7,804	22,324	938,527	554,238
-6,790	22,302	937,965	553,815
-5,775	22,320	937,334	553,475
-4,760	22,297	936,783	553,056
-3,746	22,267	936,146	552,561
-2,731	22,193	935,326	551,824
-1,717	22,133	934,752	551,274
-0,702	22,161	934,078	550,941
0,313	21,981	933,443	550,831
1,327	25,065	931,309	559,221
2,342	34,616	795,996	503,410
3,356	32,556	451,430	282,368
4,371	1,748	293,450	152,842
5,386	-2,655	274,422	138,756
6,400	-4,287	268,631	134,304
7,415	-4,665	266,001	132,629
8,429	-4,475	264,964	132,274
9,444	-4,377	264,122	131,932
10,459	-4,353	263,395	131,578
11,473	-4,505	262,804	131,133
12,488	-4,459	262,346	130,935
13,502	-4,644	261,674	130,421
14,517	-4,729	261,218	130,106
15,531	-4,636	260,915	130,026
16,546	-4,431	260,488	129,987
17,561	-4,763	260,162	129,514
18,575	-4,648	259,857	129,454
19,590	-4,766	259,384	129,101
20,604	-4,516	259,159	129,201
21,619	-4,725	258,911	128,880
22,634	-4,678	258,643	128,776
23,648	-4,596	258,265	128,650
24,663	-4,642	257,908	128,420
25,677	-4,570	257,796	128,416
26,692	-4,711	257,471	128,118
27,707	-4,543	257,206	128,123
28,721	-4,749	256,913	127,783
29,736	-4,701	256,765	127,742
30,750	-4,687	256,346	127,534
31,765	-4,827	256,364	127,408
32,780	-4,919	256,120	127,193
33,794	-4,704	255,868	127,246
34,809	-4,725	255,709	127,138
35,823	-4,785	255,398	126,919
36,838	-4,735	255,063	126,785
37,853	-4,791	254,725	126,557
38,867	-4,790	254,621	126,495
39,882	-4,732	254,413	126,431
40,896	-4,803	254,217	126,260
41,911	-4,684	254,060	126,275
42,926	-4,824	253,720	125,973
43,940	-4,734	253,521	125,941
44,955	-4,797	253,185	125,708
45,969	-4,723	253,018	125,679
46,984	-5,095	252,812	125,241
47,999	-5,183	252,591	125,044
49,013	-5,534	252,332	124,599
50,028	-5,618	252,048	124,375
51,042	-5,694	251,696	124,126
52,057	-5,758	251,630	124,026
53,071	-5,578	251,536	124,124
54,086	-5,518	251,152	123,975
55,101	-5,415	251,061	124,009
56,115	-5,024	250,794	124,203
57,130	-4,759	250,799	124,422
58,144	-4,597	250,723	124,513
59,159	-4,469	250,571	124,537
60,174	-4,496	250,116	124,277
61,188	-4,371	249,951	124,291
62,203	-4,690	249,907	123,984
63,217	-4,758	249,820	123,871
64,232	-4,654	249,469	123,775
65,247	-4,649	249,181	123,626
66,261	-4,658	248,976	123,506
67,276	-4,793	248,636	123,211
68,290	-5,117	248,624	122,918
69,305	-5,259	248,320	122,634
70,320	-5,086	248,000	122,613
71,334	-4,861	247,964	122,775
72,349	-4,524	247,965	123,052
73,363	-4,587	247,669	122,841
74,378	-4,538	247,464	122,770
75,393	-4,578	247,160	122,574
76,407	-4,755	246,987	122,327
77,422	-4,572	246,775	122,366
78,436	-4,605	246,629	122,255
79,451	-4,746	246,514	122,068
80,466	-4,782	246,214	121,878
81,480	-5,021	246,004	121,562
82,495	-4,898	245,630	121,470
83,509	-4,924	245,595	121,420
84,524	-4,979	245,333	121,233
85,539	-4,984	245,075	121,090
86,553	-5,121	244,942	120,899
87,568	-5,054	244,954	120,950
88,582	-4,823	244,663	120,990
89,597	-4,998	244,373	120,689
90,611	-4,901	244,237	120,692
91,626	-4,817	244,217	120,742
92,641	-4,674	243,956	120,722
93,655	-4,850	243,755	120,465
94,670	-4,852	243,615	120,383
95,684	-4,846	243,426	120,284
96,699	-4,823	243,031	120,097
97,714	-4,963	243,042	119,975
98,728	-4,901	242,893	119,942
99,743	-5,181	242,563	119,536
100,757	-5,186	242,357	119,420
101,772	-5,074	242,093	119,372
102,787	-5,017	242,071	119,398
103,801	-5,055	241,979	119,310
104,816	-4,874	241,847	119,384
105,830	-4,772	241,589	119,331
106,845	-4,736	241,444	119,278
107,860	-4,656	241,222	119,223
108,874	-4,918	241,034	118,905
109,889	-4,798	240,842	118,897
110,903	-4,978	240,495	118,568
111,918	-5,026	240,512	118,526
112,933	-4,975	240,337	118,471
113,947	-4,763	240,221	118,578
114,962	-4,791	240,008	118,439
115,976	-4,731	239,754	118,353
116,991	-4,816	239,604	118,198
118,006	-4,839	239,614	118,174
119,020	-4,796	239,401	118,093
120,035	-4,710	239,122	118,016
121,049	-4,692	239,139	118,027
122,064	-4,796	239,029	117,878
123,079	-4,695	238,688	117,782
124,093	-5,058	238,622	117,443
125,108	-5,116	238,245	117,199
126,122	-5,183	237,958	116,993
127,137	-5,326	237,836	116,806
128,151	-5,142	237,652	116,855
129,166	-5,004	237,577	116,921
130,181	-5,101	237,215	116,653
131,195	-5,165	237,101	116,535
132,210	-4,997	237,038	116,629
133,224	-4,733	236,940	116,784
134,239	-4,841	236,786	116,611
135,254	-4,855	236,592	116,494
136,268	-4,876	236,342	116,343
137,283	-5,192	236,108	115,963
138,297	-5,242	235,792	115,757
139,312	-5,357	235,804	115,660
140,327	-4,830	235,605	115,976
141,341	-4,504	235,671	116,260
142,356	-4,415	235,527	116,250
143,370	-4,531	235,296	116,033
144,385	-4,373	235,224	116,114
145,400	-4,349	235,014	116,019
146,414	-4,491	234,912	115,845
147,429	-4,613	234,671	115,617
148,443	-4,416	234,494	115,678
149,458	-4,551	234,347	115,487
150,473	-4,563	234,062	115,327
151,487	-4,573	233,998	115,276
152,502	-4,546	233,816	115,198
153,516	-4,517	233,623	115,116
154,531	-4,490	233,499	115,066
155,546	-4,451	233,262	114,970
156,560	-4,821	233,216	114,643
157,575	-4,651	232,922	114,623
158,589	-4,820	232,748	114,394
159,604	-4,194	232,480	114,747
160,619	-4,221	232,377	114,665
161,633	-4,493	232,414	114,457
162,648	-4,389	232,254	114,450
163,662	-4,426	232,099	114,335
164,677	-4,560	231,854	114,098
165,692	-4,421	231,686	114,115
166,706	-4,290	231,566	114,149
167,721	-4,310	231,478	114,080
168,735	-4,202	231,420	114,126
169,750	-4,249	231,236	113,988
170,764	-4,275	230,952	113,817
171,779	-4,330	230,805	113,692
172,794	-4,283	230,769	113,701
173,808	-4,463	230,478	113,406
174,823	-4,985	230,079	112,791
175,837	-5,394	230,246	112,543
176,852	-4,644	229,672	112,838
177,867	-4,262	229,804	113,191
178,881	-4,414	229,762	113,042
179,896	-4,145	229,540	113,132
180,910	-4,164	229,561	113,118
181,925	-4,263	229,338	112,921
182,940	-4,172	229,110	112,870
183,954	-4,338	229,015	112,683
184,969	-4,143	228,698	112,668
185,983	-4,146	228,740	112,677
186,998	-4,296	228,565	112,464
188,013	-4,162	228,402	112,478
189,027	-4,196	228,216	112,350
190,042	-4,270	228,107	112,229
191,056	-4,222	228,031	112,218
192,071	-4,225	227,789	112,087
193,086	-4,246	227,572	111,954
194,100	-4,396	227,543	111,814
195,115	-4,446	227,170	111,582
196,129	-5,339	227,030	110,815
197,144	-2,341	227,781	113,489
198,159	1,472	228,835	116,960
199,173	4,081	229,458	119,291
200,188	4,244	229,263	119,306
201,202	4,374	229,312	119,421
202,217	4,217	229,248	119,255
203,232	4,599	229,134	119,481
204,246	4,664	228,999	119,450
205,261	4,856	228,746	119,456
206,275	5,090	228,667	119,584
207,290	4,988	228,516	119,416
208,304	5,028	228,495	119,425
209,319	5,025	228,204	119,260
210,334	4,624	228,040	118,855
211,348	4,773	227,657	118,759
212,363	4,332	227,378	118,266
213,377	3,966	227,283	117,924
214,392	3,760	227,197	117,712
215,407	4,061	227,076	117,869
216,421	4,237	226,711	117,803
217,436	4,010	226,650	117,588
218,450	3,859	226,607	117,440
219,465	3,745	226,393	117,232
220,480	3,782	226,226	117,162
221,494	3,646	226,081	116,974
222,509	4,000	225,930	117,154
223,523	3,959	225,877	117,086
224,538	3,894	225,536	116,849
225,553	4,036	225,484	116,919
226,567	4,037	225,521	116,928
227,582	4,209	225,458	117,017
228,596	4,338	225,335	117,040
229,611	4,218	224,945	116,737
230,626	3,969	224,896	116,512
231,640	4,106	224,581	116,441
232,655	4,284	224,694	116,625
233,669	4,473	224,577	116,697
234,684	4,612	224,362	116,679
235,699	4,419	224,167	116,421
236,713	4,187	223,981	116,139
237,728	3,987	223,912	115,943
238,742	3,967	223,489	115,699
239,757	4,106	223,371	115,731
240,772	3,975	223,235	115,553
241,786	3,982	223,162	115,510
242,801	4,246	223,116	115,673
243,815	4,430	223,092	115,789
244,830	4,584	222,828	115,757
245,844	4,176	222,673	115,360
246,859	4,378	222,510	115,417
247,874	4,312	222,399	115,300
248,888	4,329	222,191	115,194
249,903	4,005	222,081	114,885
250,917	4,194	221,868	114,905
251,932	4,148	221,765	114,808
252,947	3,979	221,490	114,530
253,961	3,936	221,354	114,417
254,976	4,027	221,306	114,449
255,990	4,249	221,274	114,588
257,005	4,112	221,182	114,428
258,020	4,562	220,917	114,614
259,034	4,563	220,964	114,630
260,049	4,303	220,828	114,357
261,063	4,294	220,629	114,236
262,078	4,194	220,512	114,091
263,093	4,409	220,390	114,177
264,107	4,380	220,210	114,053
265,122	4,267	220,088	113,896
266,136	4,535	220,025	114,050
267,151	4,484	219,808	113,890
268,166	4,079	219,493	113,419
269,180	3,833	219,225	113,089
270,195	3,990	219,079	113,119
271,209	4,105	218,963	113,134
272,224	3,904	219,048	113,019
273,239	4,263	218,821	113,156
274,253	4,175	218,562	112,948
275,268	3,798	218,494	112,626
276,282	3,880	218,140	112,494
277,297	3,549	218,149	112,246
278,312	3,932	218,029	112,454
279,326	4,141	217,827	112,493
280,341	4,060	217,785	112,402
281,355	4,263	217,630	112,460
282,370	3,930	217,414	112,096
283,384	3,891	217,402	112,051
284,399	3,847	217,188	111,899
285,414	3,900	217,057	111,860
286,428	3,932	216,907	111,796
287,443	4,229	216,850	111,972
288,457	4,410	216,601	111,965
289,472	4,054	216,594	111,693
290,487	3,552	216,468	111,254
291,501	3,507	216,210	111,079
292,516	3,580	216,000	111,014
293,530	3,953	215,983	111,265
294,545	3,765	215,786	111,018
295,560	3,806	215,645	110,965
296,574	3,964	215,579	111,035
297,589	4,102	215,360	111,012
298,603	4,249	215,360	111,108
299,618	3,923	215,269	110,816
300,633	3,869	215,075	110,667
301,647	4,507	214,948	111,051
302,662	4,567	214,653	110,932
303,676	4,353	214,666	110,776
304,691	4,385	214,481	110,693
305,706	4,294	214,519	110,637
306,720	4,187	214,384	110,481
307,735	4,164	214,121	110,319
308,749	4,039	213,974	110,144
309,764	4,294	213,769	110,211
310,779	4,009	213,830	110,029
311,793	4,399	213,580	110,169
312,808	4,033	213,478	109,846
313,822	3,942	213,331	109,695
314,837	3,973	213,220	109,651
315,852	4,006	213,040	109,571
316,866	4,006	212,866	109,473
317,881	4,072	212,900	109,527
318,895	4,401	212,663	109,629
319,910	4,244	212,361	109,352
320,925	3,924	212,249	109,058
321,939	3,475	212,018	108,611
322,954	3,847	211,856	108,782
323,968	4,040	211,907	108,935
324,983	4,214	211,885	109,037
325,997	4,132	211,710	108,880
327,012	4,316	211,390	108,835
328,027	4,035	211,395	108,630
329,041	4,428	211,484	108,943
330,056	4,420	211,257	108,810
331,070	4,237	210,965	108,522
332,085	3,917	210,562	108,080
333,100	3,899	210,588	108,071
334,114	4,036	210,426	108,074
335,129	4,107	210,438	108,121
336,143	4,190	210,245	108,070
337,158	3,977	210,152	107,863
338,173	4,191	209,844	107,845
339,187	3,979	209,786	107,658
340,202	3,730	209,705	107,432
341,216	3,588	209,492	107,215
342,231	3,882	209,395	107,361
343,246	3,921	209,261	107,310
344,260	3,795	209,086	107,122
345,275	3,944	209,006	107,176
346,289	4,020	208,980	107,206
347,304	4,009	208,930	107,163
348,319	3,999	208,633	106,994
349,333	4,088	208,527	106,992
350,348	4,086	208,478	106,956
351,362	4,276	208,218	106,945
352,377	4,235	208,136	106,865
353,392	3,963	208,126	106,662
354,406	4,154	207,915	106,676
355,421	194,293	1343,896	1433,889
356,435	155,031	1482,406	1434,007
