DTS Sentinel unit serial number:	SN410029Multiplexer serial number:	ORYXHardware model number:	OX2-SRSoftware version number:	ORYX F/W v4,00 Oryx Data Collector v3.7.2.0data status	okinstallation	B6 Nyhavnadifferential loss correction	single-endedforward channel	channel 2reverse channel	N/Adate	2023/12/11time	06:15:08forward acquisition time	300,00reverse acquisition time	0,00gamma	499,1914k internal	0,3126k external	0,3126temperature offset calibration	1,0000default loss term (dB/km)	0,3820temperature slope calibration	1,0000multiplexer offset coefficient	1,0000multiplexer slope coefficient	1,0000fibre end	0,00T internal ref (°C)	19,65T ext. ref 1 (°C)	2,75T ext. ref 2 (°C)	2,79length (m)	temperature (°C)	Stokes	anti-Stokes-744,400	-140,313	0,177	-0,014
-743,385	19,461	-0,272	0,163
-742,371	-98,098	0,113	-0,021
-741,356	-85,291	-0,241	0,056
-740,342	-138,269	0,116	-0,009
-739,327	-93,423	-0,328	0,067
-738,312	111,617	0,098	-0,088
-737,298	-173,999	-0,307	-0,007
-736,283	77,673	0,078	0,061
-735,269	213,137	-0,232	0,273
-734,254	-200,000	0,030	0,156
-733,239	-103,958	-0,411	-0,071
-732,225	13,952	0,245	0,141
-731,210	-89,337	0,083	0,018
-730,196	462,613	-0,068	0,113
-729,181	800,000	-0,009	0,029
-728,167	800,000	-0,003	-0,009
-727,152	119,100	-0,073	0,067
-726,137	-128,975	0,072	0,007
-725,123	-22,870	-0,018	0,008
-724,108	156,498	-0,073	0,075
-723,094	-200,000	-0,024	-0,151
-722,079	145,308	0,065	-0,065
-721,064	374,053	0,044	0,067
-720,050	182,400	0,102	-0,112
-719,035	-200,000	-0,017	-0,068
-718,021	38,028	-0,078	-0,051
-717,006	20,704	-0,113	-0,068
-715,991	60,609	-0,094	-0,069
-714,977	1,947	-0,089	-0,048
-713,962	0,257	-0,082	-0,044
-712,948	-143,592	0,017	-0,001
-711,933	800,000	-0,067	0,149
-710,918	-69,980	-0,063	0,018
-709,904	249,493	0,026	0,033
-708,889	-63,894	-0,066	-0,020
-707,875	-3,963	0,069	-0,036
-706,860	47,636	0,038	-0,026
-705,845	800,000	0,030	-0,090
-704,831	-102,553	-0,083	0,015
-703,816	800,000	-0,038	-0,114
-702,802	49,082	0,104	0,073
-701,787	-36,991	-0,113	-0,045
-700,772	38,534	-0,042	-0,028
-699,758	800,000	-0,018	0,049
-698,743	-59,092	0,083	-0,026
-697,729	-10,626	0,144	0,071
-696,714	42,251	-0,044	-0,029
-695,699	-200,000	-0,006	0,027
-694,685	480,327	-0,051	-0,086
-693,670	37,255	-0,064	0,042
-692,656	-108,359	-0,182	0,029
-691,641	-200,000	0,038	0,136
-690,627	-24,632	-0,032	-0,014
-689,612	800,000	-0,027	-0,086
-688,597	-169,532	-0,065	-0,002
-687,583	800,000	0,020	-0,052
-686,568	133,349	-0,018	0,018
-685,554	800,000	-0,047	-0,100
-684,539	-25,386	-0,072	0,032
-683,524	800,000	-0,039	-0,121
-682,510	26,896	0,120	-0,074
-681,495	-200,000	-0,012	-0,072
-680,481	-28,937	0,093	0,039
-679,466	560,084	-0,021	-0,038
-678,451	-57,885	-0,101	-0,033
-677,437	126,074	0,050	-0,047
-676,422	177,736	0,109	-0,118
-675,408	226,651	0,045	-0,055
-674,393	136,611	0,048	-0,046
-673,378	231,402	-0,059	0,072
-672,364	239,509	-0,089	0,110
-671,349	800,000	-0,045	-0,131
-670,335	-167,111	-0,037	0,001
-669,320	-118,909	0,113	-0,015
-668,305	-200,000	-0,008	0,136
-667,291	-200,000	-0,037	0,137
-666,276	-200,000	0,019	0,106
-665,262	-18,381	-0,036	0,016
-664,247	59,028	0,025	0,018
-663,232	-199,107	0,141	-0,001
-662,218	454,008	-0,063	0,103
-661,203	-200,000	-0,016	0,065
-660,189	800,000	0,070	0,174
-659,174	42,696	-0,086	0,058
-658,159	8,172	-0,088	0,049
-657,145	-200,000	-0,038	-0,137
-656,130	34,232	0,046	-0,030
-655,116	-169,935	-0,029	0,001
-654,101	-200,000	-0,001	0,062
-653,086	-118,976	0,125	-0,016
-652,072	-200,000	-0,009	-0,040
-651,057	-68,888	-0,089	-0,025
-650,043	268,060	-0,065	-0,084
-649,028	-200,000	-0,028	0,098
-648,014	-200,000	-0,012	0,072
-646,999	180,670	0,098	-0,107
-645,984	-200,000	0,004	0,136
-644,970	-52,968	-0,164	-0,056
-643,955	-200,000	-0,001	-0,029
-642,941	209,273	0,014	0,017
-641,926	-200,000	-0,009	-0,054
-640,911	-200,000	-0,002	-0,182
-639,897	800,000	0,016	0,045
-638,882	-200,000	0,002	-0,103
-637,868	-200,000	-0,018	-0,140
-636,853	-93,551	-0,112	0,023
-635,838	-200,000	-0,034	-0,192
-634,824	-200,000	-0,015	-0,096
-633,809	-200,000	0,011	-0,057
-632,795	273,780	0,082	-0,107
-631,780	-62,016	-0,051	-0,016
-630,765	169,937	-0,087	-0,092
-629,751	-200,000	0,023	-0,149
-628,736	1,672	-0,087	-0,047
-627,722	-118,291	-0,120	-0,016
-626,707	542,592	-0,035	-0,062
-625,692	-77,878	0,070	0,018
-624,678	-200,000	0,036	0,141
-623,663	-200,000	-0,016	-0,057
-622,649	-200,000	-0,008	-0,075
-621,634	-154,957	0,221	-0,011
-620,619	-109,602	-0,048	0,007
-619,605	78,925	0,048	0,038
-618,590	800,000	-0,032	-0,076
-617,576	-200,000	-0,015	-0,092
-616,561	70,807	0,041	-0,031
-615,546	-200,000	-0,004	-0,074
-614,532	-161,347	-0,032	-0,001
-613,517	46,472	-0,063	-0,043
-612,503	-200,000	-0,018	0,151
-611,488	161,234	0,079	-0,082
-610,474	-112,620	0,167	0,024
-609,459	1,959	-0,076	-0,040
-608,444	370,377	-0,022	0,032
-607,430	-162,538	-0,078	-0,003
-606,415	765,623	-0,035	0,070
-605,401	-200,000	-0,016	0,093
-604,386	365,987	-0,010	-0,015
-603,371	442,535	-0,037	0,060
-602,357	-104,279	-0,117	-0,020
-601,342	42,788	-0,038	-0,025
-600,328	800,000	-0,050	-0,107
-599,313	-194,255	0,076	0,000
-598,298	-200,000	0,000	-0,036
-597,284	658,823	0,012	0,022
-596,269	800,000	0,049	0,102
-595,255	-200,000	0,007	-0,083
-594,240	-112,205	-0,106	-0,016
-593,225	200,931	-0,097	-0,111
-592,211	26,118	-0,051	-0,031
-591,196	-103,039	-0,019	-0,003
-590,182	-143,010	0,122	0,009
-589,167	-200,000	-0,012	0,079
-588,152	12,127	0,059	0,033
-587,138	251,313	-0,074	-0,093
-586,123	-200,000	-0,007	0,032
-585,109	615,793	-0,031	-0,059
-584,094	800,000	0,009	0,021
-583,079	-200,000	-0,010	-0,037
-582,065	-9,280	0,067	-0,033
-581,050	-31,209	0,066	0,027
-580,036	-125,792	0,028	0,003
-579,021	-200,000	-0,010	-0,061
-578,006	11,543	-0,038	-0,021
-576,992	188,171	0,099	-0,109
-575,977	30,136	-0,105	-0,066
-574,963	-200,000	-0,010	-0,085
-573,948	-200,000	0,007	-0,061
-572,934	569,035	0,036	-0,065
-571,919	-200,000	0,008	-0,036
-570,904	55,624	0,078	-0,055
-569,890	151,483	-0,084	-0,085
-568,875	-7,476	-0,138	-0,069
-567,861	-77,175	0,065	0,017
-566,846	-64,459	-0,081	-0,024
-565,831	159,485	0,054	-0,055
-564,817	800,000	-0,009	0,026
-563,802	-122,809	-0,078	0,009
-562,788	-27,511	-0,074	0,032
-561,773	-200,000	0,012	0,063
-560,758	67,909	0,114	-0,086
-559,744	33,351	-0,083	-0,053
-558,729	-53,845	0,048	-0,016
-557,715	-112,528	-0,105	0,015
-556,700	-200,000	0,009	-0,063
-555,685	-162,514	-0,063	-0,002
-554,671	-165,006	0,143	-0,005
-553,656	-200,000	0,002	0,101
-552,642	-27,378	0,106	0,045
-551,627	102,597	0,065	0,057
-550,612	-200,000	-0,005	-0,023
-549,598	-200,000	-0,009	0,036
-548,583	284,907	-0,074	0,098
-547,569	800,000	0,022	0,050
-546,554	-200,000	0,001	0,047
-545,539	318,040	0,052	0,073
-544,525	-110,598	-0,072	-0,011
-543,510	-83,029	0,118	0,028
-542,496	-6,826	-0,042	0,021
-541,481	800,000	-0,029	0,084
-540,466	-200,000	0,029	0,111
-539,452	-194,444	-0,020	-0,000
-538,437	800,000	0,011	0,035
-537,423	70,498	0,070	-0,053
-536,408	52,280	-0,058	-0,041
-535,393	-149,947	0,127	0,007
-534,379	-62,650	0,044	-0,013
-533,364	-70,087	0,097	0,027
-532,350	661,366	-0,015	-0,029
-531,335	122,472	-0,069	0,064
-530,321	-200,000	0,009	-0,042
-529,306	800,000	0,041	0,123
-528,291	-39,200	0,085	0,033
-527,277	800,000	0,025	-0,062
-526,262	12,971	0,084	0,048
-525,248	15,319	0,051	-0,030
-524,233	-200,000	0,003	0,023
-523,218	-66,265	0,107	-0,031
-522,204	-200,000	-0,001	0,006
-521,189	-127,376	-0,032	0,003
-520,175	-200,000	-0,008	-0,156
-519,160	200,386	-0,036	-0,041
-518,145	800,000	-0,021	0,064
-517,131	-23,607	0,078	0,034
-516,116	589,378	0,036	0,067
-515,102	-75,421	-0,093	0,024
-514,087	800,000	0,020	-0,044
-513,072	-200,000	-0,005	-0,043
-512,058	182,514	0,056	-0,061
-511,043	-200,000	0,008	-0,081
-510,029	231,315	0,037	-0,044
-509,014	-200,000	0,013	0,075
-507,999	-200,000	0,020	0,073
-506,985	105,574	-0,086	-0,075
-505,970	148,857	-0,094	0,094
-504,956	148,592	-0,073	-0,072
-503,941	-48,342	0,132	-0,047
-502,926	359,109	0,071	0,105
-501,912	33,988	0,049	-0,032
-500,897	132,166	-0,052	0,050
-499,883	-137,915	-0,100	0,008
-498,868	-200,000	0,018	0,102
-497,853	-200,000	0,007	0,068
-496,839	-100,048	0,013	-0,002
-495,824	800,000	0,034	-0,082
-494,810	-105,798	-0,128	-0,021
-493,795	-63,358	0,032	0,010
-492,781	387,037	-0,057	0,087
-491,766	42,625	0,094	0,063
-490,751	124,855	-0,021	-0,019
-489,737	-146,984	0,130	0,008
-488,722	197,309	0,026	0,030
-487,708	-200,000	-0,018	0,084
-486,693	800,000	0,038	0,092
-485,678	-5,611	-0,050	0,025
-484,664	88,585	-0,056	-0,046
-483,649	121,704	-0,088	0,081
-482,635	800,000	0,077	0,195
-481,620	-36,474	0,106	-0,042
-480,605	53,201	-0,051	0,036
-479,591	149,580	0,042	-0,042
-478,576	-200,000	-0,002	-0,128
-477,562	-200,000	-0,034	-0,138
-476,547	127,664	-0,095	-0,089
-475,532	800,000	-0,047	0,102
-474,518	280,801	0,052	-0,069
-473,503	800,000	0,028	0,073
-472,489	98,032	0,040	0,034
-471,474	28,155	0,019	-0,012
-470,459	-200,000	-0,003	0,013
-469,445	15,238	0,104	0,060
-468,430	800,000	-0,025	-0,061
-467,416	485,489	0,029	0,048
-466,401	-200,000	-0,013	0,160
-465,386	-108,767	0,182	-0,028
-464,372	15,051	-0,090	0,052
-463,357	92,619	0,080	0,066
-462,343	-41,292	-0,070	-0,026
-461,328	800,000	0,047	-0,123
-460,313	-17,234	0,033	0,015
-459,299	59,652	0,082	-0,059
-458,284	-7,689	0,093	-0,046
-457,270	234,577	-0,042	0,051
-456,255	-96,115	-0,011	0,002
-455,241	-200,000	-0,009	0,031
-454,226	54,816	0,132	-0,093
-453,211	289,298	-0,084	-0,112
-452,197	800,000	-0,041	0,106
-451,182	800,000	0,058	0,128
-450,168	800,000	0,043	0,127
-449,153	-165,544	-0,051	-0,002
-448,138	-99,917	-0,173	-0,031
-447,124	471,031	-0,018	0,030
-446,109	-130,346	-0,047	-0,005
-445,095	800,000	0,064	0,146
-444,080	306,352	0,062	0,085
-443,065	403,980	-0,040	0,063
-442,051	-200,000	0,005	0,046
-441,036	-125,304	-0,117	-0,013
-440,022	-200,000	-0,006	-0,206
-439,007	-166,691	0,011	0,000
-437,992	-104,450	-0,017	0,003
-436,978	-107,932	0,085	0,014
-435,963	-53,040	0,109	-0,037
-434,949	-165,500	0,113	-0,004
-433,934	-200,000	0,009	0,038
-432,919	19,692	0,114	0,067
-431,905	11,245	-0,118	0,066
-430,890	800,000	-0,032	0,070
-429,876	195,476	0,098	-0,110
-428,861	39,166	-0,069	-0,045
-427,846	-159,647	0,148	0,006
-426,832	310,166	-0,079	0,109
-425,817	-186,896	0,129	0,001
-424,803	-200,000	0,003	-0,013
-423,788	168,650	-0,095	-0,100
-422,773	61,450	0,062	-0,045
-421,759	276,528	-0,013	0,017
-420,744	62,873	0,078	-0,057
-419,730	398,017	-0,069	-0,107
-418,715	319,123	-0,053	-0,074
-417,701	800,000	-0,012	0,037
-416,686	-169,090	-0,081	0,002
-415,671	187,999	0,028	-0,031
-414,657	-27,602	-0,129	0,055
-413,642	-96,947	-0,030	-0,006
-412,628	70,094	-0,054	-0,041
-411,613	-147,765	-0,063	-0,004
-410,598	19,885	-0,023	-0,014
-409,584	-200,000	-0,001	-0,044
-408,569	-28,707	0,133	0,056
-407,555	800,000	0,024	0,062
-406,540	15,932	0,114	-0,066
-405,525	-200,000	0,018	-0,085
-404,511	20,075	-0,171	-0,101
-403,496	12,851	-0,049	0,028
-402,482	-51,739	0,036	0,012
-401,467	800,000	-0,055	0,121
-400,452	242,499	0,092	0,113
-399,438	16,761	0,061	0,035
-398,423	50,840	-0,114	-0,079
-397,409	-200,000	0,010	-0,042
-396,394	31,172	-0,045	-0,028
-395,379	281,404	0,062	-0,081
-394,365	700,841	-0,031	-0,061
-393,350	46,571	-0,130	-0,089
-392,336	-200,000	-0,008	0,077
-391,321	-30,696	-0,059	0,025
-390,306	132,859	-0,118	0,112
-389,292	-47,556	-0,126	0,045
-388,277	-59,112	-0,059	0,019
-387,263	353,113	0,048	-0,070
-386,248	171,778	-0,126	-0,133
-385,233	35,641	0,054	0,035
-384,219	-69,248	0,083	-0,023
-383,204	-200,000	-0,036	-0,133
-382,190	255,134	-0,076	-0,096
-381,175	-200,000	0,011	0,132
-380,160	57,722	0,082	0,059
-379,146	-200,000	0,042	0,153
-378,131	-59,965	-0,024	-0,007
-377,117	93,714	-0,026	-0,022
-376,102	-156,524	-0,043	-0,002
-375,088	-86,636	-0,120	-0,027
-374,073	800,000	-0,033	-0,075
-373,058	-200,000	0,039	-0,163
-372,044	254,113	-0,006	-0,008
-371,029	-67,506	0,113	-0,032
-370,015	-200,000	0,012	-0,095
-369,000	-200,000	0,014	-0,122
-367,985	-29,961	-0,059	0,025
-366,971	-200,000	-0,001	0,052
-365,956	800,000	0,020	-0,041
-364,942	-171,934	0,102	-0,002
-363,927	-89,055	0,167	0,036
-362,912	9,337	-0,087	0,048
-361,898	-200,000	-0,026	-0,099
-360,883	56,633	-0,044	-0,031
-359,869	-123,096	-0,088	-0,010
-358,854	-200,000	0,013	-0,050
-357,839	220,424	0,014	-0,016
-356,825	81,457	0,058	-0,046
-355,810	15,907	-0,106	0,061
-354,796	800,000	0,014	-0,033
-353,781	260,862	0,098	-0,125
-352,766	8,071	0,052	0,028
-351,752	-200,000	-0,001	0,064
-350,737	26,672	0,102	0,062
-349,723	508,278	0,043	0,074
-348,708	260,474	-0,032	-0,040
-347,693	-61,872	0,101	0,031
-346,679	-200,000	-0,044	-0,193
-345,664	62,815	0,075	-0,055
-344,650	135,171	0,095	-0,090
-343,635	271,508	0,045	0,058
-342,620	-33,003	0,186	0,075
-341,606	224,896	-0,045	0,053
-340,591	30,452	-0,087	0,054
-339,577	-144,315	-0,075	-0,005
-338,562	22,060	-0,063	0,037
-337,548	81,409	0,069	0,055
-336,533	800,000	-0,009	0,024
-335,518	-45,824	0,167	0,060
-334,504	27,345	0,047	0,029
-333,489	-75,282	0,119	-0,031
-332,475	50,776	-0,089	0,062
-331,460	-200,000	0,010	-0,118
-330,445	38,820	0,126	0,082
-329,431	251,309	0,016	-0,020
-328,416	-200,000	-0,017	0,098
-327,402	180,596	-0,037	0,040
-326,387	51,637	0,045	0,032
-325,372	75,812	-0,063	-0,049
-324,358	800,000	-0,044	-0,112
-323,343	800,000	0,032	0,089
-322,329	-3,913	0,098	0,050
-321,314	800,000	0,006	0,015
-320,299	-27,558	-0,060	-0,025
-319,285	-94,742	0,056	0,011
-318,270	-33,071	-0,174	-0,070
-317,256	-200,000	0,012	0,069
-316,241	-200,000	0,009	-0,034
-315,226	-200,000	0,001	-0,019
-314,212	9,148	-0,092	0,051
-313,197	800,000	-0,035	0,112
-312,183	-105,857	0,108	0,018
-311,168	-74,249	-0,136	0,036
-310,153	48,935	-0,045	-0,031
-309,139	313,469	-0,100	0,138
-308,124	138,287	0,102	0,098
-307,110	-69,795	-0,026	0,007
-306,095	-43,009	0,106	-0,039
-305,080	44,531	0,051	0,034
-304,066	-28,461	0,074	-0,031
-303,051	-200,000	-0,018	0,063
-302,037	800,000	-0,012	-0,025
-301,022	-200,000	-0,002	0,106
-300,008	179,849	-0,019	0,021
-298,993	-108,898	-0,185	0,029
-297,978	800,000	-0,025	-0,066
-296,964	-158,634	-0,013	0,001
-295,949	381,122	-0,046	-0,069
-294,935	630,169	-0,048	-0,089
-293,920	-26,796	-0,074	0,032
-292,905	-7,634	0,049	-0,024
-291,891	114,953	-0,057	-0,051
-290,876	-28,353	0,081	0,034
-289,862	-131,151	-0,108	0,010
-288,847	151,535	0,050	-0,050
-287,832	676,566	0,055	0,106
-286,818	118,123	-0,103	-0,093
-285,803	800,000	0,038	0,093
-284,789	24,850	-0,108	0,066
-283,774	-200,000	-0,007	0,099
-282,759	0,211	-0,112	0,058
-281,745	800,000	0,010	0,023
-280,730	183,483	0,035	-0,038
-279,716	109,965	0,048	-0,043
-278,701	800,000	-0,037	0,080
-277,686	72,492	-0,083	0,063
-276,672	-200,000	-0,025	0,127
-275,657	800,000	-0,016	0,041
-274,643	240,722	-0,024	0,029
-273,628	800,000	0,011	-0,028
-272,613	238,563	0,065	-0,079
-271,599	-61,177	-0,094	-0,029
-270,584	-200,000	-0,011	0,104
-269,570	-102,406	0,070	0,012
-268,555	-200,000	0,042	-0,150
-267,540	-200,000	-0,034	-0,115
-266,526	453,669	-0,022	-0,036
-265,511	-64,305	-0,045	0,013
-264,497	800,000	-0,009	0,025
-263,482	-200,000	0,002	0,095
-262,467	246,534	0,039	0,048
-261,453	7,515	0,090	-0,049
-260,438	800,000	-0,055	-0,163
-259,424	800,000	0,042	-0,119
-258,409	87,382	-0,070	0,056
-257,395	-109,138	0,107	0,016
-256,380	-30,350	0,128	0,053
-255,365	-144,504	-0,076	0,005
-254,351	-200,000	0,018	0,057
-253,336	78,266	-0,084	0,066
-252,322	-200,000	0,006	0,119
-251,307	-146,270	-0,060	0,004
-250,292	-200,000	-0,013	0,048
-249,278	-200,000	-0,007	0,079
-248,263	699,771	0,111	0,214
-247,249	396,045	0,028	0,043
-246,234	-34,307	-0,204	0,081
-245,219	35,347	-0,014	0,009
-244,205	-93,203	0,074	-0,015
-243,190	7,454	-0,167	0,091
-242,176	645,682	0,016	0,029
-241,161	40,740	0,170	0,112
-240,146	800,000	-0,011	-0,025
-239,132	85,226	0,039	0,031
-238,117	-54,832	0,104	-0,034
-237,103	91,945	0,047	0,038
-236,088	-200,000	-0,026	-0,116
-235,073	778,631	0,036	-0,073
-234,059	800,000	-0,035	-0,101
-233,044	-5,285	0,018	-0,009
-232,030	-113,543	-0,057	0,008
-231,015	111,993	-0,049	0,043
-230,000	260,950	-0,036	-0,045
-228,986	-53,807	0,112	0,037
-227,971	391,485	-0,092	0,140
-226,957	-49,472	0,105	0,036
-225,942	608,566	0,048	0,087
-224,927	430,989	0,061	0,097
-223,913	26,846	-0,053	-0,033
-222,898	191,749	-0,106	-0,117
-221,884	-100,275	0,041	-0,007
-220,869	800,000	0,020	-0,059
-219,855	-104,387	0,103	0,017
-218,840	569,224	-0,048	0,085
-217,825	317,977	0,061	-0,085
-216,811	800,000	0,079	-0,197
-215,796	-200,000	-0,027	0,135
-214,782	-25,448	-0,134	0,057
-213,767	-200,000	0,011	0,073
-212,752	-200,000	0,024	0,206
-211,738	-101,244	-0,102	0,018
-210,723	800,000	0,056	-0,116
-209,709	319,592	-0,089	0,123
-208,694	60,829	-0,056	0,041
-207,679	-118,227	-0,097	0,012
-206,665	483,798	-0,023	-0,039
-205,650	3,110	-0,047	-0,025
-204,636	-200,000	-0,034	0,125
-203,621	22,799	0,113	0,067
-202,606	85,074	0,027	-0,022
-201,592	329,439	-0,136	-0,191
-200,577	-34,430	0,065	-0,026
-199,563	140,204	-0,067	0,065
-198,548	61,616	-0,118	0,085
-197,533	-102,338	0,172	-0,030
-196,519	-64,064	0,101	-0,030
-195,504	-123,043	-0,048	0,006
-194,490	-200,000	0,003	-0,085
-193,475	-81,446	0,110	-0,026
-192,460	-93,022	0,018	-0,004
-191,446	-87,538	-0,051	-0,011
-190,431	547,559	0,054	0,094
-189,417	71,412	-0,091	0,069
-188,402	-46,539	0,083	-0,029
-187,387	378,744	-0,034	-0,051
-186,373	107,045	0,011	0,009
-185,358	-200,000	-0,006	0,065
-184,344	-200,000	-0,018	-0,073
-183,329	800,000	-0,023	-0,062
-182,315	-92,612	-0,058	0,012
-181,300	-200,000	0,040	-0,145
-180,285	800,000	-0,025	-0,071
-179,271	-197,373	-0,100	0,000
-178,256	-173,430	0,075	-0,002
-177,242	800,000	0,031	0,065
-176,227	-200,000	-0,007	-0,028
-175,212	272,044	-0,053	0,068
-174,198	-200,000	-0,010	-0,084
-173,183	-200,000	-0,019	-0,077
-172,169	19,962	-0,035	-0,020
-171,154	-200,000	0,001	-0,064
-170,139	-200,000	-0,016	0,058
-169,125	-131,337	0,054	-0,005
-168,110	800,000	0,057	0,130
-167,096	800,000	0,044	-0,111
-166,081	413,588	0,093	-0,144
-165,066	-200,000	-0,010	0,057
-164,052	800,000	0,045	-0,134
-163,037	-200,000	-0,014	0,087
-162,023	-80,815	0,149	0,036
-161,008	-200,000	0,009	0,077
-159,993	-37,530	-0,143	0,055
-158,979	-200,000	-0,012	-0,047
-157,964	218,033	-0,097	0,113
-156,950	-37,017	0,081	-0,032
-155,935	800,000	0,020	-0,058
-154,920	12,010	-0,063	-0,035
-153,906	-200,000	0,005	0,035
-152,891	669,975	-0,007	-0,013
-151,877	228,794	-0,086	-0,102
-150,862	-19,082	0,053	-0,024
-149,847	64,558	0,046	0,034
-148,833	188,803	-0,082	-0,089
-147,818	755,922	0,069	0,137
-146,804	39,038	0,076	0,050
-145,789	180,945	-0,060	0,065
-144,775	310,860	-0,045	-0,062
-143,760	146,395	0,082	0,080
-142,745	171,690	-0,029	-0,030
-141,731	-39,900	-0,033	-0,013
-140,716	45,403	0,139	-0,093
-139,702	-132,151	-0,205	0,019
-138,687	-89,879	-0,058	0,012
-137,672	800,000	0,035	-0,078
-136,658	318,209	0,065	0,090
-135,643	84,979	-0,077	-0,062
-134,629	179,262	0,046	0,049
-133,614	-42,235	-0,067	0,025
-132,599	10,955	0,076	0,042
-131,585	-83,752	0,196	0,045
-130,570	-200,000	0,019	-0,094
-129,556	50,260	-0,032	0,022
-128,541	-24,691	-0,021	0,009
-127,526	-200,000	-0,005	-0,040
-126,512	-200,000	-0,046	0,000
-125,497	191,696	0,103	0,113
-124,483	-200,000	0,002	0,092
-123,468	47,082	-0,040	-0,027
-122,453	123,488	-0,083	-0,076
-121,439	192,459	-0,078	-0,086
-120,424	-92,003	-0,113	0,023
-119,410	699,797	-0,025	-0,049
-118,395	-22,897	0,082	0,036
-117,380	-38,259	0,108	0,041
-116,366	-82,492	-0,068	-0,016
-115,351	-200,000	-0,007	-0,057
-114,337	800,000	-0,026	-0,076
-113,322	173,484	-0,020	0,021
-112,307	800,000	0,019	-0,048
-111,293	-200,000	-0,001	-0,101
-110,278	800,000	-0,042	-0,102
-109,264	123,702	0,063	0,057
-108,249	-200,000	0,007	0,116
-107,234	-200,000	0,003	-0,087
-106,220	220,719	0,024	-0,028
-105,205	671,031	-0,029	0,055
-104,191	800,000	0,053	0,136
-103,176	122,500	-0,059	0,053
-102,162	93,441	-0,016	0,013
-101,147	401,751	-0,038	-0,059
-100,132	-91,184	-0,040	-0,008
-99,118	304,184	0,054	-0,073
-98,103	148,066	0,039	0,038
-97,089	134,462	0,125	0,118
-96,074	-17,804	0,055	0,025
-95,059	359,399	-0,019	-0,028
-94,045	151,344	0,089	0,088
-93,030	-159,214	-0,076	-0,003
-92,016	443,014	0,057	-0,091
-91,001	800,000	-0,030	-0,083
-89,986	257,259	0,018	-0,022
-88,972	-2,827	0,036	0,018
-87,957	230,262	-0,103	0,123
-86,943	33,546	0,027	-0,017
-85,928	-74,460	0,083	-0,022
-84,913	-106,714	0,112	0,018
-83,899	101,156	-0,135	-0,114
-82,884	-189,953	0,026	0,000
-81,870	-200,000	0,005	0,089
-80,855	44,377	0,082	0,054
-79,840	120,525	-0,024	0,021
-78,826	-200,000	-0,018	-0,069
-77,811	800,000	0,028	-0,089
-76,797	269,851	-0,111	-0,142
-75,782	-164,569	0,044	0,001
-74,767	-78,683	0,144	-0,035
-73,753	243,415	0,049	-0,059
-72,738	107,952	-0,068	0,058
-71,724	304,676	-0,107	0,144
-70,709	800,000	-0,046	-0,098
-69,694	800,000	0,009	-0,025
-68,680	247,154	0,087	0,107
-67,665	800,000	0,039	0,110
-66,651	69,951	0,070	0,052
-65,636	-200,000	-0,002	-0,011
-64,622	103,126	0,025	0,021
-63,607	261,936	-0,064	-0,081
-62,592	-117,681	-0,098	0,013
-61,578	-200,000	0,007	-0,219
-60,563	92,138	0,077	0,063
-59,549	-200,000	0,005	0,136
-58,534	-101,028	-1,635	-0,288
-57,519	627,994	-0,743	-1,367
-56,505	-200,000	-1,013	-4,716
-55,490	-85,640	0,664	-0,148
-54,476	800,000	5,259	12,050
-53,461	-200,000	15,125	268,922
-52,446	-200,000	695,174	2237,725
-51,432	575,033	1616,063	2871,006
-50,417	121,057	1626,648	1467,230
-49,403	82,032	1283,957	1007,655
-48,388	37,676	1024,517	657,899
-47,373	22,411	985,147	582,238
-46,359	21,350	974,127	572,209
-45,344	19,911	969,933	565,003
-44,330	19,926	968,678	564,297
-43,315	19,716	966,919	562,564
-42,300	19,639	966,176	561,858
-41,286	19,722	965,123	561,494
-40,271	19,680	963,989	560,675
-39,257	19,693	963,168	560,218
-38,242	19,706	962,471	559,832
-37,227	19,718	961,564	559,320
-36,213	19,663	960,647	558,587
-35,198	19,665	959,824	558,094
-34,184	19,720	959,079	557,817
-33,169	19,673	958,230	557,146
-32,154	19,650	957,219	556,462
-31,140	19,700	956,090	555,947
-30,125	19,730	955,460	555,654
-29,111	19,712	954,613	555,083
-28,096	19,740	954,110	554,857
-27,082	19,678	953,574	554,324
-26,067	19,682	952,534	553,709
-25,052	19,689	951,922	553,354
-24,038	19,656	951,377	552,909
-23,023	19,697	950,480	552,498
-22,009	19,679	949,728	551,982
-20,994	19,673	949,241	551,657
-19,979	19,719	948,489	551,348
-18,965	19,683	947,843	550,834
-17,950	19,710	947,244	550,550
-16,936	19,644	946,758	550,034
-15,921	19,558	946,222	549,426
-14,906	19,572	945,371	548,956
-13,892	19,545	944,755	548,490
-12,877	19,533	944,018	548,001
-11,863	19,461	943,618	547,519
-10,848	19,559	943,080	547,495
-9,833	19,668	942,667	547,583
-8,819	19,641	941,939	547,052
-7,804	19,591	941,347	546,527
-6,790	19,563	940,737	546,062
-5,775	19,581	940,410	545,907
-4,760	19,620	939,469	545,465
-3,746	19,555	938,840	544,871
-2,731	19,417	938,065	543,961
-1,717	19,389	937,520	543,536
-0,702	19,400	936,792	543,126
0,313	19,209	936,176	542,985
1,327	22,191	934,320	551,282
2,342	31,285	794,340	492,917
3,356	28,425	449,410	274,547
4,371	-1,637	294,555	149,799
5,386	-5,772	275,858	136,345
6,400	-7,205	270,156	132,178
7,415	-7,637	267,852	130,640
8,429	-7,210	266,525	130,374
9,444	-7,318	265,812	129,914
10,459	-7,081	265,113	129,779
11,473	-7,314	264,392	129,201
12,488	-7,273	264,029	129,050
13,502	-7,457	263,588	128,655
14,517	-7,264	263,114	128,587
15,531	-6,984	262,750	128,652
16,546	-6,876	262,401	128,567
17,561	-6,925	261,892	128,262
18,575	-6,984	261,846	128,175
19,590	-7,145	261,570	127,883
20,604	-7,084	261,248	127,769
21,619	-7,034	260,876	127,621
22,634	-6,882	260,473	127,549
23,648	-6,938	259,962	127,238
24,663	-6,974	259,869	127,149
25,677	-7,178	259,730	126,886
26,692	-7,126	259,495	126,807
27,707	-7,157	259,268	126,656
28,721	-7,149	258,893	126,470
29,736	-7,192	258,752	126,351
30,750	-7,031	258,340	126,282
31,765	-7,185	258,122	126,027
32,780	-7,014	257,900	126,060
33,794	-6,998	257,866	126,046
34,809	-7,129	257,382	125,681
35,823	-7,150	257,187	125,557
36,838	-7,212	257,096	125,446
37,853	-7,245	256,914	125,317
38,867	-7,188	256,519	125,164
39,882	-7,035	256,317	125,189
40,896	-7,163	255,999	124,909
41,911	-7,270	255,893	124,752
42,926	-7,345	255,700	124,581
43,940	-7,219	255,310	124,490
44,955	-7,193	255,181	124,440
45,969	-7,089	254,929	124,397
46,984	-7,469	254,825	124,002
47,999	-7,557	254,404	123,709
49,013	-7,773	254,285	123,451
50,028	-7,862	254,033	123,240
51,042	-7,823	253,806	123,152
52,057	-7,840	253,349	122,905
53,071	-7,824	253,341	122,904
54,086	-7,824	253,088	122,771
55,101	-7,755	253,074	122,813
56,115	-7,453	252,747	122,906
57,130	-7,029	252,679	123,230
58,144	-6,930	252,496	123,215
59,159	-6,934	252,310	123,110
60,174	-7,116	252,256	122,916
61,188	-7,070	252,030	122,834
62,203	-7,129	251,577	122,551
63,217	-7,058	251,474	122,551
64,232	-7,112	251,340	122,429
65,247	-7,099	251,284	122,402
66,261	-7,174	250,889	122,134
67,276	-7,122	250,527	121,991
68,290	-7,387	250,327	121,655
69,305	-7,656	250,199	121,351
70,320	-7,351	249,918	121,466
71,334	-7,264	249,846	121,494
72,349	-7,058	249,604	121,543
73,363	-7,007	249,546	121,547
74,378	-7,082	249,273	121,339
75,393	-7,305	249,147	121,076
76,407	-7,075	248,868	121,127
77,422	-7,040	248,784	121,105
78,436	-7,193	248,603	120,875
79,451	-7,047	248,167	120,777
80,466	-7,046	248,008	120,689
81,480	-7,211	247,847	120,460
82,495	-7,333	247,627	120,238
83,509	-7,370	247,445	120,108
84,524	-7,452	247,318	119,967
85,539	-7,650	247,138	119,701
86,553	-7,273	246,848	119,869
87,568	-7,425	246,624	119,620
88,582	-7,318	246,541	119,660
89,597	-7,379	246,331	119,496
90,611	-7,294	246,172	119,480
91,626	-7,256	245,994	119,414
92,641	-7,057	245,756	119,457
93,655	-7,280	245,548	119,157
94,670	-7,399	245,428	118,988
95,684	-7,131	245,195	119,090
96,699	-7,211	244,930	118,883
97,714	-7,358	244,843	118,707
98,728	-7,449	244,619	118,511
99,743	-7,451	244,410	118,398
100,757	-7,485	244,117	118,217
101,772	-7,287	243,851	118,243
102,787	-7,275	243,805	118,220
103,801	-7,463	243,817	118,058
104,816	-7,232	243,477	118,076
105,830	-7,119	243,324	118,085
106,845	-7,316	243,268	117,884
107,860	-7,173	243,203	117,960
108,874	-7,373	242,860	117,617
109,889	-7,441	242,677	117,462
110,903	-7,422	242,302	117,286
111,918	-7,444	242,372	117,291
112,933	-7,512	242,179	117,131
113,947	-7,227	241,993	117,266
114,962	-7,169	241,687	117,155
115,976	-7,172	241,602	117,102
116,991	-7,020	241,346	117,092
118,006	-7,051	241,063	116,919
119,020	-7,319	241,186	116,748
120,035	-7,093	241,130	116,896
121,049	-7,120	240,937	116,770
122,064	-7,195	240,701	116,584
123,079	-7,321	240,509	116,377
124,093	-7,410	240,157	116,122
125,108	-7,281	240,027	116,155
126,122	-7,684	239,931	115,768
127,137	-7,421	239,562	115,795
128,151	-7,538	239,506	115,662
129,166	-7,369	239,274	115,677
130,181	-7,328	239,028	115,582
131,195	-7,385	238,894	115,460
132,210	-7,208	238,843	115,569
133,224	-7,218	238,546	115,407
134,239	-7,163	238,492	115,416
135,254	-7,343	238,325	115,179
136,268	-7,320	238,057	115,057
137,283	-7,590	237,814	114,710
138,297	-7,733	237,755	114,555
139,312	-7,660	237,402	114,435
140,327	-7,236	237,313	114,724
141,341	-7,013	237,252	114,866
142,356	-7,002	237,239	114,857
143,370	-6,916	237,021	114,811
144,385	-6,861	236,819	114,748
145,400	-6,852	236,641	114,658
146,414	-6,920	236,472	114,512
147,429	-6,920	236,304	114,420
148,443	-6,959	236,144	114,301
149,458	-7,070	236,008	114,136
150,473	-7,056	235,686	113,982
151,487	-7,232	235,606	113,790
152,502	-7,036	235,619	113,944
153,516	-6,873	235,327	113,923
154,531	-7,026	235,224	113,741
155,546	-7,007	235,009	113,642
156,560	-6,930	234,744	113,566
157,575	-7,164	234,549	113,274
158,589	-7,271	234,458	113,135
159,604	-6,785	234,289	113,431
160,619	-6,813	234,187	113,349
161,633	-6,763	234,007	113,292
162,648	-6,884	233,880	113,123
163,662	-6,929	233,785	113,031
164,677	-6,999	233,423	112,791
165,692	-7,118	233,442	112,696
166,706	-7,089	233,412	112,694
167,721	-6,848	233,087	112,718
168,735	-6,832	232,998	112,678
169,750	-6,934	232,783	112,483
170,764	-6,904	232,734	112,473
171,779	-7,034	232,563	112,278
172,794	-7,017	232,332	112,169
173,808	-7,040	231,927	111,946
174,823	-7,357	231,853	111,650
175,837	-7,590	231,604	111,336
176,852	-7,216	231,689	111,662
177,867	-6,955	231,485	111,760
178,881	-6,878	231,296	111,719
179,896	-7,070	231,263	111,542
180,910	-7,089	231,102	111,439
181,925	-6,903	230,809	111,434
182,940	-6,838	230,597	111,373
183,954	-6,875	230,608	111,339
184,969	-6,686	230,519	111,434
185,983	-6,811	230,351	111,245
186,998	-6,708	230,120	111,205
188,013	-6,896	229,892	110,938
189,027	-6,725	229,715	110,975
190,042	-6,771	229,630	110,889
191,056	-6,892	229,617	110,778
192,071	-6,613	229,366	110,865
193,086	-6,933	229,097	110,476
194,100	-7,095	228,912	110,251
195,115	-7,513	228,572	109,752
196,129	-7,890	228,311	109,325
197,144	-4,256	229,673	112,800
198,159	0,551	230,901	117,151
199,173	3,956	231,952	120,341
200,188	4,372	231,952	120,655
201,202	4,499	231,807	120,669
202,217	4,719	231,605	120,725
203,232	4,904	231,582	120,846
204,246	4,981	231,261	120,728
205,261	4,895	231,403	120,724
206,275	5,208	231,084	120,790
207,290	5,106	230,873	120,591
208,304	4,967	230,794	120,431
209,319	5,084	230,552	120,384
210,334	5,086	230,396	120,293
211,348	4,782	230,167	119,928
212,363	4,433	229,825	119,468
213,377	4,170	229,815	119,249
214,392	4,002	229,529	118,961
215,407	4,219	229,459	119,081
216,421	4,304	229,306	119,056
217,436	4,139	229,025	118,773
218,450	4,128	228,797	118,635
219,465	3,728	228,764	118,299
220,480	4,003	228,638	118,436
221,494	4,038	228,452	118,356
222,509	3,948	228,385	118,241
223,523	3,909	228,245	118,128
224,538	4,118	228,070	118,188
225,553	4,077	228,085	118,153
226,567	4,341	227,907	118,253
227,582	4,439	227,858	118,292
228,596	4,354	227,725	118,148
229,611	4,362	227,310	117,928
230,626	4,140	227,065	117,620
231,640	4,117	226,978	117,547
232,655	4,500	226,842	117,759
233,669	4,464	226,996	117,801
234,684	4,761	226,791	117,911
235,699	4,385	226,601	117,515
236,713	4,267	226,280	117,248
237,728	4,304	226,152	117,199
238,742	4,176	225,936	116,979
239,757	4,162	225,834	116,906
240,772	4,078	225,707	116,766
241,786	4,049	225,527	116,640
242,801	4,280	225,527	116,805
243,815	4,520	225,456	116,939
244,830	4,622	225,217	116,882
245,844	4,546	224,947	116,675
246,859	4,152	224,960	116,373
247,874	4,405	224,741	116,440
248,888	4,508	224,582	116,425
249,903	4,341	224,478	116,235
250,917	4,105	224,308	115,959
251,932	4,397	224,115	116,068
252,947	4,078	224,029	115,774
253,961	4,058	223,742	115,600
254,976	4,300	223,568	115,681
255,990	4,392	223,672	115,794
257,005	4,401	223,422	115,661
258,020	4,372	223,311	115,571
259,034	4,632	223,188	115,692
260,049	4,560	223,070	115,567
261,063	4,435	222,888	115,369
262,078	4,746	222,656	115,470
263,093	4,724	222,572	115,400
264,107	4,560	222,491	115,226
265,122	4,516	222,362	115,116
266,136	4,506	222,391	115,113
267,151	4,609	222,053	115,005
268,166	4,164	221,937	114,603
269,180	4,162	221,585	114,410
270,195	4,006	221,600	114,291
271,209	4,248	221,326	114,319
272,224	4,044	221,364	114,178
273,239	4,247	221,074	114,168
274,253	4,218	220,958	114,077
275,268	3,901	220,758	113,729
276,282	3,973	220,489	113,633
277,297	3,988	220,416	113,596
278,312	3,878	220,435	113,515
279,326	4,282	220,146	113,654
280,341	4,046	220,132	113,463
281,355	4,247	220,002	113,533
282,370	4,031	219,736	113,228
283,384	4,078	219,531	113,146
284,399	3,947	219,487	113,017
285,414	3,937	219,416	112,963
286,428	4,166	219,308	113,065
287,443	4,473	219,104	113,175
288,457	4,213	219,000	112,921
289,472	4,209	218,804	112,807
290,487	3,787	218,601	112,383
291,501	3,644	218,439	112,185
292,516	3,861	218,304	112,265
293,530	3,909	218,239	112,257
294,545	3,865	218,052	112,118
295,560	3,947	218,020	112,151
296,574	4,121	217,731	112,119
297,589	4,069	217,734	112,073
298,603	4,380	217,638	112,240
299,618	4,211	217,416	111,993
300,633	4,263	217,375	111,999
301,647	4,434	217,261	112,055
302,662	4,558	217,105	112,054
303,676	4,170	217,001	111,709
304,691	4,338	216,766	111,700
305,706	4,333	216,627	111,615
306,720	4,214	216,571	111,490
307,735	4,439	216,288	111,497
308,749	4,113	216,193	111,203
309,764	4,315	215,946	111,211
310,779	4,389	215,986	111,275
311,793	4,494	215,741	111,214
312,808	4,200	215,714	110,979
313,822	3,935	215,640	110,741
314,837	4,185	215,431	110,803
315,852	3,883	215,245	110,481
316,866	4,127	215,135	110,589
317,881	4,438	214,954	110,710
318,895	4,336	214,840	110,568
319,910	4,220	214,667	110,386
320,925	3,664	214,530	109,908
321,939	3,637	214,331	109,777
322,954	3,712	214,171	109,738
323,968	4,231	214,132	110,079
324,983	4,288	214,126	110,107
325,997	4,291	214,000	110,035
327,012	4,199	213,859	109,887
328,027	4,260	213,634	109,804
329,041	4,551	213,565	109,967
330,056	4,823	213,586	110,161
331,070	4,179	213,120	109,454
332,085	4,007	212,983	109,251
333,100	3,941	212,950	109,178
334,114	4,356	212,807	109,389
335,129	4,300	212,578	109,222
336,143	4,314	212,399	109,130
337,158	3,921	212,316	108,799
338,173	3,984	212,288	108,820
339,187	3,711	212,058	108,500
340,202	3,535	211,875	108,272
341,216	3,691	211,760	108,314
342,231	3,989	211,652	108,459
343,246	4,009	211,469	108,370
344,260	3,914	211,427	108,272
345,275	3,866	211,350	108,189
346,289	4,159	211,309	108,364
347,304	4,068	211,223	108,247
348,319	4,125	210,816	108,069
349,333	4,405	210,582	108,135
350,348	4,275	210,498	107,991
351,362	4,191	210,566	107,957
352,377	4,351	210,536	108,045
353,392	4,135	210,350	107,789
354,406	4,250	210,063	107,712
355,421	192,519	1344,499	1426,944
356,435	153,605	1482,765	1427,014
