DTS Sentinel unit serial number:	SN410029Multiplexer serial number:	ORYXHardware model number:	OX2-SRSoftware version number:	ORYX F/W v4,00 Oryx Data Collector v3.7.2.0data status	okinstallation	B6 Nyhavnadifferential loss correction	single-endedforward channel	channel 2reverse channel	N/Adate	2023/12/07time	12:40:08forward acquisition time	300,00reverse acquisition time	0,00gamma	499,1914k internal	0,3203k external	0,3203temperature offset calibration	1,0000default loss term (dB/km)	0,3820temperature slope calibration	1,0000multiplexer offset coefficient	1,0000multiplexer slope coefficient	1,0000fibre end	0,00T internal ref (°C)	10,47T ext. ref 1 (°C)	-3,06T ext. ref 2 (°C)	-3,02length (m)	temperature (°C)	Stokes	anti-Stokes-744,400	-164,796	0,115	0,004
-743,385	-47,980	-0,285	0,100
-742,371	478,584	0,042	0,070
-741,356	-115,936	-0,291	-0,039
-740,342	460,313	0,058	0,094
-739,327	-21,402	-0,246	-0,108
-738,312	-200,000	0,003	-0,068
-737,298	-57,772	-0,348	-0,110
-736,283	175,227	0,067	-0,071
-735,269	-97,277	-0,234	-0,044
-734,254	230,182	0,142	0,169
-733,239	23,040	-0,479	-0,285
-732,225	-49,666	0,242	0,083
-731,210	215,434	0,047	0,055
-730,196	800,000	0,047	0,105
-729,181	-200,000	-0,017	-0,085
-728,167	-200,000	0,003	0,019
-727,152	-200,000	0,017	-0,126
-726,137	154,138	-0,132	-0,132
-725,123	149,049	-0,101	-0,099
-724,108	800,000	0,119	-0,261
-723,094	-37,316	-0,199	-0,077
-722,079	798,281	-0,034	-0,069
-721,064	382,595	-0,023	0,034
-720,050	261,348	0,098	0,123
-719,035	483,199	0,032	-0,052
-718,021	-67,543	-0,141	-0,040
-717,006	474,366	0,021	-0,035
-715,991	-167,071	-0,108	0,003
-714,977	80,160	-0,085	-0,066
-713,962	-200,000	0,017	-0,067
-712,948	314,473	0,028	0,039
-711,933	-200,000	-0,003	-0,036
-710,918	-30,447	-0,017	-0,007
-709,904	150,620	-0,169	-0,167
-708,889	416,213	-0,084	0,130
-707,875	-200,000	-0,024	-0,128
-706,860	304,980	-0,021	-0,028
-705,845	40,046	0,048	-0,031
-704,831	-200,000	0,012	0,129
-703,816	-84,154	-0,086	-0,020
-702,802	800,000	0,051	-0,154
-701,787	36,020	-0,156	-0,099
-700,772	-200,000	0,013	-0,222
-699,758	0,842	-0,085	-0,044
-698,743	200,615	-0,049	-0,055
-697,729	379,673	0,070	-0,105
-696,714	-148,690	-0,093	-0,005
-695,699	-200,000	-0,019	-0,129
-694,685	-159,085	-0,199	0,008
-693,670	92,921	0,030	0,024
-692,656	-200,000	0,006	0,024
-691,641	800,000	-0,030	0,086
-690,627	-132,645	-0,049	0,004
-689,612	592,090	-0,044	-0,079
-688,597	93,352	-0,118	-0,097
-687,583	800,000	-0,026	-0,070
-686,568	-200,000	0,021	-0,088
-685,554	800,000	-0,030	0,061
-684,539	-74,543	0,138	-0,036
-683,524	286,629	0,040	0,052
-682,510	718,997	0,035	0,068
-681,495	-200,000	-0,019	-0,131
-680,481	-200,000	-0,008	-0,135
-679,466	60,835	-0,169	-0,121
-678,451	51,563	-0,050	0,034
-677,437	800,000	-0,055	0,170
-676,422	-55,756	0,147	0,047
-675,408	58,847	0,054	-0,039
-674,393	-16,892	-0,103	0,047
-673,378	-127,480	-0,205	-0,021
-672,364	-200,000	-0,013	-0,141
-671,349	-15,110	-0,208	-0,096
-670,335	197,398	0,051	-0,057
-669,320	278,116	-0,040	0,052
-668,305	102,836	-0,105	-0,089
-667,291	-31,314	-0,049	0,020
-666,276	-200,000	-0,017	-0,103
-665,262	-56,229	0,126	-0,040
-664,247	-122,377	-0,110	-0,013
-663,232	-200,000	0,013	0,048
-662,218	-200,000	-0,007	0,117
-661,203	36,273	-0,073	-0,046
-660,189	-31,954	0,050	-0,020
-659,174	338,468	0,122	-0,173
-658,159	-143,690	-0,043	0,003
-657,145	-200,000	-0,012	-0,119
-656,130	295,865	-0,065	-0,087
-655,116	114,672	-0,060	0,053
-654,101	414,859	0,073	-0,113
-653,086	800,000	0,023	-0,065
-652,072	-200,000	-0,028	-0,162
-651,057	684,995	-0,059	-0,112
-650,043	246,359	0,070	-0,086
-649,028	-73,781	0,098	0,026
-648,014	540,195	0,046	0,080
-646,999	186,464	-0,058	0,063
-645,984	181,466	-0,083	0,088
-644,970	88,395	-0,075	-0,060
-643,955	118,254	-0,133	-0,119
-642,941	-21,024	0,039	-0,017
-641,926	-200,000	0,004	-0,038
-640,911	72,060	0,093	-0,070
-639,897	-73,795	0,121	-0,032
-638,882	-14,440	-0,136	-0,063
-637,868	-64,664	0,124	-0,036
-636,853	-200,000	0,010	-0,078
-635,838	496,820	-0,023	-0,039
-634,824	112,007	-0,037	-0,033
-633,809	3,232	-0,108	0,057
-632,795	-50,034	0,165	-0,056
-631,780	-39,974	0,054	-0,020
-630,765	-137,498	-0,166	0,013
-629,751	-164,149	-0,022	-0,001
-628,736	800,000	-0,005	-0,011
-627,722	-200,000	-0,029	0,188
-626,707	44,011	0,015	-0,010
-625,692	800,000	-0,016	-0,051
-624,678	-37,826	0,106	-0,041
-623,663	81,769	-0,071	-0,055
-622,649	800,000	0,009	0,030
-621,634	-59,216	-0,131	-0,041
-620,619	-60,548	-0,017	-0,005
-619,605	-200,000	0,029	0,130
-618,590	539,011	-0,035	0,061
-617,576	-200,000	0,036	0,132
-616,561	-200,000	-0,011	-0,075
-615,546	-200,000	-0,023	0,080
-614,532	-200,000	-0,012	-0,119
-613,517	-104,158	-0,170	-0,028
-612,503	-200,000	-0,009	0,059
-611,488	-110,744	0,160	-0,024
-610,474	-200,000	-0,011	-0,060
-609,459	-128,197	-0,132	-0,013
-608,444	-0,678	-0,037	0,019
-607,430	-75,941	-0,057	0,015
-606,415	-37,364	-0,017	-0,006
-605,401	-26,204	-0,085	0,036
-604,386	213,945	-0,046	0,053
-603,371	-161,950	0,088	0,003
-602,357	-121,857	-0,147	0,017
-601,342	25,549	-0,131	-0,078
-600,328	800,000	0,048	-0,133
-599,313	-200,000	-0,001	-0,119
-598,298	271,344	0,134	-0,172
-597,284	501,975	0,102	0,171
-596,269	-61,260	0,173	-0,052
-595,255	800,000	0,019	0,058
-594,240	80,224	0,116	0,090
-593,225	-200,000	-0,013	-0,069
-592,211	432,397	-0,049	0,077
-591,196	72,014	-0,015	-0,011
-590,182	124,500	0,135	0,123
-589,167	54,218	0,059	-0,041
-588,152	156,652	-0,039	0,039
-587,138	407,088	-0,040	-0,061
-586,123	-90,965	-0,100	-0,021
-585,109	-56,609	0,095	-0,030
-584,094	-179,545	-0,105	-0,002
-583,079	-28,919	-0,028	-0,012
-582,065	800,000	0,032	0,099
-581,050	-200,000	-0,026	-0,093
-580,036	-200,000	0,000	-0,103
-579,021	298,186	-0,024	-0,032
-578,006	178,545	-0,028	-0,029
-576,992	-190,891	-0,055	-0,000
-575,977	403,178	-0,095	-0,145
-574,963	-141,217	0,020	0,001
-573,948	141,994	0,132	-0,126
-572,934	800,000	-0,014	0,036
-571,919	262,301	-0,084	-0,105
-570,904	-200,000	-0,016	-0,095
-569,890	-179,025	-0,177	-0,003
-568,875	195,666	0,108	0,118
-567,861	86,021	0,083	0,066
-566,846	-85,792	0,046	0,010
-565,831	5,300	0,075	-0,040
-564,817	412,845	-0,085	0,131
-563,802	-56,379	-0,121	0,039
-562,788	65,865	-0,061	-0,045
-561,773	800,000	0,041	0,117
-560,758	100,305	0,108	0,090
-559,744	800,000	0,041	0,107
-558,729	-50,198	0,068	-0,023
-557,715	-45,174	-0,099	-0,035
-556,700	-200,000	-0,012	0,057
-555,685	56,590	-0,085	-0,059
-554,671	44,408	0,037	0,025
-553,656	414,697	0,045	0,069
-552,642	301,274	0,065	0,087
-551,627	155,585	-0,066	0,066
-550,612	800,000	-0,023	-0,048
-549,598	-110,212	-0,110	-0,016
-548,583	48,393	-0,072	-0,049
-547,569	-93,028	0,074	0,015
-546,554	-128,163	0,096	-0,010
-545,539	-89,626	0,090	0,019
-544,525	-120,052	0,046	0,006
-543,510	-136,275	-0,072	-0,006
-542,496	12,658	0,062	-0,034
-541,481	-111,088	-0,092	-0,013
-540,466	-200,000	0,009	-0,170
-539,452	-117,539	0,060	0,008
-538,437	-167,054	-0,035	0,001
-537,423	800,000	0,080	0,241
-536,408	-200,000	0,018	0,161
-535,393	11,943	0,096	0,053
-534,379	597,092	0,078	-0,140
-533,364	-200,000	0,030	-0,202
-532,350	30,902	0,034	0,021
-531,335	-161,711	0,066	-0,002
-530,321	13,142	-0,064	-0,036
-529,306	-115,801	0,079	0,010
-528,291	424,132	0,038	-0,059
-527,277	19,819	-0,123	-0,071
-526,262	21,079	-0,038	-0,022
-525,248	-85,813	0,141	-0,031
-524,233	56,930	0,047	0,033
-523,218	-133,819	0,026	0,002
-522,204	375,008	0,038	-0,056
-521,189	-200,000	-0,030	-0,099
-520,175	412,613	-0,045	-0,069
-519,160	-200,000	-0,033	0,223
-518,145	-70,911	-0,107	0,029
-517,131	48,738	0,118	-0,080
-516,116	-57,928	-0,118	-0,037
-515,102	-200,000	0,004	-0,095
-514,087	33,932	0,090	0,056
-513,072	-10,068	-0,027	0,013
-512,058	110,452	0,064	-0,055
-511,043	-55,132	0,114	-0,037
-510,029	-200,000	0,015	-0,076
-509,014	577,869	-0,023	0,041
-507,999	74,400	-0,024	0,018
-506,985	169,700	-0,099	-0,102
-505,970	-200,000	0,011	-0,068
-504,956	-194,856	-0,020	0,000
-503,941	19,428	0,091	-0,052
-502,926	119,403	-0,052	0,047
-501,912	376,573	0,028	-0,041
-500,897	204,979	-0,043	-0,048
-499,883	800,000	0,035	-0,078
-498,868	-200,000	-0,018	-0,074
-497,853	-200,000	0,001	-0,020
-496,839	-7,262	-0,030	0,014
-495,824	-83,767	-0,098	-0,022
-494,810	47,552	0,062	0,042
-493,795	800,000	0,032	0,077
-492,781	-37,576	-0,127	-0,049
-491,766	-98,744	-0,143	0,026
-490,751	432,254	0,006	-0,010
-489,737	-86,439	-0,106	-0,023
-488,722	-200,000	0,010	0,066
-487,708	185,133	0,048	0,051
-486,693	800,000	0,036	-0,097
-485,678	-152,590	-0,156	0,008
-484,664	-200,000	-0,009	0,121
-483,649	596,283	-0,030	0,054
-482,635	210,550	0,053	-0,060
-481,620	-200,000	0,009	0,034
-480,605	-139,161	-0,102	-0,008
-479,591	800,000	0,028	0,086
-478,576	-127,472	-0,059	-0,006
-477,562	-137,565	-0,110	-0,009
-476,547	-72,810	-0,133	-0,035
-475,532	-39,111	0,089	-0,033
-474,518	-90,877	0,075	0,015
-473,503	519,715	0,066	-0,112
-472,489	332,105	-0,029	-0,040
-471,474	123,949	-0,101	0,091
-470,459	616,434	0,020	0,036
-469,445	-200,000	0,020	-0,084
-468,430	-200,000	0,023	-0,104
-467,416	623,945	0,027	-0,049
-466,401	46,283	-0,054	0,036
-465,386	43,192	-0,043	-0,028
-464,372	170,583	-0,072	0,074
-463,357	-28,418	-0,056	0,023
-462,343	800,000	0,048	-0,097
-461,328	-200,000	0,024	-0,097
-460,313	-113,412	0,074	0,010
-459,299	247,348	0,016	0,019
-458,284	598,481	0,059	0,105
-457,270	90,619	-0,020	0,016
-456,255	-200,000	-0,009	0,106
-455,241	18,781	-0,041	0,023
-454,226	-166,153	0,181	-0,005
-453,211	-200,000	-0,012	0,056
-452,197	-200,000	-0,017	0,064
-451,182	644,573	0,025	-0,047
-450,168	141,964	-0,040	-0,039
-449,153	-44,115	-0,011	-0,004
-448,138	0,310	-0,166	-0,085
-447,124	-200,000	0,029	-0,092
-446,109	-29,492	-0,046	-0,019
-445,095	-68,539	0,066	0,018
-444,080	-49,896	0,041	-0,014
-443,065	-200,000	-0,018	0,096
-442,051	616,272	-0,081	-0,146
-441,036	800,000	-0,083	-0,166
-440,022	584,944	-0,064	0,113
-439,007	800,000	-0,008	-0,017
-437,992	144,740	0,080	0,077
-436,978	34,379	-0,045	-0,028
-435,963	-100,586	0,082	-0,014
-434,949	402,216	0,129	0,196
-433,934	68,522	-0,089	-0,066
-432,919	-176,780	0,089	-0,002
-431,905	298,043	0,090	0,120
-430,890	-200,000	0,022	0,130
-429,876	800,000	-0,031	0,067
-428,861	123,358	0,129	0,116
-427,846	51,968	-0,117	-0,080
-426,832	439,160	-0,049	0,077
-425,817	-111,983	-0,074	0,011
-424,803	261,133	0,065	0,082
-423,788	-200,000	-0,006	0,056
-422,773	800,000	0,074	0,214
-421,759	294,179	0,094	0,124
-420,744	-108,065	-0,119	0,018
-419,730	-134,687	0,211	0,018
-418,715	-145,160	-0,136	-0,009
-417,701	113,796	-0,008	0,007
-416,686	-52,347	0,161	-0,053
-415,671	43,024	0,051	0,033
-414,657	172,455	-0,053	-0,054
-413,642	61,933	0,058	0,041
-412,628	582,809	-0,015	-0,026
-411,613	-91,365	0,023	-0,005
-410,598	-132,742	-0,125	-0,011
-409,584	-92,822	0,065	-0,013
-408,569	370,682	0,039	0,058
-407,555	350,308	0,092	0,131
-406,540	435,229	0,081	0,126
-405,525	-200,000	-0,018	-0,120
-404,511	-149,232	-0,056	0,003
-403,496	75,727	-0,020	0,015
-402,482	-200,000	-0,026	0,096
-401,467	99,408	0,072	-0,060
-400,452	10,006	0,115	0,062
-399,438	151,066	0,152	0,148
-398,423	-29,496	0,054	0,022
-397,409	69,993	-0,121	-0,090
-396,394	123,450	0,059	-0,053
-395,379	-200,000	-0,009	-0,062
-394,365	175,243	0,075	0,078
-393,350	800,000	-0,014	-0,037
-392,336	-200,000	0,004	-0,048
-391,321	-102,263	-0,049	-0,008
-390,306	-200,000	0,014	0,064
-389,292	800,000	-0,030	-0,083
-388,277	-125,467	0,191	-0,021
-387,263	-34,133	-0,033	-0,013
-386,248	80,523	0,078	0,060
-385,233	-103,739	-0,096	0,016
-384,219	-200,000	0,006	-0,036
-383,204	-200,000	0,006	-0,082
-382,190	800,000	-0,063	-0,142
-381,175	800,000	-0,024	0,051
-380,160	-29,395	0,026	-0,011
-379,146	800,000	0,022	0,051
-378,131	325,629	0,025	0,034
-377,117	-200,000	0,037	-0,131
-376,102	161,009	-0,073	-0,074
-375,088	-200,000	0,021	0,089
-374,073	-200,000	-0,031	0,100
-373,058	126,796	0,057	0,052
-372,044	-200,000	0,005	0,069
-371,029	-200,000	0,018	0,113
-370,015	-176,041	-0,051	-0,001
-369,000	238,162	-0,088	-0,105
-367,985	800,000	-0,033	-0,080
-366,971	67,550	0,080	0,058
-365,956	-200,000	-0,008	0,073
-364,942	-156,759	0,127	-0,006
-363,927	93,870	-0,095	0,077
-362,912	-34,866	-0,120	0,047
-361,898	800,000	-0,046	-0,116
-360,883	800,000	-0,024	-0,071
-359,869	-200,000	0,018	0,169
-358,854	132,915	0,018	0,017
-357,839	-69,939	0,047	-0,013
-356,825	390,715	-0,042	-0,063
-355,810	-1,004	-0,066	0,033
-354,796	-200,000	0,030	0,177
-353,781	-51,153	0,160	0,053
-352,766	800,000	-0,033	0,072
-351,752	-200,000	0,014	0,054
-350,737	-200,000	0,001	0,022
-349,723	800,000	0,042	-0,100
-348,708	-200,000	0,002	0,129
-347,693	-200,000	0,009	0,103
-346,679	-200,000	0,026	-0,091
-345,664	77,357	-0,101	-0,077
-344,650	88,744	0,023	-0,018
-343,635	408,190	0,014	-0,022
-342,620	-200,000	-0,004	0,028
-341,606	412,598	0,055	0,083
-340,591	432,887	0,067	0,104
-339,577	800,000	-0,015	0,033
-338,562	-200,000	0,001	-0,109
-337,548	18,300	0,022	0,013
-336,533	-118,383	0,015	0,002
-335,518	-125,606	0,096	0,010
-334,504	13,919	-0,053	0,029
-333,489	57,157	-0,083	-0,058
-332,475	195,937	-0,055	0,060
-331,460	-12,339	-0,063	0,029
-330,445	-140,133	0,175	0,013
-329,431	14,298	-0,079	0,044
-328,416	-200,000	-0,012	0,094
-327,402	-142,831	-0,051	0,003
-326,387	-115,383	0,012	0,002
-325,372	-119,277	0,027	0,003
-324,358	-20,312	0,059	-0,026
-323,343	165,864	-0,062	-0,063
-322,329	119,371	0,079	0,070
-321,314	242,097	-0,052	0,063
-320,299	-10,118	-0,061	0,029
-319,285	-7,737	-0,080	-0,039
-318,270	112,738	-0,061	-0,053
-317,256	50,794	-0,083	-0,056
-316,241	72,889	0,048	-0,036
-315,226	223,785	0,035	-0,040
-314,212	800,000	0,082	-0,167
-313,197	99,964	0,025	0,020
-312,183	-3,002	0,068	-0,034
-311,168	-200,000	0,003	-0,021
-310,153	24,343	-0,066	-0,039
-309,139	-77,566	0,086	-0,021
-308,124	-125,299	-0,162	0,017
-307,110	60,404	0,146	0,103
-306,095	-200,000	-0,027	0,115
-305,080	-200,000	0,014	-0,106
-304,066	55,421	-0,057	-0,040
-303,051	-157,016	-0,146	-0,006
-302,037	-200,000	0,015	-0,127
-301,022	-200,000	-0,011	-0,125
-300,008	800,000	0,014	0,028
-298,993	-200,000	0,003	-0,025
-297,978	211,321	-0,082	-0,092
-296,964	-20,606	0,056	0,024
-295,949	619,541	-0,055	0,100
-294,935	-33,833	0,094	-0,037
-293,920	299,447	-0,067	-0,088
-292,905	60,427	0,160	0,113
-291,891	-164,889	0,152	-0,005
-290,876	7,736	-0,072	-0,038
-289,862	-98,985	-0,104	0,019
-288,847	-89,267	0,047	-0,010
-287,832	-200,000	-0,006	0,047
-286,818	-18,634	-0,061	-0,027
-285,803	32,721	0,134	-0,082
-284,789	-16,051	0,086	0,039
-283,774	-200,000	-0,001	-0,050
-282,759	-73,088	0,025	0,007
-281,745	206,061	-0,042	-0,047
-280,730	-200,000	0,059	-0,198
-279,716	539,123	0,039	-0,067
-278,701	800,000	-0,030	-0,094
-277,686	-200,000	-0,005	0,138
-276,672	82,909	-0,040	-0,031
-275,657	58,198	-0,093	0,065
-274,643	-62,281	-0,153	-0,045
-273,628	800,000	0,044	-0,133
-272,613	237,108	-0,053	0,062
-271,599	800,000	-0,012	-0,036
-270,584	300,562	0,120	0,159
-269,570	-200,000	0,014	0,093
-268,555	-109,369	0,144	-0,021
-267,540	213,101	-0,079	-0,090
-266,526	-51,211	-0,174	-0,058
-265,511	800,000	0,010	-0,022
-264,497	-67,799	0,104	-0,029
-263,482	-200,000	-0,043	0,154
-262,467	625,372	-0,008	-0,014
-261,453	-200,000	-0,013	-0,110
-260,438	-109,107	-0,152	0,023
-259,424	-2,595	0,056	-0,028
-258,409	146,407	-0,131	-0,125
-257,395	-200,000	0,004	-0,063
-256,380	-200,000	0,004	-0,062
-255,365	-123,073	0,087	0,010
-254,351	-200,000	-0,013	0,061
-253,336	268,845	0,069	0,086
-252,322	-200,000	0,004	-0,094
-251,307	50,679	-0,085	-0,057
-250,292	173,208	-0,040	0,041
-249,278	-200,000	-0,015	0,083
-248,263	30,905	-0,069	-0,042
-247,249	800,000	-0,017	-0,052
-246,234	800,000	0,033	-0,092
-245,219	800,000	0,030	-0,086
-244,205	-200,000	-0,037	-0,143
-243,190	48,497	-0,123	-0,082
-242,176	216,392	-0,054	0,061
-241,161	28,566	-0,151	0,091
-240,146	-126,407	-0,083	-0,009
-239,132	147,608	0,023	0,022
-238,117	-200,000	-0,019	-0,155
-237,103	71,618	-0,072	0,053
-236,088	-200,000	-0,008	0,114
-235,073	93,195	-0,116	0,094
-234,059	-99,810	0,056	0,010
-233,044	-200,000	0,004	0,015
-232,030	75,895	0,044	0,033
-231,015	-200,000	0,001	0,162
-230,000	800,000	0,030	-0,087
-228,986	-200,000	0,000	0,127
-227,971	-156,028	0,110	0,005
-226,957	-200,000	-0,002	-0,121
-225,942	-200,000	0,023	0,075
-224,927	39,502	0,078	-0,050
-223,913	-31,377	-0,056	0,022
-222,898	-86,172	-0,047	-0,010
-221,884	-200,000	0,005	-0,065
-220,869	-200,000	0,031	-0,101
-219,855	134,967	0,160	0,148
-218,840	-150,491	-0,066	0,004
-217,825	-200,000	0,020	0,083
-216,811	-21,111	-0,093	0,040
-215,796	-200,000	0,005	-0,099
-214,782	73,413	0,017	0,012
-213,767	166,257	0,043	0,043
-212,752	355,799	0,046	0,066
-211,738	235,418	0,080	0,094
-210,723	-200,000	0,004	0,023
-209,709	-200,000	0,010	-0,059
-208,694	199,452	-0,037	-0,040
-207,679	800,000	0,061	0,144
-206,665	-200,000	-0,002	0,066
-205,650	-89,239	0,065	0,014
-204,636	-200,000	0,003	0,090
-203,621	-200,000	0,002	-0,053
-202,606	-22,641	-0,040	0,017
-201,592	169,258	-0,089	0,091
-200,577	59,189	0,119	-0,083
-199,563	-43,454	-0,055	0,020
-198,548	-12,939	0,070	-0,033
-197,533	194,709	0,159	0,171
-196,519	301,556	-0,028	-0,037
-195,504	-42,791	-0,147	-0,053
-194,490	-117,883	-0,030	0,004
-193,475	800,000	-0,064	-0,133
-192,460	-200,000	0,016	0,122
-191,446	-200,000	-0,005	-0,080
-190,431	275,842	-0,036	0,046
-189,417	260,921	-0,054	-0,066
-188,402	367,054	0,064	0,092
-187,387	33,438	-0,027	0,017
-186,373	151,539	-0,016	0,015
-185,358	-113,187	-0,064	0,009
-184,344	-19,544	0,166	0,073
-183,329	800,000	0,058	-0,127
-182,315	30,436	-0,079	-0,048
-181,300	-172,516	0,045	0,001
-180,285	12,197	-0,043	-0,023
-179,271	230,635	-0,040	-0,047
-178,256	-125,295	-0,124	0,013
-177,242	320,970	0,050	0,067
-176,227	-29,607	0,119	0,048
-175,212	92,581	-0,012	-0,010
-174,198	-82,252	0,032	0,007
-173,183	-200,000	0,004	0,038
-172,169	165,206	-0,076	-0,076
-171,154	-75,482	-0,109	-0,027
-170,139	-10,255	0,046	-0,021
-169,125	249,821	0,035	0,042
-168,110	-200,000	0,027	0,151
-167,096	281,878	-0,031	0,040
-166,081	-200,000	0,022	-0,088
-165,066	107,818	-0,050	0,042
-164,052	453,026	-0,045	0,071
-163,037	-181,241	0,065	0,001
-162,023	-77,201	0,118	-0,029
-161,008	-200,000	0,011	-0,081
-159,993	-200,000	0,004	-0,139
-158,979	-200,000	0,016	-0,186
-157,964	296,571	0,049	-0,063
-156,950	-156,758	-0,072	-0,003
-155,935	-200,000	-0,020	-0,063
-154,920	800,000	0,058	0,122
-153,906	435,381	0,081	0,126
-152,891	77,832	0,079	-0,060
-151,877	8,234	-0,065	0,035
-150,862	95,843	-0,037	0,030
-149,847	151,040	0,037	-0,036
-148,833	225,206	-0,048	0,055
-147,818	-21,204	0,122	-0,053
-146,804	37,137	0,045	0,028
-145,789	-62,005	-0,071	0,021
-144,775	800,000	0,015	0,040
-143,760	103,358	0,032	-0,027
-142,745	-200,000	0,040	-0,133
-141,731	800,000	-0,042	-0,086
-140,716	-93,424	0,071	-0,014
-139,702	-54,587	-0,104	0,033
-138,687	-200,000	-0,001	0,041
-137,672	-44,326	-0,142	0,050
-136,658	-200,000	-0,010	-0,081
-135,643	-20,199	-0,211	-0,092
-134,629	-131,342	-0,043	0,004
-133,614	-30,713	0,091	-0,036
-132,599	145,658	0,058	0,056
-131,585	-200,000	0,011	0,045
-130,570	-200,000	-0,006	-0,072
-129,556	-40,886	-0,091	-0,033
-128,541	115,838	0,133	-0,115
-127,526	-200,000	0,005	0,081
-126,512	-117,729	0,086	-0,011
-125,497	597,169	-0,057	0,101
-124,483	800,000	0,025	-0,067
-123,468	298,228	0,053	-0,069
-122,453	-150,004	-0,196	-0,011
-121,439	-45,045	-0,204	-0,071
-120,424	-133,457	0,049	-0,004
-119,410	-0,729	-0,022	0,011
-118,395	-70,520	0,220	0,059
-117,380	-200,000	-0,003	0,113
-116,366	-200,000	0,011	0,140
-115,351	-200,000	-0,012	0,133
-114,337	145,065	-0,054	0,051
-113,322	40,540	-0,055	-0,035
-112,307	342,684	0,010	0,013
-111,293	-200,000	0,002	0,065
-110,278	399,966	0,069	-0,103
-109,264	-200,000	-0,013	0,061
-108,249	-7,610	-0,150	0,072
-107,234	800,000	-0,019	0,043
-106,220	-45,549	-0,164	0,057
-105,205	-200,000	-0,005	0,231
-104,191	22,096	-0,086	0,050
-103,176	-200,000	-0,010	0,092
-102,162	-24,674	-0,072	-0,030
-101,147	-52,196	0,102	0,033
-100,132	-109,563	-0,088	0,013
-99,118	200,818	0,077	-0,084
-98,103	469,881	-0,100	0,161
-97,089	-200,000	-0,005	0,080
-96,074	576,425	-0,015	-0,026
-95,059	-200,000	-0,008	0,071
-94,045	157,968	-0,087	-0,085
-93,030	-200,000	0,019	0,099
-92,016	-200,000	-0,013	0,114
-91,001	597,641	0,106	0,187
-89,986	616,128	0,083	0,148
-88,972	-200,000	0,015	0,151
-87,957	67,524	-0,057	-0,042
-86,943	-61,446	0,041	0,012
-85,928	-200,000	0,000	0,140
-84,913	329,117	-0,045	-0,061
-83,899	64,120	-0,122	-0,087
-82,884	800,000	0,007	-0,019
-81,870	-26,319	-0,087	-0,036
-80,855	110,269	0,044	-0,038
-79,840	-200,000	0,017	-0,059
-78,826	-192,585	-0,085	0,001
-77,811	-200,000	-0,015	0,061
-76,797	-200,000	-0,001	-0,008
-75,782	116,885	-0,069	0,060
-74,767	-182,328	0,109	-0,001
-73,753	186,575	-0,079	0,084
-72,738	220,451	0,074	0,085
-71,724	181,108	-0,063	-0,066
-70,709	32,918	-0,074	0,045
-69,694	-181,342	-0,022	-0,000
-68,680	-200,000	0,015	-0,064
-67,665	241,350	0,052	-0,062
-66,651	-42,593	0,046	0,017
-65,636	-119,882	-0,137	-0,016
-64,622	40,732	-0,073	-0,047
-63,607	329,792	-0,039	0,053
-62,592	-132,965	-0,100	-0,009
-61,578	476,052	0,086	-0,138
-60,563	-87,037	0,037	-0,008
-59,549	46,440	-0,055	0,036
-58,534	74,371	-2,426	-1,802
-57,519	800,000	0,195	-0,451
-56,505	-200,000	-1,665	-5,381
-55,490	171,642	1,136	1,156
-54,476	800,000	5,437	11,933
-53,461	-200,000	20,584	331,900
-52,446	800,000	757,513	2311,106
-51,432	532,866	1663,029	2796,283
-50,417	71,215	1678,146	1230,021
-49,403	17,357	1599,095	895,829
-48,388	12,055	1553,812	843,063
-47,373	18,742	1546,933	873,635
-46,359	15,374	1536,113	850,342
-45,344	10,694	1531,860	824,107
-44,330	10,617	1529,759	822,549
-43,315	10,522	1528,372	821,287
-42,300	10,490	1526,481	820,075
-41,286	10,481	1525,335	819,382
-40,271	10,492	1523,436	818,387
-39,257	10,459	1522,255	817,553
-38,242	10,516	1520,672	816,958
-37,227	10,462	1519,684	816,124
-36,213	10,492	1518,286	815,491
-35,198	10,488	1516,933	814,709
-34,184	10,508	1515,550	814,036
-33,169	10,526	1513,914	813,218
-32,154	10,540	1512,713	812,609
-31,140	10,519	1511,571	811,861
-30,125	10,554	1510,097	811,208
-29,111	10,540	1508,809	810,416
-28,096	10,556	1507,686	809,861
-27,082	10,573	1506,627	809,348
-26,067	10,502	1505,477	808,341
-25,052	10,529	1504,362	807,843
-24,038	10,501	1503,046	806,966
-23,023	10,482	1502,007	806,283
-22,009	10,530	1500,897	805,892
-20,994	10,501	1500,078	805,273
-19,979	10,524	1498,986	804,770
-18,965	10,512	1498,008	804,154
-17,950	10,451	1497,139	803,352
-16,936	10,447	1496,173	802,782
-15,921	10,437	1494,915	802,028
-14,906	10,410	1493,743	801,232
-13,892	10,393	1492,717	800,562
-12,877	10,406	1491,579	799,985
-11,863	10,317	1490,880	799,140
-10,848	10,339	1489,915	798,696
-9,833	10,463	1489,028	798,807
-8,819	10,432	1488,115	798,129
-7,804	10,394	1486,839	797,225
-6,790	10,410	1486,083	796,871
-5,775	10,478	1485,102	796,646
-4,760	10,428	1484,220	795,898
-3,746	10,405	1483,008	795,101
-2,731	10,259	1481,982	793,800
-1,717	10,222	1481,031	793,075
-0,702	10,212	1479,899	792,388
0,313	10,048	1478,994	792,291
1,327	13,875	1476,312	809,590
2,342	23,506	1237,039	717,717
3,356	20,062	694,238	394,872
4,371	-8,647	466,764	220,676
5,386	-12,165	439,003	202,320
6,400	-13,231	429,904	196,561
7,415	-12,952	426,096	195,203
8,429	-14,228	423,455	192,150
9,444	-14,574	422,024	190,991
10,459	-14,628	420,549	190,229
11,473	-14,725	419,678	189,681
12,488	-14,908	418,839	189,026
13,502	-15,207	417,747	188,095
14,517	-15,358	416,804	187,440
15,531	-15,509	416,108	186,899
16,546	-15,620	415,132	186,288
17,561	-15,682	414,700	185,990
18,575	-15,609	414,084	185,801
19,590	-15,760	413,506	185,314
20,604	-15,736	412,966	185,089
21,619	-15,862	412,518	184,696
22,634	-15,701	411,785	184,575
23,648	-15,830	411,545	184,271
24,663	-15,790	411,011	184,072
25,677	-15,891	410,615	183,738
26,692	-15,856	410,045	183,514
27,707	-15,824	409,591	183,339
28,721	-15,795	409,276	183,222
29,736	-16,003	408,876	182,740
30,750	-15,947	408,216	182,505
31,765	-16,036	408,017	182,278
32,780	-15,953	407,640	182,207
33,794	-16,075	407,290	181,867
34,809	-15,937	406,721	181,786
35,823	-15,951	406,228	181,530
36,838	-15,957	405,878	181,349
37,853	-16,051	405,516	181,043
38,867	-16,056	405,107	180,838
39,882	-16,097	404,768	180,615
40,896	-16,040	404,398	180,510
41,911	-16,116	404,054	180,237
42,926	-16,087	403,607	180,061
43,940	-16,101	403,211	179,850
44,955	-16,042	402,723	179,695
45,969	-16,012	402,301	179,533
46,984	-16,232	401,875	179,029
47,999	-16,551	401,705	178,505
49,013	-16,379	401,132	178,467
50,028	-16,530	400,828	178,111
51,042	-16,656	400,322	177,702
52,057	-16,715	400,181	177,543
53,071	-16,617	399,838	177,508
54,086	-16,516	399,466	177,462
55,101	-16,241	399,160	177,680
56,115	-16,128	399,192	177,830
57,130	-15,696	398,869	178,251
58,144	-15,590	398,592	178,254
59,159	-15,431	398,120	178,239
60,174	-15,532	397,827	177,957
61,188	-15,576	397,597	177,778
62,203	-15,603	396,917	177,423
63,217	-15,902	396,710	176,916
64,232	-15,731	396,387	176,984
65,247	-15,441	396,172	177,259
66,261	-15,531	395,677	176,901
67,276	-16,013	395,336	176,092
68,290	-16,180	394,735	175,588
69,305	-16,094	394,504	175,583
70,320	-16,230	394,213	175,258
71,334	-15,897	393,774	175,488
72,349	-15,493	393,598	175,928
73,363	-15,543	393,460	175,785
74,378	-15,491	393,033	175,647
75,393	-15,660	392,462	175,154
76,407	-15,875	392,408	174,830
77,422	-15,769	391,880	174,719
78,436	-15,640	391,559	174,730
79,451	-15,608	391,247	174,616
80,466	-15,865	390,974	174,142
81,480	-16,065	390,428	173,621
82,495	-16,173	390,236	173,379
83,509	-15,946	389,732	173,437
84,524	-16,086	389,560	173,162
85,539	-16,182	389,193	172,857
86,553	-16,123	388,878	172,779
87,568	-16,135	388,669	172,654
88,582	-16,085	388,358	172,566
89,597	-16,007	387,916	172,456
90,611	-15,793	387,681	172,616
91,626	-15,730	387,425	172,567
92,641	-15,757	387,193	172,413
93,655	-15,873	386,869	172,104
94,670	-15,942	386,457	171,815
95,684	-15,880	386,252	171,789
96,699	-15,808	385,824	171,677
97,714	-15,897	385,577	171,436
98,728	-16,010	385,045	171,038
99,743	-16,017	384,794	170,903
100,757	-16,198	384,560	170,551
101,772	-16,022	384,226	170,614
102,787	-15,919	383,996	170,629
103,801	-15,781	383,818	170,712
104,816	-15,714	383,554	170,665
105,830	-15,584	383,196	170,659
106,845	-15,575	383,032	170,581
107,860	-15,590	382,569	170,341
108,874	-15,609	382,300	170,181
109,889	-15,757	382,062	169,872
110,903	-15,677	381,746	169,817
111,918	-15,621	381,350	169,698
112,933	-15,685	381,139	169,507
113,947	-15,698	380,833	169,339
114,962	-15,641	380,523	169,259
115,976	-15,651	380,282	169,124
116,991	-15,835	380,081	168,785
118,006	-15,669	379,719	168,821
119,020	-15,813	379,559	168,552
120,035	-15,601	379,171	168,633
121,049	-15,579	378,932	168,539
122,064	-15,573	378,607	168,388
123,079	-15,636	378,441	168,220
124,093	-15,821	378,083	167,811
125,108	-16,009	377,520	167,309
126,122	-16,094	377,193	167,041
127,137	-16,263	376,906	166,686
128,151	-15,909	376,440	166,912
129,166	-15,937	376,578	166,922
130,181	-15,826	375,925	166,757
131,195	-16,091	375,685	166,304
132,210	-15,781	375,580	166,632
133,224	-15,561	375,437	166,828
134,239	-15,442	375,151	166,836
135,254	-15,546	374,690	166,486
136,268	-15,659	374,382	166,193
137,283	-15,985	374,075	165,634
138,297	-15,981	373,476	165,360
139,312	-15,988	373,364	165,286
140,327	-15,645	373,273	165,659
141,341	-15,360	373,218	165,976
142,356	-15,291	372,977	165,939
143,370	-15,233	372,539	165,802
144,385	-15,325	372,303	165,567
145,400	-15,274	372,025	165,493
146,414	-15,356	371,753	165,255
147,429	-15,442	371,606	165,068
148,443	-15,407	371,151	164,895
149,458	-15,341	370,863	164,834
150,473	-15,238	370,633	164,845
151,487	-15,224	370,289	164,694
152,502	-15,409	369,969	164,309
153,516	-15,291	369,766	164,349
154,531	-15,303	369,545	164,222
155,546	-15,302	369,281	164,092
156,560	-15,443	369,109	163,826
157,575	-15,480	368,723	163,594
158,589	-15,330	368,460	163,648
159,604	-15,128	368,179	163,757
160,619	-15,215	367,896	163,509
161,633	-15,368	367,641	163,194
162,648	-15,232	367,446	163,259
163,662	-15,245	367,154	163,099
164,677	-15,408	366,887	162,767
165,692	-15,250	366,635	162,833
166,706	-15,215	366,411	162,763
167,721	-15,167	366,212	162,718
168,735	-15,125	366,245	162,769
169,750	-15,340	365,991	162,380
170,764	-15,236	365,657	162,344
171,779	-15,215	365,436	162,257
172,794	-15,146	365,073	162,165
173,808	-15,263	364,812	161,892
174,823	-15,818	364,314	160,983
175,837	-15,741	363,897	160,878
176,852	-15,256	363,962	161,481
177,867	-15,285	363,835	161,374
178,881	-15,227	363,547	161,302
179,896	-15,169	363,222	161,214
180,910	-15,129	362,964	161,134
181,925	-15,013	362,600	161,098
182,940	-14,959	362,452	161,082
183,954	-15,186	362,390	160,766
184,969	-15,068	362,137	160,783
185,983	-15,122	361,766	160,538
186,998	-15,074	361,526	160,476
188,013	-15,141	361,316	160,287
189,027	-14,974	360,933	160,303
190,042	-14,941	360,779	160,260
191,056	-14,887	360,591	160,228
192,071	-14,901	360,375	160,100
193,086	-14,928	360,230	159,990
194,100	-14,363	360,312	160,689
195,115	-13,477	360,187	161,679
196,129	-12,469	360,718	163,111
197,144	-8,441	362,638	168,812
198,159	-5,242	364,211	173,390
199,173	-2,326	365,580	177,553
200,188	-1,729	365,396	178,169
201,202	-1,896	364,996	177,757
202,217	-1,850	364,733	177,668
203,232	-1,630	364,696	177,899
204,246	-1,317	364,478	178,154
205,261	-1,285	364,520	178,196
206,275	-1,018	364,212	178,351
207,290	-1,163	363,799	177,959
208,304	-1,258	363,496	177,680
209,319	-1,379	363,313	177,431
210,334	-1,401	363,117	177,292
211,348	-1,430	362,818	177,097
212,363	-1,477	362,531	176,884
213,377	-1,323	362,367	176,972
214,392	-1,303	362,223	176,910
215,407	-0,977	361,734	177,044
216,421	-1,010	361,785	177,014
217,436	-1,173	361,612	176,719
218,450	-1,405	361,233	176,242
219,465	-1,241	360,995	176,306
220,480	-1,527	360,686	175,798
221,494	-1,248	360,395	175,972
222,509	-0,953	360,401	176,310
223,523	-0,941	360,343	176,280
224,538	-1,132	359,848	175,796
225,553	-1,271	359,627	175,508
226,567	-1,170	359,362	175,482
227,582	-0,889	359,248	175,744
228,596	-0,595	359,213	176,059
229,611	-0,845	358,785	175,538
230,626	-1,257	358,385	174,840
231,640	-1,211	358,163	174,771
232,655	-0,933	358,085	175,045
233,669	-0,658	357,947	175,286
234,684	-0,459	357,774	175,421
235,699	-0,765	357,358	174,840
236,713	-1,030	357,079	174,376
237,728	-1,113	356,690	174,073
238,742	-1,224	356,397	173,784
239,757	-1,274	356,217	173,623
240,772	-1,270	355,904	173,459
241,786	-1,212	355,633	173,381
242,801	-1,152	355,777	173,505
243,815	-0,824	355,560	173,768
244,830	-0,938	355,369	173,526
245,844	-1,192	354,674	172,874
246,859	-1,237	354,606	172,773
247,874	-0,995	354,432	172,955
248,888	-0,997	354,184	172,816
249,903	-0,957	354,080	172,797
250,917	-1,131	353,829	172,456
251,932	-1,136	353,509	172,280
252,947	-1,419	353,149	171,760
253,961	-1,273	352,956	171,820
254,976	-1,118	352,688	171,854
255,990	-0,956	352,562	171,965
257,005	-0,912	352,494	171,968
258,020	-1,069	352,243	171,648
259,034	-1,005	351,965	171,572
260,049	-0,862	351,671	171,578
261,063	-1,127	351,611	171,227
262,078	-0,817	351,289	171,413
263,093	-0,581	351,336	171,692
264,107	-0,644	350,994	171,437
265,122	-0,864	350,603	170,978
266,136	-0,665	350,362	171,074
267,151	-0,734	350,061	170,832
268,166	-1,201	349,715	170,112
269,180	-1,342	349,298	169,733
270,195	-1,168	349,164	169,852
271,209	-1,133	349,212	169,901
272,224	-0,928	348,829	169,934
273,239	-0,809	348,760	170,021
274,253	-0,973	348,547	169,715
275,268	-1,263	348,234	169,216
276,282	-1,208	347,881	169,092
277,297	-1,277	347,692	168,906
278,312	-0,854	347,475	169,267
279,326	-1,016	347,347	169,005
280,341	-1,133	347,153	168,763
281,355	-0,995	347,044	168,852
282,370	-0,949	346,809	168,774
283,384	-1,168	346,368	168,297
284,399	-1,291	346,166	168,044
285,414	-1,476	345,851	167,667
286,428	-0,989	345,654	168,107
287,443	-0,768	345,694	168,362
288,457	-0,810	345,591	168,250
289,472	-1,004	345,105	167,779
290,487	-1,224	344,713	167,324
291,501	-1,549	344,492	166,835
292,516	-1,301	344,281	166,998
293,530	-1,181	344,138	167,049
294,545	-1,120	343,949	167,012
295,560	-0,975	343,633	167,007
296,574	-0,970	343,589	166,975
297,589	-1,055	343,333	166,741
298,603	-0,976	343,172	166,736
299,618	-0,885	342,802	166,644
300,633	-0,926	342,684	166,526
301,647	-0,717	342,656	166,731
302,662	-0,629	342,373	166,677
303,676	-0,693	342,118	166,467
304,691	-0,682	341,815	166,317
305,706	-0,783	341,554	166,062
306,720	-0,721	341,358	166,021
307,735	-1,004	340,957	165,496
308,749	-1,014	340,857	165,421
309,764	-0,906	340,605	165,405
310,779	-0,818	340,589	165,480
311,793	-0,937	340,039	165,066
312,808	-0,819	339,983	165,155
313,822	-0,811	339,807	165,063
314,837	-0,831	339,588	164,920
315,852	-0,937	339,298	164,647
316,866	-0,866	339,202	164,665
317,881	-0,736	339,093	164,741
318,895	-0,817	338,811	164,500
319,910	-1,035	338,552	164,119
320,925	-1,089	338,045	163,798
321,939	-1,273	337,721	163,424
322,954	-1,230	337,813	163,501
323,968	-0,880	337,684	163,810
324,983	-0,646	337,602	164,014
325,997	-0,471	337,485	164,136
327,012	-0,542	337,164	163,886
328,027	-0,787	336,971	163,508
329,041	-0,501	336,897	163,773
330,056	-0,562	336,580	163,537
331,070	-0,857	336,195	163,011
332,085	-1,178	335,816	162,461
333,100	-0,973	335,746	162,637
334,114	-0,816	335,681	162,763
335,129	-0,678	335,397	162,762
336,143	-0,808	335,068	162,446
337,158	-0,734	334,822	162,393
338,173	-0,785	334,518	162,175
339,187	-0,834	334,394	162,047
340,202	-0,855	334,277	161,953
341,216	-0,871	333,944	161,760
342,231	-0,844	333,800	161,705
343,246	-0,866	333,560	161,550
344,260	-0,966	333,351	161,327
345,275	-0,829	333,271	161,422
346,289	-0,990	332,916	161,061
347,304	-1,038	332,667	160,874
348,319	-0,888	332,425	160,905
349,333	-0,604	332,443	161,207
350,348	-0,568	332,273	161,149
351,362	-0,227	332,054	161,397
352,377	-0,542	331,905	160,970
353,392	-0,561	331,592	160,783
354,406	-0,536	331,373	160,690
355,421	196,719	1327,601	1388,523
356,435	161,011	1448,844	1388,417
