DTS Sentinel unit serial number:	SN410029Multiplexer serial number:	ORYXHardware model number:	OX2-SRSoftware version number:	ORYX F/W v4,00 Oryx Data Collector v3.7.2.0data status	okinstallation	B6 Nyhavnadifferential loss correction	single-endedforward channel	channel 2reverse channel	N/Adate	2023/12/11time	07:55:08forward acquisition time	300,00reverse acquisition time	0,00gamma	499,1914k internal	0,3128k external	0,3128temperature offset calibration	1,0000default loss term (dB/km)	0,3820temperature slope calibration	1,0000multiplexer offset coefficient	1,0000multiplexer slope coefficient	1,0000fibre end	0,00T internal ref (°C)	18,52T ext. ref 1 (°C)	0,82T ext. ref 2 (°C)	0,84length (m)	temperature (°C)	Stokes	anti-Stokes-744,400	800,000	-0,029	-0,093
-743,385	-84,245	-0,208	0,049
-742,371	-200,000	0,006	0,038
-741,356	-69,475	-0,256	0,073
-740,342	396,757	0,036	-0,056
-739,327	-143,386	-0,238	0,017
-738,312	594,826	-0,054	0,100
-737,298	-200,000	-0,195	-0,001
-736,283	-62,157	0,165	0,051
-735,269	-56,670	-0,383	0,125
-734,254	13,668	0,144	0,083
-733,239	-41,384	-0,420	-0,160
-732,225	140,390	0,084	0,082
-731,210	-129,513	0,173	-0,018
-730,196	5,495	-0,156	0,085
-729,181	-200,000	0,013	0,065
-728,167	-200,000	0,012	0,053
-727,152	4,639	-0,098	0,053
-726,137	800,000	-0,059	-0,126
-725,123	-115,260	-0,160	-0,022
-724,108	145,161	-0,097	0,097
-723,094	172,027	-0,102	-0,109
-722,079	-200,000	0,003	0,027
-721,064	60,799	0,089	-0,066
-720,050	-101,017	-0,072	-0,013
-719,035	-83,788	-0,059	-0,014
-718,021	-200,000	0,062	-0,231
-717,006	800,000	0,053	-0,175
-715,991	-139,682	-0,206	-0,016
-714,977	-200,000	-0,010	0,118
-713,962	-121,732	-0,036	-0,004
-712,948	-200,000	0,019	0,109
-711,933	71,487	-0,097	0,075
-710,918	-71,748	-0,106	-0,029
-709,904	409,135	0,060	-0,094
-708,889	-94,453	-0,077	-0,015
-707,875	-200,000	-0,014	-0,200
-706,860	800,000	0,013	-0,035
-705,845	800,000	-0,035	0,091
-704,831	800,000	0,043	0,103
-703,816	48,619	0,061	0,043
-702,802	-200,000	0,011	0,038
-701,787	178,539	-0,066	0,072
-700,772	73,968	0,010	0,008
-699,758	800,000	-0,031	-0,077
-698,743	-10,366	0,070	0,034
-697,729	182,948	-0,035	0,039
-696,714	90,369	-0,053	-0,044
-695,699	310,892	-0,083	-0,116
-694,685	82,241	-0,050	0,040
-693,670	295,951	-0,020	0,028
-692,656	-200,000	0,005	-0,030
-691,641	-200,000	0,006	-0,095
-690,627	800,000	0,042	0,107
-689,612	-157,874	-0,051	0,002
-688,597	229,459	0,018	-0,022
-687,583	800,000	-0,013	-0,036
-686,568	-37,111	-0,194	-0,077
-685,554	46,956	-0,121	-0,084
-684,539	425,593	0,079	-0,127
-683,524	33,434	-0,075	-0,048
-682,510	157,638	0,036	0,037
-681,495	530,414	-0,049	-0,087
-680,481	-112,089	0,054	-0,008
-679,466	800,000	-0,026	-0,076
-678,451	-200,000	-0,030	-0,116
-677,437	51,401	0,028	0,020
-676,422	-73,427	0,074	-0,020
-675,408	-200,000	-0,012	0,115
-674,393	800,000	-0,058	-0,145
-673,378	-200,000	0,014	-0,092
-672,364	800,000	-0,034	-0,111
-671,349	584,894	0,041	-0,075
-670,335	-84,348	0,098	0,023
-669,320	127,285	-0,044	0,042
-668,305	-200,000	-0,001	0,045
-667,291	479,264	-0,033	-0,056
-666,276	-200,000	-0,005	0,035
-665,262	109,710	-0,156	-0,139
-664,247	-134,328	0,075	-0,007
-663,232	-56,465	-0,077	-0,025
-662,218	800,000	0,065	0,183
-661,203	800,000	0,040	0,118
-660,189	-28,993	-0,145	0,061
-659,174	-200,000	-0,008	-0,146
-658,159	-200,000	-0,001	-0,056
-657,145	-122,589	-0,155	-0,018
-656,130	-200,000	0,030	-0,113
-655,116	125,598	0,059	0,055
-654,101	-200,000	-0,006	0,044
-653,086	-31,574	-0,028	0,012
-652,072	135,681	-0,088	-0,085
-651,057	-11,120	-0,033	-0,016
-650,043	-200,000	-0,002	-0,048
-649,028	24,134	-0,034	0,021
-648,014	800,000	-0,044	0,103
-646,999	-111,464	-0,064	0,010
-645,984	-26,915	0,066	0,029
-644,970	-200,000	0,014	0,075
-643,955	-116,396	-0,203	0,027
-642,941	-200,000	-0,011	-0,084
-641,926	-120,786	-0,038	0,005
-640,911	-200,000	0,002	-0,012
-639,897	144,319	0,069	0,068
-638,882	-200,000	0,024	0,090
-637,868	126,494	-0,020	0,019
-636,853	278,647	-0,054	-0,072
-635,838	34,293	-0,079	-0,051
-634,824	-81,203	0,061	-0,015
-633,809	15,489	-0,096	-0,056
-632,795	-200,000	0,024	0,097
-631,780	486,560	0,066	0,112
-630,765	-200,000	-0,012	0,153
-629,751	-97,241	-0,191	0,037
-628,736	800,000	-0,010	-0,027
-627,722	32,305	0,100	0,064
-626,707	-27,908	-0,028	0,012
-625,692	-200,000	0,020	-0,108
-624,678	-24,529	-0,136	0,060
-623,663	-200,000	0,010	-0,034
-622,649	37,718	-0,126	-0,082
-621,634	201,891	-0,111	-0,127
-620,619	-200,000	0,006	-0,153
-619,605	150,471	-0,120	0,121
-618,590	-117,616	-0,026	-0,003
-617,576	-200,000	-0,024	0,116
-616,561	-16,997	-0,132	-0,062
-615,546	88,415	-0,028	0,023
-614,532	-26,951	-0,038	0,016
-613,517	-200,000	-0,006	-0,102
-612,503	-67,534	0,111	-0,032
-611,488	-200,000	0,001	0,006
-610,474	39,941	0,138	0,092
-609,459	-105,917	0,146	0,024
-608,444	-200,000	-0,000	-0,155
-607,430	-12,700	-0,071	0,034
-606,415	-200,000	-0,018	-0,099
-605,401	339,480	0,053	-0,076
-604,386	170,044	0,045	-0,047
-603,371	-200,000	-0,032	-0,107
-602,357	-200,000	-0,009	-0,084
-601,342	-200,000	-0,010	-0,093
-600,328	-200,000	-0,038	-0,218
-599,313	379,728	-0,052	0,079
-598,298	-2,034	-0,069	0,036
-597,284	135,402	0,054	-0,052
-596,269	79,313	0,123	0,098
-595,255	102,855	0,020	-0,018
-594,240	622,544	-0,121	-0,226
-593,225	800,000	-0,014	-0,044
-592,211	69,604	0,108	-0,082
-591,196	800,000	0,050	-0,164
-590,182	156,286	0,084	-0,086
-589,167	71,872	-0,075	-0,058
-588,152	-117,182	-0,158	-0,021
-587,138	138,271	0,090	0,087
-586,123	-12,838	-0,077	0,037
-585,109	-200,000	0,003	-0,085
-584,094	-200,000	-0,038	-0,147
-583,079	-41,287	0,102	0,039
-582,065	618,510	-0,037	-0,068
-581,050	391,777	0,068	-0,105
-580,036	800,000	0,047	0,129
-579,021	-125,001	0,116	0,013
-578,006	-200,000	0,003	0,074
-576,992	-200,000	0,006	0,025
-575,977	-200,000	0,007	-0,075
-574,963	-102,639	0,140	-0,024
-573,948	-87,199	0,050	-0,011
-572,934	683,947	0,066	0,129
-571,919	-19,261	-0,158	0,072
-570,904	-9,825	-0,035	-0,017
-569,890	-200,000	0,024	0,082
-568,875	158,961	0,083	-0,085
-567,861	220,474	0,015	0,018
-566,846	-200,000	0,024	0,175
-565,831	800,000	0,058	0,157
-564,817	-200,000	0,001	0,004
-563,802	794,264	-0,022	0,045
-562,788	185,376	0,106	0,116
-561,773	-153,260	-0,116	-0,006
-560,758	259,876	0,049	0,063
-559,744	169,654	-0,055	0,059
-558,729	800,000	0,032	0,067
-557,715	51,260	-0,102	-0,072
-556,700	-137,743	-0,163	-0,013
-555,685	-200,000	0,002	-0,081
-554,671	-200,000	-0,031	-0,121
-553,656	376,124	0,022	0,033
-552,642	109,267	-0,124	0,109
-551,627	-200,000	0,027	0,088
-550,612	-200,000	0,007	-0,226
-549,598	545,706	-0,071	-0,125
-548,583	6,415	-0,039	0,021
-547,569	-31,893	-0,053	-0,022
-546,554	159,710	0,046	-0,048
-545,539	33,813	-0,037	-0,024
-544,525	-15,467	-0,059	0,028
-543,510	-200,000	-0,021	-0,090
-542,496	74,720	-0,100	-0,078
-541,481	140,787	-0,066	-0,064
-540,466	-4,621	0,088	0,045
-539,452	-200,000	-0,004	-0,043
-538,437	-88,036	0,018	-0,004
-537,423	-200,000	0,011	-0,113
-536,408	569,363	-0,024	-0,043
-535,393	193,926	-0,066	-0,073
-534,379	-200,000	-0,005	-0,073
-533,364	8,639	0,092	0,051
-532,350	713,688	0,023	-0,045
-531,335	109,032	0,045	0,040
-530,321	-146,918	0,056	0,004
-529,306	-34,444	-0,142	0,057
-528,291	800,000	-0,078	-0,170
-527,277	-69,555	0,070	-0,020
-526,262	537,137	-0,027	0,048
-525,248	-168,207	0,034	-0,001
-524,233	-200,000	0,014	0,077
-523,218	370,478	-0,053	0,080
-522,204	-76,148	-0,053	-0,014
-521,189	30,997	0,080	0,051
-520,175	159,653	-0,147	-0,151
-519,160	134,749	0,078	-0,075
-518,145	-47,376	-0,074	0,026
-517,131	-200,000	0,020	0,134
-516,116	335,702	0,069	0,099
-515,102	-92,808	-0,079	-0,016
-514,087	-200,000	-0,024	0,233
-513,072	106,951	-0,038	0,033
-512,058	-33,345	0,040	-0,016
-511,043	1,829	0,121	-0,064
-510,029	61,001	0,034	-0,025
-509,014	800,000	-0,058	0,174
-507,999	28,700	0,097	0,060
-506,985	-180,809	-0,168	-0,002
-505,970	-46,854	-0,120	-0,043
-504,956	680,053	-0,010	-0,019
-503,941	-200,000	0,011	0,165
-502,926	-86,260	0,166	0,038
-501,912	86,355	-0,076	-0,062
-500,897	53,030	0,071	-0,050
-499,883	-200,000	0,006	0,276
-498,868	-82,479	-0,069	-0,016
-497,853	176,020	0,083	0,089
-496,839	-200,000	0,004	-0,020
-495,824	401,036	-0,089	0,139
-494,810	-200,000	-0,048	0,204
-493,795	800,000	0,007	-0,017
-492,781	171,882	0,049	0,052
-491,766	-200,000	-0,030	-0,135
-490,751	800,000	0,035	0,094
-489,737	14,622	0,107	0,061
-488,722	386,346	0,046	-0,071
-487,708	428,215	-0,056	-0,090
-486,693	800,000	-0,027	0,068
-485,678	498,401	0,057	-0,096
-484,664	800,000	0,042	-0,128
-483,649	800,000	-0,029	-0,088
-482,635	59,818	-0,044	0,032
-481,620	46,517	0,086	0,059
-480,605	702,150	-0,069	0,134
-479,591	156,206	0,087	0,088
-478,576	507,096	-0,036	0,061
-477,562	-10,902	0,042	0,020
-476,547	53,128	0,072	0,051
-475,532	24,618	0,127	-0,077
-474,518	389,997	0,038	-0,059
-473,503	-69,670	0,084	-0,023
-472,489	-152,835	-0,106	0,005
-471,474	-183,464	-0,161	0,002
-470,459	343,158	-0,050	-0,073
-469,445	800,000	0,047	-0,140
-468,430	-200,000	-0,002	-0,039
-467,416	-200,000	0,005	-0,065
-466,401	-200,000	-0,007	-0,169
-465,386	86,416	-0,042	-0,034
-464,372	-133,582	-0,102	0,009
-463,357	-200,000	-0,019	-0,096
-462,343	-113,770	-0,194	0,027
-461,328	-17,902	-0,058	-0,027
-460,313	800,000	0,033	0,094
-459,299	91,587	-0,042	0,034
-458,284	-200,000	-0,001	0,074
-457,270	133,430	-0,105	-0,100
-456,255	-200,000	0,006	-0,064
-455,241	800,000	0,033	-0,098
-454,226	-200,000	0,020	-0,100
-453,211	-127,215	0,024	-0,003
-452,197	-113,316	-0,077	-0,011
-451,182	-200,000	-0,003	0,068
-450,168	800,000	-0,068	-0,212
-449,153	800,000	0,034	-0,097
-448,138	-26,762	-0,113	-0,048
-447,124	454,264	-0,021	-0,035
-446,109	213,697	0,025	-0,029
-445,095	-20,111	0,135	0,061
-444,080	180,923	-0,085	0,091
-443,065	131,962	-0,104	-0,098
-442,051	-200,000	0,007	0,087
-441,036	-41,381	-0,106	0,040
-440,022	-54,098	-0,010	0,003
-439,007	-32,042	0,107	0,044
-437,992	-32,366	0,030	0,012
-436,978	-45,894	0,082	0,029
-435,963	161,228	-0,047	-0,048
-434,949	335,881	-0,083	0,119
-433,934	800,000	-0,055	0,143
-432,919	606,640	0,023	0,043
-431,905	280,690	0,061	-0,080
-430,890	-67,787	0,066	-0,019
-429,876	-23,837	0,049	0,022
-428,861	-200,000	-0,003	0,069
-427,846	323,381	-0,050	-0,071
-426,832	84,749	-0,054	-0,043
-425,817	-200,000	-0,024	-0,121
-424,803	214,637	0,020	-0,023
-423,788	800,000	-0,074	0,207
-422,773	-102,944	0,162	0,028
-421,759	172,286	0,066	0,069
-420,744	396,723	0,099	-0,153
-419,730	-30,083	-0,103	-0,043
-418,715	361,982	-0,024	-0,036
-417,701	800,000	-0,010	-0,024
-416,686	1,231	-0,087	0,046
-415,671	-97,361	0,144	-0,027
-414,657	60,852	0,128	-0,093
-413,642	212,634	0,021	0,024
-412,628	179,535	-0,092	-0,099
-411,613	134,168	0,010	0,010
-410,598	371,188	0,048	0,072
-409,584	-30,202	0,114	0,047
-408,569	800,000	0,039	0,103
-407,555	-144,766	-0,145	0,010
-406,540	-102,284	-0,087	-0,015
-405,525	31,307	0,097	0,061
-404,511	149,786	0,097	0,096
-403,496	144,247	-0,075	-0,074
-402,482	37,574	0,074	0,048
-401,467	-200,000	-0,004	0,037
-400,452	-200,000	-0,034	0,124
-399,438	79,692	-0,112	0,089
-398,423	-101,817	0,060	0,011
-397,409	273,243	0,057	-0,075
-396,394	170,131	-0,143	-0,151
-395,379	-200,000	0,035	-0,200
-394,365	-200,000	0,000	0,052
-393,350	-200,000	0,005	0,110
-392,336	-61,848	-0,087	0,027
-391,321	214,076	-0,094	0,109
-390,306	-47,025	-0,060	-0,021
-389,292	-200,000	-0,005	-0,079
-388,277	-169,371	-0,075	-0,002
-387,263	800,000	-0,036	-0,077
-386,248	46,180	0,097	0,066
-385,233	98,296	0,036	-0,030
-384,219	421,356	-0,003	-0,005
-383,204	184,516	0,066	0,072
-382,190	-33,734	0,036	-0,014
-381,175	220,294	-0,039	0,046
-380,160	587,601	-0,015	-0,027
-379,146	-200,000	0,010	0,122
-378,131	29,229	0,061	0,038
-377,117	237,231	0,047	-0,058
-376,102	136,748	0,055	0,053
-375,088	800,000	0,057	-0,146
-374,073	-13,872	-0,045	0,021
-373,058	144,274	0,051	0,050
-372,044	111,929	0,054	0,048
-371,029	-127,931	0,066	0,007
-370,015	-139,388	-0,102	-0,008
-369,000	-200,000	-0,005	-0,031
-367,985	-89,231	0,174	-0,037
-366,971	-106,465	-0,091	0,015
-365,956	300,225	0,054	-0,073
-364,942	800,000	-0,012	-0,027
-363,927	71,137	0,055	0,042
-362,912	-116,480	-0,048	0,006
-361,898	-200,000	0,000	-0,097
-360,883	-70,798	0,080	-0,022
-359,869	-200,000	-0,007	-0,085
-358,854	338,401	-0,023	0,033
-357,839	800,000	0,046	0,130
-356,825	-4,501	0,019	0,009
-355,810	-167,069	0,035	0,001
-354,796	-200,000	0,003	-0,031
-353,781	-162,932	-0,035	-0,001
-352,766	-200,000	-0,021	0,138
-351,752	-97,365	0,128	0,024
-350,737	-200,000	-0,008	-0,055
-349,723	800,000	0,049	-0,134
-348,708	-45,788	0,080	0,029
-347,693	-200,000	-0,004	-0,052
-346,679	-200,000	-0,021	0,072
-345,664	249,746	0,046	-0,057
-344,650	-30,331	-0,025	0,010
-343,635	800,000	-0,031	0,067
-342,620	397,216	0,022	0,034
-341,606	-77,964	-0,148	0,037
-340,591	-200,000	-0,016	0,081
-339,577	158,872	-0,083	0,084
-338,562	60,615	0,087	-0,063
-337,548	-162,805	-0,032	-0,001
-336,533	800,000	-0,034	0,077
-335,518	236,700	0,059	-0,072
-334,504	56,344	-0,021	-0,015
-333,489	-78,240	-0,032	-0,008
-332,475	-167,239	0,073	-0,002
-331,460	-66,918	-0,081	-0,023
-330,445	-200,000	-0,014	-0,133
-329,431	10,592	0,097	0,054
-328,416	413,291	0,120	0,187
-327,402	-18,592	-0,070	-0,032
-326,387	395,399	0,033	-0,050
-325,372	62,889	-0,094	-0,069
-324,358	72,653	0,044	0,033
-323,343	181,727	-0,052	-0,057
-322,329	324,381	0,074	0,104
-321,314	-141,272	0,089	0,007
-320,299	800,000	0,059	-0,146
-319,285	-200,000	0,004	0,078
-318,270	126,448	-0,107	-0,099
-317,256	-200,000	-0,013	-0,119
-316,241	433,677	0,033	-0,053
-315,226	800,000	0,037	0,080
-314,212	-81,625	0,066	-0,016
-313,197	800,000	-0,007	0,020
-312,183	-105,647	-0,108	0,018
-311,168	-200,000	-0,014	-0,079
-310,153	67,993	-0,046	-0,035
-309,139	-200,000	0,010	-0,080
-308,124	800,000	0,044	0,097
-307,110	266,001	-0,055	-0,070
-306,095	295,465	0,061	0,082
-305,080	-147,797	-0,005	0,000
-304,066	-200,000	0,004	0,015
-303,051	-200,000	0,003	-0,022
-302,037	-200,000	0,001	-0,008
-301,022	625,425	0,042	0,078
-300,008	89,002	0,057	0,047
-298,993	800,000	-0,062	0,155
-297,978	161,090	0,016	0,016
-296,964	13,134	-0,124	-0,070
-295,949	-200,000	-0,005	-0,025
-294,935	-112,722	-0,083	-0,012
-293,920	800,000	0,033	0,076
-292,905	348,285	0,040	0,057
-291,891	-200,000	-0,000	-0,028
-290,876	-90,053	-0,063	-0,013
-289,862	-75,625	0,054	-0,014
-288,847	-200,000	0,009	-0,067
-287,832	-200,000	-0,025	-0,169
-286,818	-200,000	0,005	0,048
-285,803	137,734	0,122	0,117
-284,789	-152,223	-0,115	-0,006
-283,774	-200,000	0,012	-0,057
-282,759	762,508	-0,061	0,122
-281,745	-120,224	-0,121	-0,015
-280,730	-200,000	-0,023	-0,110
-279,716	800,000	-0,004	-0,009
-278,701	213,692	0,007	0,008
-277,686	800,000	-0,036	-0,112
-276,672	127,806	-0,065	-0,061
-275,657	737,930	0,039	-0,078
-274,643	291,669	-0,012	0,017
-273,628	506,795	0,045	-0,077
-272,613	-200,000	-0,027	-0,101
-271,599	800,000	0,032	0,088
-270,584	-34,513	0,116	0,046
-269,570	-200,000	0,000	0,020
-268,555	94,668	-0,079	-0,065
-267,540	68,334	-0,093	-0,069
-266,526	49,764	-0,113	0,078
-265,511	428,259	-0,033	0,052
-264,497	-91,467	-0,029	-0,006
-263,482	-181,501	-0,083	-0,001
-262,467	180,010	0,026	-0,028
-261,453	-81,269	-0,075	0,018
-260,438	331,676	-0,083	-0,117
-259,424	-155,548	-0,033	0,002
-258,409	24,829	0,043	-0,026
-257,395	800,000	0,033	0,086
-256,380	800,000	-0,068	0,182
-255,365	800,000	-0,081	0,168
-254,351	-162,718	0,112	-0,004
-253,336	-151,139	0,129	0,007
-252,322	633,696	-0,046	-0,085
-251,307	-82,445	-0,132	0,031
-250,292	-17,254	0,065	-0,030
-249,278	93,115	0,041	-0,034
-248,263	314,044	0,028	-0,038
-247,249	530,044	-0,011	-0,020
-246,234	-139,081	-0,142	0,011
-245,219	-38,345	0,063	-0,024
-244,205	16,570	-0,033	-0,019
-243,190	-200,000	-0,006	0,051
-242,176	-137,828	0,060	-0,005
-241,161	34,434	0,145	0,092
-240,146	332,728	-0,059	0,084
-239,132	-158,352	-0,064	-0,003
-238,117	-200,000	0,018	-0,120
-237,103	-179,616	-0,058	0,001
-236,088	-109,740	-0,039	0,006
-235,073	-148,470	-0,018	-0,001
-234,059	50,704	0,111	0,076
-233,044	-200,000	-0,036	0,165
-232,030	800,000	-0,020	0,053
-231,015	-200,000	0,026	-0,087
-230,000	-165,713	0,061	-0,002
-228,986	-200,000	0,001	-0,098
-227,971	-1,034	-0,037	0,019
-226,957	-133,447	0,098	-0,009
-225,942	229,208	-0,047	-0,056
-224,927	108,913	0,093	0,081
-223,913	181,384	0,043	0,047
-222,898	-200,000	0,015	-0,134
-221,884	285,282	0,004	0,005
-220,869	-4,557	0,072	0,036
-219,855	14,113	0,106	-0,060
-218,840	800,000	-0,028	0,088
-217,825	32,728	0,078	-0,049
-216,811	-200,000	0,019	-0,128
-215,796	-160,740	-0,090	0,003
-214,782	-200,000	0,007	-0,083
-213,767	-200,000	0,001	0,083
-212,752	23,277	0,116	0,069
-211,738	800,000	0,015	-0,046
-210,723	361,923	0,051	-0,074
-209,709	-4,783	-0,041	-0,021
-208,694	28,767	0,021	0,013
-207,679	126,825	-0,063	0,058
-206,665	269,173	-0,045	-0,058
-205,650	-109,442	0,148	0,023
-204,636	-183,918	0,070	-0,001
-203,621	-200,000	0,017	0,094
-202,606	50,557	0,144	0,099
-201,592	-200,000	-0,009	-0,053
-200,577	565,513	-0,021	0,036
-199,563	83,721	0,050	-0,040
-198,548	-185,061	0,042	0,000
-197,533	329,160	0,061	0,085
-196,519	-125,220	0,101	0,011
-195,504	-67,256	-0,090	0,026
-194,490	800,000	-0,004	-0,012
-193,475	-113,840	0,111	-0,016
-192,460	297,531	-0,058	-0,078
-191,446	-200,000	-0,010	0,047
-190,431	-200,000	-0,029	0,132
-189,417	800,000	-0,018	0,037
-188,402	17,527	0,076	-0,044
-187,387	-71,973	-0,058	0,016
-186,373	285,667	0,026	-0,035
-185,358	-114,137	-0,107	-0,015
-184,344	130,609	0,075	-0,070
-183,329	102,613	0,049	0,042
-182,315	50,762	0,079	0,055
-181,300	-10,767	0,074	0,035
-180,285	25,599	-0,005	0,003
-179,271	-113,249	0,080	0,011
-178,256	-200,000	0,003	-0,032
-177,242	800,000	0,038	0,103
-176,227	580,983	-0,022	0,040
-175,212	498,853	0,051	-0,086
-174,198	800,000	-0,018	0,055
-173,183	-200,000	-0,012	-0,162
-172,169	1,150	0,053	-0,028
-171,154	-110,785	-0,043	0,006
-170,139	216,438	0,100	-0,116
-169,125	213,582	0,108	-0,125
-168,110	227,035	-0,062	0,073
-167,096	303,564	0,071	0,096
-166,081	-185,509	-0,033	0,000
-165,066	270,826	-0,100	0,128
-164,052	-110,138	-0,010	0,002
-163,037	-41,722	0,089	0,033
-162,023	-50,589	0,155	0,053
-161,008	206,049	-0,052	0,059
-159,993	285,218	-0,025	-0,032
-158,979	-71,798	-0,035	0,009
-157,964	-53,773	0,022	0,007
-156,950	-200,000	0,010	-0,049
-155,935	-200,000	-0,002	0,089
-154,920	800,000	0,071	0,159
-153,906	800,000	0,036	0,090
-152,891	233,443	-0,041	0,050
-151,877	194,012	0,014	0,015
-150,862	-200,000	0,009	-0,119
-149,847	391,200	-0,041	0,063
-148,833	-64,780	-0,075	0,022
-147,818	284,936	0,064	0,084
-146,804	-200,000	-0,022	0,178
-145,789	-200,000	-0,011	0,071
-144,775	-200,000	0,008	0,033
-143,760	-200,000	0,002	0,014
-142,745	-118,462	-0,117	-0,015
-141,731	56,575	-0,024	-0,017
-140,716	-94,227	0,055	0,011
-139,702	50,997	0,030	0,021
-138,687	-16,204	0,043	0,020
-137,672	36,181	0,046	0,029
-136,658	-74,049	0,057	0,015
-135,643	682,825	-0,037	-0,070
-134,629	-26,012	-0,111	-0,047
-133,614	344,190	0,061	-0,087
-132,599	-101,777	0,072	0,012
-131,585	35,098	0,170	0,108
-130,570	-62,798	-0,111	0,033
-129,556	-200,000	0,010	0,067
-128,541	217,743	0,070	0,081
-127,526	360,677	0,044	0,065
-126,512	800,000	0,025	0,053
-125,497	144,041	0,066	0,064
-124,483	-200,000	0,018	0,143
-123,468	-12,715	-0,032	-0,015
-122,453	-72,777	-0,085	0,023
-121,439	-200,000	0,002	0,009
-120,424	224,560	-0,058	-0,069
-119,410	-32,458	0,116	-0,047
-118,395	-200,000	0,023	-0,076
-117,380	-54,004	-0,031	-0,010
-116,366	800,000	0,078	0,185
-115,351	-200,000	-0,011	-0,077
-114,337	-200,000	0,016	-0,139
-113,322	800,000	0,066	-0,139
-112,307	105,426	0,156	-0,134
-111,293	-132,641	0,066	0,006
-110,278	119,587	-0,019	0,017
-109,264	800,000	-0,023	-0,068
-108,249	40,308	-0,057	-0,037
-107,234	-34,792	0,047	-0,019
-106,220	800,000	0,013	-0,034
-105,205	561,586	0,041	-0,073
-104,191	-46,080	0,141	0,050
-103,176	112,574	0,068	-0,060
-102,162	800,000	-0,053	-0,129
-101,147	-200,000	-0,008	-0,058
-100,132	-107,993	0,105	-0,016
-99,118	-200,000	0,005	-0,077
-98,103	800,000	-0,005	-0,014
-97,089	-200,000	-0,026	-0,088
-96,074	-10,993	0,104	-0,050
-95,059	134,167	0,096	0,090
-94,045	800,000	-0,021	-0,056
-93,030	-33,044	-0,076	-0,030
-92,016	-19,817	-0,087	-0,039
-91,001	37,054	0,094	-0,061
-89,986	-104,351	0,177	-0,030
-88,972	-3,888	-0,046	0,023
-87,957	-97,792	0,123	0,023
-86,943	-200,000	0,014	0,071
-85,928	-132,838	-0,124	-0,011
-84,913	800,000	-0,013	-0,028
-83,899	789,853	0,035	0,070
-82,884	-200,000	0,012	-0,051
-81,870	-200,000	0,004	0,076
-80,855	-75,144	0,078	0,020
-79,840	112,878	0,032	-0,028
-78,826	630,422	-0,064	-0,117
-77,811	-63,154	-0,080	-0,024
-76,797	236,135	0,072	0,087
-75,782	20,134	0,037	-0,022
-74,767	149,675	-0,153	0,151
-73,753	800,000	-0,021	-0,057
-72,738	96,669	0,024	-0,020
-71,724	23,248	-0,121	0,072
-70,709	-200,000	-0,017	-0,102
-69,694	276,576	-0,019	0,024
-68,680	-118,500	0,196	0,025
-67,665	-200,000	-0,034	0,179
-66,651	-200,000	-0,009	0,126
-65,636	239,963	0,102	-0,123
-64,622	-200,000	0,067	-0,245
-63,607	182,701	0,019	0,021
-62,592	-160,700	0,125	-0,005
-61,578	67,298	0,115	-0,085
-60,563	-40,814	0,105	0,039
-59,549	59,670	-0,068	0,048
-58,534	-45,086	-1,798	-0,644
-57,519	800,000	-0,492	-1,156
-56,505	-200,000	-1,057	-4,774
-55,490	-131,962	0,733	0,068
-54,476	800,000	5,266	12,030
-53,461	-200,000	16,136	279,484
-52,446	-200,000	701,019	2271,134
-51,432	589,896	1615,496	2897,980
-50,417	125,824	1619,894	1482,770
-49,403	89,088	1281,063	1032,843
-48,388	38,172	1026,055	660,289
-47,373	21,792	988,315	581,793
-46,359	20,643	976,796	571,194
-45,344	18,784	972,806	562,718
-44,330	18,959	971,417	562,468
-43,315	18,641	969,749	560,434
-42,300	18,634	968,716	559,795
-41,286	18,590	967,718	559,050
-40,271	18,574	966,943	558,527
-39,257	18,636	966,002	558,164
-38,242	18,624	965,223	557,652
-37,227	18,529	964,443	556,871
-36,213	18,561	963,507	556,411
-35,198	18,484	962,665	555,652
-34,184	18,568	961,911	555,471
-33,169	18,494	960,994	554,676
-32,154	18,595	959,923	554,366
-31,140	18,590	959,289	553,961
-30,125	18,612	958,434	553,516
-29,111	18,597	957,664	553,000
-28,096	18,586	957,007	552,565
-27,082	18,556	956,427	552,109
-26,067	18,551	955,530	551,555
-25,052	18,539	954,805	551,075
-24,038	18,553	954,005	550,636
-23,023	18,546	953,295	550,183
-22,009	18,645	952,445	549,990
-20,994	18,553	951,995	549,410
-19,979	18,594	951,357	549,152
-18,965	18,561	950,713	548,654
-17,950	18,576	950,086	548,320
-16,936	18,503	949,509	547,727
-15,921	18,437	948,887	547,135
-14,906	18,430	948,096	546,636
-13,892	18,449	947,448	546,301
-12,877	18,383	946,925	545,767
-11,863	18,419	946,334	545,521
-10,848	18,458	945,704	545,261
-9,833	18,534	945,216	545,200
-8,819	18,430	944,814	544,615
-7,804	18,443	943,997	544,163
-6,790	18,428	943,362	543,728
-5,775	18,433	942,971	543,496
-4,760	18,457	942,165	543,088
-3,746	18,507	941,572	542,882
-2,731	18,339	940,709	541,827
-1,717	18,263	940,216	541,281
-0,702	18,282	939,430	540,869
0,313	18,097	938,900	540,790
1,327	21,191	937,147	549,546
2,342	30,545	794,625	490,914
3,356	27,353	447,914	271,905
4,371	-3,771	294,138	147,359
5,386	-8,007	275,511	133,990
6,400	-9,589	269,672	129,664
7,415	-10,061	267,496	128,171
8,429	-9,467	266,326	128,145
9,444	-9,494	265,478	127,700
10,459	-9,409	265,115	127,592
11,473	-9,284	264,329	127,317
12,488	-9,136	263,817	127,194
13,502	-9,135	263,379	126,972
14,517	-9,009	263,054	126,918
15,531	-8,588	262,831	127,181
16,546	-8,298	262,434	127,241
17,561	-8,442	262,138	126,956
18,575	-8,413	261,856	126,834
19,590	-8,500	261,375	126,511
20,604	-8,396	261,256	126,536
21,619	-8,498	260,838	126,231
22,634	-8,385	260,519	126,167
23,648	-8,581	260,243	125,846
24,663	-8,366	259,811	125,818
25,677	-8,296	259,548	125,742
26,692	-8,598	259,590	125,481
27,707	-8,434	259,229	125,442
28,721	-8,487	258,954	125,250
29,736	-8,654	258,683	124,959
30,750	-8,419	258,216	124,932
31,765	-8,526	258,185	124,810
32,780	-8,662	258,035	124,606
33,794	-8,531	257,829	124,612
34,809	-8,483	257,433	124,452
35,823	-8,382	257,283	124,458
36,838	-8,641	257,022	124,091
37,853	-8,705	256,824	123,928
38,867	-8,705	256,665	123,840
39,882	-8,419	256,434	123,970
40,896	-8,722	256,077	123,520
41,911	-8,628	255,968	123,538
42,926	-8,478	255,584	123,474
43,940	-8,622	255,318	123,208
44,955	-8,641	255,145	123,097
45,969	-8,738	254,960	122,912
46,984	-8,591	254,634	122,872
47,999	-8,824	254,644	122,662
49,013	-8,896	254,314	122,429
50,028	-8,988	254,056	122,214
51,042	-9,052	253,910	122,076
52,057	-8,723	253,486	122,149
53,071	-9,235	253,452	121,675
54,086	-8,985	253,224	121,772
55,101	-9,037	253,087	121,650
56,115	-8,823	252,817	121,696
57,130	-8,754	252,778	121,726
58,144	-8,603	252,546	121,735
59,159	-8,428	252,124	121,672
60,174	-8,597	252,040	121,474
61,188	-8,637	251,906	121,364
62,203	-8,447	251,692	121,415
63,217	-8,697	251,412	121,053
64,232	-8,596	251,215	121,034
65,247	-8,707	251,044	120,845
66,261	-8,708	250,811	120,721
67,276	-8,818	250,627	120,527
68,290	-8,833	250,361	120,376
69,305	-9,108	250,011	119,961
70,320	-8,806	249,993	120,201
71,334	-8,630	249,645	120,174
72,349	-8,837	249,616	119,971
73,363	-8,791	249,533	119,960
74,378	-8,729	249,243	119,863
75,393	-8,551	248,947	119,863
76,407	-8,746	248,835	119,631
77,422	-8,583	248,528	119,612
78,436	-8,746	248,409	119,405
79,451	-8,754	248,066	119,222
80,466	-8,804	247,979	119,128
81,480	-8,657	247,791	119,151
82,495	-8,830	247,599	118,902
83,509	-8,738	247,323	118,837
84,524	-8,816	247,236	118,718
85,539	-8,905	247,005	118,521
86,553	-8,796	246,833	118,521
87,568	-8,949	246,556	118,248
88,582	-8,759	246,392	118,319
89,597	-9,242	246,271	117,842
90,611	-8,577	245,840	118,186
91,626	-8,733	245,954	118,099
92,641	-8,729	245,738	117,988
93,655	-8,599	245,517	117,981
94,670	-8,676	245,262	117,783
95,684	-8,854	245,117	117,553
96,699	-8,654	244,810	117,564
97,714	-8,929	244,723	117,280
98,728	-8,850	244,507	117,232
99,743	-8,866	244,416	117,165
100,757	-8,869	244,067	116,985
101,772	-8,871	243,806	116,848
102,787	-9,073	243,776	116,654
103,801	-8,709	243,540	116,835
104,816	-8,744	243,381	116,718
105,830	-8,838	243,233	116,559
106,845	-8,837	243,118	116,494
107,860	-8,941	242,842	116,265
108,874	-8,959	242,689	116,167
109,889	-8,982	242,248	115,926
110,903	-8,855	242,077	115,939
111,918	-9,079	241,987	115,700
112,933	-9,239	241,940	115,535
113,947	-9,089	241,729	115,548
114,962	-8,927	241,550	115,586
115,976	-8,675	241,406	115,715
116,991	-8,800	241,194	115,500
118,006	-8,867	240,974	115,329
119,020	-8,902	241,032	115,317
120,035	-8,702	240,769	115,347
121,049	-8,867	240,669	115,153
122,064	-8,620	240,322	115,179
123,079	-8,841	240,223	114,940
124,093	-8,760	239,959	114,869
125,108	-8,851	239,830	114,723
126,122	-8,968	239,641	114,527
127,137	-8,842	239,415	114,511
128,151	-8,866	239,174	114,366
129,166	-8,910	239,024	114,249
130,181	-8,868	238,897	114,212
131,195	-9,004	238,697	113,995
132,210	-8,916	238,509	113,967
133,224	-8,877	238,249	113,864
134,239	-8,950	238,187	113,765
135,254	-8,853	237,753	113,626
136,268	-9,098	237,794	113,437
137,283	-9,119	237,593	113,314
138,297	-8,954	237,400	113,345
139,312	-9,186	237,050	112,980
140,327	-9,003	237,170	113,175
141,341	-8,604	237,175	113,491
142,356	-8,795	236,967	113,227
143,370	-8,765	236,636	113,083
144,385	-8,749	236,753	113,141
145,400	-8,468	236,431	113,204
146,414	-8,313	236,150	113,184
147,429	-8,550	236,032	112,927
148,443	-8,499	235,690	112,795
149,458	-8,797	235,717	112,557
150,473	-8,599	235,422	112,566
151,487	-8,900	235,294	112,253
152,502	-8,480	234,895	112,389
153,516	-8,591	235,064	112,371
154,531	-8,550	234,708	112,223
155,546	-8,756	234,579	111,987
156,560	-8,557	234,356	112,030
157,575	-8,934	234,158	111,624
158,589	-8,844	233,819	111,525
159,604	-8,575	233,889	111,762
160,619	-8,312	233,894	111,964
161,633	-8,431	233,805	111,816
162,648	-8,489	233,519	111,624
163,662	-8,757	233,318	111,305
164,677	-8,836	233,098	111,127
165,692	-8,663	232,930	111,174
166,706	-8,318	232,849	111,400
167,721	-8,393	232,909	111,359
168,735	-8,479	232,479	111,075
169,750	-8,517	232,326	110,962
170,764	-8,818	232,244	110,675
171,779	-8,870	232,120	110,565
172,794	-8,484	231,947	110,777
173,808	-8,839	231,666	110,354
174,823	-9,067	231,375	110,026
175,837	-8,876	231,264	110,113
176,852	-9,188	231,244	109,848
177,867	-8,821	231,097	110,057
178,881	-8,590	230,894	110,132
179,896	-8,566	230,835	110,113
180,910	-8,594	230,624	109,981
181,925	-8,747	230,461	109,773
182,940	-8,652	230,182	109,705
183,954	-8,541	230,170	109,776
184,969	-8,340	230,060	109,871
185,983	-8,456	229,984	109,734
186,998	-8,260	229,765	109,773
188,013	-8,444	229,568	109,526
189,027	-8,414	229,521	109,517
190,042	-8,363	229,271	109,427
191,056	-8,499	229,054	109,209
192,071	-8,658	228,830	108,968
193,086	-8,693	228,682	108,861
194,100	-9,537	228,169	107,952
195,115	-10,996	227,486	106,491
196,129	-10,834	227,575	106,649
197,144	-6,552	228,892	110,586
198,159	-1,166	230,446	115,532
199,173	2,170	231,511	118,665
200,188	3,047	231,616	119,394
201,202	3,347	231,501	119,559
202,217	3,787	231,599	119,942
203,232	3,959	231,308	119,914
204,246	3,968	231,212	119,861
205,261	3,914	231,100	119,750
206,275	4,066	230,788	119,696
207,290	3,770	230,841	119,482
208,304	4,024	230,546	119,517
209,319	3,846	230,406	119,295
210,334	3,843	230,235	119,193
211,348	3,530	229,919	118,777
212,363	3,182	229,673	118,370
213,377	2,891	229,354	117,970
214,392	2,490	229,262	117,603
215,407	2,586	229,022	117,543
216,421	2,371	229,004	117,357
217,436	2,433	228,613	117,195
218,450	2,140	228,580	116,942
219,465	2,333	228,441	117,008
220,480	2,291	228,324	116,905
221,494	2,512	228,122	116,962
222,509	2,428	228,168	116,910
223,523	2,637	227,902	116,925
224,538	2,665	227,711	116,837
225,553	2,679	227,616	116,789
226,567	2,663	227,371	116,640
227,582	2,534	227,157	116,422
228,596	2,593	227,145	116,450
229,611	2,610	226,804	116,278
230,626	2,404	226,875	116,146
231,640	2,524	226,592	116,083
232,655	2,674	226,423	116,100
233,669	2,549	226,392	115,978
234,684	2,629	226,106	115,883
235,699	2,619	226,079	115,852
236,713	2,747	225,952	115,873
237,728	2,700	225,813	115,756
238,742	2,803	225,722	115,776
239,757	2,853	225,569	115,726
240,772	2,598	225,452	115,462
241,786	2,900	225,308	115,607
242,801	3,181	225,188	115,748
243,815	3,321	225,166	115,832
244,830	3,073	224,974	115,535
245,844	2,964	224,683	115,294
246,859	3,019	224,445	115,202
247,874	2,836	224,497	115,080
248,888	2,928	224,219	114,997
249,903	2,722	224,197	114,821
250,917	2,827	223,999	114,788
251,932	2,725	223,941	114,672
252,947	3,005	223,617	114,705
253,961	2,865	223,475	114,517
254,976	2,753	223,401	114,385
255,990	3,079	223,190	114,511
257,005	2,969	223,134	114,390
258,020	2,734	223,064	114,168
259,034	3,201	222,869	114,407
260,049	3,098	222,690	114,229
261,063	2,924	222,526	114,004
262,078	2,944	222,465	113,977
263,093	3,113	222,287	114,002
264,107	3,007	222,035	113,784
265,122	2,910	221,910	113,637
266,136	2,770	221,843	113,489
267,151	3,114	221,762	113,693
268,166	2,996	221,472	113,447
269,180	2,729	221,267	113,133
270,195	2,651	221,150	113,005
271,209	2,822	221,028	113,060
272,224	2,560	220,969	112,826
273,239	2,776	220,691	112,834
274,253	2,725	220,567	112,722
275,268	2,476	220,517	112,503
276,282	2,644	220,204	112,457
277,297	2,595	220,150	112,383
278,312	2,788	219,999	112,438
279,326	2,854	219,882	112,417
280,341	2,662	219,653	112,149
281,355	2,798	219,633	112,228
282,370	2,756	219,428	112,083
283,384	2,484	219,382	111,849
284,399	2,633	219,183	111,848
285,414	2,840	219,149	111,972
286,428	3,069	219,011	112,059
287,443	2,917	218,939	111,901
288,457	2,906	218,672	111,746
289,472	2,758	218,546	111,564
290,487	2,515	218,287	111,245
291,501	2,831	218,034	111,336
292,516	2,878	218,024	111,355
293,530	2,811	217,965	111,266
294,545	2,896	217,741	111,204
295,560	2,697	217,634	110,995
296,574	2,947	217,608	111,153
297,589	3,108	217,421	111,165
298,603	3,128	217,276	111,095
299,618	2,886	217,263	110,903
300,633	3,179	217,083	111,014
301,647	3,051	217,030	110,884
302,662	3,286	216,843	110,949
303,676	3,050	216,667	110,679
304,691	2,993	216,406	110,494
305,706	3,128	216,329	110,542
306,720	2,988	216,197	110,364
307,735	3,072	216,071	110,350
308,749	2,910	215,941	110,157
309,764	3,160	215,777	110,244
310,779	3,009	215,587	110,028
311,793	2,873	215,463	109,857
312,808	2,813	215,491	109,819
313,822	2,967	215,141	109,741
314,837	2,946	214,967	109,627
315,852	2,908	214,837	109,524
316,866	2,807	214,821	109,433
317,881	2,918	214,814	109,500
318,895	2,777	214,405	109,181
319,910	2,814	214,375	109,183
320,925	2,639	214,126	108,921
321,939	2,770	213,893	108,886
322,954	2,876	213,908	108,960
323,968	2,939	213,710	108,894
324,983	3,006	213,774	108,965
325,997	2,976	213,516	108,802
327,012	3,014	213,273	108,695
328,027	2,501	213,363	108,367
329,041	2,904	212,993	108,455
330,056	2,915	213,008	108,461
331,070	2,744	212,918	108,284
332,085	2,810	212,658	108,189
333,100	2,751	212,645	108,131
334,114	2,915	212,354	108,089
335,129	2,988	212,239	108,073
336,143	2,781	212,168	107,881
337,158	2,684	211,988	107,711
338,173	2,819	211,878	107,741
339,187	2,842	211,869	107,743
340,202	2,759	211,579	107,527
341,216	2,388	211,486	107,209
342,231	2,805	211,377	107,438
343,246	2,675	211,276	107,285
344,260	2,701	211,141	107,225
345,275	2,766	211,119	107,251
346,289	2,979	210,810	107,233
347,304	2,874	210,700	107,095
348,319	3,064	210,507	107,120
349,333	2,673	210,436	106,801
350,348	2,802	210,237	106,780
351,362	3,021	210,137	106,873
352,377	2,824	210,037	106,675
353,392	2,418	210,017	106,371
354,406	2,931	209,779	106,599
355,421	193,440	1341,375	1426,027
356,435	154,379	1479,293	1426,072
