DTS Sentinel unit serial number:	SN410029Multiplexer serial number:	ORYXHardware model number:	OX2-SRSoftware version number:	ORYX F/W v4,00 Oryx Data Collector v3.7.2.0data status	okinstallation	B6 Nyhavnadifferential loss correction	single-endedforward channel	channel 2reverse channel	N/Adate	2023/12/11time	05:05:08forward acquisition time	300,00reverse acquisition time	0,00gamma	499,1914k internal	0,3126k external	0,3126temperature offset calibration	1,0000default loss term (dB/km)	0,3820temperature slope calibration	1,0000multiplexer offset coefficient	1,0000multiplexer slope coefficient	1,0000fibre end	0,00T internal ref (°C)	20,17T ext. ref 1 (°C)	3,12T ext. ref 2 (°C)	3,11length (m)	temperature (°C)	Stokes	anti-Stokes-744,400	-110,101	0,110	0,017
-743,385	-165,823	-0,309	-0,010
-742,371	-200,000	-0,006	0,088
-741,356	-129,633	-0,329	0,033
-740,342	687,619	0,001	-0,002
-739,327	-73,118	-0,191	0,052
-738,312	293,477	0,052	0,071
-737,298	-184,778	-0,241	-0,003
-736,283	800,000	0,078	-0,168
-735,269	26,651	-0,106	0,066
-734,254	-200,000	0,003	-0,028
-733,239	-86,263	-0,527	-0,120
-732,225	-22,209	0,187	-0,084
-731,210	-200,000	0,006	0,119
-730,196	684,598	0,028	-0,054
-729,181	92,641	-0,052	0,044
-728,167	485,060	0,064	0,110
-727,152	800,000	-0,063	-0,146
-726,137	-200,000	-0,002	-0,072
-725,123	-11,255	-0,078	-0,038
-724,108	-200,000	-0,036	-0,153
-723,094	16,523	-0,076	-0,045
-722,079	365,826	-0,066	0,099
-721,064	-200,000	-0,019	0,163
-720,050	166,958	0,033	0,035
-719,035	60,897	0,068	-0,050
-718,021	800,000	-0,052	-0,121
-717,006	-200,000	-0,001	0,017
-715,991	-33,945	-0,116	-0,047
-714,977	-30,184	-0,116	0,049
-713,962	800,000	-0,072	0,156
-712,948	445,988	0,033	0,054
-711,933	-200,000	0,019	0,083
-710,918	-200,000	-0,005	0,051
-709,904	196,490	-0,054	-0,061
-708,889	296,166	-0,090	-0,123
-707,875	-16,633	0,056	-0,026
-706,860	-200,000	-0,004	0,028
-705,845	33,062	0,078	0,050
-704,831	-200,000	-0,000	0,154
-703,816	142,889	0,063	-0,063
-702,802	800,000	-0,024	0,055
-701,787	800,000	-0,028	-0,068
-700,772	-6,013	-0,169	0,086
-699,758	615,197	-0,055	0,103
-698,743	-200,000	0,025	0,152
-697,729	800,000	-0,019	-0,046
-696,714	72,526	-0,082	-0,063
-695,699	0,744	-0,144	0,076
-694,685	-4,291	-0,027	-0,014
-693,670	-192,962	-0,091	-0,001
-692,656	-200,000	0,000	-0,037
-691,641	11,851	-0,069	0,039
-690,627	-57,356	0,149	0,048
-689,612	800,000	0,034	0,090
-688,597	-16,348	-0,167	-0,078
-687,583	16,364	-0,105	-0,061
-686,568	-9,503	0,029	0,014
-685,554	-98,387	-0,175	-0,033
-684,539	66,516	0,079	-0,060
-683,524	475,047	-0,034	0,057
-682,510	130,183	-0,061	0,058
-681,495	-93,645	-0,120	-0,024
-680,481	-53,758	-0,098	-0,033
-679,466	-200,000	-0,004	0,069
-678,451	51,076	-0,055	0,039
-677,437	316,526	0,082	0,115
-676,422	427,111	-0,090	0,145
-675,408	407,986	-0,043	-0,067
-674,393	-13,220	0,027	-0,013
-673,378	800,000	-0,061	-0,128
-672,364	800,000	-0,019	-0,060
-671,349	-141,450	-0,142	-0,011
-670,335	-91,066	0,143	0,030
-669,320	482,322	-0,033	-0,056
-668,305	-200,000	0,039	0,173
-667,291	254,225	-0,080	0,102
-666,276	-176,285	-0,080	0,002
-665,262	10,622	-0,132	-0,075
-664,247	-68,341	-0,096	0,028
-663,232	-73,154	-0,124	-0,034
-662,218	246,675	0,026	-0,033
-661,203	800,000	-0,086	0,181
-660,189	800,000	-0,050	-0,109
-659,174	119,510	-0,045	-0,041
-658,159	-200,000	0,001	-0,153
-657,145	237,436	-0,058	-0,072
-656,130	-200,000	-0,010	0,070
-655,116	800,000	-0,015	-0,044
-654,101	-124,372	0,076	-0,009
-653,086	-114,995	-0,142	-0,020
-652,072	81,751	-0,183	-0,147
-651,057	193,059	-0,055	-0,062
-650,043	-64,024	-0,114	-0,034
-649,028	-100,163	0,038	0,007
-648,014	-72,341	0,065	0,018
-646,999	-58,567	-0,092	0,029
-645,984	-67,539	-0,059	0,017
-644,970	681,565	0,071	-0,138
-643,955	-162,785	-0,133	-0,005
-642,941	-30,386	-0,079	0,033
-641,926	10,253	-0,076	0,043
-640,911	14,320	-0,052	-0,030
-639,897	678,256	0,033	0,063
-638,882	-113,567	0,021	0,003
-637,868	-168,482	0,105	0,003
-636,853	800,000	-0,041	-0,107
-635,838	800,000	-0,105	-0,238
-634,824	800,000	-0,076	-0,205
-633,809	2,874	-0,099	-0,053
-632,795	203,556	0,046	0,053
-631,780	713,702	-0,004	0,008
-630,765	25,454	0,029	-0,018
-629,751	-43,820	0,087	-0,032
-628,736	-200,000	-0,017	-0,106
-627,722	513,236	-0,040	0,070
-626,707	-200,000	-0,010	0,047
-625,692	391,425	-0,052	0,080
-624,678	800,000	0,052	-0,129
-623,663	-200,000	0,024	-0,084
-622,649	-36,455	-0,056	0,022
-621,634	-200,000	0,012	-0,196
-620,619	61,193	-0,086	-0,063
-619,605	184,205	-0,053	-0,058
-618,590	138,458	-0,026	0,025
-617,576	-128,219	0,069	0,007
-616,561	-200,000	0,008	-0,088
-615,546	-200,000	-0,030	-0,116
-614,532	-200,000	0,020	-0,161
-613,517	-200,000	0,039	-0,132
-612,503	153,861	-0,089	-0,091
-611,488	294,735	0,043	0,058
-610,474	-39,202	-0,126	0,049
-609,459	-85,844	0,116	0,026
-608,444	-200,000	-0,003	0,015
-607,430	8,328	-0,086	0,048
-606,415	39,239	-0,040	-0,027
-605,401	-53,412	0,030	-0,010
-604,386	127,052	-0,012	0,011
-603,371	-22,509	0,042	-0,019
-602,357	-146,988	-0,063	-0,004
-601,342	104,438	-0,056	-0,049
-600,328	314,173	-0,079	-0,110
-599,313	-13,908	-0,131	-0,063
-598,298	-200,000	-0,025	-0,098
-597,284	-68,142	0,113	0,032
-596,269	562,613	0,045	0,081
-595,255	573,792	-0,094	0,171
-594,240	-148,341	-0,143	0,009
-593,225	68,043	0,096	0,073
-592,211	742,405	0,067	0,133
-591,196	-200,000	0,001	-0,042
-590,182	800,000	-0,029	0,083
-589,167	101,981	0,049	0,043
-588,152	-88,023	-0,052	-0,011
-587,138	-69,252	-0,091	-0,026
-586,123	323,933	-0,050	-0,071
-585,109	800,000	0,036	0,106
-584,094	800,000	-0,016	-0,038
-583,079	-200,000	0,019	0,167
-582,065	-200,000	-0,009	0,059
-581,050	-83,610	0,052	-0,012
-580,036	-130,320	-0,018	-0,002
-579,021	-21,641	0,068	0,030
-578,006	-45,654	-0,120	-0,044
-576,992	526,153	-0,062	0,108
-575,977	-143,560	0,118	0,008
-574,963	-200,000	0,006	0,040
-573,948	225,250	0,104	-0,125
-572,934	388,498	-0,065	-0,099
-571,919	270,214	0,050	-0,065
-570,904	-200,000	-0,017	-0,058
-569,890	211,889	0,093	-0,108
-568,875	53,712	-0,125	0,089
-567,861	748,161	0,055	-0,110
-566,846	548,595	0,091	0,161
-565,831	-36,949	-0,101	-0,040
-564,817	249,394	0,086	0,108
-563,802	15,676	0,143	-0,083
-562,788	86,977	0,041	0,033
-561,773	-200,000	0,002	-0,129
-560,758	122,384	-0,007	-0,006
-559,744	-152,287	0,048	-0,003
-558,729	-200,000	0,006	-0,049
-557,715	132,084	-0,103	0,098
-556,700	502,129	0,058	0,100
-555,685	-200,000	0,032	0,156
-554,671	-48,957	-0,021	0,007
-553,656	-200,000	-0,013	0,141
-552,642	315,609	-0,035	0,048
-551,627	-200,000	-0,003	0,051
-550,612	484,433	0,022	0,037
-549,598	159,556	-0,028	0,028
-548,583	-46,736	-0,163	0,059
-547,569	-200,000	-0,020	0,076
-546,554	-25,505	0,109	-0,047
-545,539	26,672	0,097	0,060
-544,525	-200,000	-0,024	-0,078
-543,510	-56,759	0,018	0,006
-542,496	54,321	0,120	0,085
-541,481	121,799	-0,008	-0,007
-540,466	-200,000	0,008	-0,094
-539,452	-200,000	-0,021	-0,084
-538,437	-70,834	0,048	0,013
-537,423	-200,000	0,009	0,068
-536,408	-67,512	-0,117	-0,034
-535,393	-200,000	-0,014	-0,058
-534,379	800,000	0,048	-0,120
-533,364	125,156	-0,070	0,065
-532,350	82,700	0,055	0,044
-531,335	541,248	-0,039	-0,068
-530,321	54,996	-0,027	-0,019
-529,306	-200,000	-0,011	-0,085
-528,291	-52,867	-0,195	-0,066
-527,277	302,557	-0,020	-0,027
-526,262	-100,656	0,022	-0,004
-525,248	395,376	0,059	0,091
-524,233	-200,000	0,008	-0,095
-523,218	93,961	-0,034	-0,029
-522,204	-200,000	0,045	0,166
-521,189	642,902	0,032	0,060
-520,175	160,001	0,054	0,055
-519,160	-200,000	0,009	-0,115
-518,145	-5,858	0,119	0,060
-517,131	620,419	0,035	-0,064
-516,116	329,211	0,109	0,155
-515,102	-200,000	0,000	0,084
-514,087	173,002	0,049	-0,053
-513,072	-200,000	0,002	-0,080
-512,058	-14,766	-0,191	-0,090
-511,043	-75,780	0,161	0,042
-510,029	800,000	0,008	-0,018
-509,014	354,903	-0,053	0,078
-507,999	42,056	-0,068	-0,045
-506,985	442,453	-0,079	-0,128
-505,970	-200,000	-0,032	-0,113
-504,956	800,000	0,021	-0,059
-503,941	141,566	-0,113	-0,111
-502,926	-200,000	0,027	0,123
-501,912	-200,000	0,027	0,206
-500,897	-124,328	-0,055	-0,006
-499,883	800,000	-0,060	-0,143
-498,868	800,000	-0,062	-0,145
-497,853	-74,917	-0,067	-0,018
-496,839	13,866	0,078	0,045
-495,824	608,760	-0,009	0,016
-494,810	-200,000	0,019	-0,066
-493,795	41,439	-0,029	-0,020
-492,781	50,110	0,025	0,017
-491,766	157,338	0,018	-0,018
-490,751	796,874	-0,017	0,034
-489,737	-49,546	-0,092	0,032
-488,722	-120,416	0,041	-0,005
-487,708	800,000	-0,020	0,055
-486,693	574,641	0,043	0,077
-485,678	0,754	0,101	0,053
-484,664	-200,000	0,003	-0,133
-483,649	-9,372	-0,061	-0,030
-482,635	-38,574	0,066	0,026
-481,620	-152,398	0,085	-0,004
-480,605	800,000	0,022	0,067
-479,591	-172,921	0,165	0,004
-478,576	435,605	0,041	0,065
-477,562	-200,000	-0,001	-0,032
-476,547	-147,269	-0,160	0,010
-475,532	-4,960	-0,169	-0,085
-474,518	-27,793	-0,081	-0,034
-473,503	-200,000	-0,002	0,025
-472,489	-200,000	0,036	-0,150
-471,474	207,886	-0,084	0,097
-470,459	-3,198	-0,072	-0,037
-469,445	-87,586	-0,101	-0,022
-468,430	2,458	-0,019	-0,010
-467,416	-158,667	-0,076	0,003
-466,401	-147,899	0,103	0,006
-465,386	560,795	-0,032	0,057
-464,372	-93,973	-0,128	-0,026
-463,357	329,384	-0,093	-0,133
-462,343	-105,736	-0,089	0,015
-461,328	-200,000	-0,007	0,127
-460,313	-200,000	0,002	-0,065
-459,299	25,944	0,046	-0,028
-458,284	-57,072	-0,055	0,018
-457,270	-200,000	0,001	-0,116
-456,255	92,926	-0,056	0,047
-455,241	144,310	0,094	-0,093
-454,226	-200,000	0,031	-0,111
-453,211	800,000	0,042	-0,105
-452,197	-73,776	-0,111	0,030
-451,182	-200,000	0,018	0,081
-450,168	-31,379	0,034	-0,014
-449,153	36,358	-0,064	-0,041
-448,138	9,723	0,084	0,047
-447,124	-13,025	-0,173	-0,082
-446,109	-65,953	0,123	0,036
-445,095	-190,568	0,030	0,000
-444,080	153,731	0,124	0,125
-443,065	488,561	-0,077	0,131
-442,051	-137,318	-0,061	0,005
-441,036	600,279	0,046	-0,084
-440,022	635,462	-0,116	-0,218
-439,007	24,703	0,136	-0,082
-437,992	120,185	0,089	0,081
-436,978	-200,000	0,011	0,103
-435,963	610,970	-0,073	0,135
-434,949	-200,000	-0,008	0,058
-433,934	-23,245	-0,087	-0,038
-432,919	-200,000	-0,042	-0,168
-431,905	-200,000	-0,006	-0,029
-430,890	82,546	0,100	-0,080
-429,876	-162,520	0,099	0,004
-428,861	448,409	0,033	-0,054
-427,846	-200,000	-0,011	-0,090
-426,832	237,079	-0,061	-0,075
-425,817	258,871	-0,078	-0,099
-424,803	-55,318	-0,071	-0,023
-423,788	-56,866	0,158	-0,051
-422,773	585,899	-0,028	0,050
-421,759	-53,266	0,114	-0,038
-420,744	563,562	-0,008	-0,015
-419,730	800,000	0,029	0,067
-418,715	86,586	-0,115	-0,094
-417,701	48,855	0,059	0,041
-416,686	-146,412	0,098	0,006
-415,671	-200,000	0,004	-0,016
-414,657	15,542	-0,099	-0,057
-413,642	-59,850	0,056	-0,018
-412,628	108,632	-0,056	-0,049
-411,613	234,515	-0,032	0,038
-410,598	103,104	-0,050	-0,043
-409,584	185,972	-0,137	0,150
-408,569	800,000	0,014	-0,028
-407,555	-86,443	-0,036	-0,008
-406,540	122,732	0,070	0,065
-405,525	800,000	0,040	-0,109
-404,511	219,484	-0,080	0,094
-403,496	800,000	0,031	0,086
-402,482	-96,137	-0,195	0,038
-401,467	368,685	0,033	0,050
-400,452	663,257	-0,025	0,047
-399,438	-6,778	0,081	-0,040
-398,423	248,807	0,061	0,076
-397,409	346,453	-0,071	-0,104
-396,394	-200,000	0,011	-0,069
-395,379	-200,000	-0,007	0,045
-394,365	2,614	0,087	-0,046
-393,350	-31,648	-0,034	0,014
-392,336	-200,000	-0,008	-0,050
-391,321	-200,000	-0,007	0,036
-390,306	800,000	-0,046	-0,147
-389,292	-200,000	0,016	-0,157
-388,277	-200,000	0,025	0,099
-387,263	67,141	0,034	0,025
-386,248	-64,033	0,091	0,027
-385,233	-200,000	-0,010	-0,033
-384,219	119,545	0,092	0,084
-383,204	800,000	0,015	-0,041
-382,190	-200,000	0,022	0,102
-381,175	800,000	0,027	0,055
-380,160	-200,000	-0,005	0,044
-379,146	87,039	0,089	0,072
-378,131	-200,000	0,022	0,152
-377,117	-132,196	0,112	-0,011
-376,102	234,702	-0,027	-0,033
-375,088	-33,050	-0,161	-0,065
-374,073	312,721	-0,035	-0,048
-373,058	647,465	-0,051	0,096
-372,044	22,695	0,082	0,049
-371,029	-200,000	-0,009	-0,085
-370,015	291,321	-0,038	0,050
-369,000	-9,781	-0,107	-0,052
-367,985	186,017	0,043	-0,047
-366,971	237,790	0,081	-0,099
-365,956	-200,000	-0,021	-0,154
-364,942	-40,470	0,057	0,022
-363,927	800,000	0,016	0,044
-362,912	443,410	0,009	0,015
-361,898	155,163	0,027	-0,027
-360,883	800,000	-0,039	-0,102
-359,869	-200,000	0,009	-0,056
-358,854	264,080	-0,078	0,100
-357,839	-200,000	0,011	0,103
-356,825	118,001	0,175	0,158
-355,810	-119,981	-0,089	0,011
-354,796	412,563	0,071	-0,111
-353,781	56,578	0,105	-0,075
-352,766	-109,236	0,042	0,007
-351,752	-31,934	-0,097	0,040
-350,737	386,487	-0,082	0,124
-349,723	-25,281	-0,055	-0,024
-348,708	-79,876	0,101	-0,025
-347,693	142,646	-0,023	0,023
-346,679	-200,000	-0,002	-0,059
-345,664	503,809	0,082	-0,140
-344,650	136,543	-0,059	-0,057
-343,635	-152,230	0,217	-0,011
-342,620	192,363	-0,109	0,121
-341,606	800,000	0,018	-0,039
-340,591	539,716	0,026	0,046
-339,577	442,169	-0,016	-0,026
-338,562	-26,908	-0,100	0,043
-337,548	397,336	-0,022	-0,034
-336,533	-138,629	0,229	0,018
-335,518	0,455	0,073	0,038
-334,504	564,414	-0,061	0,110
-333,489	206,084	0,089	-0,101
-332,475	13,613	-0,038	-0,022
-331,460	-95,719	-0,118	-0,023
-330,445	139,371	-0,066	-0,064
-329,431	-200,000	0,011	-0,036
-328,416	358,153	-0,025	0,036
-327,402	-78,888	-0,106	0,026
-326,387	-200,000	0,027	-0,124
-325,372	515,070	0,040	-0,068
-324,358	-200,000	0,013	0,075
-323,343	434,314	-0,069	-0,110
-322,329	-130,907	0,178	0,017
-321,314	331,192	0,103	0,145
-320,299	800,000	-0,034	0,078
-319,285	800,000	0,023	-0,070
-318,270	-107,839	-0,043	-0,007
-317,256	-200,000	-0,030	-0,097
-316,241	-200,000	0,000	0,010
-315,226	-200,000	-0,008	-0,039
-314,212	-56,122	0,095	0,031
-313,197	-200,000	-0,013	0,162
-312,183	-25,732	-0,055	0,023
-311,168	-200,000	-0,011	0,052
-310,153	682,260	-0,058	-0,111
-309,139	438,464	-0,037	-0,060
-308,124	-32,229	0,073	0,030
-307,110	-134,662	0,066	0,006
-306,095	-200,000	-0,023	0,143
-305,080	-200,000	-0,025	-0,089
-304,066	800,000	0,031	-0,084
-303,051	-200,000	-0,001	-0,093
-302,037	-163,435	-0,030	-0,001
-301,022	418,811	-0,011	0,017
-300,008	-200,000	-0,003	0,017
-298,993	-200,000	-0,012	-0,145
-297,978	-96,872	-0,028	0,005
-296,964	-124,662	-0,110	0,012
-295,949	-200,000	0,000	0,010
-294,935	113,750	-0,071	0,063
-293,920	272,535	0,064	0,082
-292,905	-66,035	-0,027	0,008
-291,891	-135,564	0,125	0,011
-290,876	226,889	0,047	-0,056
-289,862	184,108	0,008	0,009
-288,847	-25,959	-0,062	-0,027
-287,832	800,000	-0,056	0,142
-286,818	172,300	-0,019	0,020
-285,803	-200,000	-0,029	0,151
-284,789	311,572	0,074	0,101
-283,774	-200,000	-0,031	0,150
-282,759	-76,395	-0,030	-0,008
-281,745	-102,604	-0,138	0,024
-280,730	169,359	-0,030	-0,031
-279,716	196,422	-0,066	0,074
-278,701	258,945	0,038	0,048
-277,686	203,049	0,093	0,105
-276,672	-200,000	0,006	0,048
-275,657	283,994	0,071	-0,093
-274,643	209,996	0,072	-0,083
-273,628	-200,000	-0,020	-0,111
-272,613	-200,000	0,048	-0,156
-271,599	125,743	-0,037	-0,035
-270,584	-200,000	0,028	0,132
-269,570	800,000	-0,048	0,114
-268,555	78,710	0,111	0,087
-267,540	-200,000	0,013	0,133
-266,526	-200,000	-0,004	0,026
-265,511	576,620	0,054	-0,097
-264,497	228,503	0,037	-0,044
-263,482	-49,699	0,028	-0,010
-262,467	330,253	0,063	0,089
-261,453	-94,527	0,045	-0,009
-260,438	-149,657	-0,090	0,005
-259,424	-200,000	0,043	-0,167
-258,409	-64,453	-0,145	0,043
-257,395	168,301	-0,006	-0,007
-256,380	7,792	-0,088	-0,048
-255,365	-27,182	-0,067	0,028
-254,351	120,226	-0,057	0,052
-253,336	-200,000	-0,002	0,008
-252,322	800,000	-0,048	0,099
-251,307	1,961	-0,029	-0,015
-250,292	-200,000	0,036	0,139
-249,278	590,827	-0,025	-0,045
-248,263	800,000	-0,049	0,145
-247,249	-200,000	0,024	0,107
-246,234	-200,000	-0,004	-0,036
-245,219	-200,000	-0,003	-0,072
-244,205	210,979	0,096	0,110
-243,190	10,483	0,101	0,056
-242,176	-106,716	0,214	0,034
-241,161	-138,347	0,131	-0,010
-240,146	361,898	-0,022	-0,033
-239,132	82,073	-0,112	-0,088
-238,117	10,585	0,024	0,014
-237,103	800,000	0,050	-0,150
-236,088	-153,590	0,063	0,003
-235,073	33,742	0,167	0,106
-234,059	800,000	0,047	0,096
-233,044	-61,928	0,100	0,030
-232,030	-200,000	0,021	-0,170
-231,015	467,843	0,046	-0,076
-230,000	-200,000	0,000	-0,022
-228,986	-200,000	0,026	-0,124
-227,971	-92,271	-0,103	0,021
-226,957	-200,000	-0,005	-0,028
-225,942	-49,372	0,070	0,024
-224,927	-144,562	0,103	0,007
-223,913	86,273	-0,135	-0,109
-222,898	-200,000	0,004	0,103
-221,884	231,127	0,069	-0,083
-220,869	-158,340	0,048	0,002
-219,855	-200,000	0,019	0,140
-218,840	-200,000	0,001	0,007
-217,825	-142,093	-0,044	0,003
-216,811	800,000	0,020	-0,063
-215,796	550,309	-0,051	-0,090
-214,782	7,725	-0,105	-0,057
-213,767	-127,950	0,085	-0,009
-212,752	316,979	-0,048	0,066
-211,738	800,000	0,072	0,149
-210,723	73,783	0,067	0,051
-209,709	-200,000	-0,009	-0,074
-208,694	-17,614	-0,094	0,043
-207,679	13,783	0,150	0,085
-206,665	800,000	0,021	-0,052
-205,650	117,563	0,168	0,151
-204,636	-168,848	-0,054	-0,001
-203,621	-200,000	0,006	-0,051
-202,606	-200,000	0,031	0,220
-201,592	4,681	0,130	-0,069
-200,577	120,882	0,016	-0,014
-199,563	800,000	-0,036	-0,112
-198,548	800,000	0,017	0,035
-197,533	45,254	0,094	0,063
-196,519	58,396	-0,095	0,068
-195,504	252,183	-0,011	-0,013
-194,490	39,892	-0,087	-0,057
-193,475	13,387	-0,107	0,061
-192,460	-59,300	0,117	0,037
-191,446	394,974	-0,029	-0,044
-190,431	3,576	-0,096	-0,051
-189,417	-200,000	0,006	0,041
-188,402	-191,610	-0,068	-0,000
-187,387	144,900	-0,046	-0,044
-186,373	-200,000	-0,006	-0,043
-185,358	-6,474	-0,004	0,002
-184,344	-200,000	0,024	0,111
-183,329	-25,676	0,062	0,026
-182,315	-200,000	0,012	0,078
-181,300	-68,505	0,082	-0,023
-180,285	-200,000	0,021	-0,151
-179,271	66,323	-0,038	-0,028
-178,256	-136,278	-0,046	-0,004
-177,242	337,226	-0,083	0,117
-176,227	315,809	0,065	0,090
-175,212	-200,000	0,002	-0,024
-174,198	270,156	-0,070	0,090
-173,183	-45,729	0,078	0,028
-172,169	-200,000	0,028	0,141
-171,154	44,892	-0,060	0,040
-170,139	-51,367	-0,073	0,025
-169,125	-200,000	0,002	0,040
-168,110	15,987	-0,051	0,029
-167,096	-149,095	-0,092	-0,005
-166,081	800,000	0,041	-0,126
-165,066	-200,000	-0,010	-0,079
-164,052	-200,000	0,003	0,073
-163,037	108,088	0,045	-0,039
-162,023	-200,000	0,020	0,115
-161,008	494,000	0,095	0,159
-159,993	-200,000	0,002	0,135
-158,979	545,504	0,027	-0,047
-157,964	-31,706	0,028	-0,011
-156,950	-200,000	0,010	0,048
-155,935	-36,729	0,046	0,018
-154,920	800,000	0,031	-0,091
-153,906	172,333	-0,074	0,077
-152,891	-200,000	-0,038	0,158
-151,877	19,209	-0,077	0,045
-150,862	-7,769	-0,114	-0,056
-149,847	-125,571	-0,120	0,013
-148,833	-59,693	-0,008	0,002
-147,818	128,382	0,179	0,165
-146,804	400,494	0,043	0,067
-145,789	237,367	0,050	0,061
-144,775	-200,000	-0,037	0,232
-143,760	-200,000	0,028	0,210
-142,745	-89,712	-0,088	-0,019
-141,731	-68,163	0,113	-0,032
-140,716	-200,000	0,002	-0,019
-139,702	-200,000	0,018	0,097
-138,687	8,466	-0,180	-0,098
-137,672	178,229	-0,091	0,096
-136,658	-200,000	-0,005	-0,032
-135,643	-135,523	-0,094	0,008
-134,629	94,899	-0,104	0,086
-133,614	-200,000	0,004	-0,041
-132,599	239,147	0,037	0,045
-131,585	93,681	-0,050	0,041
-130,570	-200,000	0,019	-0,076
-129,556	800,000	-0,029	-0,063
-128,541	648,722	0,023	-0,043
-127,526	-200,000	-0,008	0,034
-126,512	-200,000	0,018	0,098
-125,497	-25,090	0,102	0,044
-124,483	65,537	-0,009	-0,007
-123,468	800,000	-0,046	-0,139
-122,453	-134,469	-0,229	0,020
-121,439	42,066	-0,095	0,063
-120,424	39,143	0,091	-0,059
-119,410	288,278	-0,026	0,034
-118,395	-56,370	0,048	-0,015
-117,380	-48,390	0,092	0,032
-116,366	-200,000	-0,004	-0,071
-115,351	737,261	-0,032	0,062
-114,337	244,126	-0,033	-0,041
-113,322	-190,195	-0,062	-0,000
-112,307	-111,328	-0,079	-0,012
-111,293	-200,000	0,022	0,073
-110,278	157,484	-0,061	0,061
-109,264	63,714	-0,052	-0,038
-108,249	800,000	-0,043	-0,094
-107,234	561,717	-0,071	0,125
-106,220	-200,000	0,001	0,054
-105,205	-72,503	0,184	0,049
-104,191	-1,535	0,038	-0,020
-103,176	-42,461	-0,083	0,031
-102,162	67,093	-0,082	0,060
-101,147	55,841	-0,057	-0,040
-100,132	800,000	0,029	-0,062
-99,118	220,015	0,066	0,077
-98,103	800,000	0,049	0,117
-97,089	-200,000	0,020	0,143
-96,074	34,936	0,077	0,049
-95,059	-34,841	0,029	0,012
-94,045	718,738	-0,021	0,040
-93,030	-200,000	0,038	-0,167
-92,016	-200,000	-0,025	-0,146
-91,001	-32,006	-0,062	0,025
-89,986	515,155	0,043	-0,073
-88,972	-98,872	0,095	0,017
-87,957	-91,360	0,129	-0,027
-86,943	87,777	-0,048	-0,038
-85,928	-171,826	0,111	-0,003
-84,913	-16,116	0,036	-0,017
-83,899	557,834	-0,051	-0,089
-82,884	601,738	-0,031	0,055
-81,870	-200,000	0,002	0,125
-80,855	800,000	-0,042	0,117
-79,840	73,148	-0,074	0,056
-78,826	222,497	0,052	-0,061
-77,811	347,147	-0,165	-0,236
-76,797	-200,000	0,032	-0,129
-75,782	-200,000	-0,019	0,126
-74,767	-200,000	0,009	-0,083
-73,753	-200,000	-0,006	0,082
-72,738	200,359	0,017	0,019
-71,724	-195,899	-0,062	-0,000
-70,709	453,496	0,094	-0,151
-69,694	-12,456	0,061	-0,029
-68,680	-126,566	0,107	0,011
-67,665	-200,000	0,027	0,142
-66,651	273,827	0,072	0,093
-65,636	33,834	-0,130	0,082
-64,622	345,570	-0,076	0,108
-63,607	-200,000	-0,004	-0,189
-62,592	-17,353	-0,074	-0,034
-61,578	-148,854	0,099	0,006
-60,563	-200,000	0,005	0,065
-59,549	127,059	0,057	0,052
-58,534	-66,535	-1,500	-0,429
-57,519	800,000	-0,576	-1,364
-56,505	-200,000	-0,908	-4,612
-55,490	-33,372	0,513	-0,205
-54,476	800,000	5,079	12,014
-53,461	-200,000	15,128	263,366
-52,446	800,000	697,547	2228,953
-51,432	571,591	1620,477	2871,889
-50,417	120,887	1629,645	1469,099
-49,403	81,423	1284,795	1005,861
-48,388	37,993	1023,997	658,628
-47,373	22,771	984,077	582,791
-46,359	21,786	973,190	573,081
-45,344	20,422	968,987	566,115
-44,330	20,447	967,779	565,467
-43,315	20,254	966,268	563,933
-42,300	20,216	965,330	563,239
-41,286	20,264	964,215	562,721
-40,271	20,213	962,940	561,788
-39,257	20,181	962,416	561,359
-38,242	20,267	961,291	560,957
-37,227	20,206	960,762	560,430
-36,213	20,239	959,771	559,935
-35,198	20,198	958,755	559,189
-34,184	20,199	958,260	558,881
-33,169	20,194	957,208	558,228
-32,154	20,222	956,259	557,744
-31,140	20,262	955,303	557,294
-30,125	20,282	954,461	556,846
-29,111	20,236	953,715	556,237
-28,096	20,284	953,048	555,984
-27,082	20,210	952,373	555,329
-26,067	20,229	951,446	554,826
-25,052	20,173	950,901	554,306
-24,038	20,213	950,231	554,023
-23,023	20,197	949,589	553,576
-22,009	20,268	948,837	553,342
-20,994	20,238	948,245	552,881
-19,979	20,202	947,731	552,443
-18,965	20,189	947,054	551,985
-17,950	20,202	946,485	551,671
-16,936	20,105	945,944	551,023
-15,921	20,170	945,094	550,715
-14,906	20,093	944,494	550,099
-13,892	20,101	943,794	549,693
-12,877	20,081	943,238	549,284
-11,863	20,028	942,602	548,722
-10,848	20,034	942,054	548,403
-9,833	20,142	941,705	548,519
-8,819	20,079	941,069	547,927
-7,804	20,071	940,303	547,435
-6,790	20,056	939,859	547,107
-5,775	20,142	939,096	546,913
-4,760	20,094	938,592	546,445
-3,746	20,065	937,963	545,967
-2,731	19,982	937,137	545,201
-1,717	19,954	936,397	544,659
-0,702	19,909	935,922	544,222
0,313	19,773	935,165	544,171
1,327	22,955	933,348	553,104
2,342	32,349	794,973	496,123
3,356	29,867	451,283	277,865
4,371	-0,953	296,032	151,244
5,386	-5,298	277,359	137,538
6,400	-6,739	271,565	133,302
7,415	-7,319	269,257	131,617
8,429	-6,908	267,868	131,308
9,444	-7,196	267,336	130,769
10,459	-6,837	266,516	130,686
11,473	-7,008	265,987	130,258
12,488	-6,924	265,421	130,047
13,502	-6,955	264,874	129,739
14,517	-6,881	264,511	129,616
15,531	-6,948	264,368	129,474
16,546	-6,555	263,734	129,510
17,561	-6,870	263,610	129,151
18,575	-6,575	263,055	129,135
19,590	-6,656	262,724	128,888
20,604	-6,541	262,515	128,878
21,619	-6,707	262,207	128,565
22,634	-6,568	261,846	128,502
23,648	-6,821	261,684	128,183
24,663	-6,719	261,336	128,093
25,677	-6,545	261,157	128,151
26,692	-6,564	260,655	127,875
27,707	-6,653	260,540	127,728
28,721	-6,687	260,272	127,555
29,736	-6,816	260,170	127,378
30,750	-6,760	259,678	127,175
31,765	-6,739	259,522	127,106
32,780	-6,728	259,201	126,948
33,794	-6,899	259,175	126,771
34,809	-6,942	258,869	126,572
35,823	-6,804	258,487	126,497
36,838	-6,763	258,292	126,426
37,853	-6,777	258,080	126,298
38,867	-6,751	257,911	126,228
39,882	-6,857	257,611	125,976
40,896	-6,865	257,434	125,871
41,911	-7,000	257,250	125,651
42,926	-6,801	256,944	125,665
43,940	-6,892	256,720	125,464
44,955	-6,981	256,506	125,271
45,969	-6,911	256,225	125,183
46,984	-7,110	255,965	124,869
47,999	-7,386	255,929	124,598
49,013	-7,384	255,612	124,435
50,028	-7,493	255,427	124,238
51,042	-7,261	254,829	124,139
52,057	-7,620	254,909	123,853
53,071	-7,353	254,531	123,891
54,086	-7,476	254,470	123,743
55,101	-7,474	254,337	123,669
56,115	-7,325	254,350	123,794
57,130	-6,954	254,126	123,998
58,144	-6,685	253,922	124,122
59,159	-6,678	253,648	123,984
60,174	-6,725	253,371	123,796
61,188	-6,831	253,126	123,573
62,203	-6,680	253,055	123,659
63,217	-6,737	252,828	123,487
64,232	-6,778	252,611	123,335
65,247	-6,763	252,363	123,216
66,261	-6,915	252,064	122,927
67,276	-6,900	251,896	122,847
68,290	-7,056	251,514	122,515
69,305	-7,149	251,276	122,308
70,320	-7,291	251,170	122,123
71,334	-6,915	251,041	122,373
72,349	-6,657	251,011	122,571
73,363	-6,546	250,674	122,491
74,378	-6,653	250,559	122,331
75,393	-6,890	250,388	122,033
76,407	-6,725	250,089	122,018
77,422	-6,768	249,921	121,889
78,436	-6,757	249,701	121,780
79,451	-6,766	249,553	121,689
80,466	-6,791	249,259	121,514
81,480	-6,879	249,047	121,324
82,495	-7,210	248,936	120,977
83,509	-6,755	248,697	121,238
84,524	-6,983	248,416	120,896
85,539	-7,056	248,262	120,748
86,553	-6,983	248,091	120,716
87,568	-6,992	247,852	120,582
88,582	-7,017	247,650	120,451
89,597	-7,012	247,490	120,367
90,611	-6,799	247,369	120,478
91,626	-6,573	247,141	120,548
92,641	-6,564	247,008	120,480
93,655	-6,783	246,831	120,197
94,670	-6,854	246,525	119,978
95,684	-6,849	246,437	119,928
96,699	-6,888	246,171	119,755
97,714	-7,022	246,121	119,607
98,728	-7,304	245,906	119,254
99,743	-7,138	245,672	119,270
100,757	-7,133	245,449	119,156
101,772	-7,177	245,264	119,018
102,787	-7,154	245,039	118,918
103,801	-7,096	244,892	118,884
104,816	-6,964	244,794	118,936
105,830	-6,809	244,651	118,986
106,845	-6,755	244,542	118,968
107,860	-6,755	244,295	118,837
108,874	-7,010	244,135	118,536
109,889	-7,007	243,803	118,366
110,903	-7,122	243,696	118,208
111,918	-7,023	243,423	118,148
112,933	-7,146	243,358	118,003
113,947	-7,057	243,202	117,991
114,962	-6,866	242,930	118,007
115,976	-6,783	242,836	118,020
116,991	-6,764	242,552	117,887
118,006	-6,912	242,531	117,743
119,020	-6,789	242,337	117,741
120,035	-6,809	242,198	117,646
121,049	-6,789	242,149	117,629
122,064	-6,917	241,826	117,355
123,079	-6,996	241,564	117,153
124,093	-6,869	241,403	117,168
125,108	-7,056	241,107	116,861
126,122	-7,060	240,961	116,776
127,137	-7,309	240,753	116,461
128,151	-7,006	240,644	116,646
129,166	-6,951	240,464	116,593
130,181	-7,120	240,329	116,380
131,195	-7,164	239,957	116,153
132,210	-7,153	239,913	116,130
133,224	-6,744	239,681	116,342
134,239	-6,999	239,607	116,087
135,254	-7,023	239,596	116,052
136,268	-6,952	239,307	115,960
137,283	-7,145	239,110	115,697
138,297	-7,120	238,761	115,537
139,312	-7,357	238,567	115,240
140,327	-7,127	238,620	115,443
141,341	-6,530	238,455	115,838
142,356	-6,626	238,252	115,652
143,370	-6,603	238,076	115,574
144,385	-6,492	238,018	115,626
145,400	-6,425	237,823	115,575
146,414	-6,573	237,696	115,383
147,429	-6,659	237,491	115,204
148,443	-6,703	237,290	115,061
149,458	-6,802	237,110	114,883
150,473	-6,642	236,836	114,869
151,487	-6,561	236,712	114,864
152,502	-6,644	236,542	114,704
153,516	-6,440	236,264	114,724
154,531	-6,733	236,219	114,456
155,546	-6,809	236,078	114,316
156,560	-6,775	235,890	114,242
157,575	-6,821	235,651	114,079
158,589	-6,840	235,622	114,039
159,604	-6,752	235,366	113,976
160,619	-6,523	235,231	114,084
161,633	-6,545	235,255	114,068
162,648	-6,605	234,991	113,881
163,662	-6,520	234,863	113,877
164,677	-6,427	234,579	113,804
165,692	-6,688	234,401	113,500
166,706	-6,342	234,295	113,714
167,721	-6,402	234,149	113,585
168,735	-6,416	233,833	113,411
169,750	-6,523	233,873	113,334
170,764	-6,558	233,708	113,217
171,779	-6,504	233,496	113,147
172,794	-6,492	233,466	113,131
173,808	-6,510	233,237	112,996
174,823	-7,109	232,965	112,379
175,837	-7,241	232,814	112,192
176,852	-6,839	232,663	112,427
177,867	-6,748	232,717	112,515
178,881	-6,636	232,427	112,454
179,896	-6,674	232,352	112,378
180,910	-6,485	232,119	112,404
181,925	-6,616	232,024	112,245
182,940	-6,558	231,847	112,195
183,954	-6,687	231,742	112,033
184,969	-6,498	231,563	112,085
185,983	-6,606	231,403	111,913
186,998	-6,700	231,351	111,803
188,013	-6,392	231,080	111,903
189,027	-6,458	230,882	111,747
190,042	-6,523	230,772	111,632
191,056	-6,623	230,627	111,474
192,071	-6,525	230,516	111,487
193,086	-6,603	230,401	111,361
194,100	-6,753	230,177	111,125
195,115	-6,826	229,632	110,795
196,129	-7,231	229,608	110,458
197,144	-3,332	231,026	114,186
198,159	1,463	232,220	118,534
199,173	4,090	233,059	121,018
200,188	4,657	232,833	121,335
201,202	4,264	232,767	120,981
202,217	4,465	232,675	121,080
203,232	4,777	232,664	121,308
204,246	5,126	232,321	121,393
205,261	4,997	232,225	121,230
206,275	5,064	232,276	121,298
207,290	5,173	231,998	121,228
208,304	5,068	231,890	121,078
209,319	5,064	231,712	120,971
210,334	5,007	231,370	120,738
211,348	4,975	231,036	120,528
212,363	4,464	230,961	120,081
213,377	4,237	230,644	119,729
214,392	4,388	230,478	119,749
215,407	4,430	230,472	119,768
216,421	4,389	230,296	119,634
217,436	4,320	230,000	119,416
218,450	3,983	229,834	119,059
219,465	3,887	229,702	118,905
220,480	4,088	229,717	119,058
221,494	3,801	229,537	118,732
222,509	4,117	229,441	118,916
223,523	4,287	229,145	118,883
224,538	4,266	229,103	118,834
225,553	4,326	228,991	118,812
226,567	4,296	228,905	118,734
227,582	4,449	228,760	118,766
228,596	4,380	228,620	118,629
229,611	4,372	228,431	118,515
230,626	3,971	228,252	118,103
231,640	4,124	228,046	118,103
232,655	4,219	228,045	118,165
233,669	4,900	227,919	118,611
234,684	4,798	227,807	118,464
235,699	4,823	227,547	118,338
236,713	4,448	227,425	117,977
237,728	4,289	227,178	117,717
238,742	4,026	227,011	117,419
239,757	4,340	226,799	117,538
240,772	4,080	226,810	117,335
241,786	3,982	226,483	117,081
242,801	4,479	226,386	117,399
243,815	4,784	226,306	117,579
244,830	4,756	226,154	117,467
245,844	4,306	226,020	117,046
246,859	4,363	225,819	116,975
247,874	4,337	225,758	116,913
248,888	4,417	225,585	116,874
249,903	4,449	225,360	116,771
250,917	4,251	225,270	116,564
251,932	4,151	225,155	116,419
252,947	4,020	224,995	116,226
253,961	4,070	224,838	116,173
254,976	4,317	224,450	116,148
255,990	4,341	224,629	116,248
257,005	4,383	224,579	116,244
258,020	4,476	224,346	116,183
259,034	4,314	224,283	116,018
260,049	4,346	224,082	115,928
261,063	4,403	223,910	115,871
262,078	4,507	223,696	115,828
263,093	4,566	223,694	115,861
264,107	4,548	223,489	115,731
265,122	4,686	223,475	115,817
266,136	4,756	223,282	115,759
267,151	4,748	223,089	115,643
268,166	4,332	222,781	115,162
269,180	4,171	222,560	114,917
270,195	4,021	222,521	114,775
271,209	4,026	222,351	114,680
272,224	4,313	222,233	114,824
273,239	4,103	222,250	114,665
274,253	4,272	221,845	114,572
275,268	4,096	221,706	114,360
276,282	3,758	221,590	114,038
277,297	3,755	221,423	113,940
278,312	3,838	221,387	113,973
279,326	4,042	221,261	114,049
280,341	4,133	221,091	114,019
281,355	4,052	221,030	113,917
282,370	4,098	220,783	113,814
283,384	4,016	220,473	113,583
284,399	4,155	220,491	113,685
285,414	3,823	220,377	113,371
286,428	4,279	220,224	113,618
287,443	4,130	220,212	113,492
288,457	4,371	220,003	113,551
289,472	4,085	219,906	113,281
290,487	3,950	219,528	112,977
291,501	3,807	219,403	112,798
292,516	3,639	219,365	112,645
293,530	3,989	219,184	112,799
294,545	3,756	219,071	112,560
295,560	3,876	219,009	112,605
296,574	4,067	218,864	112,660
297,589	4,406	218,606	112,765
298,603	4,271	218,575	112,641
299,618	4,337	218,439	112,609
300,633	4,303	218,320	112,513
301,647	4,538	218,305	112,666
302,662	4,383	218,104	112,440
303,676	4,691	217,929	112,564
304,691	4,385	217,748	112,237
305,706	4,448	217,627	112,211
306,720	4,547	217,534	112,225
307,735	4,279	217,373	111,937
308,749	4,265	217,088	111,770
309,764	4,167	217,148	111,720
310,779	4,536	216,918	111,859
311,793	4,449	216,720	111,684
312,808	4,601	216,554	111,699
313,822	4,492	216,359	111,509
314,837	4,240	216,300	111,288
315,852	3,842	216,186	110,931
316,866	4,041	216,042	110,992
317,881	4,368	216,040	111,216
318,895	4,535	215,817	111,212
319,910	4,041	215,719	110,795
320,925	3,901	215,371	110,507
321,939	3,430	215,261	110,102
322,954	3,792	215,186	110,313
323,968	4,145	215,130	110,529
324,983	4,410	215,015	110,649
325,997	4,471	214,860	110,604
327,012	4,144	214,719	110,287
328,027	4,350	214,559	110,343
329,041	4,514	214,593	110,467
330,056	4,779	214,449	110,573
331,070	4,207	214,214	110,033
332,085	4,015	213,927	109,739
333,100	4,076	213,790	109,703
334,114	4,218	213,764	109,781
335,129	4,322	213,462	109,689
336,143	3,987	213,412	109,416
337,158	4,184	213,221	109,448
338,173	4,160	213,180	109,400
339,187	3,803	213,093	109,092
340,202	3,839	212,821	108,969
341,216	3,676	212,624	108,743
342,231	3,857	212,724	108,912
343,246	4,022	212,431	108,869
344,260	4,063	212,336	108,840
345,275	4,089	212,281	108,821
346,289	4,198	212,160	108,826
347,304	4,209	212,052	108,769
348,319	4,117	211,826	108,578
349,333	4,269	211,740	108,631
350,348	4,284	211,645	108,583
351,362	4,356	211,612	108,607
352,377	4,371	211,457	108,529
353,392	4,158	211,308	108,293
354,406	4,211	211,175	108,253
355,421	192,784	1344,674	1427,968
356,435	153,854	1482,842	1428,031
