DTS Sentinel unit serial number:	SN410029Multiplexer serial number:	ORYXHardware model number:	OX2-SRSoftware version number:	ORYX F/W v4,00 Oryx Data Collector v3.7.2.0data status	okinstallation	B6 Nyhavnadifferential loss correction	single-endedforward channel	channel 2reverse channel	N/Adate	2023/12/09time	04:20:08forward acquisition time	300,00reverse acquisition time	0,00gamma	499,1914k internal	0,3148k external	0,3148temperature offset calibration	1,0000default loss term (dB/km)	0,3820temperature slope calibration	1,0000multiplexer offset coefficient	1,0000multiplexer slope coefficient	1,0000fibre end	0,00T internal ref (°C)	16,93T ext. ref 1 (°C)	1,50T ext. ref 2 (°C)	1,51length (m)	temperature (°C)	Stokes	anti-Stokes-744,400	800,000	0,056	-0,117
-743,385	-75,657	-0,137	0,036
-742,371	-61,846	0,183	-0,056
-741,356	-118,393	-0,365	0,047
-740,342	-158,913	0,164	0,007
-739,327	-155,608	-0,263	0,012
-738,312	436,606	0,017	-0,027
-737,298	-68,725	-0,287	-0,081
-736,283	37,566	0,097	-0,063
-735,269	-168,872	-0,168	-0,005
-734,254	-200,000	0,043	0,160
-733,239	0,091	-0,411	-0,216
-732,225	309,443	0,040	0,056
-731,210	-151,580	0,162	0,009
-730,196	-28,822	-0,105	0,044
-729,181	31,471	-0,067	-0,042
-728,167	582,183	0,060	-0,108
-727,152	167,298	0,126	-0,132
-726,137	44,893	-0,132	-0,090
-725,123	41,604	0,073	-0,049
-724,108	87,182	-0,081	-0,066
-723,094	549,187	-0,051	-0,090
-722,079	-200,000	-0,019	-0,124
-721,064	125,554	0,075	0,070
-720,050	-51,625	-0,114	-0,039
-719,035	-110,930	-0,032	0,005
-718,021	353,457	-0,074	-0,109
-717,006	-200,000	-0,032	-0,118
-715,991	-55,722	-0,091	-0,030
-714,977	800,000	-0,016	-0,046
-713,962	489,001	-0,058	0,098
-712,948	800,000	-0,056	0,153
-711,933	-200,000	0,001	0,026
-710,918	399,921	-0,045	-0,070
-709,904	-127,807	-0,100	0,011
-708,889	-200,000	0,027	0,132
-707,875	-64,536	-0,060	-0,018
-706,860	-138,879	0,089	-0,007
-705,845	642,414	-0,026	0,050
-704,831	133,650	0,051	0,049
-703,816	800,000	-0,036	0,092
-702,802	-113,103	0,168	0,024
-701,787	184,786	-0,075	-0,082
-700,772	800,000	-0,031	0,080
-699,758	-24,975	-0,136	-0,059
-698,743	-81,931	0,166	-0,040
-697,729	-48,400	0,030	-0,011
-696,714	-163,864	0,023	-0,001
-695,699	-200,000	0,009	-0,043
-694,685	-77,707	0,124	-0,031
-693,670	388,728	-0,047	-0,072
-692,656	-147,090	0,034	-0,002
-691,641	41,082	-0,047	0,031
-690,627	16,511	-0,117	0,068
-689,612	34,023	-0,022	-0,014
-688,597	138,578	-0,027	0,026
-687,583	-10,343	-0,091	-0,044
-686,568	-86,335	0,031	-0,007
-685,554	800,000	0,036	-0,107
-684,539	-200,000	0,022	0,161
-683,524	-200,000	0,001	0,110
-682,510	-141,330	0,178	0,013
-681,495	-200,000	-0,002	-0,034
-680,481	-200,000	0,029	0,127
-679,466	-117,681	-0,054	-0,007
-678,451	-200,000	0,016	0,093
-677,437	-200,000	0,019	0,071
-676,422	-67,469	-0,086	0,025
-675,408	-111,211	-0,071	0,011
-674,393	-30,401	-0,131	0,054
-673,378	800,000	-0,072	-0,174
-672,364	-6,700	-0,197	-0,098
-671,349	49,219	-0,137	-0,095
-670,335	-151,943	-0,037	-0,002
-669,320	-74,482	0,098	0,026
-668,305	-153,149	0,075	-0,004
-667,291	445,157	0,029	-0,047
-666,276	97,381	-0,150	-0,127
-665,262	-47,922	-0,104	-0,037
-664,247	271,375	0,060	0,078
-663,232	311,175	-0,126	-0,174
-662,218	-176,657	-0,013	-0,000
-661,203	385,229	0,035	-0,054
-660,189	221,477	0,056	0,067
-659,174	648,076	-0,089	-0,168
-658,159	321,375	0,050	-0,071
-657,145	-200,000	-0,014	-0,118
-656,130	190,780	-0,044	-0,049
-655,116	-64,233	0,050	-0,015
-654,101	-200,000	0,009	0,059
-653,086	131,288	0,077	-0,073
-652,072	-168,177	-0,084	0,002
-651,057	478,490	-0,046	0,077
-650,043	33,329	0,087	0,056
-649,028	-115,548	-0,053	-0,007
-648,014	129,623	0,097	-0,091
-646,999	18,036	-0,135	0,079
-645,984	800,000	-0,036	-0,111
-644,970	-42,738	0,100	0,037
-643,955	7,826	-0,068	0,037
-642,941	237,277	0,125	-0,152
-641,926	-110,467	0,106	0,016
-640,911	-94,818	-0,041	-0,008
-639,897	105,578	-0,133	0,116
-638,882	252,292	0,089	0,112
-637,868	72,417	0,081	-0,062
-636,853	800,000	-0,052	-0,116
-635,838	43,271	-0,040	-0,027
-634,824	-200,000	0,027	-0,130
-633,809	-200,000	-0,013	0,238
-632,795	-14,168	-0,146	-0,069
-631,780	-120,206	0,121	-0,015
-630,765	-105,545	-0,147	-0,024
-629,751	800,000	-0,039	-0,126
-628,736	-48,084	-0,126	-0,045
-627,722	-152,844	-0,063	0,003
-626,707	243,585	0,013	0,017
-625,692	-41,050	0,140	0,053
-624,678	-200,000	0,007	-0,033
-623,663	-4,945	-0,041	0,021
-622,649	327,045	-0,121	-0,171
-621,634	-59,696	0,118	0,037
-620,619	61,241	-0,056	-0,041
-619,605	-99,104	0,186	-0,034
-618,590	-22,515	0,083	-0,037
-617,576	319,409	0,016	0,023
-616,561	201,739	0,059	0,067
-615,546	-200,000	0,018	0,144
-614,532	-68,404	-0,061	-0,017
-613,517	275,235	0,065	-0,085
-612,503	8,760	-0,079	-0,043
-611,488	503,240	0,021	-0,036
-610,474	-200,000	-0,020	-0,119
-609,459	-43,108	0,036	0,013
-608,444	800,000	-0,030	0,087
-607,430	15,330	0,101	0,058
-606,415	-99,721	-0,145	-0,026
-605,401	-200,000	-0,002	0,013
-604,386	-26,377	0,241	0,104
-603,371	14,768	0,111	-0,064
-602,357	-127,608	-0,037	-0,004
-601,342	800,000	0,040	-0,085
-600,328	102,877	-0,093	-0,080
-599,313	195,830	0,031	-0,035
-598,298	11,346	-0,125	-0,070
-597,284	800,000	0,068	-0,140
-596,269	-95,918	0,164	-0,032
-595,255	-200,000	-0,009	0,065
-594,240	-200,000	0,022	-0,088
-593,225	-200,000	-0,021	0,106
-592,211	502,281	-0,040	-0,068
-591,196	-200,000	0,016	-0,126
-590,182	-184,448	0,034	0,000
-589,167	171,253	-0,115	-0,121
-588,152	51,805	0,033	0,023
-587,138	319,549	-0,110	-0,153
-586,123	67,419	0,039	0,029
-585,109	-200,000	-0,026	-0,103
-584,094	38,942	-0,043	-0,028
-583,079	-164,001	-0,041	0,001
-582,065	128,210	0,059	0,056
-581,050	205,754	0,030	0,034
-580,036	800,000	-0,044	0,094
-579,021	309,710	0,009	-0,013
-578,006	283,055	0,041	-0,054
-576,992	149,280	0,071	-0,071
-575,977	-96,007	0,048	0,009
-574,963	330,783	0,041	0,058
-573,948	132,581	-0,054	0,051
-572,934	-106,418	-0,088	-0,014
-571,919	-200,000	0,018	-0,147
-570,904	-66,678	-0,090	-0,026
-569,890	-200,000	0,005	0,070
-568,875	800,000	-0,014	-0,035
-567,861	58,219	0,100	-0,072
-566,846	800,000	0,055	0,115
-565,831	800,000	-0,011	-0,035
-564,817	800,000	-0,063	-0,183
-563,802	216,573	-0,038	-0,044
-562,788	-48,825	0,039	-0,014
-561,773	114,054	-0,096	0,086
-560,758	-200,000	-0,003	0,167
-559,744	-200,000	0,016	-0,073
-558,729	99,150	0,082	0,070
-557,715	800,000	-0,010	-0,023
-556,700	89,418	-0,095	0,077
-555,685	172,276	0,050	-0,053
-554,671	-21,517	0,137	0,061
-553,656	8,693	0,081	0,045
-552,642	360,594	-0,039	0,058
-551,627	-59,342	-0,022	0,007
-550,612	800,000	-0,023	0,056
-549,598	-200,000	-0,002	-0,034
-548,583	800,000	-0,021	-0,051
-547,569	-200,000	-0,007	0,148
-546,554	800,000	-0,030	-0,084
-545,539	-24,477	0,083	0,036
-544,525	95,103	0,111	0,092
-543,510	-150,807	-0,091	-0,005
-542,496	151,041	-0,083	-0,083
-541,481	73,831	-0,089	-0,069
-540,466	-200,000	-0,003	-0,052
-539,452	-200,000	0,005	0,161
-538,437	-200,000	0,013	0,119
-537,423	-85,930	-0,129	0,029
-536,408	192,750	0,098	-0,108
-535,393	-155,074	-0,095	-0,004
-534,379	-200,000	-0,015	-0,079
-533,364	-151,997	0,141	0,007
-532,350	-200,000	-0,002	0,009
-531,335	-139,284	0,248	0,019
-530,321	800,000	-0,021	0,060
-529,306	235,820	0,043	0,052
-528,291	796,934	-0,062	-0,126
-527,277	-39,421	-0,086	0,033
-526,262	308,257	0,014	-0,019
-525,248	621,076	0,071	-0,131
-524,233	800,000	-0,055	0,173
-523,218	-173,786	-0,058	-0,001
-522,204	-200,000	0,033	-0,108
-521,189	-139,524	-0,115	-0,009
-520,175	591,609	-0,034	-0,062
-519,160	-52,432	0,035	0,012
-518,145	800,000	-0,008	-0,024
-517,131	117,171	0,087	-0,078
-516,116	-200,000	0,017	-0,124
-515,102	-200,000	-0,037	-0,175
-514,087	-200,000	-0,022	-0,113
-513,072	310,550	0,049	-0,067
-512,058	18,067	0,103	-0,060
-511,043	-129,205	-0,104	0,011
-510,029	-81,766	0,132	-0,032
-509,014	563,667	0,047	-0,084
-507,999	41,032	-0,080	-0,053
-506,985	44,280	-0,012	-0,008
-505,970	800,000	0,026	-0,057
-504,956	58,679	-0,149	-0,107
-503,941	11,934	0,106	0,060
-502,926	800,000	0,040	0,095
-501,912	800,000	-0,023	-0,055
-500,897	38,414	0,074	-0,048
-499,883	259,963	-0,030	0,038
-498,868	296,472	-0,059	-0,079
-497,853	-112,453	0,027	0,004
-496,839	203,979	-0,015	-0,017
-495,824	118,260	-0,032	0,029
-494,810	-80,446	0,027	0,007
-493,795	-200,000	0,008	-0,119
-492,781	800,000	-0,016	-0,038
-491,766	110,030	0,043	0,037
-490,751	-76,955	-0,124	0,032
-489,737	-126,953	-0,163	0,017
-488,722	800,000	0,029	0,063
-487,708	-133,298	0,076	0,007
-486,693	524,235	-0,037	0,065
-485,678	-200,000	0,012	-0,104
-484,664	-200,000	-0,008	0,065
-483,649	800,000	-0,029	-0,078
-482,635	-75,593	-0,110	-0,028
-481,620	-185,964	0,130	0,001
-480,605	-200,000	-0,003	0,096
-479,591	232,088	-0,007	-0,009
-478,576	-123,933	0,108	-0,012
-477,562	-200,000	-0,022	-0,183
-476,547	385,835	-0,089	-0,135
-475,532	6,412	-0,026	0,014
-474,518	-59,927	0,049	0,015
-473,503	152,585	0,100	0,100
-472,489	-84,497	-0,082	0,019
-471,474	177,423	0,043	-0,046
-470,459	97,113	0,056	-0,047
-469,445	-25,514	0,184	-0,079
-468,430	-38,882	0,044	0,017
-467,416	18,859	-0,062	-0,036
-466,401	-61,363	0,081	-0,025
-465,386	710,980	-0,039	0,076
-464,372	117,086	0,043	0,039
-463,357	-200,000	-0,002	-0,059
-462,343	-5,021	-0,088	-0,044
-461,328	800,000	-0,027	0,062
-460,313	800,000	0,013	0,041
-459,299	-115,518	0,035	0,005
-458,284	110,758	0,080	-0,070
-457,270	-200,000	-0,010	-0,059
-456,255	718,547	0,020	0,038
-455,241	-63,639	-0,184	-0,055
-454,226	-200,000	0,006	0,035
-453,211	-200,000	-0,033	-0,121
-452,197	-200,000	0,040	0,143
-451,182	455,211	0,054	0,087
-450,168	67,331	-0,015	0,011
-449,153	428,732	-0,047	-0,074
-448,138	-39,643	0,127	-0,048
-447,124	403,097	0,020	-0,031
-446,109	-132,506	0,073	0,007
-445,095	-126,342	0,015	0,002
-444,080	-200,000	0,001	-0,161
-443,065	-52,065	0,040	0,013
-442,051	268,912	-0,070	0,091
-441,036	-125,078	-0,043	0,005
-440,022	-49,867	-0,137	-0,047
-439,007	-200,000	0,013	-0,051
-437,992	-200,000	-0,003	0,082
-436,978	-161,336	0,020	0,001
-435,963	78,666	0,038	-0,030
-434,949	152,606	0,106	-0,105
-433,934	-200,000	0,016	-0,072
-432,919	154,462	-0,085	-0,085
-431,905	800,000	0,021	0,065
-430,890	428,609	0,059	-0,094
-429,876	-12,494	0,052	0,025
-428,861	-200,000	-0,006	-0,062
-427,846	27,909	-0,035	-0,022
-426,832	-200,000	0,075	-0,242
-425,817	481,053	0,011	-0,018
-424,803	48,985	-0,057	0,039
-423,788	-1,473	0,030	-0,016
-422,773	-200,000	0,005	0,162
-421,759	-41,155	0,209	0,078
-420,744	-200,000	0,002	0,101
-419,730	532,328	0,039	0,067
-418,715	800,000	-0,050	-0,116
-417,701	-6,692	-0,100	-0,050
-416,686	800,000	0,059	-0,148
-415,671	-200,000	0,031	-0,221
-414,657	-14,840	-0,118	0,055
-413,642	-7,622	-0,082	0,041
-412,628	35,874	0,056	-0,036
-411,613	126,807	0,034	-0,032
-410,598	-37,780	-0,090	0,035
-409,584	-74,363	0,015	-0,004
-408,569	800,000	0,032	-0,068
-407,555	160,834	-0,026	0,027
-406,540	800,000	0,019	-0,049
-405,525	800,000	-0,052	-0,110
-404,511	76,778	-0,065	-0,050
-403,496	356,379	0,032	-0,046
-402,482	-119,908	0,118	0,015
-401,467	-8,256	0,111	0,054
-400,452	-120,960	0,053	0,006
-399,438	-200,000	-0,004	0,077
-398,423	-200,000	-0,007	-0,048
-397,409	-74,275	0,076	-0,020
-396,394	15,105	-0,124	-0,071
-395,379	-200,000	-0,022	0,096
-394,365	-182,291	0,071	0,001
-393,350	317,503	0,054	0,075
-392,336	-200,000	0,024	0,100
-391,321	318,386	-0,071	-0,098
-390,306	-200,000	-0,019	0,104
-389,292	-200,000	-0,002	-0,112
-388,277	-39,966	-0,096	-0,036
-387,263	800,000	0,030	-0,066
-386,248	-200,000	0,010	0,104
-385,233	-168,938	0,050	-0,001
-384,219	18,486	-0,037	0,021
-383,204	-49,233	-0,197	-0,068
-382,190	800,000	-0,026	-0,067
-381,175	500,378	-0,007	0,011
-380,160	-200,000	-0,021	0,147
-379,146	-185,321	-0,152	-0,002
-378,131	-114,466	0,119	-0,016
-377,117	-124,743	-0,084	0,009
-376,102	800,000	0,008	-0,024
-375,088	389,054	-0,082	0,125
-374,073	629,155	-0,034	-0,062
-373,058	-200,000	0,028	-0,276
-372,044	489,162	-0,093	0,156
-371,029	-23,019	0,062	-0,027
-370,015	33,668	0,051	-0,032
-369,000	-133,059	-0,146	-0,013
-367,985	800,000	0,027	0,057
-366,971	800,000	-0,020	0,044
-365,956	-33,778	0,214	-0,086
-364,942	288,933	-0,082	0,108
-363,927	-200,000	0,025	0,104
-362,912	-114,096	-0,024	-0,003
-361,898	-144,371	0,074	0,005
-360,883	-163,835	-0,044	0,001
-359,869	-200,000	0,001	-0,142
-358,854	-42,857	-0,075	-0,028
-357,839	-146,014	0,053	-0,003
-356,825	-28,396	0,052	0,022
-355,810	651,488	-0,073	0,137
-354,796	67,766	-0,101	-0,075
-353,781	283,155	-0,059	-0,077
-352,766	171,474	0,094	0,099
-351,752	41,947	-0,113	0,075
-350,737	-200,000	0,113	0,000
-349,723	67,970	0,082	0,061
-348,708	-200,000	0,007	0,164
-347,693	105,789	0,041	-0,036
-346,679	-158,210	-0,203	-0,008
-345,664	800,000	-0,038	-0,081
-344,650	257,195	0,151	-0,189
-343,635	-64,191	-0,036	0,011
-342,620	79,860	-0,065	0,051
-341,606	232,036	0,049	0,059
-340,591	-200,000	-0,003	-0,088
-339,577	157,859	-0,027	0,027
-338,562	134,782	-0,017	-0,016
-337,548	-1,099	-0,184	-0,095
-336,533	800,000	0,008	0,022
-335,518	-200,000	-0,010	0,136
-334,504	800,000	0,005	-0,015
-333,489	141,828	0,077	0,074
-332,475	-8,595	0,090	0,044
-331,460	-200,000	-0,000	-0,081
-330,445	4,757	-0,065	-0,035
-329,431	157,531	-0,058	0,059
-328,416	47,940	0,065	0,044
-327,402	104,907	0,063	0,054
-326,387	-164,636	-0,098	-0,003
-325,372	-47,082	-0,062	0,022
-324,358	154,277	0,084	-0,084
-323,343	-139,407	0,116	-0,009
-322,329	-200,000	0,021	0,198
-321,314	77,860	0,137	0,106
-320,299	-85,948	-0,040	0,009
-319,285	9,395	-0,134	-0,074
-318,270	721,815	0,074	-0,143
-317,256	-200,000	-0,005	-0,046
-316,241	46,151	-0,177	0,119
-315,226	158,497	0,040	-0,040
-314,212	150,419	0,070	-0,069
-313,197	800,000	0,027	0,079
-312,183	-110,387	0,061	0,009
-311,168	-200,000	-0,019	-0,084
-310,153	501,140	0,018	0,030
-309,139	195,716	0,092	-0,101
-308,124	800,000	0,047	0,148
-307,110	156,138	-0,029	-0,029
-306,095	-115,878	-0,085	-0,011
-305,080	-200,000	0,005	0,054
-304,066	147,215	-0,062	0,060
-303,051	644,456	0,080	0,149
-302,037	88,364	0,042	-0,034
-301,022	-169,926	-0,130	0,003
-300,008	-200,000	-0,009	-0,079
-298,993	-144,429	0,082	-0,005
-297,978	-200,000	0,017	-0,056
-296,964	800,000	-0,053	-0,123
-295,949	-63,432	0,054	-0,016
-294,935	106,389	-0,058	-0,050
-293,920	151,573	-0,083	-0,082
-292,905	800,000	0,036	0,089
-291,891	800,000	0,043	0,116
-290,876	27,259	0,060	0,037
-289,862	40,050	-0,080	0,052
-288,847	68,593	-0,106	0,079
-287,832	157,631	-0,091	-0,092
-286,818	631,877	-0,075	-0,138
-285,803	-74,627	0,141	-0,037
-284,789	800,000	0,058	0,172
-283,774	483,532	0,066	0,109
-282,759	-29,534	-0,091	-0,038
-281,745	175,094	0,049	-0,052
-280,730	800,000	0,079	-0,167
-279,716	-200,000	0,017	0,063
-278,701	-200,000	-0,011	-0,086
-277,686	-200,000	0,020	0,155
-276,672	-135,258	0,129	-0,011
-275,657	73,295	-0,058	-0,044
-274,643	794,239	-0,060	-0,120
-273,628	356,566	-0,043	-0,063
-272,613	-112,283	-0,093	0,013
-271,599	388,431	0,043	0,064
-270,584	181,899	0,096	0,102
-269,570	800,000	-0,072	0,164
-268,555	97,422	-0,133	0,111
-267,540	-105,179	-0,081	-0,013
-266,526	-9,606	-0,024	-0,011
-265,511	-140,617	-0,040	0,003
-264,497	-7,006	-0,085	0,042
-263,482	-51,527	0,120	-0,041
-262,467	-200,000	0,020	0,087
-261,453	-135,026	-0,089	-0,008
-260,438	800,000	-0,049	0,122
-259,424	-72,750	-0,130	-0,034
-258,409	302,006	-0,095	0,128
-257,395	302,081	0,035	-0,047
-256,380	683,727	0,034	0,065
-255,365	188,305	0,061	0,066
-254,351	-200,000	-0,038	0,164
-253,336	6,741	-0,081	0,044
-252,322	-33,654	0,062	0,025
-251,307	92,337	0,100	0,081
-250,292	200,439	0,068	0,076
-249,278	67,179	-0,050	0,037
-248,263	-142,159	-0,045	-0,003
-247,249	-146,929	-0,028	0,002
-246,234	363,838	-0,166	0,243
-245,219	-200,000	-0,042	0,159
-244,205	800,000	0,032	0,086
-243,190	-200,000	-0,010	-0,118
-242,176	-28,073	0,104	-0,043
-241,161	-200,000	-0,003	0,150
-240,146	209,906	-0,072	0,083
-239,132	168,861	0,122	-0,126
-238,117	-200,000	0,016	-0,055
-237,103	14,199	-0,060	-0,034
-236,088	241,348	0,020	0,024
-235,073	800,000	-0,050	0,128
-234,059	121,438	-0,062	0,056
-233,044	-113,662	0,103	-0,014
-232,030	800,000	-0,028	0,077
-231,015	800,000	0,012	0,025
-230,000	800,000	-0,010	0,027
-228,986	800,000	0,008	-0,021
-227,971	-137,926	0,036	-0,003
-226,957	256,985	-0,115	0,144
-225,942	732,091	-0,040	-0,078
-224,927	-113,369	0,054	-0,008
-223,913	-200,000	0,013	0,147
-222,898	18,460	-0,107	0,062
-221,884	-48,208	-0,099	-0,034
-220,869	1,616	-0,042	0,022
-219,855	-39,787	0,102	-0,038
-218,840	-108,901	0,036	0,006
-217,825	5,729	0,017	-0,009
-216,811	800,000	0,040	0,125
-215,796	-200,000	-0,027	0,128
-214,782	-200,000	-0,017	-0,072
-213,767	-40,057	-0,051	0,019
-212,752	-92,203	0,261	0,053
-211,738	172,800	0,126	0,131
-210,723	72,258	0,095	-0,072
-209,709	-41,267	0,084	-0,031
-208,694	201,976	-0,126	-0,141
-207,679	800,000	-0,032	0,094
-206,665	179,022	0,118	0,125
-205,650	213,788	0,090	0,103
-204,636	800,000	0,024	0,072
-203,621	12,751	-0,183	-0,102
-202,606	357,175	-0,008	0,012
-201,592	325,059	0,010	0,014
-200,577	-17,822	0,088	0,040
-199,563	-200,000	-0,001	0,054
-198,548	662,058	0,060	0,112
-197,533	-92,904	-0,124	-0,025
-196,519	-200,000	-0,014	-0,077
-195,504	45,614	-0,058	0,039
-194,490	-200,000	0,003	0,073
-193,475	447,534	-0,024	0,038
-192,460	-200,000	0,022	0,137
-191,446	-102,627	0,072	0,012
-190,431	-159,151	0,042	0,002
-189,417	-174,680	-0,034	-0,001
-188,402	-7,164	0,094	0,046
-187,387	26,484	-0,179	-0,108
-186,373	800,000	0,018	0,036
-185,358	-1,652	0,040	-0,021
-184,344	-200,000	-0,043	0,197
-183,329	146,856	-0,083	0,081
-182,315	-200,000	0,007	-0,104
-181,300	-52,538	0,092	0,030
-180,285	-200,000	-0,005	-0,099
-179,271	-200,000	0,000	-0,013
-178,256	-37,823	0,139	0,053
-177,242	563,434	0,036	-0,063
-176,227	617,915	0,036	0,066
-175,212	176,744	-0,160	0,169
-174,198	-57,774	-0,116	0,037
-173,183	63,816	-0,062	0,045
-172,169	-135,770	0,110	0,009
-171,154	-48,364	-0,084	0,029
-170,139	-200,000	0,029	0,127
-169,125	-11,689	-0,180	0,085
-168,110	166,254	-0,089	-0,091
-167,096	-200,000	-0,010	-0,114
-166,081	-37,630	0,069	0,026
-165,066	-200,000	0,022	0,071
-164,052	800,000	-0,006	0,013
-163,037	416,781	0,077	-0,120
-162,023	-71,546	0,166	0,044
-161,008	-74,761	-0,057	0,015
-159,993	-200,000	0,006	-0,039
-158,979	164,042	-0,094	0,096
-157,964	800,000	-0,058	-0,138
-156,950	-200,000	0,008	-0,116
-155,935	8,472	0,076	-0,041
-154,920	128,865	0,048	0,044
-153,906	800,000	0,009	0,025
-152,891	8,405	0,081	-0,044
-151,877	-200,000	0,017	-0,060
-150,862	-94,490	-0,160	-0,031
-149,847	-200,000	0,019	-0,118
-148,833	-83,327	-0,145	0,033
-147,818	-48,611	0,047	0,016
-146,804	-200,000	-0,020	0,066
-145,789	800,000	-0,041	0,088
-144,775	-89,939	-0,069	0,014
-143,760	164,045	-0,041	0,042
-142,745	-173,170	-0,116	-0,003
-141,731	464,740	0,074	-0,119
-140,716	-49,995	-0,073	-0,025
-139,702	-200,000	-0,027	-0,119
-138,687	-87,863	0,111	0,024
-137,672	283,130	0,088	0,114
-136,658	144,500	-0,062	-0,060
-135,643	-151,633	-0,021	-0,001
-134,629	76,832	-0,036	-0,028
-133,614	306,815	0,133	0,179
-132,599	249,456	-0,085	0,104
-131,585	162,093	-0,014	-0,014
-130,570	721,148	-0,099	0,192
-129,556	-200,000	-0,032	-0,159
-128,541	-79,757	-0,074	-0,018
-127,526	140,670	0,025	-0,024
-126,512	-36,808	-0,069	-0,027
-125,497	800,000	0,024	-0,055
-124,483	-55,487	0,094	0,030
-123,468	222,781	0,081	-0,094
-122,453	800,000	0,031	-0,068
-121,439	-62,034	0,063	-0,019
-120,424	141,901	0,105	0,101
-119,410	135,076	-0,018	0,017
-118,395	15,853	-0,047	-0,027
-117,380	-25,829	-0,090	-0,038
-116,366	336,326	-0,047	0,066
-115,351	-37,932	0,110	-0,042
-114,337	155,118	-0,048	-0,048
-113,322	-200,000	0,020	0,112
-112,307	131,425	-0,043	0,040
-111,293	800,000	0,026	-0,071
-110,278	34,931	0,137	0,086
-109,264	-200,000	0,007	0,032
-108,249	210,507	0,031	-0,035
-107,234	71,517	-0,107	-0,080
-106,220	800,000	0,039	0,108
-105,205	-98,067	0,030	0,005
-104,191	483,003	-0,025	0,042
-103,176	137,673	0,054	0,051
-102,162	800,000	-0,065	-0,149
-101,147	-139,276	-0,207	-0,016
-100,132	358,055	0,114	0,165
-99,118	-200,000	0,028	-0,126
-98,103	253,138	-0,062	0,077
-97,089	448,587	0,089	0,142
-96,074	376,114	0,085	0,125
-95,059	-200,000	-0,038	0,135
-94,045	-200,000	-0,020	-0,102
-93,030	-128,019	0,191	0,020
-92,016	-124,838	-0,167	-0,018
-91,001	233,893	-0,035	0,041
-89,986	-200,000	0,017	0,071
-88,972	-200,000	0,016	0,050
-87,957	800,000	0,048	0,097
-86,943	-200,000	0,016	0,078
-85,928	800,000	-0,023	0,066
-84,913	-200,000	-0,007	-0,112
-83,899	-4,086	0,141	0,070
-82,884	-137,776	0,188	-0,015
-81,870	800,000	0,063	0,169
-80,855	-200,000	-0,014	-0,050
-79,840	-149,040	-0,102	0,006
-78,826	-200,000	0,050	-0,160
-77,811	-200,000	0,004	-0,063
-76,797	11,818	-0,072	-0,040
-75,782	178,056	0,083	0,088
-74,767	-200,000	0,020	0,100
-73,753	81,437	0,035	0,028
-72,738	-200,000	0,010	0,040
-71,724	800,000	-0,067	-0,209
-70,709	-200,000	0,021	-0,129
-69,694	197,744	0,043	-0,048
-68,680	6,764	0,091	0,049
-67,665	-98,251	0,158	0,029
-66,651	-48,703	0,030	-0,010
-65,636	-56,029	-0,038	0,012
-64,622	231,207	0,035	-0,041
-63,607	-60,747	0,187	-0,057
-62,592	470,884	-0,038	-0,062
-61,578	75,554	-0,071	-0,054
-60,563	-200,000	-0,013	0,057
-59,549	-200,000	0,038	0,209
-58,534	-6,783	-1,878	-0,916
-57,519	800,000	-0,302	-0,879
-56,505	-200,000	-1,060	-4,848
-55,490	-39,691	0,712	0,267
-54,476	800,000	5,457	12,427
-53,461	-200,000	16,851	273,714
-52,446	800,000	714,994	2196,915
-51,432	536,940	1628,177	2793,739
-50,417	114,192	1623,766	1422,029
-49,403	76,743	1284,780	980,147
-48,388	33,998	1032,106	645,567
-47,373	20,496	994,778	577,391
-46,359	19,320	982,991	566,642
-45,344	17,263	978,705	557,369
-44,330	17,442	977,450	557,220
-43,315	17,084	975,731	555,041
-42,300	16,969	974,778	554,099
-41,286	16,958	973,710	553,435
-40,271	16,922	972,947	552,861
-39,257	16,987	971,932	552,475
-38,242	17,016	970,983	552,010
-37,227	16,950	970,303	551,384
-36,213	16,945	969,465	550,870
-35,198	16,992	968,495	550,450
-34,184	16,970	967,819	549,972
-33,169	16,934	966,777	549,240
-32,154	17,025	965,970	549,058
-31,140	16,993	964,968	548,362
-30,125	16,955	964,311	547,844
-29,111	17,025	963,319	547,486
-28,096	16,993	962,923	547,133
-27,082	17,007	962,029	546,651
-26,067	16,950	961,346	546,055
-25,052	17,038	960,499	545,839
-24,038	16,952	959,935	545,219
-23,023	16,985	959,147	544,855
-22,009	16,992	958,610	544,551
-20,994	17,016	957,971	544,246
-19,979	16,972	957,155	543,618
-18,965	16,971	956,528	543,237
-17,950	16,966	956,165	542,994
-16,936	16,921	955,283	542,325
-15,921	16,885	954,764	541,893
-14,906	16,825	953,849	541,160
-13,892	16,834	953,308	540,860
-12,877	16,848	952,561	540,460
-11,863	16,790	951,924	539,890
-10,848	16,884	951,339	539,839
-9,833	16,918	951,025	539,748
-8,819	16,875	950,330	539,195
-7,804	16,856	949,576	538,684
-6,790	16,784	949,229	538,235
-5,775	16,863	948,580	538,098
-4,760	16,897	947,951	537,830
-3,746	16,903	947,129	537,362
-2,731	16,745	946,491	536,473
-1,717	16,668	945,897	535,870
-0,702	16,703	945,093	535,505
0,313	16,492	944,571	535,346
1,327	19,860	942,859	545,021
2,342	29,261	797,875	486,254
3,356	26,699	449,193	269,896
4,371	-2,875	295,974	148,205
5,386	-7,103	277,374	134,863
6,400	-8,222	271,542	130,973
7,415	-8,543	269,175	129,524
8,429	-8,771	268,016	128,744
9,444	-8,667	266,991	128,336
10,459	-8,663	266,226	127,960
11,473	-9,054	265,694	127,337
12,488	-9,215	265,256	126,969
13,502	-9,403	264,720	126,531
14,517	-9,226	264,080	126,374
15,531	-9,403	263,676	126,009
16,546	-9,534	263,346	125,722
17,561	-9,553	262,839	125,452
18,575	-9,410	262,631	125,470
19,590	-9,432	262,173	125,220
20,604	-9,476	261,827	125,004
21,619	-9,614	261,619	124,770
22,634	-9,721	261,285	124,504
23,648	-9,659	261,016	124,420
24,663	-9,703	260,572	124,158
25,677	-9,511	260,256	124,167
26,692	-9,671	260,121	123,949
27,707	-9,536	259,918	123,962
28,721	-9,645	259,673	123,737
29,736	-9,625	259,292	123,562
30,750	-9,812	259,074	123,281
31,765	-9,720	258,869	123,254
32,780	-9,780	258,687	123,104
33,794	-9,768	258,425	122,978
34,809	-9,648	258,104	122,921
35,823	-9,783	257,833	122,662
36,838	-9,647	257,660	122,688
37,853	-9,807	257,387	122,406
38,867	-9,973	257,208	122,164
39,882	-9,695	256,790	122,199
40,896	-9,920	256,564	121,883
41,911	-9,818	256,504	121,933
42,926	-9,807	256,326	121,847
43,940	-9,952	256,042	121,575
44,955	-10,000	255,719	121,369
45,969	-10,066	255,510	121,201
46,984	-10,371	255,379	120,861
47,999	-10,425	254,899	120,576
49,013	-10,440	254,741	120,478
50,028	-10,571	254,379	120,182
51,042	-10,807	254,185	119,874
52,057	-10,551	254,051	120,023
53,071	-10,623	253,744	119,804
54,086	-10,594	253,673	119,786
55,101	-10,662	253,418	119,596
56,115	-10,135	253,299	119,985
57,130	-9,663	253,387	120,424
58,144	-9,215	253,204	120,715
59,159	-9,082	252,972	120,708
60,174	-9,429	252,745	120,290
61,188	-9,458	252,422	120,100
62,203	-9,713	252,424	119,870
63,217	-9,514	252,085	119,870
64,232	-9,576	251,855	119,697
65,247	-9,310	251,745	119,862
66,261	-9,513	251,389	119,508
67,276	-10,001	251,216	118,997
68,290	-10,027	250,812	118,772
69,305	-10,336	250,638	118,415
70,320	-10,080	250,472	118,545
71,334	-9,795	250,308	118,700
72,349	-9,479	250,162	118,890
73,363	-9,423	250,162	118,927
74,378	-9,356	249,907	118,853
75,393	-9,504	249,645	118,591
76,407	-9,717	249,468	118,315
77,422	-9,770	249,260	118,161
78,436	-9,459	249,013	118,298
79,451	-9,474	248,728	118,139
80,466	-9,704	248,504	117,827
81,480	-10,047	248,310	117,434
82,495	-10,042	248,138	117,346
83,509	-9,976	247,912	117,285
84,524	-9,956	247,850	117,262
85,539	-10,271	247,463	116,803
86,553	-10,257	247,309	116,732
87,568	-10,114	247,112	116,749
88,582	-9,862	246,860	116,831
89,597	-10,079	246,682	116,555
90,611	-9,937	246,636	116,641
91,626	-9,754	246,502	116,722
92,641	-9,605	246,166	116,676
93,655	-9,758	246,095	116,505
94,670	-10,054	246,015	116,208
95,684	-9,827	245,650	116,215
96,699	-9,966	245,586	116,058
97,714	-9,998	245,333	115,902
98,728	-10,052	245,035	115,705
99,743	-10,011	244,763	115,601
100,757	-10,352	244,750	115,300
101,772	-10,008	244,452	115,436
102,787	-9,898	244,077	115,340
103,801	-10,023	244,132	115,252
104,816	-9,863	243,993	115,309
105,830	-9,694	243,864	115,378
106,845	-9,493	243,618	115,417
107,860	-9,641	243,383	115,173
108,874	-9,739	243,323	115,053
109,889	-9,793	243,190	114,936
110,903	-9,885	242,991	114,756
111,918	-9,844	242,783	114,681
112,933	-9,707	242,671	114,730
113,947	-9,683	242,422	114,622
114,962	-9,477	242,148	114,652
115,976	-9,641	241,990	114,432
116,991	-9,789	241,960	114,287
118,006	-9,857	241,765	114,128
119,020	-9,541	241,650	114,323
120,035	-9,619	241,401	114,131
121,049	-9,598	241,351	114,114
122,064	-9,739	241,184	113,910
123,079	-9,668	240,776	113,765
124,093	-9,823	240,743	113,613
125,108	-9,833	240,336	113,402
126,122	-10,188	240,031	112,959
127,137	-10,330	240,056	112,844
128,151	-10,271	239,814	112,769
129,166	-9,935	239,658	112,959
130,181	-10,063	239,435	112,739
131,195	-10,181	239,335	112,587
132,210	-10,126	239,112	112,517
133,224	-9,653	239,035	112,854
134,239	-9,713	239,014	112,786
135,254	-9,547	238,650	112,738
136,268	-9,807	238,540	112,465
137,283	-9,995	238,199	112,143
138,297	-10,259	237,873	111,767
139,312	-10,091	237,672	111,797
140,327	-9,801	237,788	112,076
141,341	-9,136	237,666	112,545
142,356	-9,251	237,559	112,391
143,370	-9,185	237,330	112,325
144,385	-9,227	237,373	112,302
145,400	-9,137	237,039	112,207
146,414	-9,189	236,922	112,099
147,429	-9,470	236,785	111,799
148,443	-9,314	236,524	111,791
149,458	-9,198	236,300	111,768
150,473	-9,255	236,248	111,688
151,487	-9,463	236,166	111,473
152,502	-9,243	235,795	111,463
153,516	-9,375	235,642	111,276
154,531	-9,415	235,668	111,246
155,546	-9,525	235,366	111,006
156,560	-9,464	235,170	110,952
157,575	-9,433	234,969	110,872
158,589	-9,502	234,814	110,734
159,604	-9,196	234,781	110,952
160,619	-9,129	234,461	110,844
161,633	-9,138	234,337	110,768
162,648	-9,065	234,271	110,785
163,662	-9,308	234,118	110,510
164,677	-9,347	233,921	110,377
165,692	-9,188	233,692	110,384
166,706	-9,166	233,758	110,424
167,721	-9,025	233,397	110,355
168,735	-9,043	233,379	110,321
169,750	-9,014	233,078	110,193
170,764	-9,219	233,091	110,027
171,779	-9,215	232,906	109,933
172,794	-9,309	232,777	109,789
173,808	-9,336	232,469	109,612
174,823	-9,724	232,002	109,078
175,837	-10,081	231,841	108,712
176,852	-9,419	231,900	109,250
177,867	-9,090	231,943	109,518
178,881	-9,058	231,827	109,478
179,896	-9,212	231,651	109,265
180,910	-8,978	231,385	109,313
181,925	-9,126	231,267	109,132
182,940	-9,242	231,332	109,062
183,954	-8,825	231,074	109,256
184,969	-8,976	230,953	109,071
185,983	-9,034	230,850	108,967
186,998	-9,094	230,659	108,821
188,013	-9,052	230,470	108,755
189,027	-8,906	230,212	108,737
190,042	-8,852	230,124	108,727
191,056	-8,956	229,971	108,565
192,071	-9,034	229,876	108,450
193,086	-8,755	229,618	108,535
194,100	-8,512	229,579	108,695
195,115	-8,517	229,416	108,604
196,129	-7,956	229,446	109,043
197,144	-4,098	230,900	112,726
198,159	0,072	231,981	116,497
199,173	3,018	232,827	119,212
200,188	3,665	232,741	119,661
201,202	3,700	232,602	119,606
202,217	3,645	232,515	119,508
203,232	3,836	232,376	119,575
204,246	4,153	232,256	119,749
205,261	3,963	232,020	119,469
206,275	4,154	232,127	119,662
207,290	4,039	231,977	119,485
208,304	4,056	231,750	119,370
209,319	3,964	231,581	119,201
210,334	4,178	231,274	119,198
211,348	3,902	231,042	118,855
212,363	3,470	230,881	118,428
213,377	3,290	230,591	118,130
214,392	3,126	230,445	117,917
215,407	3,166	230,447	117,939
216,421	3,508	230,317	118,126
217,436	3,343	230,121	117,888
218,450	2,952	229,895	117,460
219,465	3,096	229,679	117,450
220,480	2,971	229,504	117,255
221,494	3,096	229,479	117,327
222,509	3,405	229,337	117,481
223,523	3,309	229,141	117,296
224,538	3,233	228,987	117,149
225,553	3,297	228,754	117,068
226,567	3,468	228,775	117,199
227,582	3,641	228,578	117,221
228,596	3,609	228,525	117,159
229,611	3,573	228,097	116,901
230,626	3,172	228,038	116,555
231,640	3,200	227,947	116,519
232,655	3,545	227,855	116,724
233,669	3,990	227,829	117,039
234,684	3,904	227,757	116,926
235,699	3,750	227,520	116,677
236,713	3,523	227,334	116,399
237,728	3,265	227,042	116,043
238,742	3,426	226,842	116,053
239,757	3,410	226,701	115,958
240,772	3,197	226,616	115,743
241,786	3,245	226,414	115,666
242,801	3,455	226,324	115,769
243,815	3,605	226,329	115,874
244,830	3,890	226,109	115,966
245,844	3,388	225,798	115,418
246,859	3,334	225,797	115,367
247,874	3,404	225,607	115,312
248,888	3,654	225,704	115,540
249,903	3,182	225,516	115,077
250,917	3,309	225,150	114,977
251,932	3,300	225,012	114,889
252,947	3,268	224,907	114,801
253,961	3,113	224,708	114,572
254,976	3,029	224,585	114,437
255,990	3,464	224,545	114,732
257,005	3,546	224,513	114,767
258,020	3,344	224,388	114,542
259,034	3,844	224,157	114,787
260,049	3,737	224,045	114,640
261,063	3,353	223,936	114,287
262,078	3,534	223,780	114,332
263,093	3,659	223,642	114,345
264,107	3,541	223,383	114,115
265,122	3,772	223,222	114,194
266,136	3,858	223,188	114,230
267,151	3,873	222,993	114,131
268,166	3,347	222,826	113,645
269,180	3,008	222,479	113,206
270,195	3,145	222,380	113,248
271,209	3,133	222,273	113,174
272,224	3,291	222,063	113,174
273,239	3,375	222,055	113,221
274,253	3,250	221,943	113,062
275,268	3,337	221,642	112,963
276,282	2,936	221,574	112,623
277,297	2,908	221,379	112,493
278,312	3,350	221,235	112,735
279,326	3,354	221,125	112,672
280,341	3,396	221,128	112,694
281,355	3,420	220,881	112,576
282,370	3,200	220,741	112,333
283,384	3,036	220,579	112,121
284,399	3,063	220,327	112,002
285,414	2,880	220,362	111,876
286,428	3,351	220,207	112,132
287,443	3,450	220,177	112,179
288,457	3,404	219,995	112,042
289,472	3,271	219,710	111,791
290,487	2,901	219,552	111,430
291,501	2,909	219,246	111,271
292,516	2,978	219,194	111,285
293,530	2,968	219,144	111,241
294,545	2,960	218,999	111,152
295,560	3,314	218,791	111,294
296,574	3,507	218,791	111,425
297,589	3,442	218,561	111,251
298,603	3,281	218,506	111,096
299,618	3,369	218,460	111,126
300,633	3,473	218,267	111,094
301,647	3,576	218,240	111,145
302,662	3,567	218,036	111,025
303,676	3,353	217,904	110,792
304,691	3,687	217,595	110,867
305,706	3,663	217,571	110,827
306,720	3,558	217,337	110,623
307,735	3,381	217,154	110,392
308,749	3,152	217,128	110,204
309,764	3,412	217,028	110,330
310,779	3,569	216,982	110,410
311,793	3,425	216,871	110,240
312,808	3,432	216,689	110,143
313,822	3,500	216,398	110,034
314,837	3,365	216,221	109,837
315,852	3,106	216,130	109,596
316,866	3,095	216,044	109,535
317,881	3,666	215,864	109,842
318,895	3,104	215,860	109,428
319,910	3,284	215,485	109,357
320,925	3,270	215,468	109,328
321,939	3,348	215,291	109,285
322,954	3,295	215,178	109,180
323,968	3,365	215,139	109,201
324,983	3,466	214,992	109,188
325,997	3,544	214,773	109,122
327,012	3,370	214,626	108,914
328,027	3,206	214,506	108,727
329,041	3,705	214,553	109,095
330,056	3,681	214,394	108,988
331,070	3,175	214,310	108,576
332,085	3,013	213,907	108,248
333,100	3,109	213,831	108,268
334,114	3,327	213,757	108,375
335,129	3,391	213,498	108,280
336,143	3,393	213,374	108,208
337,158	3,260	213,276	108,055
338,173	3,624	213,133	108,230
339,187	3,247	212,902	107,837
340,202	3,026	212,679	107,559
341,216	2,841	212,748	107,454
342,231	3,069	212,607	107,533
343,246	2,831	212,433	107,269
344,260	3,288	212,381	107,554
345,275	3,357	212,194	107,498
346,289	3,258	212,101	107,372
347,304	3,498	211,916	107,436
348,319	3,308	211,938	107,305
349,333	3,209	211,679	107,095
350,348	3,248	211,582	107,064
351,362	3,298	211,544	107,070
352,377	3,259	211,525	107,024
353,392	3,367	211,108	106,878
354,406	3,292	211,078	106,802
355,421	195,319	1341,835	1423,166
356,435	155,998	1479,608	1423,189
