DTS Sentinel unit serial number:	SN410029Multiplexer serial number:	ORYXHardware model number:	OX2-SRSoftware version number:	ORYX F/W v4,00 Oryx Data Collector v3.7.2.0data status	okinstallation	B6 Nyhavnadifferential loss correction	single-endedforward channel	channel 2reverse channel	N/Adate	2023/12/08time	17:45:08forward acquisition time	300,00reverse acquisition time	0,00gamma	499,1914k internal	0,3159k external	0,3159temperature offset calibration	1,0000default loss term (dB/km)	0,3820temperature slope calibration	1,0000multiplexer offset coefficient	1,0000multiplexer slope coefficient	1,0000fibre end	0,00T internal ref (°C)	15,18T ext. ref 1 (°C)	-1,26T ext. ref 2 (°C)	-1,26length (m)	temperature (°C)	Stokes	anti-Stokes-744,400	-20,987	0,119	-0,053
-743,385	-40,566	-0,246	-0,093
-742,371	-28,834	0,169	0,071
-741,356	-114,132	-0,214	0,030
-740,342	-140,147	0,080	-0,006
-739,327	-56,782	-0,326	0,106
-738,312	-200,000	0,031	-0,111
-737,298	-143,191	-0,339	0,024
-736,283	65,711	0,236	0,176
-735,269	-131,898	-0,315	0,030
-734,254	-12,507	0,141	0,068
-733,239	-45,154	-0,530	-0,193
-732,225	-43,879	0,275	0,101
-731,210	-166,496	-0,125	0,004
-730,196	225,173	-0,063	-0,075
-729,181	-39,234	-0,119	-0,046
-728,167	767,852	-0,022	0,044
-727,152	90,330	-0,045	-0,037
-726,137	-82,394	-0,072	-0,017
-725,123	-36,120	0,037	0,014
-724,108	284,158	-0,081	-0,108
-723,094	167,678	-0,159	-0,167
-722,079	800,000	0,053	-0,151
-721,064	260,716	-0,066	-0,085
-720,050	534,737	-0,096	-0,168
-719,035	-54,412	-0,106	0,035
-718,021	138,024	-0,070	-0,067
-717,006	158,899	-0,116	-0,119
-715,991	-7,552	-0,204	0,101
-714,977	-102,216	-0,060	-0,010
-713,962	-200,000	0,015	-0,191
-712,948	-200,000	-0,015	-0,112
-711,933	800,000	0,019	-0,053
-710,918	84,477	-0,104	-0,084
-709,904	-172,815	-0,040	0,001
-708,889	583,877	-0,086	-0,156
-707,875	-200,000	-0,007	-0,036
-706,860	-47,237	-0,033	-0,012
-705,845	800,000	-0,021	0,059
-704,831	-200,000	-0,018	0,065
-703,816	-43,298	-0,070	0,026
-702,802	253,378	0,049	0,062
-701,787	39,236	-0,105	0,069
-700,772	-112,042	-0,119	0,017
-699,758	326,993	0,049	-0,070
-698,743	-200,000	0,066	-0,218
-697,729	-125,962	0,078	0,009
-696,714	44,178	-0,077	-0,052
-695,699	800,000	-0,026	0,065
-694,685	-200,000	-0,007	-0,069
-693,670	-200,000	-0,017	-0,118
-692,656	148,346	0,078	-0,077
-691,641	-14,875	0,168	0,079
-690,627	502,544	-0,045	0,077
-689,612	700,864	-0,028	0,055
-688,597	322,487	-0,075	-0,105
-687,583	162,888	-0,093	-0,096
-686,568	800,000	-0,042	-0,102
-685,554	-89,790	-0,217	0,046
-684,539	119,232	-0,052	0,047
-683,524	117,918	-0,122	0,111
-682,510	-200,000	0,001	0,052
-681,495	-200,000	-0,013	-0,044
-680,481	10,193	-0,185	0,103
-679,466	479,479	-0,038	0,064
-678,451	501,438	-0,036	-0,062
-677,437	527,108	0,040	0,069
-676,422	242,163	0,057	0,070
-675,408	-49,144	-0,070	0,024
-674,393	77,067	0,088	0,068
-673,378	-200,000	-0,010	-0,076
-672,364	71,391	-0,100	-0,076
-671,349	358,390	0,031	-0,046
-670,335	76,504	-0,104	0,081
-669,320	237,012	-0,032	0,039
-668,305	67,551	0,120	0,090
-667,291	-11,159	0,072	-0,035
-666,276	-17,025	-0,072	0,033
-665,262	36,045	-0,042	0,027
-664,247	-200,000	-0,010	0,077
-663,232	-47,272	0,002	0,001
-662,218	-95,373	0,178	0,035
-661,203	-2,841	0,049	0,025
-660,189	-200,000	0,012	0,079
-659,174	-200,000	-0,026	-0,174
-658,159	319,530	0,021	0,029
-657,145	24,168	-0,006	-0,004
-656,130	436,456	-0,059	-0,095
-655,116	-200,000	-0,012	0,067
-654,101	-200,000	-0,006	0,089
-653,086	-65,051	-0,131	0,039
-652,072	800,000	0,040	-0,101
-651,057	-114,339	-0,102	-0,014
-650,043	-88,414	-0,208	-0,045
-649,028	-81,497	-0,040	-0,010
-648,014	800,000	0,019	-0,050
-646,999	408,184	0,070	-0,110
-645,984	800,000	0,065	0,154
-644,970	701,497	0,045	0,087
-643,955	-34,677	0,004	0,002
-642,941	117,726	0,055	0,050
-641,926	39,683	-0,076	0,050
-640,911	800,000	0,071	0,189
-639,897	-79,013	0,101	0,025
-638,882	-200,000	-0,026	0,109
-637,868	-53,823	0,036	0,012
-636,853	496,991	-0,114	-0,194
-635,838	-116,005	-0,161	-0,022
-634,824	26,471	0,104	-0,064
-633,809	800,000	-0,006	0,013
-632,795	800,000	-0,057	0,140
-631,780	-200,000	0,014	0,127
-630,765	-75,808	-0,209	-0,054
-629,751	-200,000	0,011	-0,075
-628,736	-200,000	-0,026	0,089
-627,722	-78,668	0,120	-0,030
-626,707	709,552	-0,028	0,055
-625,692	301,961	-0,123	0,167
-624,678	510,165	-0,032	0,055
-623,663	63,418	0,143	-0,105
-622,649	-200,000	-0,001	-0,047
-621,634	800,000	-0,010	-0,030
-620,619	145,934	-0,058	0,057
-619,605	400,818	0,046	0,071
-618,590	-200,000	-0,013	0,057
-617,576	-85,451	-0,112	0,025
-616,561	-200,000	0,004	0,027
-615,546	380,477	0,058	-0,088
-614,532	-0,994	-0,158	-0,082
-613,517	298,584	0,080	-0,108
-612,503	800,000	0,048	-0,136
-611,488	-200,000	-0,009	-0,031
-610,474	560,766	-0,051	0,092
-609,459	-200,000	-0,038	0,212
-608,444	318,631	-0,075	-0,104
-607,430	800,000	-0,027	-0,082
-606,415	800,000	-0,059	-0,148
-605,401	36,887	0,097	-0,063
-604,386	800,000	-0,066	0,162
-603,371	-200,000	-0,043	0,171
-602,357	-200,000	0,036	0,156
-601,342	800,000	-0,031	-0,079
-600,328	-200,000	-0,018	0,096
-599,313	-200,000	0,029	0,106
-598,298	-127,000	-0,091	-0,010
-597,284	155,220	0,054	0,054
-596,269	-105,453	0,068	0,011
-595,255	-48,777	0,122	0,043
-594,240	-120,509	-0,024	0,003
-593,225	293,448	0,019	-0,025
-592,211	297,942	-0,067	-0,090
-591,196	-147,689	0,066	0,004
-590,182	-15,363	-0,036	-0,017
-589,167	604,007	-0,029	0,052
-588,152	-19,820	0,099	0,045
-587,138	-200,000	-0,003	-0,102
-586,123	18,764	-0,081	-0,047
-585,109	304,079	-0,046	0,062
-584,094	93,167	-0,097	0,080
-583,079	-111,886	-0,024	-0,004
-582,065	800,000	-0,017	0,051
-581,050	288,482	-0,054	0,071
-580,036	33,908	-0,055	0,035
-579,021	-200,000	-0,015	-0,149
-578,006	99,827	-0,149	-0,127
-576,992	-88,678	0,092	-0,020
-575,977	800,000	-0,009	-0,025
-574,963	-200,000	-0,035	0,140
-573,948	-174,669	0,125	-0,003
-572,934	-7,180	-0,119	-0,059
-571,919	-125,879	-0,105	-0,011
-570,904	-65,402	0,039	0,011
-569,890	800,000	-0,012	0,025
-568,875	196,777	-0,050	0,056
-567,861	152,539	0,062	0,062
-566,846	-200,000	-0,029	0,137
-565,831	-104,105	0,023	-0,004
-564,817	326,600	-0,011	-0,015
-563,802	106,171	0,088	-0,076
-562,788	41,214	-0,028	-0,018
-561,773	-117,851	0,159	-0,021
-560,758	134,628	-0,023	0,021
-559,744	-132,148	-0,086	0,008
-558,729	102,117	-0,106	0,090
-557,715	-148,050	0,169	0,010
-556,700	28,306	-0,063	-0,039
-555,685	76,825	-0,047	0,036
-554,671	71,798	0,069	-0,052
-553,656	68,073	0,172	-0,128
-552,642	4,243	-0,056	-0,030
-551,627	621,994	0,020	0,037
-550,612	-71,306	-0,158	-0,043
-549,598	-51,523	0,142	-0,048
-548,583	-192,824	0,017	-0,000
-547,569	-200,000	-0,011	0,096
-546,554	-130,680	0,006	0,001
-545,539	800,000	-0,027	0,083
-544,525	10,332	0,086	-0,048
-543,510	97,197	0,065	-0,055
-542,496	63,706	0,052	-0,038
-541,481	-52,962	-0,132	0,044
-540,466	-200,000	-0,012	-0,107
-539,452	536,375	0,067	0,116
-538,437	800,000	-0,077	0,166
-537,423	-136,040	0,044	0,004
-536,408	-56,864	-0,069	0,022
-535,393	-200,000	0,005	0,094
-534,379	170,173	-0,038	-0,040
-533,364	-109,046	-0,073	-0,011
-532,350	240,997	0,085	0,104
-531,335	-200,000	-0,004	-0,038
-530,321	-143,019	-0,033	-0,002
-529,306	-32,043	0,079	-0,032
-528,291	-111,961	0,044	-0,006
-527,277	104,227	-0,102	-0,087
-526,262	-200,000	0,031	0,141
-525,248	-200,000	-0,002	-0,041
-524,233	800,000	0,032	-0,074
-523,218	-42,414	0,049	0,018
-522,204	-200,000	-0,019	0,188
-521,189	-80,495	-0,135	0,033
-520,175	-200,000	0,000	0,034
-519,160	306,967	0,088	-0,121
-518,145	-119,018	-0,077	-0,010
-517,131	134,423	-0,051	0,048
-516,116	-200,000	0,021	-0,123
-515,102	-75,416	0,076	-0,020
-514,087	524,490	0,031	-0,054
-513,072	800,000	-0,056	-0,156
-512,058	-200,000	-0,005	-0,142
-511,043	34,849	-0,072	-0,046
-510,029	-117,512	-0,055	-0,007
-509,014	26,256	-0,133	-0,081
-507,999	-200,000	0,005	0,093
-506,985	34,001	0,105	-0,067
-505,970	-10,969	-0,105	-0,051
-504,956	-111,451	0,051	-0,008
-503,941	49,825	-0,091	-0,063
-502,926	-77,191	0,106	-0,027
-501,912	132,456	-0,034	0,032
-500,897	-200,000	-0,016	0,077
-499,883	-123,236	0,068	-0,008
-498,868	96,676	-0,099	-0,083
-497,853	361,403	0,019	-0,029
-496,839	-156,464	0,069	0,003
-495,824	-36,865	0,030	-0,012
-494,810	76,378	0,057	-0,044
-493,795	88,463	-0,053	0,043
-492,781	54,327	0,049	0,034
-491,766	-172,818	-0,150	0,003
-490,751	800,000	0,079	0,176
-489,737	-200,000	0,005	0,017
-488,722	-47,394	-0,114	0,040
-487,708	-73,396	0,063	0,017
-486,693	253,337	0,067	-0,084
-485,678	-200,000	0,006	-0,046
-484,664	-200,000	0,011	0,137
-483,649	71,926	-0,078	-0,059
-482,635	-139,426	-0,067	-0,005
-481,620	-76,998	-0,044	0,011
-480,605	457,679	-0,038	0,062
-479,591	9,694	-0,047	0,026
-478,576	33,795	0,086	-0,054
-477,562	-113,790	-0,118	-0,017
-476,547	800,000	-0,048	0,129
-475,532	-200,000	-0,007	0,042
-474,518	92,233	-0,036	0,030
-473,503	-200,000	-0,013	0,066
-472,489	228,354	0,017	0,020
-471,474	800,000	0,040	0,081
-470,459	-200,000	0,023	-0,212
-469,445	-69,813	-0,136	-0,038
-468,430	-121,671	-0,014	-0,002
-467,416	-154,105	0,113	0,006
-466,401	523,915	0,051	0,088
-465,386	707,072	-0,026	-0,051
-464,372	-150,730	0,060	0,003
-463,357	63,397	-0,011	0,008
-462,343	-200,000	0,026	-0,137
-461,328	-180,734	0,074	0,001
-460,313	-77,829	0,135	-0,034
-459,299	-109,723	0,149	0,023
-458,284	800,000	-0,060	0,124
-457,270	2,708	-0,114	0,060
-456,255	-200,000	0,023	-0,083
-455,241	-200,000	0,032	0,119
-454,226	71,735	0,044	-0,033
-453,211	-200,000	0,012	-0,142
-452,197	-81,231	0,117	-0,028
-451,182	108,077	0,067	-0,058
-450,168	-200,000	0,010	0,045
-449,153	-94,707	0,103	0,020
-448,138	-128,764	-0,142	0,014
-447,124	93,059	0,036	-0,030
-446,109	60,719	0,082	-0,059
-445,095	800,000	0,082	-0,181
-444,080	-200,000	0,014	-0,085
-443,065	-200,000	0,036	0,124
-442,051	61,502	0,061	0,044
-441,036	123,655	0,017	0,016
-440,022	-168,164	-0,025	0,001
-439,007	45,223	-0,069	-0,046
-437,992	800,000	0,036	0,076
-436,978	388,796	0,019	0,028
-435,963	58,214	0,125	0,089
-434,949	174,482	-0,065	-0,068
-433,934	-4,593	0,052	-0,026
-432,919	800,000	-0,037	-0,116
-431,905	683,464	-0,075	-0,143
-430,890	285,671	0,019	-0,025
-429,876	-200,000	-0,012	-0,128
-428,861	222,574	0,107	0,125
-427,846	-23,897	-0,051	0,022
-426,832	285,173	0,062	0,081
-425,817	-38,426	-0,137	-0,053
-424,803	84,845	0,081	-0,064
-423,788	-200,000	-0,022	0,079
-422,773	800,000	-0,039	-0,104
-421,759	-24,492	0,022	0,009
-420,744	-200,000	0,042	-0,135
-419,730	593,761	-0,047	-0,085
-418,715	100,120	0,055	0,046
-417,701	-30,466	-0,117	-0,048
-416,686	-54,848	0,097	-0,032
-415,671	232,294	-0,032	-0,039
-414,657	456,453	-0,018	0,029
-413,642	178,334	-0,087	-0,092
-412,628	-69,471	-0,104	0,029
-411,613	800,000	-0,079	-0,162
-410,598	-200,000	-0,031	-0,117
-409,584	-37,497	0,133	-0,051
-408,569	-164,062	0,160	-0,005
-407,555	6,344	0,163	-0,088
-406,540	-200,000	0,010	-0,160
-405,525	183,931	-0,019	0,020
-404,511	-90,397	-0,105	-0,022
-403,496	106,636	-0,028	-0,025
-402,482	800,000	0,022	-0,052
-401,467	539,854	-0,062	0,108
-400,452	-200,000	-0,018	0,133
-399,438	144,699	0,081	0,078
-398,423	12,316	0,051	-0,029
-397,409	261,232	0,037	-0,047
-396,394	150,037	-0,020	0,020
-395,379	136,511	0,041	-0,039
-394,365	-102,261	0,079	-0,014
-393,350	409,611	-0,119	-0,184
-392,336	800,000	0,060	0,135
-391,321	242,996	-0,029	0,035
-390,306	-200,000	-0,008	-0,081
-389,292	-142,961	0,074	0,005
-388,277	-160,009	-0,114	0,004
-387,263	-200,000	-0,018	0,083
-386,248	149,855	0,050	0,050
-385,233	179,033	-0,041	0,044
-384,219	-200,000	-0,004	0,071
-383,204	-6,946	-0,065	-0,032
-382,190	12,341	0,077	-0,043
-381,175	648,809	0,041	-0,077
-380,160	219,091	0,072	0,084
-379,146	9,099	-0,057	0,031
-378,131	-200,000	0,033	0,130
-377,117	134,154	-0,116	0,109
-376,102	-182,291	-0,107	0,001
-375,088	158,212	0,071	-0,071
-374,073	-200,000	-0,019	-0,133
-373,058	198,072	0,028	-0,032
-372,044	-179,535	0,188	0,003
-371,029	800,000	-0,038	0,090
-370,015	-200,000	-0,018	-0,058
-369,000	-200,000	0,006	0,081
-367,985	90,098	-0,055	-0,045
-366,971	-200,000	-0,016	-0,195
-365,956	-200,000	-0,029	-0,103
-364,942	800,000	0,040	0,109
-363,927	-200,000	-0,019	-0,066
-362,912	-60,879	0,026	0,008
-361,898	383,556	0,042	-0,063
-360,883	-200,000	0,014	0,052
-359,869	800,000	0,051	-0,119
-358,854	-200,000	0,026	-0,123
-357,839	143,067	0,145	0,140
-356,825	696,488	0,095	0,181
-355,810	-82,639	0,087	-0,020
-354,796	123,533	-0,124	0,113
-353,781	103,537	-0,084	0,072
-352,766	-37,576	-0,164	-0,063
-351,752	482,201	-0,031	0,052
-350,737	144,547	0,067	0,065
-349,723	47,261	0,017	0,012
-348,708	-190,413	-0,135	-0,001
-347,693	-27,810	0,116	-0,048
-346,679	-200,000	0,005	-0,061
-345,664	800,000	-0,057	-0,135
-344,650	376,163	-0,023	-0,034
-343,635	800,000	0,022	0,044
-342,620	-62,855	0,128	0,038
-341,606	-193,880	0,201	-0,001
-340,591	-200,000	-0,004	0,057
-339,577	-31,848	-0,056	0,023
-338,562	-54,282	-0,113	0,037
-337,548	469,546	0,066	0,107
-336,533	315,282	0,062	0,085
-335,518	-11,104	-0,019	0,009
-334,504	-132,365	0,104	-0,010
-333,489	-200,000	-0,003	0,212
-332,475	-177,058	-0,034	-0,001
-331,460	-200,000	-0,018	-0,147
-330,445	-200,000	-0,037	-0,154
-329,431	-48,472	0,069	0,024
-328,416	800,000	0,067	0,137
-327,402	203,443	0,040	-0,045
-326,387	-200,000	0,000	-0,070
-325,372	800,000	-0,039	-0,093
-324,358	-200,000	-0,035	-0,125
-323,343	800,000	0,033	-0,098
-322,329	159,933	0,133	-0,135
-321,314	-200,000	-0,013	-0,090
-320,299	92,895	0,050	-0,041
-319,285	8,928	-0,139	0,076
-318,270	76,869	0,095	0,073
-317,256	800,000	-0,055	-0,128
-316,241	-200,000	0,017	0,152
-315,226	-10,370	0,052	0,025
-314,212	67,475	0,047	-0,035
-313,197	-200,000	-0,006	-0,108
-312,183	16,647	-0,068	0,039
-311,168	211,207	0,030	-0,034
-310,153	800,000	0,058	0,117
-309,139	91,118	0,027	-0,022
-308,124	-200,000	-0,015	0,119
-307,110	-115,123	0,079	-0,011
-306,095	34,383	0,079	0,050
-305,080	-135,850	-0,132	0,011
-304,066	-95,548	-0,123	0,024
-303,051	-166,373	-0,091	0,003
-302,037	217,613	-0,027	-0,032
-301,022	800,000	-0,012	0,028
-300,008	93,853	-0,057	0,047
-298,993	31,840	0,072	-0,045
-297,978	30,227	-0,059	0,036
-296,964	-200,000	-0,036	0,133
-295,949	503,782	-0,071	0,119
-294,935	272,878	-0,127	-0,162
-293,920	-10,130	-0,042	0,020
-292,905	30,129	0,114	0,070
-291,891	-22,835	0,097	-0,042
-290,876	-200,000	0,015	0,169
-289,862	19,556	-0,167	-0,097
-288,847	183,002	0,062	0,067
-287,832	52,011	-0,140	0,097
-286,818	-132,872	-0,050	0,005
-285,803	669,936	0,041	-0,077
-284,789	127,034	-0,105	0,096
-283,774	-200,000	0,028	0,104
-282,759	-200,000	0,005	-0,027
-281,745	-200,000	0,021	0,111
-280,730	-200,000	0,002	-0,027
-279,716	-200,000	-0,034	-0,120
-278,701	-200,000	-0,025	-0,084
-277,686	800,000	0,041	-0,098
-276,672	279,255	0,050	0,065
-275,657	19,835	0,163	0,095
-274,643	313,042	-0,042	-0,057
-273,628	-174,223	-0,049	0,001
-272,613	-200,000	0,014	-0,099
-271,599	-200,000	-0,013	0,116
-270,584	-190,151	-0,055	-0,000
-269,570	-9,981	-0,144	0,069
-268,555	-120,547	0,035	-0,004
-267,540	129,170	-0,041	-0,038
-266,526	39,582	-0,083	0,054
-265,511	-109,132	-0,066	-0,010
-264,497	-89,121	-0,028	-0,006
-263,482	-25,125	-0,123	-0,052
-262,467	374,271	-0,097	0,144
-261,453	-200,000	-0,019	-0,074
-260,438	-200,000	0,008	-0,124
-259,424	800,000	-0,021	0,049
-258,409	-85,886	-0,067	0,015
-257,395	-13,917	0,127	0,059
-256,380	381,574	0,101	0,151
-255,365	283,829	0,074	0,096
-254,351	-200,000	-0,016	0,088
-253,336	0,633	-0,080	0,041
-252,322	-41,947	0,095	-0,035
-251,307	-74,099	0,052	-0,014
-250,292	631,293	0,071	-0,131
-249,278	577,403	0,024	-0,043
-248,263	-178,621	0,140	0,002
-247,249	-8,133	-0,101	-0,049
-246,234	-200,000	0,014	-0,129
-245,219	-78,903	-0,101	0,025
-244,205	800,000	0,037	-0,081
-243,190	-144,326	-0,045	-0,003
-242,176	-200,000	-0,011	0,068
-241,161	-21,711	-0,059	0,026
-240,146	62,838	-0,088	0,063
-239,132	38,299	0,030	0,019
-238,117	-60,397	0,051	0,016
-237,103	115,358	0,019	-0,017
-236,088	-48,026	-0,030	-0,010
-235,073	-198,541	0,201	0,001
-234,059	-22,606	-0,038	0,016
-233,044	800,000	0,047	-0,107
-232,030	-86,807	-0,117	-0,026
-231,015	800,000	-0,060	-0,145
-230,000	-200,000	0,012	-0,069
-228,986	-54,265	0,152	0,050
-227,971	673,829	-0,075	-0,142
-226,957	-200,000	-0,001	0,059
-225,942	103,766	0,050	0,043
-224,927	324,665	-0,056	-0,078
-223,913	-200,000	-0,002	-0,026
-222,898	-85,735	0,091	-0,020
-221,884	50,443	-0,115	-0,078
-220,869	-32,436	0,182	-0,073
-219,855	-4,366	-0,034	-0,017
-218,840	9,194	0,053	-0,029
-217,825	-49,252	0,020	0,007
-216,811	-66,794	0,059	0,017
-215,796	-200,000	0,023	0,074
-214,782	145,071	0,073	0,070
-213,767	15,226	-0,102	0,057
-212,752	-82,637	0,112	-0,026
-211,738	36,773	0,036	-0,023
-210,723	-200,000	0,001	0,013
-209,709	103,713	-0,103	-0,087
-208,694	-54,111	-0,003	0,001
-207,679	-16,894	-0,087	-0,039
-206,665	800,000	-0,078	-0,176
-205,650	-200,000	-0,001	-0,031
-204,636	56,410	-0,056	0,039
-203,621	-200,000	-0,017	0,062
-202,606	-22,019	0,106	0,046
-201,592	800,000	0,024	0,062
-200,577	82,850	0,109	-0,086
-199,563	323,526	0,032	-0,044
-198,548	165,414	0,054	0,055
-197,533	-200,000	-0,002	0,033
-196,519	-14,936	-0,038	-0,018
-195,504	-110,550	0,060	-0,009
-194,490	-169,081	-0,122	-0,003
-193,475	337,046	-0,055	-0,077
-192,460	95,521	0,028	0,023
-191,446	-165,646	0,134	-0,004
-190,431	227,023	-0,054	0,063
-189,417	800,000	0,059	0,134
-188,402	-174,089	0,066	-0,001
-187,387	326,291	-0,069	0,095
-186,373	800,000	-0,017	0,051
-185,358	287,252	0,030	0,039
-184,344	-185,150	0,102	0,001
-183,329	165,437	0,046	0,046
-182,315	301,247	-0,096	-0,129
-181,300	-76,514	-0,050	0,013
-180,285	137,295	-0,041	0,039
-179,271	-15,109	-0,185	-0,085
-178,256	-188,645	-0,092	0,001
-177,242	-196,423	-0,068	0,000
-176,227	-200,000	0,008	0,046
-175,212	128,419	0,077	-0,071
-174,198	-107,521	-0,108	0,017
-173,183	-200,000	0,004	0,018
-172,169	-112,812	-0,078	0,011
-171,154	-200,000	0,011	-0,064
-170,139	-183,578	0,111	0,001
-169,125	495,509	0,091	0,152
-168,110	-200,000	0,004	-0,023
-167,096	-24,933	-0,080	0,034
-166,081	-200,000	0,011	-0,041
-165,066	-135,704	0,058	0,005
-164,052	-16,886	0,072	0,033
-163,037	103,962	-0,017	-0,015
-162,023	-38,076	0,063	0,024
-161,008	164,831	-0,102	0,104
-159,993	-139,144	-0,033	-0,003
-158,979	105,639	0,085	-0,073
-157,964	-16,007	0,080	0,036
-156,950	-168,459	-0,048	0,001
-155,935	-200,000	-0,008	-0,031
-154,920	402,716	0,073	0,111
-153,906	-200,000	0,005	-0,122
-152,891	-34,045	-0,063	-0,025
-151,877	-200,000	-0,006	-0,039
-150,862	547,349	-0,026	-0,046
-149,847	-54,458	0,053	-0,017
-148,833	-200,000	-0,008	-0,055
-147,818	171,460	0,029	0,030
-146,804	-200,000	-0,011	0,083
-145,789	-200,000	0,013	0,044
-144,775	51,948	-0,105	0,072
-143,760	87,541	0,103	0,082
-142,745	-55,378	-0,040	0,013
-141,731	800,000	0,051	0,111
-140,716	800,000	0,034	-0,085
-139,702	-27,422	0,037	-0,015
-138,687	-127,921	-0,146	-0,015
-137,672	179,638	0,073	-0,077
-136,658	-42,725	-0,022	-0,008
-135,643	469,772	-0,019	0,031
-134,629	-200,000	-0,013	-0,089
-133,614	-155,450	0,150	-0,007
-132,599	403,371	0,085	-0,130
-131,585	6,588	-0,036	-0,019
-130,570	242,633	-0,007	-0,009
-129,556	800,000	-0,043	0,093
-128,541	-108,164	-0,027	-0,004
-127,526	-161,692	-0,082	0,003
-126,512	-55,251	-0,065	0,021
-125,497	-107,970	-0,051	-0,008
-124,483	105,475	0,056	-0,047
-123,468	-200,000	0,021	-0,080
-122,453	-41,808	-0,123	0,045
-121,439	228,975	-0,022	0,026
-120,424	-40,122	0,066	0,025
-119,410	-200,000	0,010	0,093
-118,395	478,558	0,039	0,064
-117,380	230,636	-0,036	0,042
-116,366	-86,153	0,108	0,024
-115,351	-200,000	-0,000	-0,135
-114,337	-19,314	-0,070	-0,031
-113,322	-200,000	0,019	0,094
-112,307	153,216	-0,108	0,106
-111,293	200,676	-0,079	0,088
-110,278	800,000	0,030	-0,082
-109,264	-200,000	-0,000	-0,066
-108,249	473,399	0,097	-0,157
-107,234	-200,000	-0,001	-0,136
-106,220	-200,000	-0,026	0,101
-105,205	124,843	-0,044	0,040
-104,191	-200,000	0,022	-0,071
-103,176	-133,262	-0,036	-0,003
-102,162	-138,595	-0,018	0,001
-101,147	126,957	-0,038	0,035
-100,132	169,655	-0,091	-0,094
-99,118	-200,000	0,010	-0,075
-98,103	145,609	0,072	-0,070
-97,089	-72,118	0,055	0,015
-96,074	57,554	0,112	0,079
-95,059	143,973	-0,059	0,056
-94,045	42,109	0,031	0,020
-93,030	-42,894	0,085	-0,031
-92,016	-90,655	-0,028	0,006
-91,001	55,240	0,105	0,073
-89,986	-138,673	0,124	-0,010
-88,972	800,000	-0,015	0,043
-87,957	-200,000	-0,012	0,124
-86,943	177,589	-0,022	-0,023
-85,928	-200,000	0,028	0,148
-84,913	-200,000	0,000	0,023
-83,899	-38,563	-0,091	0,034
-82,884	-200,000	0,011	0,101
-81,870	70,265	-0,071	0,053
-80,855	-200,000	-0,000	0,019
-79,840	442,792	-0,025	0,040
-78,826	-5,932	-0,097	-0,047
-77,811	-146,861	-0,184	0,011
-76,797	230,260	0,183	0,215
-75,782	-27,790	0,094	0,039
-74,767	371,888	0,072	-0,105
-73,753	64,688	-0,064	-0,046
-72,738	-200,000	0,005	0,174
-71,724	-200,000	0,011	-0,045
-70,709	-52,330	0,185	-0,061
-69,694	-86,772	-0,034	0,007
-68,680	66,734	0,172	0,126
-67,665	-200,000	-0,001	0,020
-66,651	269,900	-0,082	-0,103
-65,636	-51,037	0,057	-0,019
-64,622	800,000	-0,020	0,042
-63,607	800,000	0,016	-0,049
-62,592	-154,634	-0,104	0,005
-61,578	-200,000	0,017	0,083
-60,563	-200,000	0,023	0,154
-59,549	332,090	-0,087	0,120
-58,534	26,136	-2,015	-1,204
-57,519	-200,000	-0,085	-0,833
-56,505	-200,000	-1,105	-4,961
-55,490	123,830	0,865	0,779
-54,476	800,000	5,135	11,512
-53,461	-200,000	17,964	290,049
-52,446	800,000	726,684	2229,157
-51,432	536,330	1639,381	2802,488
-50,417	109,530	1629,457	1400,202
-49,403	73,035	1283,493	961,173
-48,388	31,460	1026,100	631,110
-47,373	19,951	988,152	569,870
-46,359	18,257	976,289	557,461
-45,344	15,539	972,363	546,313
-44,330	15,752	970,820	546,122
-43,315	15,362	968,967	543,785
-42,300	15,231	967,881	542,729
-41,286	15,176	966,985	542,024
-40,271	15,161	966,046	541,428
-39,257	15,243	964,921	541,044
-38,242	15,161	964,404	540,464
-37,227	15,239	963,382	540,125
-36,213	15,176	962,617	539,470
-35,198	15,155	961,714	538,875
-34,184	15,247	960,853	538,667
-33,169	15,184	959,908	537,915
-32,154	15,251	959,014	537,607
-31,140	15,285	958,022	537,139
-30,125	15,219	957,496	536,610
-29,111	15,220	956,632	536,108
-28,096	15,232	956,095	535,825
-27,082	15,258	955,396	535,495
-26,067	15,234	954,584	534,943
-25,052	15,206	953,773	534,376
-24,038	15,186	953,093	533,909
-23,023	15,225	952,347	533,595
-22,009	15,261	951,763	533,362
-20,994	15,223	951,297	532,958
-19,979	15,237	950,635	532,611
-18,965	15,176	949,792	531,922
-17,950	15,226	949,244	531,756
-16,936	15,175	948,722	531,279
-15,921	15,164	948,052	530,846
-14,906	15,110	947,454	530,319
-13,892	15,077	946,880	529,872
-12,877	15,075	946,067	529,389
-11,863	15,068	945,417	528,982
-10,848	15,157	944,822	528,910
-9,833	15,202	944,499	528,851
-8,819	15,185	943,813	528,392
-7,804	15,163	943,181	527,947
-6,790	15,089	942,657	527,400
-5,775	15,105	942,142	527,142
-4,760	15,190	941,337	526,939
-3,746	15,147	940,648	526,397
-2,731	14,972	940,077	525,503
-1,717	14,978	939,336	525,086
-0,702	14,969	938,863	524,772
0,313	14,760	938,024	524,437
1,327	18,215	936,081	534,176
2,342	27,364	789,921	474,863
3,356	23,943	445,033	262,440
4,371	-5,595	296,026	144,999
5,386	-9,515	277,703	132,292
6,400	-10,768	272,002	128,398
7,415	-11,051	269,752	127,063
8,429	-10,915	268,336	126,509
9,444	-11,029	267,394	125,949
10,459	-10,891	266,759	125,766
11,473	-11,139	266,172	125,252
12,488	-11,145	265,654	124,991
13,502	-11,381	265,142	124,525
14,517	-11,390	264,717	124,307
15,531	-11,256	264,148	124,150
16,546	-11,183	263,878	124,077
17,561	-11,237	263,455	123,818
18,575	-11,020	263,065	123,819
19,590	-11,202	262,800	123,520
20,604	-10,990	262,395	123,509
21,619	-11,275	262,124	123,115
22,634	-11,496	261,954	122,826
23,648	-11,214	261,520	122,864
24,663	-11,276	261,327	122,707
25,677	-11,502	261,074	122,375
26,692	-11,240	260,629	122,390
27,707	-11,288	260,519	122,285
28,721	-11,322	260,232	122,109
29,736	-11,461	260,013	121,872
30,750	-11,445	259,811	121,780
31,765	-11,330	259,463	121,708
32,780	-11,552	259,279	121,414
33,794	-11,445	259,043	121,387
34,809	-11,341	258,676	121,296
35,823	-11,370	258,402	121,131
36,838	-11,370	258,205	121,028
37,853	-11,412	257,929	120,852
38,867	-11,438	257,814	120,764
39,882	-11,387	257,486	120,644
40,896	-11,445	257,329	120,509
41,911	-11,387	257,090	120,437
42,926	-11,574	256,851	120,151
43,940	-11,418	256,623	120,169
44,955	-11,485	256,359	119,977
45,969	-11,661	256,183	119,730
46,984	-11,846	255,842	119,398
47,999	-12,002	255,555	119,118
49,013	-12,063	255,333	118,951
50,028	-12,273	255,040	118,621
51,042	-12,265	254,712	118,465
52,057	-12,338	254,698	118,383
53,071	-12,253	254,575	118,390
54,086	-12,149	254,188	118,290
55,101	-12,028	254,155	118,369
56,115	-11,906	253,911	118,350
57,130	-11,223	253,933	118,941
58,144	-10,966	253,684	119,036
59,159	-10,945	253,524	118,968
60,174	-10,958	253,139	118,766
61,188	-11,092	253,050	118,598
62,203	-11,224	252,801	118,357
63,217	-11,205	252,670	118,301
64,232	-11,416	252,520	118,039
65,247	-11,313	252,329	118,028
66,261	-11,235	251,879	117,874
67,276	-11,713	251,730	117,384
68,290	-11,783	251,462	117,188
69,305	-11,953	251,275	116,946
70,320	-11,899	251,039	116,871
71,334	-11,586	250,865	117,047
72,349	-11,140	250,630	117,307
73,363	-11,093	250,377	117,218
74,378	-11,082	250,233	117,151
75,393	-11,186	250,130	117,003
76,407	-11,221	249,663	116,745
77,422	-11,209	249,783	116,800
78,436	-11,373	249,492	116,515
79,451	-11,369	249,248	116,394
80,466	-11,456	248,925	116,159
81,480	-11,579	248,739	115,957
82,495	-11,623	248,570	115,831
83,509	-11,646	248,467	115,754
84,524	-11,613	248,231	115,661
85,539	-11,885	247,951	115,291
86,553	-11,777	247,844	115,322
87,568	-11,661	247,705	115,345
88,582	-11,762	247,485	115,147
89,597	-11,589	247,229	115,164
90,611	-11,508	247,112	115,166
91,626	-11,394	247,063	115,229
92,641	-11,266	246,825	115,215
93,655	-11,320	246,644	115,074
94,670	-11,454	246,347	114,814
95,684	-11,441	246,094	114,697
96,699	-11,494	245,995	114,596
97,714	-11,547	245,735	114,420
98,728	-11,697	245,457	114,156
99,743	-11,730	245,236	114,015
100,757	-11,856	245,064	113,821
101,772	-11,819	244,917	113,773
102,787	-11,588	244,700	113,854
103,801	-11,478	244,601	113,889
104,816	-11,517	244,521	113,809
105,830	-11,343	244,203	113,795
106,845	-11,331	244,284	113,833
107,860	-11,502	243,976	113,537
108,874	-11,516	243,671	113,374
109,889	-11,524	243,366	113,215
110,903	-11,610	243,379	113,140
111,918	-11,647	243,181	113,007
112,933	-11,578	243,039	112,989
113,947	-11,520	243,013	113,014
114,962	-11,430	242,628	112,899
115,976	-11,263	242,471	112,953
116,991	-11,388	242,283	112,753
118,006	-11,423	242,173	112,662
119,020	-11,467	241,994	112,533
120,035	-11,502	241,869	112,437
121,049	-11,406	241,714	112,433
122,064	-11,465	241,548	112,297
123,079	-11,432	241,145	112,127
124,093	-11,519	241,044	111,999
125,108	-11,726	240,839	111,725
126,122	-11,877	240,667	111,512
127,137	-11,806	240,315	111,397
128,151	-11,824	240,271	111,351
129,166	-11,658	240,019	111,360
130,181	-11,822	239,979	111,198
131,195	-11,880	239,715	111,019
132,210	-11,485	239,581	111,267
133,224	-11,480	239,400	111,177
134,239	-11,348	239,233	111,197
135,254	-11,378	239,166	111,131
136,268	-11,766	238,950	110,707
137,283	-11,942	238,615	110,401
138,297	-11,861	238,296	110,308
139,312	-11,759	238,160	110,318
140,327	-11,551	238,167	110,478
141,341	-10,963	238,006	110,867
142,356	-11,014	237,932	110,782
143,370	-11,163	237,909	110,641
144,385	-11,011	237,664	110,639
145,400	-11,064	237,484	110,503
146,414	-11,236	237,372	110,303
147,429	-11,252	237,012	110,114
148,443	-11,118	236,972	110,192
149,458	-11,254	236,731	109,962
150,473	-11,090	236,515	109,983
151,487	-11,020	236,294	109,926
152,502	-11,076	236,280	109,865
153,516	-11,175	236,145	109,713
154,531	-10,998	235,922	109,742
155,546	-11,291	235,635	109,365
156,560	-11,279	235,419	109,265
157,575	-11,512	235,361	109,042
158,589	-11,371	235,156	109,050
159,604	-11,203	235,010	109,106
160,619	-11,131	234,994	109,146
161,633	-10,868	234,638	109,179
162,648	-10,904	234,607	109,126
163,662	-10,978	234,230	108,883
164,677	-11,143	234,308	108,779
165,692	-11,234	234,110	108,605
166,706	-11,020	233,866	108,652
167,721	-10,908	233,824	108,711
168,735	-10,922	233,734	108,648
169,750	-10,955	233,487	108,497
170,764	-10,938	233,345	108,435
171,779	-11,111	233,304	108,270
172,794	-10,948	233,149	108,317
173,808	-11,238	232,968	107,995
174,823	-11,599	232,391	107,435
175,837	-11,690	232,197	107,264
176,852	-11,258	232,292	107,637
177,867	-10,938	232,221	107,845
178,881	-11,038	232,199	107,747
179,896	-10,930	231,942	107,703
180,910	-10,969	231,839	107,615
181,925	-10,654	231,550	107,717
182,940	-10,837	231,350	107,472
183,954	-11,063	231,340	107,281
184,969	-10,778	231,148	107,404
185,983	-10,783	231,117	107,377
186,998	-11,026	230,988	107,118
188,013	-10,699	230,597	107,181
189,027	-10,827	230,464	107,011
190,042	-10,693	230,330	107,043
191,056	-10,851	230,324	106,908
192,071	-10,947	230,045	106,694
193,086	-10,870	229,823	106,642
194,100	-10,788	229,773	106,672
195,115	-11,056	229,383	106,274
196,129	-11,488	229,430	105,953
197,144	-6,163	231,100	110,853
198,159	-0,169	232,840	116,359
199,173	3,039	233,684	119,277
200,188	3,413	233,766	119,600
201,202	3,235	233,563	119,347
202,217	3,344	233,485	119,381
203,232	3,583	233,183	119,402
204,246	3,968	233,186	119,692
205,261	3,779	232,847	119,361
206,275	3,902	232,989	119,519
207,290	3,969	232,739	119,432
208,304	3,797	232,615	119,224
209,319	3,882	232,450	119,194
210,334	3,750	232,094	118,900
211,348	3,383	231,927	118,519
212,363	3,347	231,654	118,342
213,377	3,135	231,489	118,083
214,392	2,940	231,336	117,844
215,407	3,264	231,264	118,047
216,421	3,332	231,033	117,970
217,436	2,776	230,905	117,466
218,450	2,942	230,707	117,483
219,465	2,994	230,544	117,430
220,480	2,915	230,371	117,271
221,494	2,773	230,219	117,074
222,509	3,376	230,164	117,498
223,523	3,225	230,070	117,324
224,538	3,068	229,859	117,085
225,553	3,063	229,651	116,965
226,567	3,145	229,622	117,002
227,582	3,157	229,648	117,014
228,596	3,649	229,473	117,291
229,611	3,093	229,376	116,806
230,626	3,082	228,927	116,559
231,640	2,954	228,809	116,391
232,655	3,336	228,684	116,608
233,669	3,648	228,668	116,826
234,684	3,775	228,634	116,895
235,699	3,544	228,309	116,544
236,713	3,155	228,151	116,157
237,728	2,885	227,987	115,858
238,742	2,959	227,657	115,736
239,757	3,088	227,639	115,814
240,772	3,039	227,472	115,682
241,786	2,954	227,282	115,511
242,801	3,235	227,279	115,712
243,815	3,534	227,214	115,894
244,830	3,596	227,048	115,846
245,844	3,173	226,794	115,387
246,859	3,295	226,638	115,389
247,874	3,290	226,511	115,310
248,888	3,357	226,436	115,313
249,903	3,271	226,251	115,143
250,917	3,337	225,942	115,026
251,932	3,063	225,744	114,708
252,947	3,046	225,735	114,681
253,961	2,865	225,740	114,538
254,976	3,000	225,455	114,484
255,990	3,208	225,367	114,585
257,005	3,339	225,263	114,620
258,020	3,141	225,217	114,438
259,034	3,333	225,279	114,603
260,049	3,467	224,951	114,526
261,063	3,315	224,724	114,287
262,078	3,203	224,703	114,182
263,093	3,374	224,559	114,226
264,107	3,354	224,291	114,065
265,122	3,257	224,161	113,916
266,136	3,514	224,155	114,095
267,151	3,646	223,881	114,043
268,166	3,304	223,559	113,615
269,180	3,094	223,209	113,271
270,195	2,969	223,205	113,166
271,209	3,025	223,029	113,109
272,224	2,933	223,112	113,073
273,239	3,201	222,881	113,144
274,253	3,110	222,699	112,974
275,268	2,995	222,580	112,818
276,282	2,738	222,334	112,495
277,297	2,823	222,241	112,500
278,312	2,784	222,227	112,454
279,326	3,131	222,018	112,594
280,341	3,214	221,756	112,512
281,355	3,246	221,725	112,510
282,370	3,167	221,591	112,374
283,384	2,917	221,391	112,079
284,399	2,721	221,306	111,882
285,414	2,868	221,120	111,886
286,428	2,961	221,096	111,932
287,443	3,296	220,856	112,046
288,457	3,220	220,730	111,916
289,472	3,271	220,551	111,853
290,487	2,700	220,237	111,266
291,501	2,641	220,123	111,156
292,516	2,912	219,986	111,275
293,530	2,821	220,010	111,210
294,545	2,869	219,800	111,130
295,560	2,935	219,717	111,126
296,574	3,136	219,552	111,178
297,589	3,147	219,381	111,090
298,603	3,166	219,348	111,077
299,618	3,214	219,247	111,050
300,633	3,361	219,128	111,087
301,647	3,358	218,907	110,963
302,662	3,342	218,933	110,954
303,676	3,321	218,724	110,823
304,691	3,192	218,578	110,646
305,706	3,282	218,387	110,605
306,720	3,554	218,175	110,684
307,735	3,157	217,951	110,274
308,749	3,117	217,842	110,181
309,764	3,145	217,927	110,233
310,779	3,454	217,712	110,338
311,793	3,304	217,513	110,119
312,808	3,180	217,516	110,021
313,822	3,207	217,268	109,906
314,837	3,216	217,123	109,829
315,852	3,216	216,916	109,714
316,866	3,113	216,843	109,594
317,881	3,427	216,725	109,749
318,895	3,311	216,493	109,539
319,910	2,930	216,407	109,214
320,925	2,961	216,244	109,144
321,939	2,715	216,026	108,848
322,954	2,720	215,965	108,811
323,968	3,216	215,865	109,105
324,983	3,325	215,689	109,084
325,997	3,359	215,610	109,059
327,012	3,325	215,414	108,925
328,027	3,079	215,324	108,695
329,041	3,208	215,348	108,790
330,056	3,230	214,926	108,582
331,070	2,695	214,739	108,099
332,085	2,641	214,729	108,045
333,100	2,950	214,550	108,165
334,114	3,261	214,568	108,385
335,129	3,407	214,443	108,415
336,143	3,203	214,196	108,137
337,158	3,069	214,012	107,939
338,173	2,902	214,059	107,835
339,187	2,912	213,757	107,681
340,202	2,920	213,523	107,559
341,216	2,965	213,495	107,567
342,231	2,887	213,383	107,446
343,246	2,958	213,203	107,395
344,260	2,892	213,135	107,306
345,275	3,203	213,089	107,491
346,289	3,350	212,880	107,479
347,304	3,233	212,794	107,344
348,319	3,026	212,755	107,170
349,333	3,115	212,585	107,137
350,348	3,072	212,369	106,989
351,362	3,365	212,276	107,136
352,377	3,471	212,053	107,089
353,392	3,051	211,942	106,730
354,406	3,437	211,781	106,909
355,421	195,613	1340,775	1418,355
356,435	156,266	1478,298	1418,323
