DTS Sentinel unit serial number:	SN410029Multiplexer serial number:	ORYXHardware model number:	OX2-SRSoftware version number:	ORYX F/W v4,00 Oryx Data Collector v3.7.2.0data status	okinstallation	B6 Nyhavnadifferential loss correction	single-endedforward channel	channel 2reverse channel	N/Adate	2023/12/11time	03:15:08forward acquisition time	300,00reverse acquisition time	0,00gamma	499,1914k internal	0,3123k external	0,3123temperature offset calibration	1,0000default loss term (dB/km)	0,3820temperature slope calibration	1,0000multiplexer offset coefficient	1,0000multiplexer slope coefficient	1,0000fibre end	0,00T internal ref (°C)	21,29T ext. ref 1 (°C)	4,09T ext. ref 2 (°C)	4,11length (m)	temperature (°C)	Stokes	anti-Stokes-744,400	612,438	0,040	-0,075
-743,385	791,169	-0,072	0,149
-742,371	800,000	0,022	0,055
-741,356	-73,069	-0,288	0,078
-740,342	59,471	0,120	0,088
-739,327	241,584	-0,161	0,201
-738,312	275,277	0,082	0,108
-737,298	17,016	-0,299	0,176
-736,283	-111,570	0,102	0,015
-735,269	-53,156	-0,349	0,119
-734,254	800,000	0,008	0,025
-733,239	-90,191	-0,426	-0,092
-732,225	-164,080	0,093	0,003
-731,210	-25,431	-0,087	0,038
-730,196	-99,871	0,139	0,026
-729,181	-70,051	-0,117	0,033
-728,167	-200,000	-0,011	0,053
-727,152	64,021	0,053	-0,039
-726,137	-200,000	-0,003	-0,047
-725,123	-200,000	-0,008	0,048
-724,108	-93,614	-0,124	-0,025
-723,094	-130,790	-0,116	0,011
-722,079	-200,000	-0,004	0,064
-721,064	259,312	-0,053	0,068
-720,050	184,338	0,122	0,134
-719,035	210,671	0,086	0,101
-718,021	-171,376	-0,045	0,001
-717,006	452,914	-0,050	-0,083
-715,991	-128,807	-0,048	-0,005
-714,977	-127,669	-0,206	0,022
-713,962	655,147	-0,019	0,037
-712,948	-200,000	0,002	0,009
-711,933	-140,766	-0,098	-0,007
-710,918	283,506	-0,021	-0,028
-709,904	26,172	-0,055	0,034
-708,889	-90,493	0,154	0,033
-707,875	-77,178	-0,151	-0,039
-706,860	-122,019	0,011	0,001
-705,845	800,000	-0,014	-0,042
-704,831	-91,993	-0,088	-0,018
-703,816	-103,452	-0,070	-0,012
-702,802	-59,247	0,122	0,039
-701,787	28,721	-0,109	-0,069
-700,772	128,139	-0,095	-0,090
-699,758	63,324	-0,088	0,066
-698,743	-200,000	0,071	0,000
-697,729	210,156	-0,047	-0,055
-696,714	800,000	-0,031	0,088
-695,699	552,646	0,045	-0,080
-694,685	800,000	-0,050	-0,161
-693,670	-105,228	0,113	-0,019
-692,656	-25,918	-0,127	0,055
-691,641	598,124	0,028	0,052
-690,627	-52,804	0,042	0,014
-689,612	72,273	0,052	0,040
-688,597	800,000	0,015	0,033
-687,583	-200,000	-0,019	-0,089
-686,568	-200,000	0,001	-0,055
-685,554	72,743	0,038	-0,029
-684,539	-114,653	0,148	0,021
-683,524	300,377	0,114	-0,156
-682,510	-56,401	0,086	0,028
-681,495	-183,410	0,053	0,001
-680,481	170,056	-0,068	-0,072
-679,466	-85,686	-0,123	-0,028
-678,451	800,000	0,050	-0,130
-677,437	-64,721	-0,043	-0,013
-676,422	776,010	-0,023	0,047
-675,408	277,221	0,023	-0,030
-674,393	-200,000	-0,030	-0,117
-673,378	800,000	-0,024	0,056
-672,364	-200,000	-0,003	-0,030
-671,349	176,555	0,059	-0,064
-670,335	667,880	0,015	-0,029
-669,320	134,909	0,043	0,041
-668,305	-200,000	0,002	0,045
-667,291	800,000	-0,045	0,141
-666,276	162,063	-0,117	-0,121
-665,262	513,795	-0,052	0,090
-664,247	-113,976	-0,104	-0,015
-663,232	800,000	0,038	-0,103
-662,218	363,085	-0,075	-0,113
-661,203	800,000	0,062	-0,147
-660,189	-41,174	0,071	-0,027
-659,174	-200,000	-0,019	-0,069
-658,159	-200,000	0,001	-0,066
-657,145	638,628	-0,013	-0,025
-656,130	-200,000	-0,042	-0,170
-655,116	200,726	-0,017	-0,019
-654,101	42,681	-0,041	0,028
-653,086	73,929	0,099	-0,077
-652,072	91,006	-0,038	-0,032
-651,057	800,000	0,060	-0,128
-650,043	315,712	-0,040	0,056
-649,028	379,681	0,008	0,012
-648,014	85,462	0,087	0,071
-646,999	-1,391	-0,095	0,050
-645,984	-47,100	0,091	-0,033
-644,970	138,149	-0,039	-0,038
-643,955	391,579	-0,033	-0,051
-642,941	800,000	0,034	0,070
-641,926	-200,000	0,029	0,141
-640,911	31,213	-0,026	0,017
-639,897	89,496	0,134	-0,111
-638,882	284,773	0,085	-0,113
-637,868	-15,623	-0,115	-0,054
-636,853	-96,907	-0,015	0,003
-635,838	-98,836	0,065	0,012
-634,824	277,803	-0,094	-0,125
-633,809	775,925	-0,031	-0,063
-632,795	-127,043	-0,112	0,012
-631,780	-117,388	-0,062	0,008
-630,765	-200,000	0,009	0,064
-629,751	800,000	0,021	-0,045
-628,736	800,000	0,040	-0,089
-627,722	-200,000	-0,016	-0,102
-626,707	292,817	0,070	0,095
-625,692	-74,092	0,064	-0,017
-624,678	-45,601	-0,053	-0,019
-623,663	-33,500	-0,095	-0,039
-622,649	-55,058	-0,140	-0,047
-621,634	-200,000	0,025	-0,084
-620,619	13,516	0,076	0,044
-619,605	-19,836	0,045	-0,020
-618,590	-7,696	0,040	0,020
-617,576	-200,000	-0,027	-0,103
-616,561	-200,000	0,019	-0,107
-615,546	-41,551	-0,139	-0,053
-614,532	800,000	0,047	-0,149
-613,517	-115,461	0,062	0,009
-612,503	-84,583	0,073	0,017
-611,488	-52,200	0,081	-0,028
-610,474	-200,000	-0,020	-0,083
-609,459	-200,000	-0,001	-0,073
-608,444	-200,000	0,015	-0,059
-607,430	-98,768	-0,068	-0,013
-606,415	-200,000	-0,010	0,143
-605,401	190,588	0,054	0,060
-604,386	615,819	0,031	0,058
-603,371	-200,000	0,012	-0,041
-602,357	45,526	0,078	0,053
-601,342	-66,559	-0,077	0,023
-600,328	38,526	-0,060	0,040
-599,313	78,024	0,019	-0,015
-598,298	-36,145	0,060	-0,024
-597,284	800,000	0,019	-0,043
-596,269	800,000	0,019	0,041
-595,255	87,612	0,093	-0,077
-594,240	-92,245	0,103	0,021
-593,225	-113,549	0,030	0,004
-592,211	-149,188	-0,182	0,011
-591,196	-145,521	0,143	0,009
-590,182	162,080	0,058	-0,060
-589,167	496,432	0,022	-0,037
-588,152	311,152	-0,064	-0,089
-587,138	-200,000	0,002	-0,032
-586,123	10,709	-0,075	-0,042
-585,109	-77,210	-0,132	0,034
-584,094	800,000	-0,035	-0,081
-583,079	453,849	-0,039	0,064
-582,065	239,505	-0,069	-0,085
-581,050	-125,908	0,094	-0,010
-580,036	-104,001	0,120	-0,021
-579,021	800,000	-0,025	-0,081
-578,006	-62,042	0,078	-0,024
-576,992	-68,964	-0,023	0,006
-575,977	170,576	-0,052	-0,055
-574,963	132,881	0,073	0,069
-573,948	-88,372	0,057	0,013
-572,934	-200,000	0,001	-0,054
-571,919	-166,872	-0,122	-0,004
-570,904	-200,000	0,009	-0,041
-569,890	3,775	-0,052	0,028
-568,875	-100,782	-0,092	0,017
-567,861	261,691	-0,048	-0,062
-566,846	-200,000	-0,013	0,043
-565,831	597,278	-0,033	0,060
-564,817	232,385	0,045	0,055
-563,802	5,299	-0,010	0,006
-562,788	391,376	-0,076	0,118
-561,773	-178,501	0,034	0,001
-560,758	66,549	0,209	0,157
-559,744	-200,000	0,007	0,043
-558,729	201,388	0,056	0,063
-557,715	211,229	-0,116	-0,135
-556,700	50,008	-0,050	0,035
-555,685	48,015	-0,079	-0,054
-554,671	-58,238	0,006	0,002
-553,656	-48,061	0,140	0,050
-552,642	-200,000	0,034	0,163
-551,627	46,972	-0,042	0,029
-550,612	549,152	0,047	-0,084
-549,598	-63,629	0,099	-0,030
-548,583	19,224	-0,061	-0,036
-547,569	78,665	0,053	-0,042
-546,554	11,531	-0,013	0,008
-545,539	-200,000	-0,002	0,119
-544,525	-54,862	0,188	0,062
-543,510	-75,825	-0,106	-0,028
-542,496	800,000	0,013	0,042
-541,481	-44,587	0,096	-0,035
-540,466	800,000	0,062	-0,128
-539,452	-106,451	0,147	0,024
-538,437	-90,283	0,030	0,006
-537,423	-102,007	-0,092	0,016
-536,408	-175,389	-0,134	0,003
-535,393	751,150	0,063	-0,127
-534,379	39,726	-0,084	-0,055
-533,364	-90,485	0,074	0,016
-532,350	800,000	0,053	0,108
-531,335	800,000	-0,060	0,136
-530,321	515,579	0,035	0,061
-529,306	320,053	0,004	0,006
-528,291	-200,000	0,007	0,027
-527,277	-94,578	-0,133	0,027
-526,262	-107,633	-0,127	0,020
-525,248	293,027	0,084	-0,114
-524,233	-198,921	0,067	-0,000
-523,218	182,994	0,074	-0,080
-522,204	-200,000	-0,000	-0,061
-521,189	-109,915	0,054	-0,008
-520,175	800,000	0,055	-0,159
-519,160	800,000	-0,047	-0,128
-518,145	800,000	-0,012	-0,036
-517,131	-200,000	0,018	-0,199
-516,116	397,771	-0,055	0,085
-515,102	-16,221	0,146	0,068
-514,087	800,000	-0,053	-0,115
-513,072	800,000	-0,043	-0,114
-512,058	-70,396	0,036	-0,010
-511,043	-22,201	-0,073	0,033
-510,029	-200,000	-0,003	0,016
-509,014	-138,458	0,112	-0,009
-507,999	222,784	-0,030	0,035
-506,985	-147,166	-0,117	0,007
-505,970	-200,000	-0,017	-0,161
-504,956	-200,000	0,003	-0,228
-503,941	152,683	0,061	-0,061
-502,926	215,560	-0,079	0,093
-501,912	-200,000	0,010	0,123
-500,897	-103,929	0,049	-0,008
-499,883	-200,000	0,027	-0,132
-498,868	-200,000	0,001	-0,047
-497,853	205,048	-0,086	0,099
-496,839	288,677	-0,065	0,087
-495,824	800,000	0,016	0,048
-494,810	19,446	-0,036	-0,021
-493,795	-200,000	0,011	0,041
-492,781	-200,000	0,017	-0,103
-491,766	65,315	-0,042	0,031
-490,751	-200,000	0,002	-0,104
-489,737	8,632	-0,035	0,019
-488,722	725,009	0,025	0,049
-487,708	154,995	0,024	-0,024
-486,693	147,236	-0,024	-0,024
-485,678	46,315	0,085	-0,058
-484,664	800,000	0,015	-0,037
-483,649	80,874	-0,088	-0,070
-482,635	71,609	0,073	-0,056
-481,620	31,104	-0,049	-0,031
-480,605	-200,000	0,009	-0,124
-479,591	-200,000	0,010	0,059
-478,576	-14,487	0,088	-0,042
-477,562	206,632	-0,121	-0,140
-476,547	59,859	0,096	-0,070
-475,532	-179,308	0,092	0,001
-474,518	296,894	-0,076	0,103
-473,503	517,189	0,036	-0,062
-472,489	159,346	0,066	0,068
-471,474	54,546	-0,097	0,069
-470,459	-200,000	-0,115	-0,000
-469,445	29,151	-0,157	-0,098
-468,430	426,758	0,062	0,099
-467,416	-72,203	0,087	0,024
-466,401	-200,000	0,024	0,129
-465,386	15,953	0,079	0,046
-464,372	64,132	0,008	0,006
-463,357	25,304	-0,037	-0,023
-462,343	165,208	-0,081	-0,084
-461,328	800,000	0,014	-0,030
-460,313	150,838	0,015	0,015
-459,299	177,904	0,059	-0,063
-458,284	7,342	0,087	0,048
-457,270	-90,648	0,172	0,036
-456,255	43,077	-0,086	-0,057
-455,241	-8,363	-0,062	0,030
-454,226	199,770	0,048	-0,054
-453,211	229,337	0,082	0,099
-452,197	612,920	-0,018	0,033
-451,182	584,810	0,069	-0,126
-450,168	169,524	0,044	-0,047
-449,153	462,425	0,076	0,126
-448,138	538,293	-0,031	0,054
-447,124	-200,000	0,003	0,189
-446,109	355,670	-0,083	0,122
-445,095	789,488	0,069	0,141
-444,080	609,858	0,040	0,074
-443,065	393,627	0,051	0,078
-442,051	-43,204	-0,118	0,044
-441,036	-200,000	0,037	-0,137
-440,022	-29,348	-0,098	-0,041
-439,007	495,328	0,063	-0,106
-437,992	800,000	0,075	0,156
-436,978	-30,435	-0,146	0,061
-435,963	-63,795	0,085	-0,025
-434,949	-200,000	-0,008	0,062
-433,934	-25,881	-0,042	-0,018
-432,919	367,505	-0,090	0,135
-431,905	-200,000	-0,029	-0,107
-430,890	-200,000	-0,013	0,136
-429,876	-200,000	-0,019	0,064
-428,861	-37,110	0,036	-0,014
-427,846	-200,000	-0,003	0,011
-426,832	32,993	-0,125	0,079
-425,817	-44,584	-0,104	-0,038
-424,803	-122,888	-0,224	-0,026
-423,788	259,054	0,028	-0,035
-422,773	-68,312	0,108	0,031
-421,759	89,271	0,067	0,055
-420,744	-16,272	-0,076	0,036
-419,730	800,000	0,022	0,062
-418,715	-200,000	-0,093	0,000
-417,701	422,015	0,027	-0,042
-416,686	-200,000	0,019	-0,062
-415,671	158,234	0,032	0,033
-414,657	-200,000	0,008	0,209
-413,642	800,000	-0,060	0,162
-412,628	-200,000	-0,009	-0,059
-411,613	170,983	0,042	-0,045
-410,598	59,702	-0,103	-0,075
-409,584	-200,000	-0,041	-0,142
-408,569	222,389	-0,054	0,064
-407,555	-92,308	0,084	0,017
-406,540	-104,961	-0,095	-0,016
-405,525	77,679	-0,036	0,028
-404,511	-157,812	-0,059	0,003
-403,496	46,009	-0,036	-0,024
-402,482	134,026	-0,036	0,034
-401,467	1,363	0,043	0,023
-400,452	-139,263	0,085	0,007
-399,438	58,521	0,092	0,067
-398,423	18,736	-0,080	-0,047
-397,409	139,877	0,071	-0,069
-396,394	540,982	0,026	0,046
-395,379	-200,000	0,023	0,089
-394,365	800,000	-0,026	0,066
-393,350	-200,000	-0,005	0,089
-392,336	-27,460	0,109	0,046
-391,321	800,000	-0,029	0,070
-390,306	800,000	0,061	0,161
-389,292	-34,349	0,150	-0,060
-388,277	4,364	0,112	-0,060
-387,263	-200,000	0,008	-0,156
-386,248	197,840	0,046	-0,052
-385,233	-200,000	0,026	0,091
-384,219	-95,239	-0,052	0,010
-383,204	800,000	0,030	0,079
-382,190	-125,051	0,033	0,004
-381,175	-23,888	-0,038	0,017
-380,160	81,340	0,070	-0,056
-379,146	800,000	0,054	0,128
-378,131	-81,556	0,184	-0,044
-377,117	127,872	-0,092	0,086
-376,102	-200,000	-0,006	-0,055
-375,088	-75,997	-0,153	0,039
-374,073	-200,000	0,040	0,155
-373,058	-200,000	-0,005	-0,060
-372,044	-200,000	-0,016	0,069
-371,029	507,129	-0,036	0,061
-370,015	-200,000	0,005	-0,105
-369,000	-108,240	0,086	0,014
-367,985	198,445	-0,021	0,024
-366,971	164,219	0,055	0,057
-365,956	-200,000	0,019	0,112
-364,942	148,442	0,101	-0,100
-363,927	-73,953	0,067	0,018
-362,912	23,523	0,178	0,108
-361,898	456,797	0,025	-0,040
-360,883	16,940	-0,087	-0,050
-359,869	-200,000	-0,004	0,089
-358,854	800,000	0,019	-0,041
-357,839	-106,957	-0,171	0,027
-356,825	380,848	0,097	0,147
-355,810	800,000	0,036	-0,106
-354,796	16,887	0,069	0,040
-353,781	-200,000	-0,012	-0,053
-352,766	-200,000	-0,003	-0,133
-351,752	-144,207	0,098	-0,007
-350,737	245,981	0,069	0,086
-349,723	274,867	-0,049	-0,064
-348,708	800,000	-0,037	0,115
-347,693	-200,000	0,022	0,080
-346,679	555,544	0,088	0,156
-345,664	800,000	-0,038	0,088
-344,650	17,474	-0,051	-0,030
-343,635	-200,000	-0,002	0,027
-342,620	90,535	0,102	0,084
-341,606	800,000	-0,044	-0,096
-340,591	-58,482	-0,127	-0,040
-339,577	-51,905	0,064	0,022
-338,562	-200,000	-0,020	-0,068
-337,548	-200,000	-0,006	0,061
-336,533	234,949	-0,095	0,116
-335,518	-200,000	-0,009	0,031
-334,504	-76,454	0,172	0,044
-333,489	-200,000	-0,003	0,018
-332,475	98,355	-0,045	0,038
-331,460	111,631	-0,095	-0,084
-330,445	59,604	0,095	-0,068
-329,431	-200,000	0,002	-0,108
-328,416	-200,000	-0,029	0,234
-327,402	800,000	-0,070	0,148
-326,387	-200,000	-0,025	0,166
-325,372	119,408	-0,078	-0,071
-324,358	-200,000	-0,022	-0,105
-323,343	-76,337	-0,210	-0,054
-322,329	593,836	0,012	-0,022
-321,314	188,647	-0,062	-0,068
-320,299	-36,375	-0,036	-0,014
-319,285	-200,000	0,001	0,053
-318,270	-27,473	-0,091	-0,039
-317,256	-200,000	-0,019	-0,076
-316,241	-106,225	-0,052	-0,009
-315,226	-145,779	-0,023	-0,001
-314,212	117,160	-0,097	0,087
-313,197	650,833	-0,052	0,099
-312,183	-200,000	-0,001	0,125
-311,168	754,402	-0,064	0,127
-310,153	-200,000	-0,014	-0,123
-309,139	-134,802	-0,147	-0,013
-308,124	-200,000	0,007	-0,078
-307,110	40,295	0,024	-0,016
-306,095	-48,885	-0,195	0,068
-305,080	330,421	0,086	0,121
-304,066	800,000	0,061	-0,191
-303,051	800,000	0,018	-0,041
-302,037	-200,000	-0,002	0,012
-301,022	800,000	0,041	-0,115
-300,008	-4,137	-0,079	-0,040
-298,993	756,753	0,046	0,092
-297,978	-154,114	-0,116	0,006
-296,964	-200,000	-0,031	-0,141
-295,949	121,626	-0,071	0,065
-294,935	-60,785	-0,068	0,021
-293,920	196,533	0,074	-0,082
-292,905	0,949	0,051	0,027
-291,891	800,000	0,026	-0,072
-290,876	800,000	0,003	-0,007
-289,862	800,000	0,036	-0,098
-288,847	-200,000	-0,012	-0,101
-287,832	-200,000	-0,036	-0,121
-286,818	81,896	0,055	0,043
-285,803	-200,000	-0,036	0,127
-284,789	323,670	0,107	0,150
-283,774	-200,000	-0,014	-0,047
-282,759	284,838	-0,083	-0,109
-281,745	-25,609	0,082	-0,035
-280,730	509,945	0,057	-0,097
-279,716	525,679	-0,035	-0,061
-278,701	-88,478	0,086	0,019
-277,686	-120,947	0,112	0,014
-276,672	519,906	0,024	0,041
-275,657	-136,015	-0,004	0,000
-274,643	800,000	0,009	0,024
-273,628	800,000	0,038	-0,087
-272,613	173,805	0,076	0,081
-271,599	765,854	0,030	0,060
-270,584	-80,506	0,142	0,034
-269,570	-200,000	-0,007	-0,049
-268,555	783,749	0,049	0,099
-267,540	104,324	-0,078	0,067
-266,526	-200,000	-0,195	0,000
-265,511	168,566	-0,050	0,052
-264,497	15,552	0,054	-0,031
-263,482	-123,704	-0,123	0,014
-262,467	-45,214	0,152	0,055
-261,453	154,031	-0,059	0,059
-260,438	-200,000	-0,004	-0,088
-259,424	800,000	-0,027	0,060
-258,409	-200,000	0,033	-0,136
-257,395	-17,745	-0,065	0,030
-256,380	-143,973	0,071	0,005
-255,365	-200,000	0,018	-0,085
-254,351	202,736	0,086	0,097
-253,336	-200,000	0,000	0,027
-252,322	-200,000	0,002	-0,153
-251,307	483,898	-0,035	0,059
-250,292	156,461	-0,092	0,093
-249,278	-70,090	0,086	0,024
-248,263	-200,000	0,001	-0,004
-247,249	800,000	0,013	-0,033
-246,234	800,000	0,018	0,054
-245,219	-146,128	0,089	0,006
-244,205	-151,889	0,044	0,002
-243,190	61,186	0,125	-0,091
-242,176	451,488	0,050	-0,080
-241,161	175,609	0,052	0,055
-240,146	-18,014	-0,111	-0,051
-239,132	171,026	-0,105	-0,110
-238,117	-200,000	-0,011	-0,060
-237,103	-64,766	-0,053	0,015
-236,088	-25,928	-0,071	-0,030
-235,073	591,825	0,058	-0,105
-234,059	299,581	-0,062	0,083
-233,044	97,833	0,030	0,025
-232,030	193,375	-0,102	0,113
-231,015	-136,614	-0,040	-0,003
-230,000	-48,564	-0,128	-0,045
-228,986	-30,873	-0,179	0,074
-227,971	-200,000	0,012	0,063
-226,957	-200,000	-0,018	0,083
-225,942	800,000	-0,044	0,116
-224,927	-200,000	-0,026	0,086
-223,913	186,395	0,031	-0,034
-222,898	-80,706	0,119	0,029
-221,884	800,000	-0,023	0,070
-220,869	800,000	-0,045	0,127
-219,855	121,970	0,062	0,056
-218,840	800,000	-0,028	0,079
-217,825	800,000	-0,029	-0,060
-216,811	-200,000	0,022	-0,097
-215,796	-200,000	-0,016	-0,059
-214,782	-95,914	0,166	-0,032
-213,767	221,065	0,041	-0,048
-212,752	-159,274	0,061	-0,002
-211,738	-154,291	0,086	-0,004
-210,723	730,693	0,080	0,157
-209,709	-38,387	-0,164	0,063
-208,694	800,000	-0,014	0,042
-207,679	-162,120	-0,185	-0,007
-206,665	315,706	0,035	0,049
-205,650	-87,775	0,026	0,006
-204,636	203,803	0,042	0,048
-203,621	-2,968	0,061	-0,031
-202,606	0,253	-0,123	-0,064
-201,592	-66,764	-0,052	0,015
-200,577	-200,000	0,011	0,044
-199,563	115,340	-0,047	-0,042
-198,548	102,662	-0,040	0,034
-197,533	-127,602	0,043	-0,004
-196,519	-53,007	-0,067	0,022
-195,504	82,063	0,085	-0,067
-194,490	-24,331	-0,113	0,049
-193,475	641,299	0,114	-0,213
-192,460	800,000	0,037	0,094
-191,446	655,638	0,041	0,078
-190,431	190,030	0,056	-0,061
-189,417	800,000	-0,026	0,072
-188,402	416,769	-0,031	0,049
-187,387	-200,000	0,016	0,061
-186,373	800,000	0,045	-0,095
-185,358	-200,000	0,014	-0,080
-184,344	-200,000	-0,143	-0,000
-183,329	-86,418	-0,044	0,010
-182,315	-200,000	0,065	-0,000
-181,300	-200,000	-0,013	-0,186
-180,285	800,000	-0,056	-0,149
-179,271	690,129	0,056	-0,107
-178,256	22,859	-0,077	-0,046
-177,242	568,936	0,029	-0,052
-176,227	152,406	0,111	-0,111
-175,212	-59,901	0,110	-0,034
-174,198	-200,000	-0,011	-0,043
-173,183	-200,000	-0,037	-0,143
-172,169	-10,573	-0,022	-0,010
-171,154	183,383	-0,101	0,109
-170,139	782,579	0,011	0,021
-169,125	166,730	-0,017	0,018
-168,110	-160,086	0,083	-0,003
-167,096	138,350	-0,074	-0,070
-166,081	-41,230	-0,139	-0,052
-165,066	-200,000	-0,022	-0,126
-164,052	-85,466	0,118	0,027
-163,037	147,218	0,066	0,064
-162,023	-87,014	-0,001	0,000
-161,008	225,461	-0,073	0,086
-159,993	207,637	-0,028	-0,032
-158,979	-200,000	0,008	-0,041
-157,964	129,020	0,088	-0,082
-156,950	800,000	-0,012	0,028
-155,935	-21,674	-0,050	-0,022
-154,920	800,000	-0,020	-0,045
-153,906	512,182	-0,062	0,105
-152,891	271,218	-0,073	0,094
-151,877	-200,000	0,033	0,107
-150,862	-200,000	0,007	-0,084
-149,847	-200,000	0,018	0,135
-148,833	622,797	0,032	0,060
-147,818	-200,000	0,021	-0,111
-146,804	800,000	-0,054	0,123
-145,789	25,604	-0,048	-0,029
-144,775	420,742	-0,028	-0,043
-143,760	186,760	0,036	-0,039
-142,745	-200,000	0,007	-0,095
-141,731	800,000	0,006	0,016
-140,716	-14,254	0,136	0,063
-139,702	707,451	0,037	0,072
-138,687	800,000	0,022	-0,051
-137,672	16,376	0,099	-0,057
-136,658	241,928	-0,081	-0,099
-135,643	292,554	0,021	-0,028
-134,629	327,770	-0,069	-0,097
-133,614	-200,000	0,010	0,092
-132,599	800,000	0,051	0,117
-131,585	17,338	0,042	0,024
-130,570	-200,000	-0,011	0,090
-129,556	240,718	-0,004	-0,005
-128,541	267,964	-0,123	0,157
-127,526	-200,000	0,025	-0,137
-126,512	-200,000	-0,004	-0,024
-125,497	800,000	-0,031	-0,093
-124,483	289,468	0,054	-0,071
-123,468	-88,725	0,041	0,009
-122,453	336,061	-0,075	-0,106
-121,439	800,000	-0,028	0,067
-120,424	-200,000	-0,031	-0,159
-119,410	-200,000	-0,013	-0,151
-118,395	-68,872	0,113	0,032
-117,380	105,051	0,005	-0,005
-116,366	-75,875	-0,110	0,028
-115,351	-93,921	-0,076	-0,015
-114,337	-146,359	-0,158	0,010
-113,322	-146,734	-0,123	-0,008
-112,307	431,420	-0,032	0,051
-111,293	-200,000	0,003	-0,022
-110,278	59,764	0,068	0,049
-109,264	-22,947	-0,223	0,097
-108,249	528,983	-0,023	0,039
-107,234	-162,597	-0,012	-0,000
-106,220	97,229	-0,014	-0,012
-105,205	-99,556	-0,070	-0,013
-104,191	-127,555	0,111	-0,012
-103,176	-75,277	0,126	-0,032
-102,162	210,082	-0,035	-0,040
-101,147	47,484	-0,067	0,045
-100,132	-200,000	0,007	0,106
-99,118	-124,259	-0,079	-0,009
-98,103	551,712	0,030	0,052
-97,089	356,105	0,063	0,091
-96,074	8,078	0,068	-0,037
-95,059	-64,224	0,050	-0,015
-94,045	-98,331	-0,056	-0,010
-93,030	-200,000	0,017	-0,093
-92,016	-132,364	0,067	0,006
-91,001	25,136	0,079	0,048
-89,986	-200,000	0,017	-0,120
-88,972	-99,535	0,180	-0,033
-87,957	-200,000	-0,006	0,085
-86,943	-110,174	-0,026	-0,004
-85,928	243,407	-0,104	-0,127
-84,913	800,000	-0,009	0,029
-83,899	288,186	0,046	-0,061
-82,884	590,398	-0,060	0,107
-81,870	-16,647	0,068	0,031
-80,855	300,872	-0,063	-0,084
-79,840	-200,000	0,012	-0,134
-78,826	99,742	-0,055	0,046
-77,811	800,000	-0,017	-0,052
-76,797	800,000	0,065	-0,175
-75,782	-200,000	-0,006	0,072
-74,767	-40,502	0,096	-0,036
-73,753	-200,000	0,026	0,228
-72,738	-74,973	-0,193	0,050
-71,724	800,000	-0,025	-0,074
-70,709	800,000	0,056	-0,132
-69,694	239,551	0,010	-0,013
-68,680	165,727	0,054	-0,056
-67,665	800,000	0,030	-0,079
-66,651	-79,532	0,136	-0,033
-65,636	21,102	-0,120	0,071
-64,622	-200,000	0,012	-0,064
-63,607	-44,710	0,109	-0,039
-62,592	-200,000	0,010	0,039
-61,578	96,488	-0,021	-0,017
-60,563	44,706	-0,066	0,044
-59,549	-36,257	-0,091	0,036
-58,534	-116,981	-1,452	-0,190
-57,519	650,326	-0,796	-1,486
-56,505	-200,000	-1,013	-4,453
-55,490	-83,622	0,670	-0,154
-54,476	800,000	5,004	11,853
-53,461	-200,000	14,451	262,495
-52,446	-200,000	695,890	2269,019
-51,432	585,901	1623,671	2908,877
-50,417	118,989	1632,787	1464,374
-49,403	75,874	1286,492	985,865
-48,388	37,778	1024,040	658,574
-47,373	23,461	983,017	585,028
-46,359	22,678	972,425	576,127
-45,344	21,553	967,962	569,778
-44,330	21,558	966,556	568,944
-43,315	21,393	964,993	567,464
-42,300	21,293	964,152	566,621
-41,286	21,336	963,067	566,099
-40,271	21,395	962,021	565,655
-39,257	21,355	961,204	565,024
-38,242	21,336	960,146	564,318
-37,227	21,395	959,314	563,997
-36,213	21,312	958,388	563,161
-35,198	21,224	957,575	562,375
-34,184	21,329	956,837	562,259
-33,169	21,253	956,105	561,561
-32,154	21,378	955,047	561,320
-31,140	21,296	954,263	560,575
-30,125	21,302	953,492	560,118
-29,111	21,360	952,719	559,829
-28,096	21,356	951,927	559,329
-27,082	21,376	951,281	558,991
-26,067	21,301	950,503	558,271
-25,052	21,400	949,539	558,000
-24,038	21,340	949,070	557,510
-23,023	21,339	948,523	557,164
-22,009	21,364	947,949	556,884
-20,994	21,346	947,206	556,367
-19,979	21,330	946,675	555,981
-18,965	21,338	946,045	555,616
-17,950	21,316	945,522	555,217
-16,936	21,375	944,649	554,869
-15,921	21,197	944,176	554,002
-14,906	21,225	943,140	553,460
-13,892	21,172	942,884	553,120
-12,877	21,221	941,942	552,701
-11,863	21,201	941,413	552,306
-10,848	21,210	941,151	552,159
-9,833	21,338	940,511	552,169
-8,819	21,310	939,875	551,685
-7,804	21,191	939,412	551,011
-6,790	21,141	938,683	550,404
-5,775	21,214	938,148	550,299
-4,760	21,224	937,265	549,792
-3,746	21,212	936,697	549,399
-2,731	21,085	936,180	548,672
-1,717	21,031	935,301	547,966
-0,702	21,069	934,702	547,713
0,313	20,833	934,164	547,479
1,327	23,884	932,179	555,877
2,342	33,218	795,330	499,144
3,356	30,460	451,879	279,405
4,371	-0,235	295,445	151,823
5,386	-4,533	276,563	138,008
6,400	-6,036	270,857	133,743
7,415	-6,473	268,358	132,092
8,429	-6,159	267,275	131,838
9,444	-6,177	266,490	131,421
10,459	-6,093	265,903	131,198
11,473	-6,091	265,196	130,839
12,488	-6,017	264,534	130,569
13,502	-6,301	264,103	130,085
14,517	-6,013	263,734	130,154
15,531	-5,748	263,288	130,163
16,546	-5,740	263,222	130,127
17,561	-5,822	262,629	129,748
18,575	-5,839	262,409	129,611
19,590	-5,748	262,017	129,489
20,604	-5,602	261,730	129,467
21,619	-5,647	261,427	129,265
22,634	-5,731	261,027	128,980
23,648	-5,639	260,781	128,930
24,663	-5,733	260,618	128,753
25,677	-5,766	260,270	128,540
26,692	-5,826	260,163	128,422
27,707	-5,785	259,801	128,269
28,721	-5,780	259,556	128,141
29,736	-5,749	259,148	127,956
30,750	-5,674	259,039	127,957
31,765	-5,962	258,813	127,577
32,780	-5,829	258,556	127,558
33,794	-5,875	258,260	127,360
34,809	-5,885	258,032	127,227
35,823	-5,925	257,781	127,056
36,838	-5,844	257,530	126,993
37,853	-6,001	257,412	126,785
38,867	-5,848	257,171	126,790
39,882	-5,712	256,814	126,723
40,896	-5,905	256,768	126,518
41,911	-6,064	256,499	126,234
42,926	-5,895	256,237	126,243
43,940	-6,092	256,128	126,004
44,955	-5,972	255,883	125,978
45,969	-6,010	255,599	125,793
46,984	-6,090	255,285	125,557
47,999	-6,226	255,048	125,310
49,013	-6,254	254,793	125,149
50,028	-6,307	254,478	124,937
51,042	-6,606	254,377	124,614
52,057	-6,480	254,035	124,546
53,071	-6,339	253,780	124,533
54,086	-6,462	253,722	124,386
55,101	-6,295	253,678	124,500
56,115	-6,217	253,331	124,386
57,130	-6,114	253,290	124,444
58,144	-5,583	253,007	124,756
59,159	-5,894	252,977	124,460
60,174	-5,627	252,679	124,534
61,188	-5,656	252,551	124,434
62,203	-5,799	252,264	124,158
63,217	-5,844	252,035	123,995
64,232	-5,682	251,762	123,990
65,247	-5,820	251,643	123,801
66,261	-5,680	251,136	123,662
67,276	-5,981	251,162	123,403
68,290	-6,129	250,815	123,094
69,305	-6,299	250,644	122,854
70,320	-6,122	250,494	122,921
71,334	-5,892	250,265	122,995
72,349	-5,713	250,201	123,107
73,363	-5,756	249,917	122,919
74,378	-5,976	249,822	122,673
75,393	-5,741	249,662	122,785
76,407	-5,740	249,472	122,681
77,422	-5,814	249,282	122,514
78,436	-5,776	248,932	122,363
79,451	-5,822	248,798	122,246
80,466	-5,848	248,545	122,089
81,480	-6,019	248,318	121,821
82,495	-6,026	248,085	121,690
83,509	-6,016	247,873	121,584
84,524	-6,104	247,715	121,421
85,539	-6,248	247,524	121,194
86,553	-6,022	247,430	121,329
87,568	-5,980	247,081	121,183
88,582	-5,920	246,945	121,156
89,597	-5,946	246,705	121,006
90,611	-5,956	246,621	120,944
91,626	-5,801	246,447	120,979
92,641	-5,932	246,228	120,751
93,655	-5,935	246,082	120,666
94,670	-6,081	245,944	120,464
95,684	-5,900	245,662	120,468
96,699	-6,062	245,678	120,329
97,714	-6,155	245,399	120,103
98,728	-6,335	245,171	119,830
99,743	-6,095	244,944	119,910
100,757	-6,119	244,686	119,752
101,772	-6,105	244,633	119,728
102,787	-6,206	244,458	119,547
103,801	-6,164	244,303	119,495
104,816	-6,056	244,000	119,426
105,830	-5,991	243,961	119,451
106,845	-5,683	243,738	119,589
107,860	-6,012	243,606	119,239
108,874	-5,765	243,164	119,217
109,889	-6,018	242,936	118,884
110,903	-6,195	242,909	118,713
111,918	-6,042	242,646	118,701
112,933	-6,018	242,657	118,716
113,947	-6,061	242,517	118,602
114,962	-6,058	242,342	118,507
115,976	-5,981	242,110	118,448
116,991	-5,910	241,876	118,381
118,006	-5,835	241,637	118,316
119,020	-5,913	241,566	118,206
120,035	-5,791	241,453	118,241
121,049	-5,987	241,410	118,047
122,064	-5,895	241,147	117,984
123,079	-5,925	240,960	117,857
124,093	-6,066	240,888	117,695
125,108	-6,236	240,515	117,363
126,122	-6,399	240,357	117,141
127,137	-6,333	240,124	117,072
128,151	-6,083	239,862	117,138
129,166	-6,037	239,619	117,047
130,181	-6,260	239,636	116,862
131,195	-6,300	239,349	116,679
132,210	-6,039	239,221	116,820
133,224	-5,895	239,139	116,887
134,239	-5,836	238,924	116,819
135,254	-5,984	238,766	116,611
136,268	-6,227	238,640	116,341
137,283	-6,228	238,317	116,173
138,297	-6,394	238,162	115,952
139,312	-6,422	237,938	115,809
140,327	-6,140	237,782	115,952
141,341	-5,828	237,770	116,189
142,356	-5,714	237,681	116,228
143,370	-5,715	237,492	116,125
144,385	-5,706	237,401	116,077
145,400	-5,721	237,299	116,004
146,414	-5,694	236,984	115,862
147,429	-5,479	236,809	115,939
148,443	-5,753	236,536	115,575
149,458	-5,803	236,522	115,517
150,473	-5,761	236,289	115,427
151,487	-5,728	235,999	115,302
152,502	-6,014	236,023	115,072
153,516	-5,627	235,751	115,241
154,531	-5,760	235,596	115,048
155,546	-5,644	235,384	115,028
156,560	-5,770	235,229	114,840
157,575	-5,832	234,897	114,619
158,589	-5,844	234,825	114,563
159,604	-5,597	234,730	114,704
160,619	-5,474	234,588	114,723
161,633	-5,539	234,513	114,624
162,648	-5,568	234,223	114,449
163,662	-5,560	234,182	114,425
164,677	-5,771	233,972	114,144
165,692	-5,766	233,896	114,101
166,706	-5,591	233,606	114,089
167,721	-5,497	233,562	114,132
168,735	-5,419	233,442	114,124
169,750	-5,632	233,141	113,799
170,764	-5,568	233,108	113,823
171,779	-5,798	233,033	113,594
172,794	-5,569	232,824	113,663
173,808	-5,827	232,564	113,322
174,823	-6,250	232,193	112,796
175,837	-6,376	232,080	112,633
176,852	-5,934	232,056	112,959
177,867	-5,788	231,942	113,009
178,881	-5,677	231,834	113,034
179,896	-5,790	231,785	112,911
180,910	-5,712	231,402	112,776
181,925	-5,602	231,284	112,795
182,940	-5,683	231,270	112,715
183,954	-5,674	230,983	112,572
184,969	-5,726	231,005	112,531
185,983	-5,216	230,683	112,764
186,998	-5,432	230,668	112,578
188,013	-5,449	230,510	112,477
189,027	-5,496	230,311	112,333
190,042	-5,244	230,208	112,470
191,056	-5,679	229,957	111,997
192,071	-5,560	229,723	111,967
193,086	-5,693	229,568	111,777
194,100	-5,771	229,311	111,581
195,115	-6,460	228,849	110,811
196,129	-7,379	228,424	109,882
197,144	-4,120	229,747	113,051
198,159	1,139	231,222	117,887
199,173	4,257	232,042	120,739
200,188	4,627	231,744	120,863
201,202	4,536	231,789	120,804
202,217	4,657	231,544	120,760
203,232	4,665	231,619	120,795
204,246	4,914	231,411	120,870
205,261	5,017	231,189	120,824
206,275	5,085	231,211	120,878
207,290	5,166	230,939	120,787
208,304	5,107	230,845	120,682
209,319	5,107	230,612	120,549
210,334	5,095	230,499	120,470
211,348	4,653	230,200	119,960
212,363	4,446	229,930	119,648
213,377	4,145	229,642	119,255
214,392	4,214	229,566	119,258
215,407	4,276	229,453	119,236
216,421	4,384	229,436	119,301
217,436	4,116	229,189	118,955
218,450	4,059	228,824	118,710
219,465	3,901	228,687	118,507
220,480	4,143	228,661	118,670
221,494	3,942	228,437	118,388
222,509	4,203	228,241	118,476
223,523	4,158	228,380	118,503
224,538	3,918	228,187	118,208
225,553	4,293	227,888	118,331
226,567	4,280	227,861	118,296
227,582	4,524	227,756	118,418
228,596	4,522	227,795	118,427
229,611	4,349	227,341	118,048
230,626	4,028	227,117	117,675
231,640	3,983	227,123	117,633
232,655	4,451	226,949	117,890
233,669	4,596	227,002	118,018
234,684	4,877	226,866	118,151
235,699	4,647	226,605	117,829
236,713	4,457	226,385	117,560
237,728	4,229	226,128	117,243
238,742	4,177	225,970	117,110
239,757	4,227	225,779	117,039
240,772	4,007	225,711	116,826
241,786	4,312	225,515	116,946
242,801	4,372	225,452	116,948
243,815	4,593	225,404	117,080
244,830	4,521	225,325	116,974
245,844	4,303	224,998	116,629
246,859	4,378	224,869	116,609
247,874	4,368	224,841	116,576
248,888	4,426	224,629	116,499
249,903	4,083	224,507	116,167
250,917	4,264	224,336	116,204
251,932	4,125	224,136	115,986
252,947	3,981	224,046	115,821
253,961	4,297	223,719	115,879
254,976	4,247	223,630	115,785
255,990	4,422	223,559	115,870
257,005	4,404	223,534	115,833
258,020	4,510	223,315	115,788
259,034	4,667	223,148	115,809
260,049	4,436	223,210	115,657
261,063	4,335	222,897	115,410
262,078	4,454	222,833	115,455
263,093	4,533	222,777	115,475
264,107	4,590	222,521	115,375
265,122	4,421	222,376	115,163
266,136	4,481	222,295	115,155
267,151	4,749	222,041	115,213
268,166	4,393	221,908	114,869
269,180	3,965	221,632	114,398
270,195	4,146	221,505	114,456
271,209	4,214	221,452	114,470
272,224	4,242	221,298	114,400
273,239	4,427	221,149	114,450
274,253	4,049	220,971	114,068
275,268	3,960	220,851	113,930
276,282	3,984	220,528	113,771
277,297	3,750	220,495	113,571
278,312	4,216	220,251	113,779
279,326	4,034	220,210	113,613
280,341	4,232	220,177	113,732
281,355	4,100	220,017	113,542
282,370	4,238	219,740	113,491
283,384	3,901	219,641	113,181
284,399	3,993	219,390	113,109
285,414	3,982	219,346	113,069
286,428	4,111	219,266	113,112
287,443	4,132	219,221	113,094
288,457	4,252	219,126	113,123
289,472	4,267	218,746	112,928
290,487	3,852	218,566	112,521
291,501	3,770	218,499	112,417
292,516	4,021	218,397	112,537
293,530	4,096	218,137	112,449
294,545	3,847	218,154	112,265
295,560	4,034	217,977	112,301
296,574	4,170	217,799	112,298
297,589	4,203	217,754	112,289
298,603	4,498	217,580	112,404
299,618	4,333	217,529	112,248
300,633	4,276	217,451	112,156
301,647	4,481	217,187	112,158
302,662	4,562	217,333	112,283
303,676	4,389	216,931	111,939
304,691	4,292	216,867	111,826
305,706	4,302	216,793	111,785
306,720	4,617	216,677	111,944
307,735	4,367	216,388	111,604
308,749	3,961	216,278	111,243
309,764	4,067	216,243	111,292
310,779	4,412	216,092	111,454
311,793	4,230	215,962	111,245
312,808	4,301	215,725	111,164
313,822	4,062	215,627	110,932
314,837	4,190	215,465	110,931
315,852	4,138	215,269	110,783
316,866	4,146	215,132	110,707
317,881	4,390	214,969	110,790
318,895	4,214	214,981	110,659
319,910	4,048	214,809	110,442
320,925	3,906	214,511	110,177
321,939	3,331	214,528	109,764
322,954	3,575	214,242	109,783
323,968	4,240	214,283	110,269
324,983	4,331	214,016	110,188
325,997	4,400	214,098	110,269
327,012	4,378	213,818	110,099
328,027	4,352	213,690	110,005
329,041	4,724	213,705	110,268
330,056	4,580	213,549	110,075
331,070	4,162	213,177	109,576
332,085	4,050	213,067	109,431
333,100	3,989	212,913	109,298
334,114	4,257	212,735	109,387
335,129	4,180	212,642	109,275
336,143	3,935	212,544	109,041
337,158	3,895	212,450	108,955
338,173	4,125	212,205	108,983
339,187	4,006	211,965	108,766
340,202	4,053	211,806	108,708
341,216	3,838	211,847	108,566
342,231	3,958	211,768	108,601
343,246	3,863	211,598	108,438
344,260	4,050	211,499	108,509
345,275	4,225	211,434	108,589
346,289	4,046	211,349	108,410
347,304	4,237	211,131	108,423
348,319	3,936	211,047	108,159
349,333	4,037	210,811	108,099
350,348	4,442	210,670	108,301
351,362	4,408	210,565	108,213
352,377	4,473	210,572	108,253
353,392	4,231	210,331	107,950
354,406	4,433	210,179	108,004
355,421	193,518	1345,180	1432,324
356,435	154,444	1483,546	1432,422
