DTS Sentinel unit serial number:	SN410029Multiplexer serial number:	ORYXHardware model number:	OX2-SRSoftware version number:	ORYX F/W v4,00 Oryx Data Collector v3.7.2.0data status	okinstallation	B6 Nyhavnadifferential loss correction	single-endedforward channel	channel 2reverse channel	N/Adate	2023/12/10time	08:55:09forward acquisition time	300,00reverse acquisition time	0,00gamma	499,1914k internal	0,3123k external	0,3123temperature offset calibration	1,0000default loss term (dB/km)	0,3820temperature slope calibration	1,0000multiplexer offset coefficient	1,0000multiplexer slope coefficient	1,0000fibre end	0,00T internal ref (°C)	22,56T ext. ref 1 (°C)	6,29T ext. ref 2 (°C)	6,26length (m)	temperature (°C)	Stokes	anti-Stokes-744,400	-44,630	-0,100	0,037
-743,385	38,524	-0,230	0,152
-742,371	480,696	0,096	-0,162
-741,356	327,601	-0,170	0,243
-740,342	-200,000	-0,028	0,175
-739,327	11,767	-0,310	0,177
-738,312	120,996	-0,041	-0,038
-737,298	-140,617	-0,291	-0,022
-736,283	60,141	0,112	0,082
-735,269	145,253	-0,218	0,217
-734,254	-200,000	0,009	0,034
-733,239	-113,908	-0,387	0,055
-732,225	-20,757	0,036	0,016
-731,210	800,000	-0,075	0,167
-730,196	-104,185	0,106	0,018
-729,181	235,157	-0,076	-0,094
-728,167	-200,000	0,014	0,115
-727,152	-129,097	-0,043	-0,004
-726,137	-164,530	-0,149	-0,005
-725,123	-92,957	-0,072	0,015
-724,108	-7,520	-0,165	-0,083
-723,094	159,699	-0,072	-0,075
-722,079	280,831	-0,083	0,111
-721,064	-32,638	0,026	0,011
-720,050	-119,836	-0,150	0,019
-719,035	-200,000	-0,045	0,272
-718,021	163,993	0,068	-0,071
-717,006	-161,656	-0,196	0,007
-715,991	-42,547	-0,130	-0,049
-714,977	53,449	-0,096	-0,069
-713,962	181,998	-0,091	-0,099
-712,948	-200,000	-0,002	0,050
-711,933	800,000	0,053	-0,135
-710,918	179,173	0,051	-0,056
-709,904	-80,054	0,091	0,023
-708,889	-200,000	0,022	0,097
-707,875	800,000	-0,032	-0,072
-706,860	366,928	0,038	-0,057
-705,845	-200,000	0,012	-0,082
-704,831	-200,000	0,030	0,111
-703,816	-96,241	0,079	0,015
-702,802	-91,046	-0,186	0,039
-701,787	800,000	0,014	-0,029
-700,772	-57,583	-0,030	0,010
-699,758	800,000	0,028	0,072
-698,743	-28,588	0,061	0,026
-697,729	24,221	0,056	-0,035
-696,714	-24,284	-0,037	-0,016
-695,699	25,899	0,056	-0,035
-694,685	-200,000	-0,007	0,067
-693,670	800,000	0,051	-0,132
-692,656	137,506	-0,103	-0,100
-691,641	-200,000	-0,007	0,041
-690,627	-200,000	-0,016	0,106
-689,612	86,862	-0,082	-0,067
-688,597	-36,632	0,078	-0,031
-687,583	800,000	-0,040	-0,099
-686,568	-200,000	0,007	-0,220
-685,554	209,779	0,028	-0,033
-684,539	-19,876	-0,050	-0,023
-683,524	295,947	-0,027	-0,038
-682,510	-200,000	0,026	-0,116
-681,495	11,734	-0,111	-0,063
-680,481	326,820	-0,064	-0,091
-679,466	800,000	-0,058	-0,165
-678,451	-200,000	-0,032	-0,157
-677,437	169,931	0,071	-0,076
-676,422	23,311	0,118	0,072
-675,408	-200,000	-0,023	0,122
-674,393	-20,363	-0,021	-0,010
-673,378	-200,000	-0,057	-0,251
-672,364	800,000	-0,028	-0,070
-671,349	100,875	-0,079	-0,069
-670,335	-200,000	-0,018	-0,063
-669,320	-200,000	-0,013	-0,062
-668,305	25,463	-0,079	-0,049
-667,291	-132,765	-0,215	-0,020
-666,276	-101,829	-0,040	-0,007
-665,262	800,000	-0,021	-0,055
-664,247	172,282	-0,069	-0,073
-663,232	40,466	-0,083	-0,056
-662,218	-9,859	0,191	0,094
-661,203	800,000	-0,034	-0,070
-660,189	-106,059	0,169	-0,028
-659,174	273,556	-0,037	-0,048
-658,159	-200,000	-0,035	0,122
-657,145	398,825	-0,020	-0,032
-656,130	800,000	0,009	0,024
-655,116	800,000	-0,015	0,032
-654,101	248,722	-0,092	0,116
-653,086	115,499	-0,077	0,070
-652,072	181,877	-0,031	0,034
-651,057	-200,000	0,013	0,050
-650,043	-123,355	-0,109	0,013
-649,028	-112,012	0,109	-0,016
-648,014	-200,000	0,014	-0,117
-646,999	-104,777	0,045	0,008
-645,984	-200,000	0,002	0,035
-644,970	50,971	-0,066	-0,046
-643,955	58,450	-0,026	0,019
-642,941	688,291	0,064	-0,125
-641,926	-160,572	-0,033	0,001
-640,911	475,792	-0,026	0,043
-639,897	800,000	0,021	0,063
-638,882	333,847	-0,065	0,094
-637,868	62,325	-0,079	-0,059
-636,853	-123,197	-0,088	0,010
-635,838	-72,678	-0,059	0,016
-634,824	-200,000	0,004	0,033
-633,809	-85,163	0,048	-0,011
-632,795	-200,000	-0,018	0,122
-631,780	-75,390	0,120	0,032
-630,765	-200,000	0,011	-0,140
-629,751	-123,530	-0,069	-0,008
-628,736	-62,058	-0,180	0,055
-627,722	800,000	0,042	-0,096
-626,707	-176,900	0,116	-0,002
-625,692	-73,185	0,228	-0,062
-624,678	800,000	-0,040	0,116
-623,663	-200,000	0,005	0,055
-622,649	313,821	-0,079	-0,110
-621,634	800,000	-0,059	-0,166
-620,619	-173,911	-0,105	-0,002
-619,605	558,198	0,006	0,010
-618,590	350,190	-0,033	0,049
-617,576	291,793	0,092	-0,124
-616,561	217,507	-0,024	-0,029
-615,546	800,000	-0,040	0,089
-614,532	-48,841	-0,040	-0,014
-613,517	191,359	-0,031	-0,034
-612,503	96,848	-0,065	-0,055
-611,488	2,749	0,108	0,058
-610,474	-200,000	-0,010	0,138
-609,459	-200,000	0,007	0,039
-608,444	40,279	-0,194	-0,129
-607,430	305,772	0,084	-0,116
-606,415	112,817	-0,028	0,025
-605,401	502,325	0,033	0,057
-604,386	800,000	-0,031	0,075
-603,371	800,000	0,039	0,085
-602,357	-200,000	-0,033	0,171
-601,342	-128,616	-0,047	-0,005
-600,328	99,149	0,090	-0,077
-599,313	37,554	0,048	-0,032
-598,298	-146,044	-0,145	-0,009
-597,284	124,565	0,097	0,091
-596,269	-5,516	-0,055	0,028
-595,255	-137,064	-0,072	0,006
-594,240	800,000	0,035	-0,081
-593,225	-46,654	-0,169	0,061
-592,211	-114,996	-0,094	-0,013
-591,196	800,000	-0,057	0,119
-590,182	112,928	-0,107	-0,096
-589,167	-200,000	0,071	0,237
-588,152	-141,847	0,066	-0,005
-587,138	-126,705	0,009	-0,001
-586,123	-200,000	-0,009	0,062
-585,109	499,110	0,038	0,064
-584,094	257,362	0,022	0,028
-583,079	-75,161	0,069	-0,018
-582,065	-53,168	0,050	-0,017
-581,050	211,048	-0,085	-0,099
-580,036	-2,220	0,054	-0,028
-579,021	67,762	-0,075	-0,056
-578,006	-200,000	-0,008	-0,032
-576,992	-200,000	0,016	-0,087
-575,977	243,507	0,039	0,049
-574,963	800,000	0,056	0,120
-573,948	338,237	0,055	0,079
-572,934	-200,000	0,012	0,074
-571,919	-200,000	0,006	-0,099
-570,904	-200,000	-0,015	0,053
-569,890	-200,000	0,011	-0,045
-568,875	469,987	-0,017	-0,029
-567,861	-140,887	-0,103	0,008
-566,846	338,600	0,082	0,119
-565,831	800,000	0,015	-0,043
-564,817	167,669	0,023	0,025
-563,802	-143,997	-0,111	-0,008
-562,788	800,000	0,043	-0,101
-561,773	79,817	-0,040	0,031
-560,758	-75,428	-0,061	0,016
-559,744	-10,083	0,070	0,034
-558,729	103,767	-0,107	0,093
-557,715	-78,644	0,123	-0,031
-556,700	-200,000	0,034	-0,114
-555,685	800,000	-0,075	-0,175
-554,671	-123,866	0,073	-0,008
-553,656	223,604	0,057	0,068
-552,642	343,198	0,105	0,152
-551,627	16,254	-0,022	0,013
-550,612	195,283	-0,056	0,063
-549,598	-200,000	-0,004	0,018
-548,583	61,655	-0,035	-0,025
-547,569	-34,207	0,034	-0,014
-546,554	800,000	0,022	-0,052
-545,539	-121,130	0,129	0,016
-544,525	-200,000	0,025	0,086
-543,510	-124,888	-0,029	0,003
-542,496	-128,036	-0,047	-0,005
-541,481	-200,000	-0,023	0,084
-540,466	131,988	-0,061	0,058
-539,452	146,908	0,004	0,004
-538,437	-200,000	0,009	0,041
-537,423	71,363	-0,044	0,034
-536,408	-92,699	-0,126	0,026
-535,393	90,824	-0,049	-0,041
-534,379	37,469	-0,084	0,055
-533,364	-66,867	0,100	0,029
-532,350	-200,000	0,003	0,016
-531,335	-200,000	-0,023	-0,093
-530,321	-95,509	0,007	-0,001
-529,306	265,928	-0,031	0,040
-528,291	-76,837	0,100	0,026
-527,277	-200,000	0,001	0,037
-526,262	796,146	-0,034	-0,070
-525,248	-66,632	0,035	0,010
-524,233	-200,000	-0,010	-0,059
-523,218	-200,000	-0,031	-0,102
-522,204	112,472	0,106	-0,095
-521,189	170,793	0,014	0,015
-520,175	247,702	-0,113	-0,142
-519,160	130,609	0,078	-0,074
-518,145	175,580	0,083	0,089
-517,131	113,081	0,033	-0,029
-516,116	409,474	-0,044	-0,069
-515,102	-200,000	0,007	0,074
-514,087	-200,000	-0,017	-0,098
-513,072	-139,543	-0,114	0,009
-512,058	-200,000	-0,006	0,094
-511,043	180,942	0,032	0,035
-510,029	800,000	0,012	0,026
-509,014	567,503	-0,031	-0,055
-507,999	-200,000	0,001	-0,041
-506,985	492,750	0,049	-0,084
-505,970	-200,000	-0,026	-0,247
-504,956	-200,000	-0,024	-0,148
-503,941	638,953	-0,029	0,055
-502,926	231,900	-0,068	0,083
-501,912	-200,000	-0,006	-0,023
-500,897	321,162	0,060	0,084
-499,883	99,302	-0,056	-0,048
-498,868	-26,822	-0,076	-0,033
-497,853	-98,352	0,031	-0,006
-496,839	-75,991	-0,130	0,034
-495,824	-106,345	0,050	-0,008
-494,810	-68,851	0,088	-0,025
-493,795	7,005	-0,056	-0,031
-492,781	431,682	0,049	-0,079
-491,766	-200,000	-0,001	-0,033
-490,751	-35,021	0,015	0,006
-489,737	1,466	0,111	-0,059
-488,722	-141,858	0,169	-0,012
-487,708	45,275	0,087	-0,059
-486,693	800,000	-0,027	-0,067
-485,678	618,398	0,025	0,046
-484,664	-21,690	0,038	-0,017
-483,649	-71,807	0,114	-0,031
-482,635	54,059	0,109	-0,077
-481,620	-200,000	0,021	0,097
-480,605	800,000	-0,041	0,099
-479,591	-7,757	0,075	0,037
-478,576	144,077	-0,091	-0,089
-477,562	202,515	-0,088	-0,100
-476,547	486,599	0,021	0,035
-475,532	800,000	0,036	-0,082
-474,518	146,879	-0,090	0,089
-473,503	800,000	-0,017	-0,049
-472,489	-1,249	0,028	-0,015
-471,474	48,441	-0,029	0,020
-470,459	800,000	0,048	-0,109
-469,445	-200,000	-0,046	-0,167
-468,430	61,024	0,116	-0,085
-467,416	-200,000	-0,013	0,089
-466,401	187,190	-0,038	0,042
-465,386	522,896	0,031	-0,054
-464,372	188,517	-0,041	0,045
-463,357	-47,397	-0,037	-0,013
-462,343	-103,559	0,090	0,015
-461,328	321,581	-0,015	-0,021
-460,313	-200,000	-0,042	-0,199
-459,299	161,870	0,036	-0,037
-458,284	-81,423	0,087	-0,021
-457,270	-196,022	-0,091	-0,000
-456,255	24,013	0,119	0,072
-455,241	132,535	-0,153	-0,145
-454,226	-72,517	-0,091	0,025
-453,211	219,289	-0,081	0,095
-452,197	-200,000	-0,013	0,068
-451,182	-200,000	-0,015	0,132
-450,168	-8,842	0,090	-0,044
-449,153	-28,736	-0,069	-0,029
-448,138	73,614	-0,118	-0,091
-447,124	0,567	-0,046	-0,024
-446,109	447,602	0,017	-0,027
-445,095	-71,603	0,163	0,045
-444,080	-55,534	0,092	-0,030
-443,065	-200,000	0,019	0,132
-442,051	800,000	-0,027	0,073
-441,036	-200,000	0,013	-0,052
-440,022	53,452	-0,137	-0,097
-439,007	800,000	0,015	0,048
-437,992	-172,226	0,085	0,002
-436,978	-200,000	-0,007	0,146
-435,963	231,183	0,076	0,092
-434,949	475,141	-0,009	-0,015
-433,934	129,311	0,071	0,067
-432,919	-49,252	-0,139	-0,049
-431,905	-68,745	-0,039	0,011
-430,890	-165,881	0,090	0,003
-429,876	-200,000	-0,004	-0,046
-428,861	63,877	-0,094	0,070
-427,846	-200,000	-0,011	-0,117
-426,832	800,000	0,038	-0,099
-425,817	-4,968	-0,090	0,045
-424,803	-74,141	0,083	-0,022
-423,788	-119,003	-0,072	-0,009
-422,773	166,267	0,058	0,061
-421,759	62,131	0,113	0,083
-420,744	-200,000	-0,016	-0,130
-419,730	498,393	0,052	-0,089
-418,715	-133,040	0,056	-0,005
-417,701	11,293	0,063	-0,035
-416,686	-200,000	-0,020	-0,122
-415,671	95,591	0,070	-0,059
-414,657	-200,000	0,022	0,100
-413,642	517,676	0,047	-0,081
-412,628	-50,321	-0,086	-0,030
-411,613	97,897	-0,122	-0,103
-410,598	-37,435	0,051	0,020
-409,584	-200,000	0,005	-0,038
-408,569	-127,846	0,097	0,010
-407,555	-117,129	0,111	0,015
-406,540	428,006	0,017	0,027
-405,525	-79,689	-0,107	0,026
-404,511	137,799	-0,104	-0,100
-403,496	-200,000	-0,009	0,045
-402,482	800,000	0,047	-0,133
-401,467	-13,147	0,052	0,025
-400,452	-62,349	-0,079	-0,024
-399,438	78,906	-0,053	0,042
-398,423	540,024	0,030	-0,053
-397,409	800,000	-0,029	-0,060
-396,394	279,208	-0,073	-0,096
-395,379	800,000	-0,016	0,045
-394,365	166,017	0,028	-0,030
-393,350	67,538	-0,069	-0,051
-392,336	4,389	0,075	-0,041
-391,321	-200,000	-0,011	-0,082
-390,306	800,000	-0,011	-0,033
-389,292	-56,027	-0,068	-0,022
-388,277	314,462	-0,069	-0,095
-387,263	-117,077	0,134	0,018
-386,248	-200,000	-0,003	-0,045
-385,233	125,929	-0,079	-0,073
-384,219	-108,735	0,086	0,013
-383,204	-41,912	-0,148	0,055
-382,190	707,445	-0,021	-0,040
-381,175	66,399	0,105	-0,079
-380,160	-87,967	0,077	-0,017
-379,146	596,805	0,081	0,149
-378,131	-19,852	0,064	0,029
-377,117	264,669	-0,099	-0,127
-376,102	-200,000	-0,006	-0,033
-375,088	-200,000	-0,026	-0,101
-374,073	561,253	0,041	-0,072
-373,058	-200,000	-0,002	0,026
-372,044	-9,293	0,058	0,028
-371,029	800,000	-0,061	0,141
-370,015	-200,000	-0,004	0,204
-369,000	96,183	-0,077	0,065
-367,985	-119,471	-0,169	0,021
-366,971	739,559	-0,028	0,056
-365,956	-137,810	0,158	0,013
-364,942	-200,000	0,021	0,111
-363,927	-31,556	-0,019	-0,008
-362,912	-79,855	-0,097	-0,024
-361,898	800,000	-0,057	-0,142
-360,883	104,972	0,124	0,108
-359,869	-55,401	-0,082	-0,027
-358,854	336,085	0,052	0,075
-357,839	-200,000	0,004	0,058
-356,825	-200,000	-0,010	-0,043
-355,810	800,000	0,036	0,084
-354,796	800,000	-0,043	-0,115
-353,781	248,128	-0,051	0,064
-352,766	-65,785	-0,101	0,029
-351,752	800,000	-0,033	-0,072
-350,737	67,989	0,153	0,115
-349,723	564,884	0,113	0,201
-348,708	-13,148	0,115	0,055
-347,693	-200,000	0,006	0,057
-346,679	800,000	-0,030	-0,068
-345,664	57,048	-0,062	-0,045
-344,650	-200,000	0,041	-0,197
-343,635	-25,588	0,178	-0,077
-342,620	371,775	-0,050	0,074
-341,606	270,521	0,064	-0,082
-340,591	530,608	0,015	-0,027
-339,577	-200,000	0,003	0,061
-338,562	-200,000	-0,008	-0,048
-337,548	156,717	-0,090	0,091
-336,533	185,092	0,024	0,026
-335,518	800,000	0,030	0,095
-334,504	-200,000	-0,008	0,042
-333,489	38,287	0,086	-0,056
-332,475	-200,000	-0,029	-0,112
-331,460	-96,499	-0,082	-0,016
-330,445	-59,352	0,030	0,010
-329,431	-176,140	-0,047	-0,001
-328,416	397,522	0,059	0,091
-327,402	289,242	-0,087	-0,116
-326,387	-116,142	0,035	0,005
-325,372	-137,076	-0,128	-0,011
-324,358	-93,316	-0,140	-0,028
-323,343	275,888	-0,053	-0,069
-322,329	-133,587	0,124	0,011
-321,314	-200,000	0,014	0,188
-320,299	-126,458	-0,129	0,014
-319,285	174,443	-0,083	0,088
-318,270	320,346	-0,108	0,151
-317,256	-152,723	-0,066	-0,003
-316,241	-48,064	0,109	-0,039
-315,226	-109,376	-0,117	0,018
-314,212	-200,000	0,000	-0,005
-313,197	118,935	0,054	-0,049
-312,183	530,648	0,048	-0,084
-311,168	-200,000	-0,019	0,134
-310,153	-116,231	0,040	0,005
-309,139	84,617	-0,058	-0,047
-308,124	0,289	0,157	0,082
-307,110	-112,174	-0,121	-0,018
-306,095	69,218	0,126	0,095
-305,080	-200,000	-0,007	0,100
-304,066	5,433	-0,038	0,021
-303,051	798,568	0,087	-0,177
-302,037	105,369	-0,056	0,048
-301,022	35,710	-0,053	0,034
-300,008	-200,000	0,008	0,097
-298,993	-85,608	-0,054	-0,012
-297,978	800,000	-0,063	0,135
-296,964	800,000	-0,060	0,172
-295,949	327,330	0,047	-0,066
-294,935	22,072	0,078	-0,047
-293,920	-183,199	-0,049	-0,001
-292,905	-200,000	-0,006	0,032
-291,891	372,096	0,039	0,058
-290,876	80,603	0,087	-0,068
-289,862	69,965	-0,057	0,043
-288,847	-19,573	-0,028	0,013
-287,832	-129,770	-0,142	-0,014
-286,818	800,000	0,048	-0,141
-285,803	699,987	-0,054	-0,105
-284,789	-200,000	-0,047	0,197
-283,774	-93,085	0,145	-0,029
-282,759	-118,989	0,095	0,012
-281,745	-51,866	-0,088	0,030
-280,730	68,768	-0,060	0,045
-279,716	800,000	0,017	-0,039
-278,701	400,489	0,048	0,074
-277,686	-125,563	0,083	0,009
-276,672	39,552	-0,015	-0,010
-275,657	-200,000	-0,012	0,072
-274,643	100,912	-0,041	0,035
-273,628	-199,370	-0,195	-0,001
-272,613	3,519	0,036	-0,019
-271,599	-108,756	0,029	0,005
-270,584	84,056	-0,119	0,095
-269,570	-200,000	-0,002	0,051
-268,555	800,000	0,012	0,027
-267,540	800,000	0,024	-0,064
-266,526	-130,121	-0,176	0,017
-265,511	-200,000	0,026	0,104
-264,497	-151,774	0,140	0,007
-263,482	-141,213	0,118	0,009
-262,467	800,000	-0,014	0,036
-261,453	102,410	0,085	0,073
-260,438	45,800	0,035	-0,023
-259,424	67,127	0,086	-0,064
-258,409	-32,535	-0,078	-0,032
-257,395	-110,329	0,167	0,025
-256,380	322,618	0,032	-0,045
-255,365	790,643	0,032	-0,064
-254,351	397,817	0,053	0,081
-253,336	-24,293	0,072	0,031
-252,322	800,000	0,064	-0,131
-251,307	66,406	0,047	0,035
-250,292	-148,564	0,105	-0,006
-249,278	159,289	-0,077	0,078
-248,263	-125,384	-0,010	0,001
-247,249	-200,000	0,012	0,105
-246,234	-200,000	-0,017	0,068
-245,219	-22,146	-0,036	0,016
-244,205	277,203	0,060	-0,078
-243,190	800,000	-0,014	0,033
-242,176	162,569	-0,075	-0,077
-241,161	276,766	0,025	0,033
-240,146	142,721	0,050	-0,048
-239,132	-200,000	0,010	0,077
-238,117	-126,917	-0,125	-0,013
-237,103	-24,629	-0,130	0,056
-236,088	-200,000	0,012	-0,045
-235,073	47,870	0,071	-0,049
-234,059	-85,998	-0,127	0,028
-233,044	15,541	0,092	-0,053
-232,030	226,165	0,054	-0,064
-231,015	485,584	-0,095	-0,158
-230,000	800,000	0,044	0,100
-228,986	800,000	-0,042	0,104
-227,971	222,736	0,100	-0,118
-226,957	-94,661	0,072	-0,014
-225,942	-137,153	0,049	-0,004
-224,927	15,542	-0,067	-0,038
-223,913	-50,516	0,072	-0,025
-222,898	-200,000	-0,004	-0,049
-221,884	386,862	0,093	-0,141
-220,869	800,000	0,042	-0,099
-219,855	64,677	-0,071	0,052
-218,840	800,000	0,006	0,013
-217,825	0,185	-0,098	0,051
-216,811	633,650	-0,049	0,091
-215,796	-200,000	-0,004	0,024
-214,782	18,049	-0,071	0,041
-213,767	-10,408	-0,068	-0,033
-212,752	-200,000	0,002	0,044
-211,738	-43,361	0,062	-0,023
-210,723	175,142	-0,024	-0,026
-209,709	-119,818	0,056	0,007
-208,694	483,091	0,142	-0,236
-207,679	360,958	-0,019	0,028
-206,665	-200,000	-0,001	-0,044
-205,650	483,393	0,114	0,191
-204,636	-106,741	0,128	-0,021
-203,621	-123,391	0,120	-0,014
-202,606	-91,948	-0,167	0,034
-201,592	541,365	0,028	0,049
-200,577	446,644	-0,053	-0,085
-199,563	-200,000	0,025	0,117
-198,548	285,363	0,112	0,148
-197,533	-200,000	0,002	0,130
-196,519	0,861	0,062	0,032
-195,504	-118,504	0,058	-0,007
-194,490	142,497	-0,029	0,028
-193,475	-27,470	-0,118	0,050
-192,460	800,000	-0,048	0,102
-191,446	197,081	0,087	0,097
-190,431	-200,000	0,009	0,037
-189,417	57,192	-0,077	-0,055
-188,402	800,000	0,026	-0,076
-187,387	145,337	-0,106	-0,104
-186,373	-119,074	-0,111	0,014
-185,358	800,000	-0,064	0,137
-184,344	19,122	0,081	-0,047
-183,329	-178,302	0,083	0,001
-182,315	800,000	0,019	-0,045
-181,300	-200,000	-0,007	-0,084
-180,285	275,123	0,094	-0,121
-179,271	-124,821	0,080	0,009
-178,256	56,678	-0,025	0,018
-177,242	376,197	-0,080	-0,119
-176,227	-200,000	-0,015	0,162
-175,212	-200,000	-0,015	0,111
-174,198	104,404	-0,072	0,062
-173,183	359,037	-0,105	-0,154
-172,169	-5,464	-0,126	-0,063
-171,154	99,977	0,023	-0,019
-170,139	-200,000	0,016	-0,054
-169,125	-103,359	0,073	-0,012
-168,110	275,419	0,106	-0,137
-167,096	188,621	-0,088	0,096
-166,081	346,674	-0,034	-0,049
-165,066	800,000	0,013	0,038
-164,052	72,728	-0,082	0,063
-163,037	418,217	-0,073	0,114
-162,023	800,000	0,071	0,195
-161,008	800,000	0,021	-0,053
-159,993	123,687	0,029	-0,026
-158,979	-200,000	0,004	-0,054
-157,964	15,304	0,039	-0,022
-156,950	-200,000	0,006	0,080
-155,935	-200,000	-0,005	0,083
-154,920	800,000	-0,048	-0,112
-153,906	-200,000	0,002	-0,034
-152,891	-96,561	0,030	0,006
-151,877	-59,899	0,124	-0,039
-150,862	646,495	0,025	-0,046
-149,847	800,000	0,013	0,036
-148,833	3,464	-0,103	-0,055
-147,818	-134,521	-0,096	-0,008
-146,804	143,240	0,030	0,029
-145,789	-200,000	-0,017	0,110
-144,775	250,440	-0,030	0,037
-143,760	124,460	-0,024	-0,022
-142,745	88,802	-0,096	0,078
-141,731	-200,000	0,016	0,122
-140,716	28,716	0,024	-0,014
-139,702	90,602	0,033	-0,027
-138,687	702,464	0,051	0,099
-137,672	3,246	-0,109	0,058
-136,658	-200,000	-0,026	-0,102
-135,643	800,000	0,036	0,076
-134,629	-200,000	0,014	0,071
-133,614	608,013	0,070	0,127
-132,599	-200,000	-0,012	0,121
-131,585	-153,687	-0,118	-0,006
-130,570	121,983	-0,061	0,056
-129,556	-200,000	-0,005	0,126
-128,541	-27,436	-0,085	-0,036
-127,526	-200,000	0,015	-0,061
-126,512	-75,850	0,141	0,036
-125,497	-181,187	0,178	0,003
-124,483	-200,000	0,044	0,200
-123,468	800,000	-0,052	0,119
-122,453	-200,000	0,025	-0,111
-121,439	800,000	0,033	-0,085
-120,424	468,873	-0,093	-0,152
-119,410	269,582	-0,071	0,091
-118,395	-137,256	-0,119	0,010
-117,380	-32,136	0,065	0,026
-116,366	-200,000	0,003	-0,179
-115,351	-7,148	-0,033	0,016
-114,337	303,344	0,024	0,032
-113,322	22,167	0,089	-0,053
-112,307	143,254	0,056	0,054
-111,293	800,000	0,067	0,184
-110,278	-200,000	-0,006	0,127
-109,264	206,817	-0,061	0,070
-108,249	-200,000	0,005	-0,019
-107,234	-200,000	-0,014	-0,103
-106,220	-92,762	0,037	-0,007
-105,205	-69,991	0,075	-0,021
-104,191	-147,623	0,124	-0,007
-103,176	-200,000	-0,004	-0,031
-102,162	152,982	0,093	0,092
-101,147	139,780	-0,075	-0,071
-100,132	93,284	-0,091	-0,075
-99,118	800,000	0,002	0,004
-98,103	-37,813	0,133	-0,051
-97,089	45,015	0,060	0,040
-96,074	15,007	-0,104	-0,059
-95,059	-164,492	-0,044	0,001
-94,045	468,787	0,037	0,060
-93,030	-123,480	-0,119	-0,014
-92,016	172,469	0,032	-0,034
-91,001	68,166	-0,031	-0,023
-89,986	494,652	-0,037	0,062
-88,972	-200,000	-0,006	0,026
-87,957	303,244	0,053	0,071
-86,943	128,825	-0,151	-0,140
-85,928	-74,618	0,177	-0,046
-84,913	-143,043	0,174	-0,012
-83,899	38,686	-0,135	0,087
-82,884	-200,000	-0,032	0,113
-81,870	800,000	0,040	0,109
-80,855	102,172	-0,079	0,067
-79,840	74,379	-0,039	-0,030
-78,826	-65,551	-0,060	-0,017
-77,811	-200,000	-0,005	-0,091
-76,797	-100,405	-0,136	0,024
-75,782	-18,968	0,101	0,045
-74,767	-132,445	-0,079	0,007
-73,753	-7,199	-0,089	0,044
-72,738	228,092	0,061	0,073
-71,724	-84,912	-0,079	0,018
-70,709	133,622	-0,053	0,049
-69,694	800,000	-0,018	-0,052
-68,680	297,452	-0,049	0,066
-67,665	628,187	-0,035	0,064
-66,651	-22,108	-0,060	0,026
-65,636	-35,507	0,086	0,034
-64,622	207,309	-0,095	0,107
-63,607	-200,000	0,004	-0,015
-62,592	796,173	-0,041	-0,082
-61,578	642,836	-0,035	-0,066
-60,563	-32,209	0,076	-0,031
-59,549	800,000	-0,055	0,115
-58,534	-153,503	-1,269	-0,063
-57,519	512,407	-0,881	-1,496
-56,505	-200,000	-0,925	-4,392
-55,490	18,421	0,587	-0,339
-54,476	800,000	4,846	11,734
-53,461	-200,000	13,427	253,724
-52,446	-200,000	689,206	2268,408
-51,432	595,150	1622,877	2925,931
-50,417	120,633	1635,877	1475,174
-49,403	73,641	1289,876	979,541
-48,388	38,380	1024,995	661,331
-47,373	24,552	982,282	588,291
-46,359	23,732	972,099	579,479
-45,344	22,778	967,962	573,871
-44,330	22,699	966,470	572,705
-43,315	22,639	965,134	571,697
-42,300	22,590	963,885	570,775
-41,286	22,646	962,893	570,345
-40,271	22,633	962,141	569,835
-39,257	22,575	961,199	569,068
-38,242	22,518	960,278	568,314
-37,227	22,565	959,368	567,906
-36,213	22,548	958,503	567,315
-35,198	22,571	957,485	566,763
-34,184	22,614	957,024	566,609
-33,169	22,576	956,113	565,925
-32,154	22,603	955,197	565,446
-31,140	22,634	954,305	564,997
-30,125	22,585	953,545	564,366
-29,111	22,629	952,741	564,009
-28,096	22,622	952,042	563,550
-27,082	22,594	951,379	563,047
-26,067	22,584	950,677	562,575
-25,052	22,606	949,973	562,209
-24,038	22,595	949,274	561,735
-23,023	22,609	948,562	561,337
-22,009	22,606	947,902	560,915
-20,994	22,666	947,262	560,708
-19,979	22,621	946,675	560,193
-18,965	22,589	946,238	559,808
-17,950	22,609	945,439	559,378
-16,936	22,567	944,729	558,802
-15,921	22,528	944,051	558,255
-14,906	22,509	943,396	557,784
-13,892	22,474	942,743	557,265
-12,877	22,498	942,128	556,955
-11,863	22,400	941,437	556,213
-10,848	22,437	941,208	556,174
-9,833	22,611	940,571	556,327
-8,819	22,591	939,808	555,791
-7,804	22,508	939,190	555,141
-6,790	22,481	938,732	554,761
-5,775	22,556	938,059	554,578
-4,760	22,542	937,188	554,000
-3,746	22,461	936,869	553,532
-2,731	22,329	936,103	552,641
-1,717	22,337	935,344	552,195
-0,702	22,376	934,472	551,783
0,313	22,094	934,084	551,496
1,327	25,158	931,968	559,835
2,342	34,764	796,730	504,202
3,356	32,802	451,860	282,972
4,371	1,669	293,799	152,925
5,386	-2,697	274,667	138,823
6,400	-4,121	268,843	134,546
7,415	-4,614	266,477	132,896
8,429	-4,288	265,148	132,520
9,444	-4,346	264,350	132,057
10,459	-4,186	263,592	131,811
11,473	-4,311	263,121	131,451
12,488	-4,437	262,514	131,022
13,502	-4,684	262,213	130,636
14,517	-4,383	261,639	130,611
15,531	-4,295	261,329	130,524
16,546	-4,273	260,890	130,312
17,561	-4,316	260,508	130,071
18,575	-4,242	260,294	130,020
19,590	-4,407	259,878	129,652
20,604	-4,410	259,604	129,502
21,619	-4,459	259,341	129,315
22,634	-4,516	259,105	129,134
23,648	-4,557	258,750	128,910
24,663	-4,447	258,344	128,794
25,677	-4,206	258,121	128,885
26,692	-4,475	257,920	128,534
27,707	-4,310	257,556	128,488
28,721	-4,456	257,473	128,306
29,736	-4,487	257,201	128,132
30,750	-4,595	256,830	127,840
31,765	-4,438	256,605	127,855
32,780	-4,536	256,397	127,653
33,794	-4,475	256,260	127,627
34,809	-4,410	255,890	127,490
35,823	-4,430	255,720	127,375
36,838	-4,370	255,443	127,279
37,853	-4,477	255,143	127,024
38,867	-4,366	254,837	126,958
39,882	-4,646	254,734	126,650
40,896	-4,614	254,640	126,619
41,911	-4,658	254,361	126,431
42,926	-4,561	254,216	126,433
43,940	-4,608	253,978	126,262
44,955	-4,643	253,743	126,104
45,969	-4,769	253,550	125,886
46,984	-4,921	253,279	125,608
47,999	-4,925	252,860	125,386
49,013	-5,144	252,718	125,114
50,028	-5,085	252,431	125,011
51,042	-5,328	252,225	124,687
52,057	-5,416	251,965	124,472
53,071	-5,379	251,855	124,438
54,086	-5,287	251,610	124,386
55,101	-5,181	251,473	124,399
56,115	-4,929	251,348	124,543
57,130	-4,638	251,337	124,778
58,144	-4,367	251,130	124,899
59,159	-4,215	250,846	124,877
60,174	-4,378	250,710	124,658
61,188	-4,366	250,386	124,496
62,203	-4,317	250,174	124,421
63,217	-4,389	249,977	124,251
64,232	-4,394	249,868	124,181
65,247	-4,446	249,676	124,030
66,261	-4,163	249,383	124,115
67,276	-4,704	249,136	123,518
68,290	-4,747	248,989	123,398
69,305	-4,985	248,714	123,048
70,320	-4,784	248,482	123,093
71,334	-4,530	248,510	123,313
72,349	-4,353	248,379	123,388
73,363	-4,253	248,046	123,297
74,378	-4,465	247,850	123,007
75,393	-4,476	247,699	122,912
76,407	-4,402	247,510	122,871
77,422	-4,476	247,229	122,657
78,436	-4,509	247,095	122,553
79,451	-4,318	246,837	122,575
80,466	-4,568	246,596	122,232
81,480	-4,537	246,250	122,076
82,495	-4,723	246,319	121,942
83,509	-4,616	245,995	121,862
84,524	-4,643	245,840	121,751
85,539	-4,712	245,569	121,548
86,553	-4,720	245,423	121,459
87,568	-4,548	245,111	121,438
88,582	-4,633	245,047	121,324
89,597	-4,570	244,972	121,328
90,611	-4,562	244,736	121,207
91,626	-4,543	244,756	121,223
92,641	-4,437	244,385	121,117
93,655	-4,503	244,159	120,939
94,670	-4,311	243,903	120,961
95,684	-4,536	243,894	120,758
96,699	-4,720	243,673	120,485
97,714	-4,628	243,435	120,433
98,728	-4,796	243,303	120,217
99,743	-4,922	243,081	119,992
100,757	-4,684	242,753	120,017
101,772	-4,706	242,595	119,909
102,787	-4,736	242,557	119,855
103,801	-4,648	242,366	119,823
104,816	-4,490	242,253	119,887
105,830	-4,428	242,060	119,833
106,845	-4,424	241,843	119,718
107,860	-4,468	241,646	119,574
108,874	-4,561	241,434	119,381
109,889	-4,637	241,232	119,208
110,903	-4,567	240,970	119,125
111,918	-4,777	240,883	118,899
112,933	-4,657	240,800	118,946
113,947	-4,428	240,701	119,075
114,962	-4,589	240,411	118,789
115,976	-4,793	240,376	118,594
116,991	-4,451	240,089	118,722
118,006	-4,525	239,944	118,579
119,020	-4,587	239,846	118,469
120,035	-4,605	239,704	118,373
121,049	-4,500	239,512	118,354
122,064	-4,516	239,305	118,228
123,079	-4,666	239,257	118,071
124,093	-4,704	238,932	117,869
125,108	-4,861	238,786	117,659
126,122	-4,969	238,399	117,370
127,137	-5,039	238,374	117,290
128,151	-4,773	238,122	117,371
129,166	-4,682	237,875	117,314
130,181	-4,958	237,733	117,009
131,195	-4,894	237,602	116,986
132,210	-4,732	237,463	117,038
133,224	-4,625	237,326	117,047
134,239	-4,657	237,210	116,954
135,254	-4,488	236,898	116,926
136,268	-4,734	236,721	116,629
137,283	-4,784	236,372	116,406
138,297	-5,006	236,324	116,194
139,312	-4,926	236,083	116,129
140,327	-4,769	236,091	116,249
141,341	-3,922	235,919	116,836
142,356	-4,189	235,866	116,584
143,370	-4,253	235,647	116,414
144,385	-4,140	235,516	116,430
145,400	-4,255	235,380	116,261
146,414	-4,285	235,311	116,191
147,429	-4,015	234,918	116,203
148,443	-4,082	234,773	116,067
149,458	-4,224	234,788	115,951
150,473	-4,202	234,480	115,806
151,487	-4,218	234,334	115,711
152,502	-4,038	234,094	115,726
153,516	-3,819	233,910	115,799
154,531	-4,148	233,904	115,524
155,546	-4,361	233,717	115,251
156,560	-4,549	233,620	115,044
157,575	-4,346	233,263	115,019
158,589	-4,279	233,179	115,020
159,604	-4,324	233,122	114,946
160,619	-4,102	232,757	114,932
161,633	-4,084	232,748	114,932
162,648	-4,164	232,634	114,802
163,662	-4,280	232,385	114,577
164,677	-4,150	232,183	114,569
165,692	-4,217	232,012	114,422
166,706	-4,041	231,944	114,517
167,721	-3,913	231,815	114,544
168,735	-4,196	231,658	114,233
169,750	-3,973	231,534	114,338
170,764	-4,227	231,405	114,064
171,779	-4,045	231,124	114,059
172,794	-4,305	231,200	113,881
173,808	-4,225	230,789	113,732
174,823	-4,819	230,541	113,133
175,837	-4,847	230,386	113,025
176,852	-4,224	230,273	113,448
177,867	-4,214	230,221	113,420
178,881	-4,239	230,165	113,362
179,896	-4,236	229,918	113,233
180,910	-4,130	229,743	113,220
181,925	-4,015	229,597	113,227
182,940	-4,033	229,532	113,171
183,954	-4,175	229,441	113,005
184,969	-3,947	229,152	113,030
185,983	-3,895	229,142	113,056
186,998	-3,950	228,887	112,877
188,013	-3,953	228,742	112,793
189,027	-3,904	228,618	112,760
190,042	-3,968	228,475	112,630
191,056	-4,016	228,378	112,535
192,071	-4,075	228,100	112,342
193,086	-3,900	227,867	112,353
194,100	-3,777	227,786	112,398
195,115	-4,234	227,587	111,937
196,129	-5,084	227,386	111,171
197,144	-1,558	228,405	114,392
198,159	2,546	229,514	118,126
199,173	4,001	229,783	119,383
200,188	3,940	229,753	119,309
201,202	4,032	229,537	119,258
202,217	4,478	229,331	119,485
203,232	4,532	229,311	119,506
204,246	4,345	229,428	119,412
205,261	4,323	229,005	119,164
206,275	4,757	229,066	119,520
207,290	4,761	228,776	119,361
208,304	4,637	228,578	119,152
209,319	4,988	228,387	119,312
210,334	4,858	228,133	119,069
211,348	4,397	228,103	118,688
212,363	4,234	227,830	118,409
213,377	3,693	227,525	117,826
214,392	3,930	227,200	117,828
215,407	4,040	227,170	117,887
216,421	3,874	227,160	117,744
217,436	3,974	226,898	117,674
218,450	3,760	226,692	117,393
219,465	3,668	226,535	117,231
220,480	3,701	226,514	117,235
221,494	3,684	226,278	117,089
222,509	4,076	226,090	117,280
223,523	3,834	226,074	117,077
224,538	3,769	225,901	116,928
225,553	3,778	225,862	116,904
226,567	4,081	225,514	116,944
227,582	4,169	225,527	117,007
228,596	4,271	225,481	117,050
229,611	4,185	225,271	116,866
230,626	3,954	224,979	116,528
231,640	3,816	224,806	116,324
232,655	4,206	224,753	116,581
233,669	4,380	224,890	116,773
234,684	4,445	224,758	116,744
235,699	4,297	224,452	116,462
236,713	3,882	224,199	116,007
237,728	3,993	223,847	115,899
238,742	3,765	223,892	115,740
239,757	3,841	223,711	115,693
240,772	3,934	223,599	115,695
241,786	3,700	223,373	115,392
242,801	4,178	223,275	115,690
243,815	4,371	223,277	115,826
244,830	4,173	223,041	115,545
245,844	4,058	222,786	115,316
246,859	3,823	222,862	115,169
247,874	4,028	222,671	115,213
248,888	4,157	222,530	115,227
249,903	4,113	222,410	115,121
250,917	3,670	222,179	114,661
251,932	3,755	222,050	114,647
252,947	3,836	221,834	114,586
253,961	3,979	221,704	114,616
254,976	4,179	221,523	114,660
255,990	4,014	221,548	114,540
257,005	4,001	221,338	114,411
258,020	4,238	221,187	114,499
259,034	4,198	221,164	114,448
260,049	4,223	221,056	114,400
261,063	4,107	220,748	114,145
262,078	4,378	220,645	114,282
263,093	4,375	220,599	114,246
264,107	4,328	220,435	114,116
265,122	4,326	220,249	114,008
266,136	4,201	220,153	113,855
267,151	4,467	219,961	113,942
268,166	4,115	219,837	113,609
269,180	3,895	219,483	113,253
270,195	3,938	219,340	113,201
271,209	3,934	219,244	113,139
272,224	4,029	219,156	113,153
273,239	4,161	218,970	113,144
274,253	3,905	218,772	112,844
275,268	3,853	218,601	112,707
276,282	3,829	218,348	112,549
277,297	3,685	218,289	112,403
278,312	3,663	218,392	112,430
279,326	3,797	218,280	112,460
280,341	3,671	218,035	112,232
281,355	3,962	217,907	112,369
282,370	3,819	217,689	112,142
283,384	3,849	217,493	112,053
284,399	3,708	217,291	111,836
285,414	3,528	217,209	111,653
286,428	3,782	217,265	111,856
287,443	3,880	217,174	111,871
288,457	4,180	216,900	111,938
289,472	4,007	216,704	111,702
290,487	3,635	216,385	111,257
291,501	3,236	216,249	110,888
292,516	3,794	216,159	111,236
293,530	3,740	216,029	111,121
294,545	3,417	216,040	110,883
295,560	3,530	215,909	110,887
296,574	3,809	215,818	111,032
297,589	3,771	215,689	110,928
298,603	4,012	215,563	111,027
299,618	4,040	215,338	110,922
300,633	4,004	215,289	110,861
301,647	4,268	215,154	110,971
302,662	4,280	215,113	110,949
303,676	4,084	214,964	110,721
304,691	3,975	214,714	110,504
305,706	4,070	214,641	110,525
306,720	4,233	214,427	110,522
307,735	3,956	214,239	110,217
308,749	3,750	214,225	110,052
309,764	4,246	214,003	110,283
310,779	4,182	213,958	110,205
311,793	4,177	213,796	110,108
312,808	3,989	213,672	109,900
313,822	4,228	213,427	109,934
314,837	4,066	213,274	109,730
315,852	4,015	213,105	109,598
316,866	4,009	213,058	109,559
317,881	4,075	213,025	109,579
318,895	4,200	212,792	109,539
319,910	4,038	212,632	109,331
320,925	3,607	212,373	108,882
321,939	3,262	212,250	108,565
322,954	3,618	212,100	108,731
323,968	4,208	212,015	109,095
324,983	4,081	211,952	108,964
325,997	4,035	211,863	108,876
327,012	3,966	211,716	108,742
328,027	3,924	211,649	108,668
329,041	4,320	211,543	108,883
330,056	4,388	211,352	108,823
331,070	4,166	211,071	108,512
332,085	3,597	210,996	108,063
333,100	3,765	210,907	108,126
334,114	4,197	210,740	108,335
335,129	4,056	210,471	108,088
336,143	3,638	210,481	107,790
337,158	3,831	210,350	107,849
338,173	3,812	210,142	107,719
339,187	3,700	209,964	107,540
340,202	3,484	209,854	107,322
341,216	3,541	209,743	107,296
342,231	3,617	209,639	107,287
343,246	3,642	209,485	107,216
344,260	4,016	209,384	107,415
345,275	3,926	209,227	107,263
346,289	4,000	209,201	107,291
347,304	4,125	209,016	107,274
348,319	3,911	208,870	107,041
349,333	3,707	208,719	106,812
350,348	3,996	208,575	106,929
351,362	3,979	208,514	106,877
352,377	3,944	208,523	106,847
353,392	4,053	208,223	106,760
354,406	3,711	208,204	106,503
355,421	193,645	1345,526	1433,318
356,435	154,487	1484,206	1433,435
