DTS Sentinel unit serial number:	SN410029Multiplexer serial number:	ORYXHardware model number:	OX2-SRSoftware version number:	ORYX F/W v4,00 Oryx Data Collector v3.7.2.0data status	okinstallation	B6 Nyhavnadifferential loss correction	single-endedforward channel	channel 2reverse channel	N/Adate	2023/12/10time	01:25:08forward acquisition time	300,00reverse acquisition time	0,00gamma	499,1914k internal	0,3125k external	0,3125temperature offset calibration	1,0000default loss term (dB/km)	0,3820temperature slope calibration	1,0000multiplexer offset coefficient	1,0000multiplexer slope coefficient	1,0000fibre end	0,00T internal ref (°C)	21,91T ext. ref 1 (°C)	5,69T ext. ref 2 (°C)	5,70length (m)	temperature (°C)	Stokes	anti-Stokes-744,400	-25,275	-0,067	0,029
-743,385	63,737	-0,050	0,038
-742,371	-75,617	0,159	-0,042
-741,356	151,786	-0,101	0,103
-740,342	26,442	0,073	-0,045
-739,327	-175,277	-0,278	0,006
-738,312	18,848	0,061	-0,036
-737,298	-13,094	-0,197	-0,095
-736,283	199,967	0,085	-0,097
-735,269	-115,242	-0,262	0,036
-734,254	70,637	-0,067	-0,051
-733,239	-27,992	-0,398	-0,171
-732,225	-83,173	0,231	-0,055
-731,210	136,260	-0,042	-0,041
-730,196	-13,960	-0,124	0,060
-729,181	-200,000	-0,001	-0,079
-728,167	153,127	0,088	-0,090
-727,152	-25,396	0,037	-0,016
-726,137	800,000	0,022	-0,060
-725,123	20,851	-0,122	-0,073
-724,108	307,674	0,037	-0,052
-723,094	800,000	-0,046	-0,140
-722,079	119,475	-0,071	-0,065
-721,064	-200,000	-0,016	-0,082
-720,050	147,908	0,042	0,042
-719,035	447,476	-0,101	-0,167
-718,021	-95,855	0,128	0,025
-717,006	-200,000	-0,057	-0,200
-715,991	265,630	-0,085	-0,111
-714,977	94,308	-0,035	-0,029
-713,962	121,149	-0,089	-0,082
-712,948	-34,267	0,083	0,034
-711,933	-200,000	-0,022	-0,091
-710,918	99,193	-0,169	-0,145
-709,904	-78,101	-0,112	-0,028
-708,889	-200,000	-0,023	-0,115
-707,875	-200,000	-0,012	-0,041
-706,860	-88,824	-0,054	-0,012
-705,845	-200,000	-0,003	0,013
-704,831	405,447	-0,056	0,088
-703,816	72,484	-0,052	-0,040
-702,802	800,000	-0,059	-0,126
-701,787	-200,000	0,033	-0,139
-700,772	-34,803	-0,139	-0,056
-699,758	-200,000	-0,006	-0,066
-698,743	-56,614	0,133	0,043
-697,729	129,932	0,070	-0,067
-696,714	307,119	0,010	-0,014
-695,699	67,665	-0,091	-0,069
-694,685	-54,095	-0,162	-0,055
-693,670	-40,463	-0,080	0,031
-692,656	-200,000	-0,044	-0,172
-691,641	-200,000	-0,042	0,185
-690,627	-48,325	0,113	0,040
-689,612	-75,318	-0,065	0,017
-688,597	-118,819	-0,090	-0,012
-687,583	-130,097	-0,126	0,013
-686,568	728,535	-0,049	-0,098
-685,554	-47,410	-0,027	0,010
-684,539	74,303	0,031	-0,024
-683,524	-90,987	0,065	0,014
-682,510	397,587	-0,127	0,199
-681,495	-5,336	0,050	0,025
-680,481	-200,000	0,019	0,068
-679,466	-200,000	-0,009	0,051
-678,451	360,029	0,050	-0,075
-677,437	-73,267	0,068	-0,018
-676,422	-200,000	-0,009	-0,052
-675,408	304,503	0,009	0,013
-674,393	17,104	-0,130	0,076
-673,378	243,862	0,013	0,016
-672,364	-200,000	0,015	0,118
-671,349	10,551	-0,125	-0,070
-670,335	-200,000	0,006	-0,069
-669,320	-90,207	0,062	0,013
-668,305	95,461	-0,106	-0,089
-667,291	0,700	-0,076	-0,040
-666,276	-81,385	0,038	0,009
-665,262	-52,241	0,075	-0,026
-664,247	-200,000	0,000	0,080
-663,232	59,011	-0,065	-0,047
-662,218	-157,020	-0,098	-0,004
-661,203	-25,651	-0,121	-0,053
-660,189	-200,000	0,001	-0,110
-659,174	477,478	-0,045	-0,076
-658,159	-107,308	-0,143	0,023
-657,145	108,244	-0,071	-0,063
-656,130	-112,652	-0,073	-0,011
-655,116	-30,867	0,061	0,025
-654,101	-125,372	-0,062	-0,007
-653,086	84,085	-0,138	-0,112
-652,072	-200,000	-0,029	-0,097
-651,057	-160,771	-0,013	-0,000
-650,043	172,707	0,089	-0,095
-649,028	-200,000	0,006	-0,114
-648,014	217,090	0,095	-0,112
-646,999	27,659	-0,063	0,039
-645,984	235,499	0,022	-0,027
-644,970	-200,000	-0,022	-0,123
-643,955	-70,530	-0,060	0,017
-642,941	-200,000	0,016	-0,070
-641,926	-38,049	-0,053	0,021
-640,911	564,821	0,053	-0,096
-639,897	-200,000	-0,021	-0,163
-638,882	-141,089	-0,057	0,004
-637,868	-200,000	0,006	0,040
-636,853	800,000	0,073	-0,156
-635,838	-109,428	0,100	0,015
-634,824	50,184	-0,102	-0,071
-633,809	-66,419	-0,029	-0,008
-632,795	-200,000	-0,020	0,125
-631,780	-141,641	0,052	-0,004
-630,765	-3,102	-0,065	0,034
-629,751	-200,000	0,011	0,092
-628,736	-53,077	0,115	-0,039
-627,722	787,060	0,019	-0,038
-626,707	-4,079	0,076	-0,039
-625,692	-200,000	0,017	-0,114
-624,678	800,000	-0,053	-0,115
-623,663	-26,557	-0,107	-0,046
-622,649	-179,921	-0,059	0,001
-621,634	-200,000	0,011	-0,114
-620,619	6,763	0,073	0,040
-619,605	103,711	0,095	-0,083
-618,590	800,000	-0,029	0,064
-617,576	8,651	-0,043	-0,024
-616,561	238,989	-0,022	-0,027
-615,546	62,845	-0,073	0,054
-614,532	68,129	0,018	-0,014
-613,517	800,000	-0,003	0,007
-612,503	800,000	0,017	0,049
-611,488	509,339	-0,035	-0,061
-610,474	312,148	0,077	-0,107
-609,459	800,000	0,009	0,027
-608,444	-54,907	-0,050	-0,017
-607,430	704,120	0,047	-0,093
-606,415	-49,780	-0,095	-0,033
-605,401	573,497	-0,006	0,010
-604,386	106,962	-0,029	-0,026
-603,371	-200,000	0,013	-0,047
-602,357	-30,029	-0,071	0,030
-601,342	800,000	-0,041	0,086
-600,328	31,837	0,036	-0,023
-599,313	513,557	0,083	0,144
-598,298	-200,000	0,044	-0,177
-597,284	-69,459	0,114	-0,032
-596,269	113,909	0,054	-0,048
-595,255	372,734	0,033	0,050
-594,240	-3,341	-0,142	-0,073
-593,225	379,283	-0,096	-0,146
-592,211	-200,000	0,007	-0,089
-591,196	2,784	-0,178	-0,095
-590,182	-200,000	0,004	-0,026
-589,167	-76,582	0,118	0,030
-588,152	34,776	0,166	-0,107
-587,138	-73,444	0,063	0,017
-586,123	-112,548	-0,031	-0,005
-585,109	157,065	-0,097	-0,099
-584,094	800,000	-0,031	0,070
-583,079	204,834	-0,038	-0,044
-582,065	-200,000	-0,001	-0,035
-581,050	-200,000	-0,028	0,132
-580,036	-115,634	-0,106	0,015
-579,021	734,979	-0,037	-0,073
-578,006	800,000	-0,011	-0,023
-576,992	-200,000	-0,036	0,180
-575,977	-200,000	0,004	-0,045
-574,963	-28,913	-0,038	0,016
-573,948	-200,000	-0,010	0,088
-572,934	245,947	-0,058	-0,073
-571,919	601,372	-0,017	-0,031
-570,904	-71,244	-0,142	0,039
-569,890	-70,193	-0,076	0,021
-568,875	800,000	-0,010	0,025
-567,861	151,589	0,034	-0,034
-566,846	-200,000	0,012	-0,095
-565,831	800,000	0,027	-0,069
-564,817	-200,000	-0,017	0,107
-563,802	-21,196	-0,038	0,017
-562,788	-148,267	0,129	0,008
-561,773	800,000	0,056	0,165
-560,758	-200,000	-0,006	-0,022
-559,744	113,623	-0,072	0,065
-558,729	497,906	-0,045	0,077
-557,715	-200,000	0,023	-0,117
-556,700	62,536	-0,106	-0,078
-555,685	800,000	0,053	-0,157
-554,671	148,853	0,047	-0,047
-553,656	-200,000	0,030	0,130
-552,642	-72,269	0,052	-0,014
-551,627	-130,104	0,082	0,008
-550,612	216,884	-0,046	0,054
-549,598	-66,629	0,114	0,033
-548,583	278,323	-0,118	-0,156
-547,569	280,720	-0,094	-0,125
-546,554	85,927	0,080	-0,065
-545,539	800,000	-0,022	0,050
-544,525	-112,322	0,064	-0,009
-543,510	367,333	0,045	-0,068
-542,496	152,578	-0,041	0,041
-541,481	38,171	-0,113	0,074
-540,466	-143,526	-0,110	0,008
-539,452	-200,000	0,000	-0,022
-538,437	63,020	0,081	0,060
-537,423	44,714	0,164	0,111
-536,408	689,048	0,054	-0,106
-535,393	-41,212	-0,106	-0,040
-534,379	309,677	0,072	-0,100
-533,364	-20,933	0,046	-0,021
-532,350	256,522	-0,082	0,104
-531,335	800,000	-0,048	0,111
-530,321	-118,310	0,181	-0,023
-529,306	26,899	-0,016	-0,010
-528,291	134,111	-0,084	0,080
-527,277	-38,816	0,088	-0,034
-526,262	132,123	-0,032	-0,030
-525,248	76,871	0,172	-0,134
-524,233	-200,000	-0,011	-0,091
-523,218	612,701	-0,043	-0,079
-522,204	206,771	0,063	0,073
-521,189	577,396	-0,087	-0,158
-520,175	-200,000	-0,010	-0,140
-519,160	339,055	-0,001	0,002
-518,145	-200,000	0,008	0,127
-517,131	-200,000	-0,041	-0,169
-516,116	-36,363	0,166	0,066
-515,102	-23,600	0,048	-0,021
-514,087	-76,600	-0,027	-0,007
-513,072	800,000	0,028	-0,072
-512,058	-91,628	0,119	0,025
-511,043	-82,744	-0,019	0,004
-510,029	682,263	0,026	-0,050
-509,014	800,000	-0,004	-0,012
-507,999	-38,139	-0,045	-0,018
-506,985	-200,000	-0,007	-0,052
-505,970	-22,446	-0,093	-0,041
-504,956	125,349	-0,059	0,055
-503,941	-74,945	-0,050	0,013
-502,926	47,347	0,100	0,069
-501,912	800,000	-0,003	0,010
-500,897	800,000	-0,052	-0,111
-499,883	164,145	0,054	-0,056
-498,868	-200,000	-0,007	-0,103
-497,853	800,000	-0,025	-0,078
-496,839	-59,397	-0,131	0,041
-495,824	-200,000	0,018	0,144
-494,810	800,000	-0,032	-0,096
-493,795	-31,529	-0,019	-0,008
-492,781	-28,580	-0,083	-0,035
-491,766	-200,000	-0,046	-0,160
-490,751	800,000	0,033	-0,070
-489,737	127,810	0,048	-0,045
-488,722	70,260	-0,038	-0,029
-487,708	61,161	-0,102	0,075
-486,693	74,905	0,051	0,040
-485,678	346,005	0,020	-0,029
-484,664	800,000	0,065	-0,168
-483,649	4,384	0,101	0,054
-482,635	72,194	0,056	-0,043
-481,620	-6,550	-0,039	0,019
-480,605	-90,455	-0,081	-0,017
-479,591	76,957	-0,040	0,031
-478,576	234,722	-0,084	-0,103
-477,562	23,068	-0,157	-0,095
-476,547	-200,000	0,023	0,079
-475,532	-93,307	0,124	-0,025
-474,518	455,740	0,019	-0,032
-473,503	64,543	-0,017	0,012
-472,489	800,000	-0,028	0,059
-471,474	-200,000	-0,008	0,184
-470,459	85,298	0,072	-0,058
-469,445	-200,000	-0,009	0,033
-468,430	12,729	-0,158	0,090
-467,416	-61,826	0,145	-0,044
-466,401	-92,593	-0,019	0,004
-465,386	125,544	0,069	0,065
-464,372	-200,000	-0,014	0,106
-463,357	-95,347	-0,114	-0,022
-462,343	192,656	-0,076	0,085
-461,328	-200,000	-0,002	0,026
-460,313	60,204	-0,037	0,027
-459,299	800,000	0,034	0,073
-458,284	325,419	0,043	0,061
-457,270	-200,000	-0,006	0,093
-456,255	800,000	-0,015	0,032
-455,241	-200,000	-0,024	-0,087
-454,226	153,080	0,035	-0,035
-453,211	800,000	0,084	-0,207
-452,197	11,114	-0,098	0,055
-451,182	-200,000	0,013	0,165
-450,168	457,197	-0,023	0,038
-449,153	99,442	-0,054	-0,046
-448,138	800,000	-0,044	0,093
-447,124	117,548	0,038	0,034
-446,109	90,545	-0,075	0,061
-445,095	-70,792	-0,031	0,008
-444,080	34,170	-0,058	0,037
-443,065	-118,988	0,114	-0,015
-442,051	516,721	-0,051	-0,088
-441,036	447,385	0,061	-0,099
-440,022	-200,000	-0,007	0,084
-439,007	-5,894	-0,089	-0,045
-437,992	42,974	0,041	-0,027
-436,978	-200,000	-0,017	0,076
-435,963	800,000	-0,042	0,096
-434,949	800,000	0,010	0,024
-433,934	17,523	-0,170	-0,099
-432,919	96,961	0,029	-0,024
-431,905	330,355	-0,088	0,124
-430,890	248,629	0,010	0,012
-429,876	-115,101	0,078	-0,011
-428,861	203,976	0,067	-0,077
-427,846	176,010	0,134	0,143
-426,832	780,581	-0,067	0,136
-425,817	278,319	-0,039	-0,051
-424,803	79,874	0,104	-0,082
-423,788	-200,000	-0,003	-0,059
-422,773	84,110	-0,060	-0,049
-421,759	78,084	0,194	0,152
-420,744	-0,823	-0,018	-0,009
-419,730	298,049	-0,049	-0,067
-418,715	-200,000	0,004	-0,025
-417,701	-200,000	-0,013	-0,065
-416,686	222,700	0,065	-0,078
-415,671	0,400	0,140	0,073
-414,657	650,506	-0,066	0,126
-413,642	17,660	0,067	0,039
-412,628	120,072	0,049	-0,045
-411,613	4,959	-0,053	-0,029
-410,598	369,464	0,070	-0,104
-409,584	168,589	0,079	-0,083
-408,569	-84,043	0,098	-0,023
-407,555	-93,324	-0,073	-0,015
-406,540	800,000	0,044	0,102
-405,525	-114,770	-0,068	0,009
-404,511	-200,000	-0,006	0,073
-403,496	67,664	0,055	-0,042
-402,482	-200,000	-0,007	0,046
-401,467	-200,000	0,016	0,064
-400,452	27,283	0,030	-0,019
-399,438	65,360	-0,123	0,091
-398,423	800,000	0,029	0,072
-397,409	144,570	-0,070	-0,069
-396,394	732,691	-0,060	0,119
-395,379	800,000	0,043	0,089
-394,365	-52,209	0,113	-0,038
-393,350	60,022	0,114	0,082
-392,336	-200,000	0,001	-0,148
-391,321	20,048	-0,070	-0,041
-390,306	-77,404	-0,236	-0,060
-389,292	31,847	-0,012	-0,008
-388,277	-67,752	-0,162	0,046
-387,263	-200,000	0,023	0,092
-386,248	-200,000	-0,038	0,168
-385,233	-200,000	0,022	0,136
-384,219	229,027	0,035	-0,042
-383,204	-200,000	-0,016	-0,125
-382,190	-114,305	0,086	-0,012
-381,175	799,737	0,014	0,029
-380,160	800,000	-0,038	0,092
-379,146	-200,000	-0,010	0,042
-378,131	377,409	-0,103	0,155
-377,117	-200,000	0,006	0,099
-376,102	-133,532	0,054	0,005
-375,088	-14,939	-0,033	-0,016
-374,073	41,889	0,040	0,026
-373,058	80,051	0,112	0,088
-372,044	-107,961	-0,108	0,017
-371,029	374,026	0,078	0,117
-370,015	-200,000	0,005	0,080
-369,000	3,507	0,082	0,044
-367,985	-200,000	-0,009	-0,045
-366,971	-200,000	-0,033	-0,200
-365,956	-89,366	0,092	0,020
-364,942	160,667	-0,048	0,050
-363,927	-150,471	0,110	0,006
-362,912	-200,000	0,027	-0,108
-361,898	800,000	-0,037	-0,089
-360,883	-200,000	-0,007	0,054
-359,869	-200,000	0,003	-0,026
-358,854	-113,867	0,098	-0,014
-357,839	-103,255	-0,246	-0,042
-356,825	-200,000	0,011	0,071
-355,810	413,570	0,083	0,129
-354,796	-200,000	0,026	0,105
-353,781	-200,000	-0,000	-0,003
-352,766	-200,000	0,001	-0,115
-351,752	-46,946	0,123	-0,044
-350,737	-20,892	0,047	0,021
-349,723	402,180	-0,038	-0,059
-348,708	-200,000	0,011	0,132
-347,693	-34,586	-0,036	0,014
-346,679	-139,365	-0,168	-0,013
-345,664	346,080	0,115	0,167
-344,650	800,000	0,020	-0,056
-343,635	800,000	0,016	0,042
-342,620	42,799	0,090	0,060
-341,606	109,849	-0,047	-0,041
-340,591	-200,000	-0,028	-0,099
-339,577	-81,005	-0,065	-0,016
-338,562	-200,000	-0,011	0,042
-337,548	278,681	-0,076	-0,100
-336,533	-200,000	0,011	0,074
-335,518	163,005	0,114	0,117
-334,504	411,055	0,032	0,049
-333,489	-200,000	0,014	-0,052
-332,475	800,000	-0,028	-0,057
-331,460	-104,303	-0,137	0,023
-330,445	458,907	0,081	-0,132
-329,431	-29,408	0,158	0,066
-328,416	86,459	0,049	-0,040
-327,402	-200,000	0,053	0,206
-326,387	193,530	-0,037	-0,041
-325,372	193,338	0,028	-0,031
-324,358	17,485	0,054	0,031
-323,343	-61,641	-0,105	-0,032
-322,329	-200,000	-0,018	0,087
-321,314	800,000	0,035	0,105
-320,299	-200,000	-0,005	0,081
-319,285	-29,891	-0,132	0,055
-318,270	-68,285	-0,080	-0,023
-317,256	40,663	-0,138	-0,091
-316,241	-109,302	-0,053	0,008
-315,226	-46,006	0,050	0,018
-314,212	-142,862	0,092	-0,006
-313,197	134,038	0,072	0,068
-312,183	38,622	-0,037	-0,024
-311,168	-100,063	-0,135	-0,024
-310,153	800,000	0,029	-0,072
-309,139	267,116	-0,054	-0,069
-308,124	-157,847	0,118	-0,005
-307,110	413,126	-0,001	0,001
-306,095	800,000	0,063	0,176
-305,080	524,293	0,048	-0,083
-304,066	-200,000	0,032	0,116
-303,051	-200,000	-0,003	0,114
-302,037	428,534	-0,073	0,116
-301,022	800,000	0,016	-0,051
-300,008	-122,016	-0,055	-0,007
-298,993	-200,000	-0,008	0,028
-297,978	63,179	-0,141	0,103
-296,964	-104,731	0,065	-0,011
-295,949	-112,743	0,042	-0,006
-294,935	800,000	0,038	-0,122
-293,920	-40,880	-0,083	-0,031
-292,905	-200,000	-0,034	0,135
-291,891	147,110	0,054	0,053
-290,876	-38,322	-0,094	0,036
-289,862	-200,000	0,004	-0,136
-288,847	249,806	0,048	-0,060
-287,832	800,000	0,027	-0,064
-286,818	-176,344	-0,113	-0,002
-285,803	-200,000	0,010	-0,101
-284,789	68,974	0,113	-0,085
-283,774	-85,484	-0,139	-0,031
-282,759	-200,000	-0,006	-0,028
-281,745	274,269	0,080	0,104
-280,730	800,000	0,022	0,046
-279,716	-200,000	0,007	-0,075
-278,701	84,170	-0,091	0,073
-277,686	476,462	-0,030	0,050
-276,672	-43,772	-0,025	0,009
-275,657	-102,635	-0,020	0,003
-274,643	800,000	-0,046	0,123
-273,628	800,000	0,045	-0,114
-272,613	204,565	0,078	-0,089
-271,599	8,802	-0,070	0,039
-270,584	-27,174	0,016	0,007
-269,570	-152,348	0,055	-0,003
-268,555	32,946	-0,016	-0,010
-267,540	-200,000	-0,022	-0,131
-266,526	-76,354	0,018	0,005
-265,511	-107,876	0,160	-0,025
-264,497	-62,697	-0,036	-0,011
-263,482	-200,000	-0,002	0,066
-262,467	800,000	-0,040	-0,103
-261,453	-159,612	-0,110	-0,004
-260,438	197,457	0,052	-0,058
-259,424	24,662	0,050	0,030
-258,409	601,334	0,033	0,059
-257,395	800,000	-0,040	0,086
-256,380	326,820	0,097	0,136
-255,365	-200,000	-0,023	0,123
-254,351	-135,531	-0,050	0,004
-253,336	-200,000	0,001	-0,079
-252,322	-200,000	0,018	0,114
-251,307	-200,000	0,016	0,218
-250,292	-200,000	-0,010	-0,077
-249,278	-121,137	0,095	-0,012
-248,263	-200,000	0,026	0,115
-247,249	800,000	-0,019	-0,045
-246,234	399,072	-0,065	-0,099
-245,219	187,200	0,009	0,010
-244,205	158,275	0,124	-0,125
-243,190	53,131	0,051	0,035
-242,176	22,283	0,057	0,034
-241,161	-32,430	-0,140	-0,057
-240,146	-21,733	-0,164	-0,073
-239,132	227,332	0,057	0,068
-238,117	74,312	0,112	-0,086
-237,103	140,636	0,020	-0,019
-236,088	-133,241	0,155	-0,014
-235,073	30,896	-0,125	-0,078
-234,059	-141,992	0,114	0,008
-233,044	18,877	0,179	0,105
-232,030	-18,654	0,101	-0,046
-231,015	51,566	-0,109	-0,075
-230,000	800,000	-0,005	-0,013
-228,986	-70,502	-0,084	0,023
-227,971	-200,000	0,012	0,072
-226,957	-16,908	-0,045	0,021
-225,942	-47,494	-0,101	0,036
-224,927	-147,688	0,187	0,011
-223,913	328,982	-0,087	-0,122
-222,898	800,000	-0,021	-0,045
-221,884	193,593	-0,071	0,079
-220,869	-100,525	0,095	0,017
-219,855	-200,000	-0,005	-0,029
-218,840	455,969	-0,038	-0,062
-217,825	-200,000	-0,016	-0,089
-216,811	800,000	0,053	-0,108
-215,796	-200,000	-0,014	-0,144
-214,782	75,227	-0,145	-0,111
-213,767	581,926	-0,037	0,067
-212,752	-200,000	0,002	0,073
-211,738	-200,000	0,042	0,172
-210,723	733,545	0,049	0,096
-209,709	-77,516	0,117	0,029
-208,694	429,885	-0,096	0,152
-207,679	-42,241	-0,015	0,006
-206,665	161,086	0,030	-0,031
-205,650	326,526	0,071	-0,099
-204,636	251,373	-0,047	-0,058
-203,621	137,668	-0,039	0,037
-202,606	-41,071	-0,026	0,010
-201,592	206,069	-0,142	-0,161
-200,577	515,565	-0,025	0,042
-199,563	-147,761	0,087	0,005
-198,548	-200,000	-0,002	0,131
-197,533	-101,631	-0,061	0,011
-196,519	-200,000	0,005	-0,062
-195,504	-200,000	0,000	0,096
-194,490	300,972	0,063	-0,085
-193,475	-200,000	0,008	-0,072
-192,460	-93,637	-0,163	-0,033
-191,446	-200,000	0,008	0,064
-190,431	-45,541	0,041	0,015
-189,417	-57,271	-0,163	0,052
-188,402	-188,897	-0,044	-0,000
-187,387	757,147	0,094	-0,185
-186,373	702,322	0,028	0,054
-185,358	-111,315	-0,046	0,007
-184,344	139,403	0,041	-0,039
-183,329	-75,749	-0,034	0,009
-182,315	800,000	-0,094	0,200
-181,300	-2,545	-0,046	-0,023
-180,285	80,654	0,057	0,045
-179,271	800,000	-0,038	-0,119
-178,256	-14,449	0,085	-0,040
-177,242	-60,204	0,078	0,024
-176,227	11,984	0,019	0,011
-175,212	161,971	0,097	0,099
-174,198	-10,905	0,120	0,058
-173,183	108,133	-0,109	0,095
-172,169	800,000	-0,030	0,077
-171,154	-30,260	0,092	-0,038
-170,139	-200,000	-0,009	-0,050
-169,125	-105,518	-0,059	-0,010
-168,110	-200,000	0,027	0,110
-167,096	-200,000	-0,012	0,082
-166,081	8,493	-0,021	-0,011
-165,066	-200,000	-0,006	0,064
-164,052	186,387	0,030	-0,033
-163,037	13,961	-0,124	0,070
-162,023	353,630	0,047	0,068
-161,008	77,595	0,138	0,107
-159,993	638,612	-0,060	0,111
-158,979	257,926	-0,064	-0,080
-157,964	106,262	0,094	0,081
-156,950	-200,000	0,023	-0,115
-155,935	-107,932	0,129	0,020
-154,920	-200,000	0,028	0,117
-153,906	215,422	0,076	-0,088
-152,891	379,141	0,033	0,050
-151,877	-195,396	-0,031	0,000
-150,862	-200,000	-0,019	-0,110
-149,847	243,052	-0,027	0,034
-148,833	50,633	-0,053	-0,037
-147,818	800,000	0,103	-0,209
-146,804	-144,457	-0,056	0,004
-145,789	307,457	0,063	0,086
-144,775	412,915	-0,046	0,071
-143,760	49,758	-0,122	-0,084
-142,745	-29,248	-0,155	-0,064
-141,731	260,680	0,063	-0,079
-140,716	-200,000	-0,025	-0,150
-139,702	45,236	0,067	0,045
-138,687	90,608	-0,045	-0,037
-137,672	-22,454	-0,071	0,031
-136,658	-200,000	-0,013	-0,088
-135,643	38,969	0,099	-0,065
-134,629	-200,000	-0,006	-0,149
-133,614	-67,789	0,126	-0,035
-132,599	800,000	0,041	0,100
-131,585	150,109	-0,065	0,064
-130,570	-200,000	0,005	-0,148
-129,556	44,231	0,014	-0,009
-128,541	-200,000	-0,030	-0,112
-127,526	281,790	-0,111	0,144
-126,512	-68,575	0,118	0,033
-125,497	162,272	0,041	0,042
-124,483	-135,742	0,122	0,010
-123,468	363,375	0,056	0,081
-122,453	-200,000	0,040	-0,137
-121,439	234,591	-0,063	0,075
-120,424	164,163	0,091	-0,093
-119,410	800,000	-0,050	0,104
-118,395	68,778	-0,023	0,017
-117,380	800,000	-0,044	0,135
-116,366	800,000	-0,052	0,110
-115,351	-200,000	-0,000	0,034
-114,337	-45,494	0,038	-0,014
-113,322	751,966	-0,026	0,051
-112,307	-79,437	0,032	0,008
-111,293	-19,847	0,163	0,073
-110,278	41,529	-0,043	-0,028
-109,264	-200,000	-0,004	0,073
-108,249	-175,517	-0,115	0,002
-107,234	147,146	0,066	-0,065
-106,220	-195,817	-0,117	-0,001
-105,205	-100,872	-0,116	-0,020
-104,191	90,557	-0,061	-0,049
-103,176	800,000	0,044	0,094
-102,162	-142,407	0,105	0,007
-101,147	-200,000	0,015	0,088
-100,132	800,000	-0,059	-0,178
-99,118	-111,235	-0,115	-0,017
-98,103	800,000	0,048	0,138
-97,089	54,571	0,050	-0,035
-96,074	-200,000	-0,010	-0,048
-95,059	800,000	-0,054	0,170
-94,045	545,110	0,019	-0,033
-93,030	117,013	-0,083	0,074
-92,016	21,256	-0,095	0,056
-91,001	-128,009	0,043	-0,004
-89,986	-115,264	0,054	-0,007
-88,972	-91,372	-0,047	-0,010
-87,957	451,356	-0,033	0,052
-86,943	-200,000	-0,001	-0,096
-85,928	800,000	-0,059	-0,147
-84,913	543,511	0,082	-0,143
-83,899	-200,000	-0,024	-0,099
-82,884	97,531	0,140	0,117
-81,870	-200,000	-0,005	0,045
-80,855	147,024	-0,050	0,049
-79,840	-200,000	0,015	0,109
-78,826	-128,604	0,062	0,006
-77,811	17,573	-0,082	-0,047
-76,797	-40,734	0,113	0,042
-75,782	140,582	-0,024	0,023
-74,767	22,328	0,070	0,041
-73,753	-37,321	0,072	-0,028
-72,738	130,374	-0,073	0,068
-71,724	-200,000	-0,002	0,080
-70,709	-200,000	0,014	0,049
-69,694	-145,230	-0,053	-0,003
-68,680	462,480	0,034	0,055
-67,665	-200,000	0,003	0,041
-66,651	-200,000	-0,024	0,179
-65,636	3,938	-0,085	-0,045
-64,622	-200,000	-0,000	-0,062
-63,607	453,506	-0,064	-0,102
-62,592	-200,000	-0,016	-0,109
-61,578	38,910	0,045	0,029
-60,563	-62,949	0,116	-0,035
-59,549	-109,349	0,041	0,006
-58,534	-96,806	-1,314	-0,248
-57,519	705,410	-0,727	-1,398
-56,505	-200,000	-0,896	-4,367
-55,490	17,261	0,541	-0,310
-54,476	800,000	4,952	11,787
-53,461	-200,000	14,014	253,852
-52,446	-200,000	693,440	2241,017
-51,432	574,468	1624,046	2884,945
-50,417	117,539	1633,297	1456,969
-49,403	72,319	1287,113	971,295
-48,388	37,505	1023,315	656,751
-47,373	23,909	981,665	585,323
-46,359	23,193	970,998	576,595
-45,344	22,161	966,648	570,621
-44,330	22,098	965,278	569,584
-43,315	21,977	963,936	568,374
-42,300	21,937	962,811	567,557
-41,286	21,949	961,930	567,055
-40,271	21,901	960,996	566,326
-39,257	21,846	960,087	565,591
-38,242	21,904	958,984	565,106
-37,227	21,871	958,183	564,506
-36,213	21,954	957,158	564,146
-35,198	21,957	956,399	563,686
-34,184	21,969	955,751	563,320
-33,169	21,930	954,936	562,694
-32,154	22,017	953,969	562,382
-31,140	21,977	952,991	561,653
-30,125	21,973	952,411	561,276
-29,111	21,943	951,526	560,635
-28,096	21,965	950,814	560,266
-27,082	21,973	950,109	559,852
-26,067	21,938	949,562	559,395
-25,052	21,929	948,771	558,880
-24,038	21,968	947,887	558,462
-23,023	21,964	947,251	558,050
-22,009	21,908	946,770	557,566
-20,994	21,910	946,226	557,231
-19,979	22,005	945,376	557,013
-18,965	21,977	944,681	556,490
-17,950	21,941	944,142	556,037
-16,936	21,881	943,463	555,424
-15,921	21,876	942,791	554,988
-14,906	21,910	942,034	554,628
-13,892	21,802	941,472	553,933
-12,877	21,810	940,939	553,623
-11,863	21,763	940,243	553,042
-10,848	21,853	939,679	552,974
-9,833	21,920	939,280	552,932
-8,819	21,869	938,761	552,440
-7,804	21,804	938,075	551,811
-6,790	21,786	937,485	551,382
-5,775	21,878	936,633	551,153
-4,760	21,865	935,992	550,711
-3,746	21,796	935,470	550,166
-2,731	21,671	934,800	549,355
-1,717	21,621	934,134	548,785
-0,702	21,674	933,258	548,414
0,313	21,414	932,938	548,234
1,327	24,526	930,787	556,699
2,342	33,997	795,081	500,725
3,356	31,812	450,645	280,496
4,371	1,044	293,596	152,066
5,386	-3,479	274,501	137,888
6,400	-4,635	268,763	133,922
7,415	-5,268	266,735	132,316
8,429	-4,859	265,342	131,989
9,444	-4,876	264,429	131,507
10,459	-4,995	263,872	131,110
11,473	-4,991	263,213	130,775
12,488	-4,894	262,676	130,584
13,502	-5,187	262,298	130,120
14,517	-4,951	261,767	130,057
15,531	-4,913	261,441	129,918
16,546	-4,887	260,997	129,710
17,561	-4,635	260,633	129,743
18,575	-4,932	260,617	129,457
19,590	-4,988	260,118	129,148
20,604	-4,856	259,777	129,085
21,619	-5,158	259,491	128,661
22,634	-5,051	259,144	128,573
23,648	-5,121	258,770	128,313
24,663	-5,067	258,682	128,307
25,677	-4,984	258,405	128,232
26,692	-4,896	258,087	128,141
27,707	-5,134	257,885	127,818
28,721	-5,046	257,602	127,744
29,736	-5,189	257,244	127,429
30,750	-5,199	256,962	127,269
31,765	-5,160	256,857	127,240
32,780	-5,167	256,672	127,130
33,794	-5,017	256,427	127,131
34,809	-4,910	256,130	127,066
35,823	-5,068	255,911	126,807
36,838	-5,124	255,596	126,590
37,853	-5,174	255,468	126,472
38,867	-5,160	255,242	126,361
39,882	-5,201	255,036	126,212
40,896	-5,208	254,936	126,145
41,911	-5,163	254,556	125,985
42,926	-5,357	254,423	125,738
43,940	-5,163	254,121	125,747
44,955	-5,091	253,846	125,663
45,969	-5,306	253,696	125,390
46,984	-5,329	253,333	125,179
47,999	-5,640	253,200	124,831
49,013	-5,678	252,935	124,656
50,028	-5,617	252,451	124,460
51,042	-5,624	252,489	124,461
52,057	-5,841	252,178	124,109
53,071	-5,745	251,983	124,085
54,086	-5,712	251,882	124,053
55,101	-5,719	251,743	123,967
56,115	-5,328	251,616	124,231
57,130	-5,034	251,371	124,353
58,144	-4,734	251,233	124,533
59,159	-4,839	251,018	124,325
60,174	-4,913	250,815	124,150
61,188	-4,900	250,692	124,089
62,203	-5,065	250,388	123,786
63,217	-4,965	250,199	123,767
64,232	-4,886	249,939	123,695
65,247	-4,977	249,754	123,514
66,261	-4,860	249,575	123,515
67,276	-5,126	249,208	123,095
68,290	-5,393	248,927	122,716
69,305	-5,526	248,827	122,543
70,320	-5,473	248,775	122,552
71,334	-5,095	248,465	122,710
72,349	-5,008	248,328	122,706
73,363	-4,962	248,218	122,680
74,378	-5,050	248,163	122,567
75,393	-4,942	247,868	122,502
76,407	-5,095	247,498	122,178
77,422	-5,083	247,449	122,153
78,436	-4,949	247,211	122,139
79,451	-5,024	246,994	121,957
80,466	-5,072	246,743	121,782
81,480	-5,352	246,431	121,380
82,495	-5,138	246,174	121,423
83,509	-5,162	246,164	121,388
84,524	-5,387	245,900	121,057
85,539	-5,566	245,781	120,836
86,553	-5,185	245,428	120,972
87,568	-5,393	245,389	120,768
88,582	-5,300	245,085	120,686
89,597	-5,400	244,976	120,537
90,611	-5,170	244,817	120,641
91,626	-4,916	244,662	120,767
92,641	-4,914	244,495	120,675
93,655	-5,044	244,226	120,423
94,670	-5,110	244,008	120,249
95,684	-5,052	243,930	120,249
96,699	-5,092	243,650	120,067
97,714	-5,227	243,394	119,817
98,728	-5,385	243,377	119,667
99,743	-5,412	243,039	119,467
100,757	-5,395	242,990	119,447
101,772	-5,362	242,803	119,372
102,787	-5,234	242,607	119,371
103,801	-5,162	242,303	119,270
104,816	-5,142	242,300	119,274
105,830	-4,889	242,006	119,328
106,845	-4,954	242,049	119,286
107,860	-4,945	241,747	119,134
108,874	-5,075	241,491	118,890
109,889	-5,162	241,281	118,704
110,903	-5,176	241,118	118,601
111,918	-5,295	240,858	118,365
112,933	-5,173	240,772	118,413
113,947	-5,083	240,663	118,423
114,962	-5,242	240,388	118,146
115,976	-5,217	240,452	118,187
116,991	-4,997	240,124	118,196
118,006	-5,274	240,132	117,962
119,020	-5,141	239,844	117,919
120,035	-5,098	239,770	117,907
121,049	-4,999	239,592	117,890
122,064	-4,989	239,468	117,827
123,079	-5,130	239,207	117,573
124,093	-5,161	238,925	117,399
125,108	-5,395	238,808	117,140
126,122	-5,512	238,509	116,888
127,137	-5,475	238,278	116,794
128,151	-5,432	238,172	116,767
129,166	-5,313	238,066	116,801
130,181	-5,426	237,780	116,558
131,195	-5,413	237,656	116,498
132,210	-5,193	237,529	116,604
133,224	-5,155	237,405	116,563
134,239	-5,004	237,283	116,615
135,254	-4,895	236,963	116,535
136,268	-5,157	236,833	116,249
137,283	-5,491	236,550	115,831
138,297	-5,413	236,289	115,756
139,312	-5,412	236,272	115,737
140,327	-5,284	236,129	115,760
141,341	-4,852	236,147	116,106
142,356	-4,861	235,990	116,011
143,370	-4,793	235,690	115,908
144,385	-4,802	235,784	115,937
145,400	-4,896	235,519	115,721
146,414	-4,690	235,224	115,731
147,429	-4,848	235,098	115,532
148,443	-5,078	235,017	115,298
149,458	-4,885	234,807	115,339
150,473	-4,950	234,681	115,215
151,487	-4,915	234,465	115,126
152,502	-4,763	234,268	115,141
153,516	-4,631	234,013	115,110
154,531	-4,903	233,928	114,841
155,546	-4,877	233,807	114,793
156,560	-4,956	233,640	114,638
157,575	-5,078	233,458	114,441
158,589	-5,146	233,287	114,293
159,604	-4,900	233,109	114,390
160,619	-4,789	232,891	114,362
161,633	-4,762	232,870	114,362
162,648	-4,908	232,631	114,120
163,662	-4,821	232,608	114,167
164,677	-4,660	232,288	114,127
165,692	-4,962	232,192	113,831
166,706	-4,584	232,032	114,041
167,721	-4,695	231,707	113,783
168,735	-4,716	231,671	113,739
169,750	-4,649	231,486	113,690
170,764	-4,692	231,355	113,582
171,779	-4,741	231,247	113,481
172,794	-4,517	231,289	113,667
173,808	-4,859	230,820	113,158
174,823	-5,298	230,654	112,722
175,837	-5,508	230,542	112,493
176,852	-5,088	230,412	112,748
177,867	-4,662	230,274	113,004
178,881	-4,828	230,210	112,833
179,896	-4,596	230,006	112,905
180,910	-4,567	229,779	112,805
181,925	-4,651	229,699	112,691
182,940	-4,705	229,547	112,564
183,954	-4,610	229,400	112,556
184,969	-4,768	229,475	112,459
185,983	-4,635	229,163	112,400
186,998	-4,501	228,953	112,392
188,013	-4,520	228,755	112,269
189,027	-4,426	228,718	112,314
190,042	-4,723	228,524	111,979
191,056	-4,394	228,242	112,085
192,071	-4,756	228,169	111,759
193,086	-4,507	227,932	111,825
194,100	-4,744	227,740	111,538
195,115	-4,852	227,467	111,312
196,129	-5,231	227,376	110,964
197,144	-2,565	228,251	113,445
198,159	1,351	229,354	117,023
199,173	3,879	229,846	119,225
200,188	4,091	229,847	119,380
201,202	4,075	229,625	119,242
202,217	4,212	229,597	119,322
203,232	4,507	229,531	119,506
204,246	4,461	229,370	119,376
205,261	4,380	229,187	119,207
206,275	4,594	229,084	119,308
207,290	4,717	228,884	119,288
208,304	4,832	228,734	119,288
209,319	4,567	228,658	119,033
210,334	4,753	228,308	118,984
211,348	4,475	228,224	118,715
212,363	3,766	227,989	118,038
213,377	3,669	227,787	117,849
214,392	3,645	227,713	117,782
215,407	3,797	227,534	117,795
216,421	3,906	227,356	117,776
217,436	3,888	227,046	117,591
218,450	3,579	226,916	117,277
219,465	3,495	226,848	117,167
220,480	3,659	226,759	117,235
221,494	3,456	226,655	117,016
222,509	3,677	226,437	117,062
223,523	3,571	226,331	116,916
224,538	3,743	225,950	116,840
225,553	3,719	225,954	116,813
226,567	3,837	225,846	116,837
227,582	4,148	225,676	116,974
228,596	4,309	225,697	117,097
229,611	3,938	225,443	116,674
230,626	3,711	225,078	116,303
231,640	3,630	225,070	116,227
232,655	4,213	224,873	116,555
233,669	4,290	225,032	116,686
234,684	4,340	224,859	116,624
235,699	4,072	224,772	116,365
236,713	4,156	224,291	116,170
237,728	3,768	224,123	115,780
238,742	3,643	224,006	115,615
239,757	3,882	223,764	115,660
240,772	3,885	223,675	115,605
241,786	3,632	223,670	115,402
242,801	3,942	223,490	115,532
243,815	4,143	223,460	115,657
244,830	4,046	223,394	115,539
245,844	3,983	223,219	115,391
246,859	3,969	222,907	115,209
247,874	4,072	222,756	115,198
248,888	4,056	222,711	115,153
249,903	3,805	222,600	114,897
250,917	3,851	222,426	114,832
251,932	3,943	222,183	114,765
252,947	3,549	222,086	114,411
253,961	3,517	221,962	114,312
254,976	3,620	221,844	114,318
255,990	3,927	221,639	114,431
257,005	4,176	221,309	114,435
258,020	3,955	221,435	114,326
259,034	4,281	221,294	114,485
260,049	3,991	221,178	114,199
261,063	3,827	221,025	113,989
262,078	4,160	220,965	114,194
263,093	4,303	220,689	114,147
264,107	4,146	220,573	113,961
265,122	4,194	220,357	113,875
266,136	4,355	220,362	113,986
267,151	4,253	220,120	113,776
268,166	3,588	219,954	113,190
269,180	3,710	219,718	113,147
270,195	3,703	219,779	113,163
271,209	3,705	219,433	112,977
272,224	3,781	219,317	112,963
273,239	3,621	219,239	112,795
274,253	3,632	219,092	112,718
275,268	3,549	218,861	112,528
276,282	3,715	218,597	112,504
277,297	3,320	218,652	112,233
278,312	3,450	218,469	112,224
279,326	3,447	218,309	112,129
280,341	3,812	218,168	112,314
281,355	3,933	218,120	112,368
282,370	3,748	217,943	112,132
283,384	3,403	217,785	111,788
284,399	3,501	217,539	111,723
285,414	3,388	217,446	111,583
286,428	3,700	217,245	111,697
287,443	3,984	217,189	111,865
288,457	3,976	217,141	111,824
289,472	3,968	216,883	111,676
290,487	3,342	216,585	111,059
291,501	3,313	216,609	111,040
292,516	3,415	216,416	111,005
293,530	3,495	216,256	110,971
294,545	3,414	216,084	110,814
295,560	3,677	216,091	110,998
296,574	3,875	216,094	111,133
297,589	3,976	215,871	111,081
298,603	3,933	215,634	110,919
299,618	3,604	215,625	110,666
300,633	3,729	215,425	110,644
301,647	4,208	215,312	110,921
302,662	4,166	215,251	110,850
303,676	4,074	215,182	110,738
304,691	4,065	215,001	110,629
305,706	3,896	214,971	110,482
306,720	3,788	214,743	110,277
307,735	3,771	214,546	110,154
308,749	3,641	214,321	109,936
309,764	3,786	214,384	110,062
310,779	4,041	214,087	110,082
311,793	3,987	213,960	109,968
312,808	3,977	213,839	109,889
313,822	3,965	213,596	109,746
314,837	3,693	213,481	109,483
315,852	3,523	213,410	109,315
316,866	3,699	213,248	109,348
317,881	3,902	213,095	109,405
318,895	3,934	213,101	109,421
319,910	3,835	212,789	109,180
320,925	3,571	212,585	108,879
321,939	3,191	212,394	108,502
322,954	3,465	212,258	108,617
323,968	3,795	212,379	108,903
324,983	3,936	212,086	108,842
325,997	4,044	212,048	108,890
327,012	4,062	211,786	108,758
328,027	3,737	211,784	108,518
329,041	4,094	211,718	108,727
330,056	4,256	211,590	108,766
331,070	3,877	211,285	108,332
332,085	3,671	211,224	108,146
333,100	3,565	211,085	107,990
334,114	3,598	210,909	107,914
335,129	3,952	210,732	108,062
336,143	3,861	210,650	107,947
337,158	3,729	210,623	107,831
338,173	3,832	210,279	107,717
339,187	3,635	210,211	107,534
340,202	3,522	210,090	107,384
341,216	3,404	209,921	107,206
342,231	3,632	209,852	107,320
343,246	3,657	209,600	107,199
344,260	3,569	209,441	107,047
345,275	3,598	209,487	107,081
346,289	4,019	209,389	107,315
347,304	3,881	209,192	107,109
348,319	3,749	209,163	106,992
349,333	3,932	208,917	106,984
350,348	4,044	208,799	106,992
351,362	4,056	208,747	106,964
352,377	3,902	208,580	106,762
353,392	3,831	208,530	106,678
354,406	3,666	208,370	106,472
355,421	193,544	1345,552	1431,870
356,435	154,408	1484,192	1431,969
