DTS Sentinel unit serial number:	SN410029Multiplexer serial number:	ORYXHardware model number:	OX2-SRSoftware version number:	ORYX F/W v4,00 Oryx Data Collector v3.7.2.0data status	okinstallation	B6 Nyhavnadifferential loss correction	single-endedforward channel	channel 2reverse channel	N/Adate	2023/12/09time	14:50:08forward acquisition time	300,00reverse acquisition time	0,00gamma	499,1914k internal	0,3133k external	0,3133temperature offset calibration	1,0000default loss term (dB/km)	0,3820temperature slope calibration	1,0000multiplexer offset coefficient	1,0000multiplexer slope coefficient	1,0000fibre end	0,00T internal ref (°C)	20,56T ext. ref 1 (°C)	4,31T ext. ref 2 (°C)	4,32length (m)	temperature (°C)	Stokes	anti-Stokes-744,400	-92,561	-0,035	0,007
-743,385	-180,247	-0,248	-0,004
-742,371	109,438	0,107	0,096
-741,356	84,831	-0,220	0,179
-740,342	294,608	0,087	0,119
-739,327	-77,211	-0,273	-0,070
-738,312	-200,000	-0,015	-0,146
-737,298	-123,748	-0,304	0,035
-736,283	-72,282	0,189	-0,052
-735,269	-93,347	-0,282	0,058
-734,254	-8,268	0,082	-0,041
-733,239	-107,729	-0,265	-0,043
-732,225	-93,960	0,075	-0,015
-731,210	-72,966	-0,093	0,025
-730,196	519,716	-0,046	-0,080
-729,181	40,974	-0,058	-0,039
-728,167	-200,000	0,005	0,043
-727,152	-101,667	-0,106	0,019
-726,137	800,000	-0,019	-0,056
-725,123	498,879	-0,047	-0,080
-724,108	318,671	-0,037	-0,052
-723,094	800,000	-0,027	-0,069
-722,079	335,180	-0,072	-0,104
-721,064	800,000	-0,007	0,020
-720,050	36,555	-0,048	0,032
-719,035	307,146	0,074	-0,102
-718,021	673,805	0,098	0,190
-717,006	-200,000	-0,000	-0,120
-715,991	-200,000	-0,016	-0,154
-714,977	-60,241	-0,187	-0,059
-713,962	-56,747	-0,059	-0,019
-712,948	-38,957	-0,062	-0,024
-711,933	800,000	0,055	0,126
-710,918	-200,000	0,029	0,109
-709,904	8,921	-0,103	-0,057
-708,889	-55,260	-0,018	-0,006
-707,875	-68,505	-0,153	-0,044
-706,860	800,000	0,029	-0,072
-705,845	-200,000	0,034	-0,145
-704,831	282,316	0,033	-0,044
-703,816	-200,000	-0,003	0,084
-702,802	-108,677	-0,014	-0,002
-701,787	-200,000	-0,005	-0,022
-700,772	266,158	0,057	-0,074
-699,758	800,000	-0,011	0,034
-698,743	-200,000	0,007	0,119
-697,729	-200,000	-0,007	0,034
-696,714	411,896	0,033	-0,053
-695,699	-200,000	-0,007	-0,082
-694,685	694,381	0,068	-0,132
-693,670	-200,000	-0,052	-0,198
-692,656	449,544	-0,048	0,079
-691,641	228,320	0,018	-0,022
-690,627	70,250	0,081	-0,062
-689,612	-200,000	0,019	-0,068
-688,597	108,634	-0,055	-0,048
-687,583	93,257	-0,094	-0,079
-686,568	-39,144	-0,182	-0,071
-685,554	152,849	0,104	-0,106
-684,539	800,000	-0,013	-0,036
-683,524	-26,015	-0,058	-0,025
-682,510	-200,000	0,011	-0,069
-681,495	-200,000	0,008	-0,191
-680,481	-90,788	-0,075	0,016
-679,466	-4,393	-0,135	-0,069
-678,451	213,237	0,101	-0,119
-677,437	-200,000	-0,014	-0,052
-676,422	-200,000	0,023	-0,077
-675,408	446,455	-0,004	0,006
-674,393	-200,000	0,010	-0,111
-673,378	-200,000	0,018	-0,092
-672,364	-69,861	0,075	0,021
-671,349	-200,000	-0,037	-0,130
-670,335	800,000	0,007	-0,019
-669,320	27,030	-0,087	0,054
-668,305	-200,000	0,002	-0,015
-667,291	-4,364	-0,110	0,056
-666,276	299,872	-0,067	-0,092
-665,262	-200,000	-0,013	-0,199
-664,247	-182,211	-0,024	0,000
-663,232	800,000	0,071	-0,169
-662,218	-124,052	0,178	0,020
-661,203	-200,000	0,013	0,089
-660,189	453,042	-0,076	-0,124
-659,174	-200,000	-0,015	-0,085
-658,159	204,670	-0,096	-0,111
-657,145	761,621	-0,089	-0,180
-656,130	-200,000	-0,021	0,124
-655,116	-8,826	0,040	0,020
-654,101	-89,573	0,140	0,030
-653,086	-194,223	-0,102	-0,001
-652,072	128,861	-0,041	-0,038
-651,057	170,373	-0,113	-0,119
-650,043	-200,000	0,064	-0,000
-649,028	46,318	0,086	-0,059
-648,014	-200,000	0,016	0,079
-646,999	-200,000	0,010	0,048
-645,984	-78,098	-0,059	0,015
-644,970	289,848	-0,017	-0,022
-643,955	-200,000	0,008	-0,090
-642,941	243,021	-0,055	-0,069
-641,926	360,505	-0,070	-0,104
-640,911	-12,233	-0,098	-0,047
-639,897	323,464	0,065	0,092
-638,882	321,739	0,072	-0,102
-637,868	406,577	-0,043	0,067
-636,853	-124,641	-0,118	0,013
-635,838	800,000	-0,017	-0,040
-634,824	3,197	0,087	0,047
-633,809	800,000	-0,019	-0,057
-632,795	-200,000	-0,008	-0,037
-631,780	-100,669	-0,057	-0,010
-630,765	-200,000	-0,012	-0,158
-629,751	-36,884	-0,092	-0,036
-628,736	19,622	0,047	-0,028
-627,722	-142,370	0,086	-0,006
-626,707	3,729	0,045	-0,024
-625,692	-54,457	0,018	0,006
-624,678	46,361	-0,074	0,051
-623,663	785,426	0,036	0,074
-622,649	536,691	0,037	0,065
-621,634	-0,246	-0,025	0,013
-620,619	-124,536	0,119	-0,014
-619,605	138,108	-0,147	-0,143
-618,590	-72,607	0,062	-0,017
-617,576	800,000	0,020	-0,060
-616,561	452,977	-0,038	0,062
-615,546	-200,000	-0,004	-0,027
-614,532	-80,190	-0,098	-0,024
-613,517	136,965	-0,051	0,049
-612,503	456,532	0,049	0,081
-611,488	-116,777	-0,028	-0,004
-610,474	800,000	0,021	0,058
-609,459	104,767	-0,053	-0,046
-608,444	-52,488	-0,048	-0,016
-607,430	-200,000	-0,009	-0,085
-606,415	-19,399	-0,062	-0,028
-605,401	-95,952	-0,044	-0,009
-604,386	241,401	-0,073	-0,090
-603,371	-28,661	-0,029	0,012
-602,357	-56,149	-0,145	-0,047
-601,342	-200,000	0,018	-0,081
-600,328	355,568	-0,071	-0,105
-599,313	-200,000	-0,035	-0,147
-598,298	29,591	0,025	0,016
-597,284	-200,000	-0,005	0,065
-596,269	-8,547	0,059	0,029
-595,255	47,811	0,032	0,022
-594,240	-24,428	0,139	-0,061
-593,225	-200,000	0,005	0,077
-592,211	-200,000	0,031	-0,203
-591,196	106,633	0,067	-0,059
-590,182	-58,559	0,067	0,021
-589,167	-200,000	0,029	-0,098
-588,152	219,282	0,092	0,109
-587,138	-118,845	0,105	0,014
-586,123	800,000	0,037	0,077
-585,109	-80,809	-0,016	-0,004
-584,094	89,423	-0,078	0,064
-583,079	18,589	0,130	-0,076
-582,065	174,568	0,143	0,153
-581,050	-200,000	0,004	0,077
-580,036	-200,000	-0,022	0,113
-579,021	800,000	-0,017	-0,042
-578,006	-40,718	0,048	-0,018
-576,992	-155,260	-0,071	-0,003
-575,977	-200,000	0,025	-0,111
-574,963	230,316	0,056	0,068
-573,948	278,240	0,041	0,053
-572,934	365,169	-0,058	-0,086
-571,919	-200,000	-0,013	-0,054
-570,904	-34,853	0,053	0,021
-569,890	800,000	0,022	0,064
-568,875	800,000	0,033	0,076
-567,861	11,279	0,084	-0,047
-566,846	-52,211	-0,095	0,032
-565,831	-143,241	-0,049	0,003
-564,817	4,223	-0,084	-0,045
-563,802	-200,000	-0,009	-0,149
-562,788	800,000	0,008	-0,021
-561,773	800,000	-0,049	-0,129
-560,758	432,693	0,075	0,120
-559,744	800,000	-0,048	-0,108
-558,729	-88,588	-0,117	0,026
-557,715	197,688	0,094	0,106
-556,700	129,268	-0,033	-0,031
-555,685	-112,254	-0,056	-0,008
-554,671	757,550	-0,037	-0,074
-553,656	659,409	0,044	-0,084
-552,642	-200,000	-0,018	0,292
-551,627	-200,000	0,010	-0,069
-550,612	151,983	0,115	-0,115
-549,598	167,444	0,086	-0,090
-548,583	63,948	-0,045	-0,033
-547,569	-148,388	-0,012	0,001
-546,554	-91,047	0,123	-0,026
-545,539	-36,007	0,075	0,030
-544,525	509,071	0,057	0,098
-543,510	-95,520	-0,177	-0,035
-542,496	108,152	0,073	0,064
-541,481	-8,806	0,078	-0,038
-540,466	2,040	0,088	-0,047
-539,452	-83,609	-0,029	0,007
-538,437	-200,000	0,000	-0,130
-537,423	172,196	-0,045	0,048
-536,408	-200,000	0,005	-0,083
-535,393	-34,697	-0,105	-0,042
-534,379	-0,840	-0,117	-0,061
-533,364	-200,000	-0,007	0,110
-532,350	41,892	0,050	0,033
-531,335	45,334	-0,048	0,033
-530,321	-43,123	0,025	-0,009
-529,306	140,884	-0,036	-0,035
-528,291	800,000	-0,053	-0,135
-527,277	800,000	0,029	0,060
-526,262	667,898	-0,059	0,112
-525,248	-200,000	-0,013	0,053
-524,233	-200,000	0,016	0,101
-523,218	35,433	-0,055	0,036
-522,204	50,629	-0,103	-0,072
-521,189	451,643	-0,076	-0,124
-520,175	800,000	-0,056	-0,156
-519,160	616,048	0,034	0,063
-518,145	-107,818	0,019	-0,003
-517,131	800,000	-0,055	-0,163
-516,116	-200,000	0,028	0,111
-515,102	-39,638	0,051	-0,019
-514,087	679,410	0,025	-0,048
-513,072	228,437	0,017	-0,021
-512,058	-200,000	0,013	0,180
-511,043	800,000	-0,014	0,032
-510,029	800,000	0,019	0,052
-509,014	108,805	-0,032	0,028
-507,999	-131,135	0,106	-0,010
-506,985	258,685	0,045	-0,057
-505,970	311,883	0,070	-0,097
-504,956	-200,000	-0,017	-0,144
-503,941	122,388	-0,032	-0,030
-502,926	-24,232	0,053	0,023
-501,912	-166,854	0,106	0,003
-500,897	-42,206	-0,104	0,039
-499,883	-200,000	-0,003	0,013
-498,868	48,853	-0,060	-0,042
-497,853	20,446	0,062	-0,037
-496,839	-16,351	0,103	-0,048
-495,824	800,000	-0,029	0,074
-494,810	-43,361	0,116	-0,043
-493,795	75,618	-0,012	-0,009
-492,781	-200,000	0,000	0,069
-491,766	800,000	0,023	-0,070
-490,751	-200,000	-0,005	-0,057
-489,737	245,730	-0,066	0,082
-488,722	-200,000	0,000	0,026
-487,708	-200,000	-0,014	0,092
-486,693	-6,378	0,025	0,013
-485,678	-57,298	0,150	-0,048
-484,664	157,622	-0,069	0,070
-483,649	800,000	-0,043	0,129
-482,635	34,019	0,082	0,053
-481,620	-88,150	-0,005	0,001
-480,605	800,000	0,043	-0,132
-479,591	-123,969	0,061	-0,007
-478,576	-200,000	0,001	0,022
-477,562	-91,665	-0,128	-0,026
-476,547	-200,000	0,021	0,087
-475,532	21,006	-0,048	0,029
-474,518	800,000	0,037	-0,096
-473,503	-14,007	-0,042	0,020
-472,489	186,756	-0,040	-0,043
-471,474	-200,000	-0,007	-0,083
-470,459	-8,610	0,105	-0,051
-469,445	95,961	-0,128	-0,107
-468,430	734,406	0,030	-0,059
-467,416	-200,000	0,017	-0,088
-466,401	114,553	0,171	0,153
-465,386	-200,000	-0,008	-0,051
-464,372	-200,000	0,007	-0,025
-463,357	800,000	0,031	-0,100
-462,343	211,980	-0,087	-0,101
-461,328	199,458	0,056	-0,063
-460,313	-200,000	0,001	0,023
-459,299	86,551	0,138	0,111
-458,284	800,000	-0,064	0,131
-457,270	277,093	0,022	-0,029
-456,255	9,101	-0,125	-0,069
-455,241	334,537	-0,049	-0,070
-454,226	175,359	-0,110	0,118
-453,211	194,233	0,106	-0,118
-452,197	800,000	0,007	-0,017
-451,182	397,301	0,046	-0,071
-450,168	-200,000	-0,011	0,055
-449,153	-4,852	0,033	-0,017
-448,138	-9,713	-0,062	0,030
-447,124	-200,000	0,013	-0,062
-446,109	-24,128	0,210	-0,092
-445,095	-45,079	0,034	-0,013
-444,080	401,691	-0,048	0,075
-443,065	-200,000	0,007	0,052
-442,051	161,626	0,010	-0,010
-441,036	800,000	-0,032	-0,082
-440,022	553,581	-0,014	0,025
-439,007	538,067	0,062	0,108
-437,992	-200,000	0,045	0,155
-436,978	74,319	-0,079	0,061
-435,963	-16,196	0,088	0,041
-434,949	154,288	0,063	-0,064
-433,934	-200,000	0,016	-0,067
-432,919	800,000	-0,049	0,118
-431,905	363,127	0,030	-0,044
-430,890	653,026	0,084	0,159
-429,876	-87,228	0,084	-0,019
-428,861	206,118	-0,108	-0,124
-427,846	-200,000	0,045	-0,168
-426,832	-194,926	0,098	-0,001
-425,817	77,580	-0,025	0,019
-424,803	-23,032	0,081	0,036
-423,788	363,712	0,163	-0,242
-422,773	-2,346	0,008	-0,004
-421,759	-200,000	0,009	0,046
-420,744	-200,000	-0,013	0,075
-419,730	47,755	0,136	-0,093
-418,715	-31,633	0,077	0,032
-417,701	167,190	0,012	-0,012
-416,686	-91,560	-0,081	0,017
-415,671	149,537	0,047	0,046
-414,657	-89,355	0,098	-0,021
-413,642	-200,000	0,009	-0,064
-412,628	800,000	-0,005	-0,014
-411,613	115,616	-0,044	0,039
-410,598	127,284	0,033	0,031
-409,584	274,214	-0,065	0,084
-408,569	-24,089	0,015	-0,006
-407,555	164,696	-0,150	0,155
-406,540	-200,000	-0,008	0,026
-405,525	-95,582	-0,123	-0,024
-404,511	-200,000	0,006	-0,027
-403,496	153,514	-0,051	0,051
-402,482	-200,000	-0,004	0,027
-401,467	-200,000	0,018	0,097
-400,452	90,451	0,045	-0,037
-399,438	-184,852	0,080	0,001
-398,423	800,000	0,026	-0,060
-397,409	-200,000	-0,000	0,041
-396,394	-200,000	0,011	0,054
-395,379	-135,528	0,186	0,016
-394,365	-200,000	-0,013	0,052
-393,350	-43,920	0,021	-0,008
-392,336	-200,000	-0,001	0,006
-391,321	-123,386	-0,110	0,013
-390,306	-25,455	-0,055	0,024
-389,292	-200,000	-0,033	0,152
-388,277	-82,523	0,022	-0,005
-387,263	500,822	-0,036	0,061
-386,248	800,000	0,056	-0,116
-385,233	581,553	-0,026	0,048
-384,219	201,966	0,019	0,021
-383,204	114,186	-0,083	0,074
-382,190	-58,769	-0,135	0,042
-381,175	267,857	-0,016	0,021
-380,160	-142,138	0,099	-0,007
-379,146	-23,688	-0,058	0,025
-378,131	-200,000	0,039	0,144
-377,117	245,960	-0,051	0,063
-376,102	383,996	-0,018	-0,027
-375,088	219,458	0,061	0,071
-374,073	-81,235	-0,107	-0,026
-373,058	-178,687	0,056	0,001
-372,044	352,962	0,051	-0,074
-371,029	-63,694	-0,088	0,026
-370,015	385,472	-0,048	0,072
-369,000	57,278	-0,185	0,132
-367,985	-80,965	0,067	0,016
-366,971	9,913	0,088	0,049
-365,956	-200,000	-0,005	0,066
-364,942	-135,059	0,080	-0,007
-363,927	-117,889	-0,073	-0,009
-362,912	8,874	0,102	0,056
-361,898	-200,000	0,014	0,102
-360,883	-90,781	-0,127	-0,027
-359,869	148,756	0,067	-0,066
-358,854	-200,000	-0,010	0,103
-357,839	800,000	0,010	-0,022
-356,825	-36,861	0,151	0,059
-355,810	220,383	-0,035	-0,041
-354,796	-200,000	-0,010	0,229
-353,781	372,947	-0,067	-0,100
-352,766	-200,000	0,011	-0,109
-351,752	-2,236	0,168	-0,086
-350,737	173,364	-0,140	0,148
-349,723	-157,232	0,084	0,004
-348,708	265,210	0,039	0,049
-347,693	-135,862	-0,089	-0,008
-346,679	800,000	0,031	-0,080
-345,664	800,000	0,017	-0,054
-344,650	-142,647	0,126	0,009
-343,635	248,264	-0,028	0,034
-342,620	-90,920	0,174	-0,036
-341,606	-200,000	-0,031	0,147
-340,591	609,450	-0,033	0,061
-339,577	625,673	-0,073	-0,136
-338,562	428,581	0,041	-0,065
-337,548	-200,000	-0,016	-0,141
-336,533	800,000	0,078	0,163
-335,518	-76,967	-0,054	-0,014
-334,504	211,499	0,094	0,108
-333,489	109,776	-0,055	0,048
-332,475	-54,707	-0,153	-0,050
-331,460	179,348	0,042	0,045
-330,445	-53,709	0,082	-0,027
-329,431	-200,000	-0,002	-0,043
-328,416	-13,953	0,029	-0,014
-327,402	-14,105	0,054	-0,025
-326,387	800,000	0,030	-0,065
-325,372	135,964	-0,032	-0,030
-324,358	408,014	-0,065	-0,101
-323,343	257,876	0,051	-0,064
-322,329	38,040	-0,014	0,009
-321,314	8,680	0,062	0,034
-320,299	311,002	0,064	-0,087
-319,285	155,656	0,027	0,027
-318,270	-19,951	-0,198	-0,089
-317,256	800,000	-0,054	-0,135
-316,241	63,351	-0,067	0,049
-315,226	24,891	0,081	-0,049
-314,212	-200,000	-0,011	0,043
-313,197	-200,000	-0,001	-0,114
-312,183	83,333	0,077	-0,061
-311,168	-100,465	-0,074	-0,013
-310,153	800,000	-0,016	0,047
-309,139	338,555	-0,064	0,091
-308,124	-62,585	0,212	0,064
-307,110	-200,000	0,002	0,130
-306,095	-200,000	-0,010	-0,041
-305,080	-200,000	0,003	-0,046
-304,066	338,899	-0,085	-0,121
-303,051	35,226	-0,061	0,039
-302,037	-142,469	-0,123	-0,009
-301,022	800,000	0,029	-0,062
-300,008	-41,499	0,002	-0,001
-298,993	800,000	-0,035	-0,103
-297,978	627,831	-0,034	0,062
-296,964	-142,536	-0,136	-0,010
-295,949	800,000	0,017	-0,044
-294,935	89,089	-0,025	-0,020
-293,920	-200,000	-0,012	-0,087
-292,905	106,779	0,068	-0,059
-291,891	-142,849	0,132	-0,009
-290,876	800,000	0,017	0,037
-289,862	-200,000	0,015	0,087
-288,847	161,242	-0,061	-0,062
-287,832	105,768	-0,049	-0,042
-286,818	-200,000	-0,018	0,221
-285,803	-200,000	-0,007	-0,072
-284,789	201,030	0,042	0,048
-283,774	90,697	0,042	0,034
-282,759	-17,141	-0,156	0,071
-281,745	-80,885	0,017	0,004
-280,730	-19,144	0,008	0,004
-279,716	-52,330	0,105	-0,035
-278,701	-48,647	-0,047	0,017
-277,686	-200,000	-0,001	-0,043
-276,672	-150,672	0,053	-0,003
-275,657	-200,000	-0,011	-0,087
-274,643	-131,451	-0,194	0,018
-273,628	-131,810	-0,053	-0,005
-272,613	-200,000	0,018	0,067
-271,599	254,987	-0,098	0,122
-270,584	800,000	-0,036	0,113
-269,570	30,195	0,118	0,074
-268,555	179,064	0,076	0,081
-267,540	-200,000	-0,013	-0,091
-266,526	279,574	0,074	0,096
-265,511	5,836	0,045	0,024
-264,497	12,289	-0,009	-0,005
-263,482	-29,345	0,119	-0,050
-262,467	75,455	0,032	-0,025
-261,453	-200,000	0,002	0,047
-260,438	-200,000	-0,007	0,066
-259,424	139,412	-0,072	-0,069
-258,409	-32,616	-0,017	-0,007
-257,395	-140,006	0,112	-0,008
-256,380	-53,134	0,098	0,033
-255,365	-90,230	0,102	-0,021
-254,351	-28,140	-0,049	0,021
-253,336	800,000	-0,033	-0,087
-252,322	79,917	0,061	0,048
-251,307	-105,314	-0,126	-0,021
-250,292	-200,000	-0,002	0,100
-249,278	140,476	0,065	0,062
-248,263	195,334	0,027	0,030
-247,249	-200,000	0,030	0,209
-246,234	-68,485	-0,116	0,033
-245,219	-200,000	0,009	0,060
-244,205	-39,115	-0,069	0,026
-243,190	20,564	-0,138	-0,081
-242,176	32,872	-0,016	-0,010
-241,161	-126,182	0,064	0,007
-240,146	-200,000	0,014	-0,076
-239,132	95,707	-0,094	-0,078
-238,117	193,546	-0,075	-0,083
-237,103	800,000	-0,045	0,100
-236,088	-200,000	-0,012	-0,043
-235,073	-125,130	-0,018	0,002
-234,059	-200,000	0,001	0,067
-233,044	800,000	-0,036	0,103
-232,030	-200,000	0,004	0,034
-231,015	-4,817	-0,118	-0,059
-230,000	134,280	-0,083	-0,079
-228,986	190,001	0,085	0,093
-227,971	800,000	-0,021	0,063
-226,957	-136,148	-0,084	0,007
-225,942	-200,000	-0,020	-0,190
-224,927	-31,277	-0,058	0,024
-223,913	-49,815	0,071	-0,024
-222,898	-169,967	-0,048	0,001
-221,884	-121,663	0,130	-0,015
-220,869	-200,000	-0,053	0,173
-219,855	13,132	0,192	-0,108
-218,840	-107,426	-0,028	0,004
-217,825	70,936	-0,100	0,075
-216,811	-200,000	0,015	-0,058
-215,796	202,536	0,033	0,038
-214,782	365,342	0,067	-0,098
-213,767	742,983	0,020	0,040
-212,752	800,000	0,042	0,129
-211,738	-86,958	-0,078	-0,017
-210,723	7,573	0,012	-0,006
-209,709	-79,491	-0,122	-0,030
-208,694	26,059	-0,103	0,062
-207,679	-143,322	0,068	0,005
-206,665	-200,000	-0,004	0,042
-205,650	-30,372	0,076	0,031
-204,636	-131,027	0,138	0,013
-203,621	-73,154	-0,086	0,023
-202,606	-26,413	-0,034	-0,015
-201,592	563,671	0,040	0,071
-200,577	800,000	-0,046	-0,095
-199,563	91,737	-0,044	-0,036
-198,548	7,812	-0,085	-0,046
-197,533	130,384	0,021	-0,020
-196,519	98,641	0,074	-0,062
-195,504	-3,167	-0,090	-0,045
-194,490	-12,446	-0,101	-0,048
-193,475	57,462	0,053	0,037
-192,460	-200,000	0,023	0,096
-191,446	800,000	0,044	0,110
-190,431	13,385	-0,050	-0,028
-189,417	-177,216	0,079	-0,001
-188,402	800,000	0,060	-0,167
-187,387	-144,069	-0,236	-0,016
-186,373	-58,103	-0,106	0,033
-185,358	-98,067	0,106	-0,020
-184,344	-200,000	0,009	0,049
-183,329	5,713	0,027	-0,014
-182,315	-82,812	-0,048	0,011
-181,300	203,529	-0,047	0,053
-180,285	597,760	-0,046	-0,083
-179,271	-200,000	-0,011	0,037
-178,256	577,960	0,015	-0,026
-177,242	-200,000	0,015	0,087
-176,227	-29,643	0,063	0,026
-175,212	800,000	0,043	0,107
-174,198	-112,607	-0,080	-0,012
-173,183	-200,000	0,006	0,030
-172,169	473,535	-0,062	-0,103
-171,154	-181,984	-0,056	0,001
-170,139	293,512	-0,095	0,126
-169,125	111,308	0,043	0,037
-168,110	800,000	0,069	-0,149
-167,096	-200,000	-0,016	0,113
-166,081	800,000	-0,009	-0,019
-165,066	328,018	-0,071	-0,100
-164,052	-154,073	-0,019	0,001
-163,037	637,325	-0,035	0,065
-162,023	-200,000	0,008	-0,028
-161,008	-41,820	0,112	0,041
-159,993	283,610	-0,022	0,029
-158,979	-66,674	-0,066	0,019
-157,964	-191,338	-0,189	-0,001
-156,950	43,749	-0,079	0,052
-155,935	611,899	0,052	-0,094
-154,920	154,335	0,090	-0,090
-153,906	34,874	-0,083	0,053
-152,891	-0,218	0,061	-0,032
-151,877	214,496	-0,064	-0,073
-150,862	-200,000	-0,008	-0,137
-149,847	-37,729	-0,129	0,050
-148,833	48,289	-0,060	0,040
-147,818	-200,000	0,182	0,000
-146,804	-200,000	-0,002	-0,081
-145,789	264,551	-0,056	-0,071
-144,775	-200,000	-0,010	0,119
-143,760	140,799	-0,055	-0,053
-142,745	800,000	0,038	-0,085
-141,731	-24,551	0,097	0,042
-140,716	34,302	-0,064	-0,040
-139,702	491,873	0,017	0,029
-138,687	134,497	-0,024	-0,022
-137,672	-200,000	-0,018	0,059
-136,658	-200,000	-0,042	-0,159
-135,643	215,901	0,029	-0,034
-134,629	-200,000	-0,010	0,070
-133,614	-200,000	-0,012	-0,053
-132,599	33,177	0,030	0,019
-131,585	87,129	0,086	0,069
-130,570	683,282	0,058	-0,110
-129,556	40,848	-0,137	-0,089
-128,541	800,000	-0,040	-0,086
-127,526	-59,785	-0,033	-0,010
-126,512	-200,000	-0,007	0,178
-125,497	33,848	0,150	0,094
-124,483	-14,296	0,087	-0,040
-123,468	-151,583	0,040	-0,002
-122,453	-109,295	0,030	0,005
-121,439	800,000	0,018	0,036
-120,424	-67,310	0,135	-0,038
-119,410	-67,550	0,107	0,030
-118,395	-119,941	0,115	0,014
-117,380	-14,788	-0,110	0,051
-116,366	328,139	0,035	0,049
-115,351	463,337	-0,120	0,195
-114,337	460,720	-0,035	-0,057
-113,322	774,680	0,030	0,059
-112,307	102,804	0,133	0,113
-111,293	548,266	-0,050	-0,087
-110,278	-99,543	0,030	0,005
-109,264	-95,924	0,101	-0,019
-108,249	-200,000	-0,021	0,088
-107,234	227,288	-0,043	0,051
-106,220	-200,000	-0,004	-0,026
-105,205	137,048	-0,144	0,136
-104,191	116,286	0,133	0,118
-103,176	-72,958	0,134	-0,035
-102,162	-98,447	0,077	0,014
-101,147	-65,143	-0,063	0,018
-100,132	-200,000	-0,006	-0,059
-99,118	-200,000	-0,010	-0,113
-98,103	-10,958	0,035	-0,017
-97,089	206,746	-0,067	0,076
-96,074	800,000	0,050	0,102
-95,059	10,015	0,047	0,026
-94,045	61,214	0,134	-0,097
-93,030	-124,583	-0,098	-0,011
-92,016	81,554	-0,098	0,077
-91,001	15,050	0,090	-0,051
-89,986	284,332	-0,012	0,016
-88,972	-200,000	0,020	0,159
-87,957	755,398	-0,026	-0,052
-86,943	-84,968	0,013	-0,003
-85,928	60,128	-0,112	-0,080
-84,913	431,356	0,013	0,021
-83,899	605,644	0,062	-0,112
-82,884	-8,062	0,047	-0,023
-81,870	368,363	0,088	0,129
-80,855	800,000	0,035	0,096
-79,840	579,699	0,049	0,087
-78,826	-127,310	-0,234	-0,024
-77,811	-200,000	-0,022	-0,095
-76,797	-16,947	-0,108	-0,049
-75,782	-87,319	-0,038	-0,008
-74,767	-114,901	-0,065	-0,009
-73,753	-200,000	0,002	0,139
-72,738	800,000	-0,035	0,103
-71,724	-120,222	-0,057	-0,007
-70,709	502,584	0,058	-0,098
-69,694	-115,704	-0,105	-0,014
-68,680	-49,196	-0,045	0,015
-67,665	800,000	0,021	0,045
-66,651	129,029	0,087	-0,080
-65,636	800,000	-0,048	-0,103
-64,622	798,590	0,014	0,028
-63,607	222,219	0,058	-0,067
-62,592	-200,000	-0,016	-0,133
-61,578	603,611	-0,057	0,102
-60,563	-99,268	0,172	0,031
-59,549	-200,000	0,007	0,068
-58,534	-92,900	-1,494	-0,299
-57,519	563,733	-0,738	-1,299
-56,505	-200,000	-0,988	-4,573
-55,490	-105,368	0,797	-0,130
-54,476	800,000	5,040	11,942
-53,461	-200,000	14,901	262,766
-52,446	-200,000	697,549	2238,444
-51,432	565,661	1621,509	2855,693
-50,417	118,976	1628,605	1456,039
-49,403	76,418	1282,981	982,315
-48,388	37,471	1021,989	654,183
-47,373	22,918	981,754	580,673
-46,359	22,009	971,093	571,368
-45,344	20,744	966,952	564,784
-44,330	20,812	965,376	564,063
-43,315	20,669	964,004	562,773
-42,300	20,583	962,981	561,874
-41,286	20,653	961,736	561,352
-40,271	20,629	960,846	560,732
-39,257	20,611	960,006	560,162
-38,242	20,604	959,063	559,569
-37,227	20,576	958,294	559,005
-36,213	20,579	957,408	558,475
-35,198	20,523	956,520	557,754
-34,184	20,539	955,845	557,391
-33,169	20,555	954,737	556,774
-32,154	20,640	954,007	556,601
-31,140	20,623	953,050	555,964
-30,125	20,656	952,353	555,643
-29,111	20,589	951,538	554,931
-28,096	20,597	950,890	554,555
-27,082	20,657	950,123	554,280
-26,067	20,600	949,267	553,576
-25,052	20,583	948,724	553,181
-24,038	20,540	947,967	552,580
-23,023	20,590	947,230	552,290
-22,009	20,638	946,659	552,087
-20,994	20,639	945,956	551,660
-19,979	20,620	945,383	551,244
-18,965	20,580	944,707	550,698
-17,950	20,564	944,152	550,301
-16,936	20,556	943,559	549,911
-15,921	20,567	942,884	549,529
-14,906	20,500	942,046	548,806
-13,892	20,446	941,566	548,334
-12,877	20,501	940,960	548,133
-11,863	20,403	940,368	547,455
-10,848	20,475	939,920	547,401
-9,833	20,641	939,348	547,573
-8,819	20,564	938,668	546,910
-7,804	20,488	938,137	546,338
-6,790	20,493	937,549	545,992
-5,775	20,540	936,962	545,777
-4,760	20,497	936,413	545,298
-3,746	20,473	935,724	544,802
-2,731	20,377	934,847	543,966
-1,717	20,316	934,236	543,396
-0,702	20,313	933,494	542,935
0,313	20,139	932,922	542,871
1,327	23,111	931,095	551,092
2,342	32,319	793,272	493,938
3,356	29,436	451,186	276,569
4,371	-0,465	296,333	151,574
5,386	-4,676	277,452	137,887
6,400	-5,959	271,866	133,898
7,415	-6,234	269,402	132,418
8,429	-6,065	268,170	131,956
9,444	-6,143	267,385	131,487
10,459	-6,203	266,771	131,118
11,473	-6,187	265,941	130,713
12,488	-6,184	265,492	130,483
13,502	-6,369	265,125	130,122
14,517	-6,342	264,445	129,801
15,531	-6,225	264,056	129,706
16,546	-6,371	263,900	129,484
17,561	-6,371	263,518	129,286
18,575	-6,235	263,093	129,188
19,590	-6,401	262,841	128,903
20,604	-6,102	262,453	128,972
21,619	-6,368	262,261	128,626
22,634	-6,150	261,636	128,504
23,648	-6,411	261,539	128,210
24,663	-6,474	261,366	128,057
25,677	-6,429	261,072	127,942
26,692	-6,552	260,893	127,733
27,707	-6,235	260,532	127,828
28,721	-6,387	260,244	127,540
29,736	-6,398	259,990	127,394
30,750	-6,476	259,690	127,166
31,765	-6,427	259,321	127,018
32,780	-6,525	259,336	126,927
33,794	-6,236	258,933	126,975
34,809	-6,335	258,721	126,772
35,823	-6,525	258,652	126,558
36,838	-6,482	258,256	126,391
37,853	-6,508	258,057	126,259
38,867	-6,480	257,780	126,138
39,882	-6,489	257,630	126,044
40,896	-6,619	257,447	125,829
41,911	-6,603	257,140	125,682
42,926	-6,653	256,968	125,543
43,940	-6,434	256,657	125,572
44,955	-6,711	256,447	125,215
45,969	-6,618	256,220	125,174
46,984	-7,037	256,018	124,696
47,999	-7,110	255,654	124,444
49,013	-7,263	255,458	124,203
50,028	-7,184	255,205	124,138
51,042	-7,168	254,801	123,944
52,057	-7,240	254,439	123,695
53,071	-7,403	254,447	123,544
54,086	-7,256	254,389	123,634
55,101	-7,023	254,219	123,744
56,115	-6,907	253,972	123,714
57,130	-6,493	253,995	124,075
58,144	-6,262	253,968	124,251
59,159	-6,050	253,409	124,151
60,174	-6,255	253,306	123,912
61,188	-6,280	253,092	123,774
62,203	-6,364	252,924	123,608
63,217	-6,259	252,776	123,615
64,232	-6,271	252,514	123,466
65,247	-6,178	252,220	123,391
66,261	-6,356	252,197	123,215
67,276	-6,618	251,735	122,753
68,290	-6,668	251,570	122,619
69,305	-6,598	251,213	122,494
70,320	-7,019	251,145	122,088
71,334	-6,612	251,001	122,357
72,349	-6,256	250,819	122,562
73,363	-6,273	250,732	122,494
74,378	-6,351	250,553	122,330
75,393	-6,388	250,192	122,110
76,407	-6,436	250,089	122,008
77,422	-6,504	249,826	121,811
78,436	-6,361	249,726	121,873
79,451	-6,346	249,395	121,714
80,466	-6,400	249,208	121,566
81,480	-6,911	248,928	120,983
82,495	-6,704	248,744	121,059
83,509	-6,718	248,639	120,985
84,524	-6,646	248,518	120,977
85,539	-6,836	248,062	120,582
86,553	-6,987	247,980	120,404
87,568	-6,717	247,820	120,544
88,582	-6,564	247,535	120,525
89,597	-6,783	247,368	120,248
90,611	-6,532	247,191	120,363
91,626	-6,239	247,015	120,513
92,641	-6,295	246,941	120,420
93,655	-6,691	246,835	120,023
94,670	-6,644	246,481	119,880
95,684	-6,682	246,371	119,783
96,699	-6,575	246,055	119,710
97,714	-6,547	245,992	119,691
98,728	-6,854	245,838	119,348
99,743	-6,875	245,637	119,222
100,757	-6,946	245,251	118,965
101,772	-6,729	245,005	119,016
102,787	-6,762	244,939	118,946
103,801	-6,494	244,799	119,092
104,816	-6,671	244,730	118,899
105,830	-6,544	244,583	118,924
106,845	-6,376	244,355	118,942
107,860	-6,498	244,150	118,730
108,874	-6,495	243,876	118,589
109,889	-6,719	243,736	118,324
110,903	-6,730	243,572	118,224
111,918	-6,726	243,353	118,111
112,933	-6,593	243,081	118,078
113,947	-6,601	243,120	118,081
114,962	-6,588	242,929	117,988
115,976	-6,658	242,788	117,851
116,991	-6,614	242,508	117,741
118,006	-6,555	242,332	117,694
119,020	-6,465	242,337	117,760
120,035	-6,361	242,076	117,709
121,049	-6,356	242,011	117,670
122,064	-6,517	241,794	117,422
123,079	-6,435	241,562	117,366
124,093	-6,316	241,355	117,353
125,108	-6,688	240,894	116,813
126,122	-7,149	240,846	116,401
127,137	-7,104	240,578	116,297
128,151	-6,823	240,462	116,462
129,166	-6,685	240,355	116,513
130,181	-6,871	240,165	116,258
131,195	-6,917	239,923	116,093
132,210	-6,653	239,812	116,244
133,224	-6,598	239,777	116,262
134,239	-6,535	239,574	116,204
135,254	-6,530	239,302	116,067
136,268	-6,753	239,156	115,804
137,283	-6,825	238,960	115,639
138,297	-7,026	238,624	115,303
139,312	-6,916	238,490	115,318
140,327	-6,654	238,401	115,477
141,341	-6,180	238,510	115,904
142,356	-6,198	238,206	115,732
143,370	-6,188	238,170	115,712
144,385	-6,162	237,987	115,634
145,400	-6,035	237,650	115,563
146,414	-6,153	237,602	115,433
147,429	-6,263	237,609	115,338
148,443	-6,030	237,150	115,293
149,458	-6,363	237,136	115,007
150,473	-6,372	236,908	114,879
151,487	-6,345	236,732	114,805
152,502	-6,343	236,590	114,727
153,516	-6,169	236,362	114,747
154,531	-6,374	236,347	114,565
155,546	-6,277	236,123	114,524
156,560	-6,355	235,772	114,280
157,575	-6,386	235,606	114,165
158,589	-6,520	235,390	113,943
159,604	-6,122	235,380	114,246
160,619	-6,042	235,314	114,268
161,633	-6,116	234,986	114,039
162,648	-6,185	234,946	113,955
163,662	-6,199	234,840	113,882
164,677	-6,250	234,592	113,711
165,692	-5,958	234,284	113,783
166,706	-5,931	234,246	113,777
167,721	-6,023	234,233	113,687
168,735	-5,939	234,044	113,652
169,750	-6,100	233,945	113,466
170,764	-6,221	233,765	113,272
171,779	-5,963	233,467	113,322
172,794	-5,845	233,327	113,338
173,808	-6,060	233,093	113,044
174,823	-6,722	232,783	112,361
175,837	-6,932	232,614	112,103
176,852	-6,581	232,686	112,405
177,867	-6,347	232,595	112,535
178,881	-6,106	232,485	112,662
179,896	-5,914	232,339	112,733
180,910	-6,033	232,137	112,532
181,925	-6,069	231,966	112,410
182,940	-5,935	231,767	112,409
183,954	-6,026	231,719	112,305
184,969	-5,986	231,476	112,208
185,983	-6,014	231,477	112,176
186,998	-5,903	231,073	112,058
188,013	-5,985	231,204	112,047
189,027	-5,877	230,901	111,975
190,042	-5,889	230,803	111,908
191,056	-5,784	230,592	111,877
192,071	-5,917	230,509	111,723
193,086	-6,026	230,294	111,523
194,100	-5,934	230,214	111,547
195,115	-6,274	229,957	111,148
196,129	-6,601	229,752	110,784
197,144	-3,043	230,898	114,107
198,159	1,178	231,996	117,946
199,173	3,715	232,543	120,201
200,188	3,744	232,537	120,211
201,202	3,834	232,290	120,143
202,217	4,003	232,167	120,200
203,232	4,199	232,120	120,318
204,246	4,168	232,055	120,250
205,261	4,476	231,815	120,355
206,275	4,320	231,802	120,216
207,290	4,490	231,580	120,222
208,304	4,691	231,422	120,285
209,319	4,322	231,331	119,941
210,334	4,377	231,008	119,805
211,348	4,170	230,776	119,514
212,363	3,705	230,518	119,009
213,377	3,693	230,445	118,951
214,392	3,552	230,186	118,697
215,407	3,608	230,063	118,668
216,421	3,874	229,782	118,717
217,436	3,584	229,853	118,519
218,450	3,288	229,426	118,060
219,465	3,493	229,251	118,117
220,480	3,593	229,278	118,198
221,494	3,429	229,155	117,998
222,509	3,815	228,750	118,075
223,523	3,448	228,728	117,772
224,538	3,439	228,617	117,697
225,553	3,510	228,452	117,656
226,567	3,724	228,361	117,763
227,582	3,709	228,405	117,763
228,596	4,009	228,211	117,883
229,611	3,699	227,996	117,524
230,626	3,448	227,722	117,180
231,640	3,347	227,565	117,012
232,655	3,787	227,479	117,293
233,669	4,331	227,537	117,728
234,684	4,275	227,425	117,616
235,699	4,326	227,182	117,520
236,713	3,981	226,969	117,136
237,728	3,577	226,684	116,671
238,742	3,286	226,663	116,429
239,757	3,563	226,350	116,468
240,772	3,735	226,169	116,495
241,786	3,469	226,256	116,328
242,801	3,868	226,097	116,539
243,815	4,078	226,015	116,645
244,830	4,009	225,977	116,562
245,844	3,774	225,502	116,129
246,859	3,920	225,464	116,209
247,874	3,895	225,336	116,115
248,888	3,945	225,383	116,166
249,903	3,900	224,955	115,901
250,917	3,643	224,877	115,657
251,932	3,500	224,727	115,461
252,947	3,340	224,466	115,197
253,961	3,547	224,363	115,289
254,976	3,695	224,151	115,281
255,990	3,911	224,208	115,463
257,005	3,742	224,159	115,300
258,020	3,942	223,960	115,338
259,034	4,148	223,743	115,370
260,049	3,856	223,790	115,165
261,063	3,861	223,626	115,074
262,078	3,936	223,437	115,023
263,093	4,350	223,187	115,193
264,107	3,644	223,159	114,641
265,122	4,039	222,916	114,801
266,136	4,076	222,840	114,779
267,151	3,936	222,791	114,639
268,166	3,699	222,473	114,289
269,180	3,377	222,203	113,901
270,195	3,392	222,093	113,845
271,209	3,469	221,979	113,834
272,224	3,483	221,855	113,770
273,239	3,562	221,749	113,764
274,253	3,542	221,577	113,651
275,268	3,253	221,429	113,351
276,282	3,108	221,259	113,147
277,297	3,149	220,986	113,027
278,312	3,508	220,791	113,183
279,326	3,697	220,819	113,326
280,341	3,676	220,675	113,227
281,355	3,913	220,703	113,406
282,370	3,843	220,348	113,162
283,384	3,539	220,135	112,819
284,399	3,406	219,990	112,637
285,414	3,266	219,967	112,512
286,428	3,571	219,834	112,657
287,443	3,670	219,833	112,720
288,457	3,648	219,636	112,593
289,472	3,571	219,472	112,442
290,487	3,297	219,024	112,002
291,501	2,982	218,916	111,706
292,516	3,124	218,795	111,739
293,530	3,268	218,833	111,854
294,545	3,523	218,558	111,889
295,560	3,542	218,457	111,841
296,574	3,598	218,453	111,870
297,589	3,701	218,228	111,820
298,603	3,674	218,206	111,779
299,618	3,632	218,013	111,640
300,633	3,519	217,903	111,491
301,647	3,597	217,926	111,550
302,662	3,864	217,673	111,604
303,676	3,805	217,447	111,435
304,691	3,708	217,464	111,364
305,706	3,853	217,232	111,340
306,720	3,727	217,012	111,126
307,735	3,687	216,926	111,043
308,749	3,662	216,828	110,965
309,764	3,667	216,816	110,952
310,779	4,078	216,501	111,079
311,793	3,956	216,516	110,988
312,808	3,837	216,194	110,728
313,822	3,656	216,009	110,492
314,837	3,593	215,950	110,407
315,852	3,339	215,837	110,157
316,866	3,496	215,595	110,136
317,881	4,023	215,423	110,417
318,895	3,705	215,540	110,239
319,910	3,779	215,220	110,118
320,925	3,287	215,036	109,662
321,939	3,134	214,822	109,433
322,954	3,263	214,886	109,549
323,968	3,662	214,717	109,737
324,983	3,743	214,622	109,738
325,997	3,911	214,510	109,791
327,012	3,557	214,290	109,415
328,027	3,642	214,257	109,449
329,041	3,951	214,097	109,578
330,056	3,994	214,108	109,605
331,070	3,601	213,717	109,115
332,085	3,442	213,609	108,937
333,100	3,404	213,460	108,825
334,114	3,702	213,185	108,886
335,129	3,710	213,184	108,882
336,143	3,496	213,044	108,649
337,158	3,568	212,992	108,664
338,173	3,699	212,706	108,600
339,187	3,481	212,508	108,335
340,202	3,442	212,458	108,272
341,216	3,303	212,293	108,081
342,231	3,543	212,200	108,193
343,246	3,313	212,033	107,937
344,260	3,554	211,878	108,018
345,275	3,480	211,778	107,905
346,289	3,854	211,646	108,091
347,304	3,725	211,697	108,017
348,319	3,961	211,305	107,973
349,333	3,680	211,274	107,750
350,348	3,832	211,195	107,807
351,362	3,664	211,122	107,642
352,377	3,902	211,025	107,750
353,392	3,919	210,808	107,641
354,406	3,682	210,703	107,412
355,421	194,781	1344,267	1431,052
356,435	155,520	1482,451	1431,125
