DTS Sentinel unit serial number:	SN410029Multiplexer serial number:	ORYXHardware model number:	OX2-SRSoftware version number:	ORYX F/W v4,00 Oryx Data Collector v3.7.2.0data status	okinstallation	B6 Nyhavnadifferential loss correction	single-endedforward channel	channel 2reverse channel	N/Adate	2023/12/10time	07:35:08forward acquisition time	300,00reverse acquisition time	0,00gamma	499,1914k internal	0,3123k external	0,3123temperature offset calibration	1,0000default loss term (dB/km)	0,3820temperature slope calibration	1,0000multiplexer offset coefficient	1,0000multiplexer slope coefficient	1,0000fibre end	0,00T internal ref (°C)	22,60T ext. ref 1 (°C)	6,32T ext. ref 2 (°C)	6,32length (m)	temperature (°C)	Stokes	anti-Stokes-744,400	800,000	-0,066	-0,182
-743,385	-6,337	-0,195	-0,099
-742,371	130,564	0,180	-0,172
-741,356	-124,610	-0,240	-0,027
-740,342	800,000	0,030	-0,082
-739,327	-53,150	-0,222	0,076
-738,312	-200,000	-0,025	0,086
-737,298	-122,080	-0,209	-0,025
-736,283	109,235	0,112	-0,099
-735,269	-31,291	-0,287	0,120
-734,254	-79,389	0,093	-0,023
-733,239	-24,374	-0,395	-0,175
-732,225	-66,683	0,163	-0,048
-731,210	368,139	0,045	-0,068
-730,196	800,000	0,079	-0,182
-729,181	74,969	0,056	0,044
-728,167	89,865	-0,164	0,136
-727,152	-120,247	-0,050	0,006
-726,137	-85,299	-0,075	0,017
-725,123	800,000	-0,018	-0,058
-724,108	320,473	0,101	-0,144
-723,094	-44,671	-0,101	-0,037
-722,079	67,946	-0,011	0,009
-721,064	137,461	0,063	-0,062
-720,050	800,000	0,033	-0,067
-719,035	-83,120	-0,143	-0,034
-718,021	570,647	-0,007	0,013
-717,006	366,625	-0,019	-0,029
-715,991	-155,212	-0,187	0,009
-714,977	259,904	-0,033	-0,043
-713,962	-45,164	-0,069	0,025
-712,948	208,245	0,104	-0,121
-711,933	158,710	-0,130	0,134
-710,918	256,992	-0,036	0,046
-709,904	800,000	0,037	-0,097
-708,889	138,665	-0,017	0,016
-707,875	-200,000	-0,025	-0,146
-706,860	17,581	0,098	-0,058
-705,845	-92,304	0,093	-0,019
-704,831	-41,300	-0,121	0,046
-703,816	-60,677	-0,082	-0,026
-702,802	-79,461	-0,110	0,027
-701,787	-200,000	0,014	0,110
-700,772	-200,000	0,011	-0,077
-699,758	614,853	0,009	-0,017
-698,743	60,310	0,102	-0,075
-697,729	-200,000	0,015	0,078
-696,714	-89,305	-0,052	0,011
-695,699	-200,000	-0,012	0,081
-694,685	168,207	0,051	-0,054
-693,670	-22,779	0,023	0,010
-692,656	800,000	0,046	-0,131
-691,641	-200,000	-0,018	0,079
-690,627	-115,313	0,118	-0,016
-689,612	-138,749	-0,060	0,005
-688,597	77,838	-0,081	0,064
-687,583	-200,000	-0,012	-0,046
-686,568	62,862	0,043	-0,032
-685,554	-200,000	0,004	0,043
-684,539	-200,000	0,009	0,048
-683,524	-200,000	-0,007	0,074
-682,510	408,544	0,009	0,015
-681,495	-57,413	-0,113	-0,037
-680,481	-44,319	-0,122	-0,045
-679,466	-50,469	-0,205	-0,072
-678,451	131,195	-0,120	-0,115
-677,437	-200,000	0,017	0,146
-676,422	800,000	-0,006	-0,018
-675,408	243,392	-0,066	-0,083
-674,393	-182,855	-0,077	-0,001
-673,378	-200,000	-0,016	-0,096
-672,364	-200,000	-0,022	0,079
-671,349	-200,000	0,005	-0,036
-670,335	337,674	-0,049	0,071
-669,320	226,049	0,059	0,071
-668,305	-182,241	0,082	-0,001
-667,291	-200,000	-0,004	0,096
-666,276	140,116	-0,065	-0,064
-665,262	358,341	-0,048	-0,072
-664,247	40,066	-0,105	-0,070
-663,232	800,000	-0,031	-0,086
-662,218	4,266	-0,041	0,022
-661,203	-59,357	0,050	-0,016
-660,189	-146,288	-0,049	-0,003
-659,174	86,939	-0,023	0,019
-658,159	56,960	0,113	-0,082
-657,145	325,994	-0,051	-0,073
-656,130	379,253	0,040	0,062
-655,116	800,000	-0,047	-0,107
-654,101	-53,122	-0,090	-0,031
-653,086	-14,010	-0,109	-0,052
-652,072	-200,000	-0,001	-0,091
-651,057	62,078	-0,098	0,073
-650,043	309,337	-0,045	-0,062
-649,028	-200,000	-0,007	0,112
-648,014	83,302	0,067	-0,054
-646,999	-200,000	0,003	-0,057
-645,984	-200,000	0,006	0,030
-644,970	-200,000	-0,008	-0,034
-643,955	178,237	0,059	-0,064
-642,941	800,000	-0,063	-0,142
-641,926	-77,523	-0,052	0,013
-640,911	646,857	0,031	0,059
-639,897	223,644	-0,022	0,026
-638,882	-200,000	0,013	-0,078
-637,868	363,195	0,042	-0,063
-636,853	-79,610	-0,088	-0,022
-635,838	97,320	0,129	-0,110
-634,824	-142,146	-0,160	-0,012
-633,809	-138,065	0,189	0,015
-632,795	283,180	0,048	0,064
-631,780	50,233	-0,096	-0,067
-630,765	-162,063	0,049	0,002
-629,751	223,096	0,027	-0,033
-628,736	796,473	-0,043	0,089
-627,722	797,331	-0,043	-0,089
-626,707	-200,000	-0,022	-0,107
-625,692	800,000	-0,027	0,082
-624,678	-78,462	0,022	-0,005
-623,663	-200,000	0,001	0,107
-622,649	15,499	-0,045	-0,026
-621,634	190,198	0,083	-0,092
-620,619	-200,000	0,008	0,053
-619,605	800,000	0,062	0,193
-618,590	-67,888	-0,082	0,023
-617,576	112,409	0,098	-0,088
-616,561	-200,000	-0,012	-0,042
-615,546	-200,000	-0,005	-0,053
-614,532	-200,000	0,010	-0,123
-613,517	800,000	0,050	0,141
-612,503	-200,000	-0,010	-0,072
-611,488	-39,085	0,068	0,026
-610,474	630,276	-0,020	0,037
-609,459	-131,732	-0,153	0,015
-608,444	800,000	-0,059	-0,128
-607,430	-105,113	0,060	-0,010
-606,415	99,618	-0,151	-0,130
-605,401	706,526	-0,063	0,124
-604,386	-200,000	0,007	0,124
-603,371	800,000	-0,013	0,040
-602,357	-200,000	-0,026	-0,171
-601,342	-18,737	-0,075	-0,034
-600,328	80,479	-0,122	-0,097
-599,313	352,523	-0,030	-0,044
-598,298	631,442	-0,016	0,030
-597,284	-10,172	-0,082	0,040
-596,269	365,656	-0,034	-0,051
-595,255	800,000	0,070	0,180
-594,240	-98,632	-0,128	0,024
-593,225	-126,217	-0,043	0,005
-592,211	30,383	0,249	-0,157
-591,196	144,964	-0,098	-0,097
-590,182	-119,746	0,059	-0,007
-589,167	-200,000	-0,031	0,118
-588,152	-63,598	0,109	-0,033
-587,138	0,014	-0,098	-0,052
-586,123	-48,561	-0,133	-0,047
-585,109	175,753	0,032	-0,034
-584,094	336,363	-0,038	0,054
-583,079	-93,663	0,191	-0,039
-582,065	-200,000	-0,024	-0,081
-581,050	-115,686	-0,065	0,009
-580,036	-69,671	-0,028	-0,008
-579,021	719,402	-0,023	-0,046
-578,006	-146,310	-0,119	-0,008
-576,992	146,654	-0,059	0,059
-575,977	332,319	0,081	-0,116
-574,963	-112,442	-0,022	-0,003
-573,948	-200,000	-0,004	0,021
-572,934	408,329	0,030	0,047
-571,919	-200,000	-0,075	-0,247
-570,904	-153,148	-0,124	0,006
-569,890	258,705	0,050	-0,065
-568,875	800,000	0,024	0,078
-567,861	3,483	0,077	0,041
-566,846	241,900	-0,029	0,035
-565,831	472,471	-0,025	-0,042
-564,817	-200,000	0,012	0,055
-563,802	741,994	-0,091	0,181
-562,788	314,618	0,032	0,045
-561,773	-200,000	0,007	0,050
-560,758	-13,122	0,194	0,093
-559,744	800,000	-0,072	0,185
-558,729	42,055	0,046	-0,031
-557,715	95,136	-0,113	-0,095
-556,700	127,201	0,077	-0,073
-555,685	-134,747	0,052	0,005
-554,671	-200,000	0,025	-0,180
-553,656	-7,999	-0,015	0,007
-552,642	-200,000	0,031	-0,115
-551,627	-26,814	0,076	0,033
-550,612	114,711	0,044	-0,039
-549,598	-42,239	0,030	0,011
-548,583	-86,639	0,021	0,005
-547,569	353,134	0,084	-0,124
-546,554	-147,709	-0,080	-0,005
-545,539	800,000	0,051	0,134
-544,525	-200,000	0,006	0,103
-543,510	-200,000	0,007	0,060
-542,496	217,409	-0,174	-0,205
-541,481	-200,000	-0,024	-0,126
-540,466	-12,749	-0,031	-0,015
-539,452	800,000	0,043	-0,090
-538,437	-200,000	-0,011	-0,054
-537,423	800,000	-0,029	-0,080
-536,408	107,636	0,024	0,021
-535,393	-96,117	-0,150	-0,029
-534,379	51,094	-0,046	-0,032
-533,364	337,937	0,031	0,044
-532,350	-122,824	-0,072	-0,008
-531,335	800,000	0,032	-0,081
-530,321	146,772	0,154	0,153
-529,306	328,754	0,028	0,039
-528,291	-200,000	0,020	0,102
-527,277	127,239	0,132	0,124
-526,262	-91,555	-0,072	0,015
-525,248	-200,000	-0,001	0,086
-524,233	-200,000	0,065	-0,000
-523,218	-200,000	-0,002	0,119
-522,204	-18,407	-0,146	-0,067
-521,189	101,459	-0,085	-0,074
-520,175	126,042	-0,101	-0,095
-519,160	-96,222	-0,120	-0,023
-518,145	800,000	-0,056	0,151
-517,131	20,561	-0,021	-0,013
-516,116	47,662	0,087	-0,060
-515,102	426,603	0,006	0,009
-514,087	-200,000	-0,007	0,117
-513,072	304,219	0,085	-0,116
-512,058	-200,000	0,036	-0,125
-511,043	-93,476	0,074	0,015
-510,029	-47,466	0,071	-0,025
-509,014	64,895	-0,127	0,095
-507,999	122,536	0,043	0,039
-506,985	414,696	-0,068	-0,107
-505,970	-200,000	0,001	-0,194
-504,956	53,249	-0,005	-0,003
-503,941	-200,000	0,004	-0,035
-502,926	27,125	0,099	0,061
-501,912	-138,752	0,029	0,002
-500,897	150,536	-0,052	-0,052
-499,883	94,924	0,138	0,116
-498,868	692,186	-0,065	-0,127
-497,853	-22,993	-0,116	-0,052
-496,839	45,304	0,038	-0,026
-495,824	800,000	0,060	0,142
-494,810	17,311	0,034	0,020
-493,795	800,000	-0,005	0,010
-492,781	800,000	0,016	-0,051
-491,766	56,737	0,071	-0,051
-490,751	131,862	0,045	0,043
-489,737	-200,000	-0,028	0,160
-488,722	-78,023	0,055	0,014
-487,708	-200,000	-0,006	-0,080
-486,693	356,569	0,094	0,138
-485,678	-200,000	0,005	0,180
-484,664	-134,800	-0,122	0,011
-483,649	468,475	-0,057	-0,094
-482,635	-200,000	0,031	-0,108
-481,620	-23,629	0,081	0,035
-480,605	-27,494	0,050	0,022
-479,591	289,993	-0,039	0,052
-478,576	46,851	-0,048	-0,033
-477,562	-200,000	0,009	0,098
-476,547	-200,000	0,017	-0,096
-475,532	-2,630	0,010	-0,005
-474,518	-79,363	-0,107	0,027
-473,503	-160,808	0,114	-0,004
-472,489	168,753	0,031	0,033
-471,474	-200,000	0,009	0,118
-470,459	-40,083	-0,077	0,030
-469,445	-200,000	0,002	-0,019
-468,430	17,415	-0,086	0,050
-467,416	-200,000	-0,009	-0,150
-466,401	64,625	0,136	-0,101
-465,386	13,351	0,023	0,013
-464,372	143,412	-0,129	0,127
-463,357	-78,537	-0,048	0,012
-462,343	-200,000	-0,015	0,080
-461,328	139,344	-0,168	-0,163
-460,313	-109,590	0,144	0,022
-459,299	628,519	0,013	-0,024
-458,284	-35,036	0,091	0,037
-457,270	800,000	0,017	-0,053
-456,255	-5,735	0,079	0,040
-455,241	-200,000	0,012	0,085
-454,226	-200,000	-0,012	0,079
-453,211	-51,536	-0,074	0,025
-452,197	-200,000	0,007	-0,159
-451,182	-126,552	0,012	-0,001
-450,168	800,000	0,047	0,142
-449,153	32,779	-0,070	0,045
-448,138	501,050	-0,031	0,052
-447,124	-65,656	-0,079	0,023
-446,109	-200,000	0,001	0,022
-445,095	115,887	0,075	-0,068
-444,080	800,000	0,027	0,061
-443,065	187,849	0,123	0,136
-442,051	304,676	-0,012	0,016
-441,036	800,000	-0,031	-0,079
-440,022	-200,000	0,006	-0,101
-439,007	800,000	0,044	-0,098
-437,992	-138,967	0,094	0,007
-436,978	0,614	0,126	0,066
-435,963	49,708	0,033	0,023
-434,949	-25,505	0,091	-0,039
-433,934	370,543	-0,066	-0,099
-432,919	103,268	0,016	-0,014
-431,905	800,000	-0,017	0,042
-430,890	197,271	-0,093	-0,104
-429,876	76,849	-0,069	-0,054
-428,861	-200,000	0,014	0,057
-427,846	-91,086	0,112	0,023
-426,832	131,217	-0,063	0,059
-425,817	-200,000	0,030	-0,112
-424,803	165,921	-0,112	-0,116
-423,788	-200,000	-0,020	0,083
-422,773	224,632	-0,031	0,037
-421,759	-80,766	0,222	-0,054
-420,744	-200,000	-0,006	-0,040
-419,730	800,000	-0,080	-0,167
-418,715	-56,212	-0,114	0,037
-417,701	-151,232	-0,051	0,003
-416,686	800,000	0,034	0,089
-415,671	-200,000	0,009	0,070
-414,657	10,328	0,062	-0,034
-413,642	5,147	-0,071	0,038
-412,628	-122,082	-0,127	-0,015
-411,613	-95,325	-0,108	0,021
-410,598	-127,528	-0,096	-0,010
-409,584	622,248	-0,032	-0,060
-408,569	-7,471	-0,063	-0,031
-407,555	-150,687	0,089	0,005
-406,540	106,416	-0,026	-0,023
-405,525	117,009	0,045	0,040
-404,511	331,769	-0,109	0,155
-403,496	-49,125	0,118	-0,041
-402,482	-200,000	0,012	-0,072
-401,467	87,610	0,086	-0,070
-400,452	-200,000	0,013	0,052
-399,438	-18,912	0,079	0,036
-398,423	-49,189	-0,097	-0,034
-397,409	792,853	-0,043	0,086
-396,394	-54,124	-0,120	-0,040
-395,379	113,852	-0,088	0,078
-394,365	467,668	-0,035	-0,058
-393,350	-97,811	0,103	0,019
-392,336	412,729	0,054	-0,084
-391,321	309,903	-0,093	-0,129
-390,306	-152,549	0,049	0,003
-389,292	-200,000	0,018	0,180
-388,277	-200,000	-0,081	0,000
-387,263	203,269	-0,060	-0,068
-386,248	515,790	0,037	-0,063
-385,233	-200,000	-0,007	0,113
-384,219	800,000	-0,029	-0,083
-383,204	163,163	-0,025	0,026
-382,190	112,396	-0,027	-0,024
-381,175	104,875	0,130	0,113
-380,160	-200,000	-0,012	0,041
-379,146	-5,168	0,025	0,013
-378,131	52,526	0,111	-0,078
-377,117	54,702	0,096	0,068
-376,102	-41,987	-0,056	-0,021
-375,088	557,042	0,019	0,035
-374,073	-15,863	-0,072	-0,034
-373,058	-69,747	-0,069	-0,019
-372,044	4,239	0,088	0,047
-371,029	-200,000	-0,008	-0,101
-370,015	-79,340	0,121	0,030
-369,000	58,587	0,050	0,036
-367,985	8,102	0,027	-0,015
-366,971	-200,000	0,008	-0,048
-365,956	-200,000	0,013	-0,061
-364,942	-200,000	-0,017	0,109
-363,927	800,000	0,053	0,120
-362,912	-200,000	-0,013	-0,060
-361,898	-112,615	-0,178	-0,026
-360,883	-200,000	-0,002	0,065
-359,869	800,000	0,051	-0,109
-358,854	-11,444	0,119	-0,057
-357,839	49,657	-0,134	-0,092
-356,825	643,540	0,042	0,078
-355,810	3,264	0,122	-0,065
-354,796	-200,000	0,027	-0,138
-353,781	101,873	-0,043	-0,037
-352,766	-200,000	-0,002	-0,063
-351,752	122,145	0,083	-0,076
-350,737	-87,519	0,077	0,017
-349,723	108,176	0,088	0,077
-348,708	73,731	0,022	-0,017
-347,693	-110,675	-0,115	0,017
-346,679	81,213	-0,135	0,107
-345,664	800,000	0,057	0,177
-344,650	800,000	-0,052	0,134
-343,635	23,725	0,106	-0,064
-342,620	-200,000	-0,006	0,105
-341,606	-200,000	-0,032	0,131
-340,591	-108,956	-0,090	0,014
-339,577	447,027	0,021	0,033
-338,562	-200,000	0,003	0,044
-337,548	196,687	-0,032	0,036
-336,533	800,000	-0,026	-0,070
-335,518	-132,513	0,142	0,013
-334,504	-200,000	0,009	0,158
-333,489	-70,991	-0,091	-0,025
-332,475	-68,162	-0,083	0,023
-331,460	-200,000	0,013	-0,065
-330,445	-200,000	-0,016	0,061
-329,431	800,000	0,018	-0,057
-328,416	-42,276	0,113	-0,042
-327,402	153,393	0,063	0,063
-326,387	-118,700	0,080	0,010
-325,372	-200,000	-0,024	-0,079
-324,358	800,000	-0,009	0,027
-323,343	427,837	0,077	0,122
-322,329	-200,000	0,013	0,047
-321,314	800,000	0,036	0,074
-320,299	-96,486	0,138	0,026
-319,285	-60,975	-0,122	-0,037
-318,270	-200,000	0,036	-0,173
-317,256	20,819	0,044	0,026
-316,241	-200,000	-0,011	0,075
-315,226	1,821	0,108	0,057
-314,212	-200,000	0,020	0,077
-313,197	-152,408	-0,071	-0,004
-312,183	143,128	0,056	0,055
-311,168	695,382	-0,040	-0,077
-310,153	-82,180	-0,153	-0,036
-309,139	-92,154	-0,023	-0,005
-308,124	14,044	-0,016	-0,009
-307,110	-36,837	0,088	-0,034
-306,095	-185,067	0,053	-0,001
-305,080	-104,687	0,048	0,008
-304,066	56,142	0,007	-0,005
-303,051	-24,647	-0,022	0,009
-302,037	-200,000	0,013	-0,088
-301,022	-200,000	-0,020	-0,079
-300,008	800,000	-0,069	-0,159
-298,993	-200,000	0,038	0,130
-297,978	100,791	0,122	0,104
-296,964	773,156	0,066	-0,133
-295,949	37,531	-0,042	0,027
-294,935	149,926	-0,024	0,024
-293,920	800,000	-0,055	-0,118
-292,905	-200,000	-0,023	0,107
-291,891	368,795	-0,066	0,098
-290,876	-58,759	-0,146	-0,046
-289,862	-200,000	0,004	0,095
-288,847	800,000	-0,040	-0,082
-287,832	-200,000	0,014	-0,061
-286,818	-131,775	-0,040	-0,004
-285,803	-99,890	0,141	-0,026
-284,789	-28,823	0,087	-0,036
-283,774	3,526	-0,091	0,049
-282,759	633,672	-0,020	0,038
-281,745	-147,560	0,054	0,003
-280,730	116,334	-0,044	-0,039
-279,716	182,746	-0,026	-0,028
-278,701	425,684	0,059	0,094
-277,686	786,259	0,025	0,050
-276,672	336,624	0,041	0,058
-275,657	-200,000	0,030	-0,100
-274,643	-200,000	0,008	0,064
-273,628	191,168	-0,058	-0,063
-272,613	480,962	0,046	-0,076
-271,599	-44,451	-0,120	-0,044
-270,584	57,387	0,087	0,062
-269,570	-200,000	-0,009	0,081
-268,555	-162,960	-0,088	-0,003
-267,540	-118,336	0,037	0,005
-266,526	99,661	-0,063	-0,053
-265,511	-200,000	0,004	-0,101
-264,497	233,247	0,083	0,101
-263,482	-200,000	0,002	0,042
-262,467	-200,000	0,011	-0,041
-261,453	170,730	0,038	0,040
-260,438	298,190	-0,009	-0,012
-259,424	86,099	0,016	0,013
-258,409	80,114	-0,117	-0,092
-257,395	-76,293	0,107	0,027
-256,380	169,537	-0,050	-0,053
-255,365	-200,000	0,022	0,142
-254,351	122,700	-0,059	0,054
-253,336	-200,000	0,031	-0,168
-252,322	281,834	0,061	-0,080
-251,307	-72,914	-0,149	0,040
-250,292	-200,000	-0,007	0,100
-249,278	-61,852	-0,097	0,030
-248,263	685,321	0,041	0,078
-247,249	-58,945	0,083	0,026
-246,234	-156,138	0,092	0,004
-245,219	-167,216	-0,061	0,002
-244,205	-200,000	0,012	0,062
-243,190	112,609	0,046	-0,040
-242,176	-200,000	0,021	0,120
-241,161	579,955	0,034	0,061
-240,146	-200,000	0,011	0,041
-239,132	-200,000	0,009	-0,035
-238,117	-85,463	-0,117	-0,026
-237,103	800,000	-0,033	-0,069
-236,088	800,000	-0,043	-0,113
-235,073	126,515	0,076	0,071
-234,059	-152,120	0,063	-0,003
-233,044	459,076	-0,071	0,116
-232,030	-200,000	-0,017	0,065
-231,015	-200,000	-0,008	0,085
-230,000	-200,000	0,001	0,019
-228,986	-200,000	0,001	0,038
-227,971	322,771	-0,056	0,078
-226,957	191,082	0,051	-0,056
-225,942	-78,758	-0,090	-0,022
-224,927	-14,393	0,143	0,067
-223,913	-63,245	-0,059	0,018
-222,898	134,734	-0,068	-0,064
-221,884	-200,000	-0,016	-0,068
-220,869	-200,000	0,025	-0,092
-219,855	-200,000	-0,040	-0,137
-218,840	-102,954	-0,145	0,025
-217,825	800,000	-0,031	-0,065
-216,811	-200,000	-0,051	-0,240
-215,796	800,000	0,027	0,069
-214,782	-162,648	0,060	-0,002
-213,767	-200,000	0,012	0,088
-212,752	-200,000	-0,013	0,166
-211,738	108,487	0,070	0,061
-210,723	800,000	-0,010	-0,022
-209,709	-200,000	-0,005	-0,089
-208,694	-200,000	-0,008	0,090
-207,679	152,194	-0,045	0,045
-206,665	800,000	-0,011	0,033
-205,650	-200,000	-0,005	0,067
-204,636	120,456	-0,025	0,022
-203,621	-171,228	-0,096	-0,002
-202,606	10,463	-0,083	0,046
-201,592	667,284	-0,029	-0,054
-200,577	800,000	-0,044	-0,094
-199,563	155,646	0,080	-0,081
-198,548	-200,000	0,005	-0,110
-197,533	-200,000	0,012	0,058
-196,519	16,797	0,166	0,096
-195,504	800,000	0,017	-0,045
-194,490	800,000	-0,050	-0,134
-193,475	-200,000	0,002	-0,071
-192,460	144,884	-0,113	-0,110
-191,446	336,328	-0,093	0,132
-190,431	654,183	0,064	0,120
-189,417	113,811	0,122	-0,109
-188,402	616,980	0,053	0,098
-187,387	-174,309	-0,080	-0,002
-186,373	283,932	0,045	0,059
-185,358	47,047	0,199	-0,135
-184,344	105,335	-0,115	0,099
-183,329	-114,339	0,058	-0,008
-182,315	186,077	0,062	-0,067
-181,300	94,670	0,027	-0,022
-180,285	156,686	0,031	0,031
-179,271	-200,000	-0,007	0,095
-178,256	-39,544	-0,081	0,031
-177,242	94,616	-0,038	-0,032
-176,227	179,814	0,120	-0,129
-175,212	800,000	0,010	-0,028
-174,198	242,673	0,032	-0,039
-173,183	-179,983	-0,083	0,001
-172,169	171,556	-0,009	-0,009
-171,154	-44,265	0,069	0,025
-170,139	25,216	-0,034	-0,020
-169,125	-200,000	-0,019	-0,142
-168,110	-200,000	-0,016	0,177
-167,096	166,828	0,035	-0,037
-166,081	338,095	-0,049	0,070
-165,066	-200,000	0,001	-0,009
-164,052	-200,000	-0,030	-0,128
-163,037	15,608	0,030	-0,017
-162,023	-114,800	0,080	0,011
-161,008	-51,778	0,106	-0,036
-159,993	-200,000	-0,018	-0,070
-158,979	-200,000	-0,054	0,180
-157,964	74,171	0,037	0,028
-156,950	574,296	-0,047	0,084
-155,935	-200,000	0,009	0,165
-154,920	-200,000	-0,019	0,065
-153,906	749,456	0,012	-0,024
-152,891	-200,000	-0,004	0,040
-151,877	-71,709	-0,169	0,046
-150,862	126,174	-0,064	0,059
-149,847	-200,000	-0,025	0,086
-148,833	-200,000	0,001	0,004
-147,818	-114,494	-0,089	-0,012
-146,804	-80,204	-0,106	-0,026
-145,789	396,656	0,055	-0,083
-144,775	40,633	0,148	0,097
-143,760	-0,018	-0,135	-0,070
-142,745	-200,000	-0,013	-0,046
-141,731	709,912	0,050	0,096
-140,716	134,961	-0,074	-0,070
-139,702	115,107	0,073	0,065
-138,687	783,905	-0,038	0,076
-137,672	-105,222	-0,088	0,015
-136,658	52,051	-0,117	0,081
-135,643	-200,000	0,014	-0,061
-134,629	-41,747	0,099	-0,037
-133,614	-200,000	0,013	0,049
-132,599	-75,029	0,080	0,021
-131,585	800,000	-0,037	-0,103
-130,570	-200,000	-0,004	0,013
-129,556	16,977	-0,087	0,050
-128,541	-200,000	0,000	0,053
-127,526	-126,048	-0,012	0,001
-126,512	-62,612	0,019	0,006
-125,497	-200,000	0,018	0,100
-124,483	-176,132	-0,117	-0,002
-123,468	-154,184	0,093	-0,004
-122,453	228,356	-0,121	-0,144
-121,439	36,285	-0,081	0,052
-120,424	-200,000	0,012	-0,089
-119,410	-138,378	-0,171	-0,014
-118,395	-123,297	0,109	-0,013
-117,380	-200,000	-0,001	0,168
-116,366	54,229	-0,028	0,019
-115,351	-95,463	-0,037	-0,007
-114,337	-103,185	-0,079	-0,013
-113,322	-60,840	-0,084	-0,026
-112,307	34,534	0,110	-0,070
-111,293	65,128	-0,085	0,063
-110,278	800,000	0,022	-0,056
-109,264	800,000	0,013	0,042
-108,249	107,323	-0,094	-0,081
-107,234	-200,000	0,002	-0,133
-106,220	-200,000	0,009	0,095
-105,205	264,720	0,055	0,070
-104,191	-166,717	-0,061	0,002
-103,176	17,185	-0,039	0,022
-102,162	-15,501	-0,157	-0,073
-101,147	-126,453	0,091	0,010
-100,132	-200,000	-0,003	0,060
-99,118	-200,000	-0,001	-0,016
-98,103	-131,200	-0,099	0,009
-97,089	37,716	0,099	0,064
-96,074	545,104	0,016	0,028
-95,059	-46,747	-0,107	0,038
-94,045	800,000	0,058	0,117
-93,030	-37,388	-0,159	0,061
-92,016	1,444	-0,032	-0,017
-91,001	374,140	0,042	0,063
-89,986	-200,000	0,002	0,006
-88,972	131,624	-0,010	-0,010
-87,957	789,723	0,015	0,030
-86,943	56,094	0,101	0,071
-85,928	175,669	-0,098	0,103
-84,913	-62,920	-0,060	0,018
-83,899	98,269	0,035	-0,029
-82,884	-25,644	0,037	0,016
-81,870	-200,000	0,000	-0,072
-80,855	119,319	0,051	-0,046
-79,840	171,218	-0,031	-0,032
-78,826	784,235	0,039	-0,079
-77,811	372,861	-0,008	0,012
-76,797	-200,000	-0,033	-0,112
-75,782	-5,034	0,071	-0,036
-74,767	287,764	-0,066	0,087
-73,753	-200,000	-0,021	0,086
-72,738	72,468	0,100	-0,075
-71,724	-136,631	0,085	-0,007
-70,709	77,016	-0,098	-0,076
-69,694	800,000	-0,019	-0,039
-68,680	1,898	-0,040	-0,021
-67,665	-55,049	-0,039	0,013
-66,651	-38,132	0,190	0,073
-65,636	-24,770	-0,126	-0,054
-64,622	645,626	0,040	0,074
-63,607	-200,000	-0,023	-0,127
-62,592	-4,921	-0,092	0,046
-61,578	598,093	0,049	0,089
-60,563	-200,000	0,005	-0,067
-59,549	268,558	0,059	-0,075
-58,534	-99,816	-1,512	-0,272
-57,519	583,778	-0,843	-1,509
-56,505	-200,000	-0,857	-4,456
-55,490	70,974	0,557	-0,418
-54,476	800,000	4,990	11,829
-53,461	-200,000	13,425	253,462
-52,446	-200,000	689,059	2269,102
-51,432	595,763	1623,028	2927,100
-50,417	120,860	1636,347	1476,532
-49,403	73,585	1290,425	979,629
-48,388	38,456	1025,132	661,612
-47,373	24,558	982,636	588,465
-46,359	23,726	972,438	579,603
-45,344	22,846	968,313	574,243
-44,330	22,723	966,797	572,922
-43,315	22,629	965,294	571,702
-42,300	22,642	964,258	571,109
-41,286	22,648	963,334	570,557
-40,271	22,612	962,221	569,758
-39,257	22,564	961,445	569,120
-38,242	22,648	960,397	568,751
-37,227	22,636	959,635	568,237
-36,213	22,564	958,898	567,544
-35,198	22,558	957,896	566,909
-34,184	22,644	957,388	566,865
-33,169	22,572	956,305	565,969
-32,154	22,647	955,522	565,724
-31,140	22,632	954,649	565,138
-30,125	22,684	953,797	564,778
-29,111	22,599	953,222	564,142
-28,096	22,603	952,313	563,594
-27,082	22,637	951,576	563,245
-26,067	22,666	950,718	562,808
-25,052	22,642	950,060	562,318
-24,038	22,699	949,484	562,137
-23,023	22,646	948,823	561,555
-22,009	22,684	948,145	561,253
-20,994	22,677	947,484	560,816
-19,979	22,649	946,928	560,375
-18,965	22,642	946,284	559,951
-17,950	22,670	945,591	559,607
-16,936	22,564	945,154	558,988
-15,921	22,684	944,152	558,755
-14,906	22,520	943,540	557,850
-13,892	22,573	942,943	557,642
-12,877	22,521	942,359	557,109
-11,863	22,491	941,734	556,623
-10,848	22,557	941,123	556,449
-9,833	22,599	940,692	556,305
-8,819	22,606	940,001	555,898
-7,804	22,547	939,373	555,317
-6,790	22,492	938,829	554,799
-5,775	22,554	938,104	554,545
-4,760	22,572	937,583	554,271
-3,746	22,500	937,160	553,772
-2,731	22,441	936,296	553,053
-1,717	22,349	935,567	552,311
-0,702	22,353	935,031	551,985
0,313	22,143	934,313	551,732
1,327	25,226	932,175	560,119
2,342	34,715	796,674	503,986
3,356	32,639	451,869	282,704
4,371	1,899	293,641	153,059
5,386	-2,675	274,607	138,799
6,400	-3,963	268,740	134,628
7,415	-4,365	266,237	132,992
8,429	-4,206	265,108	132,562
9,444	-4,383	264,203	131,936
10,459	-4,229	263,589	131,758
11,473	-4,255	263,031	131,444
12,488	-4,320	262,528	131,122
13,502	-4,478	261,935	130,672
14,517	-4,578	261,590	130,397
15,531	-4,366	261,142	130,354
16,546	-4,198	260,767	130,306
17,561	-4,427	260,467	129,939
18,575	-4,331	260,164	129,862
19,590	-4,402	259,854	129,632
20,604	-4,337	259,578	129,541
21,619	-4,331	259,149	129,320
22,634	-4,283	258,816	129,186
23,648	-4,543	258,565	128,817
24,663	-4,560	258,551	128,783
25,677	-4,347	258,158	128,766
26,692	-4,141	257,804	128,761
27,707	-4,525	257,606	128,309
28,721	-4,379	257,308	128,279
29,736	-4,391	257,156	128,182
30,750	-4,401	256,780	127,974
31,765	-4,577	256,618	127,725
32,780	-4,486	256,281	127,627
33,794	-4,451	256,177	127,595
34,809	-4,519	256,000	127,435
35,823	-4,551	255,700	127,247
36,838	-4,557	255,609	127,184
37,853	-4,493	255,279	127,065
38,867	-4,477	254,978	126,918
39,882	-4,461	254,836	126,850
40,896	-4,338	254,551	126,805
41,911	-4,527	254,339	126,523
42,926	-4,622	254,133	126,326
43,940	-4,420	253,718	126,284
44,955	-4,451	253,515	126,145
45,969	-4,729	253,504	125,886
46,984	-4,764	253,110	125,648
47,999	-5,031	252,894	125,298
49,013	-5,004	252,586	125,158
50,028	-5,259	252,463	124,864
51,042	-5,116	252,026	124,760
52,057	-5,347	251,970	124,521
53,071	-5,190	251,718	124,522
54,086	-5,140	251,699	124,545
55,101	-5,004	251,332	124,470
56,115	-4,854	251,306	124,575
57,130	-4,410	251,291	124,940
58,144	-4,340	250,987	124,838
59,159	-4,203	250,731	124,818
60,174	-4,174	250,643	124,787
61,188	-4,302	250,400	124,546
62,203	-4,346	250,255	124,424
63,217	-4,386	249,970	124,237
64,232	-4,272	249,752	124,216
65,247	-4,375	249,549	124,015
66,261	-4,344	249,308	123,911
67,276	-4,516	249,096	123,648
68,290	-4,711	248,908	123,376
69,305	-5,026	248,649	122,968
70,320	-4,688	248,620	123,232
71,334	-4,365	248,250	123,312
72,349	-4,398	248,237	123,266
73,363	-4,248	247,980	123,256
74,378	-4,391	247,784	123,026
75,393	-4,390	247,611	122,930
76,407	-4,457	247,426	122,770
77,422	-4,413	247,141	122,655
78,436	-4,296	246,877	122,612
79,451	-4,273	246,775	122,570
80,466	-4,308	246,593	122,439
81,480	-4,671	246,403	122,027
82,495	-4,562	246,173	121,994
83,509	-4,578	245,915	121,842
84,524	-4,734	245,718	121,602
85,539	-4,668	245,455	121,517
86,553	-4,777	245,322	121,348
87,568	-4,645	245,213	121,395
88,582	-4,596	244,949	121,294
89,597	-4,625	244,884	121,227
90,611	-4,700	244,689	121,056
91,626	-4,552	244,476	121,064
92,641	-4,363	244,397	121,172
93,655	-4,491	244,122	120,918
94,670	-4,577	243,942	120,747
95,684	-4,676	243,836	120,601
96,699	-4,472	243,546	120,616
97,714	-4,432	243,379	120,556
98,728	-4,923	243,178	120,037
99,743	-4,902	242,899	119,907
100,757	-4,679	242,776	120,021
101,772	-4,726	242,454	119,812
102,787	-4,597	242,486	119,924
103,801	-4,565	242,247	119,822
104,816	-4,494	242,116	119,805
105,830	-4,271	242,114	119,978
106,845	-4,184	241,886	119,926
107,860	-4,323	241,625	119,672
108,874	-4,599	241,429	119,335
109,889	-4,592	241,199	119,217
110,903	-4,489	241,052	119,219
111,918	-4,819	240,929	118,876
112,933	-4,463	240,727	119,058
113,947	-4,468	240,586	118,974
114,962	-4,385	240,242	118,861
115,976	-4,417	240,153	118,780
116,991	-4,543	239,941	118,561
118,006	-4,349	239,849	118,664
119,020	-4,497	239,699	118,458
120,035	-4,321	239,665	118,575
121,049	-4,365	239,546	118,469
122,064	-4,374	239,241	118,300
123,079	-4,487	239,049	118,103
124,093	-4,297	238,787	118,118
125,108	-4,815	238,706	117,645
126,122	-4,821	238,330	117,444
127,137	-4,782	238,215	117,409
128,151	-4,668	238,053	117,411
129,166	-4,551	237,898	117,420
130,181	-4,684	237,685	117,196
131,195	-4,729	237,478	117,047
132,210	-4,583	237,285	117,060
133,224	-4,452	237,227	117,127
134,239	-4,573	237,141	116,976
135,254	-4,526	236,896	116,883
136,268	-4,687	236,687	116,639
137,283	-4,804	236,586	116,484
138,297	-5,063	236,350	116,149
139,312	-5,118	236,072	115,957
140,327	-4,718	235,937	116,203
141,341	-4,483	236,012	116,419
142,356	-4,202	235,859	116,559
143,370	-4,059	235,598	116,534
144,385	-4,107	235,422	116,398
145,400	-4,222	235,402	116,286
146,414	-3,987	235,029	116,279
147,429	-4,239	234,879	115,993
148,443	-4,021	234,644	116,041
149,458	-4,331	234,663	115,793
150,473	-4,222	234,403	115,740
151,487	-4,091	234,230	115,750
152,502	-4,162	233,970	115,554
153,516	-4,081	234,007	115,626
154,531	-4,057	233,736	115,501
155,546	-4,447	233,521	115,075
156,560	-4,433	233,547	115,088
157,575	-4,446	233,306	114,949
158,589	-4,442	233,071	114,826
159,604	-4,120	232,912	114,993
160,619	-3,906	232,709	115,052
161,633	-3,905	232,583	114,980
162,648	-3,981	232,342	114,791
163,662	-4,245	232,348	114,575
164,677	-4,231	232,135	114,471
165,692	-4,133	232,026	114,484
166,706	-3,937	231,878	114,555
167,721	-3,964	231,684	114,428
168,735	-4,213	231,482	114,122
169,750	-4,174	231,474	114,138
170,764	-4,059	231,198	114,083
171,779	-4,215	231,142	113,922
172,794	-3,945	230,854	113,982
173,808	-4,404	230,726	113,549
174,823	-4,562	230,308	113,209
175,837	-4,606	230,341	113,181
176,852	-4,445	230,229	113,241
177,867	-4,114	230,240	113,496
178,881	-4,076	230,134	113,463
179,896	-4,007	229,854	113,369
180,910	-3,879	229,569	113,318
181,925	-4,072	229,637	113,191
182,940	-4,201	229,373	112,951
183,954	-3,890	229,210	113,102
184,969	-3,902	229,121	113,039
185,983	-3,945	228,957	112,914
186,998	-3,867	228,798	112,887
188,013	-4,200	228,760	112,598
189,027	-3,919	228,510	112,684
190,042	-3,896	228,471	112,672
191,056	-3,934	228,172	112,486
192,071	-3,944	228,126	112,445
193,086	-3,814	227,846	112,398
194,100	-4,260	227,806	112,023
195,115	-4,192	227,360	111,846
196,129	-4,489	227,282	111,569
197,144	-2,161	228,009	113,716
198,159	1,645	229,010	117,157
199,173	4,001	229,685	119,320
200,188	4,067	229,638	119,336
201,202	4,300	229,340	119,351
202,217	4,460	229,234	119,409
203,232	4,376	229,274	119,354
204,246	4,733	228,959	119,455
205,261	4,842	228,854	119,473
206,275	4,995	228,752	119,528
207,290	4,913	228,753	119,455
208,304	4,938	228,528	119,346
209,319	4,631	228,299	118,979
210,334	4,862	228,134	119,060
211,348	4,412	227,947	118,606
212,363	4,189	227,628	118,259
213,377	3,998	227,311	117,937
214,392	3,993	227,243	117,887
215,407	4,062	227,213	117,914
216,421	4,086	227,004	117,813
217,436	4,001	226,772	117,618
218,450	3,694	226,641	117,304
219,465	3,668	226,489	117,196
220,480	3,862	226,394	117,284
221,494	3,739	226,099	117,027
222,509	3,903	226,080	117,132
223,523	3,817	225,902	116,964
224,538	3,775	225,699	116,816
225,553	3,978	225,613	116,915
226,567	3,930	225,603	116,863
227,582	4,307	225,543	117,108
228,596	4,330	225,263	116,970
229,611	4,136	225,050	116,701
230,626	3,837	224,909	116,392
231,640	3,907	224,760	116,358
232,655	4,007	224,518	116,297
233,669	4,555	224,624	116,756
234,684	4,576	224,550	116,723
235,699	4,484	224,209	116,466
236,713	4,155	224,186	116,195
237,728	4,038	223,791	115,893
238,742	3,805	223,710	115,664
239,757	3,757	223,606	115,565
240,772	3,918	223,286	115,510
241,786	4,009	223,307	115,578
242,801	4,232	223,115	115,637
243,815	4,401	223,123	115,757
244,830	4,198	223,059	115,561
245,844	4,004	222,884	115,315
246,859	3,946	222,675	115,153
247,874	4,282	222,548	115,328
248,888	4,191	222,314	115,129
249,903	4,193	222,180	115,051
250,917	3,861	221,996	114,698
251,932	3,878	221,965	114,684
252,947	3,921	221,753	114,596
253,961	3,960	221,609	114,541
254,976	3,731	221,575	114,342
255,990	4,134	221,316	114,498
257,005	3,990	221,242	114,343
258,020	4,136	221,184	114,411
259,034	4,258	221,068	114,431
260,049	4,330	220,812	114,342
261,063	4,209	220,705	114,187
262,078	4,167	220,618	114,100
263,093	4,506	220,367	114,211
264,107	4,257	220,430	114,049
265,122	4,263	220,132	113,889
266,136	4,553	220,041	114,046
267,151	4,339	219,919	113,815
268,166	4,023	219,586	113,400
269,180	3,851	219,294	113,113
270,195	3,946	219,310	113,180
271,209	3,823	219,118	112,980
272,224	4,176	219,008	113,173
273,239	4,203	218,892	113,123
274,253	3,891	218,768	112,820
275,268	3,855	218,516	112,653
276,282	3,726	218,291	112,433
277,297	3,707	218,160	112,342
278,312	3,832	218,130	112,407
279,326	4,031	218,045	112,499
280,341	3,678	218,118	112,269
281,355	4,043	217,964	112,446
282,370	3,922	217,575	112,147
283,384	3,733	217,346	111,881
284,399	3,799	217,217	111,853
285,414	3,690	217,094	111,700
286,428	4,120	216,935	111,921
287,443	4,041	217,025	111,901
288,457	4,018	216,767	111,740
289,472	3,881	216,680	111,586
290,487	3,559	216,263	111,129
291,501	3,294	216,242	110,915
292,516	3,547	216,122	111,028
293,530	3,916	216,018	111,231
294,545	3,648	215,841	110,936
295,560	3,677	215,727	110,889
296,574	3,994	215,745	111,117
297,589	3,836	215,542	110,889
298,603	4,029	215,305	110,896
299,618	4,157	215,202	110,925
300,633	3,916	215,128	110,703
301,647	4,225	215,078	110,891
302,662	4,300	214,834	110,809
303,676	4,269	214,765	110,741
304,691	4,315	214,553	110,655
305,706	4,455	214,435	110,684
306,720	4,237	214,279	110,438
307,735	4,041	214,129	110,210
308,749	3,859	213,975	109,991
309,764	4,132	213,952	110,165
310,779	4,097	213,885	110,095
311,793	4,190	213,646	110,029
312,808	4,317	213,379	109,972
313,822	4,282	213,358	109,927
314,837	4,178	213,035	109,676
315,852	3,652	213,041	109,295
316,866	3,813	212,942	109,349
317,881	4,281	212,889	109,645
318,895	4,475	212,742	109,697
319,910	3,967	212,546	109,226
320,925	3,702	212,328	108,916
321,939	3,342	212,195	108,583
322,954	3,529	212,020	108,616
323,968	3,986	211,994	108,917
324,983	4,115	211,933	108,967
325,997	4,176	211,722	108,892
327,012	4,249	211,578	108,860
328,027	4,046	211,366	108,598
329,041	4,218	211,474	108,765
330,056	4,495	211,372	108,898
331,070	3,969	210,957	108,305
332,085	3,739	210,766	108,035
333,100	3,849	210,759	108,099
334,114	4,047	210,629	108,162
335,129	4,161	210,448	108,139
336,143	3,898	210,242	107,839
337,158	3,935	210,182	107,825
338,173	3,953	210,128	107,800
339,187	3,854	209,887	107,598
340,202	3,666	209,725	107,374
341,216	3,610	209,429	107,173
342,231	3,856	209,445	107,344
343,246	3,634	209,416	107,164
344,260	3,683	209,290	107,124
345,275	3,789	209,205	107,146
346,289	4,069	209,288	107,373
347,304	4,114	208,909	107,201
348,319	3,883	208,770	106,959
349,333	4,195	208,449	107,002
350,348	4,002	208,438	106,853
351,362	4,198	208,406	106,963
352,377	4,113	208,392	106,887
353,392	4,015	208,024	106,621
354,406	3,940	208,087	106,592
355,421	193,256	1345,296	1431,654
356,435	154,161	1483,956	1431,776
