DTS Sentinel unit serial number:	SN410029Multiplexer serial number:	ORYXHardware model number:	OX2-SRSoftware version number:	ORYX F/W v4,00 Oryx Data Collector v3.7.2.0data status	okinstallation	B6 Nyhavnadifferential loss correction	single-endedforward channel	channel 2reverse channel	N/Adate	2023/12/08time	03:05:08forward acquisition time	300,00reverse acquisition time	0,00gamma	499,1914k internal	0,3165k external	0,3165temperature offset calibration	1,0000default loss term (dB/km)	0,3820temperature slope calibration	1,0000multiplexer offset coefficient	1,0000multiplexer slope coefficient	1,0000fibre end	0,00T internal ref (°C)	13,13T ext. ref 1 (°C)	-3,73T ext. ref 2 (°C)	-3,72length (m)	temperature (°C)	Stokes	anti-Stokes-744,400	-199,709	0,082	-0,000
-743,385	-3,350	-0,170	-0,087
-742,371	-128,237	0,101	-0,010
-741,356	-116,170	-0,325	0,044
-740,342	-37,983	0,209	0,081
-739,327	-40,487	-0,460	-0,175
-738,312	140,381	0,095	0,092
-737,298	-143,188	-0,386	-0,027
-736,283	-200,000	0,021	0,073
-735,269	-138,399	-0,271	-0,022
-734,254	-200,000	-0,010	0,155
-733,239	-69,699	-0,414	-0,115
-732,225	25,975	0,256	0,156
-731,210	-200,000	-0,011	0,127
-730,196	-200,000	0,009	-0,066
-729,181	-106,066	-0,084	0,014
-728,167	286,598	-0,014	0,018
-727,152	8,469	-0,037	-0,020
-726,137	-59,890	-0,113	0,035
-725,123	106,547	0,020	0,018
-724,108	-47,784	-0,180	-0,064
-723,094	-200,000	0,016	-0,114
-722,079	337,495	-0,015	0,022
-721,064	-37,808	-0,168	0,065
-720,050	111,949	0,046	-0,041
-719,035	-143,971	0,102	-0,007
-718,021	258,637	-0,012	0,016
-717,006	800,000	-0,035	-0,089
-715,991	-200,000	0,018	-0,093
-714,977	-85,131	-0,280	-0,064
-713,962	-80,155	0,101	0,025
-712,948	-32,935	-0,028	0,012
-711,933	268,808	0,033	-0,043
-710,918	321,807	-0,043	-0,061
-709,904	-200,000	-0,010	-0,094
-708,889	228,118	-0,101	-0,122
-707,875	-200,000	-0,002	-0,143
-706,860	-126,823	-0,057	-0,006
-705,845	-64,914	-0,076	0,022
-704,831	-200,000	0,012	0,114
-703,816	357,789	-0,025	-0,037
-702,802	-78,040	0,161	0,040
-701,787	-102,357	-0,026	-0,005
-700,772	-200,000	0,005	-0,158
-699,758	350,059	0,008	0,011
-698,743	731,109	0,074	0,147
-697,729	800,000	-0,017	-0,047
-696,714	-200,000	-0,007	-0,030
-695,699	135,996	-0,053	0,051
-694,685	-2,594	-0,103	-0,053
-693,670	800,000	0,032	-0,076
-692,656	551,382	0,042	-0,074
-691,641	800,000	-0,075	0,187
-690,627	-200,000	-0,004	0,014
-689,612	304,410	-0,102	-0,139
-688,597	800,000	-0,057	-0,118
-687,583	-51,248	-0,141	-0,048
-686,568	-200,000	-0,009	-0,070
-685,554	308,815	-0,060	-0,083
-684,539	-147,476	0,101	0,006
-683,524	-200,000	-0,004	-0,031
-682,510	-200,000	-0,020	-0,087
-681,495	9,937	0,053	-0,030
-680,481	187,477	-0,014	-0,015
-679,466	147,625	0,108	-0,107
-678,451	-43,482	-0,035	0,013
-677,437	37,633	0,118	-0,077
-676,422	10,853	-0,029	-0,016
-675,408	122,039	-0,062	0,057
-674,393	-2,113	-0,022	0,011
-673,378	800,000	-0,029	-0,069
-672,364	280,303	0,080	-0,105
-671,349	-200,000	-0,028	0,149
-670,335	-98,663	-0,090	0,017
-669,320	305,908	0,049	-0,068
-668,305	51,716	0,015	-0,011
-667,291	-200,000	-0,006	-0,072
-666,276	104,001	-0,061	-0,052
-665,262	-127,665	-0,060	-0,006
-664,247	-16,889	-0,158	0,073
-663,232	56,252	0,119	-0,085
-662,218	47,519	-0,110	-0,075
-661,203	13,139	0,064	-0,036
-660,189	220,498	-0,056	0,066
-659,174	209,930	-0,048	0,056
-658,159	38,792	-0,159	-0,104
-657,145	-57,535	-0,129	-0,041
-656,130	800,000	-0,006	-0,018
-655,116	-108,321	-0,088	0,014
-654,101	145,397	0,067	0,066
-653,086	-200,000	0,006	0,031
-652,072	273,268	-0,043	0,055
-651,057	157,496	-0,065	-0,066
-650,043	216,752	-0,045	-0,053
-649,028	-126,720	-0,096	-0,010
-648,014	155,849	-0,038	0,038
-646,999	37,661	-0,068	-0,044
-645,984	-200,000	0,005	-0,050
-644,970	591,333	0,024	-0,043
-643,955	-34,471	-0,114	-0,045
-642,941	-200,000	-0,024	-0,081
-641,926	-98,712	-0,021	0,004
-640,911	59,737	0,057	0,041
-639,897	-200,000	-0,024	-0,084
-638,882	800,000	-0,012	0,029
-637,868	37,651	0,146	-0,095
-636,853	-107,061	-0,039	0,006
-635,838	73,511	-0,068	0,052
-634,824	800,000	-0,016	-0,043
-633,809	-200,000	-0,003	-0,058
-632,795	8,851	0,077	0,042
-631,780	321,679	0,073	0,101
-630,765	40,826	0,049	-0,033
-629,751	57,428	-0,071	-0,051
-628,736	-51,066	0,027	0,009
-627,722	800,000	-0,028	0,065
-626,707	-200,000	-0,027	-0,089
-625,692	-200,000	0,000	0,077
-624,678	383,085	-0,041	-0,061
-623,663	3,241	0,110	-0,058
-622,649	800,000	-0,002	0,005
-621,634	63,965	-0,037	-0,028
-620,619	44,579	-0,109	-0,074
-619,605	800,000	0,048	-0,117
-618,590	-30,207	0,003	0,001
-617,576	-200,000	0,017	0,087
-616,561	-200,000	0,014	0,059
-615,546	-66,583	-0,138	0,040
-614,532	50,059	-0,092	0,063
-613,517	477,627	-0,045	0,076
-612,503	-200,000	-0,015	-0,056
-611,488	-84,993	0,095	0,022
-610,474	220,365	0,078	-0,092
-609,459	-200,000	-0,026	-0,136
-608,444	-113,773	-0,114	-0,016
-607,430	755,548	-0,031	0,062
-606,415	-200,000	0,057	-0,218
-605,401	-200,000	-0,001	-0,009
-604,386	800,000	-0,043	0,096
-603,371	-185,957	0,043	-0,000
-602,357	-10,981	-0,149	0,072
-601,342	-200,000	0,019	0,150
-600,328	-166,282	-0,171	-0,005
-599,313	-9,038	-0,114	-0,056
-598,298	212,647	0,032	-0,037
-597,284	0,787	0,101	-0,053
-596,269	-139,341	-0,060	0,005
-595,255	-25,428	0,040	0,017
-594,240	-45,303	-0,061	0,022
-593,225	340,695	0,078	0,111
-592,211	-138,159	0,069	-0,005
-591,196	-59,879	-0,145	0,045
-590,182	-200,000	0,009	0,066
-589,167	26,920	-0,089	0,054
-588,152	-200,000	-0,016	0,073
-587,138	43,626	-0,086	-0,057
-586,123	786,633	0,025	-0,051
-585,109	800,000	-0,023	0,063
-584,094	50,644	0,038	0,026
-583,079	-200,000	-0,014	-0,166
-582,065	-200,000	-0,030	0,132
-581,050	645,085	0,045	0,085
-580,036	148,935	-0,056	-0,055
-579,021	142,647	0,052	-0,051
-578,006	-15,699	-0,178	-0,083
-576,992	23,379	-0,041	-0,025
-575,977	800,000	-0,047	0,117
-574,963	229,735	-0,028	-0,033
-573,948	-95,719	-0,078	0,015
-572,934	800,000	0,007	0,017
-571,919	52,491	0,029	-0,020
-570,904	59,390	-0,020	-0,014
-569,890	164,331	0,145	-0,150
-568,875	-42,662	0,180	-0,067
-567,861	-200,000	-0,023	0,076
-566,846	6,884	-0,025	0,013
-565,831	333,396	-0,066	-0,093
-564,817	691,764	-0,039	-0,075
-563,802	-49,877	-0,059	-0,020
-562,788	26,003	-0,046	-0,028
-561,773	33,142	-0,150	-0,095
-560,758	117,824	0,036	-0,033
-559,744	429,243	-0,016	-0,026
-558,729	222,153	-0,211	-0,248
-557,715	54,552	0,035	0,025
-556,700	800,000	0,040	-0,081
-555,685	-200,000	0,032	-0,116
-554,671	-200,000	0,034	-0,138
-553,656	800,000	0,035	0,098
-552,642	646,507	-0,054	0,101
-551,627	562,429	-0,015	0,026
-550,612	169,477	-0,094	-0,099
-549,598	-89,435	-0,084	-0,018
-548,583	236,973	0,059	-0,071
-547,569	479,173	-0,035	0,058
-546,554	-0,676	-0,090	0,046
-545,539	-119,627	0,155	0,019
-544,525	73,861	0,095	0,072
-543,510	800,000	0,023	0,055
-542,496	-10,917	-0,155	-0,074
-541,481	-165,780	0,039	0,001
-540,466	800,000	-0,039	0,124
-539,452	-12,002	-0,039	0,018
-538,437	204,786	0,063	-0,072
-537,423	203,796	-0,069	0,078
-536,408	329,909	-0,012	-0,017
-535,393	629,807	-0,056	-0,104
-534,379	800,000	-0,022	-0,067
-533,364	5,428	-0,112	-0,060
-532,350	273,215	0,062	-0,080
-531,335	95,102	0,168	0,140
-530,321	82,949	-0,106	0,084
-529,306	-200,000	0,008	-0,034
-528,291	-142,412	0,016	-0,001
-527,277	171,805	-0,137	0,143
-526,262	800,000	0,025	-0,077
-525,248	215,383	-0,059	0,068
-524,233	172,958	0,106	0,112
-523,218	-200,000	0,004	-0,109
-522,204	-140,724	-0,129	0,010
-521,189	-200,000	0,002	-0,053
-520,175	-13,213	0,095	-0,045
-519,160	355,268	-0,020	0,029
-518,145	477,294	-0,076	0,126
-517,131	800,000	-0,058	0,122
-516,116	68,329	-0,057	0,042
-515,102	-100,913	0,167	-0,030
-514,087	83,896	-0,070	-0,056
-513,072	-200,000	-0,011	-0,059
-512,058	-22,368	-0,068	-0,030
-511,043	353,871	-0,031	-0,045
-510,029	204,459	0,065	0,073
-509,014	-200,000	0,010	-0,074
-507,999	9,392	0,053	-0,029
-506,985	-44,089	0,028	-0,010
-505,970	-200,000	0,033	-0,113
-504,956	-15,166	-0,089	-0,041
-503,941	699,895	0,017	-0,033
-502,926	85,127	-0,045	0,036
-501,912	-200,000	0,016	-0,067
-500,897	-106,283	-0,046	0,007
-499,883	-119,069	-0,164	-0,021
-498,868	269,308	-0,022	-0,028
-497,853	64,341	-0,051	-0,038
-496,839	-186,673	0,057	0,001
-495,824	-82,620	0,051	0,012
-494,810	626,850	0,023	0,042
-493,795	-129,997	-0,033	0,003
-492,781	-95,810	0,081	0,016
-491,766	-112,093	-0,097	-0,014
-490,751	-147,269	0,081	-0,005
-489,737	303,542	-0,035	0,047
-488,722	-200,000	0,020	0,099
-487,708	112,356	0,132	0,116
-486,693	190,667	0,114	-0,125
-485,678	78,580	0,052	-0,041
-484,664	-200,000	-0,020	-0,150
-483,649	-200,000	-0,002	-0,140
-482,635	-200,000	-0,007	0,039
-481,620	110,458	-0,082	-0,072
-480,605	-200,000	-0,024	-0,093
-479,591	-200,000	0,040	0,226
-478,576	-200,000	0,020	0,093
-477,562	-23,186	0,173	-0,075
-476,547	-141,894	-0,224	-0,016
-475,532	110,419	-0,037	0,033
-474,518	-12,701	0,127	0,060
-473,503	302,123	0,033	0,044
-472,489	-200,000	0,022	0,074
-471,474	286,221	0,120	-0,158
-470,459	-200,000	0,003	-0,074
-469,445	142,959	-0,096	0,093
-468,430	-200,000	0,041	-0,152
-467,416	800,000	0,043	-0,109
-466,401	336,818	0,033	-0,047
-465,386	-200,000	0,010	0,157
-464,372	-117,747	0,097	0,013
-463,357	98,749	0,025	-0,021
-462,343	-37,474	0,059	-0,023
-461,328	84,853	-0,117	-0,093
-460,313	800,000	-0,039	-0,112
-459,299	-200,000	0,012	0,059
-458,284	168,795	-0,056	0,058
-457,270	-200,000	-0,025	0,087
-456,255	76,523	-0,157	0,121
-455,241	-115,262	0,071	0,010
-454,226	-200,000	0,041	0,155
-453,211	-48,326	-0,079	-0,027
-452,197	-127,248	0,039	0,004
-451,182	-200,000	-0,026	0,166
-450,168	471,026	-0,087	-0,142
-449,153	800,000	-0,070	-0,154
-448,138	-24,959	-0,015	-0,006
-447,124	-200,000	-0,004	0,084
-446,109	-26,902	-0,010	0,004
-445,095	27,356	0,038	-0,023
-444,080	294,006	-0,089	0,118
-443,065	21,134	-0,076	0,045
-442,051	-200,000	0,014	-0,188
-441,036	264,362	-0,040	-0,050
-440,022	-157,238	0,065	0,003
-439,007	-99,706	-0,135	-0,024
-437,992	54,770	-0,051	-0,036
-436,978	90,086	-0,052	-0,042
-435,963	609,955	0,019	0,036
-434,949	-96,820	-0,084	0,016
-433,934	106,655	0,078	-0,067
-432,919	-27,107	0,101	-0,042
-431,905	-182,854	-0,087	0,001
-430,890	800,000	-0,042	0,107
-429,876	-112,718	0,111	0,016
-428,861	800,000	0,027	-0,079
-427,846	-169,267	0,022	0,001
-426,832	-200,000	0,008	0,028
-425,817	223,761	-0,111	-0,130
-424,803	32,708	-0,039	0,024
-423,788	104,690	-0,112	-0,096
-422,773	120,417	0,065	-0,059
-421,759	108,728	0,021	0,018
-420,744	800,000	0,020	0,051
-419,730	-200,000	0,013	0,083
-418,715	-200,000	-0,003	0,036
-417,701	-200,000	-0,008	0,026
-416,686	387,754	0,055	0,082
-415,671	69,430	-0,053	-0,040
-414,657	-58,884	0,100	-0,031
-413,642	-39,205	0,092	-0,035
-412,628	-92,920	0,048	0,010
-411,613	800,000	-0,053	-0,120
-410,598	-200,000	-0,026	0,119
-409,584	-110,123	0,071	0,011
-408,569	-140,977	0,147	-0,011
-407,555	-200,000	0,051	0,232
-406,540	-200,000	0,011	-0,066
-405,525	232,156	-0,103	-0,123
-404,511	97,962	0,037	-0,031
-403,496	800,000	0,018	-0,047
-402,482	702,575	0,030	0,058
-401,467	-76,411	0,129	0,033
-400,452	-31,397	0,107	-0,044
-399,438	0,761	0,051	-0,026
-398,423	-200,000	-0,003	-0,044
-397,409	155,915	0,021	-0,021
-396,394	234,016	-0,069	0,083
-395,379	-200,000	0,037	0,122
-394,365	-24,382	0,018	-0,008
-393,350	-200,000	-0,003	0,050
-392,336	205,864	-0,036	0,040
-391,321	-200,000	-0,024	0,114
-390,306	413,641	-0,044	-0,067
-389,292	293,620	-0,064	0,084
-388,277	-150,647	0,030	-0,002
-387,263	-165,742	0,177	0,005
-386,248	-71,608	-0,041	-0,011
-385,233	56,504	0,035	0,025
-384,219	-157,482	0,038	-0,002
-383,204	200,824	0,043	-0,048
-382,190	-200,000	-0,009	-0,135
-381,175	-67,341	0,133	-0,038
-380,160	-18,638	-0,060	0,027
-379,146	-200,000	-0,001	-0,025
-378,131	103,208	0,071	-0,060
-377,117	800,000	0,034	0,096
-376,102	800,000	0,013	-0,038
-375,088	-119,271	-0,165	0,021
-374,073	12,398	-0,068	0,038
-373,058	307,227	0,078	-0,106
-372,044	-200,000	0,006	0,064
-371,029	-7,142	0,169	0,083
-370,015	203,605	0,059	0,066
-369,000	19,179	0,165	0,096
-367,985	-200,000	0,030	-0,120
-366,971	800,000	-0,070	-0,220
-365,956	418,389	0,033	0,052
-364,942	97,100	0,019	0,016
-363,927	-200,000	-0,004	0,057
-362,912	-124,809	0,016	-0,002
-361,898	72,117	0,032	0,024
-360,883	190,035	0,023	-0,025
-359,869	-200,000	0,036	-0,146
-358,854	-42,200	0,209	-0,077
-357,839	-97,165	0,113	-0,021
-356,825	-200,000	0,010	0,106
-355,810	-41,799	-0,084	0,031
-354,796	-155,719	-0,031	0,001
-353,781	746,782	0,057	-0,112
-352,766	-156,531	-0,140	0,006
-351,752	789,351	0,014	0,028
-350,737	31,152	0,077	-0,048
-349,723	494,778	0,046	0,077
-348,708	-200,000	0,021	0,074
-347,693	800,000	0,023	0,072
-346,679	187,802	-0,077	-0,084
-345,664	800,000	-0,054	0,142
-344,650	-71,415	-0,085	-0,023
-343,635	575,385	0,045	-0,079
-342,620	-24,051	0,178	0,077
-341,606	-15,065	-0,141	-0,065
-340,591	75,429	-0,031	-0,024
-339,577	412,457	-0,042	-0,065
-338,562	96,943	-0,044	0,036
-337,548	-76,756	0,045	-0,011
-336,533	555,412	0,063	0,110
-335,518	475,640	0,092	0,151
-334,504	261,386	0,061	0,077
-333,489	800,000	0,061	-0,127
-332,475	483,545	0,005	0,009
-331,460	-200,000	0,030	-0,121
-330,445	-200,000	0,001	-0,017
-329,431	501,716	-0,032	0,054
-328,416	292,974	0,034	0,045
-327,402	800,000	0,052	0,122
-326,387	-37,424	-0,098	0,038
-325,372	-200,000	0,008	-0,115
-324,358	114,045	-0,075	-0,066
-323,343	493,656	0,024	0,040
-322,329	-43,739	0,025	0,009
-321,314	-139,210	-0,094	0,007
-320,299	-200,000	0,022	0,073
-319,285	-200,000	0,006	0,140
-318,270	626,047	0,028	0,051
-317,256	800,000	0,020	-0,048
-316,241	-200,000	-0,001	-0,129
-315,226	379,302	-0,064	0,096
-314,212	56,538	-0,030	0,021
-313,197	-200,000	0,013	0,060
-312,183	800,000	0,085	0,216
-311,168	38,006	0,036	0,023
-310,153	-29,184	-0,185	-0,077
-309,139	800,000	-0,046	0,102
-308,124	-94,684	0,092	0,018
-307,110	800,000	0,015	-0,040
-306,095	-157,318	0,066	0,003
-305,080	419,641	-0,023	0,035
-304,066	11,631	-0,056	0,031
-303,051	128,110	-0,051	-0,047
-302,037	-200,000	0,009	-0,033
-301,022	-6,308	0,099	0,049
-300,008	81,933	-0,062	-0,048
-298,993	707,445	0,029	0,056
-297,978	-200,000	-0,005	-0,064
-296,964	-200,000	-0,014	-0,069
-295,949	24,031	0,060	-0,036
-294,935	105,144	0,009	-0,007
-293,920	451,676	-0,041	-0,066
-292,905	800,000	0,018	0,039
-291,891	117,286	0,088	-0,078
-290,876	274,879	0,088	0,113
-289,862	-200,000	-0,046	-0,204
-288,847	142,210	-0,116	-0,112
-287,832	-200,000	0,015	0,060
-286,818	337,357	-0,083	0,118
-285,803	-200,000	0,006	0,149
-284,789	114,212	0,122	0,107
-283,774	-144,406	0,139	0,009
-282,759	-95,604	-0,081	0,016
-281,745	-173,546	-0,050	-0,001
-280,730	-190,611	-0,017	-0,000
-279,716	178,116	0,019	0,020
-278,701	536,035	-0,115	-0,198
-277,686	-25,190	0,055	-0,024
-276,672	-105,669	-0,121	0,020
-275,657	17,311	-0,058	-0,033
-274,643	-168,902	0,050	-0,001
-273,628	-200,000	-0,037	-0,119
-272,613	129,179	-0,082	0,076
-271,599	469,404	0,045	0,073
-270,584	230,923	-0,043	-0,051
-269,570	111,645	0,098	0,085
-268,555	-200,000	0,013	0,101
-267,540	53,969	0,034	0,023
-266,526	53,826	-0,056	-0,039
-265,511	-200,000	-0,008	-0,139
-264,497	-73,822	0,166	-0,043
-263,482	-169,951	-0,129	0,003
-262,467	170,305	-0,080	-0,082
-261,453	300,865	0,066	0,088
-260,438	59,339	-0,052	-0,037
-259,424	-47,164	0,037	0,013
-258,409	-200,000	0,001	-0,084
-257,395	-78,920	-0,055	0,013
-256,380	-200,000	-0,008	-0,058
-255,365	-93,385	0,119	0,024
-254,351	-200,000	-0,003	0,088
-253,336	-200,000	0,006	-0,065
-252,322	-122,620	-0,063	-0,007
-251,307	-200,000	-0,009	0,074
-250,292	-200,000	-0,011	-0,070
-249,278	-21,665	0,115	0,050
-248,263	-10,044	0,132	-0,063
-247,249	-200,000	-0,019	0,102
-246,234	57,606	-0,125	0,088
-245,219	-200,000	0,024	0,110
-244,205	-200,000	0,001	0,074
-243,190	-115,896	-0,063	0,008
-242,176	-200,000	-0,001	0,197
-241,161	-53,539	0,063	-0,021
-240,146	-6,120	0,014	0,007
-239,132	799,730	-0,049	-0,098
-238,117	800,000	0,052	-0,133
-237,103	219,607	-0,123	-0,143
-236,088	253,506	-0,084	-0,104
-235,073	-200,000	0,023	0,072
-234,059	800,000	0,043	0,127
-233,044	317,704	0,098	0,134
-232,030	33,842	0,031	-0,019
-231,015	-200,000	-0,018	-0,095
-230,000	17,658	-0,083	-0,048
-228,986	476,462	0,032	-0,052
-227,971	167,941	-0,064	0,066
-226,957	-179,591	-0,132	-0,002
-225,942	-48,505	-0,023	-0,008
-224,927	-200,000	0,034	-0,152
-223,913	70,021	0,039	-0,029
-222,898	-200,000	0,023	-0,086
-221,884	276,182	0,108	0,139
-220,869	-131,279	-0,213	-0,020
-219,855	386,600	0,043	-0,064
-218,840	240,803	-0,021	0,025
-217,825	800,000	0,070	-0,195
-216,811	-38,594	-0,110	-0,042
-215,796	511,532	0,027	-0,045
-214,782	-200,000	0,028	0,151
-213,767	672,010	-0,062	-0,116
-212,752	-93,323	0,133	0,026
-211,738	-200,000	0,016	0,093
-210,723	-105,237	0,155	0,025
-209,709	800,000	-0,027	-0,060
-208,694	-146,748	-0,115	0,007
-207,679	-200,000	0,005	-0,077
-206,665	189,863	-0,071	0,077
-205,650	800,000	0,097	0,203
-204,636	800,000	0,074	0,179
-203,621	-200,000	0,032	0,146
-202,606	-65,099	0,085	-0,024
-201,592	218,319	-0,066	0,076
-200,577	-200,000	0,005	0,097
-199,563	-101,330	0,086	0,015
-198,548	-120,921	-0,101	0,012
-197,533	148,647	-0,115	0,112
-196,519	95,181	0,091	-0,075
-195,504	-120,986	0,194	-0,023
-194,490	782,566	-0,015	0,030
-193,475	-60,762	0,128	-0,039
-192,460	-130,977	-0,080	-0,008
-191,446	45,966	0,055	0,036
-190,431	140,533	0,082	0,078
-189,417	62,770	-0,048	-0,034
-188,402	403,385	-0,061	0,093
-187,387	800,000	-0,012	0,025
-186,373	548,146	0,023	-0,040
-185,358	209,788	0,045	0,051
-184,344	-200,000	0,004	-0,172
-183,329	-192,566	-0,053	-0,000
-182,315	-26,446	-0,029	-0,012
-181,300	-37,083	-0,012	0,005
-180,285	800,000	-0,016	-0,043
-179,271	513,680	-0,041	-0,069
-178,256	-125,820	0,102	-0,011
-177,242	-68,966	0,098	0,027
-176,227	306,943	-0,063	0,085
-175,212	469,952	-0,068	0,111
-174,198	216,562	-0,062	0,071
-173,183	800,000	-0,036	0,088
-172,169	-200,000	0,012	0,088
-171,154	-83,858	0,075	-0,017
-170,139	-25,147	0,085	-0,036
-169,125	800,000	-0,039	-0,103
-168,110	800,000	0,015	0,032
-167,096	-68,640	-0,038	-0,011
-166,081	-15,738	0,060	0,027
-165,066	534,513	0,043	-0,074
-164,052	-200,000	-0,001	-0,011
-163,037	-200,000	-0,019	-0,132
-162,023	-200,000	-0,003	0,064
-161,008	-70,534	0,042	-0,011
-159,993	-44,510	-0,063	-0,023
-158,979	800,000	-0,025	0,075
-157,964	450,907	0,012	-0,018
-156,950	274,518	0,120	0,153
-155,935	225,399	0,014	-0,016
-154,920	9,824	-0,039	-0,021
-153,906	397,491	0,034	0,051
-152,891	-39,624	0,217	0,081
-151,877	-77,697	0,098	0,024
-150,862	-2,130	-0,028	0,014
-149,847	-200,000	-0,008	-0,027
-148,833	35,314	-0,054	0,034
-147,818	-200,000	-0,012	0,168
-146,804	-200,000	0,017	0,150
-145,789	-200,000	0,017	0,236
-144,775	-200,000	-0,034	0,133
-143,760	-107,334	-0,031	0,005
-142,745	-64,631	-0,059	0,017
-141,731	195,392	-0,018	-0,019
-140,716	-5,823	-0,102	0,050
-139,702	-79,151	0,059	-0,014
-138,687	454,940	0,091	0,145
-137,672	142,024	0,086	0,082
-136,658	-38,892	-0,132	-0,050
-135,643	116,384	0,145	0,128
-134,629	-200,000	0,000	-0,044
-133,614	94,606	-0,050	-0,041
-132,599	67,314	0,077	0,056
-131,585	445,931	-0,008	0,013
-130,570	-62,861	-0,086	-0,025
-129,556	92,291	0,060	0,049
-128,541	-200,000	-0,002	0,017
-127,526	-200,000	0,023	-0,091
-126,512	800,000	0,039	-0,088
-125,497	796,588	0,026	0,052
-124,483	-46,220	-0,033	-0,012
-123,468	-22,620	-0,076	-0,033
-122,453	-162,227	-0,236	0,008
-121,439	-200,000	-0,025	0,096
-120,424	-20,854	-0,067	-0,029
-119,410	93,564	0,144	-0,117
-118,395	16,945	0,054	0,030
-117,380	-200,000	-0,002	-0,007
-116,366	-109,698	0,121	0,018
-115,351	454,045	-0,019	0,031
-114,337	489,734	0,094	-0,156
-113,322	170,080	-0,041	-0,042
-112,307	-200,000	0,002	0,076
-111,293	800,000	-0,044	0,135
-110,278	790,298	-0,013	0,027
-109,264	-127,936	0,064	0,007
-108,249	58,435	0,006	0,004
-107,234	291,021	-0,054	-0,071
-106,220	-200,000	-0,002	-0,034
-105,205	12,509	0,055	-0,030
-104,191	168,394	0,061	0,063
-103,176	10,058	-0,123	0,067
-102,162	-200,000	-0,006	-0,053
-101,147	800,000	-0,034	0,071
-100,132	113,548	-0,048	-0,041
-99,118	261,697	0,117	-0,145
-98,103	-200,000	-0,015	0,056
-97,089	345,935	0,132	0,187
-96,074	23,133	-0,147	0,086
-95,059	-200,000	-0,001	0,043
-94,045	-200,000	-0,011	-0,146
-93,030	-55,950	0,083	-0,026
-92,016	-18,058	0,089	0,040
-91,001	-88,086	0,008	-0,002
-89,986	136,114	-0,045	-0,042
-88,972	32,901	0,052	0,032
-87,957	-42,108	0,026	0,009
-86,943	123,300	0,022	0,019
-85,928	800,000	-0,036	0,074
-84,913	800,000	0,025	-0,066
-83,899	800,000	0,023	-0,056
-82,884	611,423	0,033	0,060
-81,870	226,361	-0,003	-0,004
-80,855	-200,000	0,014	0,056
-79,840	-168,410	-0,045	-0,001
-78,826	-109,257	0,186	0,028
-77,811	-2,717	-0,237	-0,119
-76,797	20,201	-0,075	-0,043
-75,782	800,000	-0,010	-0,024
-74,767	183,328	-0,058	-0,062
-73,753	495,096	0,057	0,095
-72,738	-200,000	-0,004	0,084
-71,724	487,136	0,022	-0,037
-70,709	-200,000	-0,022	-0,117
-69,694	50,489	-0,071	0,048
-68,680	-30,768	0,180	0,073
-67,665	214,959	-0,064	-0,073
-66,651	46,214	0,111	0,073
-65,636	13,471	-0,082	0,046
-64,622	-200,000	0,006	-0,139
-63,607	-200,000	0,004	0,040
-62,592	196,852	-0,081	0,088
-61,578	-200,000	-0,015	0,055
-60,563	-127,496	0,068	-0,007
-59,549	694,207	0,031	0,058
-58,534	30,949	-2,294	-1,405
-57,519	-200,000	-0,190	-0,614
-56,505	-200,000	-1,384	-5,129
-55,490	104,125	1,027	0,865
-54,476	800,000	5,415	12,109
-53,461	-200,000	18,954	319,657
-52,446	800,000	741,324	2324,736
-51,432	549,309	1654,484	2850,479
-50,417	109,846	1637,313	1405,762
-49,403	73,443	1287,868	964,231
-48,388	29,464	1029,460	625,167
-47,373	19,599	992,478	570,099
-46,359	16,864	980,185	554,034
-45,344	13,488	976,425	540,811
-44,330	13,815	974,772	540,946
-43,315	13,163	973,136	537,881
-42,300	13,163	971,797	537,120
-41,286	13,123	970,896	536,469
-40,271	13,154	969,914	536,008
-39,257	13,168	969,129	535,597
-38,242	13,200	968,207	535,171
-37,227	13,152	967,384	534,538
-36,213	13,125	966,619	534,007
-35,198	13,159	965,411	533,428
-34,184	13,177	964,948	533,208
-33,169	13,148	963,854	532,492
-32,154	13,164	962,983	532,041
-31,140	13,164	962,116	531,539
-30,125	13,136	961,578	531,130
-29,111	13,203	960,430	530,692
-28,096	13,182	959,834	530,275
-27,082	13,179	959,055	529,811
-26,067	13,236	958,466	529,649
-25,052	13,173	957,923	529,126
-24,038	13,171	956,987	528,583
-23,023	13,134	956,517	528,184
-22,009	13,153	955,962	527,914
-20,994	13,225	955,233	527,724
-19,979	13,163	954,539	527,121
-18,965	13,102	953,966	526,587
-17,950	13,151	953,590	526,515
-16,936	13,115	952,585	525,823
-15,921	13,145	952,114	525,640
-14,906	13,059	951,381	524,938
-13,892	13,071	950,681	524,569
-12,877	13,063	949,863	524,071
-11,863	13,020	949,370	523,644
-10,848	13,040	948,845	523,395
-9,833	13,151	948,366	523,465
-8,819	13,119	947,701	522,975
-7,804	13,084	947,005	522,460
-6,790	13,056	946,498	522,070
-5,775	13,030	945,864	521,617
-4,760	13,090	945,378	521,517
-3,746	13,110	944,587	521,124
-2,731	12,945	943,899	520,203
-1,717	12,879	943,238	519,606
-0,702	12,912	942,526	519,300
0,313	12,719	941,857	519,102
1,327	16,098	939,887	528,645
2,342	25,199	790,284	468,486
3,356	21,133	444,984	257,738
4,371	-7,904	298,197	143,434
5,386	-11,730	280,037	131,028
6,400	-13,188	274,281	126,956
7,415	-13,080	272,024	126,001
8,429	-13,281	270,465	125,082
9,444	-13,184	269,543	124,733
10,459	-13,190	268,881	124,411
11,473	-13,282	268,242	124,019
12,488	-13,470	267,720	123,595
13,502	-13,539	267,050	123,211
14,517	-13,358	266,766	123,234
15,531	-13,335	266,199	122,982
16,546	-13,313	266,077	122,935
17,561	-13,440	265,626	122,600
18,575	-13,314	265,394	122,597
19,590	-13,243	265,016	122,476
20,604	-13,145	264,640	122,380
21,619	-13,417	264,242	121,940
22,634	-13,491	263,899	121,704
23,648	-13,279	263,539	121,717
24,663	-13,153	263,360	121,737
25,677	-13,413	263,120	121,381
26,692	-13,342	262,882	121,325
27,707	-13,405	262,616	121,135
28,721	-13,307	262,236	121,036
29,736	-13,359	261,932	120,839
30,750	-13,433	261,657	120,635
31,765	-13,492	261,524	120,510
32,780	-13,317	261,203	120,508
33,794	-13,237	260,952	120,452
34,809	-13,561	260,819	120,092
35,823	-13,428	260,476	120,041
36,838	-13,526	260,265	119,847
37,853	-13,321	259,842	119,823
38,867	-13,314	259,618	119,715
39,882	-13,509	259,534	119,493
40,896	-13,372	259,218	119,458
41,911	-13,486	258,950	119,223
42,926	-13,659	258,850	119,013
43,940	-13,422	258,467	119,036
44,955	-13,644	258,299	118,752
45,969	-13,676	258,087	118,616
46,984	-13,818	257,866	118,380
47,999	-14,011	257,460	118,013
49,013	-14,115	257,142	117,766
50,028	-14,244	256,942	117,551
51,042	-14,168	256,696	117,495
52,057	-14,363	256,472	117,210
53,071	-14,307	256,390	117,212
54,086	-14,337	256,087	117,037
55,101	-14,256	256,023	117,068
56,115	-13,812	255,841	117,361
57,130	-13,363	255,749	117,699
58,144	-13,252	255,612	117,721
59,159	-13,151	255,366	117,686
60,174	-13,186	255,013	117,483
61,188	-13,417	254,866	117,204
62,203	-13,198	254,677	117,296
63,217	-13,263	254,554	117,173
64,232	-13,310	254,133	116,928
65,247	-13,313	254,035	116,870
66,261	-13,358	253,643	116,640
67,276	-13,508	253,536	116,451
68,290	-13,711	253,232	116,127
69,305	-13,918	253,017	115,839
70,320	-13,919	252,758	115,710
71,334	-13,711	252,788	115,892
72,349	-13,477	252,532	115,965
73,363	-13,119	252,209	116,114
74,378	-13,255	252,040	115,909
75,393	-13,486	251,962	115,664
76,407	-13,408	251,691	115,597
77,422	-13,334	251,495	115,560
78,436	-13,378	251,165	115,360
79,451	-13,368	251,107	115,332
80,466	-13,474	250,764	115,073
81,480	-13,800	250,503	114,666
82,495	-13,768	250,234	114,560
83,509	-13,435	250,125	114,782
84,524	-13,542	249,768	114,518
85,539	-13,924	249,630	114,120
86,553	-13,773	249,399	114,133
87,568	-13,742	249,358	114,130
88,582	-13,742	249,172	114,035
89,597	-13,735	248,803	113,862
90,611	-13,631	248,837	113,955
91,626	-13,448	248,653	114,015
92,641	-13,437	248,547	113,965
93,655	-13,516	248,108	113,687
94,670	-13,525	248,113	113,672
95,684	-13,634	247,780	113,418
96,699	-13,644	247,541	113,290
97,714	-13,716	247,384	113,147
98,728	-13,508	247,067	113,167
99,743	-13,895	246,949	112,778
100,757	-13,751	246,806	112,824
101,772	-13,912	246,449	112,516
102,787	-13,710	246,409	112,656
103,801	-13,754	246,307	112,563
104,816	-13,709	246,186	112,534
105,830	-13,545	246,052	112,601
106,845	-13,422	245,777	112,567
107,860	-13,457	245,621	112,456
108,874	-13,703	245,264	112,078
109,889	-13,729	245,155	111,997
110,903	-13,622	244,839	111,931
111,918	-13,656	244,795	111,873
112,933	-13,667	244,627	111,777
113,947	-13,549	244,407	111,765
114,962	-13,484	244,250	111,737
115,976	-13,561	244,143	111,614
116,991	-13,464	243,935	111,589
118,006	-13,485	243,656	111,434
119,020	-13,403	243,659	111,493
120,035	-13,425	243,495	111,390
121,049	-13,392	243,236	111,289
122,064	-13,485	243,168	111,171
123,079	-13,641	242,846	110,886
124,093	-13,775	242,634	110,669
125,108	-13,736	242,323	110,550
126,122	-13,966	242,155	110,275
127,137	-13,968	242,043	110,212
128,151	-13,827	241,779	110,197
129,166	-13,622	241,547	110,249
130,181	-13,832	241,232	109,924
131,195	-13,753	241,204	109,966
132,210	-13,675	241,002	109,928
133,224	-13,639	240,994	109,944
134,239	-13,429	240,810	110,021
135,254	-13,642	240,627	109,754
136,268	-13,663	240,351	109,601
137,283	-13,951	239,960	109,180
138,297	-14,011	239,816	109,056
139,312	-14,078	239,671	108,926
140,327	-13,533	239,642	109,344
141,341	-13,407	239,619	109,426
142,356	-13,246	239,551	109,516
143,370	-13,220	239,260	109,394
144,385	-13,122	239,039	109,362
145,400	-13,175	238,871	109,233
146,414	-12,991	238,693	109,290
147,429	-13,213	238,463	108,997
148,443	-13,193	238,246	108,904
149,458	-13,514	238,251	108,638
150,473	-13,123	237,946	108,803
151,487	-13,248	237,706	108,584
152,502	-13,402	237,678	108,437
153,516	-13,141	237,420	108,519
154,531	-13,092	237,226	108,460
155,546	-13,228	237,203	108,331
156,560	-13,268	237,016	108,204
157,575	-13,328	236,598	107,955
158,589	-13,238	236,508	107,977
159,604	-13,112	236,448	108,040
160,619	-13,044	236,348	108,039
161,633	-13,115	236,210	107,910
162,648	-13,005	236,014	107,898
163,662	-13,407	235,847	107,493
164,677	-13,320	235,651	107,462
165,692	-13,111	235,574	107,584
166,706	-13,013	235,364	107,556
167,721	-12,933	235,221	107,544
168,735	-12,937	235,020	107,440
169,750	-13,289	234,834	107,067
170,764	-13,082	234,709	107,164
171,779	-13,217	234,511	106,957
172,794	-12,920	234,520	107,186
173,808	-13,196	234,092	106,764
174,823	-13,913	233,936	106,118
175,837	-13,770	233,743	106,134
176,852	-13,286	233,653	106,464
177,867	-13,263	233,630	106,462
178,881	-13,203	233,458	106,422
179,896	-12,826	233,295	106,634
180,910	-13,210	233,100	106,234
181,925	-12,987	232,908	106,312
182,940	-13,090	232,856	106,198
183,954	-12,992	232,761	106,222
184,969	-12,963	232,472	106,104
185,983	-12,802	232,287	106,135
186,998	-13,051	232,188	105,886
188,013	-13,069	232,041	105,796
189,027	-12,965	231,840	105,776
190,042	-12,781	231,696	105,844
191,056	-12,937	231,639	105,687
192,071	-12,915	231,344	105,560
193,086	-12,981	231,236	105,450
194,100	-13,090	231,172	105,326
195,115	-13,659	230,719	104,669
196,129	-13,247	230,919	105,070
197,144	-7,896	232,569	109,992
198,159	-2,332	234,084	115,063
199,173	1,869	235,595	119,102
200,188	3,003	235,638	120,004
201,202	2,845	235,402	119,749
202,217	3,031	235,066	119,713
203,232	2,994	235,094	119,688
204,246	3,126	234,876	119,670
205,261	3,176	234,992	119,757
206,275	3,420	234,811	119,845
207,290	3,187	234,751	119,621
208,304	3,230	234,481	119,507
209,319	3,244	234,183	119,355
210,334	3,050	234,139	119,171
211,348	3,025	233,902	119,021
212,363	2,738	233,542	118,603
213,377	2,400	233,368	118,242
214,392	2,448	233,230	118,198
215,407	2,665	233,019	118,250
216,421	2,579	233,065	118,196
217,436	2,750	232,778	118,172
218,450	2,391	232,651	117,819
219,465	2,066	232,468	117,464
220,480	2,275	232,445	117,604
221,494	2,409	232,305	117,626
222,509	2,649	231,973	117,633
223,523	2,705	232,004	117,681
224,538	2,446	231,790	117,362
225,553	2,574	231,576	117,342
226,567	2,623	231,377	117,268
227,582	2,871	231,321	117,421
228,596	3,006	231,118	117,410
229,611	2,746	230,927	117,104
230,626	2,248	230,806	116,650
231,640	2,438	230,637	116,699
232,655	3,047	230,551	117,113
233,669	3,056	230,397	117,031
234,684	3,039	230,501	117,060
235,699	2,800	230,144	116,685
236,713	2,479	230,076	116,395
237,728	2,464	229,707	116,187
238,742	2,480	229,430	116,048
239,757	2,542	229,476	116,108
240,772	2,551	229,245	115,988
241,786	2,449	229,129	115,841
242,801	2,788	228,970	116,009
243,815	3,047	228,912	116,166
244,830	2,876	228,878	116,008
245,844	2,638	228,589	115,670
246,859	2,842	228,444	115,741
247,874	2,781	228,239	115,581
248,888	2,756	228,195	115,530
249,903	2,672	228,127	115,422
250,917	2,404	227,933	115,110
251,932	2,429	227,793	115,048
252,947	2,332	227,547	114,841
253,961	2,271	227,557	114,789
254,976	2,392	227,200	114,690
255,990	2,682	227,173	114,885
257,005	2,675	227,044	114,804
258,020	2,832	226,798	114,788
259,034	2,889	226,758	114,800
260,049	2,863	226,671	114,726
261,063	2,751	226,334	114,462
262,078	3,047	226,332	114,672
263,093	3,157	226,138	114,646
264,107	2,879	225,958	114,336
265,122	2,990	225,817	114,338
266,136	2,984	225,847	114,338
267,151	3,148	225,649	114,350
268,166	2,840	225,377	113,973
269,180	2,180	225,094	113,327
270,195	2,602	224,907	113,537
271,209	2,406	224,796	113,325
272,224	2,578	224,639	113,364
273,239	2,504	224,602	113,280
274,253	2,632	224,459	113,293
275,268	2,510	224,139	113,031
276,282	2,214	224,237	112,850
277,297	2,031	224,039	112,604
278,312	2,628	223,908	112,971
279,326	2,551	223,797	112,848
280,341	2,698	223,667	112,881
281,355	2,481	223,613	112,684
282,370	2,768	223,245	112,700
283,384	2,374	223,186	112,369
284,399	2,403	222,894	112,233
285,414	2,370	222,796	112,150
286,428	2,598	222,755	112,287
287,443	2,841	222,733	112,445
288,457	2,791	222,556	112,309
289,472	2,430	222,337	111,922
290,487	2,148	222,045	111,559
291,501	2,163	221,898	111,486
292,516	1,946	221,884	111,310
293,530	2,234	221,704	111,420
294,545	2,086	221,635	111,268
295,560	2,372	221,478	111,389
296,574	2,484	221,404	111,423
297,589	2,581	221,112	111,338
298,603	2,751	221,038	111,415
299,618	2,483	220,986	111,183
300,633	2,624	220,774	111,168
301,647	3,079	220,639	111,422
302,662	2,848	220,679	111,264
303,676	2,774	220,450	111,085
304,691	2,871	220,363	111,102
305,706	2,617	220,292	110,871
306,720	2,768	220,101	110,875
307,735	2,714	219,737	110,643
308,749	2,478	219,625	110,406
309,764	2,703	219,524	110,508
310,779	3,029	219,342	110,642
311,793	2,770	219,284	110,416
312,808	2,954	219,052	110,422
313,822	2,667	218,988	110,172
314,837	2,483	218,848	109,959
315,852	2,351	218,540	109,699
316,866	2,524	218,582	109,836
317,881	2,757	218,409	109,907
318,895	2,728	218,237	109,790
319,910	2,526	218,060	109,546
320,925	2,312	217,729	109,216
321,939	1,749	217,643	108,759
322,954	2,197	217,593	109,046
323,968	2,676	217,569	109,367
324,983	2,765	217,433	109,353
325,997	2,904	217,412	109,433
327,012	2,711	217,319	109,237
328,027	2,524	217,068	108,968
329,041	3,081	217,021	109,333
330,056	3,028	216,928	109,238
331,070	2,956	216,476	108,950
332,085	2,386	216,486	108,538
333,100	2,729	216,302	108,682
334,114	2,794	216,144	108,638
335,129	2,667	216,073	108,503
336,143	2,471	215,902	108,267
337,158	2,363	215,663	108,061
338,173	2,425	215,466	107,997
339,187	2,337	215,422	107,903
340,202	2,462	215,367	107,955
341,216	2,657	215,264	108,031
342,231	2,765	214,990	107,961
343,246	2,606	214,898	107,792
344,260	2,778	214,814	107,863
345,275	2,868	214,769	107,893
346,289	2,668	214,653	107,684
347,304	2,677	214,437	107,573
348,319	2,474	214,326	107,364
349,333	2,677	214,181	107,425
350,348	2,754	213,987	107,373
351,362	2,757	214,028	107,385
352,377	2,984	213,815	107,429
353,392	2,627	213,680	107,100
354,406	2,856	213,466	107,145
355,421	197,317	1314,158	1392,885
356,435	157,881	1448,198	1392,826
