DTS Sentinel unit serial number:	SN410029Multiplexer serial number:	ORYXHardware model number:	OX2-SRSoftware version number:	ORYX F/W v4,00 Oryx Data Collector v3.7.2.0data status	okinstallation	B6 Nyhavnadifferential loss correction	single-endedforward channel	channel 2reverse channel	N/Adate	2023/12/09time	17:10:08forward acquisition time	300,00reverse acquisition time	0,00gamma	499,1914k internal	0,3130k external	0,3130temperature offset calibration	1,0000default loss term (dB/km)	0,3820temperature slope calibration	1,0000multiplexer offset coefficient	1,0000multiplexer slope coefficient	1,0000fibre end	0,00T internal ref (°C)	20,96T ext. ref 1 (°C)	4,70T ext. ref 2 (°C)	4,69length (m)	temperature (°C)	Stokes	anti-Stokes-744,400	-200,000	0,021	-0,140
-743,385	-0,966	-0,214	-0,112
-742,371	155,006	0,039	0,040
-741,356	-26,719	-0,230	0,100
-740,342	-53,637	0,144	0,049
-739,327	-107,678	-0,297	-0,048
-738,312	-200,000	0,016	-0,073
-737,298	-97,944	-0,278	0,053
-736,283	-132,435	0,094	-0,009
-735,269	-8,311	-0,169	0,084
-734,254	174,603	0,002	-0,003
-733,239	-5,790	-0,365	-0,185
-732,225	-157,004	0,091	-0,004
-731,210	800,000	0,049	0,126
-730,196	-200,000	-0,015	-0,109
-729,181	800,000	-0,060	-0,129
-728,167	-200,000	0,008	0,055
-727,152	51,532	0,102	-0,072
-726,137	-200,000	-0,056	-0,191
-725,123	800,000	-0,010	-0,031
-724,108	-200,000	-0,018	-0,138
-723,094	432,336	-0,063	-0,102
-722,079	333,639	-0,069	-0,100
-721,064	406,334	-0,054	-0,085
-720,050	-7,733	-0,102	-0,051
-719,035	-54,333	0,026	0,009
-718,021	-151,660	-0,139	0,007
-717,006	37,046	-0,051	-0,033
-715,991	2,221	-0,118	-0,063
-714,977	257,898	-0,058	-0,075
-713,962	-200,000	0,014	-0,197
-712,948	-200,000	-0,002	0,027
-711,933	-83,505	0,025	-0,006
-710,918	-200,000	-0,002	-0,012
-709,904	-157,535	-0,083	-0,004
-708,889	95,040	0,018	-0,015
-707,875	-181,119	0,114	0,002
-706,860	54,836	-0,031	0,022
-705,845	-123,363	-0,043	-0,005
-704,831	-19,525	-0,017	-0,008
-703,816	86,098	-0,082	0,067
-702,802	800,000	-0,023	0,058
-701,787	-114,786	-0,087	-0,012
-700,772	-59,539	-0,093	0,030
-699,758	-38,815	-0,079	-0,031
-698,743	-85,001	0,139	0,032
-697,729	-200,000	0,007	-0,091
-696,714	-99,150	0,051	0,009
-695,699	-200,000	-0,015	-0,102
-694,685	-84,713	-0,124	-0,029
-693,670	-200,000	0,011	-0,042
-692,656	800,000	0,064	-0,197
-691,641	-200,000	0,021	0,114
-690,627	-91,374	-0,050	-0,011
-689,612	65,156	-0,067	0,050
-688,597	250,533	-0,019	-0,024
-687,583	737,533	0,033	-0,066
-686,568	-200,000	0,014	0,046
-685,554	-200,000	0,003	0,017
-684,539	-150,581	0,023	-0,001
-683,524	-111,869	0,060	0,009
-682,510	-12,851	-0,027	-0,013
-681,495	-114,874	0,035	0,005
-680,481	93,147	-0,036	0,030
-679,466	-131,884	-0,119	0,011
-678,451	45,618	-0,070	-0,048
-677,437	-75,012	-0,102	-0,027
-676,422	-97,657	-0,054	-0,010
-675,408	599,350	0,072	-0,133
-674,393	773,751	-0,026	-0,052
-673,378	352,133	0,048	0,071
-672,364	362,827	-0,006	-0,009
-671,349	299,097	0,067	0,092
-670,335	-48,308	0,036	0,013
-669,320	-128,424	-0,153	0,016
-668,305	-200,000	0,013	0,115
-667,291	695,930	-0,035	-0,069
-666,276	-11,139	0,015	0,007
-665,262	-38,238	0,073	-0,028
-664,247	201,458	-0,045	-0,051
-663,232	-65,967	0,038	-0,011
-662,218	668,279	-0,036	0,069
-661,203	-47,006	-0,027	0,010
-660,189	-200,000	0,042	0,153
-659,174	57,590	0,088	-0,063
-658,159	-146,360	-0,017	-0,001
-657,145	238,966	0,049	-0,061
-656,130	-65,475	0,168	-0,050
-655,116	234,488	-0,042	0,051
-654,101	24,066	-0,196	-0,120
-653,086	-57,981	0,086	0,028
-652,072	256,123	0,072	-0,091
-651,057	-34,032	-0,151	-0,061
-650,043	-200,000	-0,004	0,055
-649,028	-200,000	-0,037	-0,151
-648,014	-10,551	0,126	-0,062
-646,999	-8,131	0,048	0,024
-645,984	10,541	0,098	-0,055
-644,970	52,892	0,095	-0,067
-643,955	-200,000	0,003	-0,190
-642,941	89,005	-0,084	-0,070
-641,926	198,230	0,032	-0,036
-640,911	208,263	-0,058	-0,067
-639,897	56,060	-0,089	0,064
-638,882	1,571	0,075	0,040
-637,868	-44,717	-0,157	0,058
-636,853	255,140	-0,055	0,070
-635,838	315,286	-0,035	0,048
-634,824	-27,495	-0,071	-0,030
-633,809	41,201	0,050	0,033
-632,795	630,885	-0,050	0,095
-631,780	210,003	0,020	-0,024
-630,765	800,000	0,035	-0,076
-629,751	57,764	-0,089	-0,064
-628,736	525,939	-0,060	-0,105
-627,722	197,054	0,053	-0,060
-626,707	800,000	-0,049	-0,132
-625,692	-200,000	-0,026	0,111
-624,678	800,000	-0,040	-0,106
-623,663	5,721	-0,026	-0,014
-622,649	44,276	-0,050	0,034
-621,634	-40,899	-0,103	0,039
-620,619	21,543	0,060	-0,036
-619,605	-118,648	-0,044	-0,006
-618,590	-200,000	0,011	-0,104
-617,576	-200,000	0,008	-0,108
-616,561	800,000	0,031	0,079
-615,546	-107,165	0,007	0,001
-614,532	800,000	-0,035	-0,099
-613,517	-200,000	0,014	-0,053
-612,503	-200,000	0,029	0,106
-611,488	-200,000	-0,002	0,079
-610,474	800,000	0,018	0,041
-609,459	-200,000	-0,009	0,136
-608,444	-154,755	0,044	-0,002
-607,430	161,440	0,017	0,017
-606,415	203,269	-0,112	-0,128
-605,401	9,280	-0,129	-0,072
-604,386	312,605	-0,035	-0,049
-603,371	-12,034	0,155	0,075
-602,357	63,591	-0,020	-0,015
-601,342	800,000	-0,034	-0,098
-600,328	-141,866	-0,080	0,006
-599,313	444,271	-0,015	-0,024
-598,298	49,897	0,106	-0,074
-597,284	800,000	0,059	0,134
-596,269	800,000	-0,037	0,108
-595,255	171,218	-0,030	0,032
-594,240	-98,807	0,032	-0,006
-593,225	393,236	0,030	-0,047
-592,211	23,395	-0,110	0,067
-591,196	36,565	0,038	0,024
-590,182	31,344	0,036	0,023
-589,167	-25,008	-0,134	0,058
-588,152	800,000	0,036	0,092
-587,138	-200,000	0,005	0,052
-586,123	-200,000	0,005	0,076
-585,109	-200,000	0,030	-0,145
-584,094	645,638	-0,007	-0,012
-583,079	256,877	-0,012	0,016
-582,065	442,189	0,113	0,184
-581,050	-200,000	0,006	-0,083
-580,036	278,154	-0,051	-0,068
-579,021	-200,000	0,018	0,135
-578,006	-200,000	-0,077	-0,288
-576,992	-200,000	0,029	-0,099
-575,977	38,016	0,026	-0,017
-574,963	227,774	0,079	0,095
-573,948	-200,000	-0,019	0,138
-572,934	-52,518	0,031	0,010
-571,919	761,509	-0,054	-0,108
-570,904	-174,417	0,053	-0,001
-569,890	800,000	0,088	-0,203
-568,875	-73,577	0,069	-0,018
-567,861	-156,471	-0,114	-0,005
-566,846	-162,031	0,118	0,004
-565,831	-113,389	0,036	0,005
-564,817	204,980	-0,064	-0,073
-563,802	237,087	0,068	-0,083
-562,788	-200,000	-0,010	0,041
-561,773	-200,000	0,015	-0,061
-560,758	644,026	0,067	0,126
-559,744	31,169	0,039	-0,025
-558,729	17,762	-0,029	0,017
-557,715	125,178	-0,115	-0,107
-556,700	56,274	-0,076	-0,054
-555,685	-70,145	-0,086	0,024
-554,671	-105,799	0,176	-0,029
-553,656	486,272	0,056	0,095
-552,642	377,605	0,116	0,175
-551,627	328,186	0,009	-0,013
-550,612	800,000	-0,012	-0,028
-549,598	193,907	0,073	-0,082
-548,583	-103,352	-0,103	-0,018
-547,569	34,433	-0,120	-0,077
-546,554	44,142	0,187	-0,126
-545,539	-81,667	-0,136	0,033
-544,525	800,000	0,038	0,082
-543,510	272,067	0,025	-0,033
-542,496	-200,000	-0,050	-0,187
-541,481	-15,968	-0,123	-0,058
-540,466	251,922	-0,046	0,058
-539,452	107,145	0,048	0,042
-538,437	159,529	0,073	0,075
-537,423	484,420	-0,032	0,054
-536,408	-200,000	0,036	0,124
-535,393	-43,031	-0,103	0,038
-534,379	32,107	-0,173	0,110
-533,364	-200,000	-0,018	0,145
-532,350	-49,711	0,038	0,013
-531,335	-200,000	0,015	0,201
-530,321	526,982	0,037	0,064
-529,306	148,694	-0,052	-0,052
-528,291	-90,774	0,040	0,008
-527,277	-200,000	0,004	-0,017
-526,262	800,000	0,011	-0,035
-525,248	398,380	0,021	-0,032
-524,233	110,982	0,057	0,051
-523,218	-114,703	0,116	0,016
-522,204	-200,000	-0,009	0,094
-521,189	800,000	-0,032	-0,079
-520,175	-100,926	-0,059	0,011
-519,160	141,234	-0,073	-0,071
-518,145	411,628	-0,104	0,163
-517,131	-200,000	-0,018	0,083
-516,116	-40,942	-0,074	-0,028
-515,102	-200,000	0,005	-0,033
-514,087	16,442	-0,020	0,011
-513,072	7,830	-0,082	-0,045
-512,058	-200,000	0,010	-0,105
-511,043	-120,553	0,048	-0,006
-510,029	-200,000	0,040	-0,192
-509,014	187,133	-0,053	-0,058
-507,999	800,000	-0,040	-0,121
-506,985	578,872	0,028	0,050
-505,970	-200,000	-0,004	0,019
-504,956	68,389	-0,099	-0,075
-503,941	324,187	0,066	0,094
-502,926	41,563	0,035	-0,024
-501,912	-89,966	-0,085	-0,018
-500,897	-200,000	-0,001	0,075
-499,883	117,461	-0,026	0,024
-498,868	558,917	-0,055	0,098
-497,853	-13,776	-0,090	-0,043
-496,839	800,000	-0,027	0,086
-495,824	51,473	-0,066	0,046
-494,810	-131,664	0,157	-0,015
-493,795	75,709	0,087	0,068
-492,781	147,957	0,021	-0,021
-491,766	-27,584	-0,072	0,031
-490,751	800,000	-0,037	-0,104
-489,737	99,141	-0,023	0,020
-488,722	544,391	-0,044	0,077
-487,708	-108,066	0,063	0,010
-486,693	800,000	0,024	0,071
-485,678	193,806	-0,045	-0,050
-484,664	390,274	-0,025	0,038
-483,649	622,427	0,027	0,051
-482,635	-55,089	-0,084	0,028
-481,620	-200,000	-0,003	-0,025
-480,605	-200,000	-0,003	-0,011
-479,591	16,539	0,094	-0,054
-478,576	400,076	0,028	-0,043
-477,562	-200,000	0,018	-0,168
-476,547	40,224	-0,025	0,017
-475,532	299,921	-0,027	-0,037
-474,518	72,710	-0,031	-0,024
-473,503	-134,646	0,105	0,009
-472,489	-86,871	-0,047	-0,010
-471,474	-114,479	-0,094	-0,013
-470,459	-200,000	-0,015	0,142
-469,445	230,030	0,083	-0,100
-468,430	3,727	0,088	-0,047
-467,416	-62,444	0,090	0,027
-466,401	300,748	0,053	0,073
-465,386	-5,427	0,055	0,028
-464,372	20,095	-0,069	-0,041
-463,357	168,320	-0,063	0,066
-462,343	36,362	0,061	-0,039
-461,328	-200,000	-0,010	-0,131
-460,313	691,432	0,055	0,106
-459,299	57,504	-0,023	0,016
-458,284	800,000	0,047	0,121
-457,270	800,000	0,037	0,076
-456,255	150,536	0,051	-0,051
-455,241	-136,325	-0,120	0,010
-454,226	-200,000	0,008	-0,079
-453,211	782,667	0,029	0,058
-452,197	800,000	-0,028	0,072
-451,182	770,376	-0,068	0,137
-450,168	-200,000	0,001	-0,081
-449,153	-200,000	0,010	-0,076
-448,138	-163,584	0,080	0,003
-447,124	90,529	0,041	0,034
-446,109	-200,000	-0,023	-0,079
-445,095	475,214	0,074	0,123
-444,080	-171,294	0,042	0,001
-443,065	-200,000	0,036	0,132
-442,051	-200,000	0,009	0,086
-441,036	-42,584	-0,076	0,028
-440,022	132,058	-0,068	0,065
-439,007	171,146	-0,076	-0,080
-437,992	-200,000	0,015	-0,079
-436,978	800,000	-0,047	0,114
-435,963	-63,151	0,058	0,018
-434,949	-200,000	0,001	-0,011
-433,934	-49,293	0,096	-0,033
-432,919	-49,959	-0,033	0,011
-431,905	154,093	-0,047	-0,048
-430,890	-96,660	0,080	-0,015
-429,876	-7,589	0,049	-0,024
-428,861	365,709	0,081	-0,120
-427,846	-189,081	-0,072	-0,001
-426,832	152,547	0,049	-0,049
-425,817	25,101	-0,072	-0,044
-424,803	800,000	0,044	-0,102
-423,788	-6,765	0,157	0,078
-422,773	800,000	0,020	0,043
-421,759	-11,326	-0,058	-0,028
-420,744	26,517	-0,103	-0,063
-419,730	35,882	0,119	-0,077
-418,715	-137,424	0,077	-0,006
-417,701	-164,731	0,072	-0,002
-416,686	193,719	0,066	0,073
-415,671	266,268	0,122	0,156
-414,657	800,000	0,030	0,076
-413,642	-76,150	0,185	0,048
-412,628	-200,000	-0,004	-0,050
-411,613	-71,326	0,086	0,024
-410,598	-66,379	0,031	0,009
-409,584	-123,773	-0,066	-0,008
-408,569	-45,379	0,154	-0,056
-407,555	-128,171	-0,066	-0,007
-406,540	-33,358	0,083	-0,034
-405,525	-43,455	0,029	-0,011
-404,511	-200,000	0,000	-0,094
-403,496	-200,000	0,007	0,042
-402,482	396,193	-0,020	0,031
-401,467	-200,000	-0,025	0,091
-400,452	-62,093	0,047	0,014
-399,438	71,534	0,063	0,048
-398,423	129,212	-0,092	-0,086
-397,409	188,429	0,025	0,027
-396,394	252,276	-0,043	-0,054
-395,379	800,000	-0,063	0,136
-394,365	-200,000	0,028	0,092
-393,350	-27,121	-0,090	0,038
-392,336	-119,913	-0,059	-0,007
-391,321	-200,000	-0,003	0,111
-390,306	-108,032	0,116	0,018
-389,292	16,244	0,050	-0,029
-388,277	-105,873	0,116	-0,019
-387,263	-159,225	0,030	0,001
-386,248	57,463	0,059	-0,042
-385,233	39,431	0,055	-0,036
-384,219	293,366	0,010	0,013
-383,204	67,211	-0,125	-0,093
-382,190	389,465	0,025	-0,038
-381,175	-52,748	-0,103	-0,035
-380,160	302,131	-0,071	0,096
-379,146	-135,954	0,033	0,003
-378,131	200,099	-0,089	0,101
-377,117	-43,661	-0,072	-0,027
-376,102	800,000	-0,044	-0,110
-375,088	97,178	-0,060	0,050
-374,073	545,970	-0,045	0,079
-373,058	114,990	0,010	-0,009
-372,044	-41,228	-0,065	-0,024
-371,029	800,000	0,017	-0,039
-370,015	-22,792	0,142	0,063
-369,000	-200,000	0,032	-0,141
-367,985	-200,000	0,011	-0,062
-366,971	-78,012	-0,052	0,013
-365,956	100,840	0,092	0,078
-364,942	-200,000	0,027	0,111
-363,927	439,463	-0,051	-0,081
-362,912	-200,000	-0,009	-0,035
-361,898	-42,337	-0,045	-0,017
-360,883	-1,694	-0,149	-0,077
-359,869	192,324	0,048	-0,053
-358,854	-200,000	0,022	0,205
-357,839	-200,000	-0,009	0,065
-356,825	-122,366	0,202	0,024
-355,810	198,667	-0,081	-0,091
-354,796	800,000	0,012	0,028
-353,781	-200,000	0,002	-0,027
-352,766	-170,986	0,010	0,000
-351,752	375,993	0,033	-0,049
-350,737	-91,258	-0,117	0,024
-349,723	800,000	0,049	0,101
-348,708	29,439	-0,068	-0,042
-347,693	251,593	-0,038	0,047
-346,679	-200,000	-0,011	-0,073
-345,664	-33,421	-0,046	-0,019
-344,650	7,994	-0,046	0,025
-343,635	-200,000	-0,027	0,091
-342,620	-98,632	0,076	-0,014
-341,606	-200,000	0,020	0,117
-340,591	-200,000	0,001	0,022
-339,577	136,035	-0,110	-0,105
-338,562	800,000	0,028	-0,074
-337,548	-120,092	0,016	0,002
-336,533	-73,587	0,159	-0,042
-335,518	-11,282	-0,055	0,026
-334,504	-200,000	0,000	0,011
-333,489	-128,239	-0,129	0,013
-332,475	-46,685	0,043	0,015
-331,460	-200,000	0,024	-0,089
-330,445	-101,687	0,062	-0,011
-329,431	-52,800	-0,105	-0,035
-328,416	293,226	0,040	-0,053
-327,402	-200,000	0,014	0,121
-326,387	-200,000	-0,037	0,205
-325,372	800,000	-0,005	-0,010
-324,358	-200,000	-0,007	-0,038
-323,343	800,000	0,009	0,026
-322,329	56,368	0,082	-0,058
-321,314	800,000	-0,015	-0,047
-320,299	-200,000	-0,013	0,099
-319,285	-164,732	-0,124	-0,004
-318,270	-152,449	-0,112	-0,006
-317,256	-200,000	-0,001	-0,064
-316,241	66,028	0,078	0,058
-315,226	407,885	0,029	0,045
-314,212	-200,000	0,004	-0,063
-313,197	-200,000	0,010	-0,036
-312,183	752,225	0,072	0,144
-311,168	33,269	-0,043	-0,027
-310,153	347,072	-0,067	0,097
-309,139	179,109	-0,060	-0,065
-308,124	-200,000	-0,006	0,078
-307,110	-78,322	0,182	0,045
-306,095	-117,568	0,088	-0,012
-305,080	195,723	-0,078	-0,087
-304,066	368,153	-0,037	0,056
-303,051	-111,406	-0,032	0,005
-302,037	-200,000	-0,011	0,087
-301,022	800,000	-0,016	-0,049
-300,008	-39,065	0,048	0,018
-298,993	1,687	0,040	0,021
-297,978	-170,201	-0,091	0,002
-296,964	55,891	-0,032	-0,022
-295,949	-200,000	0,001	0,030
-294,935	-87,749	-0,090	-0,020
-293,920	-200,000	-0,001	-0,034
-292,905	-200,000	0,028	0,233
-291,891	324,169	0,069	0,096
-290,876	-200,000	0,009	0,032
-289,862	-40,381	0,081	-0,031
-288,847	-25,194	0,061	-0,026
-287,832	800,000	0,060	-0,167
-286,818	309,547	0,062	0,085
-285,803	800,000	-0,047	0,130
-284,789	-200,000	-0,005	0,101
-283,774	-200,000	-0,026	0,111
-282,759	701,113	-0,046	-0,089
-281,745	85,894	-0,157	-0,126
-280,730	-180,396	0,167	0,002
-279,716	-1,638	0,065	-0,033
-278,701	216,087	0,064	-0,075
-277,686	800,000	0,013	-0,039
-276,672	-137,292	-0,053	-0,004
-275,657	-70,297	-0,153	-0,042
-274,643	-25,946	-0,002	-0,001
-273,628	-148,133	0,150	-0,009
-272,613	-133,569	-0,014	0,001
-271,599	-200,000	-0,000	-0,086
-270,584	-110,454	0,131	0,020
-269,570	-200,000	-0,025	-0,092
-268,555	181,781	0,045	-0,049
-267,540	392,831	-0,005	-0,008
-266,526	-200,000	-0,001	-0,018
-265,511	-200,000	-0,008	0,161
-264,497	-200,000	0,021	0,147
-263,482	-44,718	0,088	0,032
-262,467	142,018	0,090	0,087
-261,453	-200,000	-0,021	0,103
-260,438	-2,979	-0,087	-0,044
-259,424	-200,000	-0,018	-0,096
-258,409	149,850	0,194	-0,192
-257,395	119,748	-0,060	0,054
-256,380	68,127	0,150	0,112
-255,365	800,000	-0,057	0,129
-254,351	800,000	-0,028	-0,082
-253,336	-159,219	-0,065	0,003
-252,322	-4,580	-0,042	-0,021
-251,307	693,668	0,027	-0,051
-250,292	-200,000	-0,005	0,056
-249,278	-46,343	0,107	0,038
-248,263	-200,000	-0,011	-0,038
-247,249	99,368	0,151	0,128
-246,234	800,000	-0,024	-0,067
-245,219	800,000	0,043	-0,131
-244,205	-200,000	0,013	0,086
-243,190	-200,000	-0,000	0,042
-242,176	800,000	0,021	0,046
-241,161	-200,000	0,006	-0,111
-240,146	800,000	-0,029	0,077
-239,132	-20,254	-0,050	0,022
-238,117	408,327	0,065	-0,101
-237,103	415,767	0,038	-0,059
-236,088	-20,280	-0,115	0,051
-235,073	800,000	0,054	0,144
-234,059	73,653	-0,022	0,017
-233,044	459,155	0,020	-0,033
-232,030	76,012	0,076	-0,058
-231,015	-200,000	-0,014	-0,062
-230,000	479,102	-0,049	0,081
-228,986	153,063	-0,015	-0,015
-227,971	-200,000	0,015	0,086
-226,957	237,428	0,032	0,039
-225,942	-200,000	-0,005	0,036
-224,927	-200,000	-0,000	-0,062
-223,913	255,803	-0,179	-0,224
-222,898	14,547	0,081	-0,046
-221,884	-200,000	0,004	-0,020
-220,869	754,722	-0,018	-0,035
-219,855	-115,040	0,101	0,014
-218,840	409,499	0,046	0,071
-217,825	712,941	-0,013	0,025
-216,811	800,000	-0,016	0,041
-215,796	-125,354	-0,043	0,005
-214,782	59,119	-0,053	-0,038
-213,767	-200,000	0,010	-0,143
-212,752	-0,101	0,105	0,054
-211,738	-200,000	0,025	-0,108
-210,723	195,944	0,029	0,032
-209,709	163,360	0,064	-0,066
-208,694	270,058	0,019	-0,024
-207,679	800,000	0,044	0,117
-206,665	-73,600	-0,052	-0,014
-205,650	800,000	-0,056	0,174
-204,636	24,324	-0,153	-0,092
-203,621	-200,000	0,038	-0,169
-202,606	10,590	0,069	0,038
-201,592	716,098	-0,075	-0,146
-200,577	800,000	-0,032	0,068
-199,563	137,738	-0,027	-0,026
-198,548	-20,275	-0,075	0,034
-197,533	-200,000	0,020	0,084
-196,519	-5,765	-0,080	-0,040
-195,504	452,973	-0,070	-0,114
-194,490	-200,000	-0,017	-0,105
-193,475	-200,000	-0,009	-0,162
-192,460	800,000	0,047	-0,100
-191,446	85,491	-0,024	0,019
-190,431	800,000	-0,009	0,021
-189,417	-113,613	-0,197	-0,028
-188,402	800,000	-0,052	0,134
-187,387	389,473	-0,059	0,090
-186,373	800,000	-0,064	-0,146
-185,358	-200,000	0,025	0,101
-184,344	800,000	0,043	0,120
-183,329	-120,796	0,030	-0,004
-182,315	9,399	-0,058	-0,032
-181,300	513,333	0,058	-0,098
-180,285	-35,874	-0,094	0,037
-179,271	361,620	0,011	0,016
-178,256	800,000	-0,050	-0,122
-177,242	-71,398	-0,103	0,028
-176,227	401,510	0,048	0,073
-175,212	-106,491	-0,177	0,028
-174,198	-77,248	0,110	-0,028
-173,183	-17,905	-0,126	-0,057
-172,169	35,564	-0,064	-0,041
-171,154	101,485	-0,046	0,039
-170,139	-172,946	0,141	-0,003
-169,125	68,291	-0,048	-0,036
-168,110	-200,000	0,017	0,058
-167,096	-200,000	-0,016	0,078
-166,081	-200,000	-0,001	-0,069
-165,066	-200,000	-0,009	-0,032
-164,052	155,450	0,053	-0,053
-163,037	419,746	0,039	0,061
-162,023	52,321	0,105	0,073
-161,008	800,000	0,054	0,122
-159,993	16,676	-0,055	-0,031
-158,979	174,767	-0,029	0,031
-157,964	-97,150	-0,021	-0,004
-156,950	800,000	-0,035	-0,094
-155,935	-150,754	-0,125	-0,007
-154,920	56,927	-0,044	0,031
-153,906	206,601	0,054	-0,061
-152,891	-200,000	0,038	-0,128
-151,877	35,236	-0,082	0,052
-150,862	521,220	0,059	0,102
-149,847	-200,000	-0,010	-0,080
-148,833	33,949	0,049	-0,031
-147,818	185,979	-0,035	-0,038
-146,804	43,991	0,110	0,073
-145,789	346,924	0,010	0,014
-144,775	-30,113	-0,115	0,047
-143,760	800,000	-0,017	-0,053
-142,745	-118,964	-0,168	0,021
-141,731	-200,000	-0,011	-0,042
-140,716	-87,463	0,109	0,024
-139,702	-200,000	-0,001	-0,064
-138,687	-178,248	-0,014	-0,000
-137,672	-125,678	-0,065	0,007
-136,658	-200,000	-0,009	-0,109
-135,643	181,391	0,032	-0,035
-134,629	-82,792	-0,057	0,013
-133,614	-38,830	0,137	0,052
-132,599	-200,000	0,010	0,089
-131,585	800,000	0,013	-0,032
-130,570	142,122	-0,130	0,125
-129,556	356,919	-0,098	-0,142
-128,541	-200,000	-0,010	-0,072
-127,526	99,772	0,048	0,040
-126,512	-36,959	0,100	0,039
-125,497	274,449	0,049	0,063
-124,483	-200,000	-0,003	0,064
-123,468	-200,000	0,004	0,033
-122,453	-200,000	-0,019	0,096
-121,439	-116,644	-0,068	0,009
-120,424	4,214	-0,094	0,050
-119,410	-132,871	0,177	0,016
-118,395	-40,622	-0,118	-0,044
-117,380	-200,000	0,009	0,034
-116,366	406,510	-0,015	-0,023
-115,351	86,519	-0,042	-0,033
-114,337	-3,117	-0,020	-0,010
-113,322	671,485	-0,043	0,082
-112,307	-51,525	-0,059	-0,020
-111,293	82,310	-0,033	-0,026
-110,278	-88,125	-0,026	-0,006
-109,264	-144,350	0,011	-0,001
-108,249	-200,000	-0,016	-0,056
-107,234	-200,000	0,004	-0,049
-106,220	135,991	-0,104	-0,098
-105,205	-43,393	-0,062	-0,023
-104,191	-200,000	-0,005	0,034
-103,176	-131,169	-0,022	-0,002
-102,162	800,000	-0,051	0,104
-101,147	17,055	-0,089	-0,051
-100,132	272,830	-0,141	-0,181
-99,118	-200,000	0,010	0,034
-98,103	-66,580	-0,074	0,021
-97,089	163,468	-0,061	-0,063
-96,074	-20,897	0,040	0,018
-95,059	-200,000	0,055	0,206
-94,045	-200,000	0,004	-0,022
-93,030	51,488	0,058	-0,040
-92,016	800,000	-0,020	0,041
-91,001	800,000	-0,033	0,089
-89,986	-25,419	0,026	-0,011
-88,972	185,060	0,115	0,123
-87,957	-46,384	-0,085	0,030
-86,943	-200,000	-0,005	0,060
-85,928	62,156	-0,043	0,031
-84,913	329,035	-0,060	-0,083
-83,899	394,757	0,037	0,057
-82,884	15,366	0,097	-0,055
-81,870	-82,586	-0,093	0,022
-80,855	325,385	0,042	0,058
-79,840	-108,104	-0,070	-0,011
-78,826	-200,000	0,013	-0,051
-77,811	-123,374	-0,028	0,003
-76,797	800,000	-0,050	-0,160
-75,782	101,571	0,043	-0,036
-74,767	-46,611	-0,158	0,056
-73,753	-200,000	-0,011	-0,112
-72,738	173,725	-0,058	0,061
-71,724	-107,288	-0,134	-0,021
-70,709	800,000	-0,024	0,070
-69,694	-200,000	-0,020	-0,113
-68,680	53,239	0,078	0,054
-67,665	131,207	-0,116	0,108
-66,651	-35,009	0,042	-0,016
-65,636	-157,340	0,080	0,003
-64,622	800,000	0,049	-0,104
-63,607	800,000	-0,033	-0,093
-62,592	235,326	-0,078	-0,094
-61,578	800,000	-0,048	-0,113
-60,563	-200,000	-0,010	0,081
-59,549	54,852	0,131	-0,092
-58,534	-63,476	-1,484	-0,439
-57,519	760,199	-0,719	-1,418
-56,505	-200,000	-1,019	-4,498
-55,490	-162,210	0,732	0,026
-54,476	800,000	5,004	11,778
-53,461	-200,000	14,545	260,341
-52,446	-200,000	696,317	2236,069
-51,432	565,092	1622,386	2858,272
-50,417	117,780	1630,158	1452,877
-49,403	74,780	1284,228	977,431
-48,388	37,361	1022,688	654,759
-47,373	23,171	981,887	582,034
-46,359	22,273	971,253	572,768
-45,344	21,213	966,741	566,625
-44,330	21,151	965,450	565,642
-43,315	21,050	963,776	564,312
-42,300	21,041	962,864	563,725
-41,286	21,022	961,898	563,076
-40,271	20,979	960,971	562,372
-39,257	20,913	960,247	561,712
-38,242	21,004	958,993	561,250
-37,227	20,958	958,202	560,617
-36,213	20,948	957,393	560,088
-35,198	20,911	956,452	559,396
-34,184	20,983	955,802	559,225
-33,169	20,952	954,678	558,447
-32,154	21,055	953,863	558,279
-31,140	20,980	953,007	557,515
-30,125	21,013	952,339	557,210
-29,111	20,936	951,779	556,613
-28,096	21,011	950,693	556,195
-27,082	20,979	950,228	555,797
-26,067	21,064	949,292	555,501
-25,052	21,011	948,563	554,882
-24,038	20,977	947,871	554,346
-23,023	21,032	947,207	554,112
-22,009	21,047	946,753	553,872
-20,994	21,052	946,197	553,542
-19,979	21,040	945,517	553,084
-18,965	21,022	944,919	552,653
-17,950	21,036	944,195	552,253
-16,936	20,953	943,743	551,703
-15,921	20,914	942,920	551,075
-14,906	20,834	942,296	550,433
-13,892	20,909	941,494	550,185
-12,877	20,912	940,900	549,823
-11,863	20,818	940,469	549,250
-10,848	20,887	939,846	549,085
-9,833	20,974	939,280	549,009
-8,819	20,977	938,677	548,644
-7,804	20,953	937,972	548,134
-6,790	20,862	937,550	547,577
-5,775	20,861	936,965	547,209
-4,760	20,845	936,384	546,799
-3,746	20,882	935,643	546,463
-2,731	20,742	935,106	545,684
-1,717	20,773	934,071	545,158
-0,702	20,710	933,786	544,771
0,313	20,506	932,814	544,382
1,327	23,569	931,054	552,924
2,342	32,647	794,141	495,725
3,356	30,139	450,491	277,414
4,371	-0,020	294,166	151,031
5,386	-4,267	275,201	137,261
6,400	-5,609	269,610	133,214
7,415	-5,877	267,218	131,774
8,429	-5,682	266,074	131,377
9,444	-5,740	265,097	130,829
10,459	-5,779	264,708	130,590
11,473	-5,686	263,979	130,304
12,488	-5,789	263,532	129,978
13,502	-5,924	262,978	129,571
14,517	-5,897	262,399	129,298
15,531	-5,910	262,021	129,089
16,546	-5,821	261,822	129,060
17,561	-6,016	261,317	128,623
18,575	-5,919	261,243	128,663
19,590	-5,991	260,711	128,325
20,604	-5,823	260,529	128,375
21,619	-5,802	260,018	128,130
22,634	-5,806	259,788	128,002
23,648	-5,929	259,359	127,670
24,663	-5,910	259,112	127,553
25,677	-5,924	258,955	127,453
26,692	-5,872	258,642	127,333
27,707	-5,808	258,419	127,269
28,721	-6,067	258,151	126,895
29,736	-6,027	257,857	126,775
30,750	-5,924	257,537	126,697
31,765	-5,921	257,284	126,564
32,780	-5,803	257,124	126,579
33,794	-5,958	257,028	126,384
34,809	-5,992	256,729	126,195
35,823	-5,928	256,601	126,177
36,838	-5,982	256,243	125,942
37,853	-6,116	256,012	125,700
38,867	-6,162	255,686	125,488
39,882	-6,125	255,615	125,475
40,896	-5,962	255,407	125,504
41,911	-6,206	255,110	125,133
42,926	-5,968	254,712	125,135
43,940	-6,266	254,636	124,825
44,955	-6,125	254,173	124,711
45,969	-6,318	254,183	124,537
46,984	-6,342	253,745	124,290
47,999	-6,560	253,603	124,019
49,013	-6,647	253,277	123,773
50,028	-6,487	253,114	123,821
51,042	-6,783	252,826	123,413
52,057	-6,838	252,566	123,227
53,071	-6,831	252,390	123,136
54,086	-6,698	252,377	123,234
55,101	-6,598	252,220	123,233
56,115	-6,420	252,017	123,277
57,130	-5,983	252,003	123,636
58,144	-5,580	251,697	123,823
59,159	-5,828	251,620	123,561
60,174	-5,819	251,353	123,426
61,188	-5,945	251,145	123,205
62,203	-5,954	251,024	123,126
63,217	-5,934	250,737	122,992
64,232	-5,745	250,436	122,996
65,247	-5,807	250,358	122,893
66,261	-5,757	249,970	122,735
67,276	-6,243	249,798	122,223
68,290	-6,198	249,494	122,101
69,305	-6,449	249,307	121,785
70,320	-6,360	249,156	121,776
71,334	-6,028	248,957	121,952
72,349	-5,867	248,847	122,024
73,363	-5,916	248,639	121,869
74,378	-5,777	248,545	121,931
75,393	-5,870	248,257	121,699
76,407	-5,931	247,933	121,478
77,422	-5,757	247,752	121,526
78,436	-6,083	247,683	121,204
79,451	-5,884	247,459	121,254
80,466	-6,142	247,307	120,949
81,480	-6,224	246,841	120,641
82,495	-6,429	246,925	120,498
83,509	-6,201	246,550	120,497
84,524	-6,145	246,425	120,472
85,539	-6,362	246,104	120,122
86,553	-6,404	245,904	119,978
87,568	-6,373	245,852	119,968
88,582	-6,146	245,363	119,910
89,597	-6,229	245,322	119,809
90,611	-6,199	245,112	119,721
91,626	-6,000	245,138	119,890
92,641	-6,024	244,984	119,784
93,655	-6,152	244,761	119,557
94,670	-6,120	244,581	119,485
95,684	-6,073	244,377	119,414
96,699	-6,077	244,139	119,284
97,714	-6,119	244,019	119,180
98,728	-6,264	243,870	118,975
99,743	-6,313	243,636	118,810
100,757	-6,303	243,336	118,661
101,772	-6,418	243,296	118,536
102,787	-6,006	242,976	118,711
103,801	-6,207	242,833	118,464
104,816	-6,055	242,754	118,540
105,830	-5,887	242,590	118,590
106,845	-5,941	242,323	118,404
107,860	-5,832	242,142	118,395
108,874	-6,023	241,960	118,137
109,889	-6,012	241,787	118,051
110,903	-5,991	241,533	117,935
111,918	-6,311	241,508	117,647
112,933	-6,115	241,319	117,706
113,947	-6,004	241,072	117,667
114,962	-6,120	240,918	117,486
115,976	-5,916	240,801	117,586
116,991	-6,004	240,472	117,343
118,006	-6,049	240,404	117,262
119,020	-5,931	240,384	117,338
120,035	-5,933	240,106	117,191
121,049	-5,921	239,945	117,112
122,064	-5,912	239,879	117,076
123,079	-5,960	239,576	116,879
124,093	-6,035	239,340	116,692
125,108	-6,202	238,991	116,376
126,122	-6,403	238,944	116,179
127,137	-6,496	238,725	115,986
128,151	-6,487	238,519	115,883
129,166	-6,293	238,357	115,952
130,181	-6,288	238,099	115,819
131,195	-6,261	238,030	115,797
132,210	-5,973	237,801	115,909
133,224	-5,937	237,648	115,853
134,239	-6,055	237,646	115,747
135,254	-5,786	237,350	115,809
136,268	-5,971	237,108	115,532
137,283	-6,146	236,938	115,297
138,297	-6,178	236,611	115,102
139,312	-6,499	236,572	114,814
140,327	-5,993	236,466	115,160
141,341	-5,542	236,369	115,466
142,356	-5,657	236,396	115,376
143,370	-5,390	236,090	115,431
144,385	-5,658	236,046	115,184
145,400	-5,920	236,030	114,955
146,414	-5,860	235,707	114,836
147,429	-5,791	235,438	114,750
148,443	-5,529	235,293	114,879
149,458	-5,560	235,129	114,763
150,473	-5,754	234,959	114,515
151,487	-5,897	234,906	114,365
152,502	-5,741	234,562	114,312
153,516	-5,512	234,381	114,396
154,531	-5,728	234,363	114,205
155,546	-5,678	234,013	114,064
156,560	-5,734	233,951	113,979
157,575	-5,881	233,696	113,728
158,589	-5,866	233,578	113,672
159,604	-5,670	233,508	113,783
160,619	-5,731	233,372	113,658
161,633	-5,623	233,176	113,638
162,648	-5,489	232,864	113,582
163,662	-5,721	232,843	113,379
164,677	-5,689	232,778	113,362
165,692	-5,798	232,588	113,174
166,706	-5,737	232,371	113,105
167,721	-5,603	232,179	113,108
168,735	-5,355	232,071	113,241
169,750	-5,549	231,869	112,979
170,764	-5,810	231,787	112,723
171,779	-5,599	231,713	112,844
172,794	-5,669	231,454	112,653
173,808	-5,875	231,339	112,425
174,823	-6,323	231,004	111,901
175,837	-6,263	230,785	111,832
176,852	-6,073	230,812	111,983
177,867	-5,790	230,758	112,169
178,881	-5,538	230,549	112,255
179,896	-5,564	230,311	112,109
180,910	-5,510	230,247	112,109
181,925	-5,573	230,050	111,954
182,940	-5,745	229,980	111,775
183,954	-5,618	229,783	111,770
184,969	-5,466	229,506	111,743
185,983	-5,293	229,526	111,877
186,998	-5,459	229,374	111,664
188,013	-5,344	229,136	111,627
189,027	-5,616	229,079	111,379
190,042	-5,729	228,902	111,195
191,056	-5,350	228,651	111,357
192,071	-5,453	228,471	111,179
193,086	-5,292	228,332	111,227
194,100	-5,542	228,330	111,022
195,115	-5,794	227,845	110,582
196,129	-6,519	227,585	109,886
197,144	-4,039	228,415	112,196
198,159	0,581	229,640	116,375
199,173	3,339	230,460	118,924
200,188	3,975	230,339	119,345
201,202	3,839	230,158	119,135
202,217	4,086	230,179	119,326
203,232	4,151	230,087	119,319
204,246	4,392	229,795	119,343
205,261	4,449	229,785	119,371
206,275	4,504	229,715	119,367
207,290	4,641	229,568	119,386
208,304	4,686	229,149	119,191
209,319	4,558	229,183	119,099
210,334	4,358	229,023	118,852
211,348	4,143	228,817	118,569
212,363	3,855	228,482	118,164
213,377	3,586	228,276	117,840
214,392	3,708	228,134	117,850
215,407	3,558	227,973	117,642
216,421	3,649	227,835	117,629
217,436	3,734	227,666	117,597
218,450	3,452	227,490	117,279
219,465	3,429	227,280	117,143
220,480	3,277	227,378	117,067
221,494	3,440	227,040	117,006
222,509	3,470	226,956	116,976
223,523	3,700	226,773	117,046
224,538	3,433	226,499	116,691
225,553	3,391	226,587	116,694
226,567	3,738	226,345	116,823
227,582	4,012	226,221	116,957
228,596	3,921	226,177	116,855
229,611	3,560	226,011	116,484
230,626	3,419	225,680	116,196
231,640	3,269	225,553	116,007
232,655	3,955	225,603	116,542
233,669	4,130	225,653	116,691
234,684	4,372	225,296	116,678
235,699	3,944	225,130	116,259
236,713	3,773	224,903	116,002
237,728	3,617	224,781	115,811
238,742	3,581	224,458	115,607
239,757	3,729	224,260	115,606
240,772	3,677	224,259	115,556
241,786	3,433	224,182	115,322
242,801	3,716	224,196	115,532
243,815	4,022	223,998	115,650
244,830	3,902	224,019	115,560
245,844	3,863	223,645	115,328
246,859	3,563	223,519	115,028
247,874	3,760	223,265	115,035
248,888	3,927	223,120	115,074
249,903	3,704	223,001	114,836
250,917	3,727	222,717	114,696
251,932	3,513	222,799	114,568
252,947	3,445	222,582	114,396
253,961	3,669	222,317	114,417
254,976	3,393	222,299	114,192
255,990	3,733	222,166	114,366
257,005	3,750	222,068	114,318
258,020	3,873	221,906	114,316
259,034	4,008	221,865	114,386
260,049	3,819	221,689	114,144
261,063	3,787	221,521	114,023
262,078	4,201	221,294	114,203
263,093	3,929	221,324	114,007
264,107	3,928	221,095	113,878
265,122	4,061	220,840	113,835
266,136	4,254	220,832	113,964
267,151	4,087	220,804	113,815
268,166	3,656	220,469	113,314
269,180	3,388	220,168	112,952
270,195	3,240	220,008	112,751
271,209	3,304	219,949	112,757
272,224	3,592	219,902	112,935
273,239	3,779	219,767	112,993
274,253	3,698	219,472	112,772
275,268	3,346	219,423	112,479
276,282	3,449	219,110	112,383
277,297	3,355	218,976	112,236
278,312	3,671	218,811	112,372
279,326	3,583	218,912	112,350
280,341	3,631	218,642	112,236
281,355	3,686	218,613	112,252
282,370	3,727	218,390	112,157
283,384	3,267	218,323	111,777
284,399	3,201	218,128	111,619
285,414	3,479	217,902	111,696
286,428	3,875	217,802	111,923
287,443	3,701	217,795	111,783
288,457	3,798	217,534	111,710
289,472	3,761	217,321	111,564
290,487	2,996	217,205	110,938
291,501	3,270	216,982	111,014
292,516	3,401	217,038	111,127
293,530	3,503	216,797	111,067
294,545	3,356	216,675	110,889
295,560	3,501	216,594	110,943
296,574	3,718	216,387	110,984
297,589	3,582	216,432	110,898
298,603	3,690	216,273	110,885
299,618	3,705	216,145	110,821
300,633	3,616	216,037	110,691
301,647	3,759	215,996	110,763
302,662	3,721	215,663	110,555
303,676	3,601	215,471	110,361
304,691	3,832	215,381	110,471
305,706	4,063	215,344	110,608
306,720	3,796	215,191	110,328
307,735	3,744	214,920	110,142
308,749	3,608	214,864	110,006
309,764	3,961	214,677	110,153
310,779	3,616	214,667	109,891
311,793	3,670	214,519	109,844
312,808	4,091	214,049	109,894
313,822	3,750	214,181	109,708
314,837	3,521	213,980	109,433
315,852	3,419	213,874	109,295
316,866	3,702	213,684	109,391
317,881	3,932	213,485	109,442
318,895	3,876	213,375	109,337
319,910	3,462	213,213	108,949
320,925	3,288	213,098	108,757
321,939	3,218	212,953	108,624
322,954	3,367	212,806	108,645
323,968	3,814	212,713	108,905
324,983	3,829	212,646	108,871
325,997	3,634	212,621	108,710
327,012	3,547	212,433	108,543
328,027	3,685	212,293	108,559
329,041	4,041	212,207	108,758
330,056	4,183	212,052	108,768
331,070	3,605	211,775	108,209
332,085	3,104	211,613	107,764
333,100	3,553	211,420	107,972
334,114	3,736	211,509	108,137
335,129	3,940	211,248	108,137
336,143	3,570	211,238	107,862
337,158	3,516	211,073	107,730
338,173	3,492	210,914	107,623
339,187	3,659	210,604	107,572
340,202	3,411	210,444	107,307
341,216	3,590	210,338	107,369
342,231	3,495	210,357	107,302
343,246	3,347	210,163	107,090
344,260	3,479	209,989	107,085
345,275	3,326	209,896	106,920
346,289	3,564	209,908	107,083
347,304	3,614	209,725	107,015
348,319	3,610	209,604	106,941
349,333	3,679	209,443	106,898
350,348	3,722	209,336	106,863
351,362	3,846	209,258	106,900
352,377	3,792	209,116	106,781
353,392	3,518	208,926	106,484
354,406	3,785	208,660	106,524
355,421	194,359	1343,939	1430,420
356,435	155,109	1482,333	1430,507
