DTS Sentinel unit serial number:	SN410029Multiplexer serial number:	ORYXHardware model number:	OX2-SRSoftware version number:	ORYX F/W v4,00 Oryx Data Collector v3.7.2.0data status	okinstallation	B6 Nyhavnadifferential loss correction	single-endedforward channel	channel 2reverse channel	N/Adate	2023/12/11time	00:00:08forward acquisition time	300,00reverse acquisition time	0,00gamma	499,1914k internal	0,3122k external	0,3122temperature offset calibration	1,0000default loss term (dB/km)	0,3820temperature slope calibration	1,0000multiplexer offset coefficient	1,0000multiplexer slope coefficient	1,0000fibre end	0,00T internal ref (°C)	22,38T ext. ref 1 (°C)	5,98T ext. ref 2 (°C)	6,01length (m)	temperature (°C)	Stokes	anti-Stokes-744,400	166,822	-0,026	0,027
-743,385	42,692	-0,253	0,171
-742,371	-4,505	0,074	0,038
-741,356	156,691	-0,229	0,236
-740,342	311,654	0,067	-0,094
-739,327	29,628	-0,212	0,134
-738,312	-200,000	-0,008	-0,131
-737,298	313,349	-0,151	0,212
-736,283	-142,768	0,067	-0,005
-735,269	-86,470	-0,167	0,038
-734,254	-62,553	0,134	0,041
-733,239	-172,092	-0,375	-0,009
-732,225	-99,822	0,149	-0,028
-731,210	-200,000	0,015	0,113
-730,196	-200,000	0,002	-0,047
-729,181	38,636	-0,035	-0,023
-728,167	-31,472	-0,064	0,027
-727,152	387,064	-0,056	-0,086
-726,137	-200,000	-0,031	-0,157
-725,123	142,776	0,060	-0,060
-724,108	388,089	0,032	-0,050
-723,094	274,424	-0,103	-0,136
-722,079	-6,095	-0,006	0,003
-721,064	-20,864	-0,070	-0,032
-720,050	800,000	0,014	-0,042
-719,035	-75,258	0,068	0,018
-718,021	-200,000	0,018	0,107
-717,006	35,708	-0,122	-0,079
-715,991	800,000	0,027	-0,084
-714,977	220,310	-0,042	-0,050
-713,962	51,420	-0,100	-0,071
-712,948	-20,751	-0,132	0,060
-711,933	-42,500	-0,087	-0,033
-710,918	800,000	-0,035	-0,092
-709,904	800,000	0,043	-0,139
-708,889	74,169	-0,106	-0,083
-707,875	264,659	-0,084	-0,109
-706,860	223,423	0,064	-0,077
-705,845	419,022	0,019	0,031
-704,831	-200,000	0,033	0,126
-703,816	494,697	-0,020	0,034
-702,802	53,909	-0,071	-0,051
-701,787	396,661	-0,058	-0,091
-700,772	74,696	0,090	-0,071
-699,758	-200,000	-0,005	-0,081
-698,743	-30,256	0,084	-0,035
-697,729	-68,391	-0,075	-0,022
-696,714	46,813	-0,037	0,026
-695,699	83,712	-0,125	-0,101
-694,685	-200,000	-0,018	-0,167
-693,670	664,240	-0,045	-0,087
-692,656	-97,282	-0,138	-0,027
-691,641	-28,517	-0,072	-0,031
-690,627	800,000	0,056	-0,123
-689,612	-88,780	-0,055	-0,012
-688,597	-33,555	-0,097	-0,040
-687,583	575,625	0,048	0,087
-686,568	742,152	-0,053	-0,106
-685,554	44,580	-0,058	0,040
-684,539	636,355	-0,014	-0,027
-683,524	49,184	0,132	-0,092
-682,510	-200,000	-0,052	-0,184
-681,495	-200,000	-0,025	-0,096
-680,481	-63,846	-0,264	-0,080
-679,466	-80,185	-0,108	0,027
-678,451	-200,000	0,026	-0,087
-677,437	188,046	-0,060	-0,067
-676,422	800,000	-0,024	0,071
-675,408	-200,000	-0,013	0,131
-674,393	-23,957	-0,061	-0,027
-673,378	442,788	-0,072	-0,118
-672,364	7,982	-0,133	-0,074
-671,349	-200,000	-0,022	-0,139
-670,335	-8,798	0,041	0,020
-669,320	-200,000	0,002	0,031
-668,305	-200,000	0,032	0,105
-667,291	-104,486	0,091	-0,016
-666,276	-45,285	-0,062	0,023
-665,262	-200,000	0,005	-0,022
-664,247	800,000	0,033	-0,078
-663,232	-46,373	-0,108	-0,039
-662,218	800,000	0,027	-0,078
-661,203	417,172	-0,074	-0,118
-660,189	-40,426	-0,112	0,043
-659,174	252,166	-0,100	-0,127
-658,159	800,000	-0,008	0,025
-657,145	-163,340	-0,156	-0,005
-656,130	-14,635	0,066	-0,031
-655,116	-77,779	0,100	0,025
-654,101	800,000	0,029	0,069
-653,086	-138,315	-0,029	0,002
-652,072	115,037	-0,105	-0,095
-651,057	-57,532	0,110	0,036
-650,043	238,649	-0,102	-0,127
-649,028	-25,554	0,049	-0,022
-648,014	-200,000	-0,037	-0,157
-646,999	547,664	-0,015	0,027
-645,984	348,760	0,076	-0,111
-644,970	6,066	-0,020	-0,011
-643,955	-157,360	-0,064	0,003
-642,941	-105,173	-0,072	-0,012
-641,926	-61,827	0,022	0,007
-640,911	255,477	-0,025	0,032
-639,897	499,806	-0,026	-0,045
-638,882	-135,103	-0,039	-0,003
-637,868	800,000	0,030	-0,081
-636,853	69,176	-0,105	0,080
-635,838	800,000	0,028	-0,078
-634,824	-200,000	-0,009	-0,097
-633,809	-127,020	0,079	0,009
-632,795	159,566	-0,045	-0,047
-631,780	404,846	0,064	0,100
-630,765	247,238	0,021	-0,026
-629,751	-200,000	-0,008	-0,066
-628,736	70,399	0,083	-0,064
-627,722	9,704	0,035	-0,020
-626,707	399,267	-0,051	0,080
-625,692	152,627	0,039	0,040
-624,678	-200,000	0,017	-0,090
-623,663	-13,470	0,030	-0,014
-622,649	178,621	-0,096	-0,105
-621,634	-93,750	-0,083	-0,017
-620,619	83,757	-0,108	-0,087
-619,605	800,000	-0,042	-0,115
-618,590	3,464	0,153	-0,083
-617,576	-24,469	-0,105	-0,046
-616,561	442,225	-0,036	-0,059
-615,546	800,000	0,045	-0,100
-614,532	490,538	0,017	-0,029
-613,517	800,000	-0,071	-0,164
-612,503	800,000	0,058	-0,125
-611,488	62,606	-0,050	-0,037
-610,474	-116,046	-0,129	-0,018
-609,459	-26,970	-0,102	-0,044
-608,444	10,791	-0,059	0,033
-607,430	-200,000	-0,014	-0,091
-606,415	297,481	-0,036	-0,049
-605,401	-200,000	-0,005	0,047
-604,386	-200,000	0,044	0,150
-603,371	29,719	0,085	0,053
-602,357	-200,000	0,034	-0,170
-601,342	133,450	-0,088	-0,085
-600,328	-200,000	-0,005	0,036
-599,313	-200,000	-0,003	0,071
-598,298	102,385	0,047	0,041
-597,284	-200,000	-0,026	-0,173
-596,269	309,197	0,064	0,089
-595,255	542,427	-0,047	-0,083
-594,240	800,000	-0,040	-0,091
-593,225	196,495	0,139	-0,157
-592,211	-5,853	-0,166	-0,084
-591,196	452,835	0,079	-0,130
-590,182	184,339	0,020	-0,022
-589,167	104,358	0,061	0,053
-588,152	264,501	-0,041	-0,053
-587,138	800,000	0,003	0,007
-586,123	800,000	-0,021	-0,057
-585,109	205,075	-0,136	0,156
-584,094	-200,000	0,028	-0,093
-583,079	-200,000	-0,013	0,088
-582,065	-78,892	0,121	0,030
-581,050	-200,000	-0,016	-0,139
-580,036	-9,183	-0,133	-0,065
-579,021	-200,000	0,016	-0,109
-578,006	105,978	0,075	-0,065
-576,992	-200,000	0,004	0,056
-575,977	341,438	0,034	0,049
-574,963	-200,000	-0,007	-0,027
-573,948	-200,000	-0,017	0,082
-572,934	257,740	0,096	0,122
-571,919	179,909	-0,058	-0,063
-570,904	-79,348	-0,167	-0,042
-569,890	91,743	-0,025	0,021
-568,875	-200,000	0,005	0,048
-567,861	-200,000	0,006	0,077
-566,846	-200,000	0,012	0,129
-565,831	-200,000	-0,003	-0,049
-564,817	534,231	0,024	-0,043
-563,802	-200,000	-0,053	-0,193
-562,788	383,663	0,044	-0,068
-561,773	173,812	0,024	0,026
-560,758	128,612	-0,067	0,063
-559,744	288,854	-0,092	-0,124
-558,729	-157,522	-0,061	-0,003
-557,715	-111,310	-0,154	0,023
-556,700	-49,419	-0,189	-0,066
-555,685	-200,000	-0,003	-0,045
-554,671	-45,348	-0,071	-0,026
-553,656	229,837	-0,016	0,019
-552,642	-149,501	0,066	0,004
-551,627	-200,000	-0,032	0,119
-550,612	531,731	-0,079	0,139
-549,598	259,166	-0,010	0,013
-548,583	-41,427	0,122	0,046
-547,569	207,643	-0,027	0,031
-546,554	39,965	0,061	-0,041
-545,539	3,888	0,096	-0,052
-544,525	-200,000	0,018	0,181
-543,510	115,242	-0,070	0,064
-542,496	105,188	-0,093	-0,081
-541,481	-20,433	-0,016	-0,007
-540,466	-200,000	-0,014	0,068
-539,452	61,851	0,051	0,037
-538,437	-7,553	0,057	0,028
-537,423	22,596	0,064	0,038
-536,408	800,000	-0,020	0,043
-535,393	-200,000	-0,012	-0,068
-534,379	565,674	-0,038	-0,068
-533,364	2,568	-0,019	0,010
-532,350	-35,504	-0,065	0,026
-531,335	6,409	-0,028	-0,015
-530,321	-4,482	-0,124	-0,063
-529,306	16,549	-0,103	-0,060
-528,291	30,649	-0,112	-0,071
-527,277	580,529	0,041	-0,075
-526,262	-200,000	0,003	-0,022
-525,248	38,095	0,124	-0,082
-524,233	800,000	-0,017	-0,036
-523,218	38,566	0,105	-0,069
-522,204	724,115	-0,048	-0,095
-521,189	-200,000	-0,019	-0,159
-520,175	-43,623	-0,160	-0,059
-519,160	-200,000	-0,003	-0,126
-518,145	-200,000	-0,013	-0,115
-517,131	496,688	-0,069	-0,118
-516,116	-80,921	-0,135	0,033
-515,102	13,738	-0,069	-0,039
-514,087	-200,000	-0,002	0,045
-513,072	-1,676	-0,065	-0,033
-512,058	-70,796	0,133	-0,037
-511,043	186,887	-0,071	0,078
-510,029	-98,986	0,022	0,004
-509,014	-200,000	-0,025	0,128
-507,999	-200,000	-0,001	0,024
-506,985	800,000	-0,028	0,073
-505,970	-200,000	0,005	-0,026
-504,956	-200,000	-0,025	-0,090
-503,941	-200,000	0,041	-0,135
-502,926	120,360	0,065	-0,060
-501,912	728,313	-0,058	0,114
-500,897	22,960	0,101	-0,061
-499,883	-107,077	-0,044	0,007
-498,868	381,909	0,020	0,030
-497,853	375,553	-0,087	-0,132
-496,839	523,595	0,066	-0,116
-495,824	12,850	0,079	-0,045
-494,810	-200,000	-0,017	-0,065
-493,795	-200,000	0,026	-0,130
-492,781	-200,000	-0,016	0,109
-491,766	800,000	0,056	-0,143
-490,751	-17,342	-0,076	0,035
-489,737	141,912	-0,046	0,045
-488,722	30,064	0,155	0,097
-487,708	200,231	-0,053	0,061
-486,693	-78,801	-0,080	0,020
-485,678	-68,568	-0,091	0,026
-484,664	492,927	-0,072	-0,123
-483,649	-71,835	0,154	0,042
-482,635	-200,000	-0,019	-0,091
-481,620	-200,000	0,002	0,072
-480,605	-200,000	-0,005	0,047
-479,591	539,153	0,055	0,097
-478,576	-200,000	0,024	0,081
-477,562	-200,000	0,030	-0,100
-476,547	120,467	-0,059	-0,054
-475,532	434,954	-0,042	0,067
-474,518	-133,779	0,056	-0,005
-473,503	0,177	0,059	-0,031
-472,489	800,000	0,028	0,083
-471,474	88,429	-0,049	0,041
-470,459	1,470	0,040	0,021
-469,445	-200,000	-0,010	0,047
-468,430	84,787	0,015	0,012
-467,416	113,996	0,032	-0,028
-466,401	-200,000	-0,003	0,012
-465,386	715,246	0,027	0,053
-464,372	800,000	-0,038	0,083
-463,357	-200,000	-0,017	0,077
-462,343	71,957	-0,057	0,044
-461,328	-200,000	0,009	-0,045
-460,313	-122,306	0,049	-0,006
-459,299	800,000	0,062	0,147
-458,284	-200,000	-0,003	0,067
-457,270	-200,000	0,005	-0,078
-456,255	39,208	-0,129	-0,085
-455,241	64,796	0,110	-0,082
-454,226	800,000	0,011	0,028
-453,211	49,990	-0,059	-0,041
-452,197	-55,499	-0,017	-0,006
-451,182	800,000	0,011	0,027
-450,168	47,436	0,108	-0,074
-449,153	-142,106	-0,137	-0,010
-448,138	98,819	0,061	-0,052
-447,124	800,000	0,017	-0,041
-446,109	-200,000	0,013	-0,079
-445,095	800,000	0,019	0,051
-444,080	664,063	0,037	0,070
-443,065	108,172	0,123	0,108
-442,051	-200,000	-0,050	-0,179
-441,036	-115,289	-0,102	-0,014
-440,022	800,000	0,039	0,099
-439,007	800,000	-0,025	-0,066
-437,992	0,279	0,151	0,079
-436,978	-14,685	0,058	-0,027
-435,963	213,479	-0,075	0,088
-434,949	89,098	-0,003	-0,002
-433,934	-200,000	0,035	-0,201
-432,919	105,079	0,094	-0,082
-431,905	800,000	0,039	0,116
-430,890	-88,929	0,143	0,031
-429,876	-200,000	0,004	0,024
-428,861	-200,000	-0,016	0,086
-427,846	-200,000	-0,020	0,146
-426,832	23,897	0,101	-0,061
-425,817	81,600	-0,096	0,077
-424,803	697,703	-0,029	0,057
-423,788	74,035	0,023	0,018
-422,773	154,604	0,047	0,048
-421,759	800,000	-0,021	0,062
-420,744	-28,906	0,139	0,059
-419,730	-128,663	0,077	0,008
-418,715	-3,579	-0,028	0,014
-417,701	139,667	0,101	-0,098
-416,686	-39,994	0,041	-0,016
-415,671	365,930	-0,056	-0,084
-414,657	149,117	0,021	0,021
-413,642	-200,000	0,000	-0,077
-412,628	800,000	0,034	-0,108
-411,613	-200,000	0,049	0,161
-410,598	308,697	0,023	-0,032
-409,584	-200,000	0,001	0,055
-408,569	-200,000	-0,026	0,251
-407,555	-200,000	0,008	-0,030
-406,540	-86,911	0,201	-0,045
-405,525	800,000	0,042	-0,091
-404,511	47,312	0,046	-0,031
-403,496	-62,097	-0,060	0,018
-402,482	60,309	0,095	0,069
-401,467	-172,652	0,115	-0,003
-400,452	211,728	0,082	0,096
-399,438	-200,000	-0,028	0,120
-398,423	15,396	0,097	0,056
-397,409	-119,924	-0,037	0,005
-396,394	-94,560	0,081	0,016
-395,379	800,000	0,032	0,088
-394,365	-89,384	0,172	0,037
-393,350	-79,698	0,100	0,025
-392,336	-155,943	0,186	0,009
-391,321	-2,865	0,067	-0,034
-390,306	-200,000	0,003	0,054
-389,292	-44,533	-0,064	0,023
-388,277	10,368	-0,113	0,063
-387,263	-200,000	0,018	0,072
-386,248	79,282	0,034	0,027
-385,233	-30,151	0,073	0,030
-384,219	47,313	-0,038	-0,026
-383,204	-200,000	-0,007	-0,089
-382,190	-200,000	0,022	-0,110
-381,175	372,501	-0,023	0,035
-380,160	-90,500	0,051	0,011
-379,146	122,031	0,039	0,035
-378,131	50,584	-0,081	0,056
-377,117	187,353	0,034	0,037
-376,102	267,762	-0,064	0,083
-375,088	-200,000	-0,005	-0,084
-374,073	-65,867	0,046	0,014
-373,058	-45,769	0,053	-0,019
-372,044	72,491	-0,062	0,047
-371,029	-200,000	-0,006	0,059
-370,015	-200,000	-0,005	-0,074
-369,000	-200,000	-0,005	0,073
-367,985	-126,947	-0,074	0,008
-366,971	-200,000	0,003	0,085
-365,956	226,952	0,036	0,043
-364,942	316,167	0,114	0,159
-363,927	-36,851	0,072	0,028
-362,912	-47,126	0,057	-0,020
-361,898	800,000	0,047	-0,105
-360,883	-200,000	-0,036	0,134
-359,869	178,359	0,108	0,115
-358,854	-12,432	0,107	0,051
-357,839	-114,106	0,077	-0,011
-356,825	-200,000	0,007	0,129
-355,810	-200,000	-0,019	0,070
-354,796	-156,449	-0,048	0,002
-353,781	380,982	0,031	0,047
-352,766	-26,525	-0,110	-0,047
-351,752	551,346	0,032	-0,057
-350,737	21,356	-0,044	-0,026
-349,723	800,000	0,008	0,026
-348,708	67,579	-0,033	0,024
-347,693	-52,637	-0,021	-0,007
-346,679	375,781	0,069	-0,103
-345,664	800,000	0,036	-0,108
-344,650	800,000	-0,031	0,098
-343,635	117,827	0,060	0,055
-342,620	800,000	-0,020	0,062
-341,606	-145,571	-0,135	0,009
-340,591	-200,000	0,029	-0,112
-339,577	-200,000	0,015	-0,125
-338,562	-200,000	-0,009	0,070
-337,548	6,691	-0,123	0,067
-336,533	104,458	0,043	-0,037
-335,518	800,000	-0,029	0,080
-334,504	311,518	0,050	0,069
-333,489	-14,642	-0,057	0,027
-332,475	302,734	-0,066	0,090
-331,460	216,462	-0,039	0,046
-330,445	569,471	-0,013	0,023
-329,431	-200,000	-0,041	0,159
-328,416	-200,000	0,017	0,068
-327,402	315,840	-0,099	-0,137
-326,387	310,370	-0,020	0,028
-325,372	-58,192	-0,210	-0,067
-324,358	151,043	-0,045	-0,045
-323,343	-143,139	-0,127	-0,009
-322,329	77,714	0,132	0,103
-321,314	-85,973	-0,148	0,033
-320,299	-99,873	-0,042	-0,008
-319,285	597,763	-0,074	0,134
-318,270	104,631	-0,048	0,042
-317,256	176,494	0,081	0,087
-316,241	10,210	0,031	0,017
-315,226	100,515	0,002	0,002
-314,212	505,584	0,079	-0,135
-313,197	-146,858	-0,049	0,003
-312,183	191,706	0,065	0,072
-311,168	-200,000	0,000	0,019
-310,153	800,000	0,029	-0,086
-309,139	-12,139	-0,137	-0,066
-308,124	800,000	0,034	-0,074
-307,110	326,544	0,099	0,140
-306,095	-200,000	0,033	0,123
-305,080	63,842	0,092	-0,068
-304,066	336,405	0,046	-0,066
-303,051	800,000	-0,043	0,125
-302,037	297,515	0,067	0,090
-301,022	-71,858	0,076	-0,021
-300,008	38,665	-0,024	-0,015
-298,993	131,276	-0,061	0,057
-297,978	69,271	-0,072	-0,055
-296,964	-101,616	0,099	0,017
-295,949	43,417	-0,057	0,038
-294,935	15,225	-0,130	-0,074
-293,920	51,656	-0,068	-0,047
-292,905	30,428	0,111	0,069
-291,891	-200,000	0,003	0,128
-290,876	-186,342	-0,040	-0,000
-289,862	-200,000	0,006	-0,039
-288,847	-144,786	0,037	-0,002
-287,832	26,628	-0,098	-0,060
-286,818	239,639	-0,058	0,071
-285,803	-50,105	-0,089	0,031
-284,789	125,332	0,063	0,059
-283,774	-25,559	0,012	-0,005
-282,759	-144,115	0,096	-0,006
-281,745	-163,961	-0,083	0,003
-280,730	-200,000	-0,009	-0,044
-279,716	-93,481	-0,071	-0,014
-278,701	-22,291	0,018	-0,008
-277,686	800,000	-0,056	-0,117
-276,672	-104,825	0,297	-0,049
-275,657	291,897	-0,052	-0,069
-274,643	18,998	0,091	0,053
-273,628	-200,000	0,013	-0,110
-272,613	-200,000	-0,005	-0,061
-271,599	-200,000	0,016	0,184
-270,584	431,118	-0,023	0,037
-269,570	-200,000	0,006	0,022
-268,555	238,172	0,012	0,015
-267,540	-123,704	-0,127	-0,014
-266,526	132,700	-0,086	0,081
-265,511	-200,000	0,014	0,075
-264,497	75,846	0,112	0,086
-263,482	25,192	0,104	0,063
-262,467	315,434	-0,068	0,094
-261,453	-50,463	0,019	-0,006
-260,438	800,000	-0,013	0,037
-259,424	221,146	-0,048	-0,057
-258,409	552,050	0,030	0,052
-257,395	-88,195	0,132	0,029
-256,380	-200,000	-0,000	0,047
-255,365	-140,546	0,151	0,011
-254,351	-200,000	0,011	0,064
-253,336	-28,186	0,112	0,047
-252,322	-200,000	-0,099	-0,000
-251,307	-148,428	0,053	-0,003
-250,292	403,549	-0,044	-0,068
-249,278	800,000	-0,039	0,113
-248,263	-121,464	-0,064	-0,008
-247,249	800,000	-0,056	0,124
-246,234	114,569	-0,071	-0,063
-245,219	209,639	0,027	0,031
-244,205	56,409	-0,103	-0,073
-243,190	279,194	0,048	0,063
-242,176	-200,000	0,006	-0,099
-241,161	226,457	0,016	-0,019
-240,146	237,906	0,034	-0,041
-239,132	-14,949	-0,123	-0,058
-238,117	329,476	0,019	-0,026
-237,103	-200,000	0,013	-0,105
-236,088	-150,753	0,105	0,006
-235,073	158,511	0,151	0,154
-234,059	-200,000	-0,006	-0,020
-233,044	-49,359	-0,013	-0,004
-232,030	102,743	-0,041	0,035
-231,015	517,882	-0,015	-0,025
-230,000	688,334	0,009	-0,018
-228,986	-200,000	-0,004	-0,067
-227,971	-14,406	0,061	-0,029
-226,957	-174,801	0,037	0,001
-225,942	800,000	0,037	-0,095
-224,927	30,940	-0,072	-0,045
-223,913	800,000	-0,019	-0,062
-222,898	26,293	-0,035	0,021
-221,884	-200,000	-0,016	0,064
-220,869	319,965	0,036	0,051
-219,855	65,469	0,016	0,012
-218,840	-112,279	-0,062	0,009
-217,825	-200,000	0,020	0,152
-216,811	38,635	0,120	0,078
-215,796	220,048	-0,055	-0,064
-214,782	-200,000	-0,001	0,099
-213,767	-200,000	0,010	0,156
-212,752	-200,000	0,028	0,193
-211,738	-64,217	0,030	-0,009
-210,723	800,000	0,027	0,068
-209,709	356,369	0,031	-0,045
-208,694	268,188	0,052	-0,066
-207,679	782,048	0,017	0,035
-206,665	2,533	-0,103	0,054
-205,650	800,000	0,043	-0,089
-204,636	136,090	0,044	0,041
-203,621	278,470	0,079	0,103
-202,606	-110,983	0,027	0,004
-201,592	-123,814	-0,089	-0,010
-200,577	-200,000	-0,015	0,069
-199,563	-200,000	-0,009	0,079
-198,548	277,063	0,090	0,117
-197,533	112,406	-0,014	-0,012
-196,519	66,624	-0,070	-0,052
-195,504	-200,000	-0,009	-0,201
-194,490	-200,000	-0,014	-0,122
-193,475	442,213	-0,017	-0,028
-192,460	50,102	-0,124	0,085
-191,446	261,127	0,066	0,083
-190,431	17,256	0,046	-0,027
-189,417	800,000	-0,020	0,059
-188,402	800,000	-0,041	0,093
-187,387	352,859	0,006	-0,008
-186,373	70,378	-0,073	0,055
-185,358	441,250	-0,017	0,026
-184,344	145,963	-0,036	0,035
-183,329	407,848	0,042	-0,065
-182,315	171,288	-0,034	0,036
-181,300	-54,074	-0,151	0,050
-180,285	-200,000	0,057	-0,206
-179,271	-200,000	0,004	-0,061
-178,256	-173,524	-0,046	-0,001
-177,242	800,000	-0,033	-0,088
-176,227	-200,000	0,000	-0,063
-175,212	72,811	0,084	-0,064
-174,198	-102,792	0,027	0,005
-173,183	-16,561	0,045	-0,021
-172,169	-200,000	0,017	-0,078
-171,154	800,000	-0,015	0,033
-170,139	223,705	0,042	-0,050
-169,125	355,552	0,030	0,044
-168,110	-16,714	0,047	0,022
-167,096	800,000	-0,046	-0,106
-166,081	-0,141	-0,105	-0,055
-165,066	800,000	-0,026	-0,055
-164,052	800,000	-0,009	0,018
-163,037	800,000	0,040	-0,120
-162,023	-162,462	-0,079	0,003
-161,008	181,732	-0,069	0,074
-159,993	-200,000	-0,030	-0,105
-158,979	-200,000	-0,021	0,094
-157,964	107,574	0,058	-0,050
-156,950	800,000	-0,022	0,059
-155,935	101,614	0,071	-0,060
-154,920	612,792	-0,101	0,184
-153,906	462,338	0,062	-0,101
-152,891	-97,205	-0,121	-0,023
-151,877	-46,749	-0,132	0,047
-150,862	-200,000	-0,022	-0,081
-149,847	31,552	0,044	-0,028
-148,833	69,343	-0,081	-0,061
-147,818	-200,000	0,022	0,074
-146,804	-29,988	0,169	-0,070
-145,789	450,442	-0,035	0,056
-144,775	-105,055	-0,142	0,023
-143,760	800,000	-0,017	-0,046
-142,745	509,493	-0,054	0,092
-141,731	150,285	0,121	-0,120
-140,716	382,135	-0,053	-0,079
-139,702	621,749	0,055	0,101
-138,687	1,834	-0,210	0,110
-137,672	619,198	0,023	-0,043
-136,658	38,111	-0,095	-0,062
-135,643	179,057	0,070	-0,075
-134,629	800,000	-0,010	-0,028
-133,614	435,914	0,058	0,092
-132,599	800,000	-0,056	0,115
-131,585	-79,177	0,061	0,015
-130,570	-29,248	-0,124	-0,052
-129,556	-124,091	-0,153	0,017
-128,541	-200,000	-0,020	0,132
-127,526	462,619	-0,053	-0,086
-126,512	-200,000	0,003	-0,046
-125,497	-200,000	0,002	0,011
-124,483	800,000	-0,046	-0,129
-123,468	225,773	-0,009	0,011
-122,453	238,608	-0,070	0,085
-121,439	-200,000	0,019	-0,151
-120,424	-15,375	0,076	-0,035
-119,410	186,405	0,090	0,098
-118,395	-200,000	-0,005	-0,034
-117,380	138,794	0,047	-0,045
-116,366	61,497	0,050	-0,036
-115,351	-200,000	-0,004	-0,037
-114,337	13,791	0,100	0,056
-113,322	-24,873	0,119	0,051
-112,307	476,156	0,061	-0,100
-111,293	-118,859	0,197	-0,025
-110,278	49,146	-0,074	0,050
-109,264	800,000	-0,046	0,147
-108,249	150,008	-0,117	0,116
-107,234	-131,319	0,030	0,003
-106,220	-98,978	-0,082	-0,015
-105,205	344,531	-0,042	-0,060
-104,191	-65,071	-0,072	0,021
-103,176	800,000	0,041	0,107
-102,162	-61,632	-0,148	-0,045
-101,147	800,000	0,029	-0,060
-100,132	-105,851	0,032	0,005
-99,118	800,000	-0,022	-0,068
-98,103	-152,959	0,079	-0,004
-97,089	40,923	0,111	0,073
-96,074	52,990	0,069	0,048
-95,059	-200,000	-0,006	-0,086
-94,045	-200,000	0,018	-0,088
-93,030	273,735	0,068	0,088
-92,016	20,123	-0,061	0,036
-91,001	-163,723	0,077	0,003
-89,986	795,478	0,069	0,139
-88,972	800,000	-0,016	0,044
-87,957	800,000	0,024	-0,050
-86,943	-146,876	-0,046	-0,003
-85,928	-200,000	0,007	-0,114
-84,913	0,426	0,020	0,010
-83,899	-200,000	-0,002	0,020
-82,884	-3,393	-0,151	0,076
-81,870	-99,415	0,063	0,011
-80,855	-200,000	-0,006	0,053
-79,840	108,837	0,046	0,040
-78,826	453,860	-0,072	-0,116
-77,811	19,071	0,165	-0,096
-76,797	-83,458	0,031	0,007
-75,782	170,356	0,019	0,020
-74,767	521,152	-0,013	0,022
-73,753	-18,308	-0,097	0,044
-72,738	53,318	-0,129	-0,090
-71,724	65,784	-0,045	-0,033
-70,709	-200,000	0,030	0,165
-69,694	-61,903	-0,040	0,012
-68,680	800,000	0,026	0,077
-67,665	-200,000	-0,021	0,082
-66,651	-173,818	0,144	-0,003
-65,636	800,000	-0,006	-0,016
-64,622	1,456	-0,033	-0,017
-63,607	229,668	-0,070	-0,083
-62,592	-36,968	-0,199	-0,077
-61,578	271,169	0,037	0,047
-60,563	58,740	-0,064	-0,045
-59,549	-142,058	-0,023	0,002
-58,534	-146,822	-1,444	-0,089
-57,519	611,461	-0,818	-1,491
-56,505	-200,000	-0,977	-4,321
-55,490	40,621	0,651	-0,425
-54,476	800,000	4,990	11,952
-53,461	-200,000	13,418	252,953
-52,446	-200,000	689,861	2259,725
-51,432	591,767	1622,333	2919,171
-50,417	119,352	1634,766	1468,482
-49,403	73,315	1288,576	977,492
-48,388	38,040	1024,178	659,827
-47,373	24,339	981,871	587,497
-46,359	23,598	971,303	578,722
-45,344	22,596	967,035	572,881
-44,330	22,563	965,491	571,836
-43,315	22,454	964,198	570,694
-42,300	22,375	963,080	569,750
-41,286	22,343	962,294	569,161
-40,271	22,383	961,297	568,677
-39,257	22,426	960,230	568,162
-38,242	22,395	959,433	567,568
-37,227	22,318	958,554	566,776
-36,213	22,401	957,591	566,455
-35,198	22,256	957,150	565,701
-34,184	22,450	956,119	565,696
-33,169	22,351	955,306	564,872
-32,154	22,388	954,332	564,393
-31,140	22,386	953,488	563,867
-30,125	22,449	952,633	563,542
-29,111	22,418	951,827	562,941
-28,096	22,406	951,166	562,491
-27,082	22,448	950,422	562,161
-26,067	22,452	949,683	561,717
-25,052	22,354	949,095	561,033
-24,038	22,480	948,337	560,965
-23,023	22,388	947,863	560,368
-22,009	22,524	947,028	560,287
-20,994	22,483	946,415	559,773
-19,979	22,491	945,846	559,436
-18,965	22,440	945,255	558,905
-17,950	22,439	944,603	558,493
-16,936	22,385	944,004	557,944
-15,921	22,318	943,275	557,277
-14,906	22,319	942,482	556,790
-13,892	22,304	941,795	556,314
-12,877	22,306	941,421	556,076
-11,863	22,248	940,801	555,506
-10,848	22,353	940,003	555,345
-9,833	22,419	939,579	555,282
-8,819	22,407	938,924	554,835
-7,804	22,285	938,361	554,094
-6,790	22,239	938,139	553,794
-5,775	22,300	937,159	553,386
-4,760	22,277	936,710	553,026
-3,746	22,294	935,993	552,636
-2,731	22,150	935,237	551,714
-1,717	22,117	934,655	551,243
-0,702	22,102	934,053	550,819
0,313	21,926	933,201	550,593
1,327	25,066	931,339	559,322
2,342	34,721	795,752	503,604
3,356	32,777	451,239	282,622
4,371	1,693	293,531	152,850
5,386	-2,710	274,376	138,701
6,400	-4,533	268,677	134,117
7,415	-4,872	266,122	132,518
8,429	-4,546	265,145	132,319
9,444	-4,544	264,249	131,861
10,459	-4,478	263,593	131,582
11,473	-4,717	263,031	131,073
12,488	-4,783	262,499	130,736
13,502	-4,821	262,003	130,444
14,517	-4,860	261,587	130,189
15,531	-4,638	261,215	130,193
16,546	-4,687	260,817	129,939
17,561	-4,713	260,457	129,724
18,575	-4,649	260,160	129,622
19,590	-4,599	259,664	129,408
20,604	-4,674	259,724	129,360
21,619	-4,691	259,144	129,045
22,634	-4,665	258,831	128,900
23,648	-4,805	258,559	128,628
24,663	-4,869	258,337	128,450
25,677	-4,575	258,016	128,540
26,692	-4,589	257,737	128,377
27,707	-4,754	257,491	128,096
28,721	-4,558	257,168	128,098
29,736	-4,790	256,951	127,773
30,750	-4,828	256,655	127,581
31,765	-4,813	256,363	127,437
32,780	-4,841	256,256	127,349
33,794	-4,792	256,003	127,254
34,809	-4,835	255,780	127,095
35,823	-4,786	255,624	127,049
36,838	-4,842	255,379	126,866
37,853	-4,968	255,146	126,628
38,867	-4,846	254,979	126,641
39,882	-4,774	254,721	126,565
40,896	-4,877	254,509	126,358
41,911	-4,945	254,235	126,152
42,926	-4,595	253,889	126,274
43,940	-4,897	253,626	125,869
44,955	-4,811	253,471	125,855
45,969	-4,993	253,339	125,621
46,984	-5,258	253,003	125,212
47,999	-5,362	252,863	125,041
49,013	-5,498	252,473	124,719
50,028	-5,645	252,392	124,540
51,042	-5,716	252,060	124,303
52,057	-5,786	251,706	124,057
53,071	-5,657	251,594	124,102
54,086	-5,561	251,442	124,099
55,101	-5,506	251,260	124,046
56,115	-5,138	251,085	124,266
57,130	-4,766	251,138	124,603
58,144	-4,616	250,925	124,615
59,159	-4,487	250,687	124,597
60,174	-4,474	250,466	124,488
61,188	-4,581	250,353	124,328
62,203	-4,813	250,210	124,047
63,217	-4,724	249,934	123,975
64,232	-4,617	249,667	123,923
65,247	-4,754	249,470	123,697
66,261	-4,786	249,180	123,515
67,276	-4,837	248,934	123,338
68,290	-5,129	248,644	122,935
69,305	-5,150	248,562	122,865
70,320	-5,289	248,400	122,655
71,334	-4,947	248,188	122,831
72,349	-4,753	248,137	122,960
73,363	-4,568	247,973	123,026
74,378	-4,674	247,733	122,805
75,393	-4,624	247,522	122,732
76,407	-4,653	247,232	122,553
77,422	-4,743	247,005	122,353
78,436	-4,610	246,954	122,430
79,451	-4,589	246,672	122,297
80,466	-4,715	246,347	122,018
81,480	-5,117	246,164	121,577
82,495	-4,999	246,058	121,614
83,509	-4,999	245,822	121,486
84,524	-4,860	245,613	121,489
85,539	-5,082	245,377	121,174
86,553	-5,180	245,314	121,050
87,568	-5,154	245,126	120,969
88,582	-4,917	244,728	120,960
89,597	-5,080	244,790	120,843
90,611	-4,804	244,613	120,977
91,626	-4,896	244,456	120,811
92,641	-4,759	244,144	120,760
93,655	-5,058	244,017	120,437
94,670	-5,024	243,868	120,381
95,684	-4,955	243,604	120,297
96,699	-4,909	243,478	120,263
97,714	-5,014	243,291	120,072
98,728	-5,130	242,998	119,821
99,743	-5,184	242,882	119,708
100,757	-5,010	242,691	119,748
101,772	-5,100	242,551	119,593
102,787	-4,954	242,205	119,533
103,801	-5,130	242,112	119,331
104,816	-4,862	241,923	119,449
105,830	-4,931	241,934	119,386
106,845	-4,801	241,733	119,384
107,860	-4,924	241,675	119,243
108,874	-4,855	241,250	119,079
109,889	-5,047	241,156	118,864
110,903	-5,084	240,822	118,658
111,918	-5,058	240,709	118,614
112,933	-4,802	240,442	118,682
113,947	-4,693	240,410	118,746
114,962	-4,713	240,325	118,676
115,976	-4,736	240,040	118,506
116,991	-4,785	239,844	118,359
118,006	-4,751	239,691	118,301
119,020	-4,763	239,674	118,272
120,035	-4,817	239,408	118,086
121,049	-4,701	239,401	118,166
122,064	-4,725	239,246	118,060
123,079	-5,104	238,967	117,602
124,093	-4,913	238,753	117,642
125,108	-5,080	238,506	117,374
126,122	-5,464	238,310	116,954
127,137	-5,447	238,132	116,870
128,151	-5,276	238,019	116,943
129,166	-5,080	237,771	116,970
130,181	-5,127	237,504	116,790
131,195	-5,358	237,439	116,560
132,210	-5,065	237,145	116,643
133,224	-4,838	237,160	116,824
134,239	-4,989	237,160	116,691
135,254	-4,871	236,867	116,632
136,268	-5,231	236,636	116,217
137,283	-5,181	236,292	116,078
138,297	-5,430	236,206	115,825
139,312	-5,420	235,942	115,693
140,327	-5,232	235,915	115,821
141,341	-4,349	235,842	116,485
142,356	-4,681	235,753	116,164
143,370	-4,608	235,632	116,152
144,385	-4,510	235,468	116,140
145,400	-4,251	235,252	116,231
146,414	-4,376	234,997	115,994
147,429	-4,847	234,965	115,591
148,443	-4,724	234,775	115,586
149,458	-4,488	234,568	115,663
150,473	-4,613	234,351	115,445
151,487	-4,560	234,144	115,375
152,502	-4,776	234,194	115,217
153,516	-4,541	234,007	115,303
154,531	-4,546	233,768	115,170
155,546	-4,429	233,401	115,072
156,560	-4,439	233,324	115,016
157,575	-4,809	233,163	114,632
158,589	-4,628	233,095	114,732
159,604	-4,429	232,906	114,787
160,619	-4,387	232,633	114,675
161,633	-4,374	232,655	114,687
162,648	-4,165	232,316	114,674
163,662	-4,528	232,327	114,383
164,677	-4,686	232,055	114,114
165,692	-4,545	231,877	114,128
166,706	-4,385	231,771	114,192
167,721	-4,454	231,788	114,135
168,735	-4,404	231,647	114,095
169,750	-4,374	231,491	114,031
170,764	-4,655	231,222	113,667
171,779	-4,600	231,100	113,641
172,794	-4,387	230,928	113,713
173,808	-4,715	230,841	113,403
174,823	-5,136	230,461	112,876
175,837	-5,403	230,319	112,587
176,852	-4,991	230,232	112,857
177,867	-4,606	230,078	113,073
178,881	-4,547	229,988	113,065
179,896	-4,427	229,774	113,043
180,910	-4,387	229,765	113,060
181,925	-4,346	229,458	112,931
182,940	-4,308	229,223	112,835
183,954	-4,406	229,190	112,732
184,969	-4,453	229,124	112,653
185,983	-4,347	228,920	112,625
186,998	-4,359	228,758	112,526
188,013	-4,357	228,552	112,416
189,027	-4,087	228,344	112,513
190,042	-4,264	228,168	112,280
191,056	-4,384	228,306	112,244
192,071	-4,394	228,108	112,129
193,086	-4,391	227,791	111,965
194,100	-4,461	227,769	111,891
195,115	-4,721	227,261	111,430
196,129	-5,671	226,909	110,516
197,144	-2,144	228,086	113,810
198,159	2,595	229,400	118,137
199,173	4,245	229,750	119,587
200,188	4,284	229,598	119,528
201,202	4,359	229,478	119,513
202,217	4,519	229,296	119,531
203,232	4,745	229,301	119,698
204,246	4,772	229,218	119,665
205,261	4,844	229,000	119,595
206,275	5,022	228,960	119,701
207,290	5,071	228,828	119,660
208,304	4,956	228,730	119,509
209,319	5,212	228,402	119,524
210,334	4,877	228,379	119,244
211,348	4,618	228,107	118,892
212,363	4,287	227,803	118,469
213,377	4,002	227,628	118,148
214,392	4,023	227,455	118,064
215,407	4,074	227,339	118,033
216,421	4,280	227,157	118,085
217,436	4,152	226,990	117,890
218,450	4,045	226,712	117,653
219,465	3,825	226,454	117,341
220,480	3,864	226,585	117,428
221,494	4,190	226,273	117,504
222,509	4,081	226,230	117,389
223,523	3,977	226,094	117,228
224,538	4,064	225,868	117,166
225,553	4,089	225,828	117,155
226,567	4,507	225,541	117,313
227,582	4,497	225,578	117,314
228,596	4,418	225,549	117,229
229,611	4,056	225,354	116,842
230,626	4,219	224,989	116,766
231,640	4,098	224,897	116,616
232,655	4,315	224,870	116,756
233,669	4,580	224,845	116,933
234,684	4,637	224,655	116,867
235,699	4,528	224,392	116,637
236,713	4,436	224,177	116,446
237,728	4,194	224,009	116,166
238,742	3,920	223,947	115,917
239,757	4,065	223,760	115,919
240,772	4,253	223,528	115,930
241,786	4,078	223,392	115,717
242,801	4,104	223,515	115,790
243,815	4,616	223,176	115,988
244,830	4,286	223,121	115,702
245,844	4,089	222,901	115,430
246,859	4,139	222,729	115,368
247,874	4,517	222,804	115,680
248,888	4,464	222,459	115,451
249,903	4,289	222,258	115,205
250,917	3,966	222,125	114,885
251,932	4,095	221,991	114,901
252,947	4,141	221,780	114,816
253,961	4,119	221,654	114,725
254,976	3,995	221,604	114,596
255,990	4,476	221,425	114,851
257,005	4,439	221,297	114,747
258,020	4,304	221,305	114,641
259,034	4,556	221,253	114,790
260,049	4,312	220,961	114,448
261,063	4,447	220,701	114,403
262,078	4,680	220,705	114,567
263,093	4,437	220,493	114,268
264,107	4,362	220,380	114,143
265,122	4,446	220,351	114,180
266,136	4,515	220,274	114,181
267,151	4,603	219,961	114,073
268,166	4,340	219,627	113,697
269,180	4,076	219,425	113,388
270,195	4,157	219,375	113,411
271,209	3,921	219,257	113,166
272,224	4,175	219,166	113,296
273,239	4,473	218,952	113,395
274,253	4,056	218,847	113,024
275,268	4,087	218,573	112,894
276,282	3,729	218,466	112,567
277,297	3,815	218,326	112,547
278,312	3,940	218,235	112,582
279,326	4,282	218,096	112,751
280,341	4,103	217,999	112,560
281,355	4,210	217,758	112,503
282,370	4,122	217,683	112,390
283,384	4,123	217,513	112,293
284,399	3,936	217,453	112,116
285,414	3,700	217,317	111,864
286,428	4,104	217,266	112,122
287,443	4,247	217,093	112,127
288,457	4,295	216,921	112,063
289,472	4,069	216,828	111,840
290,487	3,793	216,512	111,467
291,501	3,590	216,307	111,205
292,516	3,900	216,255	111,392
293,530	4,004	216,160	111,409
294,545	3,859	216,028	111,226
295,560	3,928	215,978	111,241
296,574	3,921	215,879	111,174
297,589	4,079	215,657	111,164
298,603	4,259	215,519	111,213
299,618	4,181	215,363	111,066
300,633	4,233	215,185	111,003
301,647	4,214	215,344	111,061
302,662	4,578	215,040	111,156
303,676	4,396	214,899	110,942
304,691	4,289	214,970	110,892
305,706	4,213	214,809	110,744
306,720	4,365	214,450	110,658
307,735	3,934	214,301	110,263
308,749	3,849	214,157	110,118
309,764	4,373	213,982	110,393
310,779	4,484	213,811	110,374
311,793	4,281	213,919	110,275
312,808	4,162	213,684	110,059
313,822	4,270	213,427	109,994
314,837	4,168	213,347	109,870
315,852	4,017	213,277	109,717
316,866	4,102	213,120	109,687
317,881	4,326	213,017	109,783
318,895	4,196	212,878	109,609
319,910	4,247	212,629	109,508
320,925	3,783	212,529	109,117
321,939	3,686	212,304	108,923
322,954	3,589	212,171	108,776
323,968	4,076	212,190	109,122
324,983	4,431	212,068	109,301
325,997	4,320	211,937	109,144
327,012	4,442	211,666	109,082
328,027	4,207	211,661	108,903
329,041	4,523	211,523	109,046
330,056	4,470	211,490	108,981
331,070	4,257	211,198	108,671
332,085	3,807	210,852	108,166
333,100	3,945	210,738	108,196
334,114	4,119	210,751	108,315
335,129	3,810	210,614	108,018
336,143	3,811	210,492	107,946
337,158	3,918	210,325	107,926
338,173	3,873	210,195	107,819
339,187	3,902	210,050	107,755
340,202	3,552	210,003	107,476
341,216	3,898	209,645	107,525
342,231	4,088	209,513	107,580
343,246	3,841	209,588	107,437
344,260	3,996	209,388	107,433
345,275	4,078	209,347	107,459
346,289	4,173	209,275	107,479
347,304	4,226	209,159	107,447
348,319	3,920	208,903	107,093
349,333	4,027	208,806	107,108
350,348	4,294	208,655	107,206
351,362	4,544	208,551	107,318
352,377	4,531	208,341	107,191
353,392	4,246	208,214	106,918
354,406	4,233	208,128	106,855
355,421	194,474	1345,526	1436,426
356,435	155,184	1484,204	1436,547
