DTS Sentinel unit serial number:	SN410029Multiplexer serial number:	ORYXHardware model number:	OX2-SRSoftware version number:	ORYX F/W v4,00 Oryx Data Collector v3.7.2.0data status	okinstallation	B6 Nyhavnadifferential loss correction	single-endedforward channel	channel 2reverse channel	N/Adate	2023/12/09time	23:50:08forward acquisition time	300,00reverse acquisition time	0,00gamma	499,1914k internal	0,3126k external	0,3126temperature offset calibration	1,0000default loss term (dB/km)	0,3820temperature slope calibration	1,0000multiplexer offset coefficient	1,0000multiplexer slope coefficient	1,0000fibre end	0,00T internal ref (°C)	21,75T ext. ref 1 (°C)	5,61T ext. ref 2 (°C)	5,60length (m)	temperature (°C)	Stokes	anti-Stokes-744,400	-11,566	0,095	0,046
-743,385	-47,748	-0,243	0,087
-742,371	8,909	-0,032	-0,018
-741,356	800,000	-0,067	0,200
-740,342	-200,000	0,005	0,076
-739,327	-80,233	-0,225	0,056
-738,312	-74,157	-0,092	-0,025
-737,298	-21,757	-0,273	0,123
-736,283	-71,919	0,030	-0,008
-735,269	-36,071	-0,248	0,099
-734,254	800,000	0,012	0,028
-733,239	-80,446	-0,414	-0,102
-732,225	21,062	0,062	-0,038
-731,210	337,214	-0,005	0,007
-730,196	419,487	0,029	-0,047
-729,181	800,000	0,015	-0,046
-728,167	-49,694	-0,064	-0,023
-727,152	117,084	0,086	0,079
-726,137	-200,000	0,004	-0,085
-725,123	141,995	-0,082	-0,081
-724,108	70,754	-0,105	0,081
-723,094	238,452	-0,079	-0,097
-722,079	276,709	-0,010	-0,013
-721,064	580,606	-0,013	-0,024
-720,050	175,938	0,034	-0,037
-719,035	237,947	-0,066	0,081
-718,021	800,000	-0,000	-0,001
-717,006	-1,188	0,099	-0,052
-715,991	-26,724	-0,164	-0,071
-714,977	-147,205	-0,086	-0,005
-713,962	38,574	-0,116	-0,077
-712,948	53,495	-0,118	-0,084
-711,933	800,000	0,037	0,095
-710,918	29,256	-0,104	-0,065
-709,904	260,841	-0,044	-0,057
-708,889	564,411	-0,085	-0,155
-707,875	-100,769	-0,083	0,015
-706,860	193,078	-0,072	-0,081
-705,845	-87,766	0,091	0,020
-704,831	-200,000	-0,006	-0,076
-703,816	800,000	-0,033	-0,107
-702,802	101,436	0,073	0,063
-701,787	61,244	-0,068	-0,050
-700,772	160,308	-0,038	0,040
-699,758	800,000	0,043	0,106
-698,743	-200,000	-0,025	-0,139
-697,729	-43,557	0,053	0,020
-696,714	394,839	0,061	0,095
-695,699	115,153	-0,065	0,059
-694,685	291,812	-0,034	-0,046
-693,670	176,149	0,071	-0,076
-692,656	50,548	0,070	-0,049
-691,641	-200,000	-0,003	-0,018
-690,627	209,992	0,036	-0,042
-689,612	-200,000	-0,016	-0,094
-688,597	-38,776	-0,124	0,048
-687,583	53,437	-0,033	0,024
-686,568	7,385	-0,080	0,045
-685,554	-200,000	-0,013	0,167
-684,539	-135,238	-0,139	-0,012
-683,524	-99,967	-0,105	-0,019
-682,510	-3,072	-0,022	0,012
-681,495	273,180	0,040	-0,052
-680,481	476,156	-0,043	0,073
-679,466	-74,640	0,049	-0,013
-678,451	-200,000	0,005	-0,058
-677,437	195,570	0,075	-0,085
-676,422	-75,107	0,048	0,013
-675,408	-200,000	-0,001	-0,124
-674,393	253,625	0,027	0,034
-673,378	-200,000	0,008	-0,077
-672,364	-200,000	-0,024	-0,080
-671,349	-149,966	-0,124	0,007
-670,335	-96,471	0,147	0,029
-669,320	504,265	0,020	0,034
-668,305	139,966	-0,029	0,029
-667,291	-92,024	-0,056	-0,012
-666,276	-101,914	-0,119	0,021
-665,262	-112,531	-0,030	-0,004
-664,247	-200,000	-0,002	0,058
-663,232	800,000	0,027	-0,080
-662,218	-18,530	-0,059	-0,027
-661,203	764,407	0,022	-0,045
-660,189	11,662	-0,059	0,033
-659,174	-189,340	0,047	-0,000
-658,159	-200,000	-0,005	-0,064
-657,145	-99,912	-0,143	-0,026
-656,130	13,131	0,098	0,056
-655,116	248,361	0,060	0,076
-654,101	303,623	-0,083	0,114
-653,086	40,813	0,107	0,071
-652,072	-200,000	0,021	-0,136
-651,057	172,746	-0,065	-0,070
-650,043	-200,000	0,009	0,030
-649,028	-200,000	-0,021	0,133
-648,014	-78,298	-0,135	-0,034
-646,999	800,000	-0,053	0,159
-645,984	102,240	0,071	-0,062
-644,970	-56,907	-0,045	-0,015
-643,955	-182,070	0,036	0,000
-642,941	42,215	-0,075	-0,050
-641,926	-98,900	0,059	0,011
-640,911	110,181	0,050	-0,044
-639,897	-200,000	-0,019	-0,085
-638,882	-200,000	0,010	0,061
-637,868	-78,380	0,126	-0,032
-636,853	-200,000	-0,001	-0,238
-635,838	-200,000	0,013	-0,109
-634,824	-200,000	0,017	-0,170
-633,809	-158,425	0,129	0,005
-632,795	698,390	-0,047	-0,091
-631,780	-67,082	-0,076	-0,022
-630,765	-200,000	-0,014	-0,127
-629,751	-116,175	-0,139	-0,019
-628,736	746,813	-0,018	-0,036
-627,722	-81,738	-0,062	-0,015
-626,707	342,804	0,051	-0,074
-625,692	800,000	-0,079	-0,170
-624,678	-200,000	-0,004	0,056
-623,663	-56,600	0,142	0,046
-622,649	322,770	-0,020	0,028
-621,634	421,694	-0,069	0,111
-620,619	425,478	0,055	-0,088
-619,605	-200,000	-0,017	-0,102
-618,590	703,937	-0,074	0,146
-617,576	-200,000	0,006	0,191
-616,561	335,199	0,037	-0,054
-615,546	800,000	-0,038	-0,097
-614,532	272,265	-0,102	-0,134
-613,517	49,986	0,095	-0,066
-612,503	529,774	-0,028	-0,050
-611,488	453,812	-0,029	0,047
-610,474	504,687	0,123	0,213
-609,459	40,350	-0,087	-0,058
-608,444	46,292	0,036	-0,025
-607,430	-40,673	-0,132	0,050
-606,415	580,775	-0,046	-0,083
-605,401	-29,491	0,029	-0,012
-604,386	800,000	-0,024	-0,059
-603,371	-62,546	-0,037	-0,011
-602,357	-200,000	0,011	0,070
-601,342	-141,117	0,044	-0,003
-600,328	595,525	0,063	-0,116
-599,313	38,772	0,134	-0,088
-598,298	-6,363	-0,074	-0,037
-597,284	-120,810	-0,060	0,007
-596,269	34,964	0,148	-0,096
-595,255	175,925	0,065	0,070
-594,240	-17,621	-0,036	-0,017
-593,225	-81,127	0,060	0,015
-592,211	510,843	-0,034	0,060
-591,196	36,374	-0,114	-0,074
-590,182	84,237	0,105	0,085
-589,167	543,936	-0,020	0,035
-588,152	-57,147	-0,042	0,014
-587,138	-103,482	0,054	0,009
-586,123	198,643	-0,067	-0,076
-585,109	-88,709	-0,161	-0,035
-584,094	167,468	-0,109	-0,115
-583,079	-123,847	0,074	-0,009
-582,065	180,625	0,092	-0,100
-581,050	75,497	0,100	-0,078
-580,036	206,779	0,045	-0,052
-579,021	528,917	-0,031	-0,054
-578,006	560,217	0,029	-0,053
-576,992	-200,000	0,040	-0,153
-575,977	-112,321	0,028	-0,004
-574,963	-130,559	0,097	-0,010
-573,948	252,614	-0,053	0,066
-572,934	800,000	0,021	0,044
-571,919	375,450	-0,043	0,065
-570,904	-200,000	-0,003	0,064
-569,890	-200,000	-0,018	0,078
-568,875	89,930	0,080	-0,066
-567,861	76,805	0,075	0,058
-566,846	238,323	-0,029	0,035
-565,831	-200,000	0,022	-0,085
-564,817	18,093	-0,095	-0,056
-563,802	319,177	0,054	-0,076
-562,788	-200,000	0,020	-0,085
-561,773	-200,000	0,035	-0,210
-560,758	800,000	-0,025	0,055
-559,744	-35,310	-0,082	0,033
-558,729	146,026	0,102	0,101
-557,715	-128,914	0,060	-0,006
-556,700	156,651	-0,066	-0,067
-555,685	800,000	0,007	0,018
-554,671	-200,000	0,014	-0,145
-553,656	-135,573	0,076	0,007
-552,642	800,000	-0,066	0,184
-551,627	-144,763	-0,190	-0,013
-550,612	160,917	-0,105	-0,108
-549,598	37,866	-0,050	-0,033
-548,583	-59,977	-0,068	-0,021
-547,569	800,000	-0,071	-0,168
-546,554	41,738	0,075	0,050
-545,539	125,650	0,100	0,093
-544,525	385,933	-0,033	-0,051
-543,510	-29,247	-0,063	-0,027
-542,496	-126,043	-0,036	0,004
-541,481	-200,000	0,007	-0,039
-540,466	-200,000	-0,006	0,041
-539,452	194,766	-0,035	-0,039
-538,437	-94,258	0,050	-0,010
-537,423	-200,000	0,013	-0,141
-536,408	3,975	0,042	0,023
-535,393	800,000	0,018	-0,038
-534,379	-200,000	0,002	-0,070
-533,364	-200,000	-0,006	-0,150
-532,350	-200,000	-0,006	0,038
-531,335	19,607	0,050	-0,030
-530,321	-32,962	0,110	0,045
-529,306	-200,000	-0,015	0,049
-528,291	-200,000	-0,013	-0,087
-527,277	260,355	-0,066	-0,085
-526,262	-174,815	-0,114	0,002
-525,248	-200,000	-0,007	-0,038
-524,233	-200,000	0,020	0,098
-523,218	800,000	0,032	0,070
-522,204	377,810	-0,010	0,015
-521,189	-115,044	-0,077	-0,011
-520,175	-26,817	-0,194	-0,083
-519,160	29,243	0,078	-0,049
-518,145	-200,000	-0,017	-0,205
-517,131	-118,815	-0,064	-0,008
-516,116	41,307	-0,081	-0,054
-515,102	52,752	-0,078	0,055
-514,087	-23,562	0,107	0,047
-513,072	-116,220	-0,095	-0,013
-512,058	-200,000	-0,023	0,109
-511,043	-200,000	0,010	0,036
-510,029	798,217	0,060	0,123
-509,014	-200,000	0,038	0,186
-507,999	-83,808	0,098	0,023
-506,985	-36,022	-0,300	-0,119
-505,970	-200,000	-0,014	-0,070
-504,956	-172,266	-0,101	-0,002
-503,941	515,587	-0,031	-0,054
-502,926	-22,971	0,047	0,021
-501,912	-200,000	-0,007	-0,027
-500,897	-13,090	0,038	0,018
-499,883	-200,000	0,014	0,159
-498,868	486,227	-0,056	0,095
-497,853	800,000	-0,059	-0,158
-496,839	109,347	0,117	-0,103
-495,824	800,000	-0,034	0,082
-494,810	-200,000	0,000	0,076
-493,795	-200,000	0,005	0,080
-492,781	-98,331	0,158	-0,030
-491,766	781,872	0,033	0,068
-490,751	229,532	0,051	-0,062
-489,737	214,375	0,035	0,041
-488,722	30,700	0,062	0,039
-487,708	-200,000	-0,005	0,016
-486,693	530,162	-0,010	0,018
-485,678	-97,016	-0,064	0,012
-484,664	255,542	-0,013	-0,016
-483,649	265,738	-0,034	0,044
-482,635	-200,000	0,008	0,111
-481,620	199,016	0,072	0,082
-480,605	474,747	0,012	0,020
-479,591	-200,000	-0,006	0,039
-478,576	-33,534	0,087	0,035
-477,562	119,582	-0,007	-0,006
-476,547	-200,000	-0,003	-0,071
-475,532	341,593	-0,027	-0,039
-474,518	-34,851	0,175	-0,070
-473,503	-139,941	0,085	0,007
-472,489	-73,822	0,031	0,008
-471,474	-95,886	0,086	0,017
-470,459	-200,000	0,017	-0,081
-469,445	499,849	-0,034	-0,058
-468,430	77,874	-0,105	0,082
-467,416	-71,771	0,100	-0,027
-466,401	-25,586	0,126	0,055
-465,386	435,897	-0,036	0,057
-464,372	-200,000	-0,021	-0,093
-463,357	70,755	0,114	-0,087
-462,343	77,502	-0,081	0,063
-461,328	202,329	-0,078	-0,089
-460,313	723,442	0,054	-0,106
-459,299	121,539	-0,030	0,027
-458,284	-54,479	0,049	0,016
-457,270	124,195	-0,040	0,037
-456,255	-36,860	-0,060	-0,024
-455,241	111,189	-0,026	-0,023
-454,226	-86,115	-0,048	-0,011
-453,211	56,970	0,047	-0,034
-452,197	800,000	0,048	-0,107
-451,182	137,410	-0,076	0,073
-450,168	800,000	-0,044	0,097
-449,153	-98,801	-0,011	0,002
-448,138	336,607	-0,091	-0,130
-447,124	-200,000	-0,009	0,155
-446,109	69,961	-0,060	-0,046
-445,095	-200,000	0,011	-0,040
-444,080	360,595	-0,074	0,110
-443,065	180,849	0,057	-0,062
-442,051	109,752	-0,051	0,045
-441,036	-160,521	-0,060	-0,002
-440,022	-200,000	0,004	-0,095
-439,007	199,152	-0,037	-0,042
-437,992	-200,000	-0,023	0,102
-436,978	-200,000	0,019	0,141
-435,963	-96,991	-0,044	-0,008
-434,949	-93,552	0,086	-0,017
-433,934	19,929	-0,120	-0,071
-432,919	800,000	0,016	-0,048
-431,905	55,482	-0,035	-0,025
-430,890	800,000	0,035	-0,078
-429,876	800,000	-0,031	0,079
-428,861	-200,000	0,015	0,086
-427,846	-104,036	0,123	0,021
-426,832	-58,190	-0,106	-0,034
-425,817	-200,000	0,005	-0,155
-424,803	83,639	0,088	-0,070
-423,788	-15,930	0,016	-0,007
-422,773	-200,000	-0,002	0,012
-421,759	34,237	0,091	0,058
-420,744	-182,027	0,155	-0,002
-419,730	-200,000	-0,004	-0,102
-418,715	-200,000	-0,033	-0,109
-417,701	-200,000	-0,007	0,045
-416,686	-35,752	0,073	0,029
-415,671	-3,694	0,043	-0,022
-414,657	759,241	0,059	0,117
-413,642	405,209	-0,069	0,107
-412,628	538,736	-0,036	-0,063
-411,613	376,269	-0,011	-0,016
-410,598	-0,775	-0,016	-0,008
-409,584	-200,000	-0,026	0,126
-408,569	-190,006	0,128	-0,001
-407,555	800,000	-0,031	0,072
-406,540	-37,666	-0,049	-0,019
-405,525	800,000	0,028	-0,076
-404,511	320,577	0,034	-0,048
-403,496	333,969	-0,017	0,025
-402,482	28,644	-0,061	-0,038
-401,467	-62,857	0,118	0,036
-400,452	-200,000	0,004	0,074
-399,438	-200,000	0,011	0,161
-398,423	-200,000	-0,024	-0,110
-397,409	-83,978	0,072	-0,017
-396,394	127,047	-0,094	-0,088
-395,379	32,417	0,014	-0,009
-394,365	-140,982	0,055	-0,004
-393,350	-200,000	-0,003	0,074
-392,336	-200,000	0,004	0,055
-391,321	74,110	-0,037	0,028
-390,306	-94,914	0,053	0,011
-389,292	74,900	0,043	-0,033
-388,277	-200,000	0,005	-0,120
-387,263	-200,000	0,032	-0,136
-386,248	683,446	0,059	0,113
-385,233	671,642	-0,013	0,024
-384,219	800,000	-0,048	0,101
-383,204	312,916	-0,009	-0,013
-382,190	45,408	0,098	-0,066
-381,175	-200,000	0,002	-0,099
-380,160	-185,025	-0,043	-0,000
-379,146	-38,576	0,111	0,043
-378,131	-200,000	-0,013	0,191
-377,117	92,134	0,016	0,013
-376,102	-165,482	-0,067	0,002
-375,088	-172,930	-0,108	0,002
-374,073	800,000	0,037	0,086
-373,058	-175,941	0,089	-0,002
-372,044	537,528	0,042	-0,074
-371,029	-44,552	0,137	0,050
-370,015	8,440	-0,137	-0,075
-369,000	800,000	0,034	-0,099
-367,985	-52,797	0,082	0,027
-366,971	116,092	0,100	0,090
-365,956	-91,514	0,065	-0,014
-364,942	800,000	-0,077	0,171
-363,927	-17,548	0,068	0,031
-362,912	74,302	-0,070	-0,054
-361,898	-200,000	-0,003	0,083
-360,883	-200,000	-0,006	0,039
-359,869	35,147	0,086	-0,055
-358,854	69,985	-0,098	-0,074
-357,839	800,000	0,043	0,129
-356,825	39,704	0,081	-0,053
-355,810	450,692	-0,077	0,125
-354,796	-98,942	0,076	-0,014
-353,781	-18,548	0,039	-0,018
-352,766	-75,522	0,038	-0,010
-351,752	192,852	0,080	0,088
-350,737	-200,000	-0,040	0,178
-349,723	191,439	-0,071	-0,078
-348,708	272,803	-0,057	0,074
-347,693	32,081	0,043	0,027
-346,679	269,318	-0,131	-0,169
-345,664	230,867	-0,112	-0,134
-344,650	800,000	-0,045	0,104
-343,635	549,030	0,053	-0,093
-342,620	504,810	0,065	0,110
-341,606	711,945	-0,052	-0,100
-340,591	800,000	-0,024	-0,050
-339,577	222,150	-0,010	0,012
-338,562	800,000	-0,024	0,074
-337,548	30,706	-0,181	0,113
-336,533	800,000	0,039	0,115
-335,518	479,549	0,024	0,040
-334,504	25,399	0,074	-0,045
-333,489	61,780	0,010	-0,007
-332,475	-200,000	0,005	-0,095
-331,460	800,000	-0,024	-0,052
-330,445	-200,000	0,003	-0,045
-329,431	-34,851	0,038	0,015
-328,416	95,393	0,158	0,132
-327,402	-139,885	0,081	0,006
-326,387	157,768	0,056	0,057
-325,372	800,000	0,014	-0,037
-324,358	-200,000	-0,004	-0,090
-323,343	-17,239	0,039	-0,018
-322,329	800,000	0,032	0,094
-321,314	95,844	-0,114	0,095
-320,299	-22,922	-0,023	0,010
-319,285	-126,643	-0,163	-0,017
-318,270	-200,000	-0,013	0,085
-317,256	-200,000	-0,003	-0,129
-316,241	547,193	0,019	0,034
-315,226	-200,000	0,008	-0,081
-314,212	800,000	0,033	0,091
-313,197	94,027	0,024	0,020
-312,183	-200,000	-0,029	0,215
-311,168	-151,051	-0,091	-0,005
-310,153	800,000	-0,025	-0,059
-309,139	-200,000	-0,032	-0,193
-308,124	-200,000	-0,001	-0,015
-307,110	295,968	0,048	0,065
-306,095	-63,841	0,138	0,041
-305,080	194,066	-0,038	-0,043
-304,066	-31,488	0,036	0,015
-303,051	33,026	0,074	-0,047
-302,037	-200,000	0,008	0,042
-301,022	20,843	0,021	-0,012
-300,008	584,475	-0,024	-0,043
-298,993	-53,919	-0,192	-0,064
-297,978	800,000	0,025	-0,068
-296,964	125,996	-0,047	0,044
-295,949	23,154	-0,096	-0,058
-294,935	-200,000	0,000	-0,023
-293,920	-175,175	-0,073	0,001
-292,905	-3,250	-0,058	-0,029
-291,891	-200,000	0,016	-0,127
-290,876	-12,929	-0,144	-0,068
-289,862	28,582	-0,058	-0,036
-288,847	-200,000	-0,014	-0,161
-287,832	771,049	0,056	-0,112
-286,818	-34,528	0,155	-0,062
-285,803	775,749	0,031	0,062
-284,789	-200,000	0,004	-0,026
-283,774	-2,573	0,059	0,030
-282,759	-200,000	-0,020	-0,117
-281,745	-78,513	0,094	-0,023
-280,730	-200,000	-0,004	0,026
-279,716	-52,374	0,010	-0,003
-278,701	409,586	0,045	0,070
-277,686	167,531	0,028	-0,029
-276,672	-200,000	0,025	0,124
-275,657	-12,284	0,086	-0,041
-274,643	72,882	0,060	0,046
-273,628	-200,000	-0,018	0,080
-272,613	-36,617	-0,095	-0,037
-271,599	-54,933	0,059	0,019
-270,584	800,000	0,022	0,046
-269,570	553,854	0,050	0,088
-268,555	-200,000	0,024	0,151
-267,540	42,098	0,038	0,025
-266,526	-94,658	-0,117	-0,023
-265,511	-200,000	-0,035	0,139
-264,497	193,586	0,023	-0,025
-263,482	104,278	0,011	0,010
-262,467	286,663	0,075	0,099
-261,453	189,206	-0,070	-0,076
-260,438	-16,316	0,049	0,023
-259,424	800,000	0,044	-0,110
-258,409	-200,000	0,015	0,049
-257,395	679,479	0,045	-0,087
-256,380	26,289	-0,084	0,051
-255,365	-18,222	-0,138	-0,063
-254,351	104,535	0,033	0,028
-253,336	-79,975	-0,064	0,016
-252,322	-200,000	-0,036	-0,152
-251,307	350,777	-0,035	-0,051
-250,292	89,083	0,079	0,064
-249,278	-18,741	-0,078	0,035
-248,263	-98,423	-0,127	0,023
-247,249	-200,000	0,017	0,152
-246,234	-200,000	-0,007	0,088
-245,219	-91,376	-0,189	-0,039
-244,205	568,527	0,014	-0,026
-243,190	-33,399	0,122	-0,049
-242,176	-17,417	0,068	0,031
-241,161	-200,000	-0,009	-0,040
-240,146	-200,000	-0,020	0,104
-239,132	-165,465	0,047	-0,001
-238,117	-139,152	-0,048	0,004
-237,103	243,122	-0,021	-0,026
-236,088	158,385	0,068	-0,069
-235,073	-21,923	0,110	0,049
-234,059	-200,000	-0,042	0,199
-233,044	545,702	-0,021	0,037
-232,030	-107,666	0,024	-0,004
-231,015	-65,388	-0,028	0,008
-230,000	800,000	-0,050	0,137
-228,986	-200,000	0,027	0,094
-227,971	-24,390	-0,040	-0,017
-226,957	-172,309	0,126	-0,003
-225,942	-28,404	-0,095	-0,040
-224,927	-85,719	-0,075	0,017
-223,913	-200,000	0,014	-0,097
-222,898	470,760	0,062	-0,102
-221,884	-200,000	0,003	-0,068
-220,869	-71,097	0,146	-0,040
-219,855	-172,517	0,241	-0,005
-218,840	-62,445	-0,036	-0,011
-217,825	-48,773	-0,074	0,026
-216,811	13,228	-0,129	-0,073
-215,796	66,498	0,048	-0,036
-214,782	18,894	0,020	-0,012
-213,767	253,514	-0,060	-0,075
-212,752	-99,324	0,093	-0,017
-211,738	-14,564	-0,060	0,028
-210,723	-42,692	-0,078	-0,029
-209,709	-200,000	-0,010	0,050
-208,694	25,929	0,132	0,080
-207,679	-200,000	-0,047	-0,153
-206,665	-200,000	-0,018	0,071
-205,650	788,567	0,016	-0,033
-204,636	170,089	0,086	0,090
-203,621	-200,000	0,001	0,128
-202,606	140,657	-0,135	0,130
-201,592	800,000	0,034	-0,082
-200,577	67,088	-0,081	0,060
-199,563	-64,823	-0,173	0,051
-198,548	-200,000	0,001	-0,123
-197,533	147,545	-0,035	0,034
-196,519	-200,000	-0,027	0,134
-195,504	119,864	0,043	0,039
-194,490	-87,876	-0,109	0,024
-193,475	-200,000	0,004	0,072
-192,460	-200,000	0,005	-0,029
-191,446	-200,000	0,002	-0,017
-190,431	132,660	0,058	0,054
-189,417	-83,619	0,037	0,008
-188,402	800,000	0,013	-0,031
-187,387	-200,000	0,012	-0,085
-186,373	-17,309	-0,097	0,045
-185,358	637,769	0,097	0,181
-184,344	800,000	-0,028	0,085
-183,329	-108,828	0,070	0,011
-182,315	-200,000	0,022	0,121
-181,300	736,691	-0,017	0,032
-180,285	-11,837	-0,086	0,041
-179,271	774,772	0,008	-0,016
-178,256	432,508	0,081	-0,128
-177,242	-200,000	-0,031	-0,112
-176,227	-200,000	0,006	0,082
-175,212	-3,072	0,093	0,047
-174,198	-8,690	-0,014	-0,007
-173,183	-81,046	-0,043	0,010
-172,169	189,999	0,017	0,019
-171,154	-200,000	0,020	0,068
-170,139	423,265	0,065	0,102
-169,125	368,118	0,109	0,162
-168,110	-200,000	0,003	-0,064
-167,096	227,957	0,067	-0,079
-166,081	209,955	-0,069	0,079
-165,066	89,497	-0,037	-0,030
-164,052	-9,521	-0,175	0,085
-163,037	-145,961	0,072	0,005
-162,023	438,143	0,026	0,041
-161,008	499,498	-0,058	0,098
-159,993	63,458	-0,017	0,013
-158,979	-200,000	0,026	0,121
-157,964	377,243	-0,077	0,114
-156,950	-36,667	-0,060	-0,023
-155,935	-56,944	-0,153	-0,049
-154,920	800,000	0,045	0,116
-153,906	-96,135	0,139	-0,027
-152,891	-200,000	-0,023	0,103
-151,877	-3,236	-0,087	0,044
-150,862	-23,079	-0,060	-0,026
-149,847	-46,088	0,034	0,012
-148,833	-92,948	0,130	-0,026
-147,818	800,000	-0,076	0,179
-146,804	107,982	0,065	-0,057
-145,789	-200,000	0,029	0,135
-144,775	-23,236	0,122	0,053
-143,760	-97,853	-0,093	0,017
-142,745	-200,000	-0,012	-0,098
-141,731	114,663	0,025	0,022
-140,716	357,487	-0,015	0,022
-139,702	223,319	0,106	0,124
-138,687	-57,081	-0,087	0,028
-137,672	-200,000	-0,003	-0,076
-136,658	197,249	0,068	-0,075
-135,643	6,827	0,094	-0,051
-134,629	382,161	0,024	0,035
-133,614	-200,000	0,008	-0,034
-132,599	-200,000	0,006	0,079
-131,585	55,203	-0,069	-0,048
-130,570	292,394	0,046	-0,061
-129,556	-200,000	-0,005	0,084
-128,541	-200,000	-0,001	-0,007
-127,526	800,000	0,037	0,084
-126,512	800,000	0,034	-0,101
-125,497	-98,103	0,058	0,011
-124,483	800,000	-0,015	-0,046
-123,468	-133,331	-0,043	0,004
-122,453	-178,201	-0,074	-0,001
-121,439	-200,000	0,000	0,097
-120,424	-135,189	0,021	0,002
-119,410	-138,699	0,077	-0,006
-118,395	16,776	0,082	0,047
-117,380	27,945	0,015	-0,009
-116,366	-94,934	0,137	0,027
-115,351	-27,869	0,034	-0,014
-114,337	800,000	-0,044	-0,096
-113,322	800,000	0,027	-0,059
-112,307	800,000	0,028	-0,076
-111,293	29,537	0,046	0,028
-110,278	20,736	0,047	0,028
-109,264	320,328	0,036	-0,049
-108,249	800,000	0,054	0,160
-107,234	-200,000	-0,002	-0,070
-106,220	-200,000	0,024	-0,099
-105,205	-200,000	0,005	-0,083
-104,191	-200,000	0,016	-0,082
-103,176	76,332	0,101	0,077
-102,162	-200,000	-0,052	0,000
-101,147	341,154	-0,026	0,038
-100,132	-21,404	-0,136	-0,060
-99,118	-175,133	0,097	-0,002
-98,103	92,181	-0,073	-0,060
-97,089	-91,464	0,061	0,012
-96,074	421,556	0,077	0,120
-95,059	-200,000	0,004	0,079
-94,045	352,845	-0,048	0,069
-93,030	-200,000	-0,001	0,016
-92,016	-141,243	-0,050	0,004
-91,001	-46,207	-0,038	-0,014
-89,986	152,027	-0,089	0,088
-88,972	274,994	-0,083	0,108
-87,957	-200,000	0,021	-0,108
-86,943	-27,895	0,049	0,020
-85,928	130,403	0,082	-0,077
-84,913	474,915	-0,048	-0,079
-83,899	287,689	0,057	0,075
-82,884	-200,000	0,005	0,115
-81,870	-47,503	-0,102	0,036
-80,855	-91,727	0,231	0,047
-79,840	800,000	0,023	-0,066
-78,826	67,981	0,087	0,065
-77,811	-59,875	-0,070	0,022
-76,797	162,615	-0,009	0,009
-75,782	-18,589	-0,100	-0,045
-74,767	-200,000	0,023	0,097
-73,753	-200,000	0,005	0,057
-72,738	525,295	0,011	0,019
-71,724	-200,000	0,040	0,140
-70,709	800,000	0,012	-0,025
-69,694	69,050	0,154	0,115
-68,680	800,000	0,006	-0,017
-67,665	-78,822	-0,013	-0,003
-66,651	8,877	-0,059	-0,032
-65,636	321,265	-0,055	0,077
-64,622	350,188	-0,047	0,067
-63,607	800,000	-0,014	0,042
-62,592	-46,770	-0,056	-0,020
-61,578	-31,328	0,181	-0,073
-60,563	-200,000	-0,010	-0,031
-59,549	-200,000	0,006	0,079
-58,534	-127,541	-1,478	-0,154
-57,519	517,776	-0,902	-1,536
-56,505	-200,000	-0,995	-4,448
-55,490	-53,998	0,718	-0,236
-54,476	800,000	5,053	11,615
-53,461	-200,000	14,178	254,002
-52,446	-200,000	695,142	2235,801
-51,432	570,110	1624,967	2876,986
-50,417	117,126	1632,062	1453,486
-49,403	72,708	1285,736	971,557
-48,388	37,461	1022,773	656,064
-47,373	23,767	981,104	584,353
-46,359	22,928	970,821	575,456
-45,344	21,941	966,724	569,782
-44,330	21,935	964,986	568,718
-43,315	21,798	963,688	567,484
-42,300	21,813	962,672	566,912
-41,286	21,766	961,598	566,104
-40,271	21,776	960,514	565,475
-39,257	21,746	959,683	564,865
-38,242	21,810	958,480	564,345
-37,227	21,780	957,748	563,792
-36,213	21,714	956,923	563,072
-35,198	21,756	956,112	562,708
-34,184	21,787	955,526	562,441
-33,169	21,753	954,565	561,742
-32,154	21,816	953,699	561,414
-31,140	21,751	952,912	560,718
-30,125	21,787	952,091	560,329
-29,111	21,787	951,035	559,684
-28,096	21,875	950,517	559,640
-27,082	21,832	949,739	559,024
-26,067	21,830	949,098	558,619
-25,052	21,750	948,330	557,887
-24,038	21,822	947,680	557,713
-23,023	21,794	946,993	557,196
-22,009	21,845	946,432	557,006
-20,994	21,819	945,783	556,521
-19,979	21,755	945,027	555,848
-18,965	21,771	944,497	555,566
-17,950	21,811	943,862	555,298
-16,936	21,765	943,228	554,757
-15,921	21,679	942,645	554,119
-14,906	21,651	941,758	553,486
-13,892	21,670	941,234	553,217
-12,877	21,663	940,549	552,770
-11,863	21,602	939,979	552,219
-10,848	21,627	939,546	552,023
-9,833	21,803	938,923	552,193
-8,819	21,788	938,326	551,771
-7,804	21,683	937,748	551,077
-6,790	21,665	937,153	550,649
-5,775	21,679	936,439	550,252
-4,760	21,673	935,867	549,875
-3,746	21,633	935,206	549,338
-2,731	21,520	934,565	548,585
-1,717	21,491	933,798	548,019
-0,702	21,530	933,077	547,698
0,313	21,327	932,450	547,517
1,327	24,280	930,617	555,665
2,342	33,603	794,235	499,008
3,356	31,287	450,398	279,473
4,371	0,781	293,701	151,811
5,386	-3,461	274,596	137,913
6,400	-4,720	269,019	133,933
7,415	-5,044	266,635	132,436
8,429	-4,863	265,407	131,980
9,444	-4,715	264,419	131,612
10,459	-4,780	263,869	131,267
11,473	-4,835	263,254	130,899
12,488	-5,040	262,827	130,490
13,502	-5,054	262,298	130,203
14,517	-5,070	261,812	129,936
15,531	-5,051	261,531	129,802
16,546	-4,891	261,019	129,680
17,561	-4,984	260,776	129,464
18,575	-4,811	260,407	129,424
19,590	-5,136	260,164	129,001
20,604	-4,835	259,863	129,109
21,619	-5,086	259,382	128,635
22,634	-5,180	259,285	128,491
23,648	-5,032	258,832	128,388
24,663	-5,138	258,498	128,115
25,677	-5,146	258,546	128,121
26,692	-4,995	258,018	127,982
27,707	-4,967	257,796	127,885
28,721	-4,861	257,566	127,854
29,736	-5,145	257,422	127,519
30,750	-5,286	257,007	127,177
31,765	-5,166	256,810	127,175
32,780	-5,276	256,585	126,955
33,794	-5,220	256,529	126,965
34,809	-5,487	256,261	126,586
35,823	-5,129	255,833	126,679
36,838	-5,214	255,633	126,493
37,853	-5,147	255,326	126,389
38,867	-5,375	255,211	126,120
39,882	-5,209	254,982	126,142
40,896	-5,313	254,825	125,962
41,911	-5,124	254,592	126,001
42,926	-5,238	254,280	125,735
43,940	-5,425	254,120	125,481
44,955	-5,291	253,734	125,397
45,969	-5,252	253,725	125,416
46,984	-5,490	253,270	124,972
47,999	-5,795	253,168	124,645
49,013	-5,788	252,951	124,533
50,028	-5,881	252,673	124,304
51,042	-5,969	252,484	124,124
52,057	-6,148	252,248	123,842
53,071	-5,949	251,994	123,879
54,086	-5,811	251,815	123,899
55,101	-5,687	251,791	123,983
56,115	-5,309	251,544	124,177
57,130	-5,040	251,287	124,271
58,144	-4,996	251,297	124,303
59,159	-5,031	251,053	124,142
60,174	-5,077	250,821	123,976
61,188	-4,914	250,620	124,006
62,203	-5,016	250,419	123,807
63,217	-5,147	250,247	123,599
64,232	-4,944	249,942	123,611
65,247	-4,907	249,760	123,541
66,261	-5,156	249,424	123,151
67,276	-5,107	249,127	123,036
68,290	-5,344	248,922	122,721
69,305	-5,624	248,843	122,432
70,320	-5,448	248,603	122,453
71,334	-5,442	248,627	122,460
72,349	-5,211	248,334	122,501
73,363	-4,980	248,239	122,640
74,378	-5,038	247,935	122,430
75,393	-5,170	247,696	122,188
76,407	-5,100	247,470	122,126
77,422	-5,025	247,242	122,065
78,436	-5,026	247,003	121,936
79,451	-5,175	246,921	121,758
80,466	-5,017	246,552	121,699
81,480	-5,284	246,445	121,410
82,495	-5,332	246,288	121,281
83,509	-5,309	246,078	121,186
84,524	-5,346	245,922	121,068
85,539	-5,561	245,768	120,800
86,553	-5,414	245,426	120,745
87,568	-5,483	245,424	120,675
88,582	-5,207	245,096	120,735
89,597	-5,267	244,827	120,541
90,611	-5,091	244,750	120,640
91,626	-5,317	244,803	120,465
92,641	-5,162	244,449	120,411
93,655	-5,135	244,254	120,327
94,670	-5,351	244,054	120,036
95,684	-5,290	243,869	119,986
96,699	-5,223	243,704	119,950
97,714	-5,210	243,488	119,843
98,728	-5,372	243,192	119,552
99,743	-5,356	242,974	119,448
100,757	-5,599	242,842	119,170
101,772	-5,542	242,796	119,184
102,787	-5,339	242,530	119,212
103,801	-5,130	242,328	119,275
104,816	-5,144	242,257	119,218
105,830	-5,093	242,061	119,153
106,845	-5,083	241,911	119,077
107,860	-5,081	241,846	119,035
108,874	-5,238	241,459	118,705
109,889	-5,366	241,356	118,538
110,903	-5,171	241,096	118,561
111,918	-5,294	240,920	118,363
112,933	-5,431	240,870	118,214
113,947	-5,130	240,589	118,314
114,962	-5,171	240,413	118,183
115,976	-5,241	240,346	118,082
116,991	-5,111	239,983	117,999
118,006	-5,125	239,954	117,964
119,020	-5,075	239,771	117,904
120,035	-5,287	239,838	117,752
121,049	-5,018	239,448	117,770
122,064	-5,177	239,445	117,629
123,079	-4,966	239,122	117,632
124,093	-5,208	238,930	117,330
125,108	-5,549	238,855	117,004
126,122	-5,612	238,479	116,758
127,137	-5,593	238,336	116,693
128,151	-5,493	238,041	116,620
129,166	-5,397	238,108	116,720
130,181	-5,432	237,692	116,477
131,195	-5,445	237,610	116,416
132,210	-5,213	237,443	116,512
133,224	-4,952	237,267	116,626
134,239	-5,360	237,283	116,294
135,254	-5,115	236,911	116,299
136,268	-5,119	236,856	116,258
137,283	-5,478	236,618	115,841
138,297	-5,475	236,324	115,689
139,312	-5,660	236,082	115,412
140,327	-5,330	236,065	115,659
141,341	-4,791	235,859	115,981
142,356	-4,738	235,966	116,066
143,370	-4,869	235,813	115,875
144,385	-4,750	235,511	115,812
145,400	-4,724	235,365	115,750
146,414	-5,034	235,215	115,418
147,429	-4,879	235,069	115,460
148,443	-4,593	234,673	115,484
149,458	-4,824	234,808	115,355
150,473	-5,119	234,566	114,990
151,487	-4,875	234,288	115,039
152,502	-4,980	234,223	114,913
153,516	-5,054	234,012	114,740
154,531	-4,861	233,806	114,782
155,546	-5,061	233,848	114,634
156,560	-5,118	233,731	114,521
157,575	-5,057	233,251	114,323
158,589	-4,825	232,875	114,313
159,604	-4,878	233,052	114,348
160,619	-4,754	232,893	114,358
161,633	-4,817	232,732	114,219
162,648	-4,713	232,614	114,233
163,662	-4,928	232,389	113,942
164,677	-5,057	232,330	113,801
165,692	-4,897	232,133	113,820
166,706	-4,915	232,037	113,749
167,721	-4,566	231,706	113,852
168,735	-4,648	231,588	113,719
169,750	-4,990	231,469	113,381
170,764	-4,984	231,340	113,313
171,779	-4,801	231,246	113,401
172,794	-5,019	231,081	113,138
173,808	-5,060	230,850	112,983
174,823	-5,368	230,513	112,567
175,837	-5,367	230,294	112,451
176,852	-5,158	230,280	112,597
177,867	-5,063	230,255	112,649
178,881	-5,030	230,261	112,668
179,896	-4,626	229,997	112,844
180,910	-4,765	229,917	112,686
181,925	-4,900	229,670	112,450
182,940	-4,846	229,473	112,385
183,954	-4,598	229,280	112,474
184,969	-4,451	229,074	112,478
185,983	-4,657	229,040	112,290
186,998	-4,819	229,088	112,178
188,013	-4,506	228,759	112,250
189,027	-4,634	228,511	112,019
190,042	-4,702	228,519	111,960
191,056	-4,603	228,384	111,961
192,071	-4,650	228,149	111,799
193,086	-4,672	228,050	111,724
194,100	-4,493	227,749	111,705
195,115	-5,062	227,583	111,174
196,129	-5,347	227,377	110,844
197,144	-2,873	227,996	113,048
198,159	1,644	229,204	117,139
199,173	3,619	229,822	118,978
200,188	3,999	229,722	119,209
201,202	4,016	229,476	119,084
202,217	4,053	229,535	119,133
203,232	4,448	229,429	119,373
204,246	4,508	229,347	119,366
205,261	4,405	229,249	119,225
206,275	4,918	228,956	119,457
207,290	4,698	228,828	119,210
208,304	4,471	228,920	119,072
209,319	4,655	228,460	118,965
210,334	4,489	228,419	118,805
211,348	4,319	228,175	118,536
212,363	3,795	227,974	118,019
213,377	3,607	227,658	117,701
214,392	3,642	227,530	117,651
215,407	3,871	227,365	117,731
216,421	3,992	227,220	117,737
217,436	3,979	226,952	117,578
218,450	3,703	226,866	117,312
219,465	3,679	226,562	117,126
220,480	3,722	226,533	117,134
221,494	3,479	226,586	116,965
222,509	3,719	226,433	117,059
223,523	3,605	226,238	116,861
224,538	3,568	226,074	116,738
225,553	3,780	225,806	116,749
226,567	3,928	225,710	116,802
227,582	3,916	225,758	116,807
228,596	3,919	225,710	116,774
229,611	3,691	225,477	116,470
230,626	3,657	225,265	116,325
231,640	3,487	225,000	116,049
232,655	3,905	225,013	116,361
233,669	4,400	224,994	116,716
234,684	4,582	224,728	116,705
235,699	4,177	224,600	116,323
236,713	3,942	224,392	116,027
237,728	3,751	224,274	115,812
238,742	3,918	223,866	115,716
239,757	3,953	223,729	115,662
240,772	3,821	223,697	115,535
241,786	3,775	223,433	115,355
242,801	4,047	223,446	115,555
243,815	4,224	223,250	115,576
244,830	4,128	223,226	115,481
245,844	3,878	223,087	115,212
246,859	3,878	222,873	115,091
247,874	3,921	222,831	115,091
248,888	4,168	222,566	115,129
249,903	3,757	222,552	114,804
250,917	3,973	222,320	114,835
251,932	3,881	222,165	114,676
252,947	3,679	221,939	114,399
253,961	3,963	221,593	114,422
254,976	4,127	221,630	114,552
255,990	3,754	221,738	114,320
257,005	4,102	221,445	114,418
258,020	4,173	221,220	114,344
259,034	4,094	221,327	114,331
260,049	4,316	221,015	114,324
261,063	4,024	220,895	114,035
262,078	4,094	220,841	114,049
263,093	4,030	220,807	113,974
264,107	4,071	220,498	113,835
265,122	4,199	220,378	113,857
266,136	4,080	220,236	113,686
267,151	4,425	220,050	113,834
268,166	3,970	219,818	113,369
269,180	3,757	219,557	113,067
270,195	3,845	219,460	113,072
271,209	3,446	219,490	112,783
272,224	3,836	219,294	112,959
273,239	3,820	219,148	112,863
274,253	3,719	219,054	112,730
275,268	3,635	218,778	112,516
276,282	3,308	218,710	112,232
277,297	3,719	218,441	112,384
278,312	3,537	218,385	112,213
279,326	3,981	218,249	112,457
280,341	3,686	218,113	112,161
281,355	3,791	218,067	112,205
282,370	3,762	217,796	112,034
283,384	3,431	217,632	111,698
284,399	3,529	217,465	111,674
285,414	3,700	217,332	111,720
286,428	3,659	217,177	111,601
287,443	3,891	217,232	111,788
288,457	4,134	216,905	111,785
289,472	3,938	216,828	111,593
290,487	3,375	216,788	111,155
291,501	3,049	216,647	110,837
292,516	3,447	216,321	110,948
293,530	3,362	216,221	110,825
294,545	3,351	216,217	110,805
295,560	3,299	216,106	110,701
296,574	4,040	215,869	111,105
297,589	4,017	215,897	111,092
298,603	3,949	215,713	110,939
299,618	4,053	215,671	110,982
300,633	4,025	215,381	110,803
301,647	4,067	215,279	110,771
302,662	4,115	215,163	110,736
303,676	4,074	215,023	110,625
304,691	4,152	214,745	110,527
305,706	4,012	214,659	110,373
306,720	4,071	214,546	110,347
307,735	3,673	214,524	110,041
308,749	3,638	214,185	109,832
309,764	4,012	214,159	110,077
310,779	4,121	213,983	110,054
311,793	4,134	213,836	109,978
312,808	4,112	213,634	109,849
313,822	4,040	213,469	109,703
314,837	3,579	213,427	109,343
315,852	3,839	213,311	109,459
316,866	3,864	213,202	109,411
317,881	3,942	213,067	109,388
318,895	3,841	212,936	109,239
319,910	3,806	212,718	109,092
320,925	3,526	212,656	108,852
321,939	3,271	212,265	108,461
322,954	3,197	212,256	108,395
323,968	3,677	212,141	108,667
324,983	3,835	212,247	108,823
325,997	4,196	212,046	108,965
327,012	3,982	211,920	108,740
328,027	3,816	211,694	108,497
329,041	4,058	211,719	108,671
330,056	4,263	211,615	108,752
331,070	4,021	211,331	108,426
332,085	3,662	211,060	108,024
333,100	3,700	210,913	107,967
334,114	3,834	210,815	108,001
335,129	3,989	210,666	108,024
336,143	3,556	210,545	107,649
337,158	3,570	210,384	107,566
338,173	3,568	210,315	107,520
339,187	3,778	210,065	107,529
340,202	3,523	209,856	107,235
341,216	3,199	209,797	106,969
342,231	3,675	209,618	107,200
343,246	3,777	209,527	107,215
344,260	3,692	209,410	107,086
345,275	3,687	209,362	107,049
346,289	3,933	209,297	107,177
347,304	4,056	209,136	107,171
348,319	3,693	208,985	106,832
349,333	3,632	208,898	106,735
350,348	3,958	208,672	106,836
351,362	3,931	208,770	106,858
352,377	3,746	208,608	106,638
353,392	3,569	208,324	106,360
354,406	3,643	208,352	106,417
355,421	194,732	1345,987	1435,819
356,435	155,404	1484,679	1435,921
