DTS Sentinel unit serial number:	SN410029Multiplexer serial number:	ORYXHardware model number:	OX2-SRSoftware version number:	ORYX F/W v4,00 Oryx Data Collector v3.7.2.0data status	okinstallation	B6 Nyhavnadifferential loss correction	single-endedforward channel	channel 2reverse channel	N/Adate	2023/12/09time	20:50:08forward acquisition time	300,00reverse acquisition time	0,00gamma	499,1914k internal	0,3129k external	0,3129temperature offset calibration	1,0000default loss term (dB/km)	0,3820temperature slope calibration	1,0000multiplexer offset coefficient	1,0000multiplexer slope coefficient	1,0000fibre end	0,00T internal ref (°C)	21,41T ext. ref 1 (°C)	5,37T ext. ref 2 (°C)	5,36length (m)	temperature (°C)	Stokes	anti-Stokes-744,400	-200,000	0,006	-0,097
-743,385	-83,186	-0,221	0,052
-742,371	-200,000	0,003	0,042
-741,356	-164,716	-0,240	0,008
-740,342	-200,000	0,020	-0,197
-739,327	-102,015	-0,320	0,057
-738,312	800,000	-0,028	0,072
-737,298	-109,816	-0,239	0,037
-736,283	-102,353	0,165	-0,029
-735,269	-19,006	-0,114	0,052
-734,254	-98,246	-0,015	-0,003
-733,239	-184,690	-0,417	-0,005
-732,225	-173,527	0,063	-0,001
-731,210	29,186	-0,034	-0,021
-730,196	-200,000	0,031	-0,118
-729,181	800,000	-0,020	0,049
-728,167	-200,000	0,020	-0,068
-727,152	24,488	-0,099	0,061
-726,137	72,468	-0,228	-0,177
-725,123	-2,159	-0,087	-0,045
-724,108	-200,000	-0,021	-0,076
-723,094	444,943	-0,085	-0,139
-722,079	-50,674	-0,114	-0,040
-721,064	-200,000	0,004	0,026
-720,050	-200,000	-0,001	-0,004
-719,035	-96,614	0,109	0,021
-718,021	800,000	-0,039	-0,106
-717,006	-200,000	-0,025	-0,112
-715,991	-200,000	-0,009	-0,155
-714,977	8,106	-0,100	-0,055
-713,962	-200,000	0,011	-0,080
-712,948	207,965	-0,042	-0,049
-711,933	25,146	0,084	0,052
-710,918	655,118	-0,062	-0,119
-709,904	111,273	0,074	-0,066
-708,889	800,000	0,046	-0,128
-707,875	800,000	-0,065	-0,149
-706,860	-39,665	-0,053	-0,021
-705,845	-200,000	0,000	0,030
-704,831	-200,000	0,054	0,180
-703,816	77,904	0,067	-0,053
-702,802	-178,503	-0,142	0,002
-701,787	375,351	0,067	-0,102
-700,772	196,071	-0,053	-0,060
-699,758	-119,832	0,087	-0,011
-698,743	-132,543	-0,074	-0,007
-697,729	225,588	-0,065	0,078
-696,714	-106,558	0,146	-0,024
-695,699	-4,813	-0,023	-0,012
-694,685	-200,000	0,002	-0,068
-693,670	-154,545	-0,146	-0,007
-692,656	-101,251	-0,059	0,011
-691,641	-43,775	0,058	0,021
-690,627	155,163	0,063	0,065
-689,612	67,376	-0,135	0,102
-688,597	800,000	0,050	-0,144
-687,583	800,000	0,022	0,057
-686,568	-88,327	-0,148	0,033
-685,554	-129,687	-0,107	0,011
-684,539	260,885	-0,024	0,031
-683,524	235,307	0,021	-0,026
-682,510	-200,000	0,008	0,054
-681,495	-136,280	0,087	-0,007
-680,481	58,228	-0,137	-0,099
-679,466	-200,000	0,020	-0,066
-678,451	-71,275	-0,079	-0,022
-677,437	-200,000	-0,011	-0,054
-676,422	-74,773	0,111	0,029
-675,408	62,410	-0,071	0,052
-674,393	49,511	0,128	-0,089
-673,378	31,681	-0,047	0,030
-672,364	54,379	0,014	0,010
-671,349	104,861	0,101	-0,088
-670,335	305,613	0,047	-0,065
-669,320	177,994	0,063	-0,069
-668,305	-4,331	-0,032	-0,016
-667,291	314,921	-0,077	0,108
-666,276	78,939	-0,057	0,046
-665,262	-200,000	-0,015	-0,083
-664,247	-100,284	0,119	-0,022
-663,232	-200,000	-0,028	-0,098
-662,218	800,000	0,047	-0,111
-661,203	25,291	-0,066	0,041
-660,189	-112,649	0,154	0,022
-659,174	391,770	0,033	0,051
-658,159	754,684	-0,044	-0,088
-657,145	139,369	0,096	-0,094
-656,130	-54,479	-0,041	-0,014
-655,116	-200,000	-0,044	-0,157
-654,101	-200,000	0,008	0,124
-653,086	682,654	-0,031	-0,060
-652,072	-200,000	-0,005	-0,081
-651,057	-19,331	-0,117	-0,053
-650,043	-1,684	-0,018	-0,009
-649,028	465,150	-0,039	0,065
-648,014	-79,979	-0,049	0,012
-646,999	458,262	-0,032	0,052
-645,984	-200,000	-0,021	-0,084
-644,970	354,556	-0,063	-0,092
-643,955	24,177	-0,217	-0,132
-642,941	800,000	-0,021	-0,051
-641,926	246,755	0,067	0,084
-640,911	-66,944	-0,068	-0,020
-639,897	-14,956	0,102	-0,048
-638,882	-200,000	0,000	0,024
-637,868	-25,495	-0,086	0,037
-636,853	-200,000	-0,006	-0,055
-635,838	-200,000	-0,004	-0,051
-634,824	800,000	-0,019	0,039
-633,809	-80,873	-0,042	0,010
-632,795	338,182	0,032	-0,046
-631,780	-171,947	0,064	-0,001
-630,765	-39,721	-0,032	-0,012
-629,751	-14,777	-0,119	0,056
-628,736	-18,375	-0,095	0,044
-627,722	-116,348	0,092	-0,013
-626,707	-45,076	-0,156	-0,057
-625,692	-109,306	0,051	-0,008
-624,678	519,920	0,067	-0,117
-623,663	8,027	-0,166	-0,092
-622,649	24,881	-0,041	0,025
-621,634	16,448	-0,038	-0,022
-620,619	8,955	-0,080	-0,044
-619,605	-48,342	-0,144	0,051
-618,590	307,990	-0,059	0,081
-617,576	800,000	0,040	0,082
-616,561	-200,000	0,004	0,211
-615,546	-49,709	-0,095	0,033
-614,532	199,402	0,038	0,043
-613,517	800,000	-0,087	-0,182
-612,503	735,121	0,078	0,155
-611,488	-200,000	-0,031	-0,120
-610,474	439,764	0,051	0,082
-609,459	-106,950	-0,113	0,018
-608,444	-41,372	-0,075	-0,028
-607,430	-54,151	0,040	0,013
-606,415	-200,000	-0,013	-0,054
-605,401	-76,318	0,041	0,011
-604,386	59,455	-0,145	0,106
-603,371	-103,045	0,096	0,017
-602,357	-200,000	0,015	0,129
-601,342	-200,000	-0,046	-0,227
-600,328	-147,809	0,062	-0,004
-599,313	-200,000	-0,004	-0,023
-598,298	360,359	-0,049	0,073
-597,284	-57,490	0,139	0,045
-596,269	383,962	0,025	-0,038
-595,255	257,145	-0,004	-0,005
-594,240	108,536	0,029	0,026
-593,225	-200,000	-0,006	-0,155
-592,211	44,024	0,044	-0,030
-591,196	388,522	0,046	-0,070
-590,182	147,327	0,078	0,078
-589,167	-57,926	-0,033	-0,011
-588,152	800,000	-0,078	0,198
-587,138	52,046	-0,050	0,035
-586,123	-200,000	-0,000	-0,025
-585,109	-122,000	0,020	0,002
-584,094	55,817	0,055	-0,039
-583,079	800,000	0,060	0,143
-582,065	603,518	0,071	0,131
-581,050	-200,000	-0,036	0,144
-580,036	800,000	-0,020	-0,055
-579,021	389,930	0,064	0,099
-578,006	-200,000	-0,015	-0,064
-576,992	40,373	-0,081	0,054
-575,977	110,410	-0,059	0,052
-574,963	-92,669	-0,099	0,020
-573,948	-200,000	-0,019	-0,066
-572,934	-94,406	-0,117	-0,023
-571,919	-149,534	-0,167	0,010
-570,904	800,000	-0,021	0,044
-569,890	-110,125	0,035	-0,005
-568,875	-200,000	0,012	0,131
-567,861	800,000	0,025	0,062
-566,846	535,670	-0,026	0,046
-565,831	-200,000	-0,006	0,025
-564,817	-200,000	-0,006	-0,039
-563,802	-52,041	-0,075	0,026
-562,788	-200,000	-0,001	-0,111
-561,773	-111,014	-0,069	0,010
-560,758	-200,000	0,013	0,046
-559,744	800,000	-0,056	0,119
-558,729	130,799	-0,041	0,039
-557,715	274,587	-0,111	-0,145
-556,700	10,397	0,099	0,055
-555,685	5,359	0,061	0,033
-554,671	-200,000	0,022	-0,074
-553,656	528,553	-0,001	0,002
-552,642	122,023	0,136	0,125
-551,627	-119,181	0,061	0,008
-550,612	-164,484	-0,095	-0,003
-549,598	42,531	0,119	-0,080
-548,583	-200,000	0,010	-0,075
-547,569	341,670	0,058	-0,084
-546,554	800,000	-0,014	0,035
-545,539	748,540	0,026	-0,051
-544,525	-200,000	-0,015	0,109
-543,510	-200,000	0,008	0,042
-542,496	800,000	-0,046	-0,116
-541,481	43,940	0,040	-0,027
-540,466	257,200	-0,032	-0,041
-539,452	178,411	-0,027	-0,029
-538,437	251,052	-0,042	-0,053
-537,423	68,699	-0,067	0,050
-536,408	202,562	0,026	0,030
-535,393	4,359	-0,179	-0,097
-534,379	-53,571	-0,094	-0,031
-533,364	-169,820	0,099	-0,003
-532,350	-200,000	0,001	-0,050
-531,335	-81,794	0,010	-0,002
-530,321	-200,000	-0,009	-0,068
-529,306	91,079	-0,050	-0,041
-528,291	20,967	-0,063	0,038
-527,277	-134,533	-0,145	0,013
-526,262	87,228	0,085	0,069
-525,248	-33,359	0,028	-0,011
-524,233	-54,888	0,083	0,027
-523,218	388,646	-0,051	0,077
-522,204	106,527	-0,019	-0,017
-521,189	-93,074	-0,033	-0,007
-520,175	-110,344	-0,138	0,021
-519,160	-200,000	-0,019	0,066
-518,145	-200,000	-0,021	0,115
-517,131	-165,007	0,111	0,004
-516,116	197,451	0,076	-0,086
-515,102	420,849	-0,055	-0,088
-514,087	-200,000	0,002	-0,159
-513,072	800,000	0,030	0,095
-512,058	150,872	-0,139	0,140
-511,043	725,253	0,036	0,072
-510,029	299,856	0,086	0,117
-509,014	96,930	-0,133	0,112
-507,999	-120,852	-0,085	0,010
-506,985	6,726	0,033	-0,018
-505,970	722,151	-0,098	-0,193
-504,956	-17,314	-0,027	0,012
-503,941	140,517	-0,058	-0,056
-502,926	-137,001	-0,092	0,008
-501,912	-121,559	0,056	0,007
-500,897	64,178	0,053	0,039
-499,883	117,122	0,045	0,040
-498,868	-200,000	-0,001	0,095
-497,853	800,000	0,034	-0,093
-496,839	-73,447	0,148	-0,039
-495,824	-200,000	0,010	-0,067
-494,810	-28,194	0,115	-0,049
-493,795	10,376	-0,150	0,084
-492,781	800,000	0,021	-0,062
-491,766	-90,853	-0,092	0,019
-490,751	10,585	0,110	-0,062
-489,737	592,724	-0,055	-0,101
-488,722	-200,000	-0,009	0,053
-487,708	592,050	-0,027	0,049
-486,693	-85,063	-0,120	0,028
-485,678	-200,000	0,023	0,140
-484,664	-200,000	-0,026	0,119
-483,649	-60,634	-0,103	-0,032
-482,635	800,000	0,066	-0,191
-481,620	-2,355	-0,188	0,097
-480,605	-95,609	-0,063	-0,012
-479,591	-80,646	0,141	0,034
-478,576	800,000	0,051	0,104
-477,562	-84,782	0,021	-0,005
-476,547	-200,000	-0,043	-0,155
-475,532	166,489	-0,034	0,036
-474,518	-200,000	-0,009	0,125
-473,503	-200,000	-0,022	0,199
-472,489	-35,931	0,083	-0,033
-471,474	-200,000	0,016	0,092
-470,459	89,801	-0,076	0,062
-469,445	-200,000	-0,045	0,185
-468,430	-140,739	0,074	0,006
-467,416	78,994	0,116	-0,091
-466,401	800,000	-0,029	0,071
-465,386	125,488	-0,066	-0,061
-464,372	215,771	-0,073	0,085
-463,357	800,000	0,023	-0,069
-462,343	-76,047	-0,039	0,010
-461,328	800,000	0,026	-0,074
-460,313	-51,771	-0,037	0,012
-459,299	177,091	0,064	-0,069
-458,284	-140,938	-0,062	-0,005
-457,270	-37,722	0,091	0,035
-456,255	800,000	0,024	0,074
-455,241	-50,378	-0,098	0,034
-454,226	-153,843	0,082	-0,004
-453,211	800,000	0,041	0,108
-452,197	-69,259	-0,033	0,009
-451,182	-200,000	0,022	-0,082
-450,168	-48,759	0,032	0,011
-449,153	-85,580	0,087	0,020
-448,138	-111,603	-0,076	-0,011
-447,124	-92,041	-0,005	-0,001
-446,109	282,905	-0,064	0,085
-445,095	586,673	0,063	0,114
-444,080	-123,253	0,092	-0,011
-443,065	-184,760	0,074	-0,001
-442,051	-200,000	-0,005	-0,108
-441,036	794,499	0,050	-0,101
-440,022	800,000	0,046	-0,113
-439,007	140,154	0,084	-0,082
-437,992	-119,527	0,086	0,011
-436,978	-200,000	-0,041	0,177
-435,963	-200,000	0,007	0,128
-434,949	-200,000	0,013	0,073
-433,934	800,000	0,024	0,052
-432,919	-200,000	-0,024	-0,112
-431,905	-200,000	-0,028	-0,103
-430,890	800,000	0,024	0,053
-429,876	-99,455	-0,049	0,009
-428,861	-133,893	-0,059	-0,005
-427,846	800,000	0,050	0,104
-426,832	-130,525	-0,108	-0,011
-425,817	-200,000	-0,032	-0,132
-424,803	36,326	-0,023	0,015
-423,788	800,000	-0,031	-0,081
-422,773	-85,606	0,179	-0,041
-421,759	-200,000	0,007	0,071
-420,744	-81,869	0,075	0,018
-419,730	-12,061	0,027	0,013
-418,715	-200,000	-0,002	-0,081
-417,701	-200,000	0,020	-0,169
-416,686	29,970	0,069	-0,043
-415,671	101,336	0,101	-0,086
-414,657	289,713	-0,062	-0,083
-413,642	-200,000	-0,022	0,078
-412,628	-34,549	-0,193	0,077
-411,613	-200,000	0,012	-0,158
-410,598	412,233	0,021	0,032
-409,584	-128,679	-0,069	-0,007
-408,569	-101,738	-0,059	0,010
-407,555	154,857	0,100	0,101
-406,540	112,900	-0,031	-0,028
-405,525	800,000	-0,055	-0,113
-404,511	92,241	-0,009	0,007
-403,496	533,641	-0,044	0,077
-402,482	-25,567	-0,111	-0,048
-401,467	-200,000	-0,002	-0,094
-400,452	277,401	0,052	-0,068
-399,438	13,662	0,135	0,077
-398,423	-96,395	0,064	0,012
-397,409	100,745	0,111	0,095
-396,394	342,548	-0,083	-0,120
-395,379	-88,638	-0,083	-0,018
-394,365	31,440	-0,050	0,031
-393,350	-200,000	0,007	0,132
-392,336	-200,000	-0,016	0,130
-391,321	-143,132	0,068	-0,005
-390,306	153,915	0,091	-0,092
-389,292	9,073	-0,020	-0,011
-388,277	469,940	0,036	-0,060
-387,263	800,000	0,041	-0,100
-386,248	-200,000	-0,004	0,108
-385,233	207,988	0,059	0,068
-384,219	-165,643	-0,024	-0,001
-383,204	67,220	-0,067	0,050
-382,190	-200,000	0,013	0,112
-381,175	-26,367	-0,032	-0,014
-380,160	10,236	0,049	-0,028
-379,146	-88,759	0,088	0,019
-378,131	264,342	0,018	-0,024
-377,117	141,335	-0,065	-0,063
-376,102	571,118	0,013	0,022
-375,088	-17,811	0,128	-0,059
-374,073	-141,979	0,081	-0,006
-373,058	-44,881	0,014	-0,005
-372,044	72,238	-0,026	0,020
-371,029	165,398	0,073	0,076
-370,015	154,470	0,111	-0,112
-369,000	-131,832	0,096	-0,009
-367,985	186,582	-0,060	-0,066
-366,971	83,681	0,018	-0,014
-365,956	-200,000	-0,011	0,078
-364,942	-200,000	-0,007	0,026
-363,927	-83,921	-0,103	0,024
-362,912	226,547	-0,093	-0,110
-361,898	107,296	-0,092	0,080
-360,883	67,706	0,041	-0,031
-359,869	-25,152	-0,050	-0,021
-358,854	280,626	0,035	0,046
-357,839	20,543	0,075	-0,044
-356,825	-106,525	-0,054	0,009
-355,810	105,679	-0,029	-0,025
-354,796	-52,049	-0,032	0,011
-353,781	86,764	-0,020	-0,016
-352,766	-91,445	0,119	-0,025
-351,752	-119,988	0,101	0,013
-350,737	-110,186	-0,118	-0,018
-349,723	77,818	0,155	0,121
-348,708	800,000	-0,021	-0,055
-347,693	15,284	0,050	0,028
-346,679	-200,000	0,022	-0,097
-345,664	800,000	0,030	-0,063
-344,650	-200,000	0,005	0,051
-343,635	224,002	-0,035	-0,041
-342,620	102,047	-0,082	0,070
-341,606	-150,462	0,072	-0,004
-340,591	-200,000	-0,010	-0,110
-339,577	382,242	0,122	-0,185
-338,562	63,564	-0,102	-0,075
-337,548	140,374	0,079	-0,077
-336,533	261,314	0,049	-0,062
-335,518	800,000	0,008	0,016
-334,504	-200,000	0,025	-0,105
-333,489	800,000	-0,024	0,050
-332,475	-165,827	0,041	-0,001
-331,460	-200,000	-0,005	-0,058
-330,445	-200,000	0,011	-0,071
-329,431	-136,368	-0,046	-0,004
-328,416	-42,686	0,117	-0,043
-327,402	310,252	0,081	0,111
-326,387	286,528	0,041	0,055
-325,372	82,276	-0,107	0,085
-324,358	679,093	-0,066	-0,125
-323,343	-200,000	-0,003	0,045
-322,329	800,000	0,045	-0,105
-321,314	-56,738	-0,111	-0,036
-320,299	40,545	-0,038	-0,025
-319,285	-200,000	0,038	-0,134
-318,270	800,000	-0,041	-0,099
-317,256	-149,726	-0,035	0,002
-316,241	420,267	-0,012	0,019
-315,226	800,000	-0,012	0,034
-314,212	800,000	0,030	-0,085
-313,197	-2,990	-0,076	-0,039
-312,183	-75,087	0,017	-0,004
-311,168	474,704	-0,034	-0,057
-310,153	800,000	-0,028	-0,086
-309,139	702,742	0,051	0,099
-308,124	-69,021	-0,005	-0,001
-307,110	-200,000	-0,022	-0,131
-306,095	58,988	-0,025	0,018
-305,080	-59,234	0,229	-0,072
-304,066	124,698	0,130	-0,120
-303,051	587,897	0,005	-0,008
-302,037	62,657	-0,103	-0,076
-301,022	800,000	-0,030	0,089
-300,008	59,031	0,089	0,064
-298,993	-46,745	0,146	0,052
-297,978	800,000	0,038	-0,104
-296,964	175,886	-0,045	-0,048
-295,949	-40,509	0,083	-0,031
-294,935	280,739	0,095	0,124
-293,920	-200,000	0,004	-0,019
-292,905	800,000	0,027	-0,056
-291,891	-200,000	-0,007	0,128
-290,876	124,281	0,076	-0,070
-289,862	-200,000	-0,001	-0,073
-288,847	-151,666	0,104	-0,005
-287,832	-200,000	0,013	-0,157
-286,818	-163,227	-0,035	0,001
-285,803	-61,965	-0,027	0,008
-284,789	800,000	0,095	0,200
-283,774	126,705	0,042	0,039
-282,759	-49,306	-0,059	0,021
-281,745	580,936	-0,054	-0,097
-280,730	-175,700	0,134	-0,003
-279,716	-200,000	-0,007	0,031
-278,701	237,258	0,036	0,044
-277,686	-51,420	0,166	0,056
-276,672	11,536	-0,032	-0,018
-275,657	-200,000	0,025	0,111
-274,643	-76,572	-0,092	0,023
-273,628	-11,370	-0,090	0,043
-272,613	-105,473	-0,048	0,008
-271,599	-132,488	0,057	0,005
-270,584	27,038	0,102	0,063
-269,570	-200,000	0,029	-0,158
-268,555	79,776	-0,042	-0,033
-267,540	-138,030	-0,137	-0,011
-266,526	-105,781	-0,116	0,019
-265,511	-75,592	0,071	-0,018
-264,497	259,412	0,048	0,061
-263,482	800,000	-0,053	-0,125
-262,467	33,650	0,105	-0,067
-261,453	-72,471	-0,066	0,018
-260,438	160,451	-0,016	-0,017
-259,424	237,325	-0,142	0,172
-258,409	-67,905	0,079	-0,022
-257,395	-62,081	0,102	0,031
-256,380	-62,898	0,117	-0,035
-255,365	-188,033	0,186	-0,002
-254,351	329,946	0,082	0,115
-253,336	341,559	-0,035	0,050
-252,322	327,296	-0,024	-0,034
-251,307	68,475	-0,182	-0,136
-250,292	516,435	-0,038	-0,064
-249,278	12,835	0,071	-0,040
-248,263	800,000	-0,048	0,111
-247,249	-127,644	0,059	0,006
-246,234	292,400	-0,118	-0,157
-245,219	-9,357	-0,036	0,018
-244,205	-200,000	-0,002	-0,049
-243,190	-50,309	0,155	-0,053
-242,176	-51,577	-0,051	0,017
-241,161	-97,903	0,050	-0,009
-240,146	447,597	-0,054	0,087
-239,132	480,883	-0,046	-0,076
-238,117	-59,887	0,088	0,027
-237,103	800,000	0,010	-0,031
-236,088	-200,000	0,029	-0,163
-235,073	-8,142	0,132	-0,065
-234,059	63,595	0,167	-0,122
-233,044	800,000	-0,023	0,049
-232,030	-197,310	-0,027	0,000
-231,015	-60,726	-0,070	-0,021
-230,000	-127,109	-0,084	-0,009
-228,986	-3,840	0,091	0,046
-227,971	-93,396	0,092	0,018
-226,957	273,774	-0,073	0,095
-225,942	232,060	-0,066	0,080
-224,927	464,954	-0,090	0,148
-223,913	-4,941	0,066	-0,033
-222,898	-200,000	-0,008	-0,034
-221,884	-200,000	-0,021	-0,107
-220,869	318,352	-0,033	0,045
-219,855	-150,452	0,145	-0,008
-218,840	-48,233	-0,046	-0,016
-217,825	304,717	-0,028	0,039
-216,811	-22,659	0,012	-0,005
-215,796	-200,000	-0,008	-0,147
-214,782	-141,780	-0,100	-0,007
-213,767	608,624	0,037	0,068
-212,752	46,044	-0,078	-0,052
-211,738	146,900	0,094	0,092
-210,723	800,000	0,069	0,154
-209,709	206,780	-0,020	-0,022
-208,694	-166,224	-0,069	0,002
-207,679	155,027	0,072	-0,072
-206,665	-200,000	-0,019	0,117
-205,650	145,123	-0,074	0,072
-204,636	169,139	0,115	0,120
-203,621	800,000	0,028	-0,090
-202,606	-41,306	0,069	-0,026
-201,592	800,000	0,044	0,095
-200,577	-200,000	0,014	0,072
-199,563	410,195	0,080	-0,123
-198,548	60,235	0,035	-0,025
-197,533	-200,000	0,008	-0,078
-196,519	-72,354	0,077	-0,020
-195,504	292,889	0,036	0,047
-194,490	202,538	0,099	-0,112
-193,475	-56,444	-0,076	0,025
-192,460	424,810	0,010	-0,016
-191,446	-46,607	0,127	-0,045
-190,431	98,413	-0,050	0,042
-189,417	-21,200	0,143	-0,063
-188,402	800,000	-0,014	0,031
-187,387	-200,000	0,009	0,077
-186,373	-80,567	-0,137	0,033
-185,358	-158,333	-0,128	0,005
-184,344	26,940	0,053	-0,032
-183,329	126,342	-0,123	0,114
-182,315	-200,000	0,010	0,082
-181,300	-200,000	0,010	-0,086
-180,285	-200,000	-0,002	-0,054
-179,271	800,000	-0,039	-0,089
-178,256	499,192	-0,053	-0,090
-177,242	234,216	-0,090	0,108
-176,227	27,719	-0,114	0,070
-175,212	-113,437	0,117	0,017
-174,198	-165,502	0,081	0,003
-173,183	83,323	0,005	0,004
-172,169	162,013	-0,112	0,115
-171,154	-100,684	0,140	0,025
-170,139	3,968	0,037	0,019
-169,125	800,000	-0,064	0,181
-168,110	429,555	-0,021	0,034
-167,096	61,503	-0,053	0,038
-166,081	-200,000	0,016	-0,059
-165,066	-200,000	-0,007	-0,117
-164,052	-200,000	-0,025	-0,082
-163,037	-134,847	-0,083	0,007
-162,023	-115,035	0,115	0,016
-161,008	-200,000	0,022	0,129
-159,993	-11,606	0,121	-0,058
-158,979	800,000	-0,058	0,154
-157,964	-124,939	-0,110	-0,012
-156,950	226,589	-0,072	-0,085
-155,935	800,000	0,081	0,169
-154,920	-103,280	-0,097	0,016
-153,906	-63,263	-0,031	-0,009
-152,891	605,752	0,038	-0,069
-151,877	263,134	-0,058	-0,073
-150,862	684,395	-0,048	-0,092
-149,847	193,667	0,029	0,032
-148,833	-66,476	-0,072	0,021
-147,818	11,763	0,076	0,042
-146,804	-43,671	-0,059	0,022
-145,789	-126,866	0,126	-0,013
-144,775	-200,000	0,007	0,052
-143,760	769,479	-0,042	-0,083
-142,745	62,045	0,038	0,027
-141,731	-200,000	-0,006	0,030
-140,716	-22,160	0,071	0,031
-139,702	-11,790	-0,110	-0,052
-138,687	-115,986	-0,092	0,012
-137,672	227,453	-0,080	-0,094
-136,658	294,338	-0,108	-0,144
-135,643	36,593	0,066	-0,042
-134,629	-99,600	-0,241	-0,044
-133,614	419,707	0,034	-0,053
-132,599	800,000	0,043	0,101
-131,585	-54,046	0,117	0,038
-130,570	-200,000	0,002	-0,084
-129,556	-2,860	0,033	-0,017
-128,541	-95,650	-0,137	-0,026
-127,526	800,000	-0,054	-0,128
-126,512	135,330	-0,064	0,061
-125,497	-132,305	-0,110	0,010
-124,483	-45,296	-0,072	-0,026
-123,468	166,479	-0,061	0,063
-122,453	-200,000	0,001	0,067
-121,439	134,200	0,023	0,022
-120,424	125,316	-0,076	-0,070
-119,410	-123,815	-0,098	0,011
-118,395	1,757	0,121	-0,063
-117,380	800,000	0,031	0,094
-116,366	-67,927	-0,056	0,016
-115,351	-112,034	-0,130	-0,019
-114,337	311,575	0,087	-0,118
-113,322	800,000	0,036	0,079
-112,307	-200,000	0,018	0,061
-111,293	-200,000	0,009	0,033
-110,278	-200,000	0,013	0,046
-109,264	800,000	0,027	0,058
-108,249	550,016	-0,046	-0,080
-107,234	744,462	0,066	-0,129
-106,220	79,671	0,022	0,017
-105,205	-162,012	0,008	-0,000
-104,191	-119,986	0,030	0,004
-103,176	90,472	0,101	0,082
-102,162	-157,496	0,017	-0,001
-101,147	-200,000	-0,023	0,088
-100,132	-127,476	-0,103	-0,011
-99,118	-120,189	0,021	-0,003
-98,103	5,752	0,093	0,050
-97,089	183,349	0,044	-0,047
-96,074	800,000	-0,043	0,136
-95,059	30,373	0,121	0,075
-94,045	-200,000	-0,006	0,055
-93,030	473,426	0,050	0,083
-92,016	86,274	-0,054	-0,043
-91,001	-200,000	0,007	-0,047
-89,986	800,000	0,040	-0,094
-88,972	243,239	0,110	0,134
-87,957	-200,000	-0,008	0,042
-86,943	715,670	0,045	-0,087
-85,928	391,335	-0,106	-0,160
-84,913	-200,000	-0,006	0,076
-83,899	-51,864	-0,161	-0,054
-82,884	800,000	0,036	-0,092
-81,870	695,928	0,056	0,107
-80,855	92,103	0,087	-0,071
-79,840	-200,000	-0,002	0,083
-78,826	-200,000	-0,009	-0,087
-77,811	-200,000	0,007	-0,224
-76,797	376,580	0,032	-0,047
-75,782	-200,000	-0,025	-0,079
-74,767	-200,000	0,034	-0,126
-73,753	-200,000	0,013	-0,108
-72,738	-94,133	-0,127	-0,025
-71,724	-146,219	0,041	-0,003
-70,709	-161,259	0,017	-0,001
-69,694	52,180	-0,072	0,050
-68,680	-200,000	-0,007	0,128
-67,665	-200,000	-0,005	0,037
-66,651	104,654	0,035	-0,030
-65,636	272,818	-0,061	-0,078
-64,622	-123,543	-0,076	-0,009
-63,607	-52,155	0,090	0,030
-62,592	-200,000	0,006	-0,028
-61,578	211,837	0,061	0,070
-60,563	-12,748	0,096	0,045
-59,549	275,527	0,030	0,039
-58,534	-85,158	-1,381	-0,310
-57,519	723,677	-0,703	-1,362
-56,505	-200,000	-1,041	-4,526
-55,490	26,791	0,529	-0,320
-54,476	800,000	5,017	11,801
-53,461	-200,000	14,226	254,472
-52,446	800,000	696,823	2227,701
-51,432	564,137	1624,691	2862,208
-50,417	116,745	1630,776	1449,432
-49,403	73,469	1284,528	972,987
-48,388	37,439	1022,309	655,197
-47,373	23,525	980,987	583,041
-46,359	22,660	970,603	574,015
-45,344	21,615	966,154	567,953
-44,330	21,595	964,705	567,014
-43,315	21,510	963,233	565,850
-42,300	21,426	962,257	564,980
-41,286	21,524	961,039	564,562
-40,271	21,467	960,137	563,825
-39,257	21,450	959,297	563,252
-38,242	21,414	958,418	562,599
-37,227	21,445	957,298	562,017
-36,213	21,377	956,681	561,414
-35,198	21,357	955,682	560,741
-34,184	21,410	955,106	560,552
-33,169	21,409	954,082	559,925
-32,154	21,488	953,103	559,582
-31,140	21,454	952,522	559,111
-30,125	21,477	951,640	558,644
-29,111	21,457	950,828	558,080
-28,096	21,448	950,271	557,705
-27,082	21,479	949,535	557,349
-26,067	21,454	948,714	556,765
-25,052	21,436	948,079	556,311
-24,038	21,391	947,506	555,809
-23,023	21,423	946,728	555,433
-22,009	21,483	945,938	555,139
-20,994	21,491	945,518	554,895
-19,979	21,452	944,875	554,374
-18,965	21,488	944,222	554,083
-17,950	21,506	943,536	553,714
-16,936	21,419	942,889	553,036
-15,921	21,406	942,180	552,557
-14,906	21,365	941,333	551,909
-13,892	21,320	940,772	551,417
-12,877	21,293	940,316	551,039
-11,863	21,323	939,636	550,714
-10,848	21,315	939,199	550,413
-9,833	21,367	938,826	550,335
-8,819	21,398	938,205	550,048
-7,804	21,323	937,450	549,347
-6,790	21,287	936,864	548,869
-5,775	21,370	936,251	548,748
-4,760	21,377	935,578	548,356
-3,746	21,331	934,960	547,825
-2,731	21,179	934,106	546,825
-1,717	21,152	933,451	546,335
-0,702	21,133	932,890	545,923
0,313	20,990	932,106	545,841
1,327	23,986	930,222	554,089
2,342	33,239	793,813	497,402
3,356	30,941	450,300	278,680
4,371	0,464	294,610	151,846
5,386	-3,720	275,578	138,056
6,400	-5,041	269,909	133,975
7,415	-5,379	267,544	132,477
8,429	-4,960	266,302	132,236
9,444	-5,159	265,497	131,642
10,459	-5,126	264,771	131,300
11,473	-5,227	264,067	130,848
12,488	-5,373	263,575	130,459
13,502	-5,326	263,184	130,297
14,517	-5,252	262,565	130,046
15,531	-5,175	262,092	129,869
16,546	-5,208	261,952	129,759
17,561	-5,305	261,591	129,481
18,575	-5,330	261,346	129,326
19,590	-5,395	260,812	128,992
20,604	-5,229	260,508	128,978
21,619	-5,261	260,337	128,854
22,634	-5,201	259,942	128,700
23,648	-5,389	259,545	128,325
24,663	-5,323	259,366	128,283
25,677	-5,198	259,074	128,239
26,692	-5,252	258,858	128,073
27,707	-5,210	258,618	127,980
28,721	-5,361	258,287	127,671
29,736	-5,414	257,957	127,448
30,750	-5,610	257,731	127,152
31,765	-5,387	257,555	127,251
32,780	-5,296	257,353	127,221
33,794	-5,325	257,224	127,120
34,809	-5,418	256,931	126,882
35,823	-5,338	256,581	126,768
36,838	-5,620	256,403	126,421
37,853	-5,669	256,401	126,364
38,867	-5,644	255,872	126,115
39,882	-5,694	255,818	126,033
40,896	-5,576	255,476	125,957
41,911	-5,480	255,357	125,972
42,926	-5,484	255,024	125,792
43,940	-5,507	254,791	125,646
44,955	-5,467	254,481	125,517
45,969	-5,650	254,321	125,267
46,984	-5,858	253,999	124,916
47,999	-5,835	253,805	124,829
49,013	-6,056	253,540	124,495
50,028	-6,084	253,268	124,326
51,042	-6,077	253,062	124,220
52,057	-6,104	252,702	124,008
53,071	-6,128	252,635	123,944
54,086	-6,067	252,458	123,899
55,101	-5,948	252,434	123,979
56,115	-5,971	252,358	123,912
57,130	-5,431	252,131	124,256
58,144	-5,192	251,866	124,320
59,159	-5,221	251,834	124,269
60,174	-5,112	251,493	124,184
61,188	-5,208	251,252	123,971
62,203	-5,304	251,073	123,788
63,217	-5,448	250,889	123,563
64,232	-5,429	250,677	123,464
65,247	-5,147	250,433	123,575
66,261	-5,245	250,148	123,339
67,276	-5,501	249,947	123,010
68,290	-5,585	249,634	122,773
69,305	-5,844	249,639	122,543
70,320	-5,740	249,283	122,446
71,334	-5,534	249,081	122,511
72,349	-5,251	249,039	122,721
73,363	-5,194	248,752	122,617
74,378	-5,319	248,682	122,466
75,393	-5,228	248,370	122,379
76,407	-5,228	248,224	122,296
77,422	-5,447	248,085	122,031
78,436	-5,234	247,751	122,036
79,451	-5,260	247,585	121,921
80,466	-5,419	247,455	121,712
81,480	-5,529	247,086	121,426
82,495	-5,458	246,825	121,347
83,509	-5,559	246,974	121,323
84,524	-5,653	246,812	121,154
85,539	-5,745	246,385	120,856
86,553	-5,586	246,189	120,883
87,568	-5,657	246,042	120,741
88,582	-5,364	245,718	120,817
89,597	-5,505	245,568	120,614
90,611	-5,302	245,440	120,711
91,626	-5,236	245,350	120,711
92,641	-5,352	245,176	120,518
93,655	-5,634	245,004	120,186
94,670	-5,561	244,874	120,173
95,684	-5,594	244,402	119,903
96,699	-5,606	244,437	119,899
97,714	-5,621	244,243	119,781
98,728	-5,614	243,985	119,649
99,743	-5,754	243,811	119,437
100,757	-5,774	243,525	119,270
101,772	-5,774	243,379	119,187
102,787	-5,521	243,181	119,290
103,801	-5,740	243,082	119,049
104,816	-5,412	242,971	119,256
105,830	-5,346	242,733	119,184
106,845	-5,510	242,708	119,025
107,860	-5,500	242,435	118,888
108,874	-5,453	242,158	118,781
109,889	-5,598	241,953	118,550
110,903	-5,348	241,788	118,665
111,918	-5,642	241,623	118,331
112,933	-5,434	241,469	118,416
113,947	-5,351	241,227	118,356
114,962	-5,544	241,190	118,168
115,976	-5,508	241,012	118,100
116,991	-5,372	240,833	118,113
118,006	-5,502	240,667	117,914
119,020	-5,382	240,541	117,941
120,035	-5,399	240,342	117,819
121,049	-5,465	240,177	117,674
122,064	-5,516	240,005	117,537
123,079	-5,419	239,814	117,512
124,093	-5,318	239,589	117,474
125,108	-5,674	239,343	117,052
126,122	-5,942	239,019	116,665
127,137	-5,905	238,910	116,631
128,151	-5,829	238,831	116,645
129,166	-5,510	238,556	116,759
130,181	-5,828	238,442	116,434
131,195	-5,825	238,292	116,353
132,210	-5,525	238,100	116,492
133,224	-5,488	237,928	116,428
134,239	-5,593	237,917	116,327
135,254	-5,402	237,523	116,279
136,268	-5,404	237,489	116,250
137,283	-5,539	237,191	115,985
138,297	-5,745	236,993	115,711
139,312	-5,923	236,821	115,473
140,327	-5,620	236,768	115,681
141,341	-5,127	236,667	116,019
142,356	-5,087	236,693	116,054
143,370	-5,097	236,420	115,901
144,385	-5,144	236,127	115,710
145,400	-4,881	236,003	115,850
146,414	-4,921	235,744	115,681
147,429	-5,252	235,695	115,381
148,443	-5,287	235,689	115,339
149,458	-5,310	235,371	115,155
150,473	-5,369	235,223	115,025
151,487	-5,194	235,020	115,055
152,502	-5,207	234,928	114,990
153,516	-5,175	234,724	114,905
154,531	-5,085	234,503	114,859
155,546	-5,320	234,392	114,607
156,560	-5,459	234,294	114,438
157,575	-5,415	234,016	114,327
158,589	-5,300	233,822	114,314
159,604	-5,253	233,671	114,267
160,619	-4,952	233,356	114,341
161,633	-4,884	233,218	114,318
162,648	-5,141	233,113	114,052
163,662	-5,239	233,093	113,954
164,677	-5,240	232,856	113,827
165,692	-4,943	232,755	114,003
166,706	-5,133	232,747	113,838
167,721	-4,912	232,347	113,807
168,735	-4,887	232,356	113,821
169,750	-4,909	232,162	113,699
170,764	-5,172	232,058	113,431
171,779	-5,126	231,900	113,379
172,794	-4,986	231,693	113,378
173,808	-4,967	231,473	113,275
174,823	-5,419	231,243	112,798
175,837	-5,776	230,969	112,374
176,852	-5,181	231,064	112,877
177,867	-5,013	230,863	112,900
178,881	-5,136	230,835	112,780
179,896	-5,094	230,632	112,704
180,910	-5,025	230,428	112,648
181,925	-4,995	230,238	112,569
182,940	-5,013	230,090	112,473
183,954	-4,898	229,964	112,491
184,969	-4,886	229,767	112,393
185,983	-4,880	229,656	112,334
186,998	-5,115	229,623	112,125
188,013	-4,896	229,400	112,176
189,027	-4,879	229,184	112,073
190,042	-5,082	229,095	111,862
191,056	-4,766	228,905	112,005
192,071	-4,805	228,842	111,934
193,086	-4,855	228,640	111,786
194,100	-4,891	228,416	111,639
195,115	-5,071	228,047	111,309
196,129	-5,565	228,011	110,900
197,144	-2,575	229,032	113,707
198,159	1,769	230,216	117,665
199,173	3,640	230,492	119,250
200,188	3,988	230,620	119,577
201,202	4,100	230,231	119,450
202,217	4,068	230,265	119,433
203,232	4,211	230,121	119,458
204,246	4,599	229,841	119,603
205,261	4,404	229,850	119,446
206,275	4,580	229,776	119,533
207,290	4,511	229,596	119,376
208,304	4,680	229,456	119,423
209,319	4,699	229,247	119,317
210,334	4,598	229,044	119,123
211,348	4,378	228,807	118,821
212,363	3,892	228,537	118,295
213,377	3,720	228,361	118,061
214,392	3,665	228,092	117,870
215,407	3,543	228,124	117,782
216,421	3,845	228,040	117,960
217,436	3,565	227,771	117,596
218,450	3,402	227,607	117,376
219,465	3,389	227,409	117,253
220,480	3,574	227,157	117,254
221,494	3,540	227,216	117,248
222,509	3,554	227,108	117,193
223,523	3,484	226,977	117,061
224,538	3,722	226,668	117,074
225,553	3,704	226,597	117,012
226,567	3,668	226,409	116,877
227,582	3,938	226,445	117,091
228,596	4,039	226,268	117,066
229,611	3,810	226,060	116,774
230,626	3,473	225,840	116,394
231,640	3,691	225,593	116,421
232,655	4,065	225,562	116,679
233,669	4,476	225,538	116,967
234,684	4,488	225,478	116,935
235,699	4,038	225,303	116,493
236,713	3,762	225,053	116,145
237,728	3,638	224,927	115,976
238,742	3,552	224,579	115,721
239,757	3,604	224,450	115,683
240,772	3,674	224,390	115,694
241,786	3,455	224,251	115,448
242,801	3,778	224,315	115,714
243,815	3,907	224,070	115,674
244,830	4,057	223,882	115,680
245,844	3,837	223,779	115,451
246,859	3,820	223,472	115,269
247,874	4,206	223,414	115,519
248,888	3,978	223,281	115,269
249,903	3,987	223,026	115,133
250,917	3,858	222,951	114,988
251,932	3,556	222,943	114,748
252,947	3,579	222,504	114,529
253,961	3,576	222,405	114,465
254,976	3,614	222,312	114,435
255,990	3,822	222,249	114,548
257,005	3,776	222,136	114,445
258,020	3,838	222,075	114,450
259,034	4,086	222,033	114,603
260,049	4,098	221,830	114,496
261,063	3,887	221,620	114,221
262,078	4,336	221,408	114,435
263,093	4,342	221,301	114,374
264,107	3,972	221,084	113,977
265,122	3,995	221,094	113,989
266,136	4,257	220,940	114,094
267,151	4,351	220,834	114,099
268,166	3,971	220,521	113,646
269,180	3,690	220,361	113,346
270,195	3,889	220,084	113,340
271,209	3,628	220,018	113,103
272,224	3,841	219,876	113,177
273,239	3,957	219,780	113,203
274,253	3,823	219,597	113,000
275,268	3,670	219,410	112,782
276,282	3,470	219,261	112,548
277,297	3,682	219,034	112,577
278,312	3,582	219,012	112,482
279,326	3,739	219,016	112,589
280,341	3,619	218,899	112,431
281,355	3,732	218,706	112,405
282,370	3,785	218,551	112,354
283,384	3,463	218,257	111,958
284,399	3,375	218,094	111,800
285,414	3,807	218,006	112,060
286,428	3,682	217,902	111,906
287,443	4,046	217,847	112,132
288,457	3,778	217,745	111,875
289,472	3,956	217,341	111,786
290,487	3,500	217,108	111,326
291,501	3,140	217,033	111,016
292,516	3,414	216,908	111,140
293,530	3,523	216,868	111,189
294,545	3,583	216,761	111,168
295,560	3,515	216,815	111,137
296,574	3,850	216,400	111,156
297,589	3,721	216,283	110,993
298,603	3,584	216,244	110,864
299,618	3,709	216,177	110,910
300,633	3,713	216,088	110,857
301,647	4,060	216,044	111,075
302,662	4,253	215,729	111,042
303,676	3,872	215,784	110,786
304,691	3,828	215,591	110,646
305,706	4,151	215,337	110,738
306,720	3,824	215,276	110,462
307,735	3,642	215,120	110,241
308,749	3,640	214,894	110,114
309,764	3,986	214,794	110,301
310,779	4,098	214,741	110,344
311,793	3,912	214,509	110,082
312,808	3,804	214,374	109,926
313,822	3,776	214,308	109,862
314,837	3,843	213,944	109,713
315,852	3,715	213,970	109,626
316,866	3,543	213,976	109,496
317,881	4,036	213,760	109,727
318,895	3,967	213,531	109,551
319,910	3,719	213,403	109,299
320,925	3,493	213,156	109,002
321,939	3,002	213,054	108,591
322,954	3,223	212,921	108,670
323,968	3,721	212,868	108,987
324,983	3,961	212,808	109,117
325,997	3,967	212,788	109,102
327,012	4,007	212,389	108,915
328,027	3,895	212,389	108,827
329,041	3,994	212,383	108,883
330,056	4,210	212,187	108,926
331,070	3,836	211,881	108,495
332,085	3,532	211,752	108,205
333,100	3,664	211,625	108,224
334,114	3,839	211,523	108,285
335,129	3,709	211,275	108,057
336,143	3,616	211,120	107,903
337,158	3,839	211,013	107,995
338,173	3,808	210,883	107,898
339,187	3,443	210,840	107,609
340,202	3,305	210,724	107,443
341,216	3,434	210,412	107,366
342,231	3,486	210,327	107,349
343,246	3,474	210,160	107,246
344,260	3,255	210,142	107,074
345,275	3,612	209,916	107,199
346,289	3,794	210,022	107,370
347,304	3,735	209,966	107,291
348,319	3,793	209,677	107,174
349,333	3,735	209,497	107,032
350,348	3,759	209,316	106,947
351,362	3,812	209,312	106,972
352,377	3,951	209,178	106,991
353,392	3,766	208,968	106,745
354,406	3,897	208,834	106,758
355,421	195,772	1341,892	1433,756
356,435	156,312	1480,016	1433,853
