DTS Sentinel unit serial number:	SN410029Multiplexer serial number:	ORYXHardware model number:	OX2-SRSoftware version number:	ORYX F/W v4,00 Oryx Data Collector v3.7.2.0data status	okinstallation	B6 Nyhavnadifferential loss correction	single-endedforward channel	channel 2reverse channel	N/Adate	2023/12/09time	06:20:08forward acquisition time	300,00reverse acquisition time	0,00gamma	499,1914k internal	0,3140k external	0,3140temperature offset calibration	1,0000default loss term (dB/km)	0,3820temperature slope calibration	1,0000multiplexer offset coefficient	1,0000multiplexer slope coefficient	1,0000fibre end	0,00T internal ref (°C)	18,39T ext. ref 1 (°C)	2,28T ext. ref 2 (°C)	2,31length (m)	temperature (°C)	Stokes	anti-Stokes-744,400	800,000	0,056	-0,163
-743,385	19,784	-0,128	-0,076
-742,371	44,427	0,115	0,078
-741,356	-5,225	-0,235	0,119
-740,342	61,962	0,135	0,099
-739,327	-165,451	-0,278	-0,009
-738,312	185,296	0,053	0,058
-737,298	-85,736	-0,293	-0,067
-736,283	153,417	0,041	0,042
-735,269	-24,293	-0,279	0,123
-734,254	800,000	0,066	0,138
-733,239	-43,768	-0,426	-0,158
-732,225	49,545	0,136	-0,094
-731,210	-200,000	-0,034	0,117
-730,196	-100,390	-0,118	-0,021
-729,181	-110,874	-0,142	0,021
-728,167	45,382	-0,184	0,126
-727,152	-97,132	0,104	0,020
-726,137	-120,897	-0,192	-0,024
-725,123	-107,287	-0,127	0,021
-724,108	-47,762	-0,059	0,021
-723,094	800,000	-0,066	-0,203
-722,079	476,626	-0,050	-0,085
-721,064	800,000	-0,055	-0,131
-720,050	-140,318	0,134	-0,010
-719,035	66,724	-0,093	-0,070
-718,021	82,489	-0,034	-0,027
-717,006	-120,853	-0,073	-0,009
-715,991	61,934	-0,217	-0,160
-714,977	-128,957	-0,140	0,014
-713,962	-60,256	-0,083	0,026
-712,948	380,004	0,035	0,053
-711,933	-145,058	0,122	0,008
-710,918	128,323	-0,099	-0,094
-709,904	800,000	0,012	-0,033
-708,889	167,550	-0,161	-0,170
-707,875	225,564	0,083	-0,099
-706,860	50,786	0,022	-0,015
-705,845	-200,000	-0,007	-0,108
-704,831	-200,000	-0,032	-0,123
-703,816	-200,000	0,003	-0,014
-702,802	41,775	0,063	-0,043
-701,787	-36,401	-0,127	-0,050
-700,772	-200,000	-0,024	-0,253
-699,758	800,000	-0,052	-0,113
-698,743	-200,000	0,029	0,100
-697,729	800,000	0,031	0,099
-696,714	98,624	-0,015	0,013
-695,699	104,168	-0,056	0,049
-694,685	-200,000	0,002	-0,099
-693,670	-122,013	-0,067	-0,008
-692,656	626,047	-0,059	-0,110
-691,641	-200,000	-0,008	-0,113
-690,627	-200,000	0,006	0,131
-689,612	34,756	-0,017	-0,011
-688,597	100,525	0,009	0,007
-687,583	-172,978	-0,014	-0,000
-686,568	-200,000	-0,011	-0,104
-685,554	-138,102	-0,168	0,014
-684,539	800,000	-0,041	-0,118
-683,524	-200,000	-0,022	0,090
-682,510	800,000	-0,007	0,014
-681,495	-200,000	0,016	-0,112
-680,481	-55,901	-0,140	-0,046
-679,466	800,000	-0,082	-0,184
-678,451	-200,000	0,015	-0,191
-677,437	585,577	-0,072	-0,131
-676,422	-76,568	0,144	-0,037
-675,408	501,061	0,036	-0,061
-674,393	152,341	-0,023	0,023
-673,378	60,404	-0,158	-0,115
-672,364	-200,000	0,003	-0,048
-671,349	-92,059	-0,154	0,032
-670,335	-16,512	-0,032	-0,015
-669,320	135,162	0,050	-0,048
-668,305	800,000	-0,004	0,013
-667,291	-200,000	0,035	-0,158
-666,276	-200,000	-0,010	0,073
-665,262	404,038	-0,077	-0,120
-664,247	34,702	-0,154	-0,099
-663,232	-200,000	-0,011	-0,151
-662,218	-52,247	0,026	0,009
-661,203	-200,000	-0,008	-0,074
-660,189	-57,191	-0,178	-0,058
-659,174	-34,845	-0,043	-0,017
-658,159	-200,000	0,032	0,112
-657,145	666,411	-0,082	-0,158
-656,130	-31,913	-0,055	0,023
-655,116	800,000	-0,029	0,089
-654,101	-200,000	-0,003	0,077
-653,086	-173,122	-0,049	0,001
-652,072	-200,000	-0,027	-0,176
-651,057	-91,938	-0,107	0,022
-650,043	-111,620	-0,139	0,021
-649,028	82,031	0,065	0,052
-648,014	-200,000	-0,009	0,089
-646,999	354,789	0,080	0,117
-645,984	77,837	-0,068	-0,054
-644,970	-59,623	0,078	-0,025
-643,955	160,367	-0,061	-0,063
-642,941	-13,997	-0,097	0,046
-641,926	800,000	0,007	0,015
-640,911	12,495	-0,081	0,046
-639,897	241,521	-0,018	-0,023
-638,882	282,631	0,062	0,082
-637,868	-30,942	0,059	0,025
-636,853	153,576	-0,092	-0,093
-635,838	69,370	-0,056	0,043
-634,824	-200,000	0,029	-0,143
-633,809	-69,184	0,017	0,005
-632,795	333,183	-0,015	-0,022
-631,780	-10,518	0,019	-0,009
-630,765	177,177	-0,053	0,057
-629,751	-22,498	0,137	-0,061
-628,736	-200,000	0,022	-0,093
-627,722	-162,134	-0,061	-0,002
-626,707	-131,574	-0,042	-0,004
-625,692	800,000	0,009	0,027
-624,678	-95,431	0,162	0,032
-623,663	-200,000	0,025	0,113
-622,649	10,333	-0,167	0,093
-621,634	-200,000	-0,012	0,106
-620,619	791,092	-0,058	-0,117
-619,605	245,063	-0,113	-0,141
-618,590	800,000	0,044	0,145
-617,576	217,870	-0,048	0,056
-616,561	774,986	0,083	0,169
-615,546	800,000	0,023	-0,058
-614,532	264,610	-0,061	-0,079
-613,517	550,661	0,034	0,061
-612,503	-200,000	-0,024	0,104
-611,488	-72,736	0,017	-0,005
-610,474	60,279	0,056	-0,041
-609,459	36,653	0,057	0,037
-608,444	-200,000	-0,020	-0,092
-607,430	180,324	-0,032	-0,034
-606,415	48,142	0,079	-0,054
-605,401	-23,011	0,090	-0,040
-604,386	484,690	0,038	0,065
-603,371	-200,000	-0,006	0,120
-602,357	800,000	-0,032	0,091
-601,342	-200,000	-0,057	0,284
-600,328	-96,806	-0,040	-0,008
-599,313	636,537	0,016	0,031
-598,298	-200,000	-0,005	-0,045
-597,284	-200,000	-0,004	-0,038
-596,269	-119,659	0,117	-0,015
-595,255	-19,107	0,113	-0,051
-594,240	766,516	0,014	-0,029
-593,225	124,118	-0,119	-0,111
-592,211	-85,831	-0,180	-0,041
-591,196	52,260	0,026	0,018
-590,182	20,055	-0,048	-0,028
-589,167	192,554	-0,096	-0,107
-588,152	-93,751	0,080	0,016
-587,138	-131,267	-0,051	0,005
-586,123	-200,000	-0,032	-0,115
-585,109	27,133	0,051	-0,031
-584,094	81,606	-0,138	0,110
-583,079	-200,000	-0,003	0,105
-582,065	177,269	-0,038	0,041
-581,050	-30,439	0,122	-0,051
-580,036	800,000	-0,034	-0,094
-579,021	20,727	0,039	-0,023
-578,006	30,620	-0,056	0,035
-576,992	68,022	-0,082	0,062
-575,977	-42,155	0,090	-0,034
-574,963	-98,119	0,105	0,020
-573,948	-200,000	-0,004	0,071
-572,934	-30,463	-0,120	0,050
-571,919	352,107	-0,029	0,042
-570,904	-113,697	0,024	0,003
-569,890	-146,334	-0,155	-0,010
-568,875	800,000	-0,021	-0,047
-567,861	-53,287	0,119	-0,040
-566,846	-200,000	0,015	-0,103
-565,831	-127,246	-0,112	0,012
-564,817	-93,302	-0,073	0,015
-563,802	704,989	-0,061	-0,120
-562,788	-183,594	-0,041	-0,001
-561,773	-48,875	-0,084	0,029
-560,758	-10,429	0,093	0,045
-559,744	-200,000	0,008	0,069
-558,729	289,263	-0,017	0,023
-557,715	-23,993	-0,107	0,047
-556,700	372,865	-0,064	-0,096
-555,685	-123,068	-0,191	-0,022
-554,671	6,689	0,112	-0,061
-553,656	-200,000	-0,001	-0,048
-552,642	93,942	-0,052	0,043
-551,627	800,000	-0,028	-0,060
-550,612	800,000	-0,037	-0,085
-549,598	373,211	0,050	-0,075
-548,583	25,826	-0,137	0,084
-547,569	281,933	0,084	0,111
-546,554	-200,000	0,002	-0,071
-545,539	-141,550	0,084	-0,006
-544,525	665,197	0,088	-0,168
-543,510	-200,000	-0,194	0,000
-542,496	-45,244	-0,134	-0,049
-541,481	-83,358	-0,164	0,038
-540,466	159,795	0,021	-0,021
-539,452	-200,000	-0,004	0,044
-538,437	800,000	0,023	0,047
-537,423	-133,250	0,215	-0,020
-536,408	299,939	0,042	0,057
-535,393	8,672	0,076	0,042
-534,379	800,000	0,040	0,083
-533,364	585,120	-0,016	0,029
-532,350	-200,000	-0,015	0,093
-531,335	-54,131	-0,100	0,033
-530,321	207,481	-0,029	-0,034
-529,306	-53,181	-0,067	0,022
-528,291	-200,000	0,010	0,072
-527,277	-200,000	0,005	0,121
-526,262	800,000	0,010	-0,027
-525,248	-33,434	0,091	0,037
-524,233	-200,000	0,007	0,050
-523,218	74,713	0,092	0,071
-522,204	110,885	-0,086	-0,076
-521,189	-90,903	-0,131	-0,028
-520,175	243,672	0,041	0,050
-519,160	205,395	-0,073	0,084
-518,145	-112,822	0,066	0,010
-517,131	-31,628	0,119	-0,049
-516,116	-26,079	-0,055	-0,024
-515,102	-200,000	-0,011	0,114
-514,087	323,354	-0,016	-0,022
-513,072	117,591	0,054	-0,049
-512,058	201,390	0,029	0,033
-511,043	-200,000	0,016	0,150
-510,029	800,000	-0,033	-0,069
-509,014	-97,865	0,139	-0,026
-507,999	800,000	-0,027	0,086
-506,985	217,541	-0,057	0,067
-505,970	125,811	0,083	-0,077
-504,956	800,000	-0,026	-0,082
-503,941	263,524	0,020	-0,026
-502,926	-149,127	0,149	0,009
-501,912	-123,080	0,144	0,017
-500,897	-200,000	0,009	-0,040
-499,883	-99,451	0,102	-0,019
-498,868	-37,014	-0,139	-0,055
-497,853	228,555	-0,069	-0,082
-496,839	-27,997	0,063	0,027
-495,824	-91,597	-0,044	-0,009
-494,810	278,155	0,100	-0,131
-493,795	-33,045	-0,144	-0,058
-492,781	-200,000	-0,011	-0,086
-491,766	-104,431	-0,079	-0,013
-490,751	-200,000	0,034	-0,137
-489,737	281,977	-0,096	-0,127
-488,722	562,074	-0,048	-0,085
-487,708	-200,000	-0,007	0,028
-486,693	-200,000	-0,011	0,098
-485,678	-200,000	0,020	-0,069
-484,664	-119,255	-0,067	-0,008
-483,649	-24,179	-0,097	0,042
-482,635	1,506	0,055	-0,029
-481,620	-65,660	-0,014	-0,004
-480,605	-0,364	0,087	0,045
-479,591	143,199	-0,027	0,027
-478,576	-124,250	-0,043	-0,005
-477,562	-65,190	-0,054	0,016
-476,547	552,782	-0,051	-0,090
-475,532	-28,262	-0,078	0,033
-474,518	28,489	0,204	-0,126
-473,503	-140,657	-0,051	-0,004
-472,489	-111,144	-0,083	0,012
-471,474	800,000	0,042	0,093
-470,459	181,147	-0,097	0,105
-469,445	800,000	-0,043	0,104
-468,430	-163,059	-0,040	-0,001
-467,416	96,090	0,088	-0,074
-466,401	71,989	0,087	0,066
-465,386	-26,070	0,081	-0,035
-464,372	-181,233	0,099	0,001
-463,357	365,545	-0,102	-0,152
-462,343	14,176	0,014	-0,008
-461,328	-11,759	0,046	-0,022
-460,313	-160,455	0,059	-0,002
-459,299	-68,661	-0,020	0,006
-458,284	771,124	0,027	-0,055
-457,270	800,000	0,013	-0,031
-456,255	-200,000	0,041	0,145
-455,241	196,585	0,060	-0,067
-454,226	800,000	-0,043	-0,091
-453,211	-144,116	0,138	-0,009
-452,197	75,844	-0,067	-0,052
-451,182	800,000	0,041	-0,092
-450,168	540,905	0,022	0,039
-449,153	-200,000	-0,013	-0,146
-448,138	-98,073	-0,056	-0,010
-447,124	55,750	-0,042	0,030
-446,109	517,828	-0,067	-0,115
-445,095	-200,000	0,006	-0,056
-444,080	800,000	-0,004	0,008
-443,065	800,000	-0,037	0,078
-442,051	-57,856	0,094	-0,030
-441,036	163,462	-0,036	-0,037
-440,022	-134,593	0,181	-0,016
-439,007	-75,845	-0,057	0,015
-437,992	603,140	-0,014	-0,025
-436,978	-200,000	0,004	0,075
-435,963	130,542	0,037	-0,035
-434,949	-58,268	-0,072	0,023
-433,934	800,000	0,009	-0,020
-432,919	80,901	-0,169	-0,134
-431,905	-145,130	-0,043	-0,003
-430,890	315,782	0,066	0,091
-429,876	-85,135	-0,178	0,040
-428,861	-97,075	0,181	0,034
-427,846	67,693	0,077	-0,058
-426,832	137,197	-0,007	0,007
-425,817	462,165	0,041	-0,067
-424,803	800,000	0,058	-0,122
-423,788	64,245	0,007	-0,005
-422,773	-101,035	0,089	0,016
-421,759	-17,485	-0,107	0,049
-420,744	612,942	0,076	-0,139
-419,730	25,309	-0,076	-0,046
-418,715	137,884	-0,072	0,069
-417,701	-200,000	-0,014	0,064
-416,686	-200,000	0,025	0,183
-415,671	800,000	-0,021	-0,048
-414,657	23,616	0,054	0,032
-413,642	298,499	0,019	0,026
-412,628	405,096	-0,062	-0,095
-411,613	-55,344	-0,122	-0,040
-410,598	-10,536	-0,093	0,045
-409,584	-200,000	-0,004	-0,023
-408,569	-200,000	-0,001	0,194
-407,555	-65,838	0,054	-0,016
-406,540	53,785	-0,069	0,049
-405,525	800,000	0,035	-0,085
-404,511	25,171	0,092	-0,056
-403,496	81,863	-0,121	-0,096
-402,482	-57,816	0,011	0,003
-401,467	119,702	-0,051	0,046
-400,452	-57,286	-0,056	0,018
-399,438	-88,303	0,005	0,001
-398,423	-200,000	-0,003	0,096
-397,409	-11,533	-0,057	-0,027
-396,394	800,000	-0,003	0,007
-395,379	11,573	0,072	0,040
-394,365	-117,083	0,246	0,032
-393,350	-200,000	-0,012	0,054
-392,336	408,947	-0,056	-0,086
-391,321	-200,000	0,014	-0,074
-390,306	-96,241	0,122	-0,023
-389,292	-5,595	0,021	-0,011
-388,277	174,863	0,016	0,017
-387,263	57,463	-0,132	-0,094
-386,248	-62,550	-0,032	0,010
-385,233	42,406	0,061	-0,040
-384,219	-21,449	-0,079	0,035
-383,204	388,824	0,070	-0,106
-382,190	-200,000	0,028	-0,124
-381,175	-25,470	0,183	0,079
-380,160	124,590	0,135	0,125
-379,146	352,708	0,054	-0,078
-378,131	350,399	-0,029	0,042
-377,117	200,181	0,064	0,072
-376,102	-137,856	0,083	-0,007
-375,088	800,000	-0,051	-0,117
-374,073	421,406	0,031	-0,049
-373,058	800,000	-0,011	-0,022
-372,044	-133,703	0,038	-0,003
-371,029	-27,018	0,073	-0,031
-370,015	-129,672	-0,136	-0,014
-369,000	800,000	0,025	0,052
-367,985	13,028	-0,051	-0,029
-366,971	262,390	-0,047	-0,059
-365,956	-200,000	-0,017	-0,056
-364,942	128,229	0,056	0,052
-363,927	247,824	-0,035	-0,043
-362,912	139,406	-0,025	-0,024
-361,898	301,238	-0,015	-0,020
-360,883	-200,000	0,026	-0,142
-359,869	48,643	0,090	-0,062
-358,854	32,724	0,190	0,120
-357,839	-200,000	0,006	0,147
-356,825	-119,411	0,066	0,008
-355,810	-103,443	0,120	0,020
-354,796	-200,000	-0,026	0,154
-353,781	800,000	-0,035	0,086
-352,766	-200,000	-0,021	-0,107
-351,752	-139,818	0,082	-0,006
-350,737	-200,000	-0,021	0,096
-349,723	-55,433	0,058	0,019
-348,708	-114,392	-0,105	-0,015
-347,693	800,000	0,045	-0,114
-346,679	-200,000	-0,014	0,088
-345,664	-62,642	-0,134	-0,040
-344,650	647,170	0,025	-0,047
-343,635	287,058	0,045	-0,059
-342,620	434,725	0,093	0,148
-341,606	-70,255	-0,104	0,029
-340,591	-132,323	0,078	0,007
-339,577	344,067	-0,022	0,031
-338,562	152,463	-0,070	-0,070
-337,548	123,592	0,070	0,064
-336,533	68,914	-0,033	0,025
-335,518	379,146	-0,017	-0,026
-334,504	39,655	0,032	0,021
-333,489	221,144	0,061	0,072
-332,475	-106,220	-0,143	0,023
-331,460	41,247	0,016	-0,010
-330,445	-200,000	-0,003	0,086
-329,431	800,000	-0,009	-0,022
-328,416	319,722	-0,081	-0,112
-327,402	38,541	0,061	-0,040
-326,387	34,075	-0,102	0,065
-325,372	-70,457	0,041	-0,011
-324,358	286,652	-0,061	0,081
-323,343	-31,073	-0,087	0,036
-322,329	-200,000	-0,004	0,044
-321,314	-62,050	0,085	0,026
-320,299	28,220	0,180	0,110
-319,285	218,063	-0,024	-0,028
-318,270	800,000	-0,005	0,013
-317,256	654,494	0,025	0,047
-316,241	796,825	-0,030	-0,060
-315,226	282,649	0,066	0,087
-314,212	-200,000	-0,024	0,098
-313,197	-200,000	0,016	-0,074
-312,183	-200,000	-0,027	-0,106
-311,168	-25,687	-0,112	-0,048
-310,153	800,000	0,034	-0,093
-309,139	-118,061	-0,071	0,009
-308,124	-144,649	0,083	0,006
-307,110	42,737	-0,066	0,044
-306,095	214,463	-0,061	-0,071
-305,080	-14,266	0,061	0,028
-304,066	-200,000	0,022	-0,141
-303,051	-36,233	-0,092	-0,036
-302,037	68,929	-0,113	0,085
-301,022	198,637	0,010	0,011
-300,008	153,823	0,018	0,018
-298,993	267,799	-0,048	0,061
-297,978	-74,394	0,073	-0,019
-296,964	-200,000	0,023	0,082
-295,949	-200,000	-0,027	0,097
-294,935	-85,007	-0,117	0,026
-293,920	-19,891	-0,072	0,032
-292,905	-200,000	-0,017	0,149
-291,891	-57,892	0,083	-0,026
-290,876	75,457	0,079	0,061
-289,862	334,979	-0,034	0,048
-288,847	-97,462	0,053	-0,010
-287,832	250,993	0,091	0,112
-286,818	370,073	0,071	0,105
-285,803	-180,692	0,022	-0,000
-284,789	-89,984	0,237	0,050
-283,774	800,000	-0,045	-0,096
-282,759	240,869	-0,095	-0,115
-281,745	299,353	0,028	-0,038
-280,730	119,716	-0,032	0,029
-279,716	-200,000	0,025	0,185
-278,701	-200,000	0,001	0,027
-277,686	-128,708	0,037	0,004
-276,672	550,129	0,088	0,155
-275,657	800,000	0,074	0,178
-274,643	366,323	0,080	-0,118
-273,628	-200,000	-0,018	-0,092
-272,613	75,122	0,072	0,055
-271,599	-47,133	0,159	0,056
-270,584	53,049	0,058	0,040
-269,570	32,734	-0,092	0,058
-268,555	800,000	0,023	-0,062
-267,540	253,215	-0,037	-0,046
-266,526	-43,415	0,037	-0,013
-265,511	46,401	0,086	-0,058
-264,497	-24,675	-0,126	0,054
-263,482	101,932	0,033	0,028
-262,467	348,028	-0,048	-0,070
-261,453	412,328	0,049	0,075
-260,438	-73,487	-0,074	-0,020
-259,424	265,665	-0,044	0,056
-258,409	-91,385	0,090	-0,019
-257,395	163,639	0,057	0,059
-256,380	-130,367	0,099	-0,010
-255,365	-5,201	0,176	0,088
-254,351	40,381	-0,078	-0,051
-253,336	-200,000	-0,011	-0,054
-252,322	10,381	0,082	0,045
-251,307	-142,794	-0,054	0,004
-250,292	-200,000	-0,012	-0,077
-249,278	-200,000	-0,014	-0,067
-248,263	-184,229	0,052	-0,001
-247,249	800,000	0,015	0,046
-246,234	47,034	-0,065	-0,044
-245,219	243,143	0,059	-0,072
-244,205	800,000	0,052	-0,144
-243,190	-42,204	-0,127	0,047
-242,176	800,000	-0,055	0,120
-241,161	244,752	-0,081	0,099
-240,146	-87,137	0,068	-0,015
-239,132	656,817	-0,029	0,055
-238,117	227,901	-0,043	0,051
-237,103	-200,000	-0,012	0,052
-236,088	82,261	-0,124	0,097
-235,073	-200,000	-0,026	0,134
-234,059	-200,000	0,003	-0,054
-233,044	-37,956	0,032	-0,012
-232,030	-200,000	-0,018	-0,162
-231,015	157,699	-0,047	0,047
-230,000	-80,927	-0,063	0,015
-228,986	151,231	-0,101	0,100
-227,971	260,666	0,043	0,054
-226,957	139,104	-0,031	0,030
-225,942	-136,189	0,168	-0,014
-224,927	-25,377	0,120	0,052
-223,913	102,354	-0,031	0,027
-222,898	800,000	-0,032	-0,099
-221,884	377,737	-0,100	-0,149
-220,869	800,000	0,065	-0,155
-219,855	88,045	0,133	0,107
-218,840	-200,000	-0,003	-0,067
-217,825	191,990	-0,040	-0,043
-216,811	-200,000	-0,026	-0,099
-215,796	-200,000	-0,049	-0,166
-214,782	-118,123	-0,044	-0,006
-213,767	64,466	0,097	0,071
-212,752	107,875	0,137	-0,118
-211,738	718,796	-0,081	0,156
-210,723	-200,000	-0,055	0,178
-209,709	-83,843	0,067	0,015
-208,694	-200,000	-0,031	-0,135
-207,679	-200,000	0,006	-0,088
-206,665	21,345	0,083	-0,049
-205,650	-78,337	0,166	0,041
-204,636	-26,708	-0,101	-0,043
-203,621	0,989	-0,108	0,056
-202,606	-73,519	0,035	0,009
-201,592	-107,611	-0,098	0,015
-200,577	84,364	-0,087	-0,069
-199,563	17,940	0,039	-0,023
-198,548	636,729	0,025	0,046
-197,533	56,333	0,090	0,063
-196,519	174,082	-0,033	-0,035
-195,504	-29,729	-0,024	0,010
-194,490	800,000	-0,002	0,007
-193,475	-45,264	-0,139	0,050
-192,460	800,000	-0,044	0,135
-191,446	800,000	0,049	-0,124
-190,431	800,000	0,023	-0,069
-189,417	-82,696	0,127	0,030
-188,402	800,000	0,051	-0,114
-187,387	-200,000	0,008	-0,050
-186,373	-20,538	-0,126	0,056
-185,358	-200,000	0,003	-0,023
-184,344	671,936	-0,026	-0,049
-183,329	-56,799	-0,040	-0,013
-182,315	-30,632	0,193	-0,079
-181,300	-50,013	-0,104	-0,036
-180,285	-155,930	-0,114	-0,005
-179,271	-200,000	0,001	-0,007
-178,256	800,000	-0,026	-0,074
-177,242	-100,931	-0,173	0,031
-176,227	-57,279	0,053	0,017
-175,212	190,093	-0,033	-0,036
-174,198	125,825	0,066	0,060
-173,183	-34,089	0,054	-0,021
-172,169	-200,000	0,008	-0,108
-171,154	307,428	-0,034	-0,046
-170,139	-200,000	0,031	0,134
-169,125	-6,855	-0,021	0,010
-168,110	800,000	-0,030	0,087
-167,096	800,000	0,031	-0,091
-166,081	800,000	-0,065	-0,167
-165,066	28,038	-0,096	-0,058
-164,052	-200,000	-0,012	-0,195
-163,037	382,392	0,019	-0,028
-162,023	-17,869	0,157	0,071
-161,008	-96,088	-0,132	-0,025
-159,993	319,376	-0,093	0,128
-158,979	264,562	-0,029	0,036
-157,964	267,572	0,030	-0,038
-156,950	-200,000	-0,002	0,147
-155,935	800,000	0,003	-0,010
-154,920	-200,000	-0,024	0,090
-153,906	349,315	0,057	-0,082
-152,891	-200,000	0,008	-0,080
-151,877	9,316	-0,138	0,075
-150,862	-7,937	-0,077	0,037
-149,847	-200,000	-0,012	-0,067
-148,833	70,748	-0,138	-0,103
-147,818	-111,417	0,048	-0,007
-146,804	-59,543	0,140	0,043
-145,789	-56,379	-0,095	0,030
-144,775	199,381	0,029	0,032
-143,760	-0,009	0,049	-0,025
-142,745	-148,732	-0,105	0,006
-141,731	-123,197	0,062	-0,007
-140,716	50,876	-0,072	0,049
-139,702	-188,599	0,049	-0,000
-138,687	-200,000	-0,029	0,096
-137,672	-34,571	-0,061	0,024
-136,658	90,391	-0,066	0,054
-135,643	-200,000	0,003	0,022
-134,629	154,080	-0,027	-0,027
-133,614	82,613	0,050	0,040
-132,599	-200,000	0,019	0,083
-131,585	732,901	0,074	0,144
-130,570	47,109	-0,078	-0,052
-129,556	-200,000	0,008	0,043
-128,541	63,989	0,059	-0,043
-127,526	14,800	0,096	-0,054
-126,512	97,821	0,061	0,051
-125,497	549,959	0,055	-0,096
-124,483	181,296	0,132	-0,141
-123,468	365,456	-0,035	0,051
-122,453	800,000	-0,041	-0,100
-121,439	-200,000	-0,016	0,061
-120,424	568,135	-0,045	0,080
-119,410	-154,124	0,179	0,009
-118,395	-79,295	0,061	-0,015
-117,380	-200,000	0,003	-0,063
-116,366	233,629	0,056	0,067
-115,351	-11,540	-0,086	0,041
-114,337	-200,000	-0,007	-0,074
-113,322	-200,000	0,042	-0,198
-112,307	-77,829	0,134	0,033
-111,293	-46,482	0,098	-0,035
-110,278	-86,891	-0,097	-0,021
-109,264	148,456	-0,047	0,046
-108,249	-200,000	0,013	-0,095
-107,234	800,000	-0,040	0,103
-106,220	148,736	-0,120	-0,117
-105,205	800,000	0,016	-0,049
-104,191	122,296	-0,042	0,038
-103,176	-130,280	0,111	-0,011
-102,162	271,968	-0,030	0,038
-101,147	-200,000	0,039	-0,132
-100,132	800,000	0,105	-0,318
-99,118	720,170	-0,079	0,153
-98,103	-200,000	0,006	0,067
-97,089	-200,000	0,023	0,102
-96,074	-200,000	0,051	0,188
-95,059	-42,234	0,103	-0,038
-94,045	318,618	0,056	-0,077
-93,030	-200,000	0,019	-0,066
-92,016	511,669	-0,059	-0,099
-91,001	-145,434	0,088	0,006
-89,986	-200,000	-0,016	-0,055
-88,972	-104,203	0,280	-0,047
-87,957	-37,883	-0,045	-0,017
-86,943	-200,000	-0,047	-0,154
-85,928	194,359	0,108	-0,119
-84,913	-200,000	-0,058	-0,240
-83,899	800,000	-0,047	-0,095
-82,884	356,347	0,071	0,102
-81,870	-153,378	-0,134	0,007
-80,855	800,000	0,048	0,098
-79,840	-10,998	0,085	-0,041
-78,826	35,900	-0,113	-0,071
-77,811	-82,771	0,099	-0,023
-76,797	170,295	0,043	-0,045
-75,782	-200,000	-0,017	0,095
-74,767	-72,822	0,120	0,032
-73,753	800,000	-0,051	0,109
-72,738	-86,757	-0,059	-0,013
-71,724	-200,000	0,011	0,042
-70,709	28,463	-0,141	-0,086
-69,694	-38,467	0,056	0,021
-68,680	19,416	0,045	-0,026
-67,665	-200,000	-0,013	0,051
-66,651	-200,000	0,010	0,080
-65,636	-200,000	-0,022	0,099
-64,622	711,773	-0,015	-0,028
-63,607	-14,054	-0,082	0,038
-62,592	319,536	0,053	-0,073
-61,578	-93,025	0,076	0,015
-60,563	26,488	-0,049	0,030
-59,549	394,959	0,075	0,113
-58,534	-42,560	-1,735	-0,635
-57,519	800,000	-0,553	-1,186
-56,505	-200,000	-1,106	-4,722
-55,490	-157,998	0,723	-0,030
-54,476	800,000	5,210	12,246
-53,461	-200,000	15,836	278,283
-52,446	-200,000	703,453	2244,785
-51,432	561,496	1619,778	2837,527
-50,417	121,618	1623,677	1460,627
-49,403	82,360	1284,474	1004,858
-48,388	36,749	1028,709	654,489
-47,373	21,508	990,575	579,820
-46,359	20,400	979,275	569,532
-45,344	18,613	975,113	561,210
-44,330	18,733	973,955	560,916
-43,315	18,482	972,079	558,992
-42,300	18,444	971,120	558,294
-41,286	18,485	969,954	557,734
-40,271	18,388	969,258	556,994
-39,257	18,455	968,359	556,677
-38,242	18,412	967,775	556,177
-37,227	18,453	966,721	555,681
-36,213	18,405	966,026	555,105
-35,198	18,382	965,090	554,470
-34,184	18,413	964,328	554,113
-33,169	18,388	963,529	553,548
-32,154	18,451	962,659	553,232
-31,140	18,451	961,527	552,558
-30,125	18,503	960,816	552,297
-29,111	18,463	960,027	551,693
-28,096	18,490	959,465	551,434
-27,082	18,391	958,810	550,716
-26,067	18,457	957,855	550,358
-25,052	18,456	957,063	549,879
-24,038	18,444	956,473	549,479
-23,023	18,375	955,836	548,868
-22,009	18,402	955,247	548,595
-20,994	18,437	954,666	548,352
-19,979	18,479	953,950	548,056
-18,965	18,425	953,304	547,489
-17,950	18,392	952,671	546,997
-16,936	18,381	951,934	546,517
-15,921	18,349	951,353	546,060
-14,906	18,367	950,661	545,700
-13,892	18,284	950,014	545,038
-12,877	18,290	949,172	544,555
-11,863	18,230	948,804	544,130
-10,848	18,279	948,243	543,943
-9,833	18,360	947,990	544,036
-8,819	18,304	947,220	543,394
-7,804	18,313	946,462	542,966
-6,790	18,324	945,740	542,565
-5,775	18,330	945,248	542,281
-4,760	18,306	944,705	541,870
-3,746	18,296	944,042	541,438
-2,731	18,188	943,241	540,614
-1,717	18,149	942,586	540,092
-0,702	18,114	941,887	539,560
0,313	17,906	941,474	539,478
1,327	21,028	939,659	548,276
2,342	30,033	796,894	488,968
3,356	27,113	449,901	271,647
4,371	-2,348	295,580	148,927
5,386	-6,437	276,889	135,609
6,400	-7,757	271,064	131,516
7,415	-8,133	268,682	130,001
8,429	-7,852	267,447	129,650
9,444	-8,008	266,623	129,096
10,459	-7,936	265,948	128,823
11,473	-8,063	265,324	128,394
12,488	-8,211	264,795	127,992
13,502	-8,193	264,241	127,729
14,517	-8,445	263,767	127,260
15,531	-8,209	263,426	127,298
16,546	-8,267	263,098	127,076
17,561	-8,188	262,740	126,963
18,575	-8,193	262,353	126,760
19,590	-8,322	261,998	126,461
20,604	-8,268	261,804	126,404
21,619	-8,285	261,531	126,246
22,634	-8,362	261,010	125,914
23,648	-8,390	260,877	125,814
24,663	-8,497	260,546	125,547
25,677	-8,266	260,222	125,586
26,692	-8,441	260,085	125,353
27,707	-8,602	259,757	125,040
28,721	-8,432	259,495	125,054
29,736	-8,437	259,170	124,882
30,750	-8,452	258,951	124,752
31,765	-8,463	258,818	124,667
32,780	-8,735	258,527	124,274
33,794	-8,482	258,359	124,407
34,809	-8,526	258,050	124,208
35,823	-8,640	257,769	123,961
36,838	-8,444	257,460	123,974
37,853	-8,470	257,154	123,793
38,867	-8,409	256,968	123,746
39,882	-8,563	256,715	123,478
40,896	-8,585	256,561	123,374
41,911	-8,453	256,251	123,329
42,926	-8,575	256,229	123,200
43,940	-8,832	255,905	122,808
44,955	-8,590	255,572	122,849
45,969	-8,751	255,440	122,634
46,984	-8,954	255,305	122,381
47,999	-9,093	254,779	121,996
49,013	-9,114	254,584	121,874
50,028	-9,326	254,443	121,610
51,042	-9,399	254,067	121,356
52,057	-9,539	253,986	121,185
53,071	-9,407	253,777	121,189
54,086	-9,345	253,540	121,119
55,101	-9,129	253,325	121,193
56,115	-8,951	253,073	121,216
57,130	-8,532	253,261	121,658
58,144	-8,200	253,135	121,875
59,159	-8,178	252,851	121,746
60,174	-8,074	252,540	121,676
61,188	-8,133	252,320	121,508
62,203	-8,217	252,274	121,402
63,217	-8,138	251,842	121,252
64,232	-8,384	251,701	120,961
65,247	-8,345	251,575	120,923
66,261	-8,307	251,303	120,815
67,276	-8,564	250,984	120,429
68,290	-8,822	250,791	120,105
69,305	-8,811	250,533	119,980
70,320	-8,941	250,237	119,717
71,334	-8,615	250,242	119,987
72,349	-8,165	250,114	120,300
73,363	-8,188	249,950	120,191
74,378	-8,193	249,653	120,033
75,393	-8,341	249,441	119,795
76,407	-8,393	249,212	119,629
77,422	-8,382	249,092	119,570
78,436	-8,274	248,764	119,494
79,451	-8,565	248,788	119,247
80,466	-8,552	248,362	119,043
81,480	-8,805	248,092	118,689
82,495	-8,607	247,928	118,768
83,509	-8,505	247,658	118,714
84,524	-8,841	247,634	118,408
85,539	-8,964	247,408	118,186
86,553	-8,695	246,987	118,201
87,568	-8,823	246,922	118,051
88,582	-8,492	246,694	118,210
89,597	-8,615	246,501	118,004
90,611	-8,766	246,620	117,923
91,626	-8,437	246,366	118,068
92,641	-8,677	246,196	117,774
93,655	-8,694	245,936	117,625
94,670	-8,668	245,677	117,512
95,684	-8,479	245,500	117,576
96,699	-8,826	245,413	117,233
97,714	-8,763	245,065	117,109
98,728	-8,672	244,953	117,121
99,743	-8,810	244,577	116,815
100,757	-8,887	244,397	116,656
101,772	-9,031	244,362	116,508
102,787	-8,727	244,101	116,626
103,801	-8,736	244,072	116,594
104,816	-8,648	243,917	116,583
105,830	-8,468	243,796	116,665
106,845	-8,538	243,627	116,515
107,860	-8,316	243,227	116,498
108,874	-8,664	243,347	116,255
109,889	-8,632	242,891	116,054
110,903	-8,724	242,713	115,883
111,918	-8,729	242,511	115,771
112,933	-8,788	242,480	115,697
113,947	-8,623	242,208	115,694
114,962	-8,616	242,278	115,723
115,976	-8,487	241,877	115,627
116,991	-8,472	241,666	115,528
118,006	-8,587	241,574	115,380
119,020	-8,371	241,487	115,505
120,035	-8,372	241,398	115,452
121,049	-8,379	241,216	115,349
122,064	-8,516	241,016	115,131
123,079	-8,510	240,747	114,997
124,093	-8,502	240,467	114,859
125,108	-8,633	240,297	114,660
126,122	-9,040	240,017	114,184
127,137	-8,987	239,801	114,114
128,151	-9,008	239,709	114,043
129,166	-8,857	239,545	114,078
130,181	-8,872	239,307	113,942
131,195	-9,160	239,242	113,667
132,210	-8,517	238,960	114,046
133,224	-8,520	238,959	114,032
134,239	-8,522	238,681	113,888
135,254	-8,470	238,715	113,937
136,268	-8,590	238,163	113,566
137,283	-8,773	238,135	113,394
138,297	-8,984	237,837	113,071
139,312	-9,095	237,698	112,905
140,327	-8,860	237,708	113,090
141,341	-8,025	237,628	113,716
142,356	-8,117	237,373	113,510
143,370	-8,265	237,229	113,311
144,385	-7,974	237,086	113,467
145,400	-8,085	237,018	113,336
146,414	-7,966	236,687	113,263
147,429	-8,219	236,631	113,022
148,443	-8,219	236,402	112,903
149,458	-8,341	236,335	112,763
150,473	-8,151	236,209	112,845
151,487	-8,113	235,750	112,646
152,502	-8,207	235,786	112,578
153,516	-7,971	235,588	112,662
154,531	-8,076	235,393	112,475
155,546	-8,103	235,078	112,294
156,560	-8,303	235,086	112,127
157,575	-8,270	234,672	111,946
158,589	-8,306	234,642	111,894
159,604	-8,083	234,593	112,037
160,619	-7,929	234,443	112,078
161,633	-7,962	234,323	111,985
162,648	-7,964	234,119	111,876
163,662	-8,113	233,922	111,653
164,677	-8,312	233,761	111,408
165,692	-8,115	233,752	111,550
166,706	-8,015	233,543	111,520
167,721	-8,074	233,376	111,383
168,735	-7,997	233,313	111,404
169,750	-8,119	233,077	111,186
170,764	-8,002	232,990	111,227
171,779	-8,154	232,826	111,018
172,794	-8,112	232,646	110,956
173,808	-8,520	232,589	110,597
174,823	-8,596	232,008	110,251
175,837	-8,677	231,757	110,059
176,852	-8,318	231,991	110,442
177,867	-8,110	231,832	110,520
178,881	-8,006	231,585	110,474
179,896	-8,056	231,570	110,418
180,910	-8,100	231,334	110,261
181,925	-8,099	231,160	110,169
182,940	-7,846	230,984	110,273
183,954	-8,004	230,911	110,105
184,969	-8,077	230,648	109,912
185,983	-7,953	230,718	110,033
186,998	-7,823	230,439	109,991
188,013	-7,981	230,359	109,821
189,027	-7,787	230,128	109,851
190,042	-7,766	229,941	109,769
191,056	-7,751	229,823	109,714
192,071	-8,022	229,658	109,415
193,086	-7,893	229,417	109,390
194,100	-7,784	229,473	109,492
195,115	-8,039	228,981	109,050
196,129	-8,406	229,112	108,818
197,144	-4,231	230,208	112,577
198,159	0,244	231,725	116,805
199,173	3,118	232,431	119,396
200,188	3,412	232,419	119,609
201,202	3,610	232,251	119,666
202,217	3,710	232,052	119,631
203,232	4,118	231,961	119,891
204,246	4,089	231,783	119,766
205,261	4,114	231,662	119,712
206,275	4,216	231,577	119,737
207,290	4,272	231,494	119,727
208,304	4,210	231,191	119,511
209,319	4,063	231,136	119,358
210,334	4,215	230,991	119,390
211,348	3,878	230,660	118,948
212,363	3,675	230,266	118,578
213,377	3,371	230,129	118,261
214,392	3,583	229,871	118,282
215,407	3,509	229,907	118,233
216,421	3,707	229,677	118,257
217,436	3,606	229,582	118,119
218,450	3,246	229,508	117,793
219,465	3,218	229,229	117,619
220,480	3,261	229,095	117,572
221,494	3,217	229,000	117,479
222,509	3,411	228,963	117,598
223,523	3,232	228,713	117,322
224,538	3,091	228,501	117,096
225,553	3,479	228,320	117,289
226,567	3,430	228,304	117,233
227,582	3,709	228,169	117,366
228,596	3,840	228,046	117,392
229,611	3,255	227,992	116,908
230,626	3,323	227,635	116,766
231,640	3,296	227,597	116,715
232,655	3,654	227,526	116,941
233,669	4,083	227,456	117,222
234,684	3,996	227,217	117,022
235,699	3,910	227,058	116,864
236,713	3,579	226,918	116,531
237,728	3,261	226,792	116,214
238,742	3,079	226,535	115,934
239,757	3,505	226,231	116,091
240,772	3,319	226,276	115,962
241,786	3,287	226,036	115,805
242,801	3,557	225,990	115,975
243,815	3,675	225,959	116,038
244,830	3,631	225,766	115,895
245,844	3,544	225,548	115,708
246,859	3,385	225,276	115,437
247,874	3,446	225,245	115,458
248,888	3,549	225,040	115,420
249,903	3,498	224,977	115,339
250,917	3,639	224,554	115,218
251,932	3,255	224,704	114,995
252,947	3,373	224,360	114,898
253,961	3,320	224,327	114,831
254,976	3,279	224,067	114,657
255,990	3,659	224,032	114,913
257,005	3,549	223,981	114,794
258,020	3,593	223,837	114,744
259,034	3,676	223,695	114,722
260,049	3,758	223,545	114,696
261,063	3,657	223,394	114,533
262,078	3,750	223,358	114,574
263,093	3,829	223,143	114,513
264,107	3,656	222,926	114,262
265,122	3,691	222,853	114,241
266,136	3,983	222,685	114,361
267,151	3,915	222,545	114,229
268,166	3,324	222,302	113,655
269,180	3,299	222,077	113,511
270,195	3,230	222,000	113,411
271,209	3,286	221,856	113,368
272,224	3,457	221,845	113,480
273,239	3,386	221,691	113,338
274,253	3,337	221,483	113,185
275,268	3,344	221,259	113,066
276,282	3,217	221,160	112,912
277,297	3,128	220,961	112,734
278,312	3,196	220,865	112,726
279,326	3,452	220,734	112,837
280,341	3,450	220,596	112,755
281,355	3,524	220,452	112,726
282,370	3,345	220,305	112,508
283,384	3,352	220,041	112,369
284,399	3,149	219,828	112,102
285,414	3,238	219,839	112,162
286,428	3,412	219,846	112,284
287,443	3,564	219,560	112,239
288,457	3,647	219,415	112,215
289,472	3,467	219,241	111,985
290,487	2,969	218,955	111,465
291,501	2,806	218,836	111,276
292,516	3,058	218,889	111,477
293,530	3,227	218,696	111,492
294,545	2,953	218,628	111,247
295,560	3,285	218,521	111,425
296,574	3,507	218,319	111,473
297,589	3,359	218,178	111,284
298,603	3,437	218,181	111,332
299,618	3,356	217,977	111,160
300,633	3,162	217,996	111,019
301,647	3,401	217,687	111,024
302,662	3,619	217,660	111,158
303,676	3,829	217,454	111,196
304,691	3,523	217,295	110,883
305,706	3,761	217,143	110,968
306,720	3,686	217,043	110,852
307,735	3,259	216,911	110,467
308,749	3,317	216,670	110,376
309,764	3,342	216,582	110,339
310,779	3,632	216,385	110,438
311,793	3,875	216,178	110,497
312,808	3,605	216,063	110,234
313,822	3,349	216,056	110,037
314,837	3,349	215,739	109,866
315,852	3,028	215,538	109,524
316,866	3,079	215,534	109,548
317,881	3,485	215,521	109,823
318,895	3,414	215,428	109,715
319,910	3,350	215,243	109,565
320,925	3,257	214,924	109,326
321,939	3,101	214,729	109,106
322,954	3,172	214,721	109,143
323,968	3,463	214,575	109,267
324,983	3,788	214,548	109,475
325,997	3,619	214,421	109,280
327,012	3,730	214,247	109,260
328,027	3,595	214,066	109,062
329,041	3,979	214,103	109,344
330,056	3,889	213,918	109,176
331,070	3,441	213,616	108,695
332,085	3,169	213,387	108,376
333,100	3,329	213,268	108,419
334,114	3,457	213,186	108,459
335,129	3,581	213,236	108,561
336,143	3,377	212,996	108,286
337,158	3,243	212,923	108,145
338,173	3,541	212,639	108,200
339,187	3,164	212,541	107,875
340,202	3,194	212,218	107,723
341,216	3,118	212,169	107,635
342,231	3,315	212,062	107,709
343,246	3,169	211,901	107,515
344,260	3,207	211,891	107,527
345,275	3,114	211,902	107,458
346,289	3,512	211,693	107,622
347,304	3,545	211,497	107,536
348,319	3,353	211,483	107,385
349,333	3,405	211,249	107,293
350,348	3,393	211,075	107,187
351,362	3,573	211,225	107,379
352,377	3,468	211,031	107,197
353,392	3,517	210,627	107,017
354,406	3,564	210,592	107,022
355,421	194,213	1342,386	1423,856
356,435	155,052	1480,296	1423,887
