DTS Sentinel unit serial number:	SN410029Multiplexer serial number:	ORYXHardware model number:	OX2-SRSoftware version number:	ORYX F/W v4,00 Oryx Data Collector v3.7.2.0data status	okinstallation	B6 Nyhavnadifferential loss correction	single-endedforward channel	channel 2reverse channel	N/Adate	2023/12/07time	22:15:08forward acquisition time	300,00reverse acquisition time	0,00gamma	499,1914k internal	0,3165k external	0,3165temperature offset calibration	1,0000default loss term (dB/km)	0,3820temperature slope calibration	1,0000multiplexer offset coefficient	1,0000multiplexer slope coefficient	1,0000fibre end	0,00T internal ref (°C)	13,62T ext. ref 1 (°C)	-3,34T ext. ref 2 (°C)	-3,32length (m)	temperature (°C)	Stokes	anti-Stokes-744,400	154,675	0,019	0,019
-743,385	-112,283	-0,310	-0,045
-742,371	-129,495	0,213	0,021
-741,356	-44,017	-0,210	0,077
-740,342	-24,064	0,138	-0,060
-739,327	-113,499	-0,336	0,048
-738,312	-141,729	0,255	-0,019
-737,298	-190,450	-0,323	-0,003
-736,283	-61,060	0,121	0,037
-735,269	-135,690	-0,352	0,030
-734,254	318,553	0,061	0,085
-733,239	28,389	-0,456	-0,283
-732,225	-71,636	0,176	-0,048
-731,210	-57,434	-0,016	-0,005
-730,196	-77,442	-0,072	0,018
-729,181	-200,000	0,005	-0,082
-728,167	-87,079	-0,047	0,011
-727,152	-200,000	0,051	-0,174
-726,137	47,990	-0,163	-0,112
-725,123	-200,000	-0,018	-0,068
-724,108	-40,835	-0,109	-0,041
-723,094	-200,000	0,002	-0,176
-722,079	-185,111	-0,103	-0,001
-721,064	353,027	-0,019	-0,027
-720,050	-114,544	0,062	-0,009
-719,035	800,000	0,027	-0,062
-718,021	-65,147	-0,052	-0,015
-717,006	-58,634	-0,236	-0,075
-715,991	-60,798	-0,062	-0,019
-714,977	800,000	-0,044	-0,118
-713,962	531,834	-0,115	-0,201
-712,948	324,795	-0,056	0,079
-711,933	250,232	-0,064	-0,080
-710,918	-200,000	0,017	-0,146
-709,904	-90,698	0,067	-0,014
-708,889	-200,000	0,005	-0,027
-707,875	175,312	-0,071	-0,076
-706,860	-200,000	-0,015	-0,070
-705,845	84,853	0,086	-0,069
-704,831	-59,083	0,042	-0,013
-703,816	451,462	-0,052	0,084
-702,802	2,360	0,065	-0,034
-701,787	-0,105	-0,148	-0,077
-700,772	-172,656	0,080	0,002
-699,758	183,898	0,017	0,019
-698,743	-200,000	0,029	-0,095
-697,729	-200,000	-0,000	-0,070
-696,714	-119,792	-0,071	-0,009
-695,699	-24,434	-0,104	-0,045
-694,685	-200,000	-0,003	-0,053
-693,670	800,000	0,027	0,071
-692,656	323,511	0,075	-0,106
-691,641	-106,592	0,132	0,021
-690,627	800,000	0,027	0,060
-689,612	-200,000	0,015	0,131
-688,597	50,947	-0,120	0,083
-687,583	-70,266	-0,123	-0,034
-686,568	397,915	0,078	-0,120
-685,554	203,781	0,041	0,046
-684,539	-200,000	-0,001	-0,146
-683,524	-200,000	0,045	0,156
-682,510	108,236	-0,089	0,078
-681,495	154,617	0,087	0,088
-680,481	-101,222	-0,069	-0,012
-679,466	456,912	0,089	-0,145
-678,451	800,000	0,027	-0,078
-677,437	-200,000	0,035	-0,155
-676,422	-81,129	-0,146	-0,035
-675,408	724,742	-0,077	-0,152
-674,393	-151,299	-0,123	-0,007
-673,378	-29,815	-0,059	0,024
-672,364	422,298	-0,072	-0,113
-671,349	-67,399	-0,073	-0,021
-670,335	38,792	-0,038	0,025
-669,320	-200,000	-0,013	-0,051
-668,305	85,531	-0,085	-0,068
-667,291	-62,891	0,078	-0,024
-666,276	-200,000	0,010	-0,065
-665,262	-200,000	0,012	-0,110
-664,247	-100,756	-0,059	-0,010
-663,232	-146,572	-0,171	0,011
-662,218	800,000	-0,042	-0,093
-661,203	-161,433	0,162	-0,006
-660,189	494,940	0,011	-0,019
-659,174	34,748	-0,057	-0,036
-658,159	210,826	-0,081	0,094
-657,145	-137,688	-0,089	-0,007
-656,130	212,406	0,077	0,089
-655,116	-42,736	-0,059	0,022
-654,101	52,799	0,088	-0,062
-653,086	-106,857	-0,199	0,032
-652,072	800,000	-0,026	0,077
-651,057	367,841	-0,019	0,028
-650,043	60,403	-0,072	0,052
-649,028	-200,000	-0,037	-0,127
-648,014	-42,193	0,091	0,034
-646,999	-51,948	0,111	-0,037
-645,984	-200,000	0,035	-0,121
-644,970	210,318	-0,072	0,083
-643,955	800,000	-0,021	-0,067
-642,941	-126,360	-0,050	0,005
-641,926	520,521	0,060	-0,103
-640,911	212,039	-0,054	0,062
-639,897	72,164	0,046	0,035
-638,882	-200,000	-0,008	-0,088
-637,868	800,000	0,031	-0,089
-636,853	553,226	0,017	-0,030
-635,838	-32,997	-0,196	-0,079
-634,824	-72,823	0,048	-0,013
-633,809	181,551	0,026	0,028
-632,795	125,906	-0,074	0,069
-631,780	800,000	0,044	0,106
-630,765	-99,723	-0,027	-0,005
-629,751	-138,056	-0,052	0,004
-628,736	-200,000	-0,013	0,062
-627,722	-176,327	-0,092	0,002
-626,707	800,000	0,075	0,195
-625,692	-106,262	0,067	0,011
-624,678	-200,000	0,001	0,024
-623,663	357,640	-0,017	-0,025
-622,649	-200,000	0,000	0,002
-621,634	-100,956	-0,097	-0,017
-620,619	22,355	-0,066	-0,039
-619,605	-158,397	0,067	0,003
-618,590	-21,100	-0,120	0,053
-617,576	-81,308	0,007	0,002
-616,561	-200,000	0,013	-0,046
-615,546	472,751	0,045	0,074
-614,532	46,965	-0,072	-0,049
-613,517	184,686	0,075	0,082
-612,503	-127,667	0,063	-0,007
-611,488	800,000	-0,054	0,116
-610,474	310,013	-0,068	-0,093
-609,459	442,643	-0,012	0,019
-608,444	105,841	-0,100	-0,086
-607,430	54,119	0,036	0,025
-606,415	39,821	0,173	0,113
-605,401	364,934	-0,004	0,007
-604,386	488,245	0,050	0,084
-603,371	302,452	0,021	0,029
-602,357	-109,141	-0,121	-0,019
-601,342	-136,081	-0,042	-0,004
-600,328	70,838	-0,092	-0,070
-599,313	222,924	-0,050	-0,059
-598,298	-200,000	-0,013	0,088
-597,284	800,000	0,016	-0,049
-596,269	203,188	0,069	0,079
-595,255	-200,000	0,002	0,014
-594,240	98,981	-0,033	0,028
-593,225	621,905	-0,048	-0,088
-592,211	-27,091	-0,090	-0,038
-591,196	-171,925	0,069	0,002
-590,182	595,471	-0,072	-0,132
-589,167	157,176	0,108	0,109
-588,152	800,000	-0,028	-0,059
-587,138	800,000	0,044	-0,092
-586,123	69,312	-0,092	-0,069
-585,109	18,450	0,077	-0,045
-584,094	128,299	-0,002	0,002
-583,079	-200,000	-0,005	-0,092
-582,065	-96,833	-0,108	0,021
-581,050	107,174	-0,037	-0,032
-580,036	800,000	0,032	-0,076
-579,021	-81,335	-0,079	0,019
-578,006	168,638	-0,127	-0,133
-576,992	800,000	-0,043	0,110
-575,977	-200,000	0,005	0,049
-574,963	800,000	0,015	0,044
-573,948	-10,448	0,027	0,013
-572,934	-113,372	-0,028	-0,004
-571,919	-200,000	-0,008	-0,026
-570,904	297,076	-0,022	0,030
-569,890	-200,000	-0,009	0,180
-568,875	-3,565	0,098	-0,050
-567,861	137,501	0,017	0,017
-566,846	368,565	0,056	0,082
-565,831	256,254	-0,059	-0,074
-564,817	-156,734	0,159	-0,007
-563,802	189,733	-0,051	0,056
-562,788	-45,832	-0,090	-0,032
-561,773	-39,031	0,075	-0,029
-560,758	-15,347	-0,050	0,023
-559,744	800,000	0,022	-0,049
-558,729	-5,219	-0,065	0,033
-557,715	-148,969	-0,044	-0,003
-556,700	-77,298	0,151	0,038
-555,685	0,656	-0,090	-0,047
-554,671	-200,000	0,002	-0,151
-553,656	206,830	0,097	0,110
-552,642	219,764	0,081	0,095
-551,627	-200,000	-0,017	0,143
-550,612	-186,014	0,095	-0,001
-549,598	111,633	-0,058	-0,051
-548,583	60,928	-0,023	-0,017
-547,569	-163,966	-0,076	0,003
-546,554	307,370	0,081	0,111
-545,539	319,153	0,086	-0,120
-544,525	800,000	-0,046	-0,101
-543,510	-200,000	-0,007	0,090
-542,496	34,603	0,070	-0,045
-541,481	800,000	0,010	0,027
-540,466	-200,000	-0,029	0,095
-539,452	594,862	0,037	-0,067
-538,437	-200,000	0,008	0,063
-537,423	-145,577	0,148	0,010
-536,408	-200,000	-0,028	-0,110
-535,393	-200,000	0,006	0,081
-534,379	800,000	0,008	0,017
-533,364	-103,076	0,152	0,026
-532,350	352,379	0,062	0,089
-531,335	609,283	0,010	-0,017
-530,321	-25,316	-0,069	0,030
-529,306	-66,657	0,098	-0,028
-528,291	-200,000	0,026	-0,116
-527,277	800,000	0,080	-0,178
-526,262	548,052	-0,059	-0,104
-525,248	800,000	-0,020	0,051
-524,233	124,737	0,066	-0,060
-523,218	195,227	-0,086	0,095
-522,204	-200,000	-0,002	0,056
-521,189	-200,000	-0,002	-0,008
-520,175	299,080	0,044	-0,060
-519,160	-200,000	0,022	0,135
-518,145	-17,956	0,114	-0,052
-517,131	-200,000	-0,008	0,050
-516,116	-200,000	0,007	-0,052
-515,102	-200,000	-0,001	0,051
-514,087	147,344	-0,050	0,049
-513,072	-155,418	-0,203	0,009
-512,058	800,000	0,070	-0,142
-511,043	80,108	0,129	0,101
-510,029	-200,000	0,010	0,115
-509,014	265,022	0,120	-0,153
-507,999	-200,000	-0,025	-0,145
-506,985	-200,000	0,032	0,126
-505,970	670,230	0,056	-0,107
-504,956	21,951	-0,072	0,043
-503,941	-200,000	0,023	0,076
-502,926	800,000	-0,018	0,051
-501,912	-158,680	0,056	-0,002
-500,897	-52,755	0,082	-0,027
-499,883	-109,997	0,101	0,015
-498,868	-168,323	-0,128	-0,004
-497,853	-142,633	-0,181	0,013
-496,839	-91,621	-0,094	-0,019
-495,824	-200,000	0,010	0,061
-494,810	-187,494	0,065	-0,001
-493,795	800,000	0,066	0,147
-492,781	-200,000	0,003	-0,013
-491,766	-200,000	0,021	-0,092
-490,751	-55,613	-0,123	0,040
-489,737	-200,000	0,007	0,182
-488,722	356,141	0,114	0,165
-487,708	69,581	-0,010	0,008
-486,693	-73,970	-0,083	0,022
-485,678	800,000	0,033	0,083
-484,664	145,350	0,026	0,026
-483,649	-200,000	-0,001	-0,061
-482,635	-200,000	-0,009	-0,029
-481,620	800,000	0,058	-0,169
-480,605	-118,365	-0,090	-0,012
-479,591	31,863	-0,119	0,075
-478,576	-71,909	-0,090	0,024
-477,562	-200,000	-0,050	0,000
-476,547	231,042	-0,052	0,062
-475,532	-200,000	0,007	-0,057
-474,518	-200,000	0,047	-0,205
-473,503	-200,000	0,004	-0,083
-472,489	309,581	0,091	0,124
-471,474	-200,000	0,000	-0,045
-470,459	-80,480	-0,065	-0,016
-469,445	800,000	0,004	-0,010
-468,430	-75,504	-0,057	-0,015
-467,416	172,406	-0,116	0,122
-466,401	-23,855	0,103	-0,045
-465,386	-177,468	0,094	-0,002
-464,372	-200,000	0,012	-0,058
-463,357	-200,000	-0,051	-0,170
-462,343	261,614	-0,026	-0,033
-461,328	-75,844	-0,113	-0,029
-460,313	-200,000	-0,014	-0,051
-459,299	-200,000	-0,003	-0,022
-458,284	-110,576	0,071	-0,011
-457,270	-200,000	-0,003	0,089
-456,255	113,184	-0,105	-0,093
-455,241	-200,000	0,019	-0,064
-454,226	-107,572	-0,098	0,015
-453,211	-55,311	0,135	0,044
-452,197	800,000	0,028	0,072
-451,182	637,766	0,052	0,096
-450,168	230,494	0,033	-0,040
-449,153	17,447	0,042	-0,024
-448,138	620,051	-0,022	0,040
-447,124	277,806	-0,005	-0,007
-446,109	-145,355	0,263	0,017
-445,095	-30,809	0,165	0,068
-444,080	-140,457	-0,050	-0,004
-443,065	326,465	0,077	0,107
-442,051	-105,182	-0,067	0,011
-441,036	-69,073	-0,034	-0,010
-440,022	-200,000	0,032	-0,118
-439,007	-83,312	0,063	-0,014
-437,992	110,893	-0,009	-0,008
-436,978	-200,000	-0,070	0,231
-435,963	312,970	0,007	-0,009
-434,949	267,829	-0,034	0,043
-433,934	800,000	-0,039	-0,120
-432,919	800,000	0,068	-0,153
-431,905	-66,516	0,072	0,021
-430,890	-73,942	-0,128	0,034
-429,876	-4,239	0,057	0,028
-428,861	-200,000	-0,016	0,100
-427,846	54,162	-0,059	-0,041
-426,832	-200,000	-0,000	-0,052
-425,817	-128,997	-0,016	0,002
-424,803	-123,204	0,170	-0,020
-423,788	450,642	0,071	-0,114
-422,773	-200,000	-0,015	0,098
-421,759	246,748	-0,032	-0,040
-420,744	800,000	0,016	-0,050
-419,730	58,993	0,153	-0,109
-418,715	-200,000	0,005	-0,048
-417,701	800,000	0,029	0,059
-416,686	-200,000	0,024	-0,117
-415,671	-115,550	0,083	0,011
-414,657	-200,000	0,027	-0,092
-413,642	-67,464	-0,129	-0,036
-412,628	0,715	-0,091	0,047
-411,613	22,520	-0,025	-0,015
-410,598	-200,000	0,002	-0,055
-409,584	-137,675	-0,075	-0,006
-408,569	-200,000	0,010	0,042
-407,555	91,872	0,067	0,055
-406,540	254,630	0,077	0,096
-405,525	-44,775	-0,125	0,045
-404,511	51,964	-0,104	-0,072
-403,496	800,000	-0,036	0,090
-402,482	147,900	0,016	0,015
-401,467	558,377	0,037	-0,064
-400,452	-200,000	0,006	0,030
-399,438	-54,701	0,086	0,028
-398,423	-146,100	-0,065	-0,004
-397,409	-200,000	0,003	-0,022
-396,394	-200,000	-0,006	-0,075
-395,379	-200,000	-0,027	0,137
-394,365	-200,000	-0,005	-0,050
-393,350	-0,851	0,023	0,012
-392,336	270,944	0,050	0,064
-391,321	800,000	-0,032	0,068
-390,306	800,000	-0,015	-0,035
-389,292	800,000	-0,059	0,162
-388,277	110,148	0,112	-0,097
-387,263	-200,000	-0,026	0,088
-386,248	-63,032	0,108	0,032
-385,233	-21,594	-0,084	-0,037
-384,219	-156,421	0,051	0,002
-383,204	506,198	0,062	-0,104
-382,190	-61,916	0,042	-0,013
-381,175	800,000	-0,012	0,031
-380,160	87,566	0,105	0,084
-379,146	800,000	-0,040	0,094
-378,131	-200,000	-0,014	0,047
-377,117	-200,000	0,007	0,035
-376,102	325,302	-0,097	0,135
-375,088	48,828	0,179	-0,121
-374,073	-145,930	-0,042	0,003
-373,058	-200,000	-0,002	0,086
-372,044	800,000	-0,039	-0,082
-371,029	-15,480	0,140	0,065
-370,015	-200,000	-0,003	0,029
-369,000	800,000	-0,052	-0,118
-367,985	-73,382	-0,127	0,033
-366,971	243,080	0,018	-0,022
-365,956	188,669	-0,101	-0,109
-364,942	-120,805	0,099	0,012
-363,927	304,124	-0,012	0,016
-362,912	800,000	-0,022	-0,055
-361,898	-49,778	-0,148	0,051
-360,883	-133,602	-0,026	0,002
-359,869	-200,000	-0,005	-0,108
-358,854	800,000	-0,009	-0,026
-357,839	-200,000	0,014	0,086
-356,825	536,671	0,010	0,017
-355,810	340,150	-0,063	-0,089
-354,796	800,000	0,034	-0,091
-353,781	-44,947	-0,047	0,017
-352,766	800,000	-0,052	-0,120
-351,752	-200,000	0,022	0,094
-350,737	493,238	-0,095	0,159
-349,723	100,811	0,087	0,074
-348,708	360,769	-0,039	-0,057
-347,693	800,000	-0,049	0,136
-346,679	-78,367	-0,118	0,029
-345,664	-45,631	0,168	0,060
-344,650	-200,000	-0,021	0,069
-343,635	63,729	-0,110	0,080
-342,620	-200,000	-0,003	0,036
-341,606	161,552	0,064	-0,065
-340,591	616,441	-0,031	-0,057
-339,577	387,594	-0,026	-0,040
-338,562	-200,000	-0,005	-0,073
-337,548	-73,592	0,097	-0,025
-336,533	331,559	-0,063	0,089
-335,518	172,840	-0,067	-0,070
-334,504	-121,667	0,073	0,009
-333,489	78,263	-0,163	-0,125
-332,475	-9,829	-0,081	0,039
-331,460	221,068	-0,092	-0,107
-330,445	-116,856	-0,121	0,016
-329,431	-125,523	0,074	-0,008
-328,416	-33,386	0,109	0,043
-327,402	553,926	0,032	-0,056
-326,387	698,123	-0,002	0,004
-325,372	-74,121	-0,157	0,041
-324,358	83,484	-0,118	-0,093
-323,343	112,122	0,083	-0,073
-322,329	-200,000	-0,002	0,100
-321,314	-200,000	0,004	-0,072
-320,299	-91,965	0,091	0,019
-319,285	800,000	-0,081	-0,175
-318,270	-63,439	0,095	0,028
-317,256	-200,000	0,027	-0,111
-316,241	81,796	-0,170	-0,133
-315,226	50,922	-0,108	0,074
-314,212	-200,000	0,011	0,055
-313,197	-200,000	-0,013	0,175
-312,183	-200,000	0,026	0,193
-311,168	-200,000	-0,003	0,011
-310,153	-16,798	-0,006	0,003
-309,139	109,578	0,040	-0,035
-308,124	-103,595	0,108	-0,018
-307,110	-88,508	0,083	0,018
-306,095	224,342	-0,064	0,075
-305,080	596,335	-0,050	-0,090
-304,066	69,581	0,069	-0,052
-303,051	-200,000	0,003	0,108
-302,037	-200,000	0,029	0,115
-301,022	-200,000	0,006	0,103
-300,008	207,587	-0,015	-0,017
-298,993	800,000	-0,054	0,125
-297,978	236,874	0,016	0,019
-296,964	800,000	0,012	0,027
-295,949	432,331	0,039	-0,062
-294,935	800,000	-0,013	0,037
-293,920	24,734	0,069	-0,041
-292,905	-52,199	0,129	0,043
-291,891	-200,000	0,028	0,107
-290,876	-94,901	-0,072	-0,014
-289,862	75,681	-0,137	-0,104
-288,847	98,159	0,046	-0,038
-287,832	76,442	-0,028	0,021
-286,818	220,818	-0,044	-0,051
-285,803	-200,000	0,003	-0,131
-284,789	347,103	0,123	0,175
-283,774	-97,659	0,122	0,023
-282,759	-180,356	0,067	-0,001
-281,745	50,983	-0,021	0,014
-280,730	-55,210	-0,092	0,030
-279,716	-200,000	0,033	0,150
-278,701	-200,000	-0,029	-0,113
-277,686	800,000	0,012	0,027
-276,672	-200,000	0,020	-0,128
-275,657	-142,068	0,059	-0,004
-274,643	123,524	-0,067	0,061
-273,628	800,000	-0,051	-0,139
-272,613	-190,306	0,045	-0,000
-271,599	-200,000	0,007	-0,069
-270,584	163,856	0,019	0,019
-269,570	-200,000	0,014	0,093
-268,555	-41,608	-0,035	-0,013
-267,540	-169,244	-0,039	0,001
-266,526	85,483	-0,071	-0,056
-265,511	800,000	0,047	-0,105
-264,497	-200,000	-0,005	0,024
-263,482	-126,659	0,091	0,010
-262,467	-13,155	0,040	0,019
-261,453	-200,000	0,011	0,043
-260,438	116,370	-0,014	0,013
-259,424	-200,000	0,021	-0,067
-258,409	-133,719	-0,165	0,015
-257,395	-200,000	0,036	0,000
-256,380	-90,938	0,134	0,028
-255,365	-200,000	0,003	-0,063
-254,351	800,000	0,034	0,091
-253,336	-200,000	0,042	-0,219
-252,322	111,603	-0,095	-0,083
-251,307	-200,000	0,001	-0,017
-250,292	-6,450	0,094	0,046
-249,278	230,471	-0,044	-0,053
-248,263	-200,000	-0,025	-0,094
-247,249	-200,000	0,020	0,103
-246,234	-158,840	0,088	0,004
-245,219	-74,965	0,067	-0,017
-244,205	-70,622	-0,155	-0,042
-243,190	800,000	-0,042	0,121
-242,176	197,256	-0,049	0,054
-241,161	-200,000	0,011	0,079
-240,146	-200,000	-0,003	0,023
-239,132	227,297	0,101	-0,119
-238,117	-200,000	-0,032	-0,104
-237,103	800,000	-0,097	-0,201
-236,088	-200,000	-0,002	-0,067
-235,073	171,445	0,099	0,103
-234,059	-91,695	-0,143	0,029
-233,044	-67,417	0,078	0,022
-232,030	800,000	-0,072	-0,198
-231,015	-147,698	-0,005	-0,000
-230,000	727,721	-0,028	-0,053
-228,986	-129,786	0,151	-0,015
-227,971	700,971	0,042	-0,080
-226,957	-85,638	0,101	0,022
-225,942	64,001	-0,077	0,056
-224,927	-35,358	0,098	-0,038
-223,913	-16,257	-0,097	0,044
-222,898	-200,000	0,003	-0,080
-221,884	-119,122	0,009	0,001
-220,869	-97,758	-0,043	-0,008
-219,855	-151,137	0,138	0,007
-218,840	-0,134	-0,101	0,052
-217,825	-200,000	-0,014	0,085
-216,811	131,171	-0,055	-0,051
-215,796	495,676	-0,080	0,134
-214,782	-76,527	0,068	0,017
-213,767	-116,007	-0,102	-0,014
-212,752	158,991	0,068	-0,068
-211,738	174,810	-0,071	0,074
-210,723	448,038	-0,021	-0,033
-209,709	248,927	-0,114	-0,139
-208,694	-163,232	-0,036	0,001
-207,679	800,000	-0,020	-0,060
-206,665	210,821	0,016	0,018
-205,650	-66,078	-0,053	-0,015
-204,636	-200,000	0,012	-0,099
-203,621	673,389	-0,034	-0,064
-202,606	-126,889	-0,141	0,015
-201,592	-1,772	-0,056	0,028
-200,577	72,380	-0,151	-0,113
-199,563	705,028	0,029	-0,055
-198,548	289,747	0,042	-0,055
-197,533	-146,858	-0,117	-0,007
-196,519	-109,075	0,082	0,012
-195,504	-97,735	0,122	-0,023
-194,490	-200,000	-0,030	-0,111
-193,475	-151,132	-0,146	0,008
-192,460	-200,000	0,064	0,000
-191,446	-125,758	0,094	0,010
-190,431	-38,877	0,054	0,021
-189,417	-65,138	0,093	0,027
-188,402	-200,000	-0,011	-0,064
-187,387	-125,112	-0,108	-0,012
-186,373	-200,000	-0,015	-0,089
-185,358	-72,230	0,066	0,017
-184,344	-124,555	0,023	0,003
-183,329	-200,000	-0,031	0,114
-182,315	235,703	-0,033	-0,040
-181,300	-42,581	0,059	0,022
-180,285	-200,000	-0,029	-0,111
-179,271	-200,000	0,000	0,028
-178,256	48,566	0,063	0,042
-177,242	-68,206	-0,012	-0,003
-176,227	112,736	0,103	0,090
-175,212	-75,267	0,069	0,017
-174,198	267,341	0,162	0,204
-173,183	34,172	0,070	0,044
-172,169	86,079	-0,157	0,124
-171,154	717,121	0,034	0,066
-170,139	-109,811	-0,041	0,006
-169,125	-124,228	0,134	-0,015
-168,110	-200,000	-0,008	0,058
-167,096	-22,878	0,043	-0,019
-166,081	-142,645	-0,191	-0,013
-165,066	-64,234	-0,060	-0,018
-164,052	-93,751	0,043	-0,008
-163,037	-200,000	-0,001	0,021
-162,023	800,000	0,060	-0,147
-161,008	90,668	-0,062	0,050
-159,993	-200,000	-0,001	-0,029
-158,979	-200,000	-0,006	-0,022
-157,964	291,586	0,020	0,027
-156,950	196,593	-0,098	0,107
-155,935	-200,000	0,039	0,130
-154,920	-139,790	0,124	-0,009
-153,906	431,270	0,070	0,109
-152,891	164,710	-0,041	0,042
-151,877	25,768	0,081	-0,049
-150,862	-6,277	0,080	-0,039
-149,847	-4,819	0,027	-0,013
-148,833	800,000	-0,040	0,109
-147,818	80,916	0,018	0,014
-146,804	-200,000	0,018	0,132
-145,789	-145,181	0,130	0,008
-144,775	15,775	0,019	0,011
-143,760	800,000	-0,024	-0,064
-142,745	-137,351	0,084	0,007
-141,731	51,831	-0,154	-0,105
-140,716	-200,000	-0,012	0,055
-139,702	-200,000	0,010	0,049
-138,687	2,148	-0,107	0,055
-137,672	-126,504	0,136	0,014
-136,658	165,523	-0,106	-0,107
-135,643	-200,000	0,006	-0,041
-134,629	107,731	-0,067	-0,057
-133,614	800,000	-0,021	0,055
-132,599	-200,000	0,024	-0,078
-131,585	297,067	-0,091	-0,120
-130,570	93,137	-0,042	-0,034
-129,556	800,000	0,024	0,061
-128,541	-177,980	-0,199	0,003
-127,526	-58,820	0,078	0,024
-126,512	188,800	-0,058	0,062
-125,497	50,372	0,136	0,092
-124,483	94,012	-0,115	0,094
-123,468	-200,000	-0,004	-0,158
-122,453	-200,000	0,010	-0,143
-121,439	-74,824	-0,191	-0,049
-120,424	193,568	0,087	0,095
-119,410	147,068	-0,051	-0,049
-118,395	-78,301	0,067	0,016
-117,380	-68,470	0,138	0,038
-116,366	-126,304	-0,094	-0,010
-115,351	800,000	-0,025	0,051
-114,337	-191,107	-0,063	-0,000
-113,322	149,495	-0,146	-0,142
-112,307	285,893	0,082	-0,106
-111,293	-119,221	0,064	-0,008
-110,278	619,261	-0,041	0,074
-109,264	353,969	-0,075	-0,108
-108,249	800,000	0,041	-0,110
-107,234	-200,000	0,017	-0,078
-106,220	800,000	0,017	-0,047
-105,205	83,413	0,034	0,027
-104,191	-200,000	0,013	0,055
-103,176	502,251	0,036	0,060
-102,162	115,757	0,036	0,032
-101,147	-138,845	-0,106	-0,008
-100,132	-200,000	-0,000	-0,074
-99,118	800,000	-0,016	-0,049
-98,103	232,706	0,049	-0,057
-97,089	-200,000	-0,013	-0,085
-96,074	-18,272	0,113	0,050
-95,059	-200,000	0,010	0,068
-94,045	-200,000	-0,020	0,076
-93,030	-121,016	-0,066	-0,008
-92,016	99,040	-0,060	-0,049
-91,001	-200,000	0,030	0,100
-89,986	40,546	0,061	0,039
-88,972	-60,536	-0,074	0,022
-87,957	-42,484	0,164	-0,060
-86,943	-200,000	0,045	-0,145
-85,928	173,652	0,018	0,019
-84,913	-200,000	-0,012	0,042
-83,899	50,741	-0,089	0,060
-82,884	800,000	-0,017	0,053
-81,870	-200,000	0,025	-0,119
-80,855	-92,017	0,057	-0,011
-79,840	-49,292	0,045	-0,015
-78,826	529,090	0,005	-0,008
-77,811	-200,000	-0,001	-0,185
-76,797	349,311	0,050	-0,071
-75,782	-83,324	0,138	0,031
-74,767	-133,263	0,148	0,013
-73,753	-200,000	0,021	-0,163
-72,738	35,329	-0,038	-0,024
-71,724	90,757	-0,055	-0,044
-70,709	640,367	-0,020	0,036
-69,694	-75,848	0,061	0,015
-68,680	-47,752	0,092	0,032
-67,665	-200,000	-0,045	0,178
-66,651	-200,000	0,004	-0,027
-65,636	25,156	-0,093	-0,055
-64,622	800,000	0,026	-0,061
-63,607	174,307	-0,091	0,094
-62,592	-118,801	0,051	0,006
-61,578	-23,391	0,064	-0,027
-60,563	-83,241	-0,199	0,045
-59,549	-200,000	0,012	0,184
-58,534	43,176	-2,244	-1,464
-57,519	-200,000	-0,184	-0,776
-56,505	-200,000	-1,345	-5,166
-55,490	135,089	0,998	0,929
-54,476	800,000	5,351	12,169
-53,461	-200,000	18,604	309,945
-52,446	800,000	739,706	2291,566
-51,432	541,982	1652,619	2831,607
-50,417	108,946	1636,602	1400,759
-49,403	72,378	1287,019	959,269
-48,388	29,838	1028,355	625,735
-47,373	19,762	990,884	569,688
-46,359	17,339	978,725	554,733
-45,344	13,977	974,777	541,470
-44,330	14,307	973,282	541,698
-43,315	13,674	971,283	538,494
-42,300	13,595	970,256	537,646
-41,286	13,659	969,451	537,388
-40,271	13,637	968,342	536,680
-39,257	13,658	967,575	536,303
-38,242	13,659	966,791	535,851
-37,227	13,732	965,782	535,507
-36,213	13,641	965,073	534,797
-35,198	13,572	964,211	534,075
-34,184	13,669	963,492	533,970
-33,169	13,636	962,504	533,292
-32,154	13,624	961,592	532,727
-31,140	13,676	960,545	532,293
-30,125	13,618	959,895	531,727
-29,111	13,595	959,230	531,262
-28,096	13,648	958,662	531,097
-27,082	13,682	957,655	530,630
-26,067	13,653	957,012	530,156
-25,052	13,666	956,243	529,751
-24,038	13,675	955,599	529,404
-23,023	13,645	955,073	528,996
-22,009	13,675	954,300	528,640
-20,994	13,703	953,569	528,306
-19,979	13,650	953,071	527,839
-18,965	13,643	952,552	527,507
-17,950	13,646	951,919	527,146
-16,936	13,594	951,348	526,642
-15,921	13,620	950,466	526,216
-14,906	13,563	949,730	525,607
-13,892	13,516	949,275	525,182
-12,877	13,526	948,498	524,764
-11,863	13,482	948,029	524,344
-10,848	13,528	947,358	524,098
-9,833	13,607	946,916	524,085
-8,819	13,592	946,154	523,596
-7,804	13,581	945,449	523,148
-6,790	13,576	944,860	522,785
-5,775	13,538	944,472	522,430
-4,760	13,535	943,891	522,079
-3,746	13,537	943,088	521,620
-2,731	13,401	942,537	520,864
-1,717	13,418	941,744	520,460
-0,702	13,391	941,045	519,967
0,313	13,229	940,468	519,920
1,327	16,542	938,429	529,192
2,342	25,438	789,589	468,674
3,356	21,548	444,027	257,785
4,371	-7,737	296,632	142,842
5,386	-11,675	278,231	130,228
6,400	-12,717	272,592	126,606
7,415	-12,788	270,364	125,494
8,429	-12,877	268,763	124,658
9,444	-12,938	267,924	124,202
10,459	-12,967	267,226	123,841
11,473	-13,135	266,745	123,454
12,488	-13,087	266,066	123,173
13,502	-13,353	265,623	122,715
14,517	-13,135	265,254	122,731
15,531	-13,118	264,844	122,546
16,546	-13,087	264,342	122,331
17,561	-13,105	264,007	122,149
18,575	-12,957	263,676	122,118
19,590	-13,091	263,315	121,819
20,604	-12,923	263,090	121,855
21,619	-12,958	262,583	121,578
22,634	-13,081	262,233	121,295
23,648	-13,148	262,028	121,129
24,663	-13,093	261,716	121,024
25,677	-13,077	261,541	120,946
26,692	-13,079	261,290	120,817
27,707	-13,235	260,970	120,520
28,721	-13,110	260,587	120,443
29,736	-12,888	260,251	120,475
30,750	-13,340	260,184	120,031
31,765	-13,225	259,973	120,026
32,780	-13,214	259,570	119,838
33,794	-13,279	259,373	119,679
34,809	-13,091	259,069	119,695
35,823	-13,054	258,683	119,539
36,838	-13,164	258,739	119,456
37,853	-13,352	258,458	119,150
38,867	-13,147	258,100	119,155
39,882	-13,113	257,962	119,111
40,896	-13,257	257,599	118,806
41,911	-13,201	257,410	118,757
42,926	-13,341	257,175	118,515
43,940	-13,172	256,998	118,571
44,955	-13,263	256,638	118,315
45,969	-13,301	256,536	118,224
46,984	-13,636	256,275	117,801
47,999	-13,631	255,918	117,631
49,013	-13,806	255,659	117,348
50,028	-13,793	255,465	117,261
51,042	-14,128	255,299	116,883
52,057	-14,084	254,925	116,739
53,071	-13,929	254,813	116,812
54,086	-13,804	254,431	116,734
55,101	-13,687	254,350	116,788
56,115	-13,572	254,084	116,755
57,130	-13,175	254,169	117,127
58,144	-12,891	253,864	117,221
59,159	-12,807	253,698	117,207
60,174	-13,013	253,540	116,946
61,188	-12,972	253,357	116,887
62,203	-12,956	252,986	116,719
63,217	-12,920	252,815	116,660
64,232	-13,057	252,679	116,469
65,247	-12,973	252,468	116,434
66,261	-13,083	252,129	116,174
67,276	-13,225	251,958	115,962
68,290	-13,673	251,824	115,506
69,305	-13,660	251,346	115,288
70,320	-13,515	251,073	115,277
71,334	-13,366	251,129	115,419
72,349	-12,979	251,064	115,709
73,363	-13,079	250,766	115,476
74,378	-13,243	250,407	115,161
75,393	-13,141	250,214	115,148
76,407	-13,220	250,102	115,020
77,422	-13,219	249,936	114,934
78,436	-13,124	249,672	114,884
79,451	-13,169	249,419	114,718
80,466	-13,205	249,276	114,611
81,480	-13,250	248,972	114,424
82,495	-13,323	248,665	114,211
83,509	-13,227	248,502	114,207
84,524	-13,500	248,202	113,829
85,539	-13,564	248,043	113,692
86,553	-13,325	247,842	113,791
87,568	-13,220	247,701	113,804
88,582	-13,369	247,414	113,537
89,597	-13,366	247,457	113,549
90,611	-13,452	247,265	113,378
91,626	-13,173	247,169	113,559
92,641	-13,021	246,844	113,526
93,655	-13,168	246,661	113,309
94,670	-13,346	246,444	113,050
95,684	-13,117	246,300	113,166
96,699	-13,087	245,908	113,000
97,714	-13,312	245,920	112,808
98,728	-13,518	245,659	112,507
99,743	-13,523	245,452	112,397
100,757	-13,524	245,181	112,263
101,772	-13,477	245,022	112,219
102,787	-13,468	244,917	112,168
103,801	-13,193	244,626	112,254
104,816	-13,369	244,557	112,066
105,830	-13,203	244,398	112,121
106,845	-13,073	244,339	112,191
107,860	-13,098	243,974	111,993
108,874	-13,067	243,602	111,838
109,889	-13,268	243,576	111,650
110,903	-13,306	243,453	111,552
111,918	-13,411	243,239	111,358
112,933	-12,994	243,115	111,634
113,947	-13,202	242,875	111,343
114,962	-13,046	242,658	111,362
115,976	-13,094	242,616	111,293
116,991	-13,119	242,359	111,145
118,006	-13,162	242,120	110,990
119,020	-13,141	242,098	110,987
120,035	-13,050	241,910	110,966
121,049	-13,030	241,690	110,871
122,064	-13,274	241,624	110,632
123,079	-13,304	241,372	110,482
124,093	-13,251	241,268	110,468
125,108	-13,422	240,802	110,105
126,122	-13,596	240,598	109,861
127,137	-13,550	240,456	109,823
128,151	-13,690	240,391	109,669
129,166	-13,440	240,248	109,798
130,181	-13,507	239,923	109,586
131,195	-13,481	239,576	109,438
132,210	-13,335	239,622	109,568
133,224	-13,453	239,627	109,465
134,239	-12,955	239,300	109,708
135,254	-13,095	239,118	109,501
136,268	-13,307	238,844	109,196
137,283	-13,579	238,540	108,827
138,297	-13,529	238,253	108,727
139,312	-13,535	238,090	108,638
140,327	-13,242	238,095	108,866
141,341	-12,926	238,068	109,098
142,356	-12,836	237,982	109,122
143,370	-12,791	237,771	109,052
144,385	-12,900	237,631	108,890
145,400	-12,875	237,430	108,808
146,414	-12,786	237,234	108,780
147,429	-13,055	237,095	108,491
148,443	-13,028	236,830	108,382
149,458	-12,966	236,597	108,315
150,473	-13,024	236,693	108,303
151,487	-13,142	236,315	108,026
152,502	-12,897	236,113	108,120
153,516	-13,008	236,009	107,974
154,531	-12,978	235,796	107,891
155,546	-12,885	235,654	107,890
156,560	-12,931	235,470	107,760
157,575	-13,125	235,169	107,458
158,589	-12,945	235,143	107,580
159,604	-12,907	235,024	107,546
160,619	-12,665	234,702	107,580
161,633	-12,559	234,531	107,576
162,648	-12,627	234,498	107,498
163,662	-12,864	234,376	107,245
164,677	-13,094	234,082	106,920
165,692	-13,014	234,056	106,961
166,706	-12,821	233,838	107,004
167,721	-12,793	233,637	106,924
168,735	-12,897	233,637	106,833
169,750	-13,031	233,403	106,611
170,764	-12,930	233,218	106,596
171,779	-12,859	233,117	106,596
172,794	-12,743	233,002	106,626
173,808	-13,067	232,840	106,288
174,823	-13,377	232,460	105,862
175,837	-13,367	232,198	105,741
176,852	-13,047	232,353	106,053
177,867	-13,035	232,169	105,968
178,881	-12,856	231,835	105,946
179,896	-12,769	231,812	105,994
180,910	-12,852	231,690	105,865
181,925	-12,964	231,579	105,717
182,940	-12,868	231,411	105,706
183,954	-12,787	231,310	105,713
184,969	-12,970	231,192	105,507
185,983	-12,628	230,999	105,676
186,998	-12,668	230,938	105,607
188,013	-12,712	230,652	105,433
189,027	-12,807	230,459	105,262
190,042	-12,656	230,254	105,276
191,056	-12,743	230,038	105,100
192,071	-12,823	230,004	105,014
193,086	-12,745	229,787	104,965
194,100	-12,563	229,615	105,018
195,115	-13,233	229,284	104,340
196,129	-13,300	229,293	104,284
197,144	-7,859	231,151	109,344
198,159	-1,827	232,699	114,768
199,173	1,840	233,881	118,206
200,188	2,441	233,890	118,669
201,202	2,234	233,660	118,380
202,217	2,359	233,533	118,402
203,232	2,396	233,504	118,406
204,246	2,616	233,266	118,446
205,261	2,657	233,253	118,461
206,275	2,981	233,003	118,575
207,290	2,904	232,874	118,439
208,304	2,703	232,796	118,232
209,319	2,975	232,558	118,312
210,334	2,864	232,370	118,119
211,348	2,575	232,300	117,850
212,363	2,055	231,940	117,255
213,377	1,942	231,725	117,049
214,392	2,222	231,396	117,088
215,407	2,109	231,503	117,044
216,421	2,280	231,259	117,042
217,436	2,027	231,117	116,765
218,450	2,055	230,849	116,641
219,465	1,994	230,597	116,456
220,480	1,878	230,616	116,367
221,494	1,897	230,462	116,293
222,509	2,084	230,382	116,386
223,523	2,201	230,325	116,436
224,538	2,080	230,057	116,198
225,553	2,200	229,848	116,173
226,567	2,332	229,615	116,147
227,582	2,288	229,756	116,174
228,596	2,547	229,511	116,237
229,611	2,274	229,376	115,950
230,626	1,922	228,997	115,480
231,640	2,002	229,016	115,540
232,655	2,301	228,910	115,704
233,669	2,464	228,745	115,734
234,684	2,884	228,554	115,947
235,699	2,542	228,421	115,609
236,713	2,349	228,173	115,327
237,728	2,361	227,976	115,226
238,742	1,998	227,954	114,930
239,757	2,223	227,814	115,019
240,772	2,042	227,498	114,713
241,786	2,007	227,433	114,643
242,801	2,506	227,480	115,033
243,815	2,385	227,437	114,910
244,830	2,627	227,292	115,010
245,844	2,210	226,931	114,502
246,859	2,197	226,752	114,392
247,874	2,240	226,738	114,407
248,888	2,291	226,554	114,343
249,903	2,116	226,461	114,154
250,917	2,088	226,173	113,977
251,932	2,179	226,015	113,956
252,947	2,077	225,877	113,800
253,961	1,866	225,659	113,522
254,976	1,798	225,546	113,403
255,990	2,354	225,471	113,772
257,005	2,388	225,404	113,753
258,020	2,270	225,240	113,573
259,034	2,326	225,044	113,506
260,049	2,734	224,779	113,666
261,063	2,273	224,876	113,360
262,078	2,439	224,746	113,409
263,093	2,686	224,411	113,413
264,107	2,591	224,403	113,329
265,122	2,472	224,273	113,164
266,136	2,631	224,267	113,269
267,151	2,605	224,060	113,136
268,166	2,054	223,767	112,569
269,180	1,903	223,463	112,293
270,195	2,003	223,391	112,321
271,209	2,235	223,191	112,382
272,224	2,174	223,100	112,282
273,239	2,235	222,994	112,264
274,253	2,154	222,733	112,062
275,268	1,923	222,614	111,822
276,282	1,994	222,451	111,782
277,297	2,048	222,300	111,736
278,312	2,215	222,215	111,807
279,326	2,404	222,117	111,887
280,341	2,208	222,181	111,765
281,355	2,359	221,852	111,700
282,370	2,172	221,775	111,514
283,384	2,177	221,420	111,329
284,399	1,849	221,395	111,067
285,414	1,866	221,223	110,983
286,428	2,220	221,102	111,170
287,443	2,340	221,023	111,209
288,457	2,285	220,952	111,123
289,472	2,020	220,632	110,759
290,487	1,817	220,386	110,478
291,501	1,460	220,441	110,235
292,516	1,756	220,040	110,240
293,530	1,765	220,155	110,294
294,545	1,808	219,971	110,224
295,560	1,940	219,933	110,290
296,574	2,247	219,744	110,409
297,589	2,187	219,558	110,263
298,603	2,250	219,541	110,289
299,618	2,231	219,431	110,211
300,633	2,207	219,194	110,065
301,647	2,508	219,074	110,212
302,662	2,431	218,935	110,077
303,676	2,523	218,846	110,089
304,691	2,139	218,880	109,819
305,706	2,515	218,485	109,882
306,720	2,589	218,445	109,906
307,735	2,189	218,137	109,453
308,749	1,879	218,012	109,156
309,764	2,216	217,959	109,363
310,779	2,625	217,628	109,481
311,793	2,330	217,586	109,239
312,808	2,309	217,600	109,220
313,822	2,288	217,422	109,106
314,837	2,320	217,115	108,966
315,852	2,081	217,000	108,727
316,866	2,462	216,967	108,974
317,881	2,249	216,779	108,717
318,895	2,631	216,642	108,912
319,910	2,102	216,388	108,396
320,925	2,092	216,250	108,311
321,939	1,385	216,098	107,721
322,954	1,551	216,131	107,846
323,968	1,992	215,931	108,051
324,983	2,456	215,819	108,315
325,997	2,499	215,832	108,343
327,012	2,461	215,655	108,217
328,027	2,228	215,603	108,016
329,041	2,490	215,455	108,118
330,056	2,797	215,193	108,195
331,070	2,392	214,941	107,772
332,085	2,173	214,832	107,552
333,100	2,303	214,703	107,570
334,114	2,563	214,524	107,654
335,129	2,410	214,421	107,485
336,143	2,049	214,277	107,148
337,158	2,083	214,181	107,115
338,173	2,051	214,003	106,994
339,187	1,764	213,786	106,673
340,202	2,045	213,551	106,745
341,216	2,184	213,683	106,899
342,231	2,671	213,539	107,160
343,246	2,157	213,435	106,737
344,260	2,244	213,278	106,710
345,275	2,540	213,147	106,842
346,289	2,563	213,097	106,824
347,304	2,620	212,810	106,711
348,319	2,354	212,765	106,492
349,333	2,000	212,598	106,152
350,348	2,154	212,476	106,189
351,362	2,478	212,395	106,365
352,377	2,515	212,270	106,319
353,392	2,273	212,110	106,060
354,406	2,379	212,008	106,074
355,421	196,021	1315,389	1390,028
356,435	156,744	1449,756	1389,978
