DTS Sentinel unit serial number:	SN410029Multiplexer serial number:	ORYXHardware model number:	OX2-SRSoftware version number:	ORYX F/W v4,00 Oryx Data Collector v3.7.2.0data status	okinstallation	B6 Nyhavnadifferential loss correction	single-endedforward channel	channel 2reverse channel	N/Adate	2023/12/07time	12:45:08forward acquisition time	300,00reverse acquisition time	0,00gamma	499,1914k internal	0,3203k external	0,3203temperature offset calibration	1,0000default loss term (dB/km)	0,3820temperature slope calibration	1,0000multiplexer offset coefficient	1,0000multiplexer slope coefficient	1,0000fibre end	0,00T internal ref (°C)	10,62T ext. ref 1 (°C)	-2,92T ext. ref 2 (°C)	-2,89length (m)	temperature (°C)	Stokes	anti-Stokes-744,400	99,646	0,125	0,105
-743,385	-41,515	-0,307	-0,114
-742,371	-70,679	0,217	0,059
-741,356	-115,624	-0,481	-0,065
-740,342	-51,426	0,287	0,097
-739,327	-43,188	-0,351	-0,128
-738,312	-72,334	0,173	0,046
-737,298	-100,917	-0,339	0,060
-736,283	137,842	0,121	0,115
-735,269	-75,899	-0,370	-0,095
-734,254	176,002	0,177	0,187
-733,239	-53,390	-0,664	-0,220
-732,225	73,120	0,170	0,129
-731,210	-52,625	-0,102	0,034
-730,196	58,177	0,041	-0,029
-729,181	800,000	-0,058	-0,180
-728,167	-9,228	0,073	-0,035
-727,152	147,443	0,082	0,080
-726,137	-200,000	-0,008	-0,170
-725,123	274,086	-0,096	-0,123
-724,108	3,818	0,028	-0,015
-723,094	611,076	-0,046	-0,085
-722,079	800,000	-0,031	-0,076
-721,064	800,000	-0,059	-0,130
-720,050	-85,756	-0,131	-0,029
-719,035	800,000	-0,057	0,172
-718,021	2,987	-0,073	-0,038
-717,006	800,000	-0,038	-0,080
-715,991	-23,458	-0,111	0,048
-714,977	800,000	-0,026	-0,079
-713,962	-200,000	0,144	0,000
-712,948	-134,536	-0,052	-0,005
-711,933	-200,000	-0,006	0,039
-710,918	71,706	-0,070	0,053
-709,904	-73,443	0,034	-0,009
-708,889	-3,926	-0,056	0,028
-707,875	297,418	-0,081	-0,108
-706,860	85,390	0,072	0,058
-705,845	-200,000	-0,006	0,026
-704,831	-200,000	0,036	0,142
-703,816	-200,000	-0,040	0,171
-702,802	-170,361	-0,089	-0,002
-701,787	29,079	-0,112	-0,069
-700,772	800,000	0,031	-0,071
-699,758	22,534	-0,049	-0,029
-698,743	800,000	-0,050	0,117
-697,729	222,090	0,054	-0,063
-696,714	108,903	-0,169	0,146
-695,699	800,000	0,044	0,120
-694,685	0,740	-0,036	0,019
-693,670	-10,220	0,026	-0,013
-692,656	379,159	-0,035	0,053
-691,641	-200,000	0,042	0,212
-690,627	-200,000	0,116	0,000
-689,612	125,819	0,012	0,011
-688,597	800,000	-0,013	-0,036
-687,583	36,488	0,032	-0,020
-686,568	-200,000	0,001	-0,153
-685,554	-200,000	0,001	0,037
-684,539	534,465	-0,033	-0,057
-683,524	-1,469	-0,027	0,014
-682,510	331,222	-0,015	0,021
-681,495	-19,388	-0,038	-0,017
-680,481	-39,746	-0,133	-0,050
-679,466	800,000	0,026	-0,075
-678,451	800,000	-0,029	0,072
-677,437	-114,565	-0,037	-0,005
-676,422	-200,000	0,009	-0,029
-675,408	-93,196	-0,040	-0,008
-674,393	800,000	0,025	-0,080
-673,378	-99,474	0,063	0,011
-672,364	591,702	-0,009	0,016
-671,349	-200,000	0,051	-0,202
-670,335	-159,167	0,055	-0,002
-669,320	-136,200	-0,009	-0,001
-668,305	-200,000	0,024	0,096
-667,291	-200,000	-0,012	-0,055
-666,276	800,000	0,016	0,034
-665,262	-182,431	-0,110	-0,001
-664,247	-200,000	0,002	-0,102
-663,232	-200,000	-0,005	0,036
-662,218	-67,662	-0,117	0,033
-661,203	124,346	0,022	-0,020
-660,189	-200,000	0,003	-0,041
-659,174	-32,359	-0,123	0,050
-658,159	-139,991	-0,041	0,003
-657,145	235,900	0,137	-0,165
-656,130	-51,670	-0,075	-0,025
-655,116	-200,000	0,011	-0,039
-654,101	-171,910	-0,035	-0,001
-653,086	378,896	-0,036	-0,054
-652,072	-200,000	0,021	0,102
-651,057	763,318	0,024	-0,047
-650,043	533,549	-0,010	0,017
-649,028	-79,053	-0,031	0,008
-648,014	-200,000	0,000	-0,066
-646,999	-200,000	0,012	0,075
-645,984	81,642	-0,093	0,073
-644,970	-2,572	-0,133	0,067
-643,955	-200,000	0,005	-0,140
-642,941	144,671	0,079	0,077
-641,926	55,453	-0,077	-0,054
-640,911	-200,000	0,002	0,109
-639,897	-117,370	0,097	-0,013
-638,882	237,635	0,011	-0,013
-637,868	-200,000	0,005	-0,020
-636,853	-182,346	-0,068	-0,001
-635,838	800,000	-0,037	-0,099
-634,824	-131,427	0,032	-0,003
-633,809	-200,000	-0,002	-0,038
-632,795	-106,899	-0,106	0,017
-631,780	152,664	0,044	-0,043
-630,765	254,212	-0,033	-0,041
-629,751	88,008	0,110	-0,088
-628,736	511,347	-0,028	0,048
-627,722	-84,460	-0,082	-0,019
-626,707	-68,461	-0,090	-0,025
-625,692	71,086	0,068	0,051
-624,678	800,000	-0,027	0,076
-623,663	217,435	0,086	0,100
-622,649	-200,000	-0,010	-0,187
-621,634	33,792	-0,125	-0,079
-620,619	-200,000	0,010	-0,086
-619,605	212,378	0,080	0,092
-618,590	-115,837	-0,123	-0,016
-617,576	79,330	0,041	0,032
-616,561	367,835	-0,054	-0,079
-615,546	52,570	-0,080	0,055
-614,532	582,075	-0,058	-0,104
-613,517	150,900	-0,078	0,077
-612,503	-200,000	-0,005	-0,036
-611,488	-11,682	-0,089	0,042
-610,474	257,122	-0,043	0,053
-609,459	-134,460	-0,096	-0,008
-608,444	-106,187	-0,198	-0,032
-607,430	-109,746	0,109	-0,016
-606,415	-27,615	0,097	0,040
-605,401	47,550	-0,007	0,005
-604,386	36,040	0,038	0,024
-603,371	495,583	0,061	0,101
-602,357	89,649	0,119	-0,096
-601,342	-59,703	0,092	0,028
-600,328	234,984	-0,087	-0,104
-599,313	-161,954	-0,047	0,002
-598,298	264,362	0,009	-0,011
-597,284	-200,000	0,018	-0,065
-596,269	-93,797	-0,163	-0,032
-595,255	-43,484	0,140	-0,051
-594,240	-200,000	-0,001	-0,030
-593,225	-40,122	-0,092	0,035
-592,211	139,932	-0,033	-0,031
-591,196	2,961	0,066	0,035
-590,182	37,670	0,032	-0,021
-589,167	800,000	0,050	0,131
-588,152	-61,790	0,044	-0,013
-587,138	81,949	-0,041	0,032
-586,123	800,000	0,038	-0,097
-585,109	-57,379	-0,137	-0,043
-584,094	-200,000	-0,016	0,107
-583,079	-78,237	0,169	0,042
-582,065	-200,000	0,013	0,100
-581,050	234,453	0,054	-0,065
-580,036	800,000	-0,027	-0,068
-579,021	81,235	-0,222	0,173
-578,006	-200,000	-0,026	-0,106
-576,992	23,645	-0,079	-0,047
-575,977	301,367	-0,038	-0,050
-574,963	-81,018	0,120	-0,029
-573,948	517,263	-0,054	0,092
-572,934	-74,275	0,045	-0,012
-571,919	-93,000	-0,069	-0,014
-570,904	-2,613	0,020	0,010
-569,890	4,603	-0,124	0,065
-568,875	800,000	-0,017	-0,049
-567,861	144,648	0,099	-0,095
-566,846	-200,000	-0,029	0,111
-565,831	-200,000	-0,025	0,094
-564,817	-127,714	-0,096	0,010
-563,802	359,589	0,029	-0,043
-562,788	800,000	0,036	-0,107
-561,773	-200,000	-0,013	-0,129
-560,758	800,000	-0,014	0,038
-559,744	179,948	0,052	0,055
-558,729	-200,000	-0,012	-0,041
-557,715	284,527	-0,112	-0,146
-556,700	-200,000	0,004	-0,070
-555,685	800,000	0,011	0,029
-554,671	-200,000	0,014	0,045
-553,656	-43,666	0,066	-0,024
-552,642	-68,383	-0,106	0,030
-551,627	800,000	0,049	-0,118
-550,612	-200,000	-0,033	-0,161
-549,598	-82,529	0,164	-0,038
-548,583	-200,000	-0,002	-0,014
-547,569	10,862	0,022	0,012
-546,554	359,476	0,046	0,066
-545,539	-165,910	0,154	-0,005
-544,525	243,213	-0,070	-0,085
-543,510	-11,247	-0,047	-0,022
-542,496	38,288	-0,088	0,056
-541,481	-200,000	0,010	-0,048
-540,466	-200,000	-0,000	0,015
-539,452	218,954	0,045	0,052
-538,437	153,436	0,046	0,046
-537,423	-20,930	-0,117	-0,051
-536,408	14,835	-0,176	0,099
-535,393	-129,039	0,119	-0,012
-534,379	230,086	-0,193	-0,228
-533,364	-28,696	-0,016	0,006
-532,350	-4,303	0,034	-0,017
-531,335	-200,000	0,007	-0,045
-530,321	248,084	0,058	0,071
-529,306	-200,000	0,012	-0,071
-528,291	309,035	-0,126	-0,170
-527,277	-200,000	0,005	-0,136
-526,262	800,000	0,017	0,039
-525,248	-200,000	-0,011	0,107
-524,233	36,433	0,172	0,109
-523,218	245,375	-0,063	0,077
-522,204	-30,797	-0,030	-0,012
-521,189	-58,116	-0,075	-0,023
-520,175	-200,000	-0,006	-0,084
-519,160	800,000	-0,021	0,043
-518,145	671,300	0,042	0,079
-517,131	-200,000	0,003	0,169
-516,116	42,586	-0,038	0,025
-515,102	55,929	0,100	-0,070
-514,087	800,000	0,032	-0,070
-513,072	-152,581	0,085	0,004
-512,058	-103,475	-0,104	-0,017
-511,043	800,000	0,024	-0,059
-510,029	-18,503	0,108	0,048
-509,014	-105,567	-0,135	-0,022
-507,999	-200,000	-0,008	0,069
-506,985	17,701	0,025	0,014
-505,970	-85,627	-0,062	0,014
-504,956	68,172	-0,046	-0,034
-503,941	44,393	0,034	-0,022
-502,926	-200,000	-0,007	-0,029
-501,912	35,979	0,128	0,081
-500,897	665,029	0,054	0,101
-499,883	87,020	-0,047	0,038
-498,868	-36,553	-0,061	-0,023
-497,853	-86,907	0,065	-0,014
-496,839	-3,876	-0,054	0,027
-495,824	251,227	-0,068	0,084
-494,810	3,403	-0,026	0,013
-493,795	-200,000	-0,030	0,119
-492,781	-200,000	-0,007	0,025
-491,766	-23,525	0,047	-0,020
-490,751	-45,224	-0,020	-0,007
-489,737	-88,436	-0,125	0,027
-488,722	-19,682	0,108	-0,048
-487,708	59,152	-0,029	-0,021
-486,693	800,000	0,039	-0,106
-485,678	546,516	0,011	0,019
-484,664	462,246	-0,076	-0,122
-483,649	119,344	-0,108	-0,096
-482,635	-12,118	0,107	-0,050
-481,620	-15,372	-0,050	0,023
-480,605	-94,802	0,091	-0,018
-479,591	557,550	0,029	0,050
-478,576	800,000	-0,063	0,144
-477,562	-200,000	-0,006	0,058
-476,547	-18,514	0,089	-0,040
-475,532	313,078	-0,031	0,042
-474,518	166,340	0,065	-0,066
-473,503	-200,000	-0,027	0,129
-472,489	800,000	-0,034	0,087
-471,474	-7,801	-0,078	-0,038
-470,459	-200,000	0,013	0,070
-469,445	800,000	-0,023	-0,048
-468,430	631,106	-0,067	-0,122
-467,416	-57,344	-0,041	-0,013
-466,401	-83,970	0,175	0,040
-465,386	264,839	0,050	0,063
-464,372	-107,691	0,079	-0,012
-463,357	422,605	0,062	-0,097
-462,343	800,000	-0,020	0,047
-461,328	-200,000	0,001	0,074
-460,313	2,251	-0,101	-0,052
-459,299	140,676	0,059	0,056
-458,284	-106,530	-0,043	-0,007
-457,270	-200,000	0,005	0,036
-456,255	347,934	0,082	0,116
-455,241	-181,858	0,060	-0,001
-454,226	39,226	0,135	-0,087
-453,211	-200,000	0,020	0,070
-452,197	-47,413	0,034	-0,012
-451,182	-200,000	0,002	0,040
-450,168	-200,000	-0,034	0,117
-449,153	-200,000	-0,008	-0,055
-448,138	126,479	-0,026	0,024
-447,124	-200,000	0,021	-0,128
-446,109	-200,000	0,001	-0,016
-445,095	26,617	0,023	-0,014
-444,080	800,000	-0,055	0,125
-443,065	-86,125	0,108	-0,024
-442,051	233,808	-0,099	0,118
-441,036	157,668	0,031	-0,031
-440,022	-113,067	-0,012	-0,002
-439,007	71,894	0,127	-0,094
-437,992	-78,161	0,024	-0,006
-436,978	226,226	0,076	0,088
-435,963	800,000	0,066	0,154
-434,949	-0,320	-0,152	-0,077
-433,934	14,390	0,072	-0,040
-432,919	-108,571	-0,142	-0,022
-431,905	-42,663	-0,028	0,010
-430,890	-200,000	0,002	-0,131
-429,876	-200,000	0,020	0,150
-428,861	296,530	-0,069	0,092
-427,846	-77,560	0,074	-0,018
-426,832	-200,000	0,018	-0,095
-425,817	9,521	-0,088	0,048
-424,803	-149,999	0,168	-0,009
-423,788	-1,133	-0,064	-0,032
-422,773	-43,991	0,106	0,038
-421,759	43,692	0,109	0,071
-420,744	365,521	0,056	-0,081
-419,730	-200,000	0,078	-0,251
-418,715	800,000	0,033	-0,094
-417,701	800,000	0,066	0,134
-416,686	115,221	0,069	-0,061
-415,671	64,587	0,087	0,063
-414,657	415,684	-0,087	-0,134
-413,642	172,174	0,033	-0,034
-412,628	-200,000	0,004	0,029
-411,613	4,603	-0,118	-0,062
-410,598	740,109	-0,045	-0,087
-409,584	78,557	0,032	-0,024
-408,569	10,365	0,078	0,042
-407,555	800,000	-0,018	0,057
-406,540	-55,000	0,051	0,016
-405,525	-200,000	0,018	-0,215
-404,511	-200,000	0,014	-0,102
-403,496	50,942	0,030	-0,021
-402,482	-121,406	-0,036	-0,004
-401,467	-189,948	0,052	0,000
-400,452	800,000	-0,027	0,058
-399,438	138,472	-0,121	-0,114
-398,423	322,267	-0,081	0,111
-397,409	-2,197	-0,127	-0,064
-396,394	26,372	0,065	-0,039
-395,379	324,802	-0,111	0,152
-394,365	800,000	0,036	0,091
-393,350	-115,072	0,108	0,015
-392,336	21,263	-0,163	-0,095
-391,321	-172,062	-0,027	0,001
-390,306	800,000	-0,014	0,030
-389,292	190,060	-0,059	-0,064
-388,277	252,553	0,030	-0,036
-387,263	800,000	-0,038	-0,075
-386,248	135,198	0,091	0,085
-385,233	-127,994	0,091	0,009
-384,219	-200,000	0,024	-0,084
-383,204	-10,974	-0,155	-0,073
-382,190	800,000	-0,007	-0,016
-381,175	-200,000	0,007	0,074
-380,160	-200,000	-0,006	0,039
-379,146	-97,884	0,063	0,012
-378,131	-181,961	0,036	-0,000
-377,117	-117,531	-0,107	0,014
-376,102	-111,004	-0,078	0,011
-375,088	93,495	-0,072	-0,058
-374,073	-200,000	-0,016	0,107
-373,058	213,276	0,079	0,089
-372,044	-119,590	0,051	-0,006
-371,029	-105,708	-0,024	-0,004
-370,015	800,000	-0,054	0,115
-369,000	-200,000	-0,012	0,039
-367,985	-121,095	0,096	-0,011
-366,971	367,675	-0,043	-0,062
-365,956	48,090	-0,083	0,056
-364,942	-16,730	0,092	0,041
-363,927	-45,679	-0,036	-0,013
-362,912	359,589	-0,049	-0,070
-361,898	-57,530	-0,071	-0,022
-360,883	-50,468	-0,042	-0,014
-359,869	113,934	-0,070	-0,061
-358,854	2,574	0,067	0,035
-357,839	-49,655	0,138	-0,047
-356,825	800,000	-0,051	0,143
-355,810	211,399	0,097	-0,109
-354,796	-200,000	0,007	0,029
-353,781	-200,000	0,022	-0,120
-352,766	-200,000	0,004	-0,053
-351,752	191,323	0,017	-0,019
-350,737	163,160	0,090	0,091
-349,723	800,000	0,048	0,104
-348,708	109,514	0,043	0,037
-347,693	138,033	-0,061	0,057
-346,679	800,000	-0,062	-0,164
-345,664	-200,000	0,004	-0,076
-344,650	182,280	-0,093	0,098
-343,635	138,367	-0,049	-0,046
-342,620	-60,724	0,238	-0,072
-341,606	33,585	-0,072	0,044
-340,591	-200,000	-0,003	-0,099
-339,577	-200,000	0,033	-0,106
-338,562	-18,215	0,051	0,023
-337,548	-130,912	0,059	0,006
-336,533	-200,000	0,011	0,093
-335,518	135,575	0,063	-0,059
-334,504	-200,000	-0,003	0,009
-333,489	800,000	0,013	0,033
-332,475	-77,062	-0,132	0,033
-331,460	-200,000	-0,030	0,115
-330,445	-17,587	-0,007	0,003
-329,431	-200,000	0,037	0,123
-328,416	300,807	0,087	-0,114
-327,402	-200,000	-0,024	-0,082
-326,387	43,791	-0,147	-0,096
-325,372	12,487	-0,094	-0,052
-324,358	-200,000	0,002	-0,024
-323,343	388,784	-0,075	-0,111
-322,329	800,000	0,020	0,062
-321,314	-109,922	-0,113	0,017
-320,299	152,489	0,040	0,039
-319,285	-200,000	0,041	-0,158
-318,270	-38,090	0,067	0,025
-317,256	-95,146	0,079	-0,015
-316,241	-41,768	0,043	-0,016
-315,226	450,175	0,061	0,097
-314,212	155,231	0,044	0,044
-313,197	-200,000	-0,004	0,127
-312,183	800,000	0,029	0,072
-311,168	-104,598	0,100	-0,016
-310,153	224,391	0,018	-0,021
-309,139	46,462	0,021	0,014
-308,124	800,000	0,027	0,073
-307,110	-154,860	-0,060	0,003
-306,095	-147,376	0,250	0,015
-305,080	800,000	-0,029	0,073
-304,066	1,294	-0,073	0,038
-303,051	95,319	-0,077	-0,063
-302,037	-104,425	-0,079	0,013
-301,022	-96,198	0,130	-0,024
-300,008	189,713	-0,083	0,089
-298,993	-12,381	0,069	0,032
-297,978	111,953	-0,023	0,020
-296,964	192,931	0,067	-0,072
-295,949	-155,921	0,034	-0,002
-294,935	25,838	0,074	-0,044
-293,920	76,921	-0,088	-0,067
-292,905	-117,794	-0,083	-0,011
-291,891	45,486	-0,049	-0,032
-290,876	800,000	-0,050	0,143
-289,862	-113,517	-0,104	0,014
-288,847	-200,000	0,024	0,099
-287,832	-32,786	-0,058	-0,023
-286,818	25,236	0,063	0,037
-285,803	420,025	0,041	0,062
-284,789	800,000	-0,008	-0,024
-283,774	800,000	-0,013	0,025
-282,759	281,232	0,129	-0,165
-281,745	-200,000	0,006	-0,057
-280,730	-200,000	0,010	-0,090
-279,716	-87,056	0,041	0,009
-278,701	320,431	0,061	0,083
-277,686	-54,274	0,173	0,056
-276,672	-17,081	-0,056	0,025
-275,657	-59,732	-0,097	-0,030
-274,643	75,788	0,061	0,046
-273,628	800,000	-0,038	-0,112
-272,613	223,125	-0,087	0,101
-271,599	676,577	-0,020	-0,037
-270,584	800,000	0,030	0,066
-269,570	-155,872	0,065	0,003
-268,555	-152,864	0,062	-0,003
-267,540	-200,000	0,005	0,052
-266,526	800,000	0,056	0,146
-265,511	-25,929	0,130	-0,055
-264,497	-58,824	-0,106	0,033
-263,482	-144,119	0,088	0,006
-262,467	369,520	-0,089	0,130
-261,453	216,653	-0,009	-0,010
-260,438	-200,000	0,027	-0,127
-259,424	243,022	0,039	0,046
-258,409	-200,000	-0,019	-0,111
-257,395	489,243	-0,063	0,104
-256,380	-63,764	0,077	0,022
-255,365	199,286	0,054	0,059
-254,351	-149,879	-0,072	0,004
-253,336	800,000	0,046	0,093
-252,322	36,403	-0,189	-0,119
-251,307	-200,000	-0,020	-0,091
-250,292	-48,576	-0,057	-0,020
-249,278	-30,449	0,173	-0,069
-248,263	-200,000	0,001	0,034
-247,249	712,843	0,038	0,071
-246,234	299,961	0,083	0,110
-245,219	-49,114	-0,042	0,014
-244,205	-124,568	0,114	-0,012
-243,190	309,176	0,045	-0,060
-242,176	800,000	0,087	0,192
-241,161	120,775	0,081	0,072
-240,146	-200,000	0,011	-0,123
-239,132	452,323	0,050	-0,078
-238,117	536,329	-0,021	-0,035
-237,103	33,550	-0,058	0,036
-236,088	239,270	-0,035	-0,042
-235,073	-200,000	0,019	0,065
-234,059	-200,000	0,008	0,086
-233,044	-99,929	-0,086	-0,015
-232,030	316,002	-0,079	-0,107
-231,015	76,574	-0,081	0,061
-230,000	292,623	-0,133	-0,173
-228,986	186,200	0,069	-0,073
-227,971	800,000	0,048	0,119
-226,957	509,370	-0,095	0,158
-225,942	-200,000	0,023	-0,072
-224,927	246,354	0,123	0,148
-223,913	-64,888	0,124	0,036
-222,898	-200,000	0,004	0,025
-221,884	-172,907	0,067	-0,001
-220,869	797,817	0,059	0,116
-219,855	-148,870	-0,066	0,004
-218,840	-1,726	-0,038	-0,019
-217,825	85,290	0,044	0,035
-216,811	-39,473	-0,076	-0,028
-215,796	207,357	-0,006	-0,007
-214,782	-200,000	-0,008	0,052
-213,767	800,000	0,063	0,139
-212,752	409,517	-0,006	0,009
-211,738	62,215	0,116	-0,082
-210,723	202,351	0,045	-0,050
-209,709	-95,498	-0,064	-0,012
-208,694	-51,658	-0,128	-0,042
-207,679	11,420	-0,092	-0,050
-206,665	-200,000	0,005	-0,057
-205,650	-25,644	0,138	-0,058
-204,636	-200,000	-0,015	-0,071
-203,621	-15,611	-0,049	-0,022
-202,606	-200,000	0,002	0,041
-201,592	-58,480	0,066	0,020
-200,577	800,000	-0,027	0,071
-199,563	-10,125	-0,153	-0,072
-198,548	53,186	0,128	-0,087
-197,533	800,000	-0,057	-0,135
-196,519	151,411	0,048	0,046
-195,504	-121,582	-0,061	0,007
-194,490	-24,504	-0,050	0,021
-193,475	513,447	-0,033	0,055
-192,460	183,249	-0,034	-0,036
-191,446	-122,348	0,021	0,002
-190,431	-200,000	0,022	0,194
-189,417	800,000	-0,010	-0,025
-188,402	800,000	-0,006	0,017
-187,387	173,929	-0,035	-0,036
-186,373	19,356	-0,072	0,041
-185,358	800,000	0,048	0,106
-184,344	-7,300	0,035	-0,017
-183,329	563,508	0,035	-0,061
-182,315	-200,000	-0,022	0,093
-181,300	94,823	-0,035	0,029
-180,285	54,997	0,050	0,035
-179,271	800,000	-0,018	-0,049
-178,256	-147,541	-0,117	0,007
-177,242	-200,000	-0,008	-0,029
-176,227	800,000	0,013	-0,028
-175,212	-200,000	-0,067	0,210
-174,198	800,000	-0,043	-0,087
-173,183	-71,484	0,122	0,032
-172,169	-200,000	-0,010	0,073
-171,154	103,953	0,035	0,030
-170,139	46,504	0,057	0,038
-169,125	578,774	0,046	0,080
-168,110	-125,597	-0,084	-0,009
-167,096	-158,727	-0,069	0,003
-166,081	-3,660	0,033	-0,016
-165,066	-200,000	0,008	0,073
-164,052	800,000	-0,050	-0,116
-163,037	-92,580	0,051	-0,010
-162,023	-182,326	0,052	-0,001
-161,008	800,000	0,048	0,107
-159,993	376,403	0,036	-0,053
-158,979	486,601	-0,067	-0,109
-157,964	347,966	0,037	-0,053
-156,950	-200,000	0,002	-0,022
-155,935	768,639	-0,028	-0,055
-154,920	800,000	-0,027	-0,053
-153,906	-11,120	-0,044	-0,021
-152,891	-87,305	-0,064	0,014
-151,877	-87,395	-0,155	-0,033
-150,862	37,727	-0,184	0,116
-149,847	104,837	0,024	0,020
-148,833	800,000	0,045	-0,093
-147,818	-200,000	-0,008	-0,050
-146,804	121,199	0,082	0,073
-145,789	-123,326	0,047	0,005
-144,775	153,521	-0,035	-0,034
-143,760	800,000	-0,038	-0,105
-142,745	-12,640	-0,120	-0,056
-141,731	-200,000	0,013	0,114
-140,716	560,513	-0,055	0,094
-139,702	103,858	0,035	0,030
-138,687	-200,000	-0,034	0,114
-137,672	279,466	0,079	-0,101
-136,658	-200,000	0,048	0,000
-135,643	-200,000	-0,016	0,061
-134,629	15,130	0,088	-0,049
-133,614	78,267	0,089	-0,067
-132,599	-137,937	0,060	0,005
-131,585	483,948	-0,029	-0,048
-130,570	20,341	0,105	0,060
-129,556	664,756	-0,019	-0,035
-128,541	-200,000	0,007	-0,039
-127,526	-48,708	-0,027	-0,009
-126,512	-200,000	-0,007	0,097
-125,497	-200,000	0,004	0,115
-124,483	10,259	-0,103	-0,055
-123,468	160,468	0,035	-0,035
-122,453	800,000	-0,015	-0,043
-121,439	63,233	0,106	-0,075
-120,424	95,577	-0,037	0,030
-119,410	184,812	-0,022	-0,023
-118,395	6,721	-0,038	-0,020
-117,380	72,128	0,063	0,047
-116,366	136,866	-0,087	0,080
-115,351	-200,000	-0,014	0,063
-114,337	120,969	0,087	0,077
-113,322	800,000	-0,033	0,066
-112,307	800,000	-0,041	0,092
-111,293	73,582	-0,128	-0,095
-110,278	-200,000	0,021	0,087
-109,264	40,753	-0,024	0,015
-108,249	-200,000	0,023	-0,099
-107,234	81,006	-0,309	-0,236
-106,220	-148,607	0,143	-0,008
-105,205	11,389	0,035	-0,019
-104,191	76,691	0,031	-0,023
-103,176	131,579	-0,089	0,081
-102,162	128,970	-0,075	0,068
-101,147	297,590	-0,029	-0,038
-100,132	-200,000	0,011	0,081
-99,118	40,402	0,025	0,016
-98,103	456,241	-0,046	0,072
-97,089	800,000	0,003	-0,007
-96,074	767,170	0,004	-0,007
-95,059	-200,000	0,005	-0,057
-94,045	176,798	-0,059	-0,061
-93,030	130,167	0,095	-0,086
-92,016	800,000	0,060	0,170
-91,001	374,214	0,047	-0,068
-89,986	-118,916	0,041	0,005
-88,972	148,890	-0,093	0,089
-87,957	800,000	-0,049	0,136
-86,943	-66,535	0,063	0,017
-85,928	-62,548	0,008	0,002
-84,913	800,000	-0,078	-0,174
-83,899	21,285	0,105	-0,060
-82,884	191,468	0,099	0,106
-81,870	404,540	0,026	-0,038
-80,855	112,879	-0,044	-0,038
-79,840	725,486	0,057	-0,107
-78,826	69,113	-0,132	-0,096
-77,811	311,733	-0,144	-0,192
-76,797	704,489	0,036	0,067
-75,782	-0,713	-0,103	-0,051
-74,767	71,597	0,119	0,087
-73,753	-200,000	-0,010	0,201
-72,738	-41,570	-0,064	-0,023
-71,724	-53,392	-0,048	0,016
-70,709	-200,000	-0,019	-0,171
-69,694	336,501	0,042	0,058
-68,680	-179,225	0,051	-0,001
-67,665	-6,720	-0,057	-0,028
-66,651	113,235	0,105	-0,090
-65,636	-200,000	-0,029	-0,122
-64,622	528,875	0,048	0,080
-63,607	-28,727	-0,103	-0,042
-62,592	656,430	-0,044	0,080
-61,578	-200,000	0,011	0,148
-60,563	-83,591	0,017	0,004
-59,549	-200,000	-0,028	0,092
-58,534	54,459	-2,560	-1,743
-57,519	-200,000	0,122	-0,484
-56,505	-200,000	-1,627	-5,165
-55,490	176,041	1,120	1,152
-54,476	800,000	5,519	11,770
-53,461	-200,000	20,535	330,867
-52,446	800,000	756,270	2308,170
-51,432	533,786	1661,922	2796,153
-50,417	71,473	1678,116	1231,232
-49,403	17,506	1599,516	896,776
-48,388	12,189	1554,326	843,960
-47,373	18,677	1547,576	873,587
-46,359	15,432	1536,748	850,917
-45,344	10,871	1532,279	825,167
-44,330	10,726	1530,697	823,541
-43,315	10,674	1528,947	822,300
-42,300	10,664	1526,926	821,129
-41,286	10,653	1525,538	820,296
-40,271	10,613	1524,123	819,300
-39,257	10,643	1522,411	818,501
-38,242	10,658	1521,283	817,933
-37,227	10,632	1520,036	817,101
-36,213	10,666	1518,660	816,500
-35,198	10,598	1517,521	815,511
-34,184	10,654	1516,258	815,083
-33,169	10,638	1514,608	814,081
-32,154	10,656	1513,314	813,445
-31,140	10,676	1511,917	812,764
-30,125	10,740	1510,484	812,284
-29,111	10,722	1509,292	811,520
-28,096	10,700	1508,270	810,827
-27,082	10,690	1507,347	810,249
-26,067	10,674	1505,932	809,377
-25,052	10,654	1504,646	808,555
-24,038	10,617	1503,504	807,723
-23,023	10,606	1502,482	807,085
-22,009	10,665	1501,453	806,794
-20,994	10,640	1500,627	806,194
-19,979	10,637	1499,724	805,662
-18,965	10,676	1498,442	805,139
-17,950	10,649	1497,522	804,475
-16,936	10,641	1496,698	803,960
-15,921	10,591	1495,326	802,942
-14,906	10,553	1494,088	802,059
-13,892	10,509	1493,196	801,330
-12,877	10,524	1492,226	800,853
-11,863	10,498	1491,233	800,156
-10,848	10,522	1490,439	799,818
-9,833	10,626	1489,427	799,761
-8,819	10,623	1488,496	799,211
-7,804	10,563	1487,260	798,220
-6,790	10,535	1486,657	797,727
-5,775	10,615	1485,646	797,548
-4,760	10,598	1484,675	796,912
-3,746	10,522	1483,513	795,879
-2,731	10,419	1482,425	794,757
-1,717	10,340	1481,584	793,885
-0,702	10,375	1480,435	793,409
0,313	10,182	1479,388	793,095
1,327	14,069	1476,565	810,613
2,342	23,686	1238,121	719,016
3,356	20,184	695,768	395,987
4,371	-8,458	468,304	221,683
5,386	-11,943	440,335	203,245
6,400	-13,145	431,087	197,209
7,415	-12,836	427,515	196,004
8,429	-14,149	424,686	192,805
9,444	-14,265	423,230	191,962
10,459	-14,567	421,987	190,951
11,473	-14,640	421,042	190,402
12,488	-14,673	419,785	189,770
13,502	-15,070	419,089	188,877
14,517	-15,082	418,235	188,458
15,531	-15,499	417,186	187,381
16,546	-15,640	416,626	186,915
17,561	-15,567	416,040	186,737
18,575	-15,561	415,317	186,404
19,590	-15,597	414,867	186,136
20,604	-15,621	414,292	185,827
21,619	-15,653	413,728	185,513
22,634	-15,664	413,307	185,292
23,648	-15,622	412,689	185,057
24,663	-15,703	412,318	184,762
25,677	-15,797	411,931	184,441
26,692	-15,710	411,442	184,326
27,707	-15,767	411,062	184,061
28,721	-15,728	410,413	183,808
29,736	-15,809	409,987	183,489
30,750	-15,766	409,624	183,369
31,765	-15,794	409,076	183,069
32,780	-15,830	408,939	182,942
33,794	-15,820	408,378	182,688
34,809	-15,840	408,090	182,515
35,823	-15,844	407,547	182,251
36,838	-15,901	407,226	182,012
37,853	-16,048	407,013	181,700
38,867	-15,831	406,462	181,735
39,882	-15,873	406,024	181,465
40,896	-15,926	405,778	181,266
41,911	-16,008	405,318	180,933
42,926	-15,938	404,849	180,803
43,940	-15,931	404,388	180,591
44,955	-16,000	404,134	180,367
45,969	-15,937	403,683	180,235
46,984	-16,111	403,344	179,832
47,999	-16,418	403,055	179,270
49,013	-16,302	402,447	179,141
50,028	-16,519	402,040	178,649
51,042	-16,547	401,824	178,500
52,057	-16,474	401,261	178,333
53,071	-16,430	401,219	178,357
54,086	-16,349	400,764	178,249
55,101	-16,206	400,394	178,261
56,115	-16,105	400,356	178,365
57,130	-15,524	400,155	179,041
58,144	-15,349	399,892	179,143
59,159	-15,407	399,525	178,885
60,174	-15,440	399,218	178,686
61,188	-15,517	398,842	178,400
62,203	-15,593	398,304	178,042
63,217	-15,585	398,160	177,971
64,232	-15,594	397,762	177,766
65,247	-15,369	397,459	177,915
66,261	-15,508	397,003	177,509
67,276	-15,813	396,464	176,846
68,290	-16,030	396,130	176,392
69,305	-16,204	395,686	175,947
70,320	-16,014	395,260	175,996
71,334	-15,810	395,150	176,200
72,349	-15,509	394,938	176,491
73,363	-15,292	394,612	176,617
74,378	-15,376	394,220	176,315
75,393	-15,640	393,951	175,829
76,407	-15,696	393,541	175,556
77,422	-15,564	393,174	175,551
78,436	-15,550	392,919	175,440
79,451	-15,592	392,577	175,216
80,466	-15,641	391,959	174,860
81,480	-15,841	391,724	174,477
82,495	-15,955	391,333	174,138
83,509	-15,843	391,160	174,193
84,524	-15,939	390,672	173,834
85,539	-16,113	390,311	173,429
86,553	-16,056	390,075	173,383
87,568	-15,975	389,920	173,405
88,582	-15,885	389,563	173,349
89,597	-15,940	389,313	173,151
90,611	-15,726	388,917	173,237
91,626	-15,753	388,822	173,145
92,641	-15,657	388,442	173,085
93,655	-15,738	388,113	172,818
94,670	-15,857	387,754	172,488
95,684	-15,741	387,468	172,496
96,699	-15,801	387,288	172,322
97,714	-15,813	386,818	172,082
98,728	-15,982	386,490	171,702
99,743	-15,963	386,054	171,517
100,757	-16,023	385,751	171,290
101,772	-15,913	385,459	171,287
102,787	-15,786	385,250	171,343
103,801	-15,685	384,917	171,310
104,816	-15,744	384,766	171,151
105,830	-15,706	384,553	171,090
106,845	-15,510	384,306	171,217
107,860	-15,561	383,878	170,946
108,874	-15,570	383,484	170,743
109,889	-15,516	383,057	170,608
110,903	-15,621	382,919	170,397
111,918	-15,678	382,668	170,197
112,933	-15,720	382,235	169,935
113,947	-15,546	382,076	170,072
114,962	-15,598	381,738	169,840
115,976	-15,580	381,400	169,698
116,991	-15,599	381,165	169,552
118,006	-15,508	380,887	169,531
119,020	-15,571	380,797	169,394
120,035	-15,397	380,338	169,397
121,049	-15,554	380,157	169,103
122,064	-15,447	379,954	169,132
123,079	-15,674	379,573	168,660
124,093	-15,692	379,222	168,466
125,108	-15,811	378,651	168,046
126,122	-16,035	378,379	167,627
127,137	-16,127	378,076	167,361
128,151	-15,897	377,703	167,472
129,166	-15,884	377,494	167,381
130,181	-15,854	377,158	167,254
131,195	-15,952	377,001	167,047
132,210	-15,653	376,765	167,303
133,224	-15,501	376,608	167,410
134,239	-15,418	376,380	167,398
135,254	-15,440	376,007	167,191
136,268	-15,608	375,631	166,797
137,283	-15,776	375,122	166,346
138,297	-16,125	374,724	165,717
139,312	-15,799	374,472	165,999
140,327	-15,560	374,622	166,350
141,341	-15,162	374,260	166,672
142,356	-15,167	374,057	166,560
143,370	-15,159	373,890	166,480
144,385	-15,141	373,505	166,317
145,400	-15,105	373,273	166,244
146,414	-15,149	372,997	166,051
147,429	-15,363	372,780	165,674
148,443	-15,323	372,381	165,531
149,458	-15,344	372,125	165,376
150,473	-15,295	371,949	165,345
151,487	-15,303	371,718	165,218
152,502	-15,362	371,337	164,960
153,516	-15,286	371,010	164,894
154,531	-15,279	370,794	164,792
155,546	-15,350	370,462	164,542
156,560	-15,271	370,110	164,468
157,575	-15,334	369,817	164,246
158,589	-15,271	369,604	164,214
159,604	-14,963	369,400	164,489
160,619	-15,008	369,126	164,296
161,633	-15,111	368,981	164,090
162,648	-15,207	368,643	163,808
163,662	-15,344	368,431	163,531
164,677	-15,213	368,170	163,561
165,692	-15,234	367,885	163,393
166,706	-15,048	367,691	163,522
167,721	-15,083	367,577	163,413
168,735	-14,956	367,335	163,447
169,750	-15,150	367,071	163,077
170,764	-15,056	366,844	163,076
171,779	-15,136	366,646	162,876
172,794	-15,056	366,333	162,820
173,808	-15,227	365,946	162,426
174,823	-15,614	365,447	161,718
175,837	-15,846	365,249	161,334
176,852	-15,323	365,194	161,932
177,867	-14,965	365,025	162,277
178,881	-14,933	364,554	162,092
179,896	-15,146	364,346	161,727
180,910	-15,032	364,350	161,853
181,925	-15,087	364,023	161,626
182,940	-14,961	363,831	161,679
183,954	-14,918	363,536	161,586
184,969	-14,957	363,276	161,408
185,983	-14,895	363,015	161,353
186,998	-14,944	362,803	161,185
188,013	-14,817	362,470	161,176
189,027	-14,891	362,287	160,991
190,042	-14,884	361,929	160,826
191,056	-14,788	361,754	160,849
192,071	-14,675	361,402	160,814
193,086	-14,641	361,264	160,779
194,100	-14,171	361,495	161,433
195,115	-13,384	361,389	162,316
196,129	-12,594	361,952	163,504
197,144	-8,370	363,733	169,393
198,159	-5,239	365,283	173,889
199,173	-2,082	366,608	178,333
200,188	-1,577	366,572	178,911
201,202	-1,893	366,157	178,310
202,217	-1,852	366,053	178,294
203,232	-1,488	365,802	178,595
204,246	-1,406	365,773	178,664
205,261	-1,163	365,589	178,851
206,275	-1,046	365,469	178,917
207,290	-1,153	365,110	178,596
208,304	-1,188	364,796	178,385
209,319	-1,217	364,478	178,180
210,334	-1,178	364,115	178,032
211,348	-1,307	364,003	177,807
212,363	-1,463	363,800	177,504
213,377	-1,358	363,599	177,517
214,392	-1,250	363,477	177,571
215,407	-1,152	363,173	177,524
216,421	-0,865	363,049	177,791
217,436	-0,987	362,779	177,497
218,450	-1,230	362,304	176,958
219,465	-1,298	362,063	176,744
220,480	-1,279	361,858	176,651
221,494	-1,184	361,731	176,687
222,509	-0,996	361,583	176,822
223,523	-0,903	361,236	176,747
224,538	-1,059	361,111	176,484
225,553	-1,177	360,593	176,076
226,567	-1,004	360,415	176,178
227,582	-0,840	360,392	176,346
228,596	-0,742	360,414	176,457
229,611	-0,872	359,950	176,061
230,626	-1,285	359,529	175,350
231,640	-1,191	359,285	175,327
232,655	-0,792	359,028	175,657
233,669	-0,518	359,081	175,992
234,684	-0,529	359,008	175,926
235,699	-0,723	358,580	175,473
236,713	-1,000	358,189	174,939
237,728	-1,088	357,861	174,660
238,742	-1,232	357,701	174,396
239,757	-1,220	357,327	174,213
240,772	-1,297	357,122	174,007
241,786	-1,162	356,771	173,979
242,801	-1,022	356,894	174,187
243,815	-0,702	356,843	174,523
244,830	-1,007	356,364	173,916
245,844	-1,218	355,976	173,464
246,859	-1,316	355,688	173,192
247,874	-0,911	355,616	173,616
248,888	-0,692	355,376	173,739
249,903	-0,966	355,180	173,309
250,917	-1,064	354,927	173,054
251,932	-1,042	354,735	172,971
252,947	-1,174	354,309	172,594
253,961	-1,210	354,029	172,401
254,976	-1,032	353,825	172,493
255,990	-0,934	353,818	172,588
257,005	-0,876	353,544	172,507
258,020	-0,956	353,328	172,293
259,034	-0,918	353,148	172,234
260,049	-0,727	352,749	172,245
261,063	-0,877	352,635	172,001
262,078	-0,699	352,495	172,123
263,093	-0,508	352,489	172,325
264,107	-0,525	352,079	172,091
265,122	-0,873	351,909	171,590
266,136	-0,617	351,631	171,734
267,151	-0,585	351,350	171,619
268,166	-1,125	350,963	170,792
269,180	-1,394	350,714	170,347
270,195	-1,262	350,494	170,376
271,209	-1,142	350,319	170,414
272,224	-1,069	350,218	170,433
273,239	-0,900	350,012	170,511
274,253	-0,992	349,742	170,260
275,268	-1,142	349,345	169,880
276,282	-1,225	349,029	169,616
277,297	-1,143	348,702	169,535
278,312	-1,144	348,785	169,559
279,326	-1,008	348,518	169,570
280,341	-1,011	348,343	169,466
281,355	-1,038	348,249	169,374
282,370	-0,844	347,973	169,446
283,384	-1,013	347,512	169,014
284,399	-1,206	347,267	168,661
285,414	-1,309	346,929	168,364
286,428	-1,193	347,158	168,593
287,443	-0,655	346,841	169,034
288,457	-0,662	346,649	168,918
289,472	-1,051	346,357	168,319
290,487	-1,081	345,676	167,939
291,501	-1,349	345,548	167,559
292,516	-1,249	345,385	167,578
293,530	-1,142	345,218	167,603
294,545	-0,946	345,014	167,710
295,560	-0,820	344,777	167,723
296,574	-1,092	344,759	167,392
297,589	-1,207	344,589	167,164
298,603	-0,867	344,026	167,259
299,618	-0,987	344,065	167,129
300,633	-0,813	343,915	167,236
301,647	-0,705	343,638	167,208
302,662	-0,666	343,663	167,250
303,676	-0,627	343,188	167,046
304,691	-0,521	342,988	167,053
305,706	-0,807	342,697	166,577
306,720	-0,789	342,608	166,539
307,735	-0,986	342,217	166,112
308,749	-1,052	342,162	165,998
309,764	-0,620	341,745	166,264
310,779	-0,769	341,582	166,002
311,793	-0,920	341,334	165,699
312,808	-0,910	341,226	165,643
313,822	-0,744	340,958	165,683
314,837	-0,833	340,740	165,463
315,852	-0,957	340,475	165,182
316,866	-0,910	340,393	165,180
317,881	-0,517	340,064	165,442
318,895	-0,771	339,873	165,052
319,910	-1,054	339,472	164,529
320,925	-1,206	339,277	164,252
321,939	-1,415	338,923	163,834
322,954	-1,257	338,840	163,954
323,968	-0,691	338,818	164,555
324,983	-0,559	338,740	164,648
325,997	-0,405	338,546	164,709
327,012	-0,570	338,336	164,411
328,027	-0,543	337,988	164,257
329,041	-0,459	337,959	164,320
330,056	-0,508	337,782	164,165
331,070	-0,880	337,245	163,481
332,085	-1,095	337,003	163,113
333,100	-0,791	336,784	163,326
334,114	-0,567	336,647	163,491
335,129	-0,562	336,372	163,348
336,143	-0,647	336,124	163,120
337,158	-0,550	335,873	163,090
338,173	-0,809	335,772	162,743
339,187	-0,875	335,517	162,533
340,202	-0,900	335,196	162,335
341,216	-0,825	335,057	162,335
342,231	-0,743	334,875	162,322
343,246	-0,755	334,549	162,136
344,260	-0,966	334,454	161,846
345,275	-0,783	334,287	161,951
346,289	-0,785	333,929	161,760
347,304	-0,903	333,648	161,482
348,319	-0,758	333,614	161,608
349,333	-0,466	333,623	161,915
350,348	-0,337	333,352	161,910
351,362	-0,285	333,288	161,920
352,377	-0,334	333,012	161,719
353,392	-0,483	332,603	161,345
354,406	-0,472	332,367	161,227
355,421	196,579	1328,266	1388,659
356,435	160,920	1449,456	1388,549
