DTS Sentinel unit serial number:	SN410029Multiplexer serial number:	ORYXHardware model number:	OX2-SRSoftware version number:	ORYX F/W v4,00 Oryx Data Collector v3.7.2.0data status	okinstallation	B6 Nyhavnadifferential loss correction	single-endedforward channel	channel 2reverse channel	N/Adate	2023/12/10time	11:15:08forward acquisition time	300,00reverse acquisition time	0,00gamma	499,1914k internal	0,3123k external	0,3123temperature offset calibration	1,0000default loss term (dB/km)	0,3820temperature slope calibration	1,0000multiplexer offset coefficient	1,0000multiplexer slope coefficient	1,0000fibre end	0,00T internal ref (°C)	22,63T ext. ref 1 (°C)	6,53T ext. ref 2 (°C)	6,53length (m)	temperature (°C)	Stokes	anti-Stokes-744,400	-186,629	0,074	-0,001
-743,385	-107,873	-0,309	0,050
-742,371	-89,441	0,126	0,027
-741,356	-69,012	-0,201	0,057
-740,342	800,000	0,007	-0,022
-739,327	63,802	-0,145	0,108
-738,312	103,420	0,151	-0,132
-737,298	-35,243	-0,293	0,118
-736,283	176,740	0,070	-0,076
-735,269	-62,227	-0,225	0,069
-734,254	-200,000	-0,020	0,102
-733,239	-61,838	-0,364	-0,113
-732,225	-200,000	-0,000	-0,027
-731,210	800,000	-0,012	-0,036
-730,196	-200,000	0,001	0,149
-729,181	-180,363	0,128	-0,002
-728,167	290,038	-0,065	-0,088
-727,152	261,420	-0,062	0,080
-726,137	-200,000	-0,003	-0,041
-725,123	-46,811	-0,146	-0,053
-724,108	800,000	0,041	-0,123
-723,094	-92,749	-0,183	0,038
-722,079	-148,792	-0,094	0,006
-721,064	90,826	-0,133	-0,111
-720,050	-200,000	0,032	-0,125
-719,035	-200,000	-0,002	-0,200
-718,021	800,000	-0,041	-0,126
-717,006	-32,458	-0,224	-0,093
-715,991	-113,681	-0,205	-0,029
-714,977	27,281	-0,048	0,030
-713,962	-200,000	-0,001	-0,113
-712,948	135,590	-0,115	-0,111
-711,933	-43,789	-0,121	0,045
-710,918	628,535	0,060	0,113
-709,904	-200,000	0,014	0,057
-708,889	800,000	0,033	-0,086
-707,875	-40,225	-0,125	-0,048
-706,860	800,000	0,024	-0,067
-705,845	-159,421	0,039	0,002
-704,831	27,747	0,063	-0,040
-703,816	43,127	-0,149	0,101
-702,802	800,000	0,022	0,070
-701,787	-51,296	-0,147	-0,051
-700,772	364,792	0,023	-0,035
-699,758	800,000	0,039	0,110
-698,743	-46,477	-0,121	0,044
-697,729	800,000	0,058	0,146
-696,714	37,847	-0,096	0,063
-695,699	-11,407	-0,010	0,005
-694,685	-200,000	0,018	-0,076
-693,670	124,747	-0,113	-0,106
-692,656	146,026	0,048	-0,048
-691,641	523,083	-0,040	0,071
-690,627	-20,735	0,062	0,028
-689,612	-102,107	0,127	0,022
-688,597	486,943	-0,041	-0,070
-687,583	-200,000	0,014	-0,047
-686,568	573,004	-0,046	-0,083
-685,554	800,000	0,026	0,068
-684,539	82,334	0,125	-0,101
-683,524	-183,706	0,165	0,002
-682,510	800,000	0,012	0,040
-681,495	-55,256	0,084	-0,028
-680,481	16,226	-0,014	-0,008
-679,466	136,911	-0,093	-0,090
-678,451	247,994	0,063	0,080
-677,437	247,031	0,032	-0,041
-676,422	439,501	0,092	0,150
-675,408	316,458	-0,104	0,147
-674,393	58,249	0,059	-0,043
-673,378	-200,000	-0,048	0,171
-672,364	-120,039	-0,141	-0,018
-671,349	429,099	0,071	0,114
-670,335	-200,000	0,004	-0,042
-669,320	80,845	-0,052	0,041
-668,305	48,761	-0,041	0,028
-667,291	361,385	0,042	-0,063
-666,276	229,893	-0,060	-0,073
-665,262	253,246	-0,068	-0,086
-664,247	102,698	0,063	-0,054
-663,232	549,440	-0,015	-0,028
-662,218	-161,332	0,083	-0,003
-661,203	-200,000	-0,003	0,102
-660,189	124,113	0,078	-0,073
-659,174	49,332	-0,049	0,034
-658,159	163,158	0,075	-0,079
-657,145	-159,287	0,053	0,002
-656,130	800,000	-0,017	0,036
-655,116	-200,000	0,045	-0,153
-654,101	460,272	-0,037	0,061
-653,086	-200,000	0,005	-0,083
-652,072	-54,689	-0,052	0,017
-651,057	-200,000	-0,014	-0,099
-650,043	382,204	0,038	-0,059
-649,028	800,000	0,009	0,021
-648,014	246,891	-0,050	-0,062
-646,999	800,000	0,013	-0,027
-645,984	13,815	-0,051	0,029
-644,970	11,083	-0,069	-0,039
-643,955	314,049	0,075	-0,105
-642,941	800,000	-0,052	0,131
-641,926	160,631	0,056	0,058
-640,911	-200,000	0,016	0,086
-639,897	-200,000	-0,007	0,057
-638,882	606,411	0,017	0,032
-637,868	120,940	-0,073	-0,067
-636,853	703,597	-0,107	-0,210
-635,838	76,262	0,077	-0,060
-634,824	37,301	0,078	0,051
-633,809	-44,612	0,117	0,043
-632,795	-83,491	-0,041	0,010
-631,780	67,080	0,043	-0,033
-630,765	-200,000	-0,004	0,021
-629,751	-200,000	0,009	-0,071
-628,736	-158,516	-0,090	-0,004
-627,722	-37,884	0,077	-0,030
-626,707	800,000	-0,027	-0,086
-625,692	50,360	0,081	-0,057
-624,678	-46,560	-0,079	0,028
-623,663	800,000	0,036	0,078
-622,649	219,648	0,018	0,021
-621,634	-183,027	-0,093	0,001
-620,619	7,337	-0,125	0,069
-619,605	143,051	0,124	0,122
-618,590	767,828	0,040	0,080
-617,576	800,000	0,055	0,127
-616,561	-142,508	0,127	-0,009
-615,546	52,928	-0,031	-0,022
-614,532	-200,000	-0,005	-0,040
-613,517	-200,000	-0,012	-0,198
-612,503	38,179	-0,085	-0,056
-611,488	-200,000	-0,005	-0,024
-610,474	584,530	0,075	0,138
-609,459	-191,177	0,116	-0,001
-608,444	423,223	-0,039	-0,063
-607,430	-200,000	0,002	0,020
-606,415	39,655	-0,070	0,047
-605,401	456,293	-0,058	-0,095
-604,386	800,000	-0,035	-0,104
-603,371	-200,000	0,005	-0,105
-602,357	308,303	0,060	0,084
-601,342	-200,000	-0,001	-0,079
-600,328	-88,567	-0,139	0,030
-599,313	-200,000	0,013	-0,086
-598,298	800,000	-0,024	-0,058
-597,284	800,000	0,032	0,096
-596,269	17,562	0,134	-0,079
-595,255	-200,000	0,025	0,148
-594,240	-200,000	-0,012	0,140
-593,225	-47,416	-0,100	0,036
-592,211	-120,596	-0,128	-0,016
-591,196	93,098	-0,027	0,023
-590,182	658,285	0,054	-0,103
-589,167	-200,000	0,003	0,211
-588,152	163,798	-0,039	0,040
-587,138	-200,000	-0,005	0,071
-586,123	226,025	-0,008	-0,010
-585,109	-200,000	-0,001	-0,024
-584,094	26,327	-0,118	-0,073
-583,079	153,830	-0,124	0,126
-582,065	78,668	0,071	0,056
-581,050	-200,000	0,035	-0,121
-580,036	-17,316	-0,115	-0,053
-579,021	-200,000	-0,035	-0,128
-578,006	790,241	-0,028	-0,057
-576,992	217,688	-0,078	-0,092
-575,977	-200,000	0,010	0,108
-574,963	-200,000	0,026	0,094
-573,948	221,125	0,079	0,094
-572,934	-122,050	0,034	0,004
-571,919	141,629	-0,099	-0,097
-570,904	-60,100	0,021	0,007
-569,890	-27,681	0,108	-0,046
-568,875	-200,000	0,006	-0,075
-567,861	112,225	0,059	0,052
-566,846	341,005	0,041	0,059
-565,831	-200,000	-0,032	0,115
-564,817	84,543	0,041	-0,033
-563,802	275,774	0,056	-0,074
-562,788	-200,000	-0,011	-0,079
-561,773	-200,000	0,023	0,119
-560,758	80,597	0,198	0,158
-559,744	-60,751	0,018	0,006
-558,729	800,000	0,011	-0,030
-557,715	-46,928	-0,081	0,029
-556,700	79,703	0,148	-0,117
-555,685	800,000	0,032	-0,071
-554,671	-200,000	-0,002	0,040
-553,656	800,000	-0,023	-0,064
-552,642	25,939	0,023	-0,014
-551,627	-200,000	0,024	0,095
-550,612	-200,000	-0,003	-0,017
-549,598	407,240	-0,040	-0,063
-548,583	-9,857	-0,019	0,009
-547,569	-200,000	0,015	-0,070
-546,554	800,000	-0,091	0,232
-545,539	-91,467	0,164	0,034
-544,525	-92,996	0,147	0,030
-543,510	58,987	0,104	-0,076
-542,496	252,275	-0,058	0,073
-541,481	-200,000	0,011	0,079
-540,466	52,980	0,072	-0,051
-539,452	89,232	0,079	0,065
-538,437	-117,210	-0,042	0,006
-537,423	106,274	0,058	-0,051
-536,408	-60,049	0,045	-0,014
-535,393	649,307	-0,067	-0,126
-534,379	800,000	0,021	0,046
-533,364	499,011	0,038	-0,065
-532,350	-35,193	-0,077	0,031
-531,335	124,119	0,072	0,066
-530,321	-49,261	0,106	0,037
-529,306	-131,856	-0,122	-0,012
-528,291	230,402	-0,100	-0,121
-527,277	6,761	-0,093	-0,051
-526,262	-143,754	0,025	-0,002
-525,248	-104,415	0,129	-0,022
-524,233	192,639	-0,058	-0,065
-523,218	329,575	0,067	-0,096
-522,204	-200,000	-0,003	0,025
-521,189	139,582	-0,123	-0,120
-520,175	-43,245	-0,101	-0,037
-519,160	-89,896	-0,056	-0,012
-518,145	-78,110	-0,027	-0,007
-517,131	-200,000	-0,003	0,117
-516,116	-184,142	-0,109	0,001
-515,102	-200,000	0,003	-0,020
-514,087	211,552	-0,076	0,088
-513,072	5,448	0,038	0,021
-512,058	340,165	-0,091	-0,131
-511,043	205,058	0,043	0,049
-510,029	464,825	-0,087	0,145
-509,014	717,615	0,055	0,107
-507,999	460,456	-0,026	0,043
-506,985	-200,000	-0,005	0,046
-505,970	800,000	-0,024	0,058
-504,956	113,330	0,038	0,034
-503,941	-200,000	0,020	0,121
-502,926	-114,458	0,113	0,016
-501,912	-200,000	-0,004	0,118
-500,897	612,802	0,022	0,040
-499,883	-185,473	-0,099	0,001
-498,868	-80,074	-0,098	0,024
-497,853	-63,640	-0,095	-0,029
-496,839	-200,000	-0,010	-0,159
-495,824	224,814	0,016	-0,019
-494,810	-11,075	0,062	0,030
-493,795	461,306	0,039	-0,065
-492,781	-5,203	-0,118	-0,060
-491,766	-200,000	0,006	0,053
-490,751	-200,000	0,001	-0,086
-489,737	-18,990	-0,129	-0,059
-488,722	-200,000	-0,010	-0,109
-487,708	-7,582	0,159	0,079
-486,693	-27,781	-0,063	0,027
-485,678	-102,391	-0,166	-0,029
-484,664	-18,115	0,089	-0,041
-483,649	509,942	-0,055	-0,095
-482,635	-167,822	-0,034	0,001
-481,620	144,977	0,013	0,013
-480,605	-96,590	-0,053	-0,010
-479,591	-65,061	-0,060	0,018
-478,576	73,887	-0,059	0,045
-477,562	108,348	-0,113	-0,100
-476,547	82,745	-0,052	0,042
-475,532	73,261	0,059	-0,046
-474,518	48,999	-0,073	0,050
-473,503	282,427	0,098	0,130
-472,489	-200,000	-0,004	0,024
-471,474	-200,000	0,001	0,011
-470,459	56,303	-0,092	-0,066
-469,445	-200,000	0,018	-0,154
-468,430	-102,873	-0,099	0,017
-467,416	-41,808	-0,082	-0,031
-466,401	-94,801	0,078	-0,016
-465,386	-200,000	0,005	0,093
-464,372	-1,078	0,050	-0,026
-463,357	-200,000	-0,013	-0,092
-462,343	410,467	0,054	-0,085
-461,328	800,000	0,016	-0,045
-460,313	-79,167	-0,024	0,006
-459,299	-64,827	0,034	-0,010
-458,284	392,231	-0,100	0,154
-457,270	-200,000	0,029	0,156
-456,255	184,902	0,021	-0,023
-455,241	30,702	-0,083	0,052
-454,226	-200,000	0,006	-0,146
-453,211	-17,500	0,193	-0,089
-452,197	358,300	0,042	0,063
-451,182	-200,000	-0,007	0,028
-450,168	-143,703	-0,136	0,009
-449,153	-102,430	0,051	-0,009
-448,138	46,563	0,077	-0,052
-447,124	-69,436	-0,104	-0,029
-446,109	222,600	0,080	-0,095
-445,095	-2,901	0,093	0,048
-444,080	12,812	0,111	-0,063
-443,065	-149,596	-0,124	-0,007
-442,051	169,307	0,031	-0,033
-441,036	-200,000	-0,008	-0,223
-440,022	-200,000	-0,001	-0,073
-439,007	105,590	0,036	-0,031
-437,992	204,678	-0,077	-0,088
-436,978	-51,554	-0,082	-0,028
-435,963	-200,000	-0,022	0,101
-434,949	800,000	0,090	-0,217
-433,934	800,000	-0,010	0,030
-432,919	248,493	-0,034	-0,042
-431,905	48,906	-0,026	-0,018
-430,890	628,468	-0,052	0,097
-429,876	733,445	-0,030	0,059
-428,861	74,656	0,108	-0,083
-427,846	505,144	-0,038	-0,066
-426,832	-200,000	0,028	0,107
-425,817	-144,367	-0,168	-0,011
-424,803	80,380	0,117	-0,092
-423,788	200,338	0,029	0,033
-422,773	-200,000	0,031	0,148
-421,759	175,886	0,058	0,062
-420,744	138,599	0,044	0,043
-419,730	-21,181	-0,115	0,052
-418,715	-200,000	-0,005	0,031
-417,701	675,393	-0,061	0,118
-416,686	-4,219	0,196	0,099
-415,671	68,536	0,156	0,117
-414,657	179,941	-0,075	0,081
-413,642	-200,000	-0,010	-0,040
-412,628	-200,000	0,009	-0,151
-411,613	671,198	-0,064	-0,123
-410,598	-200,000	-0,018	-0,105
-409,584	233,056	0,041	0,049
-408,569	378,429	0,087	0,131
-407,555	-44,389	-0,057	0,021
-406,540	43,404	-0,072	-0,048
-405,525	800,000	-0,071	-0,169
-404,511	-77,399	-0,088	0,022
-403,496	134,026	0,062	-0,059
-402,482	-7,266	0,099	-0,049
-401,467	800,000	-0,024	0,060
-400,452	-200,000	0,011	-0,082
-399,438	800,000	0,065	0,146
-398,423	-12,282	-0,136	-0,065
-397,409	-130,285	-0,127	0,013
-396,394	-117,647	-0,013	0,002
-395,379	-200,000	-0,018	-0,123
-394,365	-200,000	-0,012	-0,045
-393,350	67,538	0,036	0,027
-392,336	634,428	-0,062	0,116
-391,321	347,373	-0,036	-0,052
-390,306	51,728	0,059	-0,041
-389,292	-200,000	-0,001	-0,012
-388,277	614,459	0,040	-0,075
-387,263	-200,000	0,000	0,019
-386,248	153,421	0,081	0,082
-385,233	611,831	-0,051	0,094
-384,219	-76,045	0,059	-0,015
-383,204	-83,054	-0,021	-0,005
-382,190	-9,179	0,062	-0,030
-381,175	-200,000	-0,036	-0,129
-380,160	-130,881	0,080	0,008
-379,146	465,190	0,010	0,016
-378,131	-84,277	-0,094	0,022
-377,117	464,379	0,046	0,076
-376,102	-112,444	-0,091	-0,013
-375,088	800,000	-0,028	0,063
-374,073	413,844	0,043	0,068
-373,058	-64,738	0,055	-0,016
-372,044	-12,813	0,094	0,045
-371,029	-200,000	-0,008	-0,048
-370,015	-6,989	-0,107	-0,053
-369,000	608,419	0,005	0,010
-367,985	145,343	0,045	-0,044
-366,971	121,974	0,049	-0,045
-365,956	6,641	0,081	0,044
-364,942	-158,486	0,119	0,005
-363,927	44,987	-0,092	0,062
-362,912	800,000	0,020	0,049
-361,898	-19,547	-0,048	-0,022
-360,883	-33,766	-0,060	0,024
-359,869	-120,397	0,089	-0,011
-358,854	800,000	-0,013	0,026
-357,839	69,782	0,079	0,059
-356,825	136,876	0,072	-0,069
-355,810	-110,115	0,097	-0,015
-354,796	800,000	-0,029	0,085
-353,781	-24,846	-0,018	-0,008
-352,766	150,871	-0,024	0,024
-351,752	800,000	0,092	0,204
-350,737	800,000	-0,014	-0,035
-349,723	-193,753	0,089	-0,001
-348,708	645,345	-0,037	-0,070
-347,693	68,520	0,019	0,015
-346,679	448,300	-0,075	-0,121
-345,664	-200,000	-0,002	-0,060
-344,650	-191,244	0,075	-0,001
-343,635	-34,292	-0,058	0,023
-342,620	-173,123	0,044	-0,001
-341,606	93,580	-0,026	0,022
-340,591	800,000	-0,090	0,209
-339,577	-200,000	-0,001	-0,122
-338,562	-118,968	-0,095	-0,012
-337,548	-98,480	0,080	-0,015
-336,533	286,823	0,034	0,045
-335,518	726,334	0,026	0,051
-334,504	-56,681	0,182	0,059
-333,489	119,747	-0,017	0,016
-332,475	-104,719	-0,076	0,013
-331,460	-0,186	-0,167	0,087
-330,445	-138,511	0,062	0,005
-329,431	-70,381	-0,148	-0,041
-328,416	-130,995	0,067	0,006
-327,402	-200,000	0,003	-0,111
-326,387	-163,876	-0,086	0,003
-325,372	-41,347	-0,076	0,029
-324,358	30,438	-0,073	0,046
-323,343	-200,000	0,006	0,021
-322,329	-200,000	0,017	0,067
-321,314	-51,571	-0,133	0,045
-320,299	35,195	-0,046	-0,029
-319,285	-9,948	0,025	0,012
-318,270	319,216	-0,023	0,032
-317,256	-200,000	0,000	-0,063
-316,241	-200,000	-0,006	0,039
-315,226	-35,104	-0,054	-0,021
-314,212	251,653	0,010	-0,013
-313,197	112,614	0,069	0,061
-312,183	14,019	-0,066	-0,038
-311,168	62,338	-0,099	0,073
-310,153	800,000	-0,012	-0,036
-309,139	-200,000	0,002	-0,033
-308,124	800,000	0,032	-0,102
-307,110	140,886	0,132	0,128
-306,095	-110,839	0,098	0,015
-305,080	151,331	0,098	0,098
-304,066	800,000	0,031	0,091
-303,051	-200,000	-0,033	-0,147
-302,037	113,339	-0,074	0,066
-301,022	239,816	-0,093	-0,114
-300,008	-20,168	0,076	-0,034
-298,993	311,947	0,024	0,033
-297,978	-200,000	-0,008	0,094
-296,964	-147,040	-0,056	-0,003
-295,949	129,338	-0,066	-0,062
-294,935	-200,000	0,015	-0,166
-293,920	-77,388	-0,079	0,020
-292,905	192,558	0,124	0,138
-291,891	-200,000	0,046	-0,000
-290,876	-120,968	0,058	0,007
-289,862	741,802	0,018	0,036
-288,847	108,337	0,101	0,088
-287,832	273,498	0,056	-0,073
-286,818	563,643	-0,040	-0,072
-285,803	-200,000	0,012	0,124
-284,789	377,605	0,013	0,019
-283,774	575,887	0,105	0,189
-282,759	40,719	0,033	0,022
-281,745	-200,000	-0,004	0,045
-280,730	-41,697	0,200	0,075
-279,716	-79,267	-0,057	-0,014
-278,701	18,529	0,008	-0,005
-277,686	122,063	-0,062	-0,056
-276,672	-200,000	-0,013	0,052
-275,657	-200,000	0,008	0,097
-274,643	68,406	0,045	-0,034
-273,628	800,000	0,074	-0,154
-272,613	800,000	0,038	0,081
-271,599	-200,000	-0,005	0,026
-270,584	39,351	-0,043	-0,028
-269,570	47,970	0,099	0,067
-268,555	-88,748	0,080	0,017
-267,540	519,939	-0,046	-0,079
-266,526	25,279	-0,020	0,012
-265,511	-200,000	-0,016	0,064
-264,497	-25,782	-0,062	-0,027
-263,482	-51,889	0,162	0,055
-262,467	800,000	0,008	0,018
-261,453	450,990	0,064	0,103
-260,438	-200,000	-0,009	-0,075
-259,424	800,000	-0,018	-0,040
-258,409	-53,890	-0,049	-0,016
-257,395	-200,000	0,029	-0,162
-256,380	-100,348	0,054	-0,010
-255,365	63,867	0,121	-0,089
-254,351	-115,530	-0,037	0,005
-253,336	-52,374	0,037	-0,013
-252,322	800,000	-0,040	-0,084
-251,307	-200,000	0,001	-0,067
-250,292	-143,101	-0,048	-0,003
-249,278	748,867	-0,059	-0,116
-248,263	800,000	-0,026	0,076
-247,249	-105,913	0,012	0,002
-246,234	800,000	0,015	0,043
-245,219	268,939	0,104	-0,134
-244,205	55,721	0,055	-0,039
-243,190	-26,920	0,053	0,023
-242,176	15,342	0,096	0,055
-241,161	-200,000	0,022	0,078
-240,146	-11,660	0,049	-0,024
-239,132	87,389	0,032	0,026
-238,117	800,000	-0,038	0,107
-237,103	340,456	-0,090	-0,128
-236,088	22,630	-0,058	-0,034
-235,073	-139,991	0,095	-0,007
-234,059	417,554	-0,019	0,030
-233,044	276,719	-0,049	-0,064
-232,030	26,942	-0,089	0,054
-231,015	800,000	-0,012	-0,029
-230,000	231,001	-0,101	0,121
-228,986	800,000	-0,044	-0,106
-227,971	66,825	-0,129	-0,096
-226,957	-200,000	0,013	-0,045
-225,942	-79,587	-0,032	0,008
-224,927	-115,536	0,102	0,014
-223,913	278,206	-0,067	-0,087
-222,898	429,178	0,030	-0,047
-221,884	399,906	-0,034	-0,052
-220,869	-200,000	0,005	-0,137
-219,855	566,468	-0,025	-0,045
-218,840	699,749	-0,047	0,091
-217,825	274,109	-0,073	-0,094
-216,811	365,954	-0,040	-0,059
-215,796	800,000	-0,025	-0,065
-214,782	-147,513	-0,199	0,012
-213,767	-89,190	-0,146	-0,031
-212,752	56,863	-0,144	0,102
-211,738	7,806	0,043	-0,024
-210,723	38,471	-0,058	0,038
-209,709	-200,000	0,003	-0,066
-208,694	277,016	0,040	-0,052
-207,679	-181,779	0,071	0,001
-206,665	800,000	0,022	0,060
-205,650	612,482	0,013	0,024
-204,636	428,124	0,050	0,079
-203,621	-200,000	-0,006	0,091
-202,606	-200,000	0,001	-0,002
-201,592	-90,341	0,037	-0,008
-200,577	52,296	0,046	0,032
-199,563	356,789	0,047	0,068
-198,548	98,819	0,132	-0,112
-197,533	-33,603	-0,129	-0,052
-196,519	800,000	0,064	0,142
-195,504	-87,904	-0,096	0,021
-194,490	800,000	-0,051	0,130
-193,475	800,000	-0,041	-0,103
-192,460	-100,798	-0,074	-0,013
-191,446	-18,768	0,141	0,064
-190,431	149,640	-0,071	-0,070
-189,417	-200,000	0,001	0,019
-188,402	-200,000	0,018	-0,086
-187,387	-200,000	0,017	0,057
-186,373	800,000	0,009	-0,019
-185,358	150,868	0,036	0,036
-184,344	184,677	0,079	0,085
-183,329	259,037	0,139	0,175
-182,315	591,428	0,033	-0,059
-181,300	30,300	0,105	-0,066
-180,285	14,063	0,102	0,058
-179,271	-167,610	-0,126	0,004
-178,256	16,772	0,061	0,035
-177,242	227,890	0,061	-0,073
-176,227	-169,493	0,096	-0,002
-175,212	-200,000	0,000	0,137
-174,198	359,100	0,048	-0,071
-173,183	560,137	-0,050	0,089
-172,169	-110,496	-0,115	0,017
-171,154	229,744	0,045	-0,054
-170,139	-120,932	0,093	-0,011
-169,125	-200,000	0,027	0,202
-168,110	-70,370	-0,096	-0,026
-167,096	-33,043	-0,043	-0,017
-166,081	800,000	-0,046	0,094
-165,066	-200,000	-0,001	-0,129
-164,052	-200,000	-0,002	0,012
-163,037	52,469	-0,094	-0,065
-162,023	-27,803	0,277	0,116
-161,008	-161,943	-0,096	0,003
-159,993	-21,160	0,019	0,009
-158,979	800,000	0,037	-0,080
-157,964	-200,000	0,021	-0,076
-156,950	-200,000	-0,031	-0,171
-155,935	-134,090	-0,151	-0,013
-154,920	-88,761	-0,117	-0,025
-153,906	-200,000	-0,015	0,108
-152,891	574,853	-0,030	-0,053
-151,877	-173,436	0,075	0,002
-150,862	-200,000	0,007	-0,039
-149,847	-83,377	0,075	-0,017
-148,833	-200,000	-0,001	0,040
-147,818	782,494	-0,019	-0,038
-146,804	-200,000	-0,030	0,211
-145,789	185,669	0,069	0,074
-144,775	496,345	0,028	-0,047
-143,760	23,932	-0,075	-0,045
-142,745	-200,000	0,002	-0,092
-141,731	45,140	-0,058	0,039
-140,716	-200,000	-0,024	0,085
-139,702	506,632	0,049	0,083
-138,687	319,660	0,063	0,088
-137,672	-92,408	0,032	-0,006
-136,658	-123,078	-0,116	-0,013
-135,643	89,662	-0,034	0,028
-134,629	-68,770	0,017	0,005
-133,614	241,848	0,018	-0,022
-132,599	800,000	-0,042	0,089
-131,585	324,331	0,056	0,078
-130,570	800,000	0,041	-0,092
-129,556	800,000	-0,016	0,049
-128,541	-92,784	-0,204	-0,041
-127,526	-123,012	0,156	0,018
-126,512	38,635	0,182	-0,118
-125,497	800,000	-0,025	0,075
-124,483	-200,000	-0,015	-0,052
-123,468	248,933	0,041	-0,051
-122,453	-80,328	0,151	-0,036
-121,439	-200,000	0,023	-0,097
-120,424	800,000	-0,056	-0,127
-119,410	12,575	0,113	-0,063
-118,395	-200,000	0,014	-0,056
-117,380	413,487	0,041	-0,063
-116,366	92,117	-0,062	-0,051
-115,351	-200,000	0,019	-0,228
-114,337	-200,000	0,008	-0,197
-113,322	151,989	-0,089	-0,089
-112,307	-27,879	0,027	0,011
-111,293	-56,302	0,116	-0,037
-110,278	800,000	-0,009	0,018
-109,264	240,286	0,022	0,026
-108,249	135,570	-0,015	0,014
-107,234	89,394	-0,052	-0,042
-106,220	-133,118	0,035	0,003
-105,205	-200,000	0,000	0,018
-104,191	800,000	0,048	0,098
-103,176	141,398	-0,024	-0,023
-102,162	-141,082	-0,175	0,013
-101,147	-200,000	0,017	-0,167
-100,132	4,645	-0,103	-0,055
-99,118	115,433	0,042	-0,038
-98,103	800,000	0,037	0,110
-97,089	800,000	0,031	0,093
-96,074	-131,604	0,019	0,002
-95,059	179,082	0,010	0,011
-94,045	-100,701	0,091	0,016
-93,030	-200,000	-0,018	-0,079
-92,016	-95,901	-0,076	0,015
-91,001	212,860	-0,036	0,041
-89,986	-91,378	-0,094	0,019
-88,972	227,302	0,015	0,017
-87,957	785,894	0,036	0,073
-86,943	155,686	-0,058	-0,058
-85,928	800,000	0,028	0,075
-84,913	279,901	-0,083	0,108
-83,899	147,608	0,045	-0,044
-82,884	-200,000	-0,021	-0,075
-81,870	-26,247	0,091	0,039
-80,855	321,720	-0,032	-0,044
-79,840	-200,000	-0,003	0,054
-78,826	-7,000	0,113	-0,056
-77,811	-121,829	-0,069	-0,008
-76,797	43,410	0,079	0,052
-75,782	308,226	0,063	0,086
-74,767	567,487	0,071	0,126
-73,753	-43,840	-0,075	0,027
-72,738	-150,172	0,037	0,002
-71,724	-23,883	-0,133	-0,058
-70,709	671,220	-0,057	-0,108
-69,694	-200,000	0,006	-0,052
-68,680	-29,501	-0,070	-0,029
-67,665	89,312	-0,050	0,041
-66,651	-75,813	0,042	-0,011
-65,636	800,000	-0,003	0,009
-64,622	59,313	0,099	-0,071
-63,607	-144,448	-0,057	-0,004
-62,592	21,663	-0,023	-0,014
-61,578	-200,000	-0,007	0,067
-60,563	-98,361	-0,067	0,012
-59,549	490,601	-0,087	0,145
-58,534	-167,802	-1,335	0,037
-57,519	508,504	-0,899	-1,522
-56,505	-200,000	-0,806	-4,332
-55,490	92,172	0,655	-0,535
-54,476	800,000	4,961	11,809
-53,461	-200,000	13,336	253,204
-52,446	-200,000	688,238	2271,029
-51,432	597,995	1622,431	2930,777
-50,417	121,053	1636,490	1477,798
-49,403	73,634	1290,650	980,148
-48,388	38,507	1025,403	662,063
-47,373	24,605	982,686	588,739
-46,359	23,790	972,432	579,898
-45,344	22,856	968,229	574,315
-44,330	22,790	966,813	573,237
-43,315	22,675	965,410	572,005
-42,300	22,627	964,325	571,183
-41,286	22,727	963,309	570,885
-40,271	22,575	962,655	569,980
-39,257	22,628	961,633	569,526
-38,242	22,647	960,669	568,993
-37,227	22,643	959,678	568,371
-36,213	22,645	958,693	567,771
-35,198	22,564	958,025	567,091
-34,184	22,628	957,365	566,886
-33,169	22,597	956,385	566,182
-32,154	22,651	955,451	565,782
-31,140	22,722	954,522	565,439
-30,125	22,740	953,741	565,011
-29,111	22,681	953,031	564,378
-28,096	22,643	952,306	563,805
-27,082	22,739	951,586	563,663
-26,067	22,702	950,801	563,057
-25,052	22,676	950,149	562,567
-24,038	22,650	949,743	562,219
-23,023	22,675	949,037	561,860
-22,009	22,670	948,306	561,387
-20,994	22,659	947,613	560,921
-19,979	22,652	946,958	560,487
-18,965	22,656	946,381	560,138
-17,950	22,691	945,645	559,791
-16,936	22,688	944,953	559,348
-15,921	22,596	944,566	558,804
-14,906	22,573	943,591	558,133
-13,892	22,509	943,094	557,612
-12,877	22,595	942,349	557,423
-11,863	22,567	941,817	556,997
-10,848	22,553	941,274	556,612
-9,833	22,687	940,664	556,653
-8,819	22,670	940,168	556,283
-7,804	22,577	939,432	555,532
-6,790	22,536	939,021	555,136
-5,775	22,627	938,319	554,988
-4,760	22,611	937,568	554,469
-3,746	22,539	936,981	553,872
-2,731	22,416	936,462	553,155
-1,717	22,371	935,727	552,559
-0,702	22,420	934,838	552,164
0,313	22,205	934,326	552,017
1,327	25,258	932,303	560,380
2,342	35,004	796,754	504,881
3,356	33,062	452,019	283,478
4,371	2,101	293,855	153,398
5,386	-2,229	274,713	139,296
6,400	-4,004	268,896	134,688
7,415	-4,280	266,383	133,164
8,429	-4,054	265,240	132,787
9,444	-4,176	264,344	132,216
10,459	-4,051	263,686	131,989
11,473	-3,975	263,110	131,758
12,488	-4,144	262,484	131,279
13,502	-4,542	262,008	130,670
14,517	-4,213	261,598	130,751
15,531	-4,301	261,310	130,516
16,546	-4,311	260,947	130,314
17,561	-4,492	260,625	129,978
18,575	-4,105	260,276	130,140
19,590	-4,271	259,790	129,737
20,604	-4,115	259,536	129,739
21,619	-4,351	259,285	129,391
22,634	-4,119	258,769	129,327
23,648	-4,292	258,554	129,054
24,663	-4,274	258,450	129,007
25,677	-4,392	258,064	128,698
26,692	-4,500	257,856	128,487
27,707	-4,122	257,548	128,658
28,721	-4,171	257,231	128,444
29,736	-4,420	257,051	128,122
30,750	-4,287	256,835	128,121
31,765	-4,310	256,562	127,953
32,780	-4,363	256,358	127,793
33,794	-4,265	256,168	127,774
34,809	-4,555	256,080	127,462
35,823	-4,286	255,658	127,478
36,838	-4,374	255,352	127,237
37,853	-4,467	255,275	127,105
38,867	-4,430	254,929	126,954
39,882	-4,498	254,694	126,766
40,896	-4,352	254,545	126,808
41,911	-4,374	254,310	126,661
42,926	-4,375	254,108	126,548
43,940	-4,460	253,902	126,360
44,955	-4,515	253,669	126,185
45,969	-4,581	253,493	126,029
46,984	-4,490	253,071	125,886
47,999	-4,855	253,038	125,541
49,013	-5,136	252,676	125,106
50,028	-5,171	252,301	124,879
51,042	-5,373	252,305	124,694
52,057	-5,286	251,965	124,591
53,071	-5,264	251,870	124,551
54,086	-5,170	251,763	124,569
55,101	-5,026	251,413	124,510
56,115	-4,861	251,381	124,624
57,130	-4,278	251,109	124,982
58,144	-4,156	250,999	125,022
59,159	-4,099	250,856	124,988
60,174	-4,125	250,631	124,843
61,188	-4,149	250,585	124,788
62,203	-4,265	250,357	124,564
63,217	-4,244	250,160	124,472
64,232	-4,209	249,791	124,308
65,247	-4,132	249,426	124,181
66,261	-4,314	249,454	124,028
67,276	-4,324	249,038	123,801
68,290	-4,640	248,902	123,453
69,305	-4,834	248,557	123,105
70,320	-4,674	248,388	123,147
71,334	-4,339	248,290	123,373
72,349	-4,256	248,353	123,464
73,363	-4,188	248,070	123,370
74,378	-4,114	247,884	123,329
75,393	-4,143	247,583	123,144
76,407	-4,420	247,539	122,876
77,422	-4,382	247,289	122,773
78,436	-4,216	247,153	122,835
79,451	-4,429	246,888	122,513
80,466	-4,228	246,511	122,484
81,480	-4,640	246,396	122,068
82,495	-4,581	246,171	121,996
83,509	-4,565	245,954	121,890
84,524	-4,591	245,795	121,779
85,539	-4,753	245,492	121,482
86,553	-4,744	245,411	121,438
87,568	-4,558	245,253	121,506
88,582	-4,779	245,116	121,241
89,597	-4,652	244,826	121,194
90,611	-4,565	244,770	121,228
91,626	-4,194	244,501	121,395
92,641	-4,337	244,423	121,226
93,655	-4,454	244,195	121,004
94,670	-4,272	243,825	120,962
95,684	-4,417	243,772	120,803
96,699	-4,216	243,561	120,856
97,714	-4,609	243,422	120,449
98,728	-4,741	243,232	120,234
99,743	-4,749	242,983	120,093
100,757	-4,802	242,830	119,963
101,772	-4,679	242,696	119,988
102,787	-4,607	242,528	119,954
103,801	-4,248	242,218	120,088
104,816	-4,413	242,087	119,875
105,830	-4,156	241,980	120,025
106,845	-4,362	242,126	119,916
107,860	-4,498	241,642	119,553
108,874	-4,494	241,460	119,456
109,889	-4,269	241,188	119,496
110,903	-4,373	240,897	119,256
111,918	-4,544	240,889	119,100
112,933	-4,493	240,744	119,060
113,947	-4,593	240,670	118,930
114,962	-4,308	240,442	119,041
115,976	-4,302	240,198	118,915
116,991	-4,392	240,159	118,811
118,006	-4,312	239,905	118,741
119,020	-4,247	239,877	118,769
120,035	-4,314	239,597	118,565
121,049	-4,410	239,450	118,403
122,064	-4,114	239,231	118,526
123,079	-4,341	239,135	118,282
124,093	-4,591	238,852	117,928
125,108	-4,736	238,603	117,677
126,122	-4,798	238,422	117,526
127,137	-4,842	238,324	117,431
128,151	-4,918	238,261	117,328
129,166	-4,814	238,113	117,329
130,181	-4,683	237,645	117,194
131,195	-4,833	237,597	117,038
132,210	-4,774	237,516	117,036
133,224	-4,308	237,199	117,247
134,239	-4,200	237,093	117,272
135,254	-4,569	237,006	116,919
136,268	-4,416	236,702	116,883
137,283	-4,695	236,515	116,555
138,297	-4,685	236,201	116,398
139,312	-4,684	235,925	116,252
140,327	-4,533	235,947	116,375
141,341	-4,023	236,053	116,827
142,356	-3,917	235,831	116,791
143,370	-4,059	235,701	116,603
144,385	-3,998	235,549	116,566
145,400	-3,975	235,411	116,506
146,414	-4,099	235,171	116,277
147,429	-4,217	234,926	116,051
148,443	-4,129	234,787	116,043
149,458	-4,056	234,649	116,023
150,473	-4,035	234,423	115,918
151,487	-4,169	234,195	115,687
152,502	-4,123	234,162	115,697
153,516	-4,172	233,962	115,549
154,531	-4,184	233,754	115,427
155,546	-4,129	233,578	115,373
156,560	-4,395	233,528	115,127
157,575	-4,295	233,160	115,014
158,589	-4,055	233,072	115,151
159,604	-3,892	233,032	115,251
160,619	-3,997	232,830	115,057
161,633	-3,956	232,644	114,987
162,648	-3,941	232,624	114,979
163,662	-4,093	232,416	114,746
164,677	-3,999	232,148	114,678
165,692	-4,099	232,138	114,583
166,706	-3,957	232,000	114,617
167,721	-4,172	231,862	114,369
168,735	-3,926	231,665	114,455
169,750	-3,865	231,527	114,425
170,764	-4,219	231,544	114,145
171,779	-3,981	231,094	114,099
172,794	-4,032	231,114	114,060
173,808	-4,237	230,812	113,740
174,823	-4,605	230,435	113,255
175,837	-4,558	230,300	113,216
176,852	-4,295	230,275	113,399
177,867	-4,012	230,220	113,583
178,881	-4,057	230,088	113,473
179,896	-3,887	230,061	113,582
180,910	-3,819	229,848	113,520
181,925	-4,086	229,715	113,236
182,940	-4,018	229,465	113,156
183,954	-3,771	229,248	113,231
184,969	-3,825	229,208	113,159
185,983	-3,999	229,195	113,007
186,998	-3,788	228,825	112,978
188,013	-3,798	228,705	112,902
189,027	-3,883	228,663	112,804
190,042	-3,964	228,476	112,640
191,056	-4,045	228,282	112,471
192,071	-3,743	228,086	112,598
193,086	-3,944	227,972	112,376
194,100	-3,734	227,730	112,409
195,115	-4,214	227,473	111,902
196,129	-4,651	227,333	111,486
197,144	-0,998	228,460	114,859
198,159	2,715	229,559	118,286
199,173	4,035	229,632	119,337
200,188	4,256	229,503	119,430
201,202	4,225	229,365	119,324
202,217	4,433	229,228	119,403
203,232	4,653	229,083	119,487
204,246	4,761	228,999	119,516
205,261	4,861	228,919	119,540
206,275	4,873	228,941	119,550
207,290	4,883	228,767	119,457
208,304	4,914	228,461	119,310
209,319	4,819	228,478	119,235
210,334	4,733	228,236	119,032
211,348	4,592	227,926	118,752
212,363	4,369	227,632	118,417
213,377	4,045	227,439	118,057
214,392	3,875	227,244	117,815
215,407	4,034	227,373	117,994
216,421	4,081	227,068	117,861
217,436	3,911	226,817	117,590
218,450	3,716	226,595	117,315
219,465	3,708	226,418	117,208
220,480	3,928	226,350	117,329
221,494	3,850	226,153	117,157
222,509	3,920	226,241	117,246
223,523	4,070	225,932	117,189
224,538	3,983	225,794	117,042
225,553	4,068	225,664	117,028
226,567	4,187	225,439	116,992
227,582	4,310	225,524	117,118
228,596	4,332	225,436	117,079
229,611	4,098	225,197	116,767
230,626	4,050	224,894	116,563
231,640	3,957	224,762	116,414
232,655	4,260	224,641	116,570
233,669	4,505	224,688	116,769
234,684	4,720	224,642	116,897
235,699	4,305	224,357	116,425
236,713	4,275	224,173	116,297
237,728	4,067	223,948	116,013
238,742	4,081	223,847	115,961
239,757	3,899	223,584	115,677
240,772	3,931	223,529	115,663
241,786	3,992	223,257	115,558
242,801	4,059	223,337	115,639
243,815	4,335	223,226	115,778
244,830	4,409	223,002	115,708
245,844	4,072	222,867	115,374
246,859	4,181	222,719	115,369
247,874	4,291	222,509	115,332
248,888	4,477	222,437	115,423
249,903	3,951	222,324	114,962
250,917	3,813	222,148	114,757
251,932	4,161	221,843	114,850
252,947	3,791	221,799	114,541
253,961	3,812	221,640	114,464
254,976	3,911	221,406	114,406
255,990	4,518	221,353	114,820
257,005	4,040	221,322	114,439
258,020	4,298	221,111	114,511
259,034	4,476	221,112	114,633
260,049	4,270	220,903	114,361
261,063	4,279	220,656	114,231
262,078	4,210	220,639	114,160
263,093	4,469	220,417	114,227
264,107	4,345	220,213	114,019
265,122	4,374	220,099	113,971
266,136	4,566	220,113	114,110
267,151	4,379	220,073	113,942
268,166	4,082	219,675	113,507
269,180	3,804	219,465	113,183
270,195	4,029	219,298	113,252
271,209	3,780	219,179	112,997
272,224	4,050	219,212	113,203
273,239	4,030	219,030	113,084
274,253	4,133	218,714	112,987
275,268	3,707	218,638	112,625
276,282	3,694	218,627	112,599
277,297	3,786	218,292	112,485
278,312	3,836	218,254	112,492
279,326	3,837	218,166	112,436
280,341	3,878	217,884	112,312
281,355	4,177	217,715	112,433
282,370	3,958	217,666	112,237
283,384	4,115	217,456	112,234
284,399	3,746	217,235	111,841
285,414	3,785	217,052	111,765
286,428	4,163	216,928	111,966
287,443	4,190	216,976	112,000
288,457	4,132	216,898	111,908
289,472	4,266	216,497	111,788
290,487	3,824	216,349	111,382
291,501	3,494	216,231	111,072
292,516	3,654	216,149	111,136
293,530	3,723	216,015	111,107
294,545	3,707	215,896	111,024
295,560	3,741	215,918	111,050
296,574	3,978	215,749	111,124
297,589	3,871	215,598	110,959
298,603	4,027	215,473	110,998
299,618	4,029	215,336	110,919
300,633	4,026	215,189	110,831
301,647	4,167	215,239	110,948
302,662	4,108	214,940	110,741
303,676	4,336	214,840	110,844
304,691	4,259	214,653	110,682
305,706	4,268	214,594	110,649
306,720	4,297	214,410	110,565
307,735	4,099	214,153	110,281
308,749	3,863	214,112	110,081
309,764	4,144	214,017	110,224
310,779	4,328	213,882	110,276
311,793	4,222	213,592	110,040
312,808	4,389	213,484	110,094
313,822	4,118	213,539	109,919
314,837	4,106	213,321	109,789
315,852	3,794	213,056	109,420
316,866	4,062	212,975	109,559
317,881	4,191	212,947	109,627
318,895	4,383	212,770	109,663
319,910	3,893	212,591	109,213
320,925	3,812	212,299	108,996
321,939	3,566	212,225	108,774
322,954	3,386	212,135	108,590
323,968	3,984	211,981	108,925
324,983	4,120	211,986	109,015
325,997	4,393	211,875	109,140
327,012	4,366	211,663	109,002
328,027	4,108	211,514	108,734
329,041	4,528	211,494	109,011
330,056	4,528	211,279	108,890
331,070	3,996	211,160	108,444
332,085	3,571	210,880	107,991
333,100	3,854	210,736	108,107
334,114	4,120	210,716	108,274
335,129	3,972	210,515	108,057
336,143	3,968	210,271	107,919
337,158	3,764	210,165	107,713
338,173	3,799	210,185	107,737
339,187	3,667	210,043	107,563
340,202	3,561	209,890	107,401
341,216	3,713	209,710	107,406
342,231	3,660	209,620	107,312
343,246	4,219	209,246	107,502
344,260	4,049	209,121	107,310
345,275	3,755	209,220	107,145
346,289	4,188	209,122	107,388
347,304	4,114	208,965	107,246
348,319	4,108	208,727	107,110
349,333	4,076	208,623	107,025
350,348	4,013	208,659	106,990
351,362	4,019	208,489	106,898
352,377	4,202	208,335	106,936
353,392	3,774	208,300	106,612
354,406	3,818	208,179	106,570
355,421	193,804	1347,359	1435,870
356,435	154,612	1486,260	1435,986
