DTS Sentinel unit serial number:	SN410029Multiplexer serial number:	ORYXHardware model number:	OX2-SRSoftware version number:	ORYX F/W v4,00 Oryx Data Collector v3.7.2.0data status	okinstallation	B6 Nyhavnadifferential loss correction	single-endedforward channel	channel 2reverse channel	N/Adate	2023/12/07time	12:35:08forward acquisition time	300,00reverse acquisition time	0,00gamma	499,1914k internal	0,3203k external	0,3203temperature offset calibration	1,0000default loss term (dB/km)	0,3820temperature slope calibration	1,0000multiplexer offset coefficient	1,0000multiplexer slope coefficient	1,0000fibre end	0,00T internal ref (°C)	10,34T ext. ref 1 (°C)	-3,21T ext. ref 2 (°C)	-3,17length (m)	temperature (°C)	Stokes	anti-Stokes-744,400	191,389	-0,050	0,055
-743,385	-178,665	-0,254	0,004
-742,371	-156,811	0,142	0,006
-741,356	-116,976	-0,304	0,040
-740,342	139,880	0,084	0,081
-739,327	-180,566	-0,320	0,005
-738,312	115,676	0,038	-0,034
-737,298	-76,998	-0,398	-0,100
-736,283	-76,194	0,134	0,034
-735,269	-79,011	-0,355	0,087
-734,254	36,495	0,069	0,044
-733,239	5,112	-0,482	-0,257
-732,225	-18,116	0,193	0,087
-731,210	-43,021	-0,068	-0,025
-730,196	1,166	-0,014	0,007
-729,181	-159,220	-0,080	-0,003
-728,167	-43,392	-0,081	0,030
-727,152	-117,744	-0,044	0,006
-726,137	8,962	0,076	-0,042
-725,123	677,156	0,020	-0,038
-724,108	-200,000	-0,028	-0,090
-723,094	285,016	-0,083	-0,109
-722,079	-200,000	0,020	-0,222
-721,064	-29,480	-0,144	-0,060
-720,050	-28,945	-0,079	-0,033
-719,035	20,666	-0,033	-0,019
-718,021	800,000	0,060	-0,123
-717,006	32,537	0,060	-0,038
-715,991	-88,062	0,152	-0,033
-714,977	5,791	0,063	-0,034
-713,962	561,031	-0,096	-0,169
-712,948	161,761	0,059	0,060
-711,933	800,000	-0,034	-0,080
-710,918	-6,474	0,088	0,044
-709,904	-200,000	-0,058	-0,236
-708,889	800,000	-0,043	-0,090
-707,875	138,532	-0,033	-0,032
-706,860	-200,000	0,000	0,031
-705,845	800,000	-0,022	-0,046
-704,831	800,000	-0,022	0,052
-703,816	169,860	-0,050	-0,051
-702,802	-19,615	0,033	0,015
-701,787	420,708	-0,025	0,039
-700,772	-47,663	-0,131	-0,046
-699,758	393,815	-0,011	0,016
-698,743	-153,119	0,119	0,006
-697,729	742,303	0,091	0,178
-696,714	-200,000	0,023	-0,139
-695,699	-103,889	0,122	0,021
-694,685	-200,000	0,001	-0,013
-693,670	415,727	0,034	-0,053
-692,656	97,537	-0,097	-0,081
-691,641	800,000	0,044	-0,116
-690,627	254,525	0,032	0,039
-689,612	220,446	-0,131	-0,152
-688,597	800,000	0,030	0,097
-687,583	-143,707	0,026	-0,002
-686,568	-137,183	-0,117	0,010
-685,554	539,162	0,085	0,148
-684,539	72,067	0,148	0,111
-683,524	697,969	0,028	-0,053
-682,510	361,703	-0,064	0,094
-681,495	-156,966	0,089	0,004
-680,481	207,979	0,091	-0,103
-679,466	-34,563	-0,041	-0,016
-678,451	-160,603	0,025	-0,001
-677,437	55,815	-0,124	0,087
-676,422	-14,337	0,014	0,007
-675,408	39,762	-0,036	-0,024
-674,393	800,000	-0,015	-0,035
-673,378	-67,421	-0,100	-0,028
-672,364	-200,000	-0,004	-0,125
-671,349	-108,778	0,058	-0,009
-670,335	-135,136	-0,118	0,010
-669,320	800,000	-0,027	0,084
-668,305	252,728	-0,029	-0,036
-667,291	-164,795	0,065	-0,002
-666,276	-200,000	-0,009	-0,040
-665,262	-200,000	-0,041	-0,291
-664,247	-200,000	0,040	-0,141
-663,232	4,138	0,034	0,018
-662,218	-70,238	-0,041	0,011
-661,203	800,000	-0,026	0,056
-660,189	-3,964	0,100	-0,050
-659,174	226,407	-0,130	-0,153
-658,159	-200,000	-0,007	-0,074
-657,145	-200,000	-0,018	-0,066
-656,130	-81,072	-0,068	0,016
-655,116	-67,226	-0,050	-0,014
-654,101	800,000	0,028	0,069
-653,086	-145,547	-0,059	-0,004
-652,072	118,430	-0,058	0,052
-651,057	461,417	-0,037	-0,060
-650,043	97,766	-0,042	-0,035
-649,028	102,649	0,060	-0,050
-648,014	120,588	-0,027	0,024
-646,999	250,952	0,047	0,058
-645,984	-76,785	-0,045	-0,011
-644,970	156,497	-0,097	0,097
-643,955	800,000	-0,058	0,154
-642,941	-99,974	-0,133	-0,024
-641,926	800,000	0,045	-0,102
-640,911	86,433	-0,048	-0,038
-639,897	-45,899	0,105	-0,037
-638,882	-110,281	-0,053	-0,008
-637,868	800,000	-0,029	0,072
-636,853	-35,035	-0,041	0,016
-635,838	-2,690	0,019	0,010
-634,824	10,886	-0,163	-0,090
-633,809	-112,379	0,089	0,013
-632,795	-103,240	-0,099	-0,017
-631,780	-92,325	-0,026	0,005
-630,765	487,416	-0,051	0,085
-629,751	-74,925	-0,055	0,014
-628,736	-200,000	0,012	-0,171
-627,722	-76,680	-0,049	0,012
-626,707	303,652	0,041	0,055
-625,692	-62,199	0,105	0,031
-624,678	-200,000	0,019	-0,110
-623,663	-176,963	-0,059	-0,001
-622,649	742,529	-0,085	0,166
-621,634	135,408	-0,128	-0,120
-620,619	-31,670	-0,120	0,049
-619,605	800,000	0,064	0,140
-618,590	144,774	0,091	0,088
-617,576	800,000	-0,049	0,113
-616,561	800,000	0,020	-0,046
-615,546	217,410	0,014	0,016
-614,532	-103,248	-0,119	-0,020
-613,517	-50,667	-0,020	0,007
-612,503	114,907	-0,036	0,032
-611,488	122,843	0,050	0,045
-610,474	-166,961	0,012	-0,000
-609,459	-121,206	0,099	-0,012
-608,444	12,325	-0,140	-0,078
-607,430	-200,000	-0,001	-0,042
-606,415	30,354	0,038	-0,023
-605,401	620,430	0,044	-0,081
-604,386	800,000	-0,044	0,101
-603,371	-200,000	0,021	0,168
-602,357	-10,527	0,115	-0,055
-601,342	-200,000	-0,020	0,084
-600,328	-104,559	-0,104	0,017
-599,313	800,000	-0,062	-0,174
-598,298	-32,919	0,029	0,012
-597,284	40,671	0,041	-0,027
-596,269	460,424	0,021	0,034
-595,255	47,792	-0,098	-0,066
-594,240	421,741	-0,002	-0,003
-593,225	-200,000	0,008	-0,053
-592,211	474,332	-0,033	-0,054
-591,196	800,000	-0,074	-0,154
-590,182	408,764	0,127	-0,196
-589,167	167,642	-0,165	-0,169
-588,152	102,420	0,029	0,024
-587,138	-200,000	-0,012	0,087
-586,123	153,616	-0,063	0,062
-585,109	-37,368	-0,087	0,033
-584,094	800,000	-0,034	-0,085
-583,079	-99,013	0,112	-0,020
-582,065	399,555	-0,116	-0,176
-581,050	-200,000	-0,003	0,047
-580,036	145,629	-0,084	0,081
-579,021	58,610	-0,076	0,054
-578,006	436,689	-0,050	0,078
-576,992	-200,000	-0,003	0,035
-575,977	-11,114	-0,067	0,032
-574,963	-200,000	0,023	-0,151
-573,948	800,000	0,037	-0,079
-572,934	800,000	-0,027	0,083
-571,919	252,344	-0,078	-0,096
-570,904	-200,000	0,017	0,069
-569,890	45,066	0,075	-0,050
-568,875	-27,352	0,056	0,024
-567,861	-200,000	0,001	-0,024
-566,846	-66,777	0,123	0,035
-565,831	-102,211	-0,074	-0,013
-564,817	22,234	0,095	0,056
-563,802	-200,000	-0,006	0,072
-562,788	-43,221	0,081	0,030
-561,773	800,000	0,040	-0,087
-560,758	800,000	-0,029	0,065
-559,744	-39,559	0,085	0,032
-558,729	-90,303	-0,112	0,023
-557,715	177,882	0,092	0,097
-556,700	-60,469	-0,062	0,019
-555,685	33,683	0,163	-0,102
-554,671	-101,019	-0,090	0,016
-553,656	-200,000	0,113	0,000
-552,642	-82,204	-0,188	0,044
-551,627	-200,000	0,007	0,034
-550,612	-6,678	-0,059	-0,029
-549,598	-29,146	-0,081	0,033
-548,583	-200,000	0,001	-0,057
-547,569	6,443	-0,151	-0,081
-546,554	800,000	-0,026	-0,068
-545,539	-200,000	0,001	0,004
-544,525	153,841	-0,044	-0,043
-543,510	-200,000	-0,010	-0,045
-542,496	-19,873	-0,152	-0,067
-541,481	261,709	-0,062	-0,078
-540,466	800,000	-0,018	-0,053
-539,452	111,971	0,039	0,034
-538,437	255,077	0,123	0,153
-537,423	-141,249	-0,133	0,010
-536,408	800,000	-0,078	-0,178
-535,393	-82,499	-0,027	0,006
-534,379	-94,507	0,067	-0,013
-533,364	244,062	-0,035	0,042
-532,350	-200,000	-0,001	-0,026
-531,335	-1,396	0,045	-0,023
-530,321	-74,127	-0,023	-0,006
-529,306	-134,551	0,019	-0,002
-528,291	-92,915	-0,146	0,029
-527,277	-200,000	-0,020	-0,101
-526,262	-66,053	0,074	-0,021
-525,248	94,042	0,092	-0,075
-524,233	-103,216	0,091	0,015
-523,218	3,791	0,068	-0,035
-522,204	-0,571	0,154	0,079
-521,189	26,189	0,053	0,032
-520,175	38,316	0,092	0,059
-519,160	-30,594	0,096	-0,039
-518,145	69,070	-0,018	0,013
-517,131	150,831	0,115	-0,113
-516,116	561,268	0,010	0,017
-515,102	30,340	-0,093	0,057
-514,087	615,923	0,033	-0,060
-513,072	-200,000	-0,001	0,017
-512,058	419,911	-0,012	0,018
-511,043	800,000	0,018	0,038
-510,029	-74,850	0,061	-0,016
-509,014	-200,000	0,007	0,064
-507,999	-164,155	0,092	-0,003
-506,985	257,559	-0,029	0,036
-505,970	-200,000	0,020	-0,160
-504,956	254,586	0,038	-0,048
-503,941	800,000	-0,045	-0,120
-502,926	-93,042	-0,074	-0,015
-501,912	-200,000	-0,016	0,086
-500,897	-103,622	0,098	-0,016
-499,883	800,000	-0,058	0,152
-498,868	-21,794	-0,167	-0,073
-497,853	-107,497	-0,039	-0,006
-496,839	-89,612	0,083	-0,017
-495,824	87,428	0,052	-0,041
-494,810	-183,619	-0,169	0,002
-493,795	-35,592	0,090	-0,035
-492,781	-113,068	-0,091	0,013
-491,766	325,742	-0,108	-0,149
-490,751	-128,724	0,047	0,005
-489,737	86,743	-0,020	-0,016
-488,722	-21,001	0,132	-0,058
-487,708	-93,138	-0,037	-0,007
-486,693	800,000	-0,036	0,074
-485,678	-200,000	-0,000	0,104
-484,664	58,508	0,064	0,045
-483,649	18,255	-0,152	0,087
-482,635	800,000	0,021	-0,041
-481,620	-142,813	0,057	-0,004
-480,605	11,127	0,104	0,057
-479,591	-128,920	0,111	0,011
-478,576	-200,000	-0,002	-0,027
-477,562	254,769	0,024	0,030
-476,547	-127,375	0,085	-0,009
-475,532	48,514	-0,152	0,102
-474,518	514,743	-0,017	0,029
-473,503	-200,000	0,009	0,053
-472,489	462,987	0,033	-0,053
-471,474	-200,000	0,022	0,094
-470,459	-200,000	-0,005	-0,101
-469,445	-23,702	-0,075	0,032
-468,430	800,000	0,063	0,129
-467,416	262,774	0,031	-0,039
-466,401	-34,431	0,102	0,040
-465,386	800,000	-0,019	0,046
-464,372	-39,300	0,102	-0,038
-463,357	48,638	0,030	-0,020
-462,343	22,035	0,031	0,018
-461,328	211,762	-0,081	-0,092
-460,313	522,128	-0,022	-0,037
-459,299	-129,386	0,082	-0,008
-458,284	800,000	-0,024	-0,072
-457,270	208,243	-0,102	-0,114
-456,255	800,000	0,017	0,039
-455,241	10,367	-0,022	-0,012
-454,226	-200,000	0,019	0,162
-453,211	800,000	-0,066	0,184
-452,197	500,835	-0,079	0,132
-451,182	139,256	0,056	-0,053
-450,168	176,128	0,100	0,105
-449,153	140,161	0,048	-0,046
-448,138	800,000	-0,067	-0,168
-447,124	-200,000	-0,020	-0,171
-446,109	352,522	0,104	-0,148
-445,095	-26,419	0,123	0,052
-444,080	-98,622	0,124	0,022
-443,065	-200,000	0,011	-0,057
-442,051	-37,382	-0,097	-0,037
-441,036	-200,000	0,020	-0,193
-440,022	-200,000	0,003	-0,084
-439,007	-28,338	0,045	-0,019
-437,992	800,000	-0,021	0,054
-436,978	-200,000	0,001	-0,081
-435,963	-200,000	0,035	0,171
-434,949	-154,655	-0,095	0,004
-433,934	58,391	0,096	-0,068
-432,919	-200,000	-0,026	-0,126
-431,905	-30,227	-0,066	-0,027
-430,890	-37,384	-0,060	0,023
-429,876	636,187	0,070	0,128
-428,861	-16,457	0,116	0,053
-427,846	-200,000	-0,027	0,127
-426,832	82,086	0,034	-0,027
-425,817	-62,293	-0,221	-0,066
-424,803	162,100	0,044	-0,044
-423,788	800,000	-0,049	0,103
-422,773	106,266	-0,095	0,081
-421,759	116,021	-0,050	0,044
-420,744	-200,000	0,000	0,150
-419,730	800,000	0,004	-0,011
-418,715	-45,123	-0,076	0,027
-417,701	-168,344	-0,164	-0,004
-416,686	-200,000	0,007	0,056
-415,671	-200,000	0,007	-0,096
-414,657	458,635	0,063	0,101
-413,642	-110,621	-0,060	-0,009
-412,628	800,000	-0,027	-0,059
-411,613	429,287	-0,017	0,027
-410,598	800,000	-0,047	-0,140
-409,584	599,459	-0,038	0,067
-408,569	30,694	0,143	-0,087
-407,555	-154,239	0,075	-0,004
-406,540	63,881	0,115	-0,083
-405,525	534,316	-0,063	0,107
-404,511	-123,919	-0,083	0,009
-403,496	-66,618	-0,123	-0,035
-402,482	141,166	-0,056	-0,053
-401,467	-200,000	0,023	-0,076
-400,452	-37,380	0,052	-0,020
-399,438	-110,141	0,131	-0,019
-398,423	42,894	-0,145	0,095
-397,409	35,090	0,109	0,068
-396,394	800,000	-0,032	-0,086
-395,379	-200,000	-0,000	0,102
-394,365	612,226	0,088	0,158
-393,350	-200,000	0,006	0,024
-392,336	-56,537	-0,064	-0,020
-391,321	-200,000	-0,016	-0,147
-390,306	-200,000	-0,022	-0,096
-389,292	44,631	0,031	0,020
-388,277	-43,262	0,068	-0,025
-387,263	-200,000	-0,029	-0,224
-386,248	800,000	-0,014	-0,029
-385,233	-199,256	0,025	0,000
-384,219	800,000	-0,031	-0,080
-383,204	-68,800	-0,009	-0,002
-382,190	800,000	0,011	0,033
-381,175	-200,000	0,011	0,097
-380,160	-16,238	0,114	0,052
-379,146	672,243	-0,053	0,098
-378,131	-195,996	0,059	-0,000
-377,117	-200,000	-0,009	-0,041
-376,102	471,256	0,043	0,070
-375,088	46,698	-0,038	0,025
-374,073	-200,000	-0,008	0,029
-373,058	68,380	0,086	-0,063
-372,044	26,318	0,067	-0,040
-371,029	-200,000	0,037	0,151
-370,015	-123,917	-0,053	0,006
-369,000	50,161	0,110	-0,074
-367,985	800,000	-0,029	-0,088
-366,971	9,704	-0,114	-0,062
-365,956	-175,343	0,215	0,004
-364,942	-200,000	0,028	0,145
-363,927	800,000	0,041	0,120
-362,912	174,599	0,022	-0,023
-361,898	590,701	0,039	-0,070
-360,883	-25,662	-0,058	0,024
-359,869	800,000	0,051	0,103
-358,854	-59,429	0,130	0,040
-357,839	192,600	-0,125	0,135
-356,825	-200,000	-0,010	0,113
-355,810	-21,987	-0,140	-0,060
-354,796	377,313	0,014	0,021
-353,781	-200,000	-0,015	0,090
-352,766	498,906	-0,030	-0,050
-351,752	326,311	0,023	-0,032
-350,737	-200,000	0,024	0,195
-349,723	800,000	0,022	-0,047
-348,708	316,021	0,028	0,039
-347,693	800,000	-0,021	0,045
-346,679	-72,913	-0,031	-0,008
-345,664	29,116	-0,136	-0,082
-344,650	104,604	0,041	-0,034
-343,635	-160,778	0,124	-0,005
-342,620	-200,000	-0,012	0,085
-341,606	-100,497	0,014	0,003
-340,591	175,814	-0,015	-0,016
-339,577	-200,000	0,034	-0,199
-338,562	347,372	-0,068	-0,096
-337,548	-91,305	0,078	-0,016
-336,533	-138,328	-0,159	0,012
-335,518	382,335	0,050	0,074
-334,504	194,764	-0,071	0,078
-333,489	-163,479	-0,106	-0,004
-332,475	-200,000	-0,004	0,032
-331,460	-26,732	0,032	-0,013
-330,445	327,090	-0,048	0,066
-329,431	-170,475	0,078	-0,002
-328,416	-89,166	-0,020	0,004
-327,402	-63,309	-0,117	0,034
-326,387	800,000	0,060	-0,149
-325,372	-115,313	-0,062	-0,008
-324,358	16,477	0,082	-0,046
-323,343	-200,000	0,018	-0,131
-322,329	-200,000	0,043	0,146
-321,314	-70,858	-0,038	-0,010
-320,299	800,000	-0,007	0,018
-319,285	-44,725	0,057	0,020
-318,270	-200,000	0,033	0,125
-317,256	800,000	0,049	-0,112
-316,241	-200,000	0,000	-0,072
-315,226	-200,000	-0,014	0,161
-314,212	-103,816	0,056	-0,009
-313,197	-200,000	-0,024	0,078
-312,183	-200,000	-0,008	-0,035
-311,168	-200,000	0,011	-0,083
-310,153	-72,288	-0,105	0,028
-309,139	-107,245	-0,063	0,010
-308,124	23,384	0,171	-0,100
-307,110	580,003	0,033	-0,057
-306,095	800,000	-0,041	0,108
-305,080	696,160	0,022	-0,041
-304,066	-200,000	0,021	-0,132
-303,051	-170,848	-0,120	-0,003
-302,037	-144,187	-0,104	-0,007
-301,022	-200,000	0,008	0,063
-300,008	402,075	0,120	0,181
-298,993	-70,379	0,056	0,015
-297,978	382,504	0,081	0,120
-296,964	-25,082	-0,079	0,034
-295,949	800,000	-0,051	-0,120
-294,935	-41,879	-0,038	-0,014
-293,920	630,673	0,052	-0,094
-292,905	543,432	-0,035	0,061
-291,891	800,000	0,037	0,105
-290,876	-117,917	0,129	-0,016
-289,862	-200,000	0,003	0,106
-288,847	-24,948	-0,063	-0,027
-287,832	-111,608	-0,066	0,009
-286,818	18,576	-0,084	-0,048
-285,803	-44,560	-0,035	0,012
-284,789	-200,000	-0,012	0,120
-283,774	542,749	-0,054	-0,091
-282,759	-38,173	-0,067	-0,025
-281,745	44,443	-0,029	-0,019
-280,730	-96,775	0,051	0,010
-279,716	-200,000	-0,020	-0,093
-278,701	-131,381	0,175	0,016
-277,686	-200,000	0,031	0,119
-276,672	800,000	0,045	0,123
-275,657	-200,000	0,016	-0,098
-274,643	308,763	-0,046	0,061
-273,628	-200,000	-0,014	-0,133
-272,613	800,000	0,026	0,072
-271,599	-200,000	-0,043	0,149
-270,584	800,000	0,005	-0,015
-269,570	-85,363	0,151	-0,033
-268,555	535,711	0,024	0,041
-267,540	699,537	-0,009	-0,018
-266,526	233,686	-0,066	-0,077
-265,511	-30,630	0,034	0,013
-264,497	187,335	-0,072	-0,077
-263,482	-16,019	-0,058	-0,026
-262,467	-200,000	-0,003	0,106
-261,453	452,785	-0,054	0,086
-260,438	-73,372	0,106	-0,028
-259,424	-200,000	-0,023	0,087
-258,409	20,549	-0,107	0,062
-257,395	-55,254	0,068	0,022
-256,380	800,000	0,042	-0,108
-255,365	488,350	-0,035	0,057
-254,351	127,796	0,035	-0,032
-253,336	-96,312	-0,131	-0,024
-252,322	-200,000	-0,001	0,048
-251,307	-91,303	0,089	-0,018
-250,292	-200,000	-0,045	0,167
-249,278	324,137	-0,022	0,030
-248,263	-64,677	-0,110	0,032
-247,249	800,000	0,015	-0,045
-246,234	277,174	0,028	0,036
-245,219	-89,824	0,055	-0,011
-244,205	-132,929	0,059	-0,005
-243,190	-136,958	-0,028	-0,002
-242,176	-200,000	0,012	0,050
-241,161	33,950	0,065	-0,040
-240,146	54,657	0,042	-0,029
-239,132	79,785	-0,069	0,053
-238,117	66,857	0,016	-0,012
-237,103	58,014	0,079	0,055
-236,088	2,804	-0,068	-0,035
-235,073	-136,186	-0,054	-0,004
-234,059	187,378	-0,106	0,113
-233,044	95,964	-0,073	0,060
-232,030	-200,000	0,003	0,027
-231,015	-133,664	-0,097	-0,009
-230,000	525,429	-0,044	-0,075
-228,986	28,010	0,032	-0,019
-227,971	-65,610	0,129	0,037
-226,957	-30,278	0,042	0,017
-225,942	-158,724	0,146	0,006
-224,927	-200,000	-0,021	-0,081
-223,913	493,275	-0,045	-0,074
-222,898	800,000	-0,089	-0,192
-221,884	195,671	0,072	0,078
-220,869	383,872	-0,033	0,049
-219,855	-200,000	0,002	-0,064
-218,840	131,124	-0,040	-0,036
-217,825	42,634	0,057	-0,037
-216,811	-200,000	0,001	-0,271
-215,796	72,491	-0,040	-0,030
-214,782	84,352	0,138	0,107
-213,767	-200,000	-0,000	0,025
-212,752	-200,000	-0,010	0,149
-211,738	-130,101	0,127	-0,012
-210,723	-200,000	0,022	0,118
-209,709	16,845	-0,050	-0,028
-208,694	372,370	-0,066	-0,095
-207,679	-195,604	0,157	0,001
-206,665	177,524	-0,016	-0,017
-205,650	800,000	0,005	-0,012
-204,636	-200,000	-0,037	-0,118
-203,621	100,843	0,078	0,064
-202,606	-42,924	0,061	-0,022
-201,592	53,143	-0,021	0,014
-200,577	297,379	0,071	0,093
-199,563	276,966	0,065	-0,082
-198,548	-41,837	0,149	0,054
-197,533	-35,890	0,090	0,035
-196,519	-44,100	0,146	-0,052
-195,504	-200,000	-0,014	0,148
-194,490	-65,201	-0,034	-0,010
-193,475	-29,190	-0,016	-0,006
-192,460	76,438	0,069	-0,052
-191,446	600,658	0,081	-0,144
-190,431	167,132	0,188	-0,191
-189,417	800,000	-0,014	0,034
-188,402	-157,531	-0,155	-0,006
-187,387	-109,048	0,040	0,006
-186,373	800,000	-0,062	-0,180
-185,358	-19,368	-0,073	-0,032
-184,344	103,359	0,055	0,046
-183,329	-7,388	-0,114	0,055
-182,315	191,503	0,134	0,143
-181,300	-200,000	-0,025	0,115
-180,285	112,836	-0,080	0,069
-179,271	38,271	-0,084	-0,053
-178,256	67,976	-0,026	0,019
-177,242	40,178	-0,006	0,004
-176,227	748,254	0,096	0,184
-175,212	295,054	-0,032	-0,042
-174,198	800,000	0,022	-0,053
-173,183	-145,683	0,080	0,005
-172,169	-200,000	0,014	-0,099
-171,154	-46,995	-0,112	-0,039
-170,139	-200,000	0,004	-0,036
-169,125	-102,760	0,117	-0,020
-168,110	-170,425	0,112	-0,003
-167,096	-39,404	0,046	-0,017
-166,081	-68,072	-0,067	-0,018
-165,066	212,832	-0,102	-0,115
-164,052	-71,169	0,076	-0,020
-163,037	-76,489	-0,097	0,024
-162,023	-104,276	-0,018	0,003
-161,008	800,000	0,045	0,090
-159,993	-150,682	0,031	-0,002
-158,979	392,699	0,037	0,055
-157,964	-200,000	0,006	0,053
-156,950	-200,000	-0,017	-0,121
-155,935	-200,000	0,026	0,084
-154,920	-100,065	0,031	0,005
-153,906	440,905	-0,081	-0,127
-152,891	-56,760	-0,033	0,010
-151,877	368,459	-0,034	-0,049
-150,862	-160,843	-0,063	0,002
-149,847	48,345	-0,020	-0,013
-148,833	800,000	0,044	0,112
-147,818	-14,055	-0,019	-0,009
-146,804	800,000	0,038	0,088
-145,789	-112,960	0,097	0,013
-144,775	-200,000	-0,029	0,109
-143,760	-41,783	-0,078	0,028
-142,745	-114,751	0,030	-0,004
-141,731	47,106	0,089	-0,058
-140,716	24,141	-0,049	0,029
-139,702	3,561	-0,159	0,082
-138,687	254,005	0,055	-0,067
-137,672	-200,000	-0,004	0,025
-136,658	36,850	0,134	-0,084
-135,643	0,827	0,031	-0,015
-134,629	-200,000	-0,006	0,069
-133,614	558,703	0,047	-0,081
-132,599	237,303	0,082	0,097
-131,585	-200,000	-0,006	-0,168
-130,570	800,000	0,035	-0,073
-129,556	242,527	0,011	-0,013
-128,541	-200,000	0,018	-0,082
-127,526	-200,000	0,004	-0,123
-126,512	6,957	-0,122	-0,064
-125,497	340,894	0,057	-0,079
-124,483	-104,175	0,089	-0,015
-123,468	-200,000	-0,006	0,067
-122,453	223,092	0,030	-0,035
-121,439	-10,546	0,093	-0,044
-120,424	305,129	-0,033	0,044
-119,410	-200,000	0,016	0,076
-118,395	491,015	0,079	0,128
-117,380	200,492	0,096	0,105
-116,366	-161,075	-0,205	0,007
-115,351	100,011	-0,118	0,097
-114,337	800,000	-0,018	0,053
-113,322	800,000	0,009	0,021
-112,307	293,874	-0,078	-0,101
-111,293	800,000	-0,036	0,079
-110,278	13,989	-0,105	0,058
-109,264	-14,378	-0,060	0,027
-108,249	800,000	-0,039	0,078
-107,234	-93,007	0,166	0,033
-106,220	245,123	-0,016	-0,019
-105,205	458,992	-0,038	0,060
-104,191	-49,422	0,154	-0,052
-103,176	446,137	-0,039	0,061
-102,162	800,000	0,039	-0,086
-101,147	-91,833	-0,088	0,018
-100,132	800,000	0,036	0,075
-99,118	-200,000	-0,010	0,053
-98,103	-152,119	0,033	-0,002
-97,089	-200,000	0,019	0,078
-96,074	800,000	-0,006	-0,015
-95,059	-69,042	0,139	0,038
-94,045	0,805	-0,061	0,031
-93,030	-105,826	-0,073	-0,012
-92,016	137,106	-0,104	-0,096
-91,001	204,301	-0,108	-0,119
-89,986	-200,000	-0,015	-0,046
-88,972	68,425	-0,079	0,058
-87,957	135,361	-0,069	-0,064
-86,943	-200,000	-0,003	-0,026
-85,928	29,330	-0,146	0,088
-84,913	800,000	-0,015	-0,032
-83,899	-200,000	-0,028	0,099
-82,884	614,972	-0,034	-0,060
-81,870	-190,085	0,061	0,000
-80,855	81,105	0,135	0,103
-79,840	-200,000	-0,011	0,035
-78,826	-1,355	0,132	-0,066
-77,811	-200,000	-0,009	0,061
-76,797	800,000	-0,023	-0,054
-75,782	147,222	-0,055	0,053
-74,767	-200,000	-0,030	0,095
-73,753	-132,729	0,123	-0,011
-72,738	73,426	-0,096	0,071
-71,724	137,943	-0,103	-0,095
-70,709	416,369	-0,030	-0,046
-69,694	2,661	-0,068	0,035
-68,680	33,244	0,109	-0,067
-67,665	-200,000	-0,043	-0,167
-66,651	-51,034	0,034	0,011
-65,636	-45,606	-0,162	-0,056
-64,622	-200,000	-0,002	0,055
-63,607	-200,000	-0,008	-0,108
-62,592	37,219	0,036	-0,023
-61,578	311,169	0,029	-0,038
-60,563	83,198	0,141	0,109
-59,549	541,104	-0,066	0,112
-58,534	73,442	-2,430	-1,798
-57,519	276,014	0,349	-0,439
-56,505	-200,000	-1,572	-5,406
-55,490	231,193	1,070	1,242
-54,476	800,000	5,356	11,812
-53,461	-200,000	20,835	334,220
-52,446	800,000	758,584	2316,209
-51,432	532,667	1663,773	2797,146
-50,417	71,106	1678,313	1229,596
-49,403	17,233	1598,794	895,017
-48,388	11,913	1553,220	842,020
-47,373	18,793	1546,219	873,504
-46,359	15,281	1535,629	849,614
-45,344	10,523	1531,381	822,986
-44,330	10,482	1529,346	821,653
-43,315	10,369	1527,724	820,172
-42,300	10,338	1526,323	819,231
-41,286	10,324	1524,921	818,375
-40,271	10,329	1523,061	817,368
-39,257	10,361	1521,676	816,755
-38,242	10,383	1520,289	816,090
-37,227	10,354	1518,813	815,119
-36,213	10,352	1517,659	814,455
-35,198	10,329	1516,283	813,570
-34,184	10,372	1515,024	813,080
-33,169	10,404	1513,595	812,443
-32,154	10,424	1512,064	811,689
-31,140	10,386	1510,684	810,725
-30,125	10,405	1509,258	810,024
-29,111	10,428	1508,286	809,585
-28,096	10,415	1507,107	808,854
-27,082	10,408	1506,183	808,288
-26,067	10,422	1504,690	807,529
-25,052	10,364	1503,938	806,800
-24,038	10,342	1502,351	805,808
-23,023	10,353	1501,487	805,368
-22,009	10,373	1500,389	804,849
-20,994	10,378	1499,665	804,451
-19,979	10,356	1498,406	803,633
-18,965	10,347	1497,631	803,143
-17,950	10,358	1496,528	802,574
-16,936	10,341	1495,606	801,960
-15,921	10,265	1494,350	800,878
-14,906	10,287	1492,979	800,223
-13,892	10,224	1492,301	799,513
-12,877	10,250	1491,052	798,941
-11,863	10,209	1490,117	798,205
-10,848	10,227	1489,456	797,910
-9,833	10,357	1488,315	797,910
-8,819	10,308	1487,500	797,200
-7,804	10,284	1486,284	796,397
-6,790	10,219	1485,864	795,817
-5,775	10,330	1484,488	795,599
-4,760	10,305	1483,697	795,020
-3,746	10,269	1482,449	794,141
-2,731	10,144	1481,458	792,964
-1,717	10,022	1480,606	791,874
-0,702	10,098	1479,232	791,481
0,313	9,890	1478,494	791,255
1,327	13,670	1475,503	808,154
2,342	23,153	1235,711	715,522
3,356	19,590	693,160	393,183
4,371	-8,872	466,320	220,114
5,386	-12,324	438,370	201,794
6,400	-13,378	429,074	195,970
7,415	-13,179	425,517	194,614
8,429	-14,482	422,734	191,463
9,444	-14,637	421,209	190,534
10,459	-14,864	419,948	189,626
11,473	-14,787	419,004	189,291
12,488	-15,150	418,151	188,376
13,502	-15,321	417,114	187,651
14,517	-15,561	416,312	186,936
15,531	-15,884	415,508	186,106
16,546	-15,894	414,845	185,778
17,561	-15,741	414,245	185,706
18,575	-15,837	413,537	185,239
19,590	-15,984	413,060	184,804
20,604	-15,837	412,399	184,696
21,619	-16,014	411,957	184,236
22,634	-15,931	411,364	184,069
23,648	-16,092	410,997	183,666
24,663	-16,032	410,568	183,541
25,677	-16,001	409,904	183,270
26,692	-16,088	409,602	182,999
27,707	-15,923	408,984	182,933
28,721	-16,048	408,721	182,628
29,736	-16,049	408,314	182,428
30,750	-16,009	407,821	182,247
31,765	-16,123	407,382	181,878
32,780	-16,089	407,091	181,778
33,794	-16,168	406,591	181,430
34,809	-16,057	406,180	181,383
35,823	-16,180	405,882	181,065
36,838	-16,252	405,262	180,673
37,853	-16,292	405,067	180,516
38,867	-16,201	404,622	180,426
39,882	-16,159	404,372	180,355
40,896	-16,181	403,881	180,091
41,911	-16,327	403,571	179,738
42,926	-16,218	403,197	179,703
43,940	-16,221	402,711	179,467
44,955	-16,258	402,376	179,251
45,969	-16,215	401,861	179,063
46,984	-16,284	401,458	178,775
47,999	-16,663	401,263	178,159
49,013	-16,636	400,766	177,960
50,028	-16,621	400,193	177,709
51,042	-16,701	400,006	177,503
52,057	-16,714	399,583	177,281
53,071	-16,621	399,302	177,266
54,086	-16,499	398,861	177,219
55,101	-16,489	398,673	177,133
56,115	-16,250	398,433	177,331
57,130	-15,862	398,272	177,764
58,144	-15,639	398,046	177,946
59,159	-15,671	397,692	177,729
60,174	-15,576	397,276	177,654
61,188	-15,745	397,000	177,289
62,203	-15,819	396,515	176,957
63,217	-15,905	396,078	176,632
64,232	-15,867	395,827	176,555
65,247	-15,673	395,531	176,666
66,261	-15,765	395,130	176,349
67,276	-16,195	394,760	175,597
68,290	-16,253	394,191	175,251
69,305	-16,268	393,991	175,127
70,320	-16,391	393,666	174,804
71,334	-16,022	393,375	175,147
72,349	-15,742	393,222	175,434
73,363	-15,698	392,927	175,344
74,378	-15,756	392,569	175,092
75,393	-15,775	392,173	174,875
76,407	-16,055	391,918	174,377
77,422	-15,874	391,427	174,380
78,436	-15,849	391,038	174,225
79,451	-15,784	390,780	174,180
80,466	-16,131	390,377	173,530
81,480	-16,078	389,885	173,365
82,495	-16,389	389,633	172,830
83,509	-16,073	389,364	173,109
84,524	-16,270	388,945	172,651
85,539	-16,345	388,757	172,453
86,553	-16,340	388,353	172,265
87,568	-16,207	388,067	172,297
88,582	-16,189	387,770	172,172
89,597	-16,145	387,377	172,039
90,611	-16,070	387,285	172,082
91,626	-15,928	386,978	172,113
92,641	-16,044	386,752	171,847
93,655	-16,007	386,261	171,662
94,670	-16,053	385,963	171,455
95,684	-16,004	385,604	171,343
96,699	-15,789	385,286	171,464
97,714	-15,874	384,890	171,163
98,728	-16,352	384,853	170,515
99,743	-16,235	384,279	170,396
100,757	-16,324	383,998	170,141
101,772	-16,252	383,823	170,141
102,787	-16,112	383,528	170,175
103,801	-15,945	383,293	170,271
104,816	-15,910	383,025	170,181
105,830	-15,655	382,684	170,342
106,845	-15,756	382,565	170,144
107,860	-15,672	382,144	170,050
108,874	-15,919	381,822	169,574
109,889	-15,892	381,526	169,463
110,903	-15,767	381,074	169,406
111,918	-15,863	380,858	169,172
112,933	-15,794	380,713	169,181
113,947	-15,831	380,409	168,984
114,962	-15,774	380,026	168,871
115,976	-15,939	379,821	168,555
116,991	-15,799	379,425	168,542
118,006	-15,923	379,399	168,358
119,020	-15,871	378,937	168,204
120,035	-15,728	378,846	168,330
121,049	-15,735	378,541	168,171
122,064	-15,654	378,152	168,085
123,079	-15,853	377,867	167,692
124,093	-15,889	377,440	167,442
125,108	-16,083	377,015	166,994
126,122	-16,187	376,629	166,676
127,137	-16,353	376,407	166,354
128,151	-16,190	376,005	166,368
129,166	-16,163	375,914	166,346
130,181	-16,073	375,531	166,275
131,195	-16,284	375,353	165,916
132,210	-15,940	375,201	166,266
133,224	-15,747	374,891	166,356
134,239	-15,693	374,533	166,250
135,254	-15,718	374,323	166,111
136,268	-15,787	373,904	165,824
137,283	-16,188	373,544	165,148
138,297	-16,278	373,203	164,870
139,312	-16,175	372,890	164,846
140,327	-15,864	372,863	165,207
141,341	-15,619	372,717	165,433
142,356	-15,450	372,511	165,536
143,370	-15,566	372,222	165,249
144,385	-15,473	371,827	165,174
145,400	-15,522	371,548	164,974
146,414	-15,538	371,352	164,854
147,429	-15,467	370,785	164,675
148,443	-15,527	370,582	164,495
149,458	-15,508	370,358	164,406
150,473	-15,473	370,170	164,351
151,487	-15,501	369,792	164,133
152,502	-15,512	369,603	164,021
153,516	-15,605	369,254	163,737
154,531	-15,393	368,929	163,839
155,546	-15,674	368,866	163,451
156,560	-15,577	368,497	163,392
157,575	-15,552	368,140	163,249
158,589	-15,552	367,956	163,154
159,604	-15,321	367,754	163,333
160,619	-15,413	367,508	163,097
161,633	-15,430	367,229	162,937
162,648	-15,478	367,102	162,807
163,662	-15,512	366,716	162,581
164,677	-15,462	366,384	162,480
165,692	-15,623	366,188	162,181
166,706	-15,344	366,066	162,454
167,721	-15,389	365,772	162,254
168,735	-15,125	365,503	162,441
169,750	-15,364	365,389	162,085
170,764	-15,351	365,195	162,001
171,779	-15,235	364,888	161,991
172,794	-15,206	364,620	161,893
173,808	-15,434	364,156	161,396
174,823	-15,851	363,738	160,691
175,837	-15,943	363,498	160,460
176,852	-15,555	363,576	160,950
177,867	-15,298	363,268	161,110
178,881	-15,387	362,956	160,849
179,896	-15,349	362,659	160,749
180,910	-15,222	362,465	160,801
181,925	-15,310	362,365	160,638
182,940	-15,311	362,164	160,533
183,954	-15,179	361,751	160,494
184,969	-15,212	361,538	160,346
185,983	-15,179	361,340	160,283
186,998	-15,354	361,055	159,932
188,013	-15,071	360,708	160,104
189,027	-15,298	360,630	159,783
190,042	-15,205	360,359	159,760
191,056	-15,195	360,048	159,619
192,071	-14,976	360,017	159,853
193,086	-14,970	359,729	159,719
194,100	-14,350	359,789	160,472
195,115	-13,812	359,791	161,103
196,129	-12,672	360,447	162,748
197,144	-8,619	362,274	168,432
198,159	-5,420	363,780	172,973
199,173	-2,456	365,058	177,144
200,188	-1,877	364,925	177,763
201,202	-2,110	364,506	177,262
202,217	-2,012	364,233	177,232
203,232	-1,782	364,315	177,532
204,246	-1,480	364,050	177,751
205,261	-1,437	363,955	177,740
206,275	-1,165	363,757	177,955
207,290	-1,292	363,498	177,659
208,304	-1,576	363,224	177,169
209,319	-1,401	362,797	177,154
210,334	-1,512	362,623	176,921
211,348	-1,442	362,422	176,891
212,363	-1,441	361,948	176,645
213,377	-1,473	361,906	176,570
214,392	-1,253	361,639	176,687
215,407	-1,202	361,650	176,738
216,421	-1,085	361,458	176,768
217,436	-1,175	361,109	176,474
218,450	-1,400	360,740	176,010
219,465	-1,541	360,417	175,669
220,480	-1,484	360,371	175,699
221,494	-1,405	359,978	175,585
222,509	-1,239	360,193	175,871
223,523	-1,029	359,653	175,841
224,538	-1,182	359,323	175,483
225,553	-1,261	359,084	175,257
226,567	-1,267	358,948	175,168
227,582	-1,031	358,864	175,391
228,596	-0,748	358,813	175,684
229,611	-1,032	358,250	175,059
230,626	-1,376	357,957	174,494
231,640	-1,383	357,757	174,372
232,655	-1,075	357,591	174,638
233,669	-0,836	357,626	174,922
234,684	-0,676	357,296	174,933
235,699	-0,854	357,002	174,564
236,713	-1,125	356,716	174,090
237,728	-1,387	356,258	173,543
238,742	-1,608	356,042	173,164
239,757	-1,309	355,771	173,367
240,772	-1,486	355,639	173,080
241,786	-1,415	355,421	173,042
242,801	-1,193	355,226	173,191
243,815	-0,865	354,961	173,430
244,830	-1,062	354,729	173,071
245,844	-1,295	354,234	172,543
246,859	-1,505	354,109	172,221
247,874	-1,141	354,042	172,597
248,888	-0,986	353,909	172,697
249,903	-0,952	353,494	172,519
250,917	-1,229	353,414	172,142
251,932	-1,331	353,197	171,904
252,947	-1,366	352,705	171,607
253,961	-1,384	352,484	171,465
254,976	-1,312	352,421	171,502
255,990	-1,244	352,238	171,475
257,005	-1,074	352,189	171,633
258,020	-1,110	351,838	171,406
259,034	-1,154	351,696	171,270
260,049	-0,967	351,372	171,313
261,063	-1,126	351,108	170,985
262,078	-1,052	350,963	170,985
263,093	-0,710	350,905	171,335
264,107	-0,674	350,593	171,209
265,122	-1,072	350,165	170,528
266,136	-0,861	350,027	170,688
267,151	-0,854	349,871	170,605
268,166	-1,433	349,398	169,695
269,180	-1,478	349,041	169,454
270,195	-1,301	348,888	169,567
271,209	-1,204	348,558	169,503
272,224	-1,207	348,456	169,436
273,239	-0,956	348,360	169,660
274,253	-1,211	348,167	169,260
275,268	-1,400	347,906	168,902
276,282	-1,350	347,616	168,803
277,297	-1,475	347,294	168,489
278,312	-1,151	347,209	168,803
279,326	-1,100	347,053	168,770
280,341	-1,104	346,699	168,577
281,355	-1,250	346,638	168,367
282,370	-0,924	346,469	168,640
283,384	-1,253	345,995	168,021
284,399	-1,373	345,785	167,769
285,414	-1,434	345,514	167,553
286,428	-1,053	345,376	167,902
287,443	-0,852	345,187	168,023
288,457	-0,800	345,063	168,006
289,472	-1,027	344,579	167,499
290,487	-1,318	344,323	167,031
291,501	-1,392	344,060	166,805
292,516	-1,446	343,904	166,654
293,530	-1,444	343,813	166,597
294,545	-1,304	343,619	166,646
295,560	-1,060	343,386	166,793
296,574	-1,125	343,143	166,586
297,589	-1,265	343,004	166,348
298,603	-1,295	342,780	166,190
299,618	-1,266	342,675	166,156
300,633	-1,070	342,432	166,244
301,647	-0,829	342,156	166,366
302,662	-0,859	341,974	166,228
303,676	-0,848	341,767	166,125
304,691	-0,832	341,604	166,048
305,706	-0,886	341,235	165,794
306,720	-0,967	341,019	165,585
307,735	-1,125	340,725	165,251
308,749	-1,152	340,525	165,109
309,764	-0,956	340,518	165,309
310,779	-0,868	340,135	165,206
311,793	-1,269	339,987	164,674
312,808	-1,064	339,696	164,746
313,822	-1,032	339,578	164,709
314,837	-0,984	339,304	164,616
315,852	-1,179	339,023	164,248
316,866	-1,002	338,915	164,378
317,881	-0,839	338,716	164,447
318,895	-0,959	338,429	164,160
319,910	-1,119	338,020	163,770
320,925	-1,286	337,719	163,424
321,939	-1,459	337,588	163,157
322,954	-1,425	337,436	163,105
323,968	-0,997	337,378	163,535
324,983	-0,732	337,323	163,785
325,997	-0,615	337,099	163,792
327,012	-0,707	336,728	163,495
328,027	-0,690	336,485	163,382
329,041	-0,507	336,374	163,514
330,056	-0,613	336,021	163,211
331,070	-1,023	335,790	162,636
332,085	-1,127	335,394	162,315
333,100	-0,953	335,294	162,443
334,114	-0,839	335,095	162,456
335,129	-0,747	334,959	162,476
336,143	-0,988	334,715	162,081
337,158	-0,878	334,548	162,106
338,173	-0,943	334,309	161,903
339,187	-0,925	334,033	161,775
340,202	-0,916	333,828	161,671
341,216	-0,974	333,573	161,471
342,231	-0,792	333,496	161,617
343,246	-1,036	333,075	161,133
344,260	-1,076	332,806	160,945
345,275	-0,978	332,787	161,029
346,289	-0,977	332,516	160,883
347,304	-1,190	332,249	160,509
348,319	-0,957	332,176	160,713
349,333	-0,707	331,955	160,861
350,348	-0,616	331,907	160,923
351,362	-0,567	331,745	160,882
352,377	-0,545	331,483	160,765
353,392	-0,612	331,281	160,580
354,406	-0,739	331,078	160,330
355,421	196,321	1326,321	1385,955
356,435	160,672	1447,435	1385,841
