DTS Sentinel unit serial number:	SN410029Multiplexer serial number:	ORYXHardware model number:	OX2-SRSoftware version number:	ORYX F/W v4,00 Oryx Data Collector v3.7.2.0data status	okinstallation	B6 Nyhavnadifferential loss correction	single-endedforward channel	channel 2reverse channel	N/Adate	2023/12/08time	09:55:08forward acquisition time	300,00reverse acquisition time	0,00gamma	499,1914k internal	0,3165k external	0,3165temperature offset calibration	1,0000default loss term (dB/km)	0,3820temperature slope calibration	1,0000multiplexer offset coefficient	1,0000multiplexer slope coefficient	1,0000fibre end	0,00T internal ref (°C)	13,90T ext. ref 1 (°C)	-1,67T ext. ref 2 (°C)	-1,64length (m)	temperature (°C)	Stokes	anti-Stokes-744,400	-24,515	0,093	-0,041
-743,385	-83,424	-0,294	0,069
-742,371	-161,679	0,169	-0,006
-741,356	0,135	-0,333	0,174
-740,342	5,726	0,176	0,095
-739,327	-153,863	-0,394	0,019
-738,312	-75,140	0,199	0,052
-737,298	-166,835	-0,245	0,007
-736,283	-19,181	0,172	-0,078
-735,269	-200,000	-0,210	-0,000
-734,254	56,032	0,187	0,134
-733,239	-77,801	-0,524	-0,132
-732,225	58,142	0,151	0,109
-731,210	322,025	-0,059	0,083
-730,196	800,000	0,024	0,061
-729,181	-155,188	-0,113	0,005
-728,167	800,000	0,046	-0,109
-727,152	-87,692	-0,208	-0,046
-726,137	16,729	-0,127	-0,074
-725,123	66,547	-0,078	-0,058
-724,108	-200,000	0,001	0,005
-723,094	-200,000	0,038	-0,151
-722,079	-200,000	-0,012	-0,112
-721,064	86,113	0,064	-0,052
-720,050	80,973	-0,028	-0,022
-719,035	-183,343	0,066	-0,001
-718,021	82,675	0,095	-0,076
-717,006	60,436	-0,085	-0,062
-715,991	-117,002	-0,132	-0,017
-714,977	800,000	-0,068	-0,170
-713,962	-200,000	-0,016	-0,070
-712,948	-200,000	0,017	0,065
-711,933	-128,618	0,175	0,018
-710,918	-30,453	-0,102	0,042
-709,904	800,000	0,075	-0,214
-708,889	190,194	-0,032	-0,035
-707,875	0,484	-0,113	-0,059
-706,860	-114,837	-0,088	-0,012
-705,845	301,882	0,027	0,037
-704,831	-20,387	0,072	0,032
-703,816	-64,200	-0,013	0,004
-702,802	518,664	-0,033	-0,056
-701,787	-200,000	-0,003	-0,113
-700,772	50,408	0,040	-0,027
-699,758	461,425	-0,108	-0,177
-698,743	4,480	0,072	0,039
-697,729	-156,597	0,141	0,006
-696,714	250,457	-0,085	-0,106
-695,699	-105,439	-0,046	-0,008
-694,685	221,335	-0,071	-0,084
-693,670	-82,028	0,018	0,004
-692,656	-200,000	-0,005	-0,046
-691,641	-131,476	-0,137	-0,013
-690,627	-200,000	0,000	-0,054
-689,612	-55,852	-0,066	-0,021
-688,597	-200,000	-0,000	0,044
-687,583	-111,333	0,032	0,005
-686,568	-200,000	-0,015	0,099
-685,554	-200,000	0,002	-0,150
-684,539	-10,748	-0,042	0,020
-683,524	-200,000	0,012	0,102
-682,510	-174,447	-0,124	-0,003
-681,495	-200,000	-0,026	-0,140
-680,481	233,585	0,025	-0,030
-679,466	-98,113	-0,032	0,006
-678,451	-200,000	0,007	0,217
-677,437	-13,069	-0,099	-0,047
-676,422	800,000	0,058	-0,122
-675,408	126,900	0,041	-0,038
-674,393	198,698	0,039	0,044
-673,378	-200,000	0,028	-0,124
-672,364	-131,574	-0,084	0,008
-671,349	-27,251	0,113	0,048
-670,335	680,861	0,019	0,036
-669,320	-77,388	0,038	0,010
-668,305	13,883	-0,090	-0,051
-667,291	-144,819	-0,032	0,002
-666,276	429,636	-0,030	-0,048
-665,262	-200,000	0,000	-0,117
-664,247	95,162	-0,135	-0,113
-663,232	800,000	-0,035	0,083
-662,218	-200,000	-0,025	-0,127
-661,203	2,958	0,098	-0,052
-660,189	-76,240	-0,155	-0,040
-659,174	-200,000	0,007	-0,054
-658,159	-200,000	0,006	-0,053
-657,145	-200,000	0,023	-0,115
-656,130	171,521	0,065	-0,069
-655,116	800,000	-0,016	-0,044
-654,101	-164,884	-0,059	-0,002
-653,086	39,663	-0,039	-0,026
-652,072	800,000	-0,008	0,018
-651,057	-151,599	0,087	-0,005
-650,043	-108,851	-0,218	0,034
-649,028	-200,000	0,007	0,036
-648,014	739,421	0,073	-0,145
-646,999	-200,000	0,007	-0,026
-645,984	-134,835	-0,045	-0,004
-644,970	-200,000	-0,026	-0,154
-643,955	-200,000	0,002	0,058
-642,941	780,356	-0,032	-0,064
-641,926	800,000	-0,030	0,068
-640,911	120,931	0,087	0,079
-639,897	800,000	0,022	-0,064
-638,882	80,453	-0,021	0,017
-637,868	-200,000	0,036	-0,163
-636,853	189,864	-0,094	0,104
-635,838	63,547	0,049	-0,036
-634,824	-137,003	-0,104	-0,009
-633,809	-9,602	-0,036	0,017
-632,795	-200,000	0,006	-0,136
-631,780	-109,382	-0,104	0,016
-630,765	353,390	-0,057	-0,084
-629,751	800,000	-0,031	0,069
-628,736	502,221	-0,034	-0,058
-627,722	714,934	-0,077	-0,150
-626,707	-200,000	0,034	-0,117
-625,692	800,000	-0,048	0,130
-624,678	13,159	0,070	-0,040
-623,663	413,707	0,084	-0,131
-622,649	-200,000	0,007	-0,099
-621,634	-89,792	-0,131	-0,028
-620,619	-183,889	-0,084	0,001
-619,605	-107,124	-0,138	0,022
-618,590	-26,122	0,105	-0,045
-617,576	-71,520	-0,102	-0,028
-616,561	344,152	-0,034	-0,049
-615,546	-110,812	0,102	0,015
-614,532	322,321	-0,048	0,067
-613,517	-200,000	0,000	-0,100
-612,503	214,042	-0,013	-0,016
-611,488	-53,712	0,034	0,011
-610,474	800,000	0,061	-0,140
-609,459	-200,000	-0,008	-0,063
-608,444	386,203	0,055	-0,083
-607,430	-200,000	-0,026	-0,088
-606,415	92,238	0,012	-0,010
-605,401	-200,000	-0,012	-0,044
-604,386	-200,000	0,004	0,036
-603,371	-157,952	-0,049	0,002
-602,357	62,208	-0,136	-0,099
-601,342	-137,247	0,093	0,008
-600,328	69,448	-0,148	-0,111
-599,313	800,000	-0,026	-0,077
-598,298	-128,043	0,081	-0,008
-597,284	78,264	0,042	-0,032
-596,269	-173,618	0,072	0,002
-595,255	698,353	-0,070	0,134
-594,240	800,000	-0,044	0,095
-593,225	-200,000	-0,019	-0,085
-592,211	-82,594	-0,191	-0,045
-591,196	232,073	0,035	-0,042
-590,182	18,814	0,078	-0,045
-589,167	-151,589	0,080	0,004
-588,152	-200,000	-0,013	0,096
-587,138	-200,000	-0,003	-0,034
-586,123	-47,901	0,077	0,027
-585,109	130,079	0,057	0,053
-584,094	-200,000	-0,015	-0,063
-583,079	17,878	0,078	-0,045
-582,065	800,000	0,022	0,052
-581,050	332,406	0,058	0,082
-580,036	-115,269	-0,172	-0,024
-579,021	-200,000	-0,007	-0,052
-578,006	-78,567	-0,072	-0,018
-576,992	58,081	0,018	-0,013
-575,977	800,000	-0,045	-0,104
-574,963	800,000	-0,009	0,023
-573,948	-200,000	0,013	-0,050
-572,934	119,914	0,095	-0,086
-571,919	120,662	-0,158	-0,143
-570,904	-96,319	-0,065	-0,012
-569,890	-62,830	-0,124	0,037
-568,875	-141,165	0,141	-0,010
-567,861	121,554	0,080	0,073
-566,846	188,495	-0,016	-0,017
-565,831	54,057	0,101	-0,071
-564,817	51,638	-0,092	0,064
-563,802	105,000	-0,090	-0,077
-562,788	800,000	-0,018	0,047
-561,773	-200,000	0,017	-0,082
-560,758	-200,000	0,005	0,035
-559,744	800,000	-0,009	0,029
-558,729	-200,000	0,024	0,092
-557,715	45,656	-0,024	-0,016
-556,700	-200,000	-0,028	-0,102
-555,685	87,771	0,104	-0,084
-554,671	158,377	0,102	0,103
-553,656	-167,006	-0,028	-0,001
-552,642	-51,513	-0,051	-0,017
-551,627	83,019	-0,049	0,039
-550,612	800,000	0,011	-0,031
-549,598	173,252	-0,085	-0,089
-548,583	358,390	-0,031	0,045
-547,569	31,827	0,056	0,035
-546,554	566,191	0,034	0,061
-545,539	-60,940	0,057	-0,017
-544,525	-9,149	-0,083	0,041
-543,510	382,721	0,009	0,013
-542,496	109,611	0,120	0,105
-541,481	800,000	0,027	0,069
-540,466	-128,652	-0,127	0,013
-539,452	-200,000	0,029	0,114
-538,437	-114,128	0,040	0,006
-537,423	739,019	0,009	-0,019
-536,408	142,763	-0,047	-0,046
-535,393	185,609	-0,107	0,116
-534,379	32,386	-0,049	0,031
-533,364	-200,000	-0,007	0,176
-532,350	-140,569	-0,101	-0,008
-531,335	132,856	0,068	-0,064
-530,321	364,678	-0,040	0,059
-529,306	54,890	-0,039	-0,027
-528,291	800,000	-0,037	-0,086
-527,277	800,000	0,065	-0,136
-526,262	111,023	-0,070	-0,062
-525,248	90,695	0,104	0,085
-524,233	-48,000	0,037	0,013
-523,218	-126,933	-0,109	0,012
-522,204	-80,593	0,080	-0,019
-521,189	-47,711	-0,071	-0,025
-520,175	102,045	-0,113	-0,096
-519,160	-95,705	0,140	-0,027
-518,145	-9,364	0,100	0,049
-517,131	-110,495	0,137	0,021
-516,116	505,660	-0,034	0,058
-515,102	-17,859	-0,047	0,022
-514,087	58,447	-0,044	0,032
-513,072	800,000	0,073	-0,205
-512,058	-200,000	0,012	-0,148
-511,043	800,000	-0,043	0,089
-510,029	3,191	-0,044	0,023
-509,014	335,822	0,060	-0,085
-507,999	3,277	0,095	-0,050
-506,985	83,477	0,033	-0,026
-505,970	364,836	-0,049	-0,072
-504,956	557,586	-0,033	-0,058
-503,941	-200,000	-0,004	-0,149
-502,926	800,000	0,038	-0,083
-501,912	-200,000	-0,002	0,053
-500,897	-38,609	0,071	0,027
-499,883	286,522	0,035	-0,046
-498,868	51,524	-0,071	-0,049
-497,853	-69,956	-0,092	0,025
-496,839	-16,263	-0,047	0,022
-495,824	12,128	0,073	0,041
-494,810	239,094	-0,070	-0,085
-493,795	-154,325	0,066	0,003
-492,781	36,527	-0,114	0,073
-491,766	-23,662	0,042	-0,018
-490,751	433,608	-0,012	-0,020
-489,737	800,000	0,020	-0,053
-488,722	-19,331	-0,086	-0,039
-487,708	-35,126	0,074	-0,029
-486,693	-23,071	0,081	0,035
-485,678	-15,404	-0,084	-0,039
-484,664	-19,785	-0,094	-0,042
-483,649	-8,130	-0,085	-0,041
-482,635	99,544	-0,053	-0,044
-481,620	-200,000	0,017	0,060
-480,605	-60,913	0,086	0,026
-479,591	800,000	-0,042	0,106
-478,576	-200,000	0,006	-0,025
-477,562	139,478	0,010	-0,009
-476,547	290,663	-0,059	-0,078
-475,532	1,350	-0,064	-0,033
-474,518	92,554	0,065	0,053
-473,503	-200,000	-0,019	-0,104
-472,489	245,741	0,067	-0,082
-471,474	127,138	0,060	-0,056
-470,459	-200,000	-0,046	0,147
-469,445	-186,362	0,078	0,001
-468,430	-184,045	0,039	0,000
-467,416	-200,000	-0,011	-0,058
-466,401	-200,000	-0,015	0,195
-465,386	260,952	0,152	0,192
-464,372	149,779	0,074	0,073
-463,357	-39,698	-0,122	-0,046
-462,343	-142,459	-0,090	-0,006
-461,328	-136,570	0,148	-0,012
-460,313	10,862	0,122	0,068
-459,299	-200,000	0,023	0,179
-458,284	-30,442	-0,053	0,022
-457,270	-126,307	-0,097	-0,010
-456,255	-200,000	-0,041	-0,211
-455,241	-109,138	0,030	-0,005
-454,226	-186,573	-0,061	-0,001
-453,211	800,000	0,047	0,112
-452,197	-200,000	0,001	0,072
-451,182	720,076	-0,030	-0,058
-450,168	29,310	0,023	-0,014
-449,153	76,982	0,060	0,046
-448,138	800,000	-0,047	-0,121
-447,124	-67,938	0,092	0,026
-446,109	-200,000	0,017	0,061
-445,095	179,794	0,153	0,163
-444,080	137,754	-0,032	-0,031
-443,065	299,031	-0,050	0,066
-442,051	-200,000	-0,023	-0,144
-441,036	4,787	-0,116	-0,062
-440,022	257,764	0,066	-0,082
-439,007	-200,000	0,014	-0,153
-437,992	793,872	0,040	0,081
-436,978	800,000	0,012	0,032
-435,963	680,578	0,018	0,034
-434,949	800,000	-0,019	-0,038
-433,934	129,990	-0,060	-0,056
-432,919	650,957	-0,037	-0,069
-431,905	80,559	0,058	0,045
-430,890	800,000	-0,033	0,067
-429,876	182,230	0,123	0,132
-428,861	-200,000	0,020	0,098
-427,846	-200,000	0,003	-0,010
-426,832	206,517	0,052	-0,059
-425,817	800,000	0,019	-0,047
-424,803	-16,571	-0,025	-0,012
-423,788	29,589	-0,052	0,032
-422,773	-11,083	0,098	-0,047
-421,759	-200,000	-0,026	0,108
-420,744	-200,000	0,019	0,089
-419,730	800,000	0,030	0,083
-418,715	-153,387	0,079	0,004
-417,701	800,000	-0,031	-0,062
-416,686	800,000	0,016	-0,041
-415,671	570,720	0,063	-0,112
-414,657	-127,598	-0,112	-0,012
-413,642	-133,376	-0,081	0,007
-412,628	800,000	0,034	-0,097
-411,613	369,800	0,087	-0,129
-410,598	342,203	0,040	-0,057
-409,584	7,948	-0,011	0,006
-408,569	546,512	-0,065	-0,114
-407,555	-116,667	0,091	-0,012
-406,540	-69,244	-0,094	0,026
-405,525	800,000	-0,045	-0,130
-404,511	293,209	-0,092	0,122
-403,496	-31,388	-0,123	0,050
-402,482	-200,000	0,041	-0,144
-401,467	18,915	-0,067	-0,039
-400,452	800,000	0,025	-0,058
-399,438	536,025	0,029	-0,050
-398,423	135,147	0,089	-0,084
-397,409	101,285	-0,090	0,076
-396,394	72,242	-0,075	-0,056
-395,379	-131,952	0,108	0,010
-394,365	242,121	-0,018	-0,022
-393,350	5,729	0,081	0,043
-392,336	-143,040	-0,040	0,003
-391,321	-146,090	-0,042	-0,003
-390,306	800,000	-0,012	0,028
-389,292	-23,586	0,102	-0,044
-388,277	-44,859	0,009	-0,003
-387,263	-84,863	0,103	-0,023
-386,248	-94,255	0,040	0,008
-385,233	800,000	0,017	-0,037
-384,219	128,545	-0,063	-0,058
-383,204	800,000	-0,023	-0,053
-382,190	742,353	-0,015	-0,030
-381,175	71,528	-0,094	-0,071
-380,160	-137,083	0,088	-0,007
-379,146	159,079	0,061	0,062
-378,131	142,516	-0,072	0,069
-377,117	-200,000	-0,004	-0,023
-376,102	-26,663	-0,175	-0,074
-375,088	194,673	-0,169	-0,186
-374,073	50,058	-0,070	-0,048
-373,058	118,863	-0,044	0,039
-372,044	-116,139	0,145	0,019
-371,029	-111,047	0,141	-0,021
-370,015	-45,950	0,051	0,018
-369,000	249,609	-0,033	-0,040
-367,985	800,000	-0,022	-0,055
-366,971	-33,595	0,078	-0,031
-365,956	109,473	0,051	0,044
-364,942	51,571	-0,043	-0,030
-363,927	-189,283	-0,086	-0,001
-362,912	626,742	0,048	-0,089
-361,898	800,000	-0,027	-0,077
-360,883	-200,000	0,019	0,091
-359,869	-117,522	-0,040	-0,005
-358,854	438,055	0,033	0,052
-357,839	-200,000	0,015	-0,062
-356,825	375,863	0,078	0,115
-355,810	-200,000	0,010	-0,069
-354,796	-200,000	0,002	0,122
-353,781	-200,000	0,003	-0,036
-352,766	170,482	0,028	0,030
-351,752	-5,548	0,035	-0,017
-350,737	-200,000	0,013	0,046
-349,723	-200,000	-0,034	0,147
-348,708	-200,000	0,003	0,086
-347,693	-99,583	-0,117	-0,021
-346,679	-20,325	-0,162	0,072
-345,664	312,093	0,053	0,072
-344,650	-131,398	0,113	-0,011
-343,635	-200,000	0,005	-0,075
-342,620	158,475	0,075	0,076
-341,606	-92,159	-0,105	0,021
-340,591	-200,000	0,019	0,108
-339,577	-200,000	-0,023	0,189
-338,562	234,313	-0,079	0,095
-337,548	326,999	0,007	0,010
-336,533	-60,802	0,068	-0,021
-335,518	-122,769	0,012	0,001
-334,504	-200,000	-0,003	0,090
-333,489	-128,916	-0,067	-0,007
-332,475	-91,497	0,037	-0,008
-331,460	-142,956	-0,084	-0,006
-330,445	583,425	-0,013	0,022
-329,431	-60,145	0,087	0,027
-328,416	-108,747	-0,084	0,013
-327,402	4,404	0,070	0,037
-326,387	800,000	-0,041	0,113
-325,372	-42,546	0,039	0,014
-324,358	106,229	-0,133	0,114
-323,343	-40,730	-0,110	-0,041
-322,329	800,000	-0,017	-0,051
-321,314	-58,026	0,129	0,041
-320,299	-200,000	0,029	-0,139
-319,285	13,320	-0,019	-0,010
-318,270	252,157	0,021	-0,026
-317,256	34,074	0,036	0,023
-316,241	-200,000	0,008	-0,035
-315,226	-200,000	-0,005	0,112
-314,212	66,391	0,131	0,096
-313,197	-200,000	-0,008	0,046
-312,183	-92,530	0,160	-0,032
-311,168	-200,000	0,004	-0,057
-310,153	453,775	-0,057	-0,092
-309,139	800,000	0,089	0,191
-308,124	111,894	0,090	0,079
-307,110	-30,363	0,105	-0,043
-306,095	583,683	0,046	-0,081
-305,080	260,974	0,111	0,140
-304,066	800,000	-0,015	-0,030
-303,051	-68,739	0,099	-0,027
-302,037	139,649	-0,017	0,016
-301,022	-161,629	0,156	-0,006
-300,008	-42,596	-0,070	0,026
-298,993	-93,509	-0,022	-0,004
-297,978	-42,697	-0,096	-0,035
-296,964	-110,838	0,085	-0,013
-295,949	281,489	0,042	-0,055
-294,935	252,540	0,049	0,061
-293,920	-84,961	-0,069	0,016
-292,905	-200,000	-0,073	0,253
-291,891	800,000	-0,011	0,026
-290,876	-200,000	-0,024	-0,167
-289,862	-144,205	-0,090	-0,006
-288,847	800,000	-0,036	-0,108
-287,832	148,336	-0,077	-0,075
-286,818	800,000	-0,066	0,159
-285,803	276,402	-0,041	0,053
-284,789	11,376	0,079	-0,044
-283,774	62,071	0,149	0,107
-282,759	-199,176	-0,098	0,000
-281,745	-72,597	-0,209	-0,055
-280,730	53,611	-0,052	0,036
-279,716	-46,281	0,110	-0,039
-278,701	800,000	0,031	0,069
-277,686	27,295	0,039	0,023
-276,672	76,276	-0,050	0,038
-275,657	800,000	0,027	0,078
-274,643	-7,907	0,030	-0,015
-273,628	171,718	-0,085	-0,088
-272,613	-200,000	0,009	0,053
-271,599	147,118	0,085	0,083
-270,584	-200,000	0,018	0,135
-269,570	-21,004	0,058	0,026
-268,555	363,877	-0,060	0,087
-267,540	99,162	0,041	-0,035
-266,526	66,940	-0,052	-0,038
-265,511	-200,000	0,208	0,000
-264,497	-57,440	-0,122	-0,039
-263,482	-103,774	0,081	-0,014
-262,467	20,427	0,065	0,038
-261,453	-115,215	0,122	0,016
-260,438	421,340	-0,128	-0,199
-259,424	459,894	-0,031	-0,049
-258,409	-200,000	0,004	0,015
-257,395	800,000	0,044	0,131
-256,380	241,288	0,058	-0,070
-255,365	109,570	0,071	0,061
-254,351	-200,000	-0,004	0,097
-253,336	-200,000	0,017	0,106
-252,322	86,823	-0,067	0,053
-251,307	-70,583	0,071	0,019
-250,292	800,000	-0,017	-0,038
-249,278	95,123	0,053	0,044
-248,263	20,959	0,082	0,048
-247,249	-199,955	-0,176	-0,001
-246,234	-72,837	-0,030	0,008
-245,219	36,110	0,112	-0,071
-244,205	-200,000	-0,032	-0,218
-243,190	176,603	-0,039	-0,041
-242,176	84,417	0,161	0,127
-241,161	449,428	0,090	0,143
-240,146	-200,000	0,009	0,135
-239,132	-200,000	-0,008	0,046
-238,117	496,657	0,076	-0,126
-237,103	-24,338	-0,066	-0,028
-236,088	-29,952	-0,104	-0,043
-235,073	800,000	0,024	-0,054
-234,059	800,000	-0,017	0,041
-233,044	-22,271	0,055	-0,024
-232,030	-200,000	-0,006	-0,038
-231,015	228,335	-0,093	0,109
-230,000	17,127	0,062	-0,035
-228,986	207,244	0,051	0,058
-227,971	-200,000	-0,034	0,148
-226,957	24,258	0,100	0,059
-225,942	148,892	-0,076	0,074
-224,927	-58,743	-0,152	0,047
-223,913	-9,023	0,082	-0,039
-222,898	-200,000	-0,031	-0,128
-221,884	-200,000	-0,012	-0,108
-220,869	-200,000	-0,030	0,110
-219,855	-4,281	0,045	0,022
-218,840	-200,000	-0,038	0,147
-217,825	800,000	0,037	0,082
-216,811	-200,000	-0,005	-0,055
-215,796	800,000	0,051	0,138
-214,782	182,936	0,025	0,027
-213,767	800,000	0,036	-0,106
-212,752	48,019	0,047	0,032
-211,738	-200,000	0,002	0,045
-210,723	800,000	-0,019	-0,051
-209,709	-166,704	0,027	0,001
-208,694	661,136	-0,073	-0,136
-207,679	-98,052	-0,054	0,010
-206,665	562,279	0,069	0,120
-205,650	-200,000	-0,059	0,207
-204,636	94,282	-0,100	0,082
-203,621	-168,518	0,082	0,002
-202,606	543,639	-0,092	-0,159
-201,592	800,000	0,077	0,178
-200,577	-39,642	0,064	-0,024
-199,563	-7,516	-0,089	0,043
-198,548	-128,261	0,030	0,003
-197,533	800,000	0,026	0,053
-196,519	-200,000	-0,027	0,114
-195,504	230,774	-0,037	-0,044
-194,490	169,923	-0,103	-0,106
-193,475	800,000	0,040	-0,092
-192,460	-34,639	-0,092	0,036
-191,446	-136,896	-0,141	0,011
-190,431	-200,000	0,041	0,138
-189,417	-19,763	-0,080	0,035
-188,402	-200,000	-0,002	-0,031
-187,387	-180,478	-0,092	0,001
-186,373	-200,000	-0,020	0,082
-185,358	240,605	0,043	0,052
-184,344	226,536	0,052	0,061
-183,329	800,000	0,051	0,121
-182,315	213,952	0,112	0,127
-181,300	37,885	0,043	-0,027
-180,285	239,733	-0,047	-0,056
-179,271	800,000	-0,035	-0,076
-178,256	-200,000	-0,004	-0,024
-177,242	800,000	0,062	0,147
-176,227	-80,628	0,181	0,043
-175,212	-200,000	-0,037	-0,129
-174,198	297,123	-0,060	0,079
-173,183	-200,000	0,019	-0,092
-172,169	-103,466	0,075	-0,012
-171,154	800,000	0,056	-0,169
-170,139	-200,000	0,007	-0,037
-169,125	-58,427	-0,093	0,029
-168,110	-200,000	0,039	0,145
-167,096	139,859	0,025	0,023
-166,081	-132,998	-0,106	0,010
-165,066	-200,000	0,003	-0,142
-164,052	70,159	0,063	-0,046
-163,037	-59,355	-0,076	0,023
-162,023	339,214	0,076	0,106
-161,008	-188,896	-0,094	0,001
-159,993	138,332	-0,095	0,089
-158,979	13,285	0,029	0,016
-157,964	-153,290	-0,102	-0,005
-156,950	800,000	0,050	-0,101
-155,935	-137,123	-0,110	0,009
-154,920	287,731	0,096	0,125
-153,906	357,853	0,020	-0,028
-152,891	765,431	0,032	-0,062
-151,877	-200,000	-0,006	0,177
-150,862	-200,000	-0,007	0,049
-149,847	-200,000	0,024	0,122
-148,833	-200,000	-0,026	-0,140
-147,818	109,476	0,075	0,065
-146,804	320,441	0,027	0,037
-145,789	-95,452	-0,013	0,002
-144,775	-157,351	-0,179	-0,008
-143,760	-200,000	-0,009	-0,187
-142,745	8,435	-0,045	0,024
-141,731	408,920	0,112	-0,170
-140,716	253,253	-0,044	-0,054
-139,702	-200,000	0,011	0,134
-138,687	247,702	-0,101	0,122
-137,672	443,401	-0,007	0,011
-136,658	-153,233	-0,117	-0,006
-135,643	-200,000	-0,004	-0,157
-134,629	710,040	-0,053	-0,101
-133,614	529,611	0,065	-0,111
-132,599	-21,952	-0,181	-0,079
-131,585	437,839	0,071	-0,111
-130,570	-21,104	-0,046	-0,020
-129,556	-200,000	-0,014	-0,049
-128,541	-62,555	0,110	-0,033
-127,526	-25,617	0,035	-0,015
-126,512	-34,736	0,038	0,015
-125,497	-33,966	-0,026	-0,010
-124,483	409,808	-0,072	-0,110
-123,468	-200,000	0,015	0,106
-122,453	800,000	-0,067	0,174
-121,439	15,313	0,125	0,070
-120,424	-102,926	-0,074	-0,012
-119,410	-200,000	0,002	-0,039
-118,395	453,680	-0,007	0,011
-117,380	260,139	-0,059	0,073
-116,366	-1,304	0,082	-0,042
-115,351	800,000	-0,018	-0,046
-114,337	-166,100	-0,074	-0,002
-113,322	-200,000	0,029	-0,120
-112,307	-200,000	0,008	-0,027
-111,293	-55,476	-0,044	-0,014
-110,278	-86,116	0,057	-0,012
-109,264	291,044	-0,059	0,078
-108,249	-200,000	-0,022	-0,119
-107,234	-82,458	-0,062	0,014
-106,220	238,190	-0,041	-0,049
-105,205	333,355	-0,028	-0,039
-104,191	-9,276	-0,089	0,043
-103,176	569,538	0,030	-0,053
-102,162	800,000	-0,025	-0,076
-101,147	-121,244	-0,087	0,010
-100,132	-200,000	-0,001	-0,060
-99,118	-95,435	-0,048	0,009
-98,103	-81,250	-0,050	0,012
-97,089	186,808	0,104	0,111
-96,074	-200,000	0,011	0,037
-95,059	31,074	-0,055	-0,034
-94,045	800,000	-0,017	0,049
-93,030	535,513	-0,044	-0,075
-92,016	295,450	-0,060	-0,080
-91,001	63,006	0,019	-0,014
-89,986	217,621	0,111	0,127
-88,972	-141,127	0,044	-0,003
-87,957	126,970	0,096	-0,087
-86,943	-40,399	-0,002	0,001
-85,928	-200,000	0,002	0,038
-84,913	800,000	-0,034	-0,087
-83,899	270,403	-0,084	-0,106
-82,884	87,048	-0,032	0,025
-81,870	-200,000	-0,014	-0,072
-80,855	44,733	0,045	0,030
-79,840	28,733	-0,057	0,035
-78,826	-129,699	-0,047	-0,005
-77,811	171,150	0,034	0,035
-76,797	-200,000	0,007	0,035
-75,782	202,506	0,052	0,058
-74,767	-17,242	-0,053	0,024
-73,753	-200,000	-0,013	-0,098
-72,738	210,352	-0,084	0,095
-71,724	-200,000	0,011	-0,054
-70,709	192,424	0,109	-0,118
-69,694	-200,000	0,004	-0,281
-68,680	8,250	0,059	0,032
-67,665	-200,000	0,020	0,093
-66,651	743,329	-0,011	-0,022
-65,636	85,638	-0,042	0,033
-64,622	557,651	0,030	0,052
-63,607	228,220	-0,091	-0,106
-62,592	276,220	0,113	-0,144
-61,578	2,412	0,129	-0,066
-60,563	-60,228	0,129	-0,039
-59,549	322,727	-0,042	-0,058
-58,534	49,420	-2,107	-1,418
-57,519	-200,000	-0,055	-0,550
-56,505	-200,000	-1,311	-5,001
-55,490	105,597	0,903	0,764
-54,476	800,000	5,370	12,177
-53,461	-200,000	18,452	302,119
-52,446	800,000	734,508	2256,142
-51,432	534,391	1647,309	2806,476
-50,417	107,651	1634,031	1392,444
-49,403	71,505	1285,137	954,427
-48,388	29,815	1026,226	624,397
-47,373	19,622	988,371	567,815
-46,359	17,479	976,008	553,685
-45,344	14,222	972,064	540,794
-44,330	14,491	970,526	540,797
-43,315	13,963	968,749	538,063
-42,300	13,885	967,591	537,147
-41,286	13,903	966,711	536,693
-40,271	13,851	965,851	536,027
-39,257	14,010	964,768	535,921
-38,242	13,966	964,015	535,337
-37,227	13,960	963,132	534,808
-36,213	13,993	962,179	534,363
-35,198	13,911	961,327	533,603
-34,184	13,909	960,861	533,319
-33,169	13,883	959,706	532,570
-32,154	13,971	958,802	532,332
-31,140	13,946	957,941	531,753
-30,125	13,907	957,274	531,236
-29,111	13,883	956,502	530,709
-28,096	13,941	955,831	530,501
-27,082	13,928	954,951	529,952
-26,067	13,931	954,432	529,653
-25,052	13,946	953,418	529,115
-24,038	13,868	952,924	528,570
-23,023	13,868	952,371	528,245
-22,009	13,907	951,712	527,981
-20,994	14,004	950,838	527,786
-19,979	14,029	950,166	527,472
-18,965	13,932	949,772	526,921
-17,950	13,943	949,035	526,527
-16,936	13,807	948,640	525,855
-15,921	13,916	947,723	525,672
-14,906	13,771	947,101	524,845
-13,892	13,833	946,444	524,656
-12,877	13,770	945,628	523,984
-11,863	13,742	945,157	523,613
-10,848	13,814	944,548	523,484
-9,833	13,848	944,177	523,365
-8,819	13,931	943,423	523,189
-7,804	13,884	942,846	522,699
-6,790	13,907	942,287	522,443
-5,775	13,893	941,620	522,006
-4,760	13,863	941,168	521,639
-3,746	13,820	940,565	521,151
-2,731	13,689	939,804	520,294
-1,717	13,642	939,121	519,745
-0,702	13,684	938,374	519,444
0,313	13,567	937,555	519,408
1,327	17,004	935,919	529,260
2,342	26,448	788,120	470,475
3,356	23,077	443,684	259,862
4,371	-6,062	295,901	144,189
5,386	-9,725	277,702	131,838
6,400	-10,716	272,052	128,223
7,415	-10,911	269,807	126,973
8,429	-11,012	268,148	126,089
9,444	-11,217	267,376	125,528
10,459	-11,293	266,726	125,142
11,473	-11,515	265,935	124,558
12,488	-11,458	265,431	124,363
13,502	-11,748	264,931	123,855
14,517	-11,559	264,506	123,816
15,531	-11,613	263,933	123,488
16,546	-11,563	263,619	123,375
17,561	-11,748	263,206	123,005
18,575	-11,690	263,146	123,017
19,590	-11,669	262,555	122,749
20,604	-11,733	262,449	122,632
21,619	-11,713	261,777	122,324
22,634	-11,733	261,544	122,187
23,648	-11,818	261,190	121,935
24,663	-11,929	261,060	121,765
25,677	-11,899	260,776	121,648
26,692	-11,856	260,478	121,536
27,707	-11,905	260,205	121,354
28,721	-11,962	260,010	121,203
29,736	-11,983	259,761	121,057
30,750	-11,996	259,414	120,873
31,765	-11,798	259,148	120,913
32,780	-11,997	258,993	120,654
33,794	-11,904	258,707	120,593
34,809	-11,894	258,309	120,405
35,823	-12,078	258,245	120,202
36,838	-11,977	257,948	120,142
37,853	-11,756	257,463	120,100
38,867	-12,058	257,510	119,845
39,882	-12,031	257,313	119,767
40,896	-12,065	256,941	119,553
41,911	-11,983	256,662	119,485
42,926	-11,956	256,541	119,441
43,940	-12,281	256,254	119,013
44,955	-12,031	256,103	119,150
45,969	-12,333	255,860	118,764
46,984	-12,167	255,481	118,721
47,999	-12,518	255,242	118,295
49,013	-12,878	255,080	117,896
50,028	-12,716	254,772	117,884
51,042	-12,763	254,447	117,683
52,057	-12,879	254,327	117,516
53,071	-12,849	254,184	117,466
54,086	-12,638	253,921	117,516
55,101	-12,567	253,754	117,490
56,115	-12,340	253,615	117,611
57,130	-12,023	253,645	117,888
58,144	-11,596	253,470	118,163
59,159	-11,867	253,220	117,804
60,174	-11,654	252,949	117,850
61,188	-11,691	252,738	117,710
62,203	-11,713	252,496	117,568
63,217	-11,697	252,168	117,418
64,232	-11,766	252,095	117,314
65,247	-11,549	251,767	117,337
66,261	-11,721	251,593	117,099
67,276	-12,059	251,235	116,632
68,290	-12,219	250,940	116,349
69,305	-12,416	250,883	116,143
70,320	-12,490	250,617	115,947
71,334	-12,024	250,353	116,212
72,349	-11,811	250,417	116,412
73,363	-11,589	250,163	116,472
74,378	-11,689	249,919	116,263
75,393	-11,871	249,655	115,976
76,407	-11,980	249,484	115,793
77,422	-11,716	249,280	115,912
78,436	-11,753	249,103	115,788
79,451	-11,775	248,956	115,691
80,466	-12,133	248,548	115,189
81,480	-12,004	248,278	115,162
82,495	-12,180	248,184	114,960
83,509	-12,009	247,976	114,997
84,524	-12,299	247,890	114,704
85,539	-12,418	247,636	114,475
86,553	-12,259	247,234	114,413
87,568	-12,144	247,235	114,500
88,582	-12,152	246,967	114,358
89,597	-12,128	246,817	114,299
90,611	-12,017	246,817	114,381
91,626	-12,024	246,608	114,269
92,641	-11,968	246,262	114,145
93,655	-11,975	245,916	113,969
94,670	-11,868	245,988	114,081
95,684	-12,282	245,587	113,540
96,699	-12,029	245,502	113,702
97,714	-12,116	245,233	113,495
98,728	-12,363	245,087	113,211
99,743	-12,472	244,841	112,997
100,757	-12,341	244,703	113,032
101,772	-12,236	244,479	113,006
102,787	-12,002	244,262	113,089
103,801	-12,065	244,130	112,966
104,816	-12,006	244,000	112,944
105,830	-11,890	243,951	113,007
106,845	-11,850	243,704	112,916
107,860	-11,857	243,535	112,821
108,874	-11,946	243,293	112,626
109,889	-12,264	243,040	112,237
110,903	-12,020	242,879	112,353
111,918	-12,053	242,690	112,230
112,933	-12,009	242,603	112,215
113,947	-11,886	242,386	112,206
114,962	-11,832	242,220	112,163
115,976	-11,813	242,066	112,097
116,991	-11,951	241,680	111,795
118,006	-11,930	241,590	111,761
119,020	-11,873	241,392	111,706
120,035	-11,792	241,468	111,798
121,049	-11,648	241,222	111,791
122,064	-11,700	240,937	111,606
123,079	-11,948	240,830	111,345
124,093	-12,097	240,618	111,116
125,108	-12,106	240,320	110,962
126,122	-12,245	240,095	110,734
127,137	-12,317	239,749	110,506
128,151	-12,400	239,820	110,462
129,166	-12,273	239,556	110,434
130,181	-12,207	239,317	110,367
131,195	-12,332	239,235	110,218
132,210	-12,269	239,026	110,163
133,224	-12,049	239,034	110,335
134,239	-11,771	238,719	110,403
135,254	-11,807	238,653	110,334
136,268	-12,020	238,419	110,044
137,283	-12,212	238,015	109,694
138,297	-12,673	237,976	109,296
139,312	-12,429	237,738	109,373
140,327	-12,167	237,681	109,547
141,341	-11,442	237,589	110,076
142,356	-11,433	237,474	110,021
143,370	-11,594	237,294	109,798
144,385	-11,575	237,169	109,746
145,400	-11,443	236,948	109,739
146,414	-11,708	236,918	109,504
147,429	-11,561	236,597	109,463
148,443	-11,715	236,366	109,223
149,458	-11,662	236,278	109,215
150,473	-11,638	236,068	109,127
151,487	-11,644	235,819	108,998
152,502	-11,459	235,787	109,121
153,516	-11,575	235,548	108,908
154,531	-11,571	235,399	108,833
155,546	-11,665	235,108	108,614
156,560	-11,787	234,978	108,447
157,575	-11,709	234,780	108,408
158,589	-11,930	234,819	108,242
159,604	-11,224	234,368	108,582
160,619	-11,466	234,434	108,412
161,633	-11,404	234,296	108,387
162,648	-11,462	234,102	108,242
163,662	-11,550	233,880	108,060
164,677	-11,701	233,634	107,818
165,692	-11,612	233,506	107,820
166,706	-11,651	233,629	107,836
167,721	-11,420	233,394	107,900
168,735	-11,572	233,305	107,730
169,750	-11,353	233,043	107,771
170,764	-11,703	232,997	107,465
171,779	-11,572	232,848	107,489
172,794	-11,311	232,589	107,565
173,808	-11,648	232,420	107,213
174,823	-11,866	231,885	106,787
175,837	-11,969	231,735	106,628
176,852	-11,726	231,953	106,909
177,867	-11,390	231,824	107,102
178,881	-11,406	231,625	106,988
179,896	-11,254	231,463	107,022
180,910	-11,376	231,448	106,910
181,925	-11,574	231,140	106,605
182,940	-11,134	230,920	106,835
183,954	-11,405	230,799	106,559
184,969	-11,288	230,680	106,586
185,983	-11,255	230,665	106,595
186,998	-11,256	230,422	106,472
188,013	-11,352	230,172	106,273
189,027	-11,187	229,922	106,275
190,042	-11,142	229,865	106,274
191,056	-11,362	229,803	106,066
192,071	-11,167	229,580	106,104
193,086	-11,210	229,522	106,035
194,100	-11,046	229,401	106,096
195,115	-11,029	229,355	106,078
196,129	-10,281	229,411	106,671
197,144	-5,274	231,132	111,345
198,159	-0,018	232,541	116,104
199,173	2,553	233,177	118,412
200,188	2,763	233,084	118,517
201,202	2,726	232,964	118,417
202,217	2,954	232,925	118,563
203,232	3,478	232,784	118,887
204,246	3,665	232,683	118,970
205,261	3,328	232,671	118,693
206,275	3,750	232,378	118,859
207,290	3,590	232,279	118,674
208,304	3,667	232,229	118,697
209,319	3,586	231,902	118,457
210,334	3,632	231,805	118,433
211,348	3,429	231,412	118,065
212,363	3,166	231,374	117,832
213,377	2,737	231,176	117,391
214,392	2,748	230,919	117,258
215,407	2,889	230,831	117,311
216,421	3,034	230,758	117,375
217,436	2,858	230,526	117,112
218,450	2,816	230,189	116,898
219,465	2,569	230,168	116,687
220,480	2,736	230,020	116,730
221,494	2,650	229,951	116,619
222,509	3,016	229,838	116,831
223,523	2,997	229,605	116,687
224,538	2,920	229,436	116,532
225,553	2,808	229,275	116,355
226,567	3,142	229,106	116,513
227,582	2,972	229,124	116,382
228,596	3,348	228,952	116,571
229,611	2,793	228,990	116,158
230,626	2,737	228,642	115,928
231,640	2,655	228,350	115,707
232,655	2,954	228,431	115,965
233,669	3,164	228,354	116,075
234,684	3,169	228,236	116,008
235,699	3,324	227,972	115,981
236,713	3,115	227,666	115,657
237,728	3,073	227,527	115,544
238,742	2,572	227,361	115,072
239,757	2,723	227,366	115,178
240,772	2,905	226,996	115,117
241,786	2,655	226,956	114,898
242,801	3,138	226,865	115,206
243,815	3,441	226,840	115,411
244,830	3,288	226,716	115,223
245,844	3,052	226,464	114,907
246,859	2,783	226,379	114,651
247,874	3,298	226,185	114,930
248,888	3,131	225,968	114,684
249,903	3,250	225,850	114,702
250,917	3,178	225,565	114,494
251,932	2,824	225,528	114,200
252,947	2,798	225,287	114,048
253,961	2,809	225,057	113,930
254,976	2,761	225,047	113,879
255,990	3,175	224,956	114,131
257,005	3,160	224,747	114,005
258,020	3,083	224,734	113,930
259,034	3,296	224,511	113,965
260,049	3,111	224,500	113,812
261,063	2,895	224,376	113,578
262,078	3,140	224,206	113,664
263,093	3,505	223,924	113,782
264,107	3,257	223,804	113,527
265,122	3,118	223,696	113,359
266,136	3,511	223,648	113,615
267,151	3,375	223,515	113,437
268,166	2,800	223,193	112,839
269,180	2,804	222,936	112,702
270,195	2,860	222,801	112,664
271,209	2,809	222,753	112,593
272,224	2,847	222,677	112,572
273,239	2,997	222,308	112,486
274,253	2,741	222,263	112,264
275,268	2,658	222,091	112,107
276,282	2,575	222,008	111,994
277,297	2,662	221,754	111,919
278,312	2,812	221,790	112,038
279,326	2,772	221,601	111,904
280,341	3,114	221,485	112,086
281,355	3,280	221,394	112,151
282,370	3,139	221,101	111,890
283,384	2,318	220,890	111,173
284,399	2,569	220,827	111,314
285,414	2,762	220,659	111,361
286,428	3,272	220,530	111,657
287,443	3,255	220,354	111,546
288,457	3,091	220,421	111,450
289,472	2,768	220,212	111,100
290,487	2,555	219,816	110,735
291,501	2,457	219,798	110,645
292,516	2,308	219,693	110,474
293,530	2,638	219,519	110,616
294,545	2,830	219,401	110,686
295,560	3,035	219,181	110,714
296,574	3,049	219,103	110,675
297,589	2,904	219,114	110,565
298,603	2,858	218,980	110,454
299,618	2,963	218,710	110,385
300,633	2,923	218,741	110,361
301,647	3,382	218,554	110,589
302,662	3,137	218,514	110,381
303,676	3,254	218,312	110,354
304,691	3,099	218,234	110,193
305,706	3,109	218,025	110,085
306,720	3,131	217,888	110,022
307,735	2,871	217,623	109,691
308,749	2,664	217,510	109,476
309,764	3,063	217,438	109,717
310,779	3,139	217,292	109,687
311,793	3,109	217,059	109,539
312,808	2,921	217,062	109,395
313,822	2,991	216,701	109,254
314,837	2,902	216,700	109,180
315,852	2,756	216,519	108,975
316,866	2,571	216,378	108,762
317,881	3,110	216,339	109,118
318,895	3,045	216,105	108,943
319,910	2,788	215,994	108,694
320,925	2,767	215,811	108,578
321,939	2,449	215,571	108,221
322,954	2,402	215,583	108,184
323,968	2,951	215,465	108,505
324,983	2,968	215,458	108,504
325,997	2,784	215,341	108,305
327,012	2,815	215,028	108,160
328,027	2,982	214,884	108,196
329,041	3,319	214,851	108,409
330,056	3,271	214,774	108,326
331,070	2,635	214,476	107,716
332,085	2,426	214,258	107,450
333,100	2,744	214,072	107,571
334,114	3,104	214,122	107,841
335,129	3,116	213,881	107,719
336,143	3,115	213,771	107,653
337,158	2,965	213,696	107,500
338,173	2,959	213,598	107,437
339,187	2,810	213,351	107,198
340,202	2,962	213,075	107,156
341,216	2,585	213,076	106,883
342,231	2,850	212,991	107,017
343,246	2,830	212,876	106,935
344,260	2,968	212,752	106,960
345,275	2,977	212,590	106,875
346,289	3,123	212,435	106,890
347,304	3,162	212,279	106,830
348,319	2,819	212,024	106,452
349,333	2,914	211,943	106,469
350,348	3,014	211,955	106,534
351,362	3,083	211,792	106,491
352,377	3,219	211,679	106,519
353,392	2,968	211,533	106,261
354,406	3,279	211,276	106,340
355,421	196,648	1336,029	1413,932
356,435	157,146	1473,010	1413,891
