DTS Sentinel unit serial number:	SN410029Multiplexer serial number:	ORYXHardware model number:	OX2-SRSoftware version number:	ORYX F/W v4,00 Oryx Data Collector v3.7.2.0data status	okinstallation	B6 Nyhavnadifferential loss correction	single-endedforward channel	channel 2reverse channel	N/Adate	2023/12/07time	17:10:08forward acquisition time	300,00reverse acquisition time	0,00gamma	499,1914k internal	0,3164k external	0,3164temperature offset calibration	1,0000default loss term (dB/km)	0,3820temperature slope calibration	1,0000multiplexer offset coefficient	1,0000multiplexer slope coefficient	1,0000fibre end	0,00T internal ref (°C)	14,50T ext. ref 1 (°C)	-2,35T ext. ref 2 (°C)	-2,35length (m)	temperature (°C)	Stokes	anti-Stokes-744,400	120,783	0,109	0,100
-743,385	-85,654	-0,250	0,057
-742,371	119,340	0,092	0,084
-741,356	-116,698	-0,351	-0,047
-740,342	-168,628	0,151	-0,004
-739,327	-98,754	-0,312	0,058
-738,312	497,088	0,061	0,103
-737,298	-56,954	-0,344	0,111
-736,283	400,939	0,035	0,055
-735,269	-134,667	-0,299	-0,026
-734,254	-155,141	0,069	-0,003
-733,239	-62,560	-0,651	-0,197
-732,225	-27,101	0,074	-0,032
-731,210	139,360	-0,024	0,024
-730,196	-24,959	-0,027	0,012
-729,181	-81,957	-0,072	0,017
-728,167	-6,271	0,092	-0,046
-727,152	-63,655	-0,045	0,013
-726,137	68,140	-0,129	-0,097
-725,123	-200,000	0,004	-0,122
-724,108	-103,759	0,038	-0,007
-723,094	147,781	-0,055	0,054
-722,079	99,396	0,010	-0,009
-721,064	113,719	-0,087	-0,078
-720,050	-94,527	-0,106	-0,021
-719,035	410,620	-0,058	-0,090
-718,021	-54,691	-0,088	-0,029
-717,006	146,407	-0,037	0,036
-715,991	-200,000	-0,005	-0,078
-714,977	-84,870	-0,128	-0,029
-713,962	-93,619	0,064	-0,013
-712,948	-123,756	-0,083	-0,010
-711,933	800,000	0,041	0,090
-710,918	-200,000	-0,029	0,166
-709,904	-200,000	0,021	-0,146
-708,889	27,754	0,115	-0,071
-707,875	800,000	-0,042	-0,089
-706,860	800,000	0,026	0,083
-705,845	-145,078	0,130	-0,009
-704,831	-66,260	0,127	0,037
-703,816	-42,664	0,075	-0,028
-702,802	-81,925	-0,038	-0,009
-701,787	-200,000	-0,014	-0,141
-700,772	211,524	-0,002	0,002
-699,758	9,059	-0,139	-0,077
-698,743	-200,000	0,008	0,083
-697,729	127,068	0,068	0,063
-696,714	-200,000	-0,007	0,033
-695,699	-21,026	0,017	0,008
-694,685	-37,036	0,019	0,007
-693,670	184,180	-0,136	-0,148
-692,656	800,000	-0,013	-0,035
-691,641	299,594	-0,029	0,039
-690,627	-200,000	0,006	0,052
-689,612	-200,000	0,006	0,077
-688,597	-45,475	-0,085	-0,031
-687,583	249,657	-0,069	0,086
-686,568	-86,288	-0,110	-0,025
-685,554	73,950	0,007	-0,006
-684,539	-103,686	-0,104	-0,018
-683,524	-60,677	0,107	0,033
-682,510	800,000	-0,027	0,077
-681,495	83,754	0,084	-0,068
-680,481	37,276	-0,099	-0,064
-679,466	28,254	-0,036	0,022
-678,451	21,206	-0,053	-0,031
-677,437	-101,052	0,058	0,010
-676,422	-136,696	-0,136	-0,011
-675,408	-57,097	0,157	0,050
-674,393	-133,076	-0,085	0,008
-673,378	-200,000	0,022	0,095
-672,364	-200,000	0,006	-0,069
-671,349	-49,321	-0,074	-0,026
-670,335	-48,937	0,139	-0,049
-669,320	35,229	-0,076	0,049
-668,305	800,000	-0,049	-0,119
-667,291	800,000	0,054	-0,128
-666,276	662,585	-0,003	-0,007
-665,262	68,829	-0,096	-0,072
-664,247	-200,000	-0,023	-0,209
-663,232	82,534	0,057	0,045
-662,218	155,260	0,109	-0,111
-661,203	-131,892	0,046	-0,004
-660,189	-200,000	-0,002	0,059
-659,174	69,450	-0,118	-0,089
-658,159	276,803	-0,061	0,080
-657,145	-200,000	-0,000	0,051
-656,130	-200,000	0,026	0,092
-655,116	287,903	0,103	-0,137
-654,101	289,266	0,124	-0,165
-653,086	60,105	-0,112	0,081
-652,072	179,313	-0,078	-0,084
-651,057	155,158	-0,114	-0,115
-650,043	-75,596	-0,101	0,026
-649,028	195,852	-0,028	-0,031
-648,014	800,000	-0,043	-0,091
-646,999	-200,000	0,009	-0,066
-645,984	800,000	-0,018	0,052
-644,970	-200,000	-0,014	-0,098
-643,955	235,139	-0,050	-0,061
-642,941	-89,210	0,087	-0,019
-641,926	-200,000	-0,016	0,108
-640,911	800,000	0,014	0,034
-639,897	63,426	0,062	0,046
-638,882	694,194	-0,015	-0,030
-637,868	-6,615	-0,158	-0,079
-636,853	800,000	0,011	-0,031
-635,838	564,321	0,030	-0,053
-634,824	162,799	-0,069	-0,071
-633,809	8,320	-0,080	0,044
-632,795	-48,519	0,076	0,027
-631,780	-62,579	0,090	0,027
-630,765	254,097	-0,057	-0,071
-629,751	-200,000	0,039	-0,153
-628,736	-200,000	-0,010	0,071
-627,722	189,312	-0,088	-0,097
-626,707	-200,000	-0,014	-0,060
-625,692	-200,000	-0,005	0,066
-624,678	-200,000	0,014	0,098
-623,663	-200,000	0,019	0,121
-622,649	-200,000	0,005	-0,081
-621,634	22,439	-0,103	0,061
-620,619	-130,524	-0,103	-0,010
-619,605	636,058	0,011	0,021
-618,590	-4,097	0,083	0,042
-617,576	50,735	-0,057	0,039
-616,561	-200,000	-0,003	-0,022
-615,546	84,971	-0,050	-0,040
-614,532	438,885	-0,043	-0,069
-613,517	531,509	-0,017	0,029
-612,503	23,287	-0,049	0,030
-611,488	-200,000	0,024	0,134
-610,474	680,876	0,017	0,032
-609,459	800,000	0,007	0,021
-608,444	-93,242	-0,171	-0,034
-607,430	-200,000	-0,016	-0,071
-606,415	-43,396	-0,059	-0,022
-605,401	199,244	0,041	0,046
-604,386	473,647	-0,076	0,126
-603,371	533,746	0,139	0,242
-602,357	800,000	-0,027	-0,064
-601,342	-21,743	-0,082	-0,037
-600,328	-1,593	0,045	0,023
-599,313	213,535	-0,033	0,038
-598,298	118,741	-0,055	-0,050
-597,284	-15,654	0,038	0,018
-596,269	699,426	-0,020	0,040
-595,255	-200,000	-0,014	0,047
-594,240	110,412	0,091	-0,080
-593,225	-139,241	-0,083	-0,006
-592,211	-44,557	-0,094	0,034
-591,196	-171,507	-0,057	0,001
-590,182	-160,317	0,152	0,006
-589,167	-200,000	0,005	-0,072
-588,152	800,000	-0,028	-0,060
-587,138	233,729	0,052	0,062
-586,123	-200,000	-0,007	-0,043
-585,109	-200,000	0,013	-0,057
-584,094	800,000	-0,034	0,092
-583,079	800,000	-0,057	0,121
-582,065	-22,314	0,168	-0,074
-581,050	149,912	0,011	-0,011
-580,036	139,600	-0,021	0,020
-579,021	78,038	-0,093	-0,072
-578,006	-152,416	0,037	0,002
-576,992	800,000	-0,015	-0,044
-575,977	-102,312	0,084	0,015
-574,963	-12,770	0,050	-0,024
-573,948	368,861	0,034	-0,050
-572,934	-200,000	0,016	-0,095
-571,919	800,000	-0,032	0,101
-570,904	-200,000	0,001	0,055
-569,890	385,795	-0,025	-0,038
-568,875	43,732	-0,051	-0,034
-567,861	-110,951	0,050	0,007
-566,846	-36,359	0,140	0,055
-565,831	-200,000	-0,014	-0,081
-564,817	800,000	0,030	0,079
-563,802	-44,281	0,071	-0,026
-562,788	49,374	0,078	0,053
-561,773	-58,924	0,048	-0,015
-560,758	181,879	0,071	0,076
-559,744	-200,000	-0,038	0,144
-558,729	-41,491	0,087	0,032
-557,715	243,674	-0,062	0,076
-556,700	-200,000	-0,094	0,000
-555,685	800,000	-0,037	-0,091
-554,671	739,109	-0,001	-0,001
-553,656	20,536	0,150	-0,088
-552,642	587,853	-0,053	-0,096
-551,627	666,309	-0,052	0,099
-550,612	23,284	-0,053	-0,031
-549,598	368,900	-0,110	-0,163
-548,583	800,000	0,046	-0,109
-547,569	800,000	0,007	0,023
-546,554	734,072	0,021	-0,042
-545,539	6,296	-0,028	-0,015
-544,525	-200,000	-0,013	0,060
-543,510	107,872	0,039	0,034
-542,496	-12,724	-0,237	0,112
-541,481	88,531	-0,061	-0,050
-540,466	-120,174	0,082	-0,010
-539,452	-11,137	0,186	0,089
-538,437	-200,000	0,003	-0,054
-537,423	-69,263	-0,050	0,014
-536,408	173,215	-0,038	0,040
-535,393	82,576	-0,149	0,118
-534,379	-200,000	0,020	-0,261
-533,364	381,144	0,012	-0,018
-532,350	6,712	0,150	0,081
-531,335	-107,956	-0,095	0,015
-530,321	165,870	0,023	-0,024
-529,306	-200,000	0,009	0,089
-528,291	-61,447	-0,149	0,045
-527,277	-200,000	-0,016	-0,083
-526,262	25,338	-0,085	0,051
-525,248	37,265	0,115	-0,074
-524,233	71,565	0,106	0,080
-523,218	-200,000	0,005	0,132
-522,204	800,000	-0,059	0,142
-521,189	-77,859	-0,173	0,043
-520,175	-200,000	0,021	-0,121
-519,160	573,281	-0,046	0,082
-518,145	800,000	-0,032	-0,067
-517,131	461,350	0,044	0,072
-516,116	124,541	0,034	-0,031
-515,102	800,000	0,040	-0,084
-514,087	219,663	-0,032	-0,038
-513,072	113,925	-0,120	-0,107
-512,058	800,000	0,039	-0,090
-511,043	-73,046	0,064	-0,017
-510,029	-23,835	0,130	-0,057
-509,014	131,962	-0,064	-0,060
-507,999	800,000	0,050	0,123
-506,985	218,790	-0,078	-0,091
-505,970	45,781	0,019	0,013
-504,956	-200,000	-0,001	0,065
-503,941	57,671	0,064	-0,046
-502,926	624,392	-0,085	0,157
-501,912	-200,000	-0,020	0,154
-500,897	800,000	-0,016	0,049
-499,883	-144,474	-0,119	-0,008
-498,868	-200,000	-0,009	0,047
-497,853	264,477	-0,120	-0,152
-496,839	-159,851	-0,133	-0,005
-495,824	0,388	0,144	0,074
-494,810	109,934	-0,033	-0,029
-493,795	-79,918	-0,090	0,022
-492,781	491,124	-0,055	0,093
-491,766	-21,593	-0,087	0,038
-490,751	800,000	0,006	-0,018
-489,737	-44,270	-0,164	-0,060
-488,722	558,894	0,072	0,127
-487,708	-200,000	0,003	0,040
-486,693	672,872	-0,035	0,067
-485,678	63,886	0,049	-0,036
-484,664	307,344	0,050	-0,068
-483,649	351,091	0,006	0,009
-482,635	517,467	0,058	-0,099
-481,620	162,684	0,085	-0,087
-480,605	89,324	0,069	0,056
-479,591	-103,328	-0,140	-0,024
-478,576	-34,643	-0,070	-0,028
-477,562	-200,000	0,008	-0,045
-476,547	83,807	-0,031	0,025
-475,532	41,121	0,146	-0,096
-474,518	-69,034	0,151	-0,042
-473,503	-148,260	0,043	-0,003
-472,489	-186,072	-0,077	-0,001
-471,474	448,083	-0,083	0,134
-470,459	-40,610	-0,068	-0,025
-469,445	-87,179	-0,039	-0,009
-468,430	552,955	-0,058	0,103
-467,416	-200,000	-0,036	-0,164
-466,401	792,186	0,024	-0,048
-465,386	800,000	-0,030	0,074
-464,372	-121,602	-0,023	0,003
-463,357	-85,731	-0,087	-0,020
-462,343	-91,922	-0,036	-0,007
-461,328	677,425	-0,016	0,031
-460,313	-200,000	0,012	0,054
-459,299	14,221	0,058	0,033
-458,284	58,933	-0,137	0,098
-457,270	38,125	0,013	-0,008
-456,255	612,941	0,017	0,030
-455,241	-68,072	-0,074	0,021
-454,226	80,945	-0,063	-0,050
-453,211	-60,438	0,075	0,023
-452,197	264,589	0,082	0,104
-451,182	4,148	0,052	-0,027
-450,168	202,247	-0,080	-0,090
-449,153	45,173	-0,060	-0,040
-448,138	-64,216	-0,155	-0,046
-447,124	-200,000	0,026	-0,196
-446,109	-200,000	-0,003	-0,042
-445,095	-120,939	0,133	0,016
-444,080	779,853	-0,061	0,121
-443,065	596,780	0,017	0,031
-442,051	544,856	-0,046	0,081
-441,036	243,246	0,024	0,029
-440,022	117,115	0,099	-0,089
-439,007	113,906	-0,094	0,083
-437,992	444,775	0,058	-0,092
-436,978	141,392	0,058	-0,056
-435,963	-55,610	0,030	-0,010
-434,949	800,000	0,039	-0,090
-433,934	338,380	-0,131	-0,186
-432,919	800,000	0,011	-0,033
-431,905	457,518	-0,015	-0,024
-430,890	-132,252	-0,028	-0,003
-429,876	203,026	0,061	0,069
-428,861	566,551	0,040	0,070
-427,846	-200,000	-0,013	0,104
-426,832	90,176	0,094	-0,076
-425,817	7,890	0,083	-0,045
-424,803	-125,036	0,118	0,013
-423,788	-130,269	0,131	-0,013
-422,773	-133,159	0,082	0,007
-421,759	155,983	-0,042	0,042
-420,744	-200,000	-0,017	-0,102
-419,730	-200,000	-0,005	-0,036
-418,715	-112,775	-0,061	0,009
-417,701	27,620	-0,030	0,018
-416,686	-133,949	-0,031	-0,003
-415,671	184,625	0,054	0,058
-414,657	707,669	-0,038	0,072
-413,642	238,099	0,060	0,072
-412,628	50,972	0,041	-0,028
-411,613	277,349	-0,037	-0,048
-410,598	106,697	-0,025	0,022
-409,584	-74,657	0,092	0,024
-408,569	21,621	0,047	-0,028
-407,555	-200,000	-0,001	0,106
-406,540	800,000	0,060	0,140
-405,525	800,000	0,055	-0,130
-404,511	-200,000	-0,012	-0,211
-403,496	-200,000	-0,013	-0,086
-402,482	20,577	0,035	-0,020
-401,467	614,182	0,024	0,043
-400,452	-2,975	0,072	0,036
-399,438	347,102	0,059	-0,084
-398,423	800,000	0,030	-0,079
-397,409	-200,000	-0,005	-0,118
-396,394	130,371	-0,068	0,064
-395,379	-200,000	0,019	-0,085
-394,365	622,466	0,106	0,194
-393,350	-200,000	0,018	-0,072
-392,336	197,287	-0,025	-0,028
-391,321	-72,368	-0,150	-0,040
-390,306	117,833	0,093	-0,084
-389,292	-200,000	-0,010	-0,047
-388,277	86,567	-0,045	-0,036
-387,263	-200,000	-0,008	0,029
-386,248	-200,000	-0,002	0,038
-385,233	800,000	-0,035	0,071
-384,219	800,000	-0,075	0,152
-383,204	-57,186	0,068	0,021
-382,190	79,925	0,070	0,055
-381,175	357,491	0,003	0,005
-380,160	-200,000	0,007	-0,058
-379,146	-133,866	0,204	0,018
-378,131	15,561	0,024	0,013
-377,117	800,000	0,052	-0,111
-376,102	-200,000	0,036	-0,217
-375,088	-200,000	-0,013	-0,083
-374,073	800,000	-0,022	0,061
-373,058	57,381	-0,018	-0,013
-372,044	800,000	0,038	-0,111
-371,029	581,454	0,035	0,063
-370,015	-200,000	0,016	-0,064
-369,000	439,538	-0,064	0,102
-367,985	186,532	-0,044	0,047
-366,971	574,727	0,028	-0,049
-365,956	-55,120	-0,038	-0,012
-364,942	-200,000	0,018	0,102
-363,927	800,000	0,080	0,174
-362,912	800,000	0,072	-0,163
-361,898	-200,000	-0,007	-0,073
-360,883	98,777	-0,118	-0,098
-359,869	259,554	0,058	-0,073
-358,854	270,736	-0,059	0,075
-357,839	-115,834	0,145	-0,019
-356,825	800,000	0,040	0,099
-355,810	800,000	-0,028	0,081
-354,796	-12,012	-0,111	0,053
-353,781	-133,036	-0,087	-0,008
-352,766	211,286	-0,101	0,116
-351,752	-200,000	-0,011	-0,048
-350,737	795,333	0,052	-0,104
-349,723	723,389	0,026	0,051
-348,708	24,219	0,038	-0,023
-347,693	-111,778	-0,059	0,008
-346,679	100,488	-0,079	0,066
-345,664	655,225	-0,099	-0,184
-344,650	250,875	0,058	-0,071
-343,635	131,409	-0,082	0,076
-342,620	-66,288	0,071	-0,020
-341,606	35,304	0,095	0,061
-340,591	-121,256	-0,112	0,013
-339,577	136,727	0,112	-0,106
-338,562	-200,000	0,020	0,091
-337,548	800,000	0,028	0,064
-336,533	23,324	0,119	0,070
-335,518	-200,000	0,030	0,202
-334,504	223,341	-0,041	0,048
-333,489	36,192	0,122	-0,078
-332,475	180,555	0,056	-0,059
-331,460	250,457	-0,072	-0,089
-330,445	418,087	0,070	-0,109
-329,431	-200,000	-0,031	-0,207
-328,416	378,456	-0,048	0,072
-327,402	131,527	-0,022	0,021
-326,387	-101,687	0,082	-0,014
-325,372	79,786	0,105	0,081
-324,358	69,498	-0,071	-0,053
-323,343	643,033	0,058	0,108
-322,329	104,569	0,061	-0,052
-321,314	100,575	0,125	-0,105
-320,299	407,495	0,027	-0,042
-319,285	-164,135	0,022	0,001
-318,270	-57,012	-0,127	-0,040
-317,256	-200,000	0,037	-0,139
-316,241	-29,667	-0,078	-0,032
-315,226	26,284	0,043	-0,026
-314,212	800,000	-0,044	0,124
-313,197	-127,896	0,007	0,001
-312,183	-93,512	0,019	-0,004
-311,168	212,037	-0,061	0,069
-310,153	597,768	0,007	0,013
-309,139	91,043	0,109	-0,088
-308,124	48,608	0,077	0,052
-307,110	-200,000	-0,001	0,019
-306,095	-77,017	0,133	0,033
-305,080	166,941	-0,063	0,064
-304,066	-200,000	-0,002	0,084
-303,051	132,952	0,108	-0,101
-302,037	337,170	-0,128	-0,180
-301,022	412,901	-0,017	-0,026
-300,008	-128,106	0,109	0,011
-298,993	10,157	0,082	0,045
-297,978	3,879	0,088	0,047
-296,964	-200,000	0,004	0,041
-295,949	-167,317	-0,262	-0,007
-294,935	273,807	-0,053	0,068
-293,920	-200,000	0,017	-0,056
-292,905	320,349	-0,050	0,068
-291,891	-200,000	0,015	0,159
-290,876	-106,015	-0,107	-0,017
-289,862	-127,957	-0,035	0,004
-288,847	800,000	-0,052	-0,144
-287,832	634,132	-0,065	0,120
-286,818	1,867	-0,139	0,072
-285,803	-200,000	0,006	-0,070
-284,789	-200,000	-0,016	-0,079
-283,774	-10,682	-0,038	0,018
-282,759	304,910	-0,014	0,018
-281,745	-124,806	-0,104	0,012
-280,730	485,029	-0,024	-0,039
-279,716	-200,000	0,018	-0,123
-278,701	559,041	-0,039	0,068
-277,686	-200,000	-0,004	0,033
-276,672	410,282	0,048	0,073
-275,657	-13,688	0,052	-0,024
-274,643	51,679	-0,112	-0,077
-273,628	-126,369	0,088	-0,009
-272,613	96,875	-0,113	0,093
-271,599	800,000	0,009	-0,025
-270,584	-48,633	0,102	0,035
-269,570	399,547	0,014	0,022
-268,555	-136,425	-0,102	-0,008
-267,540	-200,000	0,009	-0,066
-266,526	22,472	-0,160	-0,094
-265,511	541,513	0,039	-0,068
-264,497	-200,000	0,001	0,015
-263,482	-170,816	0,092	0,002
-262,467	-200,000	0,014	0,049
-261,453	-106,821	-0,078	-0,012
-260,438	-157,063	0,071	0,003
-259,424	800,000	-0,019	0,053
-258,409	-64,862	-0,064	0,019
-257,395	-200,000	-0,014	-0,059
-256,380	51,376	-0,059	-0,041
-255,365	-65,666	0,035	-0,010
-254,351	63,855	0,046	0,033
-253,336	800,000	0,100	-0,221
-252,322	188,436	-0,100	0,108
-251,307	-33,208	-0,034	-0,013
-250,292	-200,000	0,014	0,105
-249,278	-96,952	-0,118	0,022
-248,263	-115,557	-0,089	-0,012
-247,249	-200,000	-0,007	0,033
-246,234	800,000	-0,077	0,166
-245,219	-81,545	-0,145	0,034
-244,205	-73,767	0,167	-0,043
-243,190	369,908	-0,045	0,067
-242,176	111,980	0,067	0,058
-241,161	-53,639	0,151	-0,049
-240,146	-200,000	0,003	0,014
-239,132	800,000	0,017	0,042
-238,117	-200,000	-0,039	0,130
-237,103	-101,659	0,011	-0,002
-236,088	-200,000	-0,004	-0,017
-235,073	624,082	0,049	-0,090
-234,059	58,383	-0,079	-0,056
-233,044	50,636	0,094	0,064
-232,030	99,904	-0,046	-0,038
-231,015	-183,400	-0,207	-0,003
-230,000	55,928	0,051	0,036
-228,986	-17,567	-0,062	-0,028
-227,971	23,840	0,057	-0,034
-226,957	103,295	-0,057	0,048
-225,942	-64,387	0,070	0,020
-224,927	-20,882	-0,155	0,068
-223,913	-157,553	0,086	0,004
-222,898	-148,982	0,081	0,005
-221,884	250,403	-0,088	0,108
-220,869	-101,195	-0,013	-0,002
-219,855	129,822	0,030	0,028
-218,840	-200,000	-0,016	0,141
-217,825	800,000	-0,013	-0,034
-216,811	800,000	0,038	-0,105
-215,796	114,317	0,028	0,024
-214,782	-122,167	-0,078	-0,009
-213,767	-184,803	0,102	0,001
-212,752	-7,138	-0,091	0,044
-211,738	374,357	0,092	0,135
-210,723	-64,757	-0,114	-0,033
-209,709	-84,068	0,176	0,040
-208,694	245,181	-0,058	0,071
-207,679	184,986	0,071	-0,076
-206,665	800,000	0,044	-0,118
-205,650	-1,991	0,056	0,028
-204,636	-72,173	0,130	0,034
-203,621	-200,000	-0,004	-0,028
-202,606	445,844	0,062	-0,098
-201,592	-200,000	0,015	0,145
-200,577	800,000	-0,050	0,126
-199,563	13,464	-0,063	0,035
-198,548	-37,008	0,180	0,069
-197,533	-200,000	0,006	-0,024
-196,519	-57,105	0,053	-0,017
-195,504	-113,709	0,078	0,011
-194,490	-63,269	0,066	-0,020
-193,475	9,549	-0,163	-0,089
-192,460	565,020	0,080	0,140
-191,446	800,000	0,032	0,082
-190,431	-102,327	0,053	0,009
-189,417	-120,582	0,052	-0,006
-188,402	660,937	0,076	-0,142
-187,387	-200,000	-0,009	-0,102
-186,373	800,000	-0,025	-0,063
-185,358	421,320	0,052	0,081
-184,344	25,960	0,073	-0,044
-183,329	-200,000	0,032	-0,109
-182,315	153,025	-0,073	0,072
-181,300	173,561	-0,062	-0,064
-180,285	-200,000	0,005	-0,039
-179,271	29,324	-0,091	-0,055
-178,256	81,349	0,042	0,032
-177,242	-200,000	0,014	0,056
-176,227	208,371	0,063	0,071
-175,212	-78,947	0,022	-0,005
-174,198	9,159	0,117	0,064
-173,183	-62,314	-0,059	0,017
-172,169	-81,613	0,080	-0,019
-171,154	-200,000	0,009	0,072
-170,139	-190,392	0,133	-0,001
-169,125	188,719	0,075	0,081
-168,110	537,281	0,022	0,037
-167,096	-88,197	-0,103	-0,022
-166,081	242,630	-0,090	0,109
-165,066	298,919	-0,024	-0,031
-164,052	-104,442	0,114	-0,019
-163,037	20,725	-0,104	-0,060
-162,023	277,465	0,066	0,085
-161,008	-200,000	-0,029	-0,118
-159,993	169,369	0,077	-0,080
-158,979	285,934	-0,080	-0,104
-157,964	60,049	-0,032	-0,023
-156,950	234,472	-0,040	-0,048
-155,935	-116,758	0,115	-0,015
-154,920	-200,000	-0,005	-0,158
-153,906	-200,000	-0,018	0,106
-152,891	235,324	-0,059	0,070
-151,877	53,868	-0,193	0,133
-150,862	90,982	0,087	-0,070
-149,847	222,151	-0,060	-0,070
-148,833	-93,512	0,024	0,005
-147,818	304,550	0,058	0,078
-146,804	109,287	0,025	-0,022
-145,789	-166,710	-0,124	-0,004
-144,775	-200,000	0,006	-0,193
-143,760	-132,321	-0,038	-0,003
-142,745	-200,000	-0,032	0,109
-141,731	451,572	-0,061	0,097
-140,716	-200,000	-0,035	0,114
-139,702	228,871	0,098	0,115
-138,687	-55,712	-0,069	-0,022
-137,672	-91,809	0,043	0,009
-136,658	-157,364	-0,039	-0,002
-135,643	-130,255	-0,120	0,012
-134,629	-200,000	0,034	-0,120
-133,614	189,692	-0,055	0,059
-132,599	16,817	-0,045	-0,026
-131,585	800,000	0,033	0,078
-130,570	527,067	-0,072	0,123
-129,556	-91,344	-0,020	0,004
-128,541	-200,000	-0,015	0,056
-127,526	-89,195	-0,091	0,019
-126,512	800,000	0,010	0,027
-125,497	800,000	0,031	0,078
-124,483	173,380	-0,026	0,027
-123,468	800,000	-0,039	-0,083
-122,453	-200,000	-0,119	0,000
-121,439	-164,592	-0,062	-0,002
-120,424	-200,000	-0,025	-0,121
-119,410	-200,000	0,016	0,090
-118,395	-141,312	0,052	0,004
-117,380	800,000	0,028	0,059
-116,366	62,536	-0,028	0,020
-115,351	78,971	-0,062	-0,048
-114,337	800,000	0,012	0,038
-113,322	-200,000	0,015	-0,097
-112,307	800,000	0,058	0,133
-111,293	-152,545	0,112	-0,006
-110,278	308,879	0,042	0,057
-109,264	-122,632	0,062	0,007
-108,249	40,339	-0,050	-0,032
-107,234	-17,129	-0,043	-0,019
-106,220	-200,000	-0,017	-0,054
-105,205	-18,288	-0,033	0,015
-104,191	278,743	0,089	-0,114
-103,176	28,561	-0,120	0,073
-102,162	-200,000	-0,013	0,130
-101,147	-200,000	-0,012	0,136
-100,132	-59,732	0,091	0,028
-99,118	565,507	-0,061	-0,106
-98,103	1,998	-0,116	-0,060
-97,089	-144,304	-0,020	-0,001
-96,074	800,000	-0,029	0,071
-95,059	800,000	-0,039	0,114
-94,045	-200,000	-0,006	0,028
-93,030	-129,070	0,077	0,008
-92,016	-64,076	-0,161	-0,047
-91,001	-83,102	0,022	0,005
-89,986	800,000	-0,076	0,169
-88,972	800,000	0,067	0,158
-87,957	-200,000	-0,002	0,047
-86,943	-23,901	-0,090	-0,038
-85,928	-194,249	0,107	0,001
-84,913	-200,000	0,002	-0,108
-83,899	335,338	-0,063	-0,088
-82,884	-200,000	-0,010	0,076
-81,870	414,646	0,058	0,089
-80,855	414,667	0,014	-0,022
-79,840	-200,000	-0,003	0,087
-78,826	353,130	0,042	-0,059
-77,811	436,280	0,054	0,085
-76,797	22,670	0,045	0,027
-75,782	-200,000	-0,015	0,073
-74,767	-99,478	0,045	-0,008
-73,753	-63,398	0,164	0,048
-72,738	-115,990	-0,193	-0,026
-71,724	266,432	0,076	-0,096
-70,709	-200,000	-0,009	-0,073
-69,694	-200,000	-0,001	-0,116
-68,680	-113,372	0,056	-0,008
-67,665	-187,753	-0,066	0,001
-66,651	-200,000	-0,002	0,049
-65,636	800,000	0,040	0,098
-64,622	-200,000	-0,031	0,142
-63,607	77,076	0,083	0,063
-62,592	-200,000	0,035	0,121
-61,578	-200,000	-0,038	0,135
-60,563	629,229	0,045	0,082
-59,549	800,000	0,032	0,099
-58,534	64,099	-1,887	-1,358
-57,519	-200,000	-0,104	-0,922
-56,505	-200,000	-1,390	-5,136
-55,490	49,817	0,834	0,562
-54,476	800,000	5,352	11,990
-53,461	-200,000	18,200	291,549
-52,446	800,000	729,401	2218,421
-51,432	524,887	1642,106	2778,110
-50,417	107,785	1631,196	1391,182
-49,403	72,398	1283,431	957,085
-48,388	30,685	1024,722	626,660
-47,373	19,785	986,651	567,574
-46,359	17,875	974,401	554,270
-45,344	14,839	970,307	542,030
-44,330	15,100	968,946	542,098
-43,315	14,544	967,047	539,206
-42,300	14,519	965,842	538,431
-41,286	14,500	965,014	537,887
-40,271	14,474	964,195	537,324
-39,257	14,534	963,163	536,922
-38,242	14,477	962,377	536,278
-37,227	14,543	961,412	535,932
-36,213	14,501	960,638	535,345
-35,198	14,538	959,650	534,893
-34,184	14,538	959,050	534,538
-33,169	14,514	957,924	533,812
-32,154	14,502	957,080	533,280
-31,140	14,516	956,146	532,783
-30,125	14,548	955,488	532,497
-29,111	14,465	954,620	531,727
-28,096	14,503	954,193	531,590
-27,082	14,520	953,255	531,102
-26,067	14,577	952,418	530,797
-25,052	14,572	951,742	530,382
-24,038	14,541	951,101	529,904
-23,023	14,496	950,569	529,443
-22,009	14,540	949,955	529,222
-20,994	14,547	949,281	528,847
-19,979	14,548	948,573	528,437
-18,965	14,570	947,988	528,157
-17,950	14,519	947,312	527,598
-16,936	14,462	946,627	527,015
-15,921	14,538	946,020	526,898
-14,906	14,395	945,369	526,061
-13,892	14,425	944,594	525,702
-12,877	14,393	944,032	525,268
-11,863	14,416	943,265	524,894
-10,848	14,467	942,941	524,852
-9,833	14,536	942,395	524,747
-8,819	14,474	941,879	524,243
-7,804	14,488	941,163	523,867
-6,790	14,409	940,692	523,336
-5,775	14,444	940,089	523,090
-4,760	14,446	939,416	522,700
-3,746	14,439	938,638	522,224
-2,731	14,286	938,088	521,415
-1,717	14,237	937,313	520,811
-0,702	14,255	936,698	520,505
0,313	14,117	936,019	520,479
1,327	17,475	934,075	529,886
2,342	26,580	786,704	470,148
3,356	22,783	442,550	258,860
4,371	-6,704	294,988	143,150
5,386	-10,734	276,867	130,535
6,400	-11,926	271,191	126,743
7,415	-11,981	268,856	125,590
8,429	-12,181	267,416	124,722
9,444	-12,083	266,608	124,424
10,459	-12,099	265,998	124,114
11,473	-12,372	265,249	123,506
12,488	-12,330	264,762	123,306
13,502	-12,478	264,112	122,859
14,517	-12,508	263,859	122,704
15,531	-12,540	263,554	122,522
16,546	-12,289	263,119	122,534
17,561	-12,438	262,743	122,215
18,575	-12,124	262,416	122,333
19,590	-12,486	261,920	121,767
20,604	-12,394	261,692	121,732
21,619	-12,611	261,352	121,370
22,634	-12,497	260,929	121,264
23,648	-12,467	260,533	121,096
24,663	-12,427	260,326	121,024
25,677	-12,469	260,156	120,897
26,692	-12,526	259,906	120,719
27,707	-12,321	259,489	120,697
28,721	-12,513	259,381	120,466
29,736	-12,442	259,014	120,347
30,750	-12,651	258,927	120,111
31,765	-12,530	258,590	120,051
32,780	-12,537	258,343	119,919
33,794	-12,611	258,138	119,749
34,809	-12,563	257,678	119,567
35,823	-12,406	257,513	119,617
36,838	-12,425	257,208	119,449
37,853	-12,460	256,873	119,252
38,867	-12,580	256,723	119,066
39,882	-12,439	256,474	119,063
40,896	-12,593	256,286	118,832
41,911	-12,578	256,084	118,740
42,926	-12,402	255,798	118,750
43,940	-12,542	255,683	118,564
44,955	-12,703	255,370	118,268
45,969	-12,809	255,239	118,105
46,984	-12,778	255,073	118,045
47,999	-12,820	254,661	117,807
49,013	-13,117	254,536	117,481
50,028	-13,242	254,224	117,218
51,042	-13,321	253,826	116,956
52,057	-13,269	253,737	116,949
53,071	-13,231	253,545	116,883
54,086	-13,107	253,215	116,828
55,101	-13,038	253,127	116,836
56,115	-12,801	253,042	116,991
57,130	-12,576	252,851	117,086
58,144	-12,424	252,747	117,158
59,159	-12,167	252,377	117,197
60,174	-12,493	252,357	116,897
61,188	-12,586	252,195	116,731
62,203	-12,429	251,782	116,665
63,217	-12,475	251,736	116,594
64,232	-12,285	251,325	116,555
65,247	-12,491	251,338	116,375
66,261	-12,337	250,865	116,276
67,276	-12,524	250,784	116,069
68,290	-12,670	250,455	115,783
69,305	-12,998	250,259	115,402
70,320	-12,715	249,970	115,499
71,334	-12,525	249,933	115,634
72,349	-12,378	249,713	115,646
73,363	-12,223	249,451	115,646
74,378	-12,431	249,247	115,365
75,393	-12,514	249,183	115,254
76,407	-12,650	249,014	115,051
77,422	-12,524	248,803	115,050
78,436	-12,495	248,457	114,904
79,451	-12,319	248,246	114,945
80,466	-12,566	248,018	114,621
81,480	-12,705	247,867	114,424
82,495	-12,486	247,539	114,446
83,509	-12,470	247,375	114,373
84,524	-12,673	247,147	114,088
85,539	-12,709	247,030	113,993
86,553	-12,712	246,735	113,844
87,568	-12,684	246,573	113,783
88,582	-12,727	246,474	113,691
89,597	-12,718	246,258	113,589
90,611	-12,532	245,997	113,614
91,626	-12,553	245,895	113,539
92,641	-12,353	245,690	113,601
93,655	-12,513	245,592	113,412
94,670	-12,511	245,220	113,232
95,684	-12,672	245,259	113,106
96,699	-12,458	245,031	113,168
97,714	-12,606	244,833	112,944
98,728	-12,744	244,635	112,728
99,743	-12,858	244,449	112,538
100,757	-12,707	244,081	112,483
101,772	-12,878	244,010	112,299
102,787	-12,729	243,827	112,328
103,801	-12,593	243,625	112,338
104,816	-12,490	243,548	112,377
105,830	-12,433	243,376	112,334
106,845	-12,573	243,204	112,130
107,860	-12,152	242,778	112,269
108,874	-12,660	242,751	111,829
109,889	-12,529	242,529	111,825
110,903	-12,822	242,397	111,513
111,918	-12,612	242,001	111,493
112,933	-12,506	241,950	111,547
113,947	-12,485	241,848	111,507
114,962	-12,576	241,781	111,392
115,976	-12,508	241,388	111,256
116,991	-12,503	241,308	111,213
118,006	-12,520	241,153	111,119
119,020	-12,428	241,041	111,131
120,035	-12,289	240,857	111,150
121,049	-12,512	240,835	110,948
122,064	-12,522	240,592	110,819
123,079	-12,510	240,309	110,688
124,093	-12,687	240,081	110,429
125,108	-12,669	239,656	110,238
126,122	-12,917	239,591	109,998
127,137	-12,945	239,407	109,881
128,151	-12,745	239,221	109,948
129,166	-12,827	239,142	109,835
130,181	-12,605	238,742	109,821
131,195	-12,858	238,623	109,552
132,210	-12,682	238,434	109,598
133,224	-12,449	238,334	109,730
134,239	-12,688	238,332	109,526
135,254	-12,503	238,093	109,555
136,268	-12,533	237,861	109,415
137,283	-12,921	237,665	109,003
138,297	-12,839	237,353	108,916
139,312	-12,829	237,180	108,835
140,327	-12,729	237,181	108,906
141,341	-12,234	237,056	109,235
142,356	-12,054	236,889	109,293
143,370	-12,412	236,871	108,988
144,385	-12,249	236,522	108,948
145,400	-12,176	236,316	108,902
146,414	-12,341	236,212	108,713
147,429	-12,321	236,095	108,665
148,443	-12,495	235,922	108,437
149,458	-12,464	235,705	108,352
150,473	-12,329	235,465	108,340
151,487	-12,534	235,385	108,130
152,502	-12,248	235,171	108,249
153,516	-12,332	234,923	108,059
154,531	-12,352	234,767	107,962
155,546	-12,382	234,793	107,941
156,560	-12,466	234,606	107,778
157,575	-12,587	234,348	107,554
158,589	-12,459	234,104	107,534
159,604	-12,242	233,885	107,595
160,619	-11,961	233,786	107,761
161,633	-12,174	233,648	107,520
162,648	-12,164	233,475	107,439
163,662	-12,443	233,406	107,178
164,677	-12,475	233,220	107,058
165,692	-12,377	233,073	107,058
166,706	-12,466	232,994	106,942
167,721	-12,056	232,618	107,082
168,735	-12,159	232,641	107,001
169,750	-12,312	232,570	106,840
170,764	-12,308	232,292	106,706
171,779	-12,372	232,058	106,539
172,794	-12,116	232,110	106,753
173,808	-12,402	231,766	106,362
174,823	-12,863	231,541	105,890
175,837	-12,851	231,265	105,764
176,852	-12,583	231,226	105,945
177,867	-12,233	231,116	106,157
178,881	-12,324	230,974	106,012
179,896	-12,144	230,742	106,036
180,910	-12,336	230,630	105,826
181,925	-12,386	230,492	105,715
182,940	-12,365	230,458	105,706
183,954	-12,219	230,245	105,711
184,969	-12,129	230,116	105,713
185,983	-11,967	230,024	105,787
186,998	-11,894	229,808	105,734
188,013	-12,034	229,721	105,576
189,027	-12,080	229,346	105,360
190,042	-11,991	229,279	105,387
191,056	-12,123	229,247	105,262
192,071	-12,077	229,112	105,226
193,086	-12,006	228,862	105,156
194,100	-12,037	228,791	105,090
195,115	-12,177	228,315	104,755
196,129	-12,458	228,359	104,550
197,144	-7,288	230,061	109,315
198,159	-2,223	231,527	113,932
199,173	1,222	232,460	117,058
200,188	1,927	232,448	117,589
201,202	1,803	232,114	117,313
202,217	1,660	232,041	117,155
203,232	1,867	231,871	117,219
204,246	1,757	231,823	117,100
205,261	2,071	231,664	117,251
206,275	1,909	231,603	117,085
207,290	2,084	231,490	117,152
208,304	2,233	231,262	117,141
209,319	2,029	231,080	116,882
210,334	2,117	230,897	116,846
211,348	1,903	230,623	116,532
212,363	1,563	230,405	116,151
213,377	1,445	230,316	116,005
214,392	1,305	230,145	115,801
215,407	1,653	229,935	115,952
216,421	1,627	229,953	115,931
217,436	1,702	229,712	115,856
218,450	1,245	229,542	115,410
219,465	1,202	229,447	115,320
220,480	1,383	229,137	115,292
221,494	1,167	229,061	115,078
222,509	1,669	229,035	115,438
223,523	1,715	228,905	115,397
224,538	1,540	228,657	115,129
225,553	1,556	228,475	115,039
226,567	1,402	228,497	114,922
227,582	1,747	228,367	115,110
228,596	1,681	228,187	114,958
229,611	1,688	228,069	114,894
230,626	1,434	227,704	114,507
231,640	1,301	227,552	114,320
232,655	1,765	227,507	114,638
233,669	1,916	227,521	114,749
234,684	2,161	227,384	114,855
235,699	1,842	227,143	114,483
236,713	1,656	227,002	114,261
237,728	1,485	226,732	113,985
238,742	1,535	226,524	113,908
239,757	1,540	226,384	113,832
240,772	1,423	226,205	113,643
241,786	1,335	225,971	113,450
242,801	1,681	226,109	113,769
243,815	2,106	225,996	114,021
244,830	2,061	225,816	113,887
245,844	1,660	225,503	113,418
246,859	1,579	225,362	113,277
247,874	1,485	225,359	113,195
248,888	1,673	225,245	113,268
249,903	1,736	225,116	113,240
250,917	1,641	224,786	112,993
251,932	1,634	224,499	112,833
252,947	1,182	224,591	112,532
253,961	1,322	224,275	112,468
254,976	1,437	224,092	112,452
255,990	1,648	224,191	112,649
257,005	1,802	224,006	112,660
258,020	1,651	223,925	112,498
259,034	1,775	223,794	112,513
260,049	1,751	223,683	112,430
261,063	1,704	223,401	112,243
262,078	1,877	223,336	112,329
263,093	2,008	223,158	112,327
264,107	2,040	222,932	112,226
265,122	1,850	222,809	112,014
266,136	2,246	222,726	112,255
267,151	2,171	222,667	112,159
268,166	1,589	222,428	111,600
269,180	1,517	222,079	111,362
270,195	1,561	222,044	111,367
271,209	1,528	221,806	111,213
272,224	1,640	221,808	111,287
273,239	1,672	221,644	111,218
274,253	1,595	221,526	111,092
275,268	1,457	221,182	110,809
276,282	1,135	221,087	110,514
277,297	1,434	220,956	110,658
278,312	1,493	220,899	110,663
279,326	1,735	220,771	110,766
280,341	1,620	220,757	110,666
281,355	1,659	220,570	110,590
282,370	1,729	220,352	110,522
283,384	1,279	220,173	110,094
284,399	0,991	220,097	109,837
285,414	1,180	219,795	109,814
286,428	1,408	219,860	110,002
287,443	1,709	219,688	110,125
288,457	1,818	219,623	110,163
289,472	1,744	219,311	109,942
290,487	1,226	218,979	109,390
291,501	0,931	218,982	109,168
292,516	1,091	218,924	109,245
293,530	1,095	218,698	109,126
294,545	1,306	218,735	109,287
295,560	1,472	218,601	109,331
296,574	1,738	218,445	109,436
297,589	1,569	218,311	109,237
298,603	1,569	218,101	109,121
299,618	1,774	217,876	109,147
300,633	1,716	217,909	109,112
301,647	1,921	217,778	109,184
302,662	1,859	217,819	109,151
303,676	1,773	217,623	108,981
304,691	1,919	217,302	108,915
305,706	1,908	217,114	108,803
306,720	1,771	217,087	108,682
307,735	1,507	216,817	108,348
308,749	1,577	216,766	108,363
309,764	1,589	216,646	108,302
310,779	1,769	216,463	108,330
311,793	1,823	216,304	108,278
312,808	1,822	216,176	108,204
313,822	1,723	216,107	108,090
314,837	1,791	215,879	108,014
315,852	1,253	215,755	107,559
316,866	1,298	215,891	107,649
317,881	1,781	215,618	107,847
318,895	1,843	215,162	107,654
319,910	1,477	215,067	107,337
320,925	1,249	214,966	107,115
321,939	1,051	214,734	106,849
322,954	1,495	214,731	107,153
323,968	1,840	214,629	107,337
324,983	1,950	214,498	107,340
325,997	2,107	214,476	107,431
327,012	1,985	214,331	107,262
328,027	1,779	214,177	107,030
329,041	1,918	214,068	107,064
330,056	1,752	213,860	106,833
331,070	1,570	213,724	106,628
332,085	1,747	213,407	106,585
333,100	1,668	213,459	106,545
334,114	2,092	213,357	106,783
335,129	1,989	213,218	106,632
336,143	1,716	212,972	106,308
337,158	1,501	212,834	106,078
338,173	1,550	212,807	106,090
339,187	1,673	212,607	106,067
340,202	1,617	212,279	105,854
341,216	1,395	212,243	105,672
342,231	1,371	212,090	105,569
343,246	1,346	212,026	105,510
344,260	1,362	211,869	105,434
345,275	1,980	211,883	105,864
346,289	2,177	211,740	105,920
347,304	2,184	211,641	105,866
348,319	2,132	211,381	105,690
349,333	1,801	211,416	105,468
350,348	1,779	211,195	105,332
351,362	2,158	211,085	105,532
352,377	1,970	210,941	105,320
353,392	1,600	210,743	104,954
354,406	1,780	210,678	105,038
355,421	197,333	1315,409	1394,776
356,435	157,802	1449,966	1394,746
