DTS Sentinel unit serial number:	SN410029Multiplexer serial number:	ORYXHardware model number:	OX2-SRSoftware version number:	ORYX F/W v4,00 Oryx Data Collector v3.7.2.0data status	okinstallation	B6 Nyhavnadifferential loss correction	single-endedforward channel	channel 2reverse channel	N/Adate	2023/12/10time	18:55:09forward acquisition time	300,00reverse acquisition time	0,00gamma	499,1914k internal	0,3123k external	0,3123temperature offset calibration	1,0000default loss term (dB/km)	0,3820temperature slope calibration	1,0000multiplexer offset coefficient	1,0000multiplexer slope coefficient	1,0000fibre end	0,00T internal ref (°C)	22,33T ext. ref 1 (°C)	6,01T ext. ref 2 (°C)	6,02length (m)	temperature (°C)	Stokes	anti-Stokes-744,400	-63,452	0,097	-0,030
-743,385	78,391	-0,231	0,184
-742,371	10,371	0,070	0,040
-741,356	76,562	-0,154	0,121
-740,342	105,327	0,052	0,046
-739,327	-22,350	-0,196	0,088
-738,312	-27,812	0,068	-0,029
-737,298	49,337	-0,176	0,123
-736,283	-74,975	0,061	-0,016
-735,269	117,406	-0,183	0,168
-734,254	-200,000	0,010	0,187
-733,239	-77,089	-0,431	-0,111
-732,225	1,431	0,138	0,074
-731,210	-200,000	-0,004	0,022
-730,196	-23,370	-0,076	-0,034
-729,181	-200,000	-0,008	0,068
-728,167	292,270	-0,030	-0,041
-727,152	257,115	0,054	-0,070
-726,137	204,577	-0,020	-0,023
-725,123	144,503	-0,068	-0,068
-724,108	-200,000	-0,001	-0,081
-723,094	225,870	-0,050	-0,060
-722,079	114,460	-0,054	0,049
-721,064	26,278	-0,071	0,044
-720,050	444,885	0,051	-0,083
-719,035	274,820	-0,068	0,090
-718,021	-131,609	0,062	0,006
-717,006	14,185	-0,262	-0,152
-715,991	23,642	-0,089	-0,055
-714,977	765,419	0,018	0,037
-713,962	325,129	-0,051	-0,074
-712,948	184,902	0,018	-0,020
-711,933	323,683	-0,105	0,149
-710,918	69,460	-0,100	0,076
-709,904	-200,000	-0,010	-0,166
-708,889	19,690	-0,104	-0,062
-707,875	205,414	-0,109	-0,126
-706,860	167,214	0,033	0,035
-705,845	-200,000	-0,014	0,069
-704,831	-32,735	0,039	0,016
-703,816	-200,000	-0,012	-0,085
-702,802	-126,194	-0,061	0,007
-701,787	-66,069	-0,093	-0,027
-700,772	-79,937	-0,090	-0,022
-699,758	111,923	0,057	-0,051
-698,743	38,438	0,133	-0,088
-697,729	-200,000	-0,000	-0,068
-696,714	-45,421	0,074	-0,027
-695,699	-200,000	0,015	-0,070
-694,685	-200,000	-0,043	-0,148
-693,670	409,364	-0,071	-0,112
-692,656	375,767	-0,039	0,060
-691,641	800,000	0,019	-0,044
-690,627	87,785	-0,060	-0,049
-689,612	800,000	-0,031	-0,085
-688,597	800,000	0,016	-0,051
-687,583	13,422	-0,050	0,029
-686,568	-144,480	0,028	-0,002
-685,554	-200,000	-0,005	-0,191
-684,539	53,785	0,095	0,067
-683,524	-200,000	-0,017	-0,057
-682,510	800,000	-0,016	0,048
-681,495	-200,000	-0,005	0,063
-680,481	316,942	0,113	-0,159
-679,466	56,754	-0,110	-0,080
-678,451	-108,500	0,070	0,011
-677,437	-118,275	-0,128	0,017
-676,422	-200,000	0,002	-0,012
-675,408	200,249	0,083	0,095
-674,393	92,429	-0,072	-0,060
-673,378	112,752	-0,016	-0,015
-672,364	800,000	-0,022	-0,048
-671,349	-132,842	-0,166	-0,016
-670,335	800,000	0,043	-0,110
-669,320	-200,000	0,015	0,138
-668,305	-87,969	-0,046	-0,010
-667,291	800,000	-0,040	-0,084
-666,276	685,475	-0,018	0,035
-665,262	-121,771	-0,065	-0,008
-664,247	248,199	0,042	-0,053
-663,232	-141,768	-0,111	-0,008
-662,218	207,335	-0,020	0,023
-661,203	176,097	0,035	0,038
-660,189	800,000	0,026	-0,070
-659,174	800,000	0,024	-0,058
-658,159	800,000	0,024	-0,067
-657,145	-26,754	0,058	-0,025
-656,130	302,310	0,032	0,044
-655,116	44,713	0,082	-0,056
-654,101	-50,409	0,181	0,063
-653,086	-76,853	0,026	0,007
-652,072	-5,872	-0,065	-0,033
-651,057	-116,597	-0,074	0,010
-650,043	-174,466	-0,161	0,003
-649,028	-142,300	0,154	-0,011
-648,014	207,504	0,133	-0,154
-646,999	-41,832	-0,053	-0,020
-645,984	122,130	-0,044	-0,041
-644,970	52,200	-0,093	-0,066
-643,955	-200,000	-0,009	0,073
-642,941	65,695	0,034	-0,026
-641,926	-37,488	0,101	0,040
-640,911	-109,341	0,057	0,009
-639,897	2,801	0,099	0,053
-638,882	-75,414	-0,105	0,028
-637,868	348,299	-0,016	-0,023
-636,853	-69,576	-0,141	-0,040
-635,838	233,195	-0,126	-0,155
-634,824	-169,223	-0,085	0,002
-633,809	421,373	0,043	-0,068
-632,795	122,898	-0,012	-0,012
-631,780	130,173	0,064	-0,061
-630,765	-135,317	-0,154	0,014
-629,751	-200,000	0,010	0,101
-628,736	-57,248	-0,158	0,051
-627,722	27,091	0,062	0,039
-626,707	68,819	-0,116	0,088
-625,692	254,670	0,063	0,081
-624,678	800,000	-0,032	0,083
-623,663	800,000	0,015	0,045
-622,649	-111,149	-0,104	-0,016
-621,634	110,897	-0,122	-0,109
-620,619	699,694	0,062	-0,122
-619,605	85,739	0,033	0,027
-618,590	-155,199	0,162	0,008
-617,576	-110,150	-0,060	0,009
-616,561	-53,579	-0,118	0,040
-615,546	652,890	0,023	-0,043
-614,532	-7,124	0,052	-0,026
-613,517	800,000	-0,026	0,055
-612,503	800,000	-0,066	0,167
-611,488	280,145	-0,048	0,064
-610,474	314,568	-0,026	0,037
-609,459	-80,368	0,031	-0,008
-608,444	312,705	0,050	-0,070
-607,430	337,194	0,063	-0,091
-606,415	-200,000	-0,001	-0,014
-605,401	-200,000	-0,012	0,128
-604,386	-33,115	0,037	-0,015
-603,371	59,722	0,026	-0,019
-602,357	-174,022	-0,026	0,001
-601,342	-102,966	-0,103	-0,018
-600,328	-200,000	0,004	-0,054
-599,313	234,133	0,086	-0,105
-598,298	53,323	-0,054	-0,039
-597,284	-39,670	0,029	0,011
-596,269	-200,000	-0,017	-0,072
-595,255	747,786	0,054	0,108
-594,240	800,000	-0,023	0,073
-593,225	10,888	-0,154	-0,087
-592,211	57,567	0,033	-0,024
-591,196	380,168	-0,038	0,059
-590,182	-200,000	0,008	0,089
-589,167	800,000	0,023	-0,058
-588,152	-200,000	0,002	-0,067
-587,138	351,326	-0,082	0,120
-586,123	437,716	-0,107	-0,174
-585,109	-200,000	-0,003	0,031
-584,094	523,935	-0,035	0,061
-583,079	-200,000	0,001	0,070
-582,065	-200,000	0,023	0,096
-581,050	-200,000	-0,003	-0,056
-580,036	-30,330	-0,036	-0,015
-579,021	-200,000	0,040	-0,200
-578,006	-200,000	-0,006	-0,051
-576,992	800,000	0,024	0,053
-575,977	193,390	0,097	0,109
-574,963	800,000	0,043	0,116
-573,948	800,000	-0,058	0,133
-572,934	604,098	-0,043	-0,080
-571,919	-200,000	0,040	-0,201
-570,904	60,033	0,047	-0,034
-569,890	800,000	0,047	-0,098
-568,875	800,000	0,034	-0,109
-567,861	-40,301	0,120	0,046
-566,846	44,157	-0,039	-0,026
-565,831	-80,770	0,086	-0,021
-564,817	255,162	-0,070	-0,089
-563,802	800,000	-0,070	-0,190
-562,788	27,966	-0,175	-0,109
-561,773	-79,594	0,012	-0,003
-560,758	-123,537	0,122	0,014
-559,744	148,856	-0,070	-0,070
-558,729	96,643	0,079	-0,067
-557,715	-41,971	-0,041	-0,016
-556,700	-162,941	0,095	0,003
-555,685	390,393	-0,038	-0,058
-554,671	-148,889	0,030	0,002
-553,656	-200,000	0,013	0,060
-552,642	150,915	0,139	0,140
-551,627	800,000	-0,027	-0,074
-550,612	50,860	-0,054	-0,038
-549,598	-24,287	-0,116	-0,051
-548,583	394,352	-0,082	-0,127
-547,569	-200,000	-0,017	-0,056
-546,554	-155,761	-0,216	0,010
-545,539	432,990	0,062	-0,100
-544,525	-200,000	-0,013	0,176
-543,510	-165,494	-0,171	0,005
-542,496	60,837	-0,107	-0,078
-541,481	-200,000	-0,012	0,056
-540,466	144,193	0,070	0,069
-539,452	-18,885	0,080	-0,037
-538,437	-4,543	-0,121	0,062
-537,423	348,707	-0,071	0,104
-536,408	-163,342	-0,056	-0,002
-535,393	-200,000	-0,010	-0,036
-534,379	-200,000	-0,026	-0,129
-533,364	800,000	-0,065	-0,201
-532,350	453,811	-0,056	-0,092
-531,335	46,579	-0,124	0,085
-530,321	800,000	0,028	0,080
-529,306	-128,971	-0,074	0,008
-528,291	202,086	-0,098	-0,112
-527,277	-26,537	-0,034	-0,015
-526,262	76,919	-0,141	-0,110
-525,248	-135,148	-0,128	0,011
-524,233	-111,246	0,050	-0,008
-523,218	800,000	0,057	0,142
-522,204	-35,190	-0,053	0,021
-521,189	139,278	-0,092	-0,089
-520,175	-200,000	0,004	-0,079
-519,160	-21,069	-0,107	0,048
-518,145	-93,728	0,070	0,014
-517,131	-3,712	0,104	-0,053
-516,116	148,867	0,055	0,055
-515,102	800,000	-0,014	-0,041
-514,087	-200,000	0,036	0,157
-513,072	-19,021	-0,109	-0,050
-512,058	-82,511	-0,092	-0,022
-511,043	-200,000	0,008	0,050
-510,029	-200,000	-0,005	-0,051
-509,014	18,151	0,064	-0,038
-507,999	218,770	0,076	-0,090
-506,985	190,418	-0,018	-0,020
-505,970	800,000	0,045	0,127
-504,956	-100,003	0,063	-0,012
-503,941	460,957	0,020	0,033
-502,926	530,071	0,037	0,064
-501,912	-79,254	0,117	0,029
-500,897	-200,000	-0,009	0,134
-499,883	5,576	0,082	-0,044
-498,868	-200,000	-0,006	0,025
-497,853	617,727	0,041	-0,077
-496,839	434,233	0,071	-0,114
-495,824	800,000	-0,036	0,096
-494,810	800,000	-0,012	0,032
-493,795	-200,000	-0,029	0,094
-492,781	-120,709	0,094	-0,012
-491,766	800,000	-0,007	0,020
-490,751	-67,650	-0,049	0,014
-489,737	-154,359	0,011	0,001
-488,722	800,000	0,042	0,104
-487,708	800,000	0,004	-0,011
-486,693	-160,357	0,143	-0,006
-485,678	-200,000	0,019	0,072
-484,664	441,825	0,038	-0,062
-483,649	800,000	0,027	0,066
-482,635	-200,000	0,014	0,061
-481,620	-200,000	-0,029	0,154
-480,605	32,892	0,099	-0,063
-479,591	224,653	0,077	0,092
-478,576	-200,000	0,006	0,120
-477,562	44,204	0,143	-0,096
-476,547	-90,580	-0,096	0,020
-475,532	-200,000	0,009	-0,034
-474,518	-200,000	0,021	0,136
-473,503	71,632	0,111	0,085
-472,489	-145,164	-0,077	-0,005
-471,474	-79,397	-0,083	0,021
-470,459	-121,897	-0,140	0,017
-469,445	-21,137	-0,150	0,067
-468,430	800,000	-0,058	0,147
-467,416	1,036	-0,060	0,032
-466,401	-200,000	-0,022	-0,115
-465,386	800,000	-0,017	-0,051
-464,372	-68,806	0,117	0,033
-463,357	146,683	0,145	-0,144
-462,343	-200,000	0,003	-0,076
-461,328	104,974	-0,039	0,034
-460,313	-173,324	0,124	0,003
-459,299	45,858	0,045	0,031
-458,284	-25,741	0,048	-0,021
-457,270	637,717	-0,021	-0,039
-456,255	-200,000	-0,002	0,037
-455,241	136,345	-0,059	-0,057
-454,226	-200,000	-0,006	-0,138
-453,211	-200,000	-0,027	-0,096
-452,197	-83,578	0,219	0,051
-451,182	11,575	-0,137	-0,077
-450,168	-80,019	0,218	-0,054
-449,153	96,488	0,118	-0,100
-448,138	-105,066	-0,022	0,004
-447,124	-158,541	0,091	0,004
-446,109	800,000	0,042	0,128
-445,095	-126,999	0,180	0,019
-444,080	-104,236	0,094	0,016
-443,065	-200,000	0,008	0,171
-442,051	-53,944	-0,049	-0,016
-441,036	800,000	-0,004	0,009
-440,022	-111,262	0,147	0,022
-439,007	-131,681	-0,112	-0,011
-437,992	-130,773	0,124	-0,012
-436,978	-24,816	0,058	-0,025
-435,963	90,531	-0,094	0,078
-434,949	800,000	-0,053	-0,116
-433,934	800,000	0,028	0,090
-432,919	-31,516	0,027	0,011
-431,905	-200,000	-0,009	-0,078
-430,890	-145,057	0,103	-0,007
-429,876	-200,000	0,007	0,032
-428,861	602,608	-0,026	0,048
-427,846	-32,224	0,120	-0,049
-426,832	-30,836	-0,116	0,048
-425,817	26,022	0,100	0,061
-424,803	363,658	0,058	0,086
-423,788	-200,000	-0,051	0,000
-422,773	-101,764	-0,070	-0,012
-421,759	174,262	-0,040	0,043
-420,744	-32,293	-0,104	-0,043
-419,730	78,732	-0,022	0,017
-418,715	-39,348	-0,058	-0,022
-417,701	-200,000	-0,015	0,105
-416,686	-200,000	0,022	0,105
-415,671	71,576	0,019	-0,015
-414,657	-200,000	0,021	0,093
-413,642	800,000	-0,010	0,031
-412,628	-200,000	-0,010	0,052
-411,613	800,000	0,006	-0,013
-410,598	-200,000	-0,007	-0,051
-409,584	118,525	-0,010	0,009
-408,569	-200,000	0,001	0,100
-407,555	-177,191	0,071	-0,001
-406,540	580,380	0,030	0,054
-405,525	32,868	-0,130	-0,082
-404,511	800,000	-0,029	-0,087
-403,496	-200,000	0,027	-0,146
-402,482	-74,123	-0,104	-0,028
-401,467	144,719	0,041	-0,041
-400,452	10,665	0,088	-0,049
-399,438	278,039	0,101	-0,133
-398,423	800,000	0,027	0,082
-397,409	800,000	-0,116	-0,252
-396,394	344,870	-0,129	-0,187
-395,379	27,766	0,043	0,026
-394,365	-56,279	0,051	0,017
-393,350	494,500	-0,029	-0,050
-392,336	74,460	-0,061	0,047
-391,321	-54,706	0,127	0,042
-390,306	-137,868	-0,057	-0,005
-389,292	276,841	-0,040	-0,053
-388,277	800,000	0,039	-0,098
-387,263	-57,192	0,077	-0,025
-386,248	245,449	0,045	0,055
-385,233	619,574	-0,046	0,086
-384,219	800,000	0,044	-0,128
-383,204	-46,218	0,165	-0,059
-382,190	471,110	-0,071	-0,118
-381,175	800,000	0,035	0,090
-380,160	-200,000	0,037	-0,131
-379,146	-125,625	-0,067	-0,007
-378,131	800,000	0,020	0,042
-377,117	-22,153	0,078	-0,035
-376,102	800,000	-0,007	-0,020
-375,088	-14,862	0,108	0,051
-374,073	-108,779	-0,040	-0,006
-373,058	102,965	-0,070	-0,060
-372,044	26,805	0,065	0,040
-371,029	318,951	0,119	0,166
-370,015	800,000	-0,046	-0,141
-369,000	-200,000	-0,005	-0,111
-367,985	-200,000	-0,085	0,000
-366,971	549,969	0,054	0,095
-365,956	-4,388	-0,061	-0,031
-364,942	46,564	0,148	0,101
-363,927	-200,000	-0,001	-0,024
-362,912	148,442	-0,039	0,039
-361,898	-152,266	-0,116	0,006
-360,883	-101,005	0,051	-0,009
-359,869	155,176	-0,050	-0,051
-358,854	-200,000	0,041	0,156
-357,839	21,090	0,039	0,023
-356,825	-63,162	-0,061	-0,018
-355,810	468,965	0,033	0,055
-354,796	-75,813	-0,107	-0,028
-353,781	162,306	0,110	0,113
-352,766	-166,673	0,091	0,003
-351,752	-158,745	-0,006	0,000
-350,737	151,037	0,044	-0,044
-349,723	800,000	-0,052	0,143
-348,708	-200,000	0,013	-0,150
-347,693	-42,360	0,128	-0,048
-346,679	339,026	-0,111	-0,160
-345,664	-200,000	0,018	-0,068
-344,650	237,822	0,111	0,136
-343,635	290,582	0,075	0,100
-342,620	-200,000	0,016	0,166
-341,606	762,734	0,043	0,087
-340,591	-28,479	0,102	-0,043
-339,577	-200,000	0,032	-0,147
-338,562	551,091	-0,042	0,075
-337,548	250,996	0,045	0,056
-336,533	800,000	0,012	-0,031
-335,518	-87,147	0,095	0,021
-334,504	-200,000	-0,003	-0,013
-333,489	275,199	-0,028	0,037
-332,475	-55,409	0,044	0,014
-331,460	542,706	0,046	-0,080
-330,445	-200,000	0,009	-0,037
-329,431	-57,047	0,026	-0,009
-328,416	-76,001	0,119	-0,031
-327,402	530,228	0,028	0,049
-326,387	341,307	0,042	0,060
-325,372	162,536	-0,033	-0,034
-324,358	800,000	0,020	-0,045
-323,343	800,000	0,059	-0,123
-322,329	-200,000	0,001	-0,052
-321,314	-104,237	-0,052	-0,009
-320,299	-21,081	0,077	0,034
-319,285	-200,000	0,009	0,038
-318,270	-200,000	-0,033	0,112
-317,256	139,891	-0,021	0,021
-316,241	-72,728	0,078	0,021
-315,226	428,309	0,079	0,126
-314,212	-36,509	-0,020	0,008
-313,197	-200,000	0,009	0,050
-312,183	158,052	-0,211	0,215
-311,168	4,113	-0,101	-0,054
-310,153	-159,297	-0,082	-0,003
-309,139	-200,000	0,002	0,089
-308,124	-200,000	-0,040	-0,182
-307,110	800,000	-0,002	0,004
-306,095	-57,722	-0,034	-0,011
-305,080	-48,822	-0,088	-0,031
-304,066	71,530	0,068	-0,051
-303,051	-40,889	-0,130	0,049
-302,037	148,181	-0,022	-0,021
-301,022	491,675	-0,063	-0,106
-300,008	-64,393	0,053	0,016
-298,993	265,533	0,066	0,085
-297,978	722,700	-0,103	0,202
-296,964	800,000	0,051	-0,148
-295,949	279,102	-0,050	-0,065
-294,935	-19,590	-0,075	-0,034
-293,920	-94,016	0,065	0,013
-292,905	22,138	0,075	0,045
-291,891	-134,890	0,064	0,006
-290,876	72,930	-0,070	-0,054
-289,862	-200,000	-0,020	-0,076
-288,847	211,563	0,056	0,064
-287,832	297,708	-0,114	-0,154
-286,818	800,000	0,036	-0,108
-285,803	-200,000	0,004	-0,051
-284,789	-200,000	-0,001	0,080
-283,774	-200,000	0,007	-0,041
-282,759	207,946	0,016	-0,018
-281,745	-200,000	-0,002	0,029
-280,730	450,040	-0,080	-0,129
-279,716	588,858	0,103	-0,186
-278,701	114,935	0,093	0,083
-277,686	-4,376	-0,008	-0,004
-276,672	-200,000	0,003	-0,010
-275,657	-67,496	0,063	-0,018
-274,643	-200,000	-0,001	0,113
-273,628	-79,633	-0,054	0,013
-272,613	554,459	0,031	-0,054
-271,599	11,058	-0,071	0,040
-270,584	178,223	-0,111	0,119
-269,570	-200,000	-0,001	0,014
-268,555	-82,682	-0,078	-0,018
-267,540	-128,068	0,217	-0,022
-266,526	800,000	-0,019	-0,061
-265,511	78,490	0,078	-0,061
-264,497	52,608	0,034	0,024
-263,482	61,627	-0,116	0,085
-262,467	195,447	0,132	0,147
-261,453	800,000	-0,050	0,153
-260,438	413,430	-0,013	0,021
-259,424	-39,311	-0,030	-0,011
-258,409	-12,983	-0,077	-0,037
-257,395	800,000	0,037	0,086
-256,380	800,000	0,066	0,139
-255,365	45,113	0,014	0,010
-254,351	166,442	0,065	-0,068
-253,336	393,804	0,072	0,110
-252,322	169,860	-0,047	0,050
-251,307	-200,000	0,009	0,047
-250,292	262,566	0,080	-0,101
-249,278	139,168	0,042	0,041
-248,263	800,000	0,031	-0,071
-247,249	-140,919	-0,071	-0,005
-246,234	39,971	-0,110	-0,072
-245,219	-200,000	0,032	0,130
-244,205	288,535	-0,027	0,035
-243,190	98,774	0,051	-0,043
-242,176	-200,000	-0,015	0,056
-241,161	-80,229	-0,049	0,012
-240,146	117,151	0,091	0,082
-239,132	4,212	-0,123	0,066
-238,117	19,098	-0,046	0,027
-237,103	-93,251	0,086	0,017
-236,088	-200,000	0,003	-0,102
-235,073	3,719	0,007	0,004
-234,059	69,887	0,087	0,066
-233,044	50,325	-0,124	0,086
-232,030	-64,593	0,101	0,030
-231,015	571,445	0,014	-0,026
-230,000	66,301	0,089	-0,066
-228,986	-98,019	0,026	-0,005
-227,971	31,863	-0,030	-0,019
-226,957	310,752	-0,047	0,065
-225,942	-123,188	0,088	0,010
-224,927	-114,862	-0,079	0,011
-223,913	-63,808	-0,017	-0,005
-222,898	157,651	-0,081	0,082
-221,884	243,041	-0,010	0,013
-220,869	134,105	0,067	-0,064
-219,855	134,352	0,038	-0,036
-218,840	-36,165	-0,147	-0,058
-217,825	800,000	0,001	-0,003
-216,811	159,259	-0,071	-0,072
-215,796	330,993	0,033	-0,047
-214,782	-99,273	-0,034	-0,006
-213,767	279,861	-0,050	-0,066
-212,752	800,000	-0,044	0,137
-211,738	-200,000	-0,003	0,047
-210,723	-200,000	-0,035	0,139
-209,709	-200,000	0,006	-0,105
-208,694	50,057	0,090	-0,062
-207,679	-152,234	-0,075	-0,004
-206,665	187,948	0,025	0,027
-205,650	270,140	0,060	0,077
-204,636	409,190	0,056	0,088
-203,621	-200,000	-0,029	0,098
-202,606	495,493	0,095	0,160
-201,592	305,734	-0,042	-0,057
-200,577	-14,388	-0,153	0,072
-199,563	736,278	0,029	0,058
-198,548	96,036	0,090	-0,075
-197,533	-200,000	0,007	0,037
-196,519	-200,000	0,003	0,045
-195,504	257,462	-0,053	-0,066
-194,490	800,000	0,050	-0,122
-193,475	-69,462	0,022	-0,006
-192,460	-200,000	0,030	-0,097
-191,446	-42,080	-0,076	-0,028
-190,431	32,517	-0,057	-0,036
-189,417	800,000	-0,035	0,079
-188,402	697,495	-0,058	-0,112
-187,387	104,625	-0,027	0,023
-186,373	-200,000	0,005	0,028
-185,358	-200,000	0,006	-0,042
-184,344	-200,000	-0,001	0,104
-183,329	-200,000	-0,041	0,148
-182,315	-36,682	0,098	-0,038
-181,300	-150,784	-0,129	0,007
-180,285	59,052	0,034	-0,024
-179,271	-65,814	-0,084	-0,024
-178,256	-72,947	-0,044	-0,012
-177,242	113,993	0,058	0,052
-176,227	800,000	-0,036	0,114
-175,212	-125,792	-0,087	-0,009
-174,198	-91,461	-0,178	-0,037
-173,183	-200,000	0,005	0,158
-172,169	-41,882	-0,014	-0,005
-171,154	800,000	0,023	-0,050
-170,139	-21,985	-0,034	-0,015
-169,125	207,741	0,069	0,079
-168,110	100,645	-0,155	-0,131
-167,096	143,559	-0,041	-0,040
-166,081	-200,000	-0,005	-0,023
-165,066	134,054	-0,048	-0,046
-164,052	61,452	0,105	-0,076
-163,037	800,000	0,054	-0,129
-162,023	-200,000	0,002	-0,023
-161,008	-128,119	0,164	0,017
-159,993	109,625	-0,044	0,038
-158,979	800,000	-0,007	-0,018
-157,964	800,000	-0,090	-0,193
-156,950	134,226	-0,079	0,075
-155,935	310,705	0,072	0,098
-154,920	-140,292	-0,114	0,009
-153,906	800,000	0,024	-0,069
-152,891	451,678	0,048	0,077
-151,877	-74,860	-0,028	0,007
-150,862	381,438	-0,029	0,043
-149,847	253,071	-0,130	-0,162
-148,833	-74,797	0,093	0,024
-147,818	-132,656	0,079	-0,007
-146,804	-48,478	0,134	0,047
-145,789	32,504	0,098	0,062
-144,775	-36,164	-0,024	0,009
-143,760	276,551	-0,116	-0,151
-142,745	82,420	-0,103	-0,081
-141,731	800,000	0,035	-0,097
-140,716	480,406	0,056	0,093
-139,702	583,975	-0,006	-0,011
-138,687	123,626	0,136	-0,124
-137,672	179,357	-0,047	-0,050
-136,658	-92,077	-0,045	-0,009
-135,643	47,757	-0,100	0,068
-134,629	271,297	-0,049	-0,062
-133,614	-200,000	-0,051	0,186
-132,599	209,181	0,063	0,072
-131,585	-89,447	-0,122	0,026
-130,570	7,794	-0,121	-0,066
-129,556	800,000	-0,056	-0,147
-128,541	208,943	-0,048	0,055
-127,526	-54,815	0,029	0,010
-126,512	-200,000	0,023	-0,081
-125,497	120,728	0,034	-0,031
-124,483	-75,050	-0,047	0,012
-123,468	800,000	-0,040	0,125
-122,453	-122,557	-0,041	-0,005
-121,439	189,681	-0,045	-0,050
-120,424	-200,000	0,004	-0,037
-119,410	469,920	0,028	0,045
-118,395	255,379	-0,066	0,083
-117,380	215,248	-0,095	0,110
-116,366	-164,179	0,053	0,002
-115,351	-113,638	0,030	-0,004
-114,337	800,000	-0,059	-0,155
-113,322	800,000	0,031	-0,081
-112,307	-21,916	-0,008	0,003
-111,293	-21,816	-0,040	0,018
-110,278	45,935	0,083	0,056
-109,264	77,188	0,013	0,010
-108,249	-200,000	-0,034	0,135
-107,234	29,060	-0,050	-0,031
-106,220	-200,000	0,044	0,159
-105,205	18,830	0,026	-0,015
-104,191	-200,000	-0,001	0,056
-103,176	-200,000	-0,035	0,121
-102,162	-69,785	0,097	-0,027
-101,147	800,000	-0,023	0,049
-100,132	140,772	-0,052	-0,050
-99,118	783,774	-0,027	0,054
-98,103	38,477	0,051	0,033
-97,089	-200,000	0,007	0,067
-96,074	59,293	-0,054	-0,039
-95,059	-28,121	-0,116	0,049
-94,045	43,345	-0,123	0,081
-93,030	91,090	-0,055	-0,045
-92,016	800,000	0,012	-0,036
-91,001	-200,000	0,036	0,146
-89,986	120,142	0,077	0,070
-88,972	-18,633	-0,016	0,007
-87,957	-153,997	0,167	0,008
-86,943	-200,000	0,005	-0,029
-85,928	38,677	-0,085	0,055
-84,913	-48,312	-0,095	0,033
-83,899	650,814	-0,039	0,073
-82,884	800,000	0,085	0,180
-81,870	635,660	0,069	0,128
-80,855	-200,000	-0,002	0,064
-79,840	800,000	-0,034	-0,093
-78,826	-64,618	-0,061	0,018
-77,811	127,858	0,048	0,045
-76,797	214,440	0,062	-0,071
-75,782	800,000	-0,076	0,197
-74,767	489,715	0,044	0,074
-73,753	800,000	0,021	0,049
-72,738	-28,393	-0,153	0,064
-71,724	501,426	-0,018	-0,030
-70,709	-200,000	0,009	0,057
-69,694	-47,753	0,054	0,019
-68,680	251,752	-0,008	-0,010
-67,665	338,041	-0,044	0,062
-66,651	-200,000	-0,014	0,051
-65,636	-200,000	0,026	-0,088
-64,622	104,800	-0,123	-0,105
-63,607	641,370	-0,043	0,079
-62,592	-109,843	-0,091	-0,014
-61,578	800,000	0,020	-0,061
-60,563	-87,120	-0,085	0,019
-59,549	329,967	-0,070	-0,098
-58,534	-118,444	-1,345	-0,171
-57,519	495,171	-0,812	-1,359
-56,505	-200,000	-0,903	-4,558
-55,490	53,034	0,547	-0,379
-54,476	800,000	4,966	11,854
-53,461	-200,000	13,763	253,447
-52,446	-200,000	690,156	2258,782
-51,432	590,021	1622,639	2915,665
-50,417	119,151	1634,865	1467,291
-49,403	73,153	1288,993	976,932
-48,388	38,038	1024,341	659,778
-47,373	24,340	981,866	587,369
-46,359	23,528	971,511	578,488
-45,344	22,545	967,346	572,771
-44,330	22,488	965,907	571,711
-43,315	22,422	964,230	570,479
-42,300	22,366	963,506	569,848
-41,286	22,346	962,533	569,184
-40,271	22,328	961,470	568,473
-39,257	22,320	960,767	568,011
-38,242	22,318	959,627	567,307
-37,227	22,341	958,741	566,836
-36,213	22,264	957,866	566,047
-35,198	22,305	956,923	565,599
-34,184	22,357	956,492	565,492
-33,169	22,333	955,556	564,837
-32,154	22,409	954,636	564,516
-31,140	22,417	953,688	563,959
-30,125	22,381	952,780	563,285
-29,111	22,344	952,326	562,873
-28,096	22,317	951,449	562,248
-27,082	22,372	950,830	562,035
-26,067	22,377	950,040	561,561
-25,052	22,428	949,205	561,208
-24,038	22,424	948,529	560,776
-23,023	22,368	948,031	560,277
-22,009	22,406	947,482	560,054
-20,994	22,346	946,832	559,454
-19,979	22,446	946,082	559,311
-18,965	22,405	945,549	558,842
-17,950	22,346	944,883	558,236
-16,936	22,275	944,151	557,556
-15,921	22,333	943,355	557,249
-14,906	22,340	942,655	556,835
-13,892	22,344	941,997	556,436
-12,877	22,247	941,555	555,845
-11,863	22,200	940,888	555,280
-10,848	22,227	940,463	555,092
-9,833	22,385	939,789	555,174
-8,819	22,286	939,352	554,580
-7,804	22,258	938,594	554,023
-6,790	22,235	937,982	553,567
-5,775	22,267	937,292	553,238
-4,760	22,281	936,732	552,931
-3,746	22,247	936,196	552,485
-2,731	22,113	935,634	551,709
-1,717	22,063	934,779	551,025
-0,702	22,037	934,328	550,653
0,313	21,897	933,395	550,493
1,327	24,993	931,468	559,045
2,342	34,771	795,977	503,767
3,356	32,749	451,549	282,711
4,371	1,526	293,909	152,845
5,386	-2,847	274,879	138,795
6,400	-4,244	269,004	134,519
7,415	-4,844	266,509	132,707
8,429	-4,431	265,373	132,508
9,444	-4,524	264,541	131,995
10,459	-4,488	263,702	131,599
11,473	-4,718	263,367	131,210
12,488	-4,784	262,901	130,906
13,502	-4,872	262,339	130,535
14,517	-4,795	261,833	130,342
15,531	-4,745	261,563	130,240
16,546	-4,649	261,226	130,148
17,561	-4,657	260,632	129,833
18,575	-4,636	260,434	129,742
19,590	-4,620	260,059	129,557
20,604	-4,467	259,676	129,492
21,619	-4,613	259,474	129,249
22,634	-4,879	259,144	128,836
23,648	-4,701	258,885	128,855
24,663	-4,739	258,488	128,612
25,677	-4,610	258,291	128,617
26,692	-4,638	258,094	128,482
27,707	-4,753	257,964	128,304
28,721	-4,574	257,553	128,248
29,736	-4,857	257,235	127,827
30,750	-4,681	256,891	127,800
31,765	-4,892	256,869	127,591
32,780	-4,863	256,594	127,469
33,794	-4,860	256,319	127,323
34,809	-4,768	256,073	127,270
35,823	-4,860	255,781	127,033
36,838	-4,905	255,572	126,879
37,853	-4,842	255,261	126,768
38,867	-4,814	255,166	126,734
39,882	-4,900	254,969	126,550
40,896	-4,910	254,685	126,388
41,911	-4,823	254,500	126,362
42,926	-4,885	254,240	126,167
43,940	-5,053	254,029	125,904
44,955	-5,019	253,707	125,763
45,969	-5,051	253,537	125,640
46,984	-5,021	253,186	125,481
47,999	-5,325	253,004	125,114
49,013	-5,469	252,804	124,880
50,028	-5,391	252,597	124,834
51,042	-5,754	252,226	124,324
52,057	-5,614	251,951	124,299
53,071	-5,337	251,786	124,446
54,086	-5,400	251,531	124,255
55,101	-5,350	251,588	124,316
56,115	-5,239	251,442	124,328
57,130	-4,745	251,421	124,733
58,144	-4,487	251,112	124,792
59,159	-4,504	250,876	124,649
60,174	-4,528	250,766	124,562
61,188	-4,425	250,415	124,465
62,203	-4,570	250,350	124,297
63,217	-4,745	250,341	124,131
64,232	-4,645	249,950	124,013
65,247	-4,553	249,707	123,960
66,261	-4,774	249,597	123,704
67,276	-4,828	249,196	123,448
68,290	-5,054	248,974	123,134
69,305	-5,215	248,788	122,893
70,320	-5,287	248,608	122,732
71,334	-4,946	248,620	123,019
72,349	-4,473	248,337	123,271
73,363	-4,617	248,257	123,097
74,378	-4,649	248,010	122,936
75,393	-4,661	247,699	122,761
76,407	-4,739	247,617	122,643
77,422	-4,833	247,354	122,422
78,436	-4,739	247,179	122,404
79,451	-4,748	246,938	122,266
80,466	-4,872	246,701	122,034
81,480	-5,101	246,436	121,697
82,495	-4,813	246,293	121,860
83,509	-4,845	246,001	121,677
84,524	-4,991	245,809	121,448
85,539	-5,028	245,495	121,251
86,553	-4,919	245,410	121,290
87,568	-5,073	245,516	121,203
88,582	-5,050	245,184	121,047
89,597	-5,191	244,845	120,751
90,611	-4,811	244,841	121,056
91,626	-4,784	244,709	121,003
92,641	-4,802	244,519	120,883
93,655	-4,780	244,141	120,704
94,670	-5,009	244,120	120,491
95,684	-4,921	243,834	120,413
96,699	-4,875	243,676	120,363
97,714	-5,099	243,413	120,035
98,728	-5,186	243,291	119,892
99,743	-5,170	243,225	119,862
100,757	-5,296	242,879	119,575
101,772	-5,174	242,662	119,560
102,787	-5,018	242,502	119,600
103,801	-4,921	242,229	119,534
104,816	-4,913	242,229	119,531
105,830	-4,925	242,265	119,528
106,845	-4,715	242,002	119,561
107,860	-4,842	241,772	119,332
108,874	-4,872	241,548	119,187
109,889	-4,943	241,396	119,042
110,903	-4,745	241,001	119,000
111,918	-5,016	241,029	118,780
112,933	-4,739	240,806	118,888
113,947	-4,778	240,545	118,716
114,962	-4,692	240,464	118,736
115,976	-5,005	240,356	118,414
116,991	-4,909	240,172	118,392
118,006	-4,698	240,050	118,495
119,020	-4,825	239,901	118,307
120,035	-4,907	239,798	118,178
121,049	-4,778	239,550	118,150
122,064	-4,613	239,307	118,156
123,079	-4,940	239,154	117,802
124,093	-4,891	239,031	117,771
125,108	-5,066	238,654	117,432
126,122	-5,318	238,625	117,202
127,137	-5,128	238,266	117,170
128,151	-5,139	238,101	117,069
129,166	-5,099	238,032	117,058
130,181	-5,118	237,829	116,931
131,195	-5,107	237,655	116,845
132,210	-5,088	237,552	116,798
133,224	-4,969	237,455	116,838
134,239	-4,900	237,229	116,772
135,254	-4,725	237,074	116,826
136,268	-5,056	236,764	116,396
137,283	-5,148	236,557	116,210
138,297	-5,216	236,386	116,060
139,312	-5,448	236,209	115,776
140,327	-5,001	236,025	116,035
141,341	-4,608	236,054	116,356
142,356	-4,634	235,976	116,286
143,370	-4,492	235,754	116,280
144,385	-4,473	235,654	116,236
145,400	-4,535	235,484	116,092
146,414	-4,533	235,353	116,019
147,429	-4,587	235,151	115,865
148,443	-4,490	234,936	115,827
149,458	-4,651	234,734	115,588
150,473	-4,537	234,501	115,554
151,487	-4,504	234,269	115,456
152,502	-4,537	234,218	115,394
153,516	-4,523	234,246	115,409
154,531	-4,321	233,886	115,382
155,546	-4,636	233,768	115,063
156,560	-4,469	233,411	115,009
157,575	-4,735	233,344	114,754
158,589	-4,735	233,079	114,614
159,604	-4,161	232,968	115,005
160,619	-4,316	232,964	114,870
161,633	-4,320	232,930	114,839
162,648	-4,340	232,680	114,690
163,662	-4,663	232,582	114,376
164,677	-4,515	232,289	114,339
165,692	-4,609	232,295	114,257
166,706	-4,367	231,996	114,291
167,721	-4,175	231,869	114,370
168,735	-4,369	231,821	114,183
169,750	-4,584	231,761	113,974
170,764	-4,742	231,449	113,686
171,779	-4,392	231,300	113,878
172,794	-4,425	231,334	113,858
173,808	-4,632	230,989	113,516
174,823	-5,022	230,604	113,010
175,837	-5,218	230,494	112,792
176,852	-4,856	230,524	113,081
177,867	-4,784	230,335	113,035
178,881	-4,515	230,245	113,192
179,896	-4,380	230,036	113,184
180,910	-4,341	229,907	113,141
181,925	-4,412	229,884	113,064
182,940	-4,377	229,624	112,953
183,954	-4,451	229,350	112,751
184,969	-4,277	229,193	112,799
185,983	-4,158	229,149	112,860
186,998	-4,292	228,999	112,672
188,013	-4,330	229,023	112,644
189,027	-4,392	228,660	112,407
190,042	-4,186	228,552	112,504
191,056	-4,242	228,342	112,347
192,071	-4,374	228,239	112,184
193,086	-4,224	227,974	112,160
194,100	-4,269	227,972	112,114
195,115	-4,519	227,542	111,700
196,129	-5,147	227,405	111,137
197,144	-1,876	228,465	114,182
198,159	2,157	229,500	117,822
199,173	4,113	230,005	119,591
200,188	4,441	229,960	119,811
201,202	4,370	229,734	119,628
202,217	4,536	229,539	119,644
203,232	4,661	229,584	119,753
204,246	4,712	229,475	119,725
205,261	4,843	229,311	119,731
206,275	4,960	229,205	119,755
207,290	5,068	229,006	119,724
208,304	4,997	228,848	119,576
209,319	4,987	228,701	119,481
210,334	4,626	228,545	119,111
211,348	4,620	228,262	118,948
212,363	4,236	228,026	118,519
213,377	4,285	227,645	118,348
214,392	4,270	227,611	118,308
215,407	4,303	227,471	118,250
216,421	4,305	227,370	118,189
217,436	4,328	226,997	118,001
218,450	3,809	227,054	117,624
219,465	3,941	226,757	117,560
220,480	3,865	226,693	117,458
221,494	3,898	226,624	117,438
222,509	3,885	226,451	117,327
223,523	3,941	226,300	117,282
224,538	4,011	226,144	117,243
225,553	4,138	226,024	117,268
226,567	4,077	225,975	117,185
227,582	4,308	225,973	117,349
228,596	4,460	225,793	117,361
229,611	4,137	225,468	116,937
230,626	3,890	225,201	116,600
231,640	3,997	225,079	116,608
232,655	4,108	225,059	116,672
233,669	4,741	225,083	117,153
234,684	4,630	224,936	116,982
235,699	4,501	224,748	116,776
236,713	4,380	224,482	116,536
237,728	4,010	224,217	116,109
238,742	4,072	224,040	116,053
239,757	3,907	223,957	115,876
240,772	4,186	223,708	115,947
241,786	4,069	223,756	115,873
242,801	4,433	223,558	116,034
243,815	4,463	223,595	116,066
244,830	4,740	223,250	116,084
245,844	4,283	223,020	115,611
246,859	3,982	222,986	115,358
247,874	4,551	222,877	115,717
248,888	4,214	222,753	115,391
249,903	4,378	222,409	115,324
250,917	4,085	222,386	115,083
251,932	4,082	222,234	114,992
252,947	4,031	222,074	114,861
253,961	3,744	222,047	114,623
254,976	4,275	221,742	114,850
255,990	4,175	221,711	114,750
257,005	4,341	221,565	114,788
258,020	4,398	221,511	114,792
259,034	4,356	221,388	114,687
260,049	4,390	221,084	114,544
261,063	4,387	220,946	114,460
262,078	4,512	220,940	114,540
263,093	4,801	220,810	114,676
264,107	4,427	220,652	114,307
265,122	4,084	220,574	114,002
266,136	4,544	220,396	114,241
267,151	4,554	220,272	114,173
268,166	4,040	219,998	113,642
269,180	4,088	219,748	113,538
270,195	3,884	219,580	113,291
271,209	3,977	219,493	113,305
272,224	4,188	219,392	113,397
273,239	4,085	219,276	113,252
274,253	3,995	219,108	113,089
275,268	3,940	218,828	112,893
276,282	4,198	218,625	112,968
277,297	3,598	218,562	112,485
278,312	3,935	218,368	112,623
279,326	4,019	218,459	112,721
280,341	4,205	218,128	112,676
281,355	4,004	218,165	112,538
282,370	4,027	217,970	112,444
283,384	4,094	217,750	112,370
284,399	3,757	217,523	111,996
285,414	3,834	217,461	112,011
286,428	4,058	217,464	112,165
287,443	4,325	217,232	112,231
288,457	4,210	217,273	112,158
289,472	4,052	217,001	111,893
290,487	3,640	216,729	111,443
291,501	3,555	216,660	111,336
292,516	3,789	216,565	111,447
293,530	3,746	216,449	111,346
294,545	3,867	216,289	111,341
295,560	3,981	216,103	111,319
296,574	4,068	216,079	111,359
297,589	3,833	216,019	111,149
298,603	4,074	215,795	111,197
299,618	4,153	215,598	111,143
300,633	4,021	215,601	111,039
301,647	4,278	215,391	111,106
302,662	4,203	215,318	111,004
303,676	4,371	215,146	111,027
304,691	4,245	215,017	110,860
305,706	4,360	214,975	110,911
306,720	4,241	214,721	110,684
307,735	4,068	214,567	110,471
308,749	3,855	214,378	110,211
309,764	4,276	214,203	110,413
310,779	4,325	214,129	110,400
311,793	4,223	214,034	110,268
312,808	4,216	213,915	110,192
313,822	4,445	213,611	110,189
314,837	4,268	213,490	109,991
315,852	3,880	213,383	109,649
316,866	4,278	213,246	109,853
317,881	4,282	213,299	109,873
318,895	4,291	212,936	109,683
319,910	4,095	212,878	109,503
320,925	3,825	212,709	109,215
321,939	3,683	212,415	108,954
322,954	3,728	212,484	109,011
323,968	4,085	212,371	109,196
324,983	4,045	212,342	109,143
325,997	4,288	212,184	109,225
327,012	4,182	212,081	109,087
328,027	4,044	211,872	108,872
329,041	4,311	211,859	109,045
330,056	4,563	211,550	109,054
331,070	4,208	211,387	108,710
332,085	3,850	211,267	108,386
333,100	3,757	211,146	108,249
334,114	4,081	211,020	108,402
335,129	4,202	210,846	108,388
336,143	3,998	210,733	108,177
337,158	3,958	210,589	108,066
338,173	3,990	210,368	107,966
339,187	3,851	210,160	107,752
340,202	3,663	210,119	107,589
341,216	3,774	209,974	107,583
342,231	3,878	209,867	107,591
343,246	3,888	209,751	107,529
344,260	4,168	209,498	107,586
345,275	4,073	209,443	107,481
346,289	4,019	209,425	107,425
347,304	3,934	209,340	107,312
348,319	3,914	209,228	107,231
349,333	4,135	209,077	107,299
350,348	4,043	208,858	107,112
351,362	4,285	208,787	107,235
352,377	4,305	208,680	107,184
353,392	4,004	208,513	106,880
354,406	4,008	208,355	106,792
355,421	193,536	1343,391	1430,754
356,435	154,412	1481,786	1430,874
