DTS Sentinel unit serial number:	SN410029Multiplexer serial number:	ORYXHardware model number:	OX2-SRSoftware version number:	ORYX F/W v4,00 Oryx Data Collector v3.7.2.0data status	okinstallation	B6 Nyhavnadifferential loss correction	single-endedforward channel	channel 2reverse channel	N/Adate	2023/12/10time	00:40:08forward acquisition time	300,00reverse acquisition time	0,00gamma	499,1914k internal	0,3126k external	0,3126temperature offset calibration	1,0000default loss term (dB/km)	0,3820temperature slope calibration	1,0000multiplexer offset coefficient	1,0000multiplexer slope coefficient	1,0000fibre end	0,00T internal ref (°C)	21,85T ext. ref 1 (°C)	5,70T ext. ref 2 (°C)	5,70length (m)	temperature (°C)	Stokes	anti-Stokes-744,400	430,766	-0,074	-0,120
-743,385	-28,117	-0,200	0,086
-742,371	-31,431	0,064	0,027
-741,356	123,260	-0,199	0,186
-740,342	-200,000	-0,039	0,158
-739,327	-31,007	-0,140	0,059
-738,312	-139,999	-0,140	-0,011
-737,298	-11,976	-0,263	-0,128
-736,283	-200,000	-0,022	-0,112
-735,269	-116,562	-0,327	0,044
-734,254	146,286	0,136	-0,136
-733,239	-105,730	-0,420	-0,070
-732,225	-98,013	0,155	-0,029
-731,210	-22,121	0,024	0,011
-730,196	-115,708	-0,127	0,017
-729,181	-200,000	0,018	-0,088
-728,167	-83,925	-0,108	-0,025
-727,152	-49,783	-0,153	-0,054
-726,137	800,000	0,008	-0,022
-725,123	37,284	-0,180	0,119
-724,108	165,430	-0,146	-0,154
-723,094	271,904	-0,147	-0,193
-722,079	772,123	-0,067	-0,137
-721,064	16,858	-0,159	-0,093
-720,050	-140,026	-0,015	0,001
-719,035	-101,365	0,135	0,024
-718,021	279,859	-0,012	0,016
-717,006	800,000	-0,025	-0,053
-715,991	-119,830	-0,099	-0,013
-714,977	-200,000	0,002	0,054
-713,962	-162,250	-0,169	-0,006
-712,948	-161,292	0,088	-0,003
-711,933	270,005	-0,046	0,060
-710,918	52,346	0,062	-0,044
-709,904	800,000	-0,073	-0,163
-708,889	-200,000	-0,006	-0,113
-707,875	-200,000	-0,009	-0,050
-706,860	339,559	-0,061	-0,089
-705,845	634,622	0,077	0,145
-704,831	170,839	0,031	0,033
-703,816	-200,000	0,025	0,084
-702,802	-200,000	-0,035	-0,117
-701,787	674,219	-0,077	-0,150
-700,772	424,172	-0,012	0,019
-699,758	4,947	-0,046	0,025
-698,743	283,678	-0,032	0,043
-697,729	-142,727	-0,076	-0,005
-696,714	-82,092	-0,114	-0,028
-695,699	124,749	0,036	-0,033
-694,685	800,000	-0,019	-0,042
-693,670	278,006	-0,089	-0,118
-692,656	-174,133	0,097	0,002
-691,641	-200,000	-0,021	-0,085
-690,627	-24,589	-0,065	-0,029
-689,612	-110,500	0,044	0,007
-688,597	573,023	0,072	-0,130
-687,583	44,679	0,023	-0,016
-686,568	-200,000	-0,043	-0,269
-685,554	-136,324	-0,138	0,012
-684,539	129,831	-0,035	0,033
-683,524	195,141	-0,004	-0,004
-682,510	-57,112	-0,047	-0,015
-681,495	800,000	0,034	-0,073
-680,481	63,353	0,039	-0,029
-679,466	577,296	-0,056	-0,102
-678,451	-200,000	0,038	-0,164
-677,437	233,810	0,039	0,047
-676,422	85,091	0,068	0,055
-675,408	160,268	-0,054	-0,056
-674,393	-95,791	0,116	0,023
-673,378	800,000	0,044	-0,137
-672,364	800,000	0,052	-0,125
-671,349	437,787	-0,062	-0,101
-670,335	800,000	0,026	-0,083
-669,320	-200,000	0,011	0,069
-668,305	-200,000	-0,005	-0,080
-667,291	524,701	-0,099	-0,174
-666,276	-200,000	-0,070	0,000
-665,262	18,062	-0,179	-0,106
-664,247	800,000	-0,030	0,094
-663,232	-34,201	-0,076	-0,031
-662,218	28,345	0,087	-0,054
-661,203	-200,000	-0,012	-0,117
-660,189	800,000	0,048	0,100
-659,174	-179,260	0,028	-0,000
-658,159	-200,000	-0,019	0,086
-657,145	800,000	0,060	-0,166
-656,130	-65,440	-0,091	0,027
-655,116	-72,828	-0,072	0,020
-654,101	-200,000	0,028	0,102
-653,086	34,867	0,014	0,009
-652,072	2,805	-0,202	-0,109
-651,057	-200,000	-0,045	0,154
-650,043	-9,152	-0,091	-0,045
-649,028	584,300	0,041	0,074
-648,014	205,098	-0,038	-0,044
-646,999	800,000	0,077	0,176
-645,984	-103,524	-0,106	0,018
-644,970	399,435	-0,073	-0,114
-643,955	39,574	-0,054	-0,036
-642,941	-43,803	0,110	-0,041
-641,926	589,104	-0,040	-0,073
-640,911	-59,275	-0,071	0,022
-639,897	19,254	0,092	-0,055
-638,882	-92,523	0,009	-0,002
-637,868	800,000	-0,036	-0,107
-636,853	-200,000	0,002	0,030
-635,838	63,930	-0,029	0,021
-634,824	-200,000	-0,020	-0,089
-633,809	90,406	-0,054	-0,045
-632,795	253,393	0,015	-0,019
-631,780	-185,639	0,080	0,001
-630,765	800,000	-0,014	-0,041
-629,751	-76,758	-0,103	-0,027
-628,736	-200,000	0,021	-0,072
-627,722	142,623	0,097	-0,095
-626,707	729,551	-0,034	-0,067
-625,692	145,344	0,107	0,106
-624,678	25,289	-0,077	-0,047
-623,663	710,651	0,015	-0,030
-622,649	18,457	-0,073	-0,043
-621,634	-49,685	0,036	0,013
-620,619	429,735	-0,076	-0,122
-619,605	-139,604	0,044	0,003
-618,590	-189,482	-0,093	-0,001
-617,576	7,051	0,048	0,026
-616,561	-200,000	-0,017	-0,063
-615,546	349,311	-0,112	0,164
-614,532	124,661	-0,094	-0,088
-613,517	-200,000	-0,020	-0,103
-612,503	112,140	0,014	0,013
-611,488	25,759	0,058	0,036
-610,474	111,470	-0,057	0,051
-609,459	17,125	0,021	0,012
-608,444	156,057	-0,078	0,080
-607,430	-200,000	0,001	0,066
-606,415	-200,000	-0,007	-0,105
-605,401	800,000	0,030	-0,074
-604,386	153,460	-0,037	0,037
-603,371	125,149	-0,202	0,189
-602,357	-112,005	0,103	-0,015
-601,342	414,637	0,029	-0,046
-600,328	-17,290	-0,167	0,078
-599,313	-91,230	-0,093	-0,020
-598,298	-200,000	-0,020	-0,118
-597,284	189,622	0,078	0,087
-596,269	800,000	-0,056	-0,140
-595,255	59,645	-0,044	-0,032
-594,240	800,000	0,022	0,057
-593,225	-64,652	-0,063	0,019
-592,211	-85,522	-0,085	0,019
-591,196	-88,467	0,069	0,015
-590,182	-92,850	-0,073	-0,015
-589,167	-134,921	-0,083	-0,007
-588,152	800,000	0,046	0,115
-587,138	42,357	-0,083	-0,056
-586,123	417,519	-0,041	-0,065
-585,109	-171,249	0,093	-0,002
-584,094	492,074	-0,058	0,098
-583,079	-134,595	0,100	0,009
-582,065	36,135	-0,065	0,042
-581,050	411,851	-0,073	0,115
-580,036	373,555	0,057	0,087
-579,021	-200,000	-0,014	-0,120
-578,006	800,000	-0,013	-0,030
-576,992	-200,000	-0,002	0,056
-575,977	800,000	-0,034	0,102
-574,963	-44,409	0,092	-0,034
-573,948	-200,000	0,003	-0,049
-572,934	-130,932	-0,087	-0,009
-571,919	110,096	0,029	0,026
-570,904	60,373	0,049	-0,036
-569,890	-50,929	0,054	-0,019
-568,875	800,000	-0,038	0,092
-567,861	-154,886	0,128	0,006
-566,846	41,038	-0,110	0,073
-565,831	60,330	0,067	-0,049
-564,817	800,000	0,021	0,063
-563,802	-13,879	-0,093	0,044
-562,788	112,591	-0,027	0,024
-561,773	232,178	0,044	0,053
-560,758	543,026	-0,034	-0,060
-559,744	800,000	0,005	0,017
-558,729	253,338	-0,069	0,088
-557,715	-200,000	0,000	0,095
-556,700	688,507	-0,053	-0,103
-555,685	800,000	0,005	-0,010
-554,671	9,380	0,015	0,008
-553,656	-200,000	0,016	0,144
-552,642	-200,000	-0,003	0,027
-551,627	-200,000	0,022	0,119
-550,612	800,000	0,090	-0,191
-549,598	28,280	-0,106	-0,066
-548,583	-51,139	0,031	-0,011
-547,569	-200,000	-0,010	0,054
-546,554	207,090	0,072	-0,083
-545,539	800,000	-0,025	0,067
-544,525	-200,000	0,025	0,087
-543,510	-200,000	-0,007	0,133
-542,496	-200,000	0,012	-0,045
-541,481	74,664	-0,067	-0,052
-540,466	241,286	-0,113	0,140
-539,452	800,000	0,033	-0,068
-538,437	-200,000	0,015	0,100
-537,423	-200,000	-0,011	0,061
-536,408	-57,946	-0,053	0,017
-535,393	-200,000	0,020	-0,114
-534,379	-200,000	-0,002	0,055
-533,364	63,935	0,059	-0,044
-532,350	45,781	0,020	0,013
-531,335	-200,000	-0,067	0,246
-530,321	-142,310	-0,123	-0,009
-529,306	800,000	-0,013	-0,039
-528,291	800,000	-0,080	-0,208
-527,277	-105,900	-0,094	-0,015
-526,262	326,349	0,074	0,104
-525,248	11,642	0,026	-0,015
-524,233	800,000	-0,082	-0,186
-523,218	-172,653	0,204	0,005
-522,204	-76,979	0,070	0,018
-521,189	43,218	-0,110	0,074
-520,175	-200,000	0,024	-0,147
-519,160	168,776	-0,105	0,111
-518,145	-141,963	0,088	-0,006
-517,131	-200,000	0,023	0,121
-516,116	-128,883	0,124	0,013
-515,102	800,000	-0,026	-0,053
-514,087	-86,221	-0,061	-0,014
-513,072	-70,705	0,049	-0,014
-512,058	154,074	0,074	-0,075
-511,043	800,000	0,037	-0,095
-510,029	487,599	-0,045	-0,076
-509,014	92,684	0,029	-0,024
-507,999	455,197	-0,040	-0,065
-506,985	-3,122	-0,128	0,066
-505,970	-200,000	0,001	-0,090
-504,956	18,910	0,101	-0,059
-503,941	184,022	0,075	-0,082
-502,926	-86,055	0,099	-0,022
-501,912	-200,000	-0,042	0,158
-500,897	28,770	-0,072	0,045
-499,883	9,376	-0,087	-0,048
-498,868	488,075	-0,042	-0,072
-497,853	344,256	-0,053	0,076
-496,839	361,733	0,113	0,168
-495,824	416,587	0,052	0,082
-494,810	-200,000	0,041	-0,179
-493,795	67,051	-0,096	-0,072
-492,781	245,363	0,069	-0,085
-491,766	-55,832	0,081	-0,027
-490,751	-200,000	-0,030	0,128
-489,737	-121,912	0,160	0,019
-488,722	199,888	-0,062	0,070
-487,708	-200,000	0,022	0,109
-486,693	-117,889	0,117	-0,015
-485,678	-200,000	-0,024	-0,154
-484,664	182,580	-0,079	-0,086
-483,649	-200,000	-0,040	-0,140
-482,635	22,449	-0,139	0,084
-481,620	2,848	-0,062	0,033
-480,605	-23,683	0,063	0,028
-479,591	-200,000	-0,005	-0,024
-478,576	800,000	-0,047	-0,110
-477,562	-200,000	0,027	0,100
-476,547	341,296	0,038	0,055
-475,532	104,069	-0,040	0,034
-474,518	-59,697	-0,058	-0,018
-473,503	238,914	0,088	-0,108
-472,489	73,419	0,032	0,024
-471,474	30,035	-0,103	0,065
-470,459	800,000	-0,036	0,102
-469,445	-12,029	-0,142	-0,068
-468,430	5,215	-0,109	0,059
-467,416	220,580	0,098	0,116
-466,401	316,463	0,062	0,086
-465,386	800,000	0,048	0,104
-464,372	40,155	0,052	-0,034
-463,357	3,226	0,047	-0,025
-462,343	-57,517	0,100	-0,032
-461,328	14,401	0,132	0,075
-460,313	-200,000	0,003	0,166
-459,299	7,913	-0,056	0,031
-458,284	331,934	-0,020	0,028
-457,270	492,732	-0,064	0,108
-456,255	-200,000	0,019	-0,081
-455,241	24,953	-0,203	-0,124
-454,226	800,000	0,012	-0,025
-453,211	-49,783	0,149	0,052
-452,197	800,000	-0,020	0,059
-451,182	-144,196	-0,077	0,005
-450,168	-32,506	0,134	0,055
-449,153	-58,554	0,029	0,009
-448,138	53,697	0,091	-0,064
-447,124	800,000	-0,070	-0,183
-446,109	-41,207	-0,095	-0,036
-445,095	45,858	0,101	-0,069
-444,080	-94,681	0,076	-0,015
-443,065	800,000	0,029	0,073
-442,051	1,914	0,133	0,070
-441,036	181,698	-0,165	-0,179
-440,022	282,103	-0,038	0,050
-439,007	40,670	-0,119	0,079
-437,992	23,403	0,174	0,105
-436,978	-52,795	0,030	0,010
-435,963	800,000	0,040	-0,092
-434,949	-200,000	0,012	0,060
-433,934	-107,272	-0,056	0,009
-432,919	625,489	-0,048	0,090
-431,905	-163,351	0,150	0,005
-430,890	-136,978	0,044	-0,004
-429,876	-200,000	-0,006	-0,073
-428,861	75,363	-0,053	0,041
-427,846	61,387	0,026	0,019
-426,832	361,682	-0,050	-0,075
-425,817	350,568	-0,082	-0,120
-424,803	93,286	0,027	0,022
-423,788	-157,791	-0,149	-0,006
-422,773	-150,419	-0,039	-0,002
-421,759	154,709	-0,088	0,089
-420,744	92,934	0,085	-0,070
-419,730	-200,000	-0,037	-0,209
-418,715	9,110	-0,183	-0,101
-417,701	800,000	0,010	-0,028
-416,686	-30,887	0,114	0,047
-415,671	148,127	0,037	0,037
-414,657	551,008	0,035	0,063
-413,642	24,541	-0,062	0,038
-412,628	800,000	0,009	0,023
-411,613	-200,000	0,012	-0,102
-410,598	44,136	0,097	0,065
-409,584	196,711	0,023	0,025
-408,569	800,000	-0,054	-0,114
-407,555	620,857	0,031	-0,058
-406,540	-132,986	0,047	-0,004
-405,525	-200,000	0,018	-0,133
-404,511	-106,061	0,050	-0,008
-403,496	800,000	-0,030	0,064
-402,482	-156,087	-0,083	-0,004
-401,467	22,596	-0,123	0,074
-400,452	-131,673	0,057	0,005
-399,438	363,319	0,018	0,026
-398,423	800,000	-0,051	0,156
-397,409	105,452	-0,175	-0,152
-396,394	-61,600	-0,037	0,011
-395,379	30,048	0,104	0,065
-394,365	14,170	-0,008	0,004
-393,350	-163,550	0,053	0,002
-392,336	-200,000	-0,013	0,106
-391,321	-200,000	-0,015	-0,074
-390,306	-28,097	-0,084	-0,036
-389,292	-54,756	-0,106	0,035
-388,277	214,087	0,076	-0,089
-387,263	234,563	0,022	0,026
-386,248	505,431	0,056	-0,095
-385,233	-14,182	-0,016	0,007
-384,219	-21,183	0,039	0,017
-383,204	28,706	0,041	0,026
-382,190	441,475	-0,050	0,080
-381,175	-71,684	-0,037	0,010
-380,160	-97,911	0,149	-0,028
-379,146	800,000	-0,025	-0,077
-378,131	-97,306	0,036	-0,007
-377,117	-200,000	-0,002	-0,064
-376,102	172,611	-0,076	-0,081
-375,088	62,823	0,048	-0,035
-374,073	-200,000	-0,016	-0,101
-373,058	442,243	0,024	-0,039
-372,044	-200,000	0,019	0,069
-371,029	699,968	0,012	-0,022
-370,015	607,933	0,064	0,118
-369,000	18,682	0,085	-0,050
-367,985	-13,048	-0,041	0,020
-366,971	242,577	-0,028	-0,034
-365,956	-200,000	0,024	0,114
-364,942	616,722	0,027	-0,051
-363,927	42,006	0,070	0,046
-362,912	197,630	0,010	-0,011
-361,898	255,853	-0,041	0,051
-360,883	-81,901	0,045	-0,011
-359,869	38,394	0,066	0,043
-358,854	-200,000	-0,003	-0,121
-357,839	800,000	0,038	-0,095
-356,825	800,000	-0,033	0,097
-355,810	575,250	0,021	0,038
-354,796	-118,640	-0,066	0,008
-353,781	-200,000	-0,009	-0,074
-352,766	-4,713	0,016	0,008
-351,752	-124,130	0,099	0,011
-350,737	-200,000	-0,022	0,092
-349,723	33,532	0,089	-0,057
-348,708	161,324	-0,031	-0,032
-347,693	800,000	0,047	0,133
-346,679	800,000	0,061	-0,142
-345,664	352,345	-0,078	-0,113
-344,650	-200,000	-0,002	-0,121
-343,635	800,000	0,029	-0,083
-342,620	-200,000	0,003	-0,021
-341,606	-85,584	0,068	-0,015
-340,591	-74,966	-0,036	0,009
-339,577	-49,784	0,046	-0,016
-338,562	356,693	0,078	-0,115
-337,548	-64,328	0,106	-0,031
-336,533	112,852	0,075	0,066
-335,518	-200,000	0,000	-0,041
-334,504	460,539	-0,047	0,077
-333,489	75,604	-0,047	0,036
-332,475	-187,083	-0,075	0,001
-331,460	366,086	-0,015	-0,023
-330,445	-200,000	0,039	0,136
-329,431	-2,856	0,084	0,043
-328,416	-94,094	-0,042	-0,008
-327,402	-8,837	-0,113	-0,055
-326,387	732,245	0,040	-0,079
-325,372	55,171	0,048	-0,034
-324,358	50,728	-0,063	-0,043
-323,343	373,088	-0,047	-0,070
-322,329	312,868	-0,037	0,051
-321,314	255,813	0,151	0,190
-320,299	171,730	-0,035	0,037
-319,285	-63,119	-0,106	-0,032
-318,270	800,000	0,020	-0,062
-317,256	-135,723	-0,013	0,001
-316,241	-64,997	-0,122	-0,036
-315,226	-83,456	-0,046	-0,011
-314,212	145,497	-0,028	0,028
-313,197	-12,829	0,100	0,047
-312,183	800,000	-0,044	-0,121
-311,168	85,521	-0,042	-0,034
-310,153	301,682	0,028	0,038
-309,139	160,388	-0,053	-0,054
-308,124	88,459	0,080	-0,065
-307,110	800,000	0,067	0,171
-306,095	39,893	-0,051	0,034
-305,080	105,170	0,100	-0,086
-304,066	-200,000	-0,039	0,145
-303,051	-200,000	0,007	-0,178
-302,037	469,542	-0,042	-0,069
-301,022	-6,601	0,030	0,015
-300,008	-0,740	-0,094	0,049
-298,993	-120,480	-0,052	0,006
-297,978	-116,212	0,102	-0,014
-296,964	774,799	-0,033	0,066
-295,949	382,144	-0,110	-0,165
-294,935	339,775	-0,091	0,130
-293,920	35,052	-0,051	0,032
-292,905	261,828	-0,030	0,039
-291,891	401,131	0,087	0,133
-290,876	296,143	-0,049	-0,065
-289,862	-90,046	0,069	-0,015
-288,847	-200,000	0,013	-0,125
-287,832	-200,000	-0,003	-0,033
-286,818	-200,000	-0,045	-0,170
-285,803	437,937	-0,065	0,103
-284,789	-66,651	0,135	0,039
-283,774	9,829	-0,041	0,023
-282,759	62,732	-0,012	0,009
-281,745	-149,863	-0,122	0,007
-280,730	800,000	-0,047	0,138
-279,716	388,778	0,027	0,042
-278,701	-200,000	-0,012	-0,069
-277,686	201,296	0,131	0,147
-276,672	800,000	0,021	0,045
-275,657	400,642	0,019	-0,029
-274,643	-65,060	-0,110	-0,032
-273,628	-200,000	0,029	0,117
-272,613	220,570	0,094	-0,110
-271,599	-200,000	0,080	0,000
-270,584	800,000	0,049	0,118
-269,570	48,603	0,084	-0,058
-268,555	626,886	-0,034	-0,063
-267,540	333,145	-0,030	0,042
-266,526	-200,000	-0,028	-0,165
-265,511	-116,257	0,104	-0,014
-264,497	-115,070	0,057	-0,008
-263,482	238,693	-0,047	0,057
-262,467	800,000	-0,025	-0,064
-261,453	318,182	0,055	0,076
-260,438	31,798	-0,075	0,047
-259,424	-51,659	-0,077	0,026
-258,409	800,000	-0,024	0,057
-257,395	-55,438	0,071	0,023
-256,380	402,437	0,067	0,104
-255,365	616,155	-0,059	0,108
-254,351	502,729	-0,060	-0,102
-253,336	-84,930	0,096	0,022
-252,322	195,763	0,068	-0,076
-251,307	416,295	-0,087	-0,137
-250,292	-200,000	0,006	0,148
-249,278	177,668	0,098	0,104
-248,263	-55,143	-0,096	0,031
-247,249	-36,025	0,102	-0,040
-246,234	-32,420	-0,109	-0,044
-245,219	321,903	0,112	-0,156
-244,205	514,722	0,073	-0,125
-243,190	418,443	0,016	0,025
-242,176	-154,711	0,188	-0,009
-241,161	55,411	0,075	0,053
-240,146	-200,000	-0,001	0,008
-239,132	800,000	0,053	-0,145
-238,117	130,685	0,021	-0,019
-237,103	31,714	-0,042	-0,026
-236,088	327,933	0,036	0,050
-235,073	652,554	-0,075	0,141
-234,059	-35,887	-0,055	0,022
-233,044	161,462	0,081	0,082
-232,030	800,000	-0,011	0,025
-231,015	-200,000	-0,031	-0,107
-230,000	-0,150	0,149	0,077
-228,986	82,926	-0,028	0,022
-227,971	60,060	0,144	0,104
-226,957	-5,529	0,040	0,020
-225,942	800,000	0,056	0,117
-224,927	139,581	-0,071	-0,069
-223,913	-200,000	-0,004	0,080
-222,898	-37,600	0,071	0,028
-221,884	800,000	0,033	0,104
-220,869	-78,006	0,067	0,017
-219,855	129,005	-0,119	0,111
-218,840	-200,000	0,004	0,058
-217,825	-200,000	0,009	-0,034
-216,811	-135,137	-0,109	-0,009
-215,796	1,621	0,032	0,017
-214,782	800,000	0,033	-0,068
-213,767	-15,221	-0,093	-0,043
-212,752	800,000	-0,006	-0,018
-211,738	-121,952	-0,163	0,019
-210,723	-158,368	0,168	0,007
-209,709	-56,938	-0,139	-0,044
-208,694	381,248	0,045	-0,067
-207,679	134,875	-0,093	-0,088
-206,665	152,242	0,082	-0,082
-205,650	-14,110	0,095	-0,045
-204,636	788,979	-0,038	0,077
-203,621	136,181	0,121	0,115
-202,606	-200,000	-0,049	-0,000
-201,592	-92,672	0,123	-0,025
-200,577	476,266	-0,058	-0,097
-199,563	261,906	-0,035	0,045
-198,548	106,305	-0,045	-0,039
-197,533	-200,000	0,004	0,145
-196,519	474,284	-0,043	0,071
-195,504	491,515	-0,052	-0,086
-194,490	65,648	0,074	-0,054
-193,475	96,238	-0,181	-0,151
-192,460	532,011	0,052	-0,091
-191,446	-200,000	-0,020	0,121
-190,431	24,972	-0,055	0,033
-189,417	-138,125	-0,056	0,004
-188,402	-37,076	-0,073	0,028
-187,387	-8,199	-0,038	0,019
-186,373	-200,000	-0,023	-0,142
-185,358	-101,195	0,085	-0,015
-184,344	800,000	0,039	0,085
-183,329	800,000	-0,017	0,038
-182,315	-200,000	0,010	0,037
-181,300	-200,000	0,011	0,042
-180,285	119,961	-0,070	-0,063
-179,271	268,356	0,019	0,024
-178,256	125,108	-0,051	0,047
-177,242	-102,669	0,051	-0,009
-176,227	800,000	0,027	0,063
-175,212	-200,000	-0,034	-0,126
-174,198	184,960	0,045	-0,049
-173,183	-200,000	0,005	-0,055
-172,169	-200,000	-0,002	0,048
-171,154	-29,426	0,051	0,021
-170,139	-32,229	0,094	-0,038
-169,125	-200,000	0,014	-0,103
-168,110	590,429	0,048	0,086
-167,096	242,141	0,033	0,041
-166,081	-69,529	-0,037	-0,010
-165,066	800,000	-0,016	0,047
-164,052	-200,000	0,003	-0,135
-163,037	-200,000	0,002	-0,087
-162,023	-74,555	0,191	0,050
-161,008	-200,000	0,009	0,097
-159,993	800,000	-0,001	0,002
-158,979	-200,000	-0,059	0,220
-157,964	10,405	-0,057	-0,032
-156,950	300,947	0,080	-0,108
-155,935	202,949	-0,056	-0,063
-154,920	-69,009	-0,048	0,014
-153,906	-96,876	0,045	0,009
-152,891	141,022	0,052	0,050
-151,877	-200,000	0,007	0,105
-150,862	7,360	-0,087	-0,047
-149,847	44,119	0,072	-0,048
-148,833	-26,481	0,052	0,022
-147,818	-91,044	0,164	-0,034
-146,804	-200,000	-0,001	0,077
-145,789	-86,497	-0,118	0,026
-144,775	-17,729	0,039	-0,018
-143,760	235,983	-0,107	0,129
-142,745	13,235	0,100	-0,056
-141,731	276,351	-0,083	0,107
-140,716	-190,701	0,142	-0,001
-139,702	-30,915	0,094	-0,039
-138,687	11,266	-0,101	-0,056
-137,672	438,067	0,040	0,064
-136,658	-144,689	-0,044	0,003
-135,643	665,920	0,016	-0,030
-134,629	-200,000	0,004	-0,059
-133,614	-200,000	0,012	0,060
-132,599	-200,000	0,021	0,081
-131,585	618,797	0,093	0,171
-130,570	-200,000	0,006	-0,127
-129,556	-200,000	-0,012	-0,091
-128,541	172,903	-0,029	0,031
-127,526	-200,000	-0,019	0,078
-126,512	800,000	-0,032	-0,070
-125,497	800,000	0,052	-0,126
-124,483	373,528	-0,070	0,104
-123,468	483,326	-0,062	0,103
-122,453	-143,958	0,027	-0,002
-121,439	-200,000	0,019	0,127
-120,424	-200,000	0,020	0,091
-119,410	68,175	-0,065	0,048
-118,395	-2,457	0,099	-0,050
-117,380	-84,505	0,113	-0,026
-116,366	-20,018	0,006	-0,003
-115,351	800,000	-0,030	-0,063
-114,337	-200,000	0,011	0,104
-113,322	-7,257	0,010	0,005
-112,307	-153,071	-0,079	-0,004
-111,293	800,000	-0,029	0,073
-110,278	-200,000	-0,028	0,108
-109,264	-200,000	-0,002	0,063
-108,249	-25,376	0,014	-0,006
-107,234	-156,535	-0,119	0,005
-106,220	-179,566	-0,077	0,001
-105,205	-54,550	-0,085	0,028
-104,191	-200,000	0,004	-0,018
-103,176	0,560	0,102	0,053
-102,162	-15,024	-0,133	0,062
-101,147	97,076	0,140	0,116
-100,132	410,627	0,013	-0,020
-99,118	177,581	0,123	-0,131
-98,103	-124,125	0,066	0,007
-97,089	-11,005	-0,060	0,029
-96,074	103,068	0,006	0,005
-95,059	-98,245	-0,107	0,020
-94,045	98,307	-0,103	-0,086
-93,030	-142,960	0,073	0,005
-92,016	-94,118	0,090	-0,018
-91,001	-200,000	-0,011	-0,119
-89,986	383,029	0,022	0,033
-88,972	800,000	0,049	0,128
-87,957	-151,742	0,054	0,003
-86,943	-200,000	-0,011	0,081
-85,928	18,344	0,056	0,032
-84,913	-188,004	-0,216	-0,002
-83,899	-200,000	-0,007	-0,067
-82,884	36,038	0,028	0,018
-81,870	-200,000	-0,017	0,093
-80,855	800,000	-0,020	-0,047
-79,840	-121,644	0,030	-0,004
-78,826	-200,000	0,012	-0,089
-77,811	-121,544	0,030	0,004
-76,797	48,149	0,076	-0,052
-75,782	800,000	0,024	0,073
-74,767	-72,266	0,019	0,005
-73,753	333,074	0,102	0,143
-72,738	-150,450	0,078	0,004
-71,724	-37,282	0,074	0,029
-70,709	-48,146	-0,050	0,017
-69,694	800,000	-0,062	-0,150
-68,680	-17,171	0,062	-0,028
-67,665	758,218	-0,029	-0,058
-66,651	-3,420	0,157	0,079
-65,636	800,000	0,051	-0,137
-64,622	-165,096	0,167	0,005
-63,607	782,584	0,023	0,046
-62,592	3,264	0,106	-0,056
-61,578	176,050	-0,086	-0,091
-60,563	88,442	0,067	0,054
-59,549	-77,263	-0,162	0,041
-58,534	-105,370	-1,428	-0,233
-57,519	719,079	-0,733	-1,418
-56,505	-200,000	-0,869	-4,549
-55,490	-98,692	0,666	-0,122
-54,476	800,000	4,893	11,811
-53,461	-200,000	14,108	252,659
-52,446	-200,000	694,018	2236,247
-51,432	572,437	1624,256	2880,727
-50,417	117,331	1632,576	1455,078
-49,403	72,391	1286,442	970,907
-48,388	37,454	1023,068	656,304
-47,373	23,863	981,083	584,719
-46,359	23,065	970,592	575,831
-45,344	22,059	966,358	570,013
-44,330	22,024	964,943	569,044
-43,315	21,892	963,408	567,686
-42,300	21,957	962,334	567,244
-41,286	21,953	961,207	566,540
-40,271	21,810	960,555	565,672
-39,257	21,864	959,635	565,282
-38,242	21,877	958,498	564,632
-37,227	21,823	957,853	564,055
-36,213	21,814	956,709	563,329
-35,198	21,816	956,027	562,911
-34,184	21,854	955,663	562,799
-33,169	21,813	954,567	561,997
-32,154	21,883	953,518	561,584
-31,140	21,919	952,518	561,090
-30,125	21,922	951,973	560,754
-29,111	21,891	951,098	560,119
-28,096	21,954	950,287	559,820
-27,082	21,887	949,706	559,241
-26,067	21,904	948,814	558,748
-25,052	21,862	948,282	558,277
-24,038	21,946	947,520	558,076
-23,023	21,913	946,860	557,560
-22,009	21,870	946,263	557,048
-20,994	21,942	945,579	556,852
-19,979	21,851	945,170	556,301
-18,965	21,937	944,322	556,052
-17,950	21,874	943,737	555,485
-16,936	21,867	943,035	555,028
-15,921	21,805	942,504	554,497
-14,906	21,716	941,758	553,752
-13,892	21,770	941,063	553,493
-12,877	21,790	940,250	553,058
-11,863	21,748	939,913	552,704
-10,848	21,786	939,316	552,452
-9,833	21,863	938,909	552,433
-8,819	21,843	938,225	551,944
-7,804	21,811	937,484	551,385
-6,790	21,733	936,893	550,770
-5,775	21,808	936,344	550,663
-4,760	21,755	935,740	550,119
-3,746	21,687	935,275	549,609
-2,731	21,574	934,479	548,761
-1,717	21,551	933,803	548,271
-0,702	21,576	933,184	547,964
0,313	21,367	932,460	547,708
1,327	24,579	930,375	556,521
2,342	34,195	794,245	500,635
3,356	32,065	449,992	280,420
4,371	1,025	292,855	151,636
5,386	-3,309	273,705	137,624
6,400	-4,657	268,047	133,522
7,415	-5,194	265,699	131,848
8,429	-4,811	264,531	131,606
9,444	-4,929	263,608	131,028
10,459	-5,061	263,191	130,688
11,473	-5,005	262,424	130,346
12,488	-4,976	261,881	130,092
13,502	-5,040	261,577	129,872
14,517	-5,158	261,023	129,479
15,531	-5,067	260,721	129,400
16,546	-4,887	260,199	129,290
17,561	-5,132	260,024	128,972
18,575	-4,852	259,494	128,948
19,590	-5,002	259,207	128,660
20,604	-4,930	259,024	128,622
21,619	-4,998	258,566	128,322
22,634	-4,980	258,284	128,187
23,648	-5,200	258,089	127,884
24,663	-5,043	257,743	127,840
25,677	-5,006	257,399	127,690
26,692	-5,017	257,216	127,578
27,707	-5,282	256,908	127,180
28,721	-5,102	256,843	127,296
29,736	-5,112	256,434	127,073
30,750	-5,042	256,135	126,975
31,765	-5,158	255,947	126,768
32,780	-5,225	255,825	126,637
33,794	-4,930	255,452	126,701
34,809	-5,014	255,248	126,515
35,823	-4,921	255,099	126,511
36,838	-5,070	254,921	126,281
37,853	-5,190	254,576	125,994
38,867	-4,910	254,280	126,081
39,882	-5,178	254,033	125,714
40,896	-5,169	253,956	125,671
41,911	-5,082	253,640	125,580
42,926	-5,152	253,403	125,390
43,940	-5,054	253,159	125,344
44,955	-5,209	253,039	125,138
45,969	-5,133	252,665	125,008
46,984	-5,561	252,613	124,600
47,999	-5,578	252,294	124,417
49,013	-5,537	251,927	124,260
50,028	-5,753	251,772	123,985
51,042	-5,786	251,619	123,870
52,057	-5,817	251,200	123,627
53,071	-5,617	251,053	123,715
54,086	-5,800	251,015	123,528
55,101	-5,488	250,779	123,669
56,115	-5,306	250,683	123,768
57,130	-5,101	250,631	123,908
58,144	-4,845	250,442	124,023
59,159	-4,846	250,166	123,875
60,174	-4,737	249,807	123,779
61,188	-4,827	249,782	123,679
62,203	-4,860	249,419	123,460
63,217	-5,112	249,347	123,197
64,232	-4,923	249,004	123,178
65,247	-5,041	248,978	123,054
66,261	-5,020	248,643	122,895
67,276	-5,145	248,405	122,661
68,290	-5,438	248,281	122,338
69,305	-5,487	247,894	122,095
70,320	-5,424	247,789	122,086
71,334	-5,135	247,653	122,254
72,349	-5,008	247,562	122,305
73,363	-5,044	247,387	122,178
74,378	-4,899	247,101	122,149
75,393	-5,144	247,109	121,934
76,407	-5,158	246,718	121,718
77,422	-5,171	246,496	121,587
78,436	-4,919	246,233	121,659
79,451	-4,939	246,135	121,583
80,466	-5,180	246,002	121,303
81,480	-5,105	245,622	121,168
82,495	-5,246	245,473	120,966
83,509	-5,131	245,234	120,934
84,524	-5,269	245,120	120,750
85,539	-5,399	244,811	120,478
86,553	-5,560	244,665	120,261
87,568	-5,331	244,522	120,372
88,582	-5,299	244,342	120,300
89,597	-5,266	244,123	120,208
90,611	-5,213	243,998	120,180
91,626	-5,060	243,852	120,225
92,641	-5,149	243,754	120,092
93,655	-5,062	243,491	120,024
94,670	-5,020	243,221	119,915
95,684	-4,866	243,078	119,963
96,699	-5,100	242,857	119,648
97,714	-5,314	242,747	119,406
98,728	-5,325	242,422	119,225
99,743	-5,438	242,254	119,039
100,757	-5,459	242,013	118,892
101,772	-5,317	241,832	118,911
102,787	-5,255	241,617	118,846
103,801	-5,313	241,690	118,823
104,816	-5,175	241,492	118,829
105,830	-5,255	241,482	118,747
106,845	-4,991	241,074	118,753
107,860	-5,199	240,961	118,516
108,874	-5,179	240,824	118,454
109,889	-5,210	240,519	118,269
110,903	-5,074	240,234	118,229
111,918	-5,295	240,075	117,960
112,933	-5,175	239,973	117,998
113,947	-5,203	239,753	117,856
114,962	-5,125	239,633	117,850
115,976	-5,067	239,436	117,789
116,991	-5,143	239,356	117,678
118,006	-4,943	239,038	117,674
119,020	-5,209	239,151	117,502
120,035	-5,065	239,008	117,539
121,049	-5,029	238,661	117,387
122,064	-5,076	238,597	117,307
123,079	-5,105	238,329	117,141
124,093	-5,263	238,224	116,951
125,108	-5,158	237,880	116,857
126,122	-5,560	237,728	116,445
127,137	-5,512	237,526	116,375
128,151	-5,455	237,451	116,374
129,166	-5,270	237,215	116,398
130,181	-5,465	237,006	116,127
131,195	-5,322	236,864	116,163
132,210	-5,190	236,743	116,199
133,224	-5,357	236,633	116,001
134,239	-5,159	236,399	116,034
135,254	-4,882	236,246	116,173
136,268	-5,181	235,918	115,760
137,283	-5,555	235,736	115,360
138,297	-5,463	235,628	115,371
139,312	-5,574	235,480	115,199
140,327	-5,236	235,412	115,426
141,341	-4,861	235,374	115,699
142,356	-4,778	235,144	115,642
143,370	-4,928	235,011	115,446
144,385	-4,879	234,939	115,439
145,400	-4,632	234,564	115,442
146,414	-4,704	234,349	115,269
147,429	-4,794	234,339	115,182
148,443	-4,870	234,056	114,972
149,458	-4,787	233,967	114,985
150,473	-4,708	233,718	114,914
151,487	-4,819	233,613	114,764
152,502	-4,699	233,325	114,708
153,516	-4,827	233,327	114,597
154,531	-4,655	233,169	114,646
155,546	-4,925	232,873	114,276
156,560	-4,731	232,769	114,368
157,575	-5,068	232,538	113,978
158,589	-4,924	232,344	113,986
159,604	-4,875	232,334	114,010
160,619	-4,714	232,017	113,971
161,633	-4,796	231,941	113,859
162,648	-4,679	231,809	113,876
163,662	-4,799	231,638	113,688
164,677	-4,726	231,481	113,658
165,692	-4,871	231,386	113,487
166,706	-4,870	231,304	113,437
167,721	-4,713	231,057	113,430
168,735	-4,758	230,886	113,300
169,750	-4,754	230,797	113,249
170,764	-4,732	230,632	113,176
171,779	-4,624	230,434	113,154
172,794	-4,450	230,304	113,216
173,808	-4,747	230,065	112,856
174,823	-5,250	229,788	112,317
175,837	-5,189	229,551	112,239
176,852	-4,937	229,657	112,477
177,867	-4,874	229,571	112,474
178,881	-4,898	229,541	112,430
179,896	-4,570	229,095	112,457
180,910	-4,534	228,846	112,353
181,925	-4,634	228,904	112,294
182,940	-4,677	228,673	112,137
183,954	-4,655	228,688	112,151
184,969	-4,874	228,475	111,867
185,983	-4,722	228,429	111,953
186,998	-4,484	228,260	112,045
188,013	-4,529	228,007	111,875
189,027	-4,673	227,764	111,635
190,042	-4,624	227,748	111,655
191,056	-4,704	227,449	111,436
192,071	-4,638	227,384	111,445
193,086	-4,592	227,147	111,355
194,100	-4,723	227,080	111,212
195,115	-4,944	226,847	110,917
196,129	-5,149	226,676	110,667
197,144	-2,464	227,634	113,196
198,159	1,561	228,639	116,799
199,173	3,779	229,052	118,715
200,188	3,924	229,012	118,796
201,202	4,039	228,743	118,735
202,217	3,969	228,794	118,697
203,232	4,264	228,620	118,823
204,246	4,410	228,627	118,928
205,261	4,461	228,428	118,854
206,275	4,652	228,288	118,917
207,290	4,549	228,166	118,764
208,304	4,867	227,922	118,870
209,319	4,599	227,769	118,574
210,334	4,433	227,508	118,300
211,348	4,371	227,431	118,203
212,363	4,268	227,091	117,936
213,377	3,672	226,948	117,396
214,392	3,704	226,814	117,341
215,407	3,662	226,658	117,218
216,421	4,104	226,450	117,437
217,436	3,868	226,274	117,155
218,450	3,774	226,014	116,938
219,465	3,426	225,928	116,618
220,480	3,787	225,709	116,770
221,494	3,609	225,694	116,616
222,509	3,485	225,727	116,528
223,523	3,604	225,387	116,433
224,538	3,605	225,197	116,325
225,553	3,966	225,160	116,569
226,567	3,845	224,982	116,375
227,582	4,079	224,933	116,516
228,596	4,143	224,822	116,497
229,611	3,934	224,597	116,212
230,626	3,562	224,413	115,826
231,640	3,624	224,230	115,768
232,655	3,743	224,368	115,918
233,669	4,352	224,172	116,266
234,684	4,659	223,973	116,383
235,699	4,110	223,820	115,880
236,713	4,034	223,503	115,649
237,728	3,697	223,360	115,311
238,742	3,766	223,200	115,270
239,757	3,742	223,120	115,201
240,772	3,861	222,830	115,130
241,786	3,771	222,662	114,965
242,801	3,674	222,816	114,962
243,815	4,112	222,641	115,189
244,830	4,149	222,540	115,154
245,844	3,773	222,258	114,717
246,859	4,046	222,079	114,818
247,874	4,071	221,902	114,735
248,888	4,295	221,855	114,868
249,903	4,095	221,673	114,615
250,917	3,803	221,548	114,322
251,932	3,555	221,383	114,043
252,947	3,542	221,249	113,954
253,961	3,617	221,069	113,906
254,976	3,868	220,906	113,999
255,990	3,891	220,831	113,967
257,005	3,855	220,867	113,949
258,020	3,943	220,720	113,928
259,034	4,242	220,492	114,021
260,049	4,085	220,359	113,826
261,063	3,844	220,347	113,632
262,078	4,200	220,072	113,743
263,093	4,124	220,015	113,647
264,107	4,042	219,964	113,550
265,122	3,997	219,671	113,355
266,136	4,214	219,571	113,453
267,151	4,292	219,384	113,404
268,166	3,866	219,158	112,964
269,180	3,599	218,949	112,650
270,195	3,504	218,691	112,438
271,209	3,537	218,761	112,488
272,224	3,887	218,511	112,606
273,239	3,737	218,422	112,440
274,253	3,696	218,185	112,278
275,268	3,495	218,121	112,088
276,282	3,638	217,791	112,013
277,297	3,322	217,820	111,787
278,312	3,666	217,647	111,939
279,326	3,618	217,545	111,842
280,341	3,808	217,380	111,885
281,355	3,592	217,472	111,765
282,370	3,776	217,136	111,716
283,384	3,567	216,869	111,418
284,399	3,384	216,733	111,205
285,414	3,661	216,682	111,370
286,428	3,627	216,726	111,358
287,443	3,751	216,465	111,304
288,457	3,924	216,309	111,338
289,472	3,714	216,158	111,100
290,487	3,491	215,803	110,745
291,501	3,382	215,770	110,640
292,516	3,477	215,669	110,647
293,530	3,466	215,541	110,564
294,545	3,061	215,440	110,210
295,560	3,361	215,262	110,325
296,574	4,019	215,199	110,757
297,589	3,930	215,089	110,626
298,603	3,829	215,003	110,499
299,618	3,829	214,818	110,395
300,633	3,687	214,851	110,300
301,647	3,814	214,712	110,309
302,662	3,872	214,630	110,299
303,676	4,051	214,270	110,232
304,691	3,881	214,183	110,056
305,706	4,076	214,126	110,157
306,720	4,045	213,820	109,967
307,735	3,815	213,667	109,715
308,749	3,584	213,600	109,506
309,764	3,884	213,381	109,598
310,779	4,160	213,203	109,693
311,793	3,809	213,090	109,375
312,808	3,737	213,085	109,311
313,822	3,816	212,893	109,259
314,837	3,806	212,887	109,239
315,852	3,579	212,586	108,914
316,866	3,706	212,431	108,915
317,881	4,030	212,447	109,144
318,895	3,948	212,308	109,004
319,910	3,900	212,136	108,872
320,925	3,607	211,803	108,484
321,939	3,279	211,693	108,187
322,954	3,300	211,661	108,175
323,968	3,762	211,598	108,460
324,983	3,815	211,623	108,500
325,997	3,999	211,364	108,488
327,012	3,755	211,109	108,175
328,027	4,044	211,086	108,358
329,041	4,021	211,174	108,377
330,056	4,275	210,763	108,334
331,070	3,904	210,645	108,004
332,085	3,788	210,495	107,836
333,100	3,498	210,427	107,588
334,114	3,860	210,120	107,675
335,129	3,780	210,004	107,550
336,143	3,463	209,864	107,247
337,158	3,469	209,782	107,200
338,173	3,713	209,521	107,227
339,187	3,516	209,323	106,978
340,202	3,520	209,226	106,922
341,216	3,094	209,197	106,600
342,231	3,588	208,990	106,830
343,246	3,571	208,906	106,766
344,260	3,500	208,968	106,739
345,275	3,722	208,597	106,694
346,289	3,764	208,604	106,717
347,304	4,032	208,430	106,805
348,319	3,730	208,305	106,521
349,333	3,795	208,132	106,469
350,348	3,812	208,097	106,453
351,362	4,058	207,953	106,539
352,377	3,904	208,051	106,474
353,392	3,842	207,692	106,238
354,406	3,997	207,504	106,239
355,421	194,593	1343,365	1432,722
356,435	155,273	1481,846	1432,826
