DTS Sentinel unit serial number:	SN410029Multiplexer serial number:	ORYXHardware model number:	OX2-SRSoftware version number:	ORYX F/W v4,00 Oryx Data Collector v3.7.2.0data status	okinstallation	B6 Nyhavnadifferential loss correction	single-endedforward channel	channel 2reverse channel	N/Adate	2023/12/10time	15:45:08forward acquisition time	300,00reverse acquisition time	0,00gamma	499,1914k internal	0,3122k external	0,3122temperature offset calibration	1,0000default loss term (dB/km)	0,3820temperature slope calibration	1,0000multiplexer offset coefficient	1,0000multiplexer slope coefficient	1,0000fibre end	0,00T internal ref (°C)	22,38T ext. ref 1 (°C)	5,98T ext. ref 2 (°C)	5,99length (m)	temperature (°C)	Stokes	anti-Stokes-744,400	16,887	-0,069	-0,041
-743,385	35,911	-0,201	0,132
-742,371	-157,662	0,021	0,001
-741,356	105,103	-0,205	0,180
-740,342	-151,390	0,118	0,006
-739,327	9,073	-0,199	0,111
-738,312	171,449	0,049	-0,053
-737,298	-32,763	-0,220	-0,091
-736,283	250,308	0,044	-0,055
-735,269	-34,301	-0,231	0,094
-734,254	110,462	0,136	0,122
-733,239	-89,063	-0,449	-0,098
-732,225	17,919	0,137	0,081
-731,210	-38,728	-0,075	0,029
-730,196	354,859	-0,091	-0,135
-729,181	65,824	0,035	-0,026
-728,167	63,318	-0,050	-0,037
-727,152	114,097	0,043	0,039
-726,137	48,351	-0,145	0,101
-725,123	576,157	0,043	-0,079
-724,108	378,176	0,045	-0,068
-723,094	800,000	-0,013	0,037
-722,079	46,331	0,049	0,034
-721,064	-24,034	-0,222	-0,099
-720,050	565,222	0,085	-0,155
-719,035	800,000	0,018	0,044
-718,021	-110,568	-0,142	0,022
-717,006	-1,835	-0,117	0,061
-715,991	-34,099	-0,212	-0,086
-714,977	-63,520	-0,050	-0,015
-713,962	-9,974	-0,069	-0,034
-712,948	111,613	0,064	0,058
-711,933	800,000	-0,025	0,052
-710,918	122,761	-0,053	0,050
-709,904	-158,090	0,009	0,000
-708,889	300,131	-0,046	-0,063
-707,875	89,718	-0,021	0,017
-706,860	-53,550	-0,070	0,024
-705,845	-200,000	0,006	0,103
-704,831	-148,603	0,109	0,007
-703,816	413,505	0,041	0,065
-702,802	25,069	-0,088	0,054
-701,787	800,000	0,036	-0,087
-700,772	235,720	-0,051	-0,063
-699,758	410,933	-0,055	0,087
-698,743	-200,000	-0,001	0,023
-697,729	89,071	0,095	0,079
-696,714	178,301	0,058	-0,063
-695,699	-200,000	0,014	-0,118
-694,685	-200,000	-0,020	-0,157
-693,670	-29,520	-0,224	-0,095
-692,656	244,988	0,045	-0,056
-691,641	7,522	-0,024	-0,013
-690,627	800,000	0,053	0,128
-689,612	800,000	-0,035	-0,108
-688,597	-47,402	0,083	0,030
-687,583	-193,619	-0,093	-0,001
-686,568	112,014	0,044	0,040
-685,554	-200,000	0,008	-0,087
-684,539	-40,919	-0,024	0,009
-683,524	-67,850	-0,222	-0,064
-682,510	-37,837	0,176	0,069
-681,495	-151,925	-0,096	0,005
-680,481	-200,000	0,003	0,063
-679,466	-152,275	-0,120	0,006
-678,451	46,926	-0,021	0,015
-677,437	800,000	0,022	0,052
-676,422	386,431	-0,062	0,095
-675,408	-13,350	0,040	-0,019
-674,393	800,000	-0,021	-0,045
-673,378	-33,406	-0,134	0,055
-672,364	170,668	-0,066	-0,070
-671,349	-47,067	-0,182	0,066
-670,335	-116,124	0,104	0,014
-669,320	800,000	-0,017	-0,050
-668,305	-200,000	-0,002	-0,046
-667,291	-100,857	0,034	-0,006
-666,276	-138,184	-0,169	0,014
-665,262	-200,000	-0,007	0,067
-664,247	489,069	-0,020	0,034
-663,232	16,590	-0,072	0,042
-662,218	295,466	0,060	0,082
-661,203	212,449	-0,062	0,073
-660,189	-200,000	0,008	0,080
-659,174	800,000	0,035	-0,083
-658,159	-184,232	0,222	-0,003
-657,145	75,145	-0,020	0,015
-656,130	-200,000	-0,008	-0,038
-655,116	221,133	-0,029	-0,035
-654,101	375,947	0,038	0,058
-653,086	635,371	-0,020	-0,038
-652,072	-0,726	-0,117	-0,061
-651,057	103,519	-0,088	-0,077
-650,043	31,704	0,097	0,062
-649,028	-69,089	0,064	-0,018
-648,014	-200,000	-0,006	-0,039
-646,999	37,642	-0,172	0,113
-645,984	-200,000	0,017	-0,101
-644,970	-60,824	-0,110	0,034
-643,955	147,590	-0,035	-0,035
-642,941	784,491	-0,017	-0,035
-641,926	-200,000	0,009	-0,032
-640,911	99,247	0,016	0,014
-639,897	589,457	0,036	0,065
-638,882	800,000	0,010	-0,033
-637,868	-112,437	-0,164	-0,024
-636,853	-27,451	-0,123	-0,053
-635,838	-39,009	0,068	0,027
-634,824	-81,489	0,165	-0,040
-633,809	-26,607	0,075	-0,033
-632,795	-44,132	-0,142	-0,053
-631,780	-200,000	0,010	0,047
-630,765	-63,929	-0,056	-0,017
-629,751	-104,541	-0,107	-0,018
-628,736	-6,891	-0,007	0,003
-627,722	800,000	0,060	-0,150
-626,707	38,427	0,134	-0,088
-625,692	657,550	-0,019	0,037
-624,678	1,540	0,023	-0,012
-623,663	669,822	0,040	0,078
-622,649	664,908	0,012	0,023
-621,634	475,771	0,069	0,116
-620,619	-177,435	-0,087	-0,002
-619,605	-8,811	0,075	0,037
-618,590	66,625	0,180	0,136
-617,576	-63,167	0,092	-0,028
-616,561	17,836	-0,031	-0,018
-615,546	135,226	-0,085	0,082
-614,532	-4,134	-0,078	-0,040
-613,517	800,000	-0,068	-0,155
-612,503	-200,000	0,023	-0,147
-611,488	-200,000	-0,004	0,064
-610,474	336,234	-0,078	0,113
-609,459	-108,613	0,026	0,004
-608,444	88,404	0,077	0,063
-607,430	-61,548	-0,069	-0,021
-606,415	157,330	0,078	-0,080
-605,401	113,562	0,018	0,016
-604,386	800,000	-0,048	-0,126
-603,371	61,641	-0,052	0,038
-602,357	14,668	-0,114	0,066
-601,342	129,721	-0,066	-0,063
-600,328	-1,447	-0,153	0,080
-599,313	800,000	-0,006	0,015
-598,298	800,000	0,014	-0,037
-597,284	63,374	-0,038	-0,028
-596,269	-200,000	-0,001	0,021
-595,255	-200,000	0,011	0,069
-594,240	36,279	-0,084	-0,055
-593,225	-109,671	-0,113	0,017
-592,211	154,637	-0,047	-0,048
-591,196	-200,000	0,017	-0,127
-590,182	259,637	-0,095	0,122
-589,167	120,552	-0,047	0,044
-588,152	514,819	0,040	0,070
-587,138	-200,000	0,003	-0,015
-586,123	642,275	-0,047	-0,089
-585,109	109,556	-0,050	0,044
-584,094	800,000	0,090	-0,195
-583,079	67,133	-0,095	-0,072
-582,065	800,000	0,020	-0,042
-581,050	5,209	-0,114	-0,062
-580,036	312,051	0,118	-0,164
-579,021	68,806	-0,087	-0,066
-578,006	-200,000	-0,025	-0,085
-576,992	-134,442	0,103	0,009
-575,977	-77,635	-0,084	-0,021
-574,963	-200,000	0,005	0,075
-573,948	245,445	-0,025	-0,032
-572,934	-200,000	-0,000	-0,056
-571,919	-104,025	-0,115	-0,020
-570,904	198,994	0,075	-0,085
-569,890	-21,523	-0,142	-0,064
-568,875	800,000	-0,018	-0,045
-567,861	661,626	0,018	0,035
-566,846	-42,884	0,116	-0,044
-565,831	64,563	0,010	-0,007
-564,817	323,207	-0,092	0,130
-563,802	91,087	-0,071	0,059
-562,788	-64,789	0,104	0,031
-561,773	-24,386	0,102	0,045
-560,758	176,692	-0,134	0,144
-559,744	-159,883	0,142	-0,006
-558,729	199,233	-0,080	0,091
-557,715	-22,216	-0,127	-0,057
-556,700	129,060	-0,052	-0,049
-555,685	124,778	0,011	-0,010
-554,671	-200,000	0,008	0,033
-553,656	134,359	0,023	-0,022
-552,642	-200,000	0,017	0,091
-551,627	33,247	0,043	0,027
-550,612	-137,263	-0,031	-0,003
-549,598	154,240	0,076	-0,077
-548,583	41,013	0,084	0,056
-547,569	-200,000	0,010	-0,088
-546,554	181,223	-0,017	0,019
-545,539	-153,412	-0,073	-0,004
-544,525	-200,000	-0,136	0,000
-543,510	-164,010	0,134	0,005
-542,496	-58,112	-0,134	-0,043
-541,481	-35,399	-0,088	-0,035
-540,466	1,110	0,078	-0,042
-539,452	800,000	-0,023	-0,057
-538,437	800,000	0,034	0,070
-537,423	128,618	0,048	0,045
-536,408	74,242	0,004	-0,003
-535,393	453,331	0,037	0,061
-534,379	-92,705	-0,069	0,014
-533,364	-200,000	-0,012	-0,086
-532,350	430,480	0,082	-0,132
-531,335	-100,792	-0,102	0,018
-530,321	126,392	-0,086	0,080
-529,306	708,725	0,073	-0,143
-528,291	6,380	0,060	-0,033
-527,277	485,535	-0,049	-0,083
-526,262	-61,963	0,088	0,027
-525,248	144,036	0,042	0,042
-524,233	57,442	0,064	-0,046
-523,218	800,000	-0,033	-0,086
-522,204	-200,000	-0,002	0,016
-521,189	211,578	-0,069	0,080
-520,175	800,000	-0,025	-0,069
-519,160	-143,972	-0,168	-0,011
-518,145	416,298	-0,031	-0,049
-517,131	800,000	0,082	0,215
-516,116	161,210	-0,042	0,044
-515,102	81,809	-0,028	-0,022
-514,087	-200,000	-0,007	-0,025
-513,072	-200,000	-0,001	-0,079
-512,058	48,339	0,047	-0,032
-511,043	800,000	0,048	0,111
-510,029	800,000	0,031	0,094
-509,014	-200,000	-0,000	0,095
-507,999	-200,000	-0,004	-0,026
-506,985	-120,871	-0,077	-0,009
-505,970	-119,005	-0,033	0,004
-504,956	18,511	-0,103	0,061
-503,941	-144,231	-0,096	0,007
-502,926	-200,000	0,001	-0,033
-501,912	-43,693	-0,015	0,005
-500,897	3,566	0,089	-0,048
-499,883	-200,000	0,004	0,028
-498,868	139,022	0,032	-0,032
-497,853	50,051	0,068	-0,047
-496,839	-200,000	0,028	0,122
-495,824	-76,306	0,104	-0,027
-494,810	-200,000	0,000	0,076
-493,795	800,000	-0,025	0,072
-492,781	-1,142	0,014	0,008
-491,766	800,000	-0,006	-0,014
-490,751	-47,653	-0,147	-0,053
-489,737	-200,000	0,030	-0,115
-488,722	194,853	0,047	0,052
-487,708	800,000	-0,019	-0,055
-486,693	605,529	-0,033	0,062
-485,678	52,885	0,117	0,083
-484,664	-117,652	0,091	-0,012
-483,649	-141,015	-0,054	0,004
-482,635	183,387	-0,062	0,068
-481,620	-106,491	0,046	-0,008
-480,605	800,000	-0,008	-0,021
-479,591	25,456	-0,059	0,036
-478,576	-171,112	0,032	-0,001
-477,562	-129,680	-0,113	-0,011
-476,547	-30,351	-0,095	-0,040
-475,532	509,674	-0,014	0,024
-474,518	-117,174	0,195	-0,026
-473,503	483,489	-0,034	0,057
-472,489	-200,000	-0,025	0,104
-471,474	-153,812	-0,047	-0,002
-470,459	-200,000	-0,002	-0,046
-469,445	-200,000	-0,004	-0,043
-468,430	-49,283	-0,040	-0,014
-467,416	-200,000	-0,008	0,081
-466,401	800,000	-0,012	-0,034
-465,386	104,963	-0,040	-0,035
-464,372	22,181	0,080	0,048
-463,357	-200,000	0,004	-0,085
-462,343	-200,000	0,009	-0,059
-461,328	-82,855	0,181	0,043
-460,313	72,526	-0,054	0,042
-459,299	-200,000	-0,010	0,106
-458,284	-200,000	0,019	0,071
-457,270	-114,675	0,142	0,020
-456,255	-200,000	0,007	-0,042
-455,241	-176,911	0,139	0,003
-454,226	-200,000	-0,001	-0,244
-453,211	-200,000	0,002	-0,092
-452,197	7,921	0,104	-0,057
-451,182	-82,166	0,091	0,022
-450,168	800,000	0,060	0,138
-449,153	-130,474	-0,100	0,010
-448,138	-200,000	0,020	0,068
-447,124	500,125	0,062	-0,106
-446,109	285,404	-0,058	-0,077
-445,095	-200,000	0,030	0,115
-444,080	-200,000	-0,018	0,136
-443,065	8,300	0,051	0,028
-442,051	800,000	0,026	-0,053
-441,036	-200,000	0,004	-0,135
-440,022	-51,269	0,075	-0,026
-439,007	305,653	-0,081	0,111
-437,992	174,330	0,130	0,139
-436,978	-200,000	-0,013	0,051
-435,963	40,649	0,046	-0,031
-434,949	-41,849	0,036	-0,014
-433,934	800,000	0,025	-0,057
-432,919	-110,151	0,087	-0,013
-431,905	-200,000	0,003	0,055
-430,890	272,538	-0,038	0,050
-429,876	276,762	0,025	0,033
-428,861	127,162	0,109	-0,102
-427,846	134,307	-0,045	-0,043
-426,832	101,972	-0,020	-0,018
-425,817	-160,133	-0,073	0,003
-424,803	74,083	-0,118	-0,091
-423,788	478,797	0,051	0,085
-422,773	539,991	0,034	0,059
-421,759	339,597	0,058	0,084
-420,744	-200,000	-0,017	-0,069
-419,730	800,000	0,053	0,115
-418,715	-121,305	-0,055	-0,007
-417,701	413,368	-0,038	-0,059
-416,686	584,987	-0,043	-0,078
-415,671	436,822	-0,075	0,121
-414,657	800,000	0,040	0,112
-413,642	288,230	0,066	0,088
-412,628	93,576	0,036	0,030
-411,613	-165,627	0,063	-0,002
-410,598	51,593	-0,100	0,070
-409,584	108,443	0,076	0,066
-408,569	-49,156	0,102	-0,036
-407,555	485,460	0,095	0,160
-406,540	800,000	-0,037	0,080
-405,525	-200,000	0,003	-0,142
-404,511	36,707	-0,033	-0,022
-403,496	199,704	-0,071	0,080
-402,482	-4,037	0,041	-0,021
-401,467	535,826	0,063	0,111
-400,452	-200,000	0,013	0,088
-399,438	-129,036	0,070	0,007
-398,423	-56,292	0,061	-0,020
-397,409	28,447	0,031	0,019
-396,394	-200,000	-0,179	-0,000
-395,379	-101,823	-0,088	-0,015
-394,365	22,093	-0,076	0,046
-393,350	-179,360	-0,036	-0,001
-392,336	-193,406	-0,027	-0,000
-391,321	-200,000	-0,038	0,182
-390,306	-200,000	0,024	-0,095
-389,292	800,000	-0,034	-0,081
-388,277	-56,500	0,157	-0,051
-387,263	285,614	0,093	-0,123
-386,248	-3,229	0,045	0,023
-385,233	50,305	-0,053	0,037
-384,219	-73,880	-0,103	0,027
-383,204	218,010	-0,004	0,005
-382,190	-200,000	0,008	-0,029
-381,175	-136,981	0,049	0,004
-380,160	54,023	0,031	0,022
-379,146	-200,000	0,033	-0,117
-378,131	-70,692	0,169	0,047
-377,117	725,180	0,018	0,035
-376,102	769,607	-0,052	0,104
-375,088	80,088	0,078	-0,062
-374,073	800,000	-0,085	-0,200
-373,058	347,351	0,028	-0,041
-372,044	-101,267	0,136	0,024
-371,029	82,723	0,097	0,077
-370,015	-90,580	-0,070	-0,015
-369,000	526,862	-0,014	-0,024
-367,985	31,715	0,049	0,031
-366,971	57,524	0,102	-0,073
-365,956	-101,981	-0,045	0,008
-364,942	-200,000	0,012	0,087
-363,927	-128,604	0,062	-0,006
-362,912	800,000	0,031	-0,097
-361,898	-5,693	0,043	-0,022
-360,883	-40,721	-0,075	-0,029
-359,869	-9,104	0,098	-0,048
-358,854	-70,540	-0,117	-0,032
-357,839	180,117	0,061	-0,065
-356,825	-185,879	0,037	0,000
-355,810	194,582	-0,086	0,096
-354,796	-200,000	0,012	0,049
-353,781	-200,000	-0,015	-0,080
-352,766	800,000	0,043	-0,108
-351,752	56,034	0,127	-0,090
-350,737	-200,000	-0,024	0,150
-349,723	37,532	0,164	0,106
-348,708	-200,000	0,022	0,088
-347,693	-31,779	0,023	-0,009
-346,679	-200,000	0,001	0,014
-345,664	57,805	-0,074	0,053
-344,650	477,445	0,070	-0,116
-343,635	46,602	0,153	0,104
-342,620	85,601	0,070	-0,057
-341,606	134,782	-0,057	-0,054
-340,591	800,000	-0,071	-0,152
-339,577	800,000	0,042	0,125
-338,562	-200,000	0,012	0,071
-337,548	-200,000	0,015	-0,058
-336,533	-200,000	0,015	0,082
-335,518	800,000	-0,021	-0,056
-334,504	307,517	0,049	-0,068
-333,489	800,000	0,022	-0,046
-332,475	367,885	-0,027	-0,040
-331,460	87,075	-0,026	0,021
-330,445	10,641	0,088	-0,049
-329,431	800,000	-0,022	-0,045
-328,416	-200,000	-0,021	-0,088
-327,402	800,000	-0,016	0,047
-326,387	7,188	0,044	-0,024
-325,372	-149,852	-0,136	0,008
-324,358	-147,247	0,076	-0,005
-323,343	687,414	-0,032	0,062
-322,329	198,461	0,070	0,079
-321,314	800,000	-0,007	-0,016
-320,299	-200,000	0,006	0,034
-319,285	-200,000	0,004	0,017
-318,270	194,214	-0,040	-0,045
-317,256	0,282	0,085	0,044
-316,241	-23,050	-0,158	-0,069
-315,226	-0,363	0,068	-0,035
-314,212	-200,000	0,002	0,094
-313,197	-200,000	-0,016	-0,055
-312,183	94,440	0,082	-0,068
-311,168	177,906	0,041	-0,044
-310,153	-122,328	-0,118	0,014
-309,139	-200,000	0,003	-0,172
-308,124	-200,000	-0,013	0,166
-307,110	800,000	0,046	0,113
-306,095	-136,284	0,181	0,015
-305,080	-155,713	-0,045	0,002
-304,066	242,754	-0,094	-0,116
-303,051	-66,996	0,119	0,034
-302,037	800,000	-0,062	0,149
-301,022	-101,614	0,060	0,011
-300,008	-200,000	0,047	0,166
-298,993	-99,528	0,096	-0,018
-297,978	477,126	0,051	-0,085
-296,964	800,000	-0,050	-0,140
-295,949	157,083	-0,018	-0,018
-294,935	-92,539	0,066	-0,013
-293,920	-200,000	0,029	-0,123
-292,905	576,342	0,041	0,074
-291,891	-200,000	0,006	0,117
-290,876	181,522	0,026	-0,028
-289,862	-194,633	0,110	0,001
-288,847	-200,000	-0,037	-0,129
-287,832	673,693	0,063	-0,121
-286,818	-42,164	-0,115	0,043
-285,803	-200,000	-0,020	-0,100
-284,789	144,012	-0,041	0,041
-283,774	48,147	0,082	0,056
-282,759	99,260	-0,123	0,104
-281,745	-59,349	-0,144	0,045
-280,730	106,507	0,059	-0,051
-279,716	20,723	-0,074	-0,044
-278,701	800,000	0,015	-0,033
-277,686	-119,491	-0,173	0,022
-276,672	800,000	0,029	0,066
-275,657	-200,000	-0,002	0,065
-274,643	-76,449	-0,232	-0,059
-273,628	-43,774	0,050	-0,018
-272,613	580,074	0,024	-0,043
-271,599	52,730	0,123	-0,086
-270,584	111,165	0,060	0,053
-269,570	377,016	-0,068	-0,102
-268,555	-92,209	0,051	0,011
-267,540	-25,358	0,053	-0,023
-266,526	-76,276	-0,106	0,027
-265,511	800,000	0,062	-0,141
-264,497	-87,806	-0,078	0,017
-263,482	96,540	0,063	-0,053
-262,467	-72,284	-0,075	-0,020
-261,453	-200,000	-0,017	-0,093
-260,438	-162,606	-0,081	-0,003
-259,424	-101,782	-0,168	-0,029
-258,409	-200,000	0,026	-0,118
-257,395	64,863	0,150	-0,110
-256,380	-118,024	0,099	0,013
-255,365	92,551	0,075	0,062
-254,351	-94,725	0,061	-0,012
-253,336	10,999	-0,077	0,043
-252,322	62,147	-0,043	0,031
-251,307	277,408	-0,066	0,085
-250,292	-6,014	-0,109	0,054
-249,278	-200,000	0,007	0,134
-248,263	-134,829	0,176	0,015
-247,249	-80,587	-0,130	0,031
-246,234	167,726	-0,056	0,059
-245,219	145,857	-0,092	0,090
-244,205	-200,000	-0,020	-0,092
-243,190	-200,000	-0,011	-0,110
-242,176	295,150	-0,014	-0,018
-241,161	-2,884	0,104	0,053
-240,146	635,857	0,053	0,099
-239,132	-200,000	-0,000	-0,150
-238,117	88,527	0,076	-0,062
-237,103	191,286	-0,079	-0,087
-236,088	-200,000	-0,010	-0,041
-235,073	346,791	-0,068	-0,098
-234,059	-200,000	0,009	-0,063
-233,044	-84,151	0,031	-0,007
-232,030	9,975	-0,062	0,034
-231,015	248,977	0,083	-0,103
-230,000	-200,000	-0,006	-0,088
-228,986	10,673	0,024	0,013
-227,971	67,018	-0,089	0,066
-226,957	-200,000	0,008	0,094
-225,942	-200,000	-0,017	0,117
-224,927	334,269	0,008	-0,011
-223,913	-141,839	-0,047	-0,003
-222,898	131,671	-0,071	0,066
-221,884	-96,686	0,040	0,008
-220,869	-131,009	-0,038	0,004
-219,855	800,000	-0,013	-0,040
-218,840	-74,619	0,177	0,046
-217,825	430,037	-0,084	0,133
-216,811	4,842	-0,103	-0,055
-215,796	99,785	-0,010	-0,008
-214,782	-30,769	0,123	0,050
-213,767	43,169	-0,119	0,079
-212,752	-200,000	0,025	0,170
-211,738	-140,847	0,131	-0,010
-210,723	98,727	-0,093	0,078
-209,709	-121,361	-0,085	0,010
-208,694	-98,845	-0,096	0,018
-207,679	-200,000	0,006	-0,090
-206,665	49,006	-0,078	0,054
-205,650	-22,278	0,097	-0,043
-204,636	166,070	0,165	0,171
-203,621	94,069	0,031	0,026
-202,606	27,817	-0,065	-0,040
-201,592	-11,291	-0,044	-0,021
-200,577	294,309	-0,082	0,110
-199,563	467,939	-0,059	0,097
-198,548	-160,578	0,106	0,004
-197,533	-200,000	0,004	-0,015
-196,519	-18,196	0,091	-0,041
-195,504	-147,312	0,103	0,006
-194,490	-14,096	-0,154	-0,072
-193,475	-200,000	-0,013	0,045
-192,460	-200,000	0,010	0,046
-191,446	800,000	-0,027	0,056
-190,431	106,294	-0,032	-0,027
-189,417	-116,070	0,078	-0,011
-188,402	-200,000	0,041	-0,157
-187,387	-43,962	-0,127	-0,046
-186,373	1,328	-0,046	0,024
-185,358	74,018	0,094	0,072
-184,344	800,000	0,028	-0,084
-183,329	-40,679	-0,035	-0,013
-182,315	131,831	0,032	0,030
-181,300	264,647	-0,056	0,072
-180,285	416,161	-0,101	0,158
-179,271	-200,000	0,015	-0,072
-178,256	169,764	0,041	-0,043
-177,242	-146,331	0,025	-0,002
-176,227	559,587	0,014	-0,025
-175,212	-200,000	0,025	-0,090
-174,198	314,596	-0,034	-0,046
-173,183	709,636	0,035	-0,067
-172,169	-26,066	-0,130	-0,056
-171,154	89,566	-0,060	-0,049
-170,139	800,000	0,045	0,112
-169,125	-190,626	0,106	0,001
-168,110	-200,000	0,006	0,027
-167,096	-200,000	0,000	-0,067
-166,081	227,895	0,041	-0,049
-165,066	9,960	-0,083	0,046
-164,052	183,626	-0,095	0,103
-163,037	-200,000	0,025	0,143
-162,023	53,446	-0,074	0,051
-161,008	-200,000	-0,015	0,120
-159,993	-200,000	-0,001	0,066
-158,979	75,727	-0,037	-0,029
-157,964	-144,725	-0,077	-0,005
-156,950	299,586	0,079	-0,107
-155,935	54,529	0,072	-0,050
-154,920	-21,123	-0,161	-0,071
-153,906	-200,000	0,009	0,094
-152,891	69,824	0,073	0,055
-151,877	-200,000	0,021	0,085
-150,862	-78,629	-0,139	-0,034
-149,847	59,026	0,037	-0,026
-148,833	-4,979	-0,075	-0,038
-147,818	-200,000	0,009	-0,062
-146,804	5,952	-0,021	-0,012
-145,789	800,000	0,053	0,132
-144,775	770,711	-0,065	0,130
-143,760	149,547	-0,065	-0,064
-142,745	-200,000	-0,012	-0,071
-141,731	178,326	0,059	-0,063
-140,716	-106,680	0,167	0,027
-139,702	126,321	-0,035	0,032
-138,687	17,318	0,099	0,057
-137,672	-200,000	0,005	-0,049
-136,658	8,988	-0,049	0,027
-135,643	-200,000	0,000	-0,078
-134,629	-200,000	0,002	-0,035
-133,614	272,851	0,013	0,016
-132,599	150,646	0,066	-0,065
-131,585	294,475	0,063	-0,084
-130,570	-200,000	0,010	0,108
-129,556	-200,000	0,001	0,059
-128,541	-96,315	-0,051	-0,010
-127,526	-112,843	0,022	0,003
-126,512	610,662	0,043	0,078
-125,497	-57,225	-0,099	0,031
-124,483	-200,000	0,021	-0,115
-123,468	-20,027	-0,111	0,050
-122,453	-51,162	-0,072	-0,024
-121,439	-200,000	-0,014	-0,055
-120,424	-200,000	-0,001	-0,076
-119,410	-109,262	0,038	-0,006
-118,395	494,654	-0,026	0,044
-117,380	-200,000	0,024	0,105
-116,366	-47,777	-0,109	-0,038
-115,351	430,454	0,047	0,074
-114,337	183,735	-0,075	0,080
-113,322	747,449	0,008	0,016
-112,307	116,577	-0,034	0,030
-111,293	-200,000	-0,028	0,094
-110,278	111,795	0,025	0,022
-109,264	309,653	0,061	0,083
-108,249	-100,690	-0,203	-0,036
-107,234	-200,000	0,013	-0,050
-106,220	252,135	-0,117	0,146
-105,205	-87,234	0,117	-0,026
-104,191	800,000	0,048	0,112
-103,176	-96,983	-0,042	0,008
-102,162	800,000	0,025	0,058
-101,147	782,879	-0,060	0,121
-100,132	-17,168	-0,116	-0,053
-99,118	285,269	0,033	0,044
-98,103	-200,000	0,008	-0,064
-97,089	-53,355	0,152	0,050
-96,074	133,065	-0,074	0,070
-95,059	-101,344	-0,104	-0,018
-94,045	-200,000	-0,043	-0,168
-93,030	724,177	0,027	-0,053
-92,016	-17,986	-0,077	-0,035
-91,001	332,274	0,048	0,068
-89,986	211,982	0,115	0,132
-88,972	209,752	0,049	0,056
-87,957	-158,718	0,107	-0,004
-86,943	137,137	-0,069	-0,066
-85,928	-200,000	-0,020	0,087
-84,913	480,563	0,035	-0,058
-83,899	-73,241	-0,049	0,013
-82,884	47,350	0,059	-0,040
-81,870	800,000	-0,023	0,050
-80,855	800,000	-0,058	-0,119
-79,840	-200,000	0,008	0,066
-78,826	-145,626	0,064	0,004
-77,811	-177,039	-0,076	-0,001
-76,797	-54,027	0,162	-0,053
-75,782	-200,000	-0,035	0,121
-74,767	-62,199	0,173	-0,052
-73,753	-123,651	-0,153	0,017
-72,738	800,000	0,007	0,015
-71,724	-31,220	-0,076	0,031
-70,709	81,571	-0,073	0,057
-69,694	800,000	0,044	0,136
-68,680	-130,593	-0,114	0,011
-67,665	160,788	0,049	-0,050
-66,651	542,950	0,033	-0,058
-65,636	272,614	0,041	0,053
-64,622	-38,545	0,071	0,027
-63,607	-164,803	-0,012	0,000
-62,592	-200,000	0,002	-0,040
-61,578	203,372	-0,029	0,032
-60,563	540,211	-0,050	0,087
-59,549	110,287	-0,133	0,116
-58,534	-128,109	-1,308	-0,134
-57,519	607,908	-0,773	-1,405
-56,505	-200,000	-0,924	-4,416
-55,490	39,729	0,516	-0,336
-54,476	800,000	4,979	11,848
-53,461	-200,000	13,667	252,963
-52,446	-200,000	689,556	2260,553
-51,432	591,959	1622,178	2918,858
-50,417	119,520	1634,949	1469,242
-49,403	73,342	1289,085	977,851
-48,388	38,128	1024,259	660,088
-47,373	24,343	981,876	587,434
-46,359	23,604	971,632	578,856
-45,344	22,643	967,340	573,135
-44,330	22,563	965,829	571,959
-43,315	22,444	964,521	570,773
-42,300	22,405	963,438	569,983
-41,286	22,375	962,654	569,398
-40,271	22,332	961,673	568,655
-39,257	22,366	960,672	568,149
-38,242	22,374	959,671	567,564
-37,227	22,401	958,684	567,043
-36,213	22,368	958,003	566,511
-35,198	22,321	957,165	565,842
-34,184	22,384	956,519	565,640
-33,169	22,357	955,612	564,995
-32,154	22,429	954,573	564,589
-31,140	22,440	953,796	564,143
-30,125	22,420	953,010	563,593
-29,111	22,441	952,165	563,136
-28,096	22,410	951,553	562,655
-27,082	22,421	950,781	562,210
-26,067	22,396	950,039	561,668
-25,052	22,433	949,298	561,326
-24,038	22,426	948,591	560,865
-23,023	22,468	948,082	560,675
-22,009	22,457	947,423	560,227
-20,994	22,440	946,945	559,870
-19,979	22,474	946,153	559,487
-18,965	22,489	945,565	559,166
-17,950	22,462	944,740	558,568
-16,936	22,433	944,063	558,055
-15,921	22,338	943,523	557,410
-14,906	22,321	942,698	556,846
-13,892	22,342	942,128	556,553
-12,877	22,313	941,474	556,052
-11,863	22,331	940,813	555,698
-10,848	22,302	940,328	555,297
-9,833	22,361	939,958	555,243
-8,819	22,382	939,121	554,796
-7,804	22,313	938,573	554,231
-6,790	22,307	938,072	553,894
-5,775	22,318	937,521	553,582
-4,760	22,365	936,725	553,239
-3,746	22,268	936,284	552,647
-2,731	22,131	935,580	551,778
-1,717	22,150	934,688	551,291
-0,702	22,088	934,163	550,762
0,313	21,974	933,399	550,784
1,327	24,996	931,615	559,188
2,342	34,517	796,136	503,236
3,356	32,411	451,557	282,230
4,371	1,635	293,337	152,670
5,386	-2,853	274,335	138,525
6,400	-4,479	268,430	134,025
7,415	-5,024	266,232	132,414
8,429	-4,672	264,794	132,010
9,444	-4,539	263,840	131,644
10,459	-4,612	263,238	131,265
11,473	-4,614	262,722	130,995
12,488	-4,765	262,315	130,643
13,502	-4,956	261,826	130,215
14,517	-4,721	261,237	130,123
15,531	-4,882	260,984	129,840
16,546	-4,628	260,442	129,787
17,561	-4,714	259,994	129,475
18,575	-4,650	259,961	129,505
19,590	-4,713	259,400	129,157
20,604	-4,520	259,330	129,283
21,619	-4,780	258,951	128,850
22,634	-4,762	258,608	128,685
23,648	-4,702	258,252	128,549
24,663	-5,007	258,272	128,276
25,677	-4,804	257,720	128,171
26,692	-4,708	257,521	128,146
27,707	-4,759	257,434	128,046
28,721	-4,754	256,963	127,804
29,736	-4,636	256,642	127,738
30,750	-4,965	256,598	127,414
31,765	-4,852	256,245	127,327
32,780	-4,806	256,081	127,274
33,794	-4,764	255,910	127,215
34,809	-4,808	255,599	127,010
35,823	-4,725	255,250	126,899
36,838	-4,654	255,031	126,841
37,853	-5,028	254,889	126,431
38,867	-4,942	254,584	126,344
39,882	-4,793	254,551	126,446
40,896	-4,865	254,261	126,229
41,911	-4,889	254,003	126,067
42,926	-4,918	253,798	125,930
43,940	-4,824	253,497	125,851
44,955	-5,099	253,454	125,579
45,969	-4,923	252,957	125,474
46,984	-5,176	252,748	125,140
47,999	-5,428	252,637	124,854
49,013	-5,450	252,209	124,612
50,028	-5,492	252,124	124,522
51,042	-5,866	251,780	124,017
52,057	-5,871	251,633	123,930
53,071	-5,882	251,492	123,840
54,086	-5,670	251,367	123,951
55,101	-5,485	251,016	123,926
56,115	-5,186	251,052	124,191
57,130	-4,985	250,902	124,279
58,144	-4,679	250,623	124,394
59,159	-4,613	250,450	124,354
60,174	-4,641	250,375	124,281
61,188	-4,444	249,908	124,207
62,203	-4,758	249,988	123,967
63,217	-4,727	249,690	123,835
64,232	-4,745	249,515	123,721
65,247	-4,772	249,152	123,507
66,261	-4,723	249,081	123,503
67,276	-5,051	248,687	123,016
68,290	-5,025	248,440	122,905
69,305	-5,369	248,336	122,549
70,320	-5,268	248,120	122,518
71,334	-4,900	248,014	122,767
72,349	-4,542	247,756	122,934
73,363	-4,591	247,645	122,825
74,378	-4,685	247,377	122,602
75,393	-4,678	247,182	122,500
76,407	-4,748	246,963	122,322
77,422	-4,707	246,800	122,265
78,436	-4,809	246,775	122,155
79,451	-4,891	246,512	121,945
80,466	-4,872	246,229	121,810
81,480	-5,005	245,938	121,543
82,495	-5,115	245,862	121,401
83,509	-4,969	245,614	121,392
84,524	-4,948	245,424	121,304
85,539	-5,132	245,254	121,055
86,553	-5,094	244,961	120,931
87,568	-5,117	244,761	120,802
88,582	-4,881	244,625	120,923
89,597	-5,064	244,432	120,663
90,611	-4,813	244,329	120,812
91,626	-4,852	244,304	120,756
92,641	-4,715	244,131	120,774
93,655	-4,829	243,695	120,453
94,670	-4,852	243,584	120,368
95,684	-5,006	243,487	120,181
96,699	-4,976	243,197	120,051
97,714	-5,112	243,108	119,884
98,728	-5,020	242,832	119,813
99,743	-5,295	242,632	119,475
100,757	-5,189	242,389	119,433
101,772	-5,115	242,226	119,404
102,787	-4,990	242,159	119,464
103,801	-5,066	242,081	119,352
104,816	-4,911	241,875	119,368
105,830	-4,880	241,735	119,314
106,845	-4,691	241,420	119,304
107,860	-4,745	241,236	119,158
108,874	-5,051	241,113	118,833
109,889	-4,893	240,678	118,739
110,903	-5,163	240,734	118,533
111,918	-5,106	240,457	118,433
112,933	-4,919	240,344	118,521
113,947	-4,796	240,191	118,536
114,962	-5,028	240,224	118,351
115,976	-4,876	239,918	118,314
116,991	-4,814	239,655	118,225
118,006	-4,838	239,465	118,101
119,020	-4,715	239,283	118,101
120,035	-4,813	239,209	117,975
121,049	-4,622	239,101	118,066
122,064	-4,716	239,013	117,936
123,079	-4,856	238,702	117,658
124,093	-4,944	238,449	117,451
125,108	-5,072	238,353	117,289
126,122	-5,147	238,045	117,065
127,137	-5,198	237,823	116,904
128,151	-5,176	237,773	116,888
129,166	-5,163	237,678	116,841
130,181	-5,070	237,320	116,730
131,195	-5,294	237,286	116,522
132,210	-5,006	237,049	116,628
133,224	-4,940	236,865	116,580
134,239	-4,703	236,695	116,677
135,254	-5,013	236,571	116,356
136,268	-5,023	236,483	116,295
137,283	-5,281	236,132	115,903
138,297	-5,349	235,870	115,709
139,312	-5,308	235,685	115,642
140,327	-5,106	235,670	115,786
141,341	-4,569	235,721	116,233
142,356	-4,356	235,456	116,263
143,370	-4,409	235,390	116,178
144,385	-4,348	235,238	116,141
145,400	-4,394	234,879	115,917
146,414	-4,556	234,822	115,748
147,429	-4,463	234,722	115,763
148,443	-4,683	234,561	115,498
149,458	-4,611	234,348	115,440
150,473	-4,564	234,202	115,395
151,487	-4,491	233,907	115,297
152,502	-4,792	233,869	115,029
153,516	-4,573	233,521	115,022
154,531	-4,688	233,492	114,905
155,546	-4,530	233,229	114,891
156,560	-4,578	233,200	114,828
157,575	-4,627	232,974	114,668
158,589	-4,630	232,704	114,522
159,604	-4,526	232,591	114,539
160,619	-4,489	232,416	114,472
161,633	-4,409	232,330	114,483
162,648	-4,410	232,165	114,391
163,662	-4,576	232,032	114,183
164,677	-4,678	231,859	114,008
165,692	-4,658	231,791	113,980
166,706	-4,339	231,595	114,125
167,721	-4,394	231,593	114,071
168,735	-4,416	231,357	113,927
169,750	-4,347	231,181	113,884
170,764	-4,602	230,920	113,545
171,779	-4,588	230,816	113,495
172,794	-4,410	230,633	113,534
173,808	-4,589	230,404	113,271
174,823	-5,145	230,227	112,738
175,837	-5,197	229,985	112,569
176,852	-4,770	229,979	112,891
177,867	-4,600	229,920	112,984
178,881	-4,599	229,767	112,899
179,896	-4,160	229,531	113,117
180,910	-4,445	229,400	112,820
181,925	-4,588	229,268	112,633
182,940	-4,363	229,020	112,677
183,954	-4,374	229,072	112,683
184,969	-4,366	228,752	112,522
185,983	-4,369	228,802	112,535
186,998	-4,502	228,750	112,395
188,013	-4,111	228,362	112,498
189,027	-4,226	228,174	112,306
190,042	-4,238	228,121	112,261
191,056	-4,395	227,936	112,038
192,071	-4,161	227,797	112,141
193,086	-4,378	227,576	111,855
194,100	-4,300	227,446	111,841
195,115	-4,726	227,094	111,329
196,129	-5,043	226,936	110,998
197,144	-1,883	227,867	113,886
198,159	2,053	229,112	117,552
199,173	4,047	229,519	119,297
200,188	4,268	229,367	119,379
201,202	4,355	229,195	119,345
202,217	4,408	229,169	119,362
203,232	4,604	228,931	119,379
204,246	4,683	228,803	119,363
205,261	4,813	228,664	119,380
206,275	5,000	228,682	119,523
207,290	4,906	228,528	119,359
208,304	5,104	228,349	119,408
209,319	4,833	228,224	119,122
210,334	4,796	227,997	118,965
211,348	4,701	227,790	118,774
212,363	4,100	227,527	118,165
213,377	4,180	227,308	118,102
214,392	3,869	227,146	117,769
215,407	4,174	226,916	117,873
216,421	4,037	226,969	117,785
217,436	4,163	226,576	117,667
218,450	3,974	226,468	117,456
219,465	3,795	226,327	117,236
220,480	3,654	226,141	117,022
221,494	3,729	226,121	117,058
222,509	3,973	226,123	117,234
223,523	3,797	225,764	116,904
224,538	3,909	225,657	116,923
225,553	3,939	225,423	116,814
226,567	4,039	225,445	116,892
227,582	4,345	225,351	117,064
228,596	4,370	225,238	117,014
229,611	4,205	225,020	116,765
230,626	3,821	224,665	116,281
231,640	3,912	224,790	116,403
232,655	4,193	224,481	116,446
233,669	4,375	224,478	116,571
234,684	4,909	224,249	116,845
235,699	4,503	224,089	116,445
236,713	4,009	224,040	116,037
237,728	4,135	223,627	115,907
238,742	4,009	223,545	115,760
239,757	4,035	223,507	115,749
240,772	3,826	223,324	115,486
241,786	4,027	222,999	115,459
242,801	4,046	223,182	115,558
243,815	4,478	223,012	115,784
244,830	4,261	222,976	115,592
245,844	4,087	222,585	115,248
246,859	4,234	222,389	115,247
247,874	4,290	222,423	115,296
248,888	4,429	222,281	115,317
249,903	4,359	222,013	115,115
250,917	3,873	221,932	114,700
251,932	3,953	221,910	114,737
252,947	3,806	221,618	114,467
253,961	4,023	221,298	114,453
254,976	4,078	221,185	114,425
255,990	4,030	221,277	114,427
257,005	4,272	221,112	114,511
258,020	4,299	220,996	114,461
259,034	4,399	221,063	114,559
260,049	4,245	220,864	114,332
261,063	4,181	220,520	114,096
262,078	4,528	220,340	114,250
263,093	4,348	220,289	114,080
264,107	4,266	220,075	113,898
265,122	4,397	219,989	113,940
266,136	4,510	219,895	113,965
267,151	4,431	219,763	113,828
268,166	4,090	219,578	113,471
269,180	4,019	219,175	113,200
270,195	3,969	219,019	113,073
271,209	3,885	219,084	113,035
272,224	3,926	218,958	112,990
273,239	3,851	218,944	112,918
274,253	3,833	218,718	112,778
275,268	3,767	218,325	112,516
276,282	3,799	218,220	112,475
277,297	3,597	218,255	112,335
278,312	3,685	218,078	112,299
279,326	3,680	218,079	112,286
280,341	4,064	217,814	112,420
281,355	4,080	217,509	112,264
282,370	3,887	217,576	112,148
283,384	3,863	217,386	112,023
284,399	3,791	217,128	111,827
285,414	3,941	216,904	111,811
286,428	4,160	216,835	111,924
287,443	4,337	216,715	111,981
288,457	4,158	216,750	111,859
289,472	3,911	216,615	111,600
290,487	3,511	216,321	111,149
291,501	3,457	216,084	110,978
292,516	3,655	216,065	111,102
293,530	3,827	215,973	111,169
294,545	3,626	215,940	110,996
295,560	3,791	215,533	110,897
296,574	4,029	215,490	111,037
297,589	3,989	215,386	110,944
298,603	4,258	215,180	111,022
299,618	4,162	215,188	110,948
300,633	4,077	215,031	110,795
301,647	4,538	214,882	111,040
302,662	4,339	214,835	110,862
303,676	4,219	214,694	110,693
304,691	4,229	214,537	110,610
305,706	4,510	214,421	110,742
306,720	4,388	214,362	110,614
307,735	4,145	214,034	110,261
308,749	3,879	214,001	110,044
309,764	4,071	213,857	110,097
310,779	4,385	213,821	110,293
311,793	4,309	213,477	110,052
312,808	4,241	213,355	109,931
313,822	4,168	213,238	109,809
314,837	4,030	213,029	109,593
315,852	4,040	212,855	109,501
316,866	4,119	212,745	109,491
317,881	4,489	212,745	109,744
318,895	4,279	212,663	109,542
319,910	3,997	212,470	109,233
320,925	4,031	212,221	109,119
321,939	3,393	211,987	108,538
322,954	3,696	211,910	108,703
323,968	4,097	212,025	109,036
324,983	4,225	211,810	109,006
325,997	4,371	211,741	109,064
327,012	4,267	211,404	108,808
328,027	4,083	211,412	108,672
329,041	4,353	211,350	108,821
330,056	4,551	211,324	108,938
331,070	4,069	210,884	108,362
332,085	3,858	210,697	108,108
333,100	3,751	210,607	107,977
334,114	4,057	210,581	108,169
335,129	4,069	210,404	108,077
336,143	3,901	210,283	107,887
337,158	3,869	210,231	107,829
338,173	4,040	210,077	107,860
339,187	3,717	209,770	107,466
340,202	3,809	209,618	107,444
341,216	3,802	209,517	107,377
342,231	3,869	209,461	107,385
343,246	3,845	209,385	107,321
344,260	3,635	209,288	107,114
345,275	4,116	209,057	107,322
346,289	4,005	209,022	107,218
347,304	4,178	208,755	107,191
348,319	4,211	208,689	107,171
349,333	3,782	208,641	106,838
350,348	4,005	208,523	106,923
351,362	4,348	208,320	107,048
352,377	4,334	208,207	106,970
353,392	4,009	208,033	106,646
354,406	4,282	207,922	106,768
355,421	193,981	1344,662	1433,690
356,435	154,766	1483,275	1433,816
