DTS Sentinel unit serial number:	SN410029Multiplexer serial number:	ORYXHardware model number:	OX2-SRSoftware version number:	ORYX F/W v4,00 Oryx Data Collector v3.7.2.0data status	okinstallation	B6 Nyhavnadifferential loss correction	single-endedforward channel	channel 2reverse channel	N/Adate	2023/12/09time	19:00:08forward acquisition time	300,00reverse acquisition time	0,00gamma	499,1914k internal	0,3130k external	0,3130temperature offset calibration	1,0000default loss term (dB/km)	0,3820temperature slope calibration	1,0000multiplexer offset coefficient	1,0000multiplexer slope coefficient	1,0000fibre end	0,00T internal ref (°C)	21,06T ext. ref 1 (°C)	4,79T ext. ref 2 (°C)	4,79length (m)	temperature (°C)	Stokes	anti-Stokes-744,400	88,594	-0,056	0,046
-743,385	56,748	-0,226	0,163
-742,371	-139,980	0,127	0,010
-741,356	-95,870	-0,196	0,038
-740,342	-14,827	0,152	-0,072
-739,327	26,409	-0,368	0,229
-738,312	781,811	-0,071	-0,146
-737,298	-79,091	-0,298	0,075
-736,283	-155,512	0,039	0,002
-735,269	88,669	-0,295	0,244
-734,254	-88,951	0,170	-0,037
-733,239	6,789	-0,362	-0,200
-732,225	-22,150	-0,041	-0,018
-731,210	8,403	-0,046	0,026
-730,196	-17,722	-0,026	-0,012
-729,181	-200,000	-0,007	0,087
-728,167	800,000	-0,037	-0,091
-727,152	50,243	0,047	0,033
-726,137	-161,362	-0,183	-0,007
-725,123	-16,577	-0,040	-0,019
-724,108	-200,000	0,012	-0,137
-723,094	-77,269	-0,100	-0,026
-722,079	12,484	-0,072	-0,041
-721,064	-200,000	-0,009	-0,045
-720,050	-5,552	-0,073	-0,037
-719,035	-44,174	-0,130	-0,048
-718,021	-88,713	-0,048	0,011
-717,006	-69,625	-0,055	-0,015
-715,991	161,795	-0,102	-0,107
-714,977	143,514	-0,044	-0,044
-713,962	-90,739	-0,101	0,021
-712,948	17,147	-0,046	0,027
-711,933	86,588	-0,076	-0,062
-710,918	80,569	-0,025	0,020
-709,904	135,360	-0,116	-0,112
-708,889	-64,268	-0,105	0,032
-707,875	670,284	-0,057	-0,110
-706,860	-200,000	-0,029	-0,126
-705,845	-147,864	-0,094	-0,006
-704,831	-200,000	0,013	-0,116
-703,816	-24,497	-0,082	0,036
-702,802	432,650	-0,072	0,116
-701,787	175,789	-0,120	-0,129
-700,772	187,767	0,023	-0,026
-699,758	71,429	-0,066	0,051
-698,743	-44,017	-0,065	0,024
-697,729	-200,000	-0,003	0,066
-696,714	203,108	-0,070	0,081
-695,699	257,661	0,007	0,009
-694,685	64,620	-0,066	-0,049
-693,670	146,914	-0,090	-0,090
-692,656	-80,904	-0,031	-0,008
-691,641	-8,727	0,026	0,013
-690,627	137,857	-0,035	0,034
-689,612	22,658	-0,111	-0,067
-688,597	800,000	0,001	0,002
-687,583	126,926	-0,051	-0,048
-686,568	-200,000	0,027	-0,138
-685,554	46,707	-0,043	0,029
-684,539	-40,852	0,098	0,037
-683,524	-200,000	0,014	0,139
-682,510	-200,000	0,006	-0,084
-681,495	-73,728	-0,132	-0,036
-680,481	800,000	0,015	-0,048
-679,466	-200,000	0,053	-0,202
-678,451	800,000	0,018	-0,060
-677,437	339,628	-0,030	0,044
-676,422	-184,792	0,058	0,001
-675,408	265,836	0,050	-0,065
-674,393	-94,792	0,168	-0,034
-673,378	325,276	-0,019	-0,028
-672,364	-49,717	-0,066	-0,023
-671,349	-200,000	-0,009	-0,134
-670,335	-99,283	-0,147	-0,027
-669,320	-88,595	-0,163	0,036
-668,305	94,877	-0,059	0,049
-667,291	-28,705	-0,101	-0,043
-666,276	225,650	0,045	-0,054
-665,262	735,605	-0,080	-0,160
-664,247	520,996	-0,107	-0,187
-663,232	-123,096	0,076	-0,009
-662,218	46,230	-0,076	0,052
-661,203	236,411	-0,044	-0,054
-660,189	103,627	-0,103	-0,090
-659,174	255,074	-0,075	-0,096
-658,159	-113,471	-0,179	0,026
-657,145	12,354	0,038	0,022
-656,130	649,738	0,052	0,100
-655,116	-200,000	-0,004	0,142
-654,101	111,862	0,069	-0,062
-653,086	161,197	-0,088	-0,091
-652,072	234,968	-0,040	-0,049
-651,057	-200,000	0,007	-0,138
-650,043	-200,000	-0,023	-0,109
-649,028	800,000	-0,005	-0,011
-648,014	-200,000	0,001	0,033
-646,999	87,936	0,013	0,010
-645,984	298,208	-0,027	-0,037
-644,970	-200,000	0,004	0,085
-643,955	-200,000	-0,013	-0,070
-642,941	14,277	0,113	0,065
-641,926	-197,602	0,070	-0,000
-640,911	-19,319	0,144	0,066
-639,897	132,422	0,070	0,066
-638,882	-76,318	0,143	-0,037
-637,868	-90,392	-0,125	-0,027
-636,853	800,000	-0,045	-0,110
-635,838	-100,759	-0,031	0,006
-634,824	245,654	-0,045	-0,057
-633,809	18,898	0,144	0,085
-632,795	308,924	-0,017	0,023
-631,780	-66,910	-0,075	0,022
-630,765	-157,234	-0,155	0,007
-629,751	170,390	-0,032	-0,034
-628,736	68,400	0,008	0,006
-627,722	-200,000	-0,006	-0,106
-626,707	20,100	-0,111	-0,066
-625,692	111,633	-0,067	0,060
-624,678	96,674	-0,096	0,082
-623,663	800,000	-0,048	0,116
-622,649	-200,000	-0,037	-0,147
-621,634	-200,000	-0,002	-0,106
-620,619	87,990	-0,110	-0,090
-619,605	306,400	0,093	-0,129
-618,590	-200,000	-0,013	-0,052
-617,576	377,590	0,046	-0,069
-616,561	800,000	0,012	-0,034
-615,546	127,477	0,061	-0,058
-614,532	-200,000	-0,003	-0,257
-613,517	15,393	0,050	-0,029
-612,503	-68,651	-0,008	-0,002
-611,488	-67,841	-0,103	0,029
-610,474	-115,737	0,144	0,020
-609,459	-176,235	0,113	-0,002
-608,444	-200,000	0,002	-0,050
-607,430	15,244	-0,071	-0,041
-606,415	-56,909	-0,082	0,027
-605,401	46,521	0,055	-0,038
-604,386	-12,379	0,083	-0,040
-603,371	-200,000	0,012	-0,053
-602,357	-200,000	-0,009	-0,078
-601,342	187,863	0,021	-0,024
-600,328	137,416	-0,108	-0,105
-599,313	488,811	0,082	-0,139
-598,298	129,426	0,057	-0,054
-597,284	44,010	0,056	0,038
-596,269	278,452	0,066	0,088
-595,255	-32,428	0,075	-0,031
-594,240	778,962	-0,045	-0,091
-593,225	-30,151	0,041	-0,017
-592,211	-29,724	0,060	0,025
-591,196	-37,935	-0,097	-0,038
-590,182	-200,000	0,001	-0,020
-589,167	-121,811	0,086	-0,010
-588,152	-57,796	-0,053	0,017
-587,138	14,861	0,061	0,035
-586,123	65,431	-0,041	-0,030
-585,109	248,497	-0,066	-0,082
-584,094	325,829	0,007	0,010
-583,079	-22,405	-0,110	-0,049
-582,065	371,065	-0,036	0,055
-581,050	190,538	-0,059	0,066
-580,036	-71,053	0,065	-0,018
-579,021	-41,005	0,082	-0,031
-578,006	137,254	-0,039	-0,038
-576,992	-200,000	0,029	-0,097
-575,977	227,559	0,012	0,015
-574,963	-200,000	0,040	0,161
-573,948	-200,000	-0,003	0,018
-572,934	-85,841	0,042	-0,009
-571,919	80,904	0,095	0,076
-570,904	237,796	-0,075	-0,092
-569,890	747,494	-0,048	-0,096
-568,875	-3,204	0,103	0,053
-567,861	239,234	-0,013	-0,016
-566,846	-93,812	0,097	-0,020
-565,831	-146,743	-0,036	0,002
-564,817	79,870	0,016	0,013
-563,802	800,000	-0,004	-0,010
-562,788	31,884	-0,083	-0,053
-561,773	55,361	0,135	-0,096
-560,758	379,549	0,106	0,160
-559,744	-200,000	-0,035	0,117
-558,729	93,413	0,092	0,077
-557,715	326,975	-0,060	-0,085
-556,700	-200,000	0,003	0,041
-555,685	68,269	-0,028	-0,021
-554,671	-200,000	0,032	0,142
-553,656	-127,859	-0,019	-0,002
-552,642	87,269	-0,076	-0,062
-551,627	302,872	-0,009	0,013
-550,612	800,000	-0,025	0,071
-549,598	566,133	0,067	-0,120
-548,583	261,425	0,074	-0,095
-547,569	-200,000	-0,026	-0,086
-546,554	-200,000	0,049	0,172
-545,539	55,112	-0,036	0,026
-544,525	-200,000	0,042	0,182
-543,510	134,888	-0,122	0,117
-542,496	-12,175	0,147	-0,071
-541,481	800,000	-0,027	-0,075
-540,466	-64,137	-0,094	-0,028
-539,452	-200,000	-0,002	0,054
-538,437	-7,684	-0,092	-0,046
-537,423	800,000	-0,041	0,084
-536,408	-16,735	-0,041	0,019
-535,393	34,632	-0,085	-0,055
-534,379	800,000	0,061	-0,136
-533,364	107,949	-0,046	-0,041
-532,350	-200,000	0,004	-0,016
-531,335	579,780	0,067	0,121
-530,321	800,000	0,037	0,095
-529,306	-144,640	-0,121	0,008
-528,291	194,756	0,102	-0,114
-527,277	636,627	-0,085	-0,161
-526,262	311,720	0,048	0,067
-525,248	106,047	0,073	-0,064
-524,233	-142,065	0,094	0,007
-523,218	-200,000	-0,003	0,012
-522,204	-63,834	-0,043	0,013
-521,189	744,954	-0,087	-0,173
-520,175	169,351	-0,063	0,066
-519,160	-94,331	-0,135	0,027
-518,145	758,269	-0,072	0,144
-517,131	-70,725	0,103	-0,028
-516,116	-200,000	-0,001	-0,019
-515,102	204,202	-0,070	0,080
-514,087	-60,334	-0,096	0,030
-513,072	-10,435	-0,031	0,015
-512,058	2,083	0,056	-0,030
-511,043	73,667	0,076	0,058
-510,029	800,000	-0,009	0,026
-509,014	-67,689	-0,077	-0,022
-507,999	-130,541	0,064	0,006
-506,985	-76,979	-0,158	-0,040
-505,970	-56,098	0,114	-0,037
-504,956	140,858	-0,046	-0,045
-503,941	653,646	0,045	-0,085
-502,926	14,198	0,079	-0,045
-501,912	-32,722	0,092	0,037
-500,897	-37,070	0,139	-0,055
-499,883	167,800	-0,069	-0,072
-498,868	211,444	-0,123	-0,143
-497,853	-200,000	-0,004	-0,022
-496,839	-100,422	-0,024	0,004
-495,824	258,110	-0,057	-0,073
-494,810	800,000	0,047	0,132
-493,795	-174,980	-0,031	-0,001
-492,781	-200,000	0,046	-0,178
-491,766	-200,000	0,017	-0,167
-490,751	800,000	-0,056	-0,136
-489,737	96,842	0,098	0,083
-488,722	529,987	0,111	0,194
-487,708	800,000	-0,028	-0,060
-486,693	26,834	0,060	-0,037
-485,678	-1,195	-0,076	0,040
-484,664	97,946	-0,077	-0,065
-483,649	-72,129	0,031	0,008
-482,635	647,136	0,014	0,026
-481,620	154,604	0,047	0,047
-480,605	52,633	0,111	0,078
-479,591	-200,000	0,003	0,154
-478,576	-19,037	0,047	0,022
-477,562	-15,718	-0,118	-0,055
-476,547	34,298	0,072	-0,046
-475,532	187,072	-0,038	-0,042
-474,518	577,577	0,091	0,164
-473,503	800,000	0,041	0,088
-472,489	-200,000	0,046	0,179
-471,474	800,000	0,055	0,131
-470,459	-100,934	-0,212	0,038
-469,445	-11,818	0,164	0,079
-468,430	-200,000	0,019	-0,152
-467,416	607,362	-0,041	0,076
-466,401	409,195	0,066	0,103
-465,386	4,941	-0,113	0,061
-464,372	800,000	0,062	0,183
-463,357	-80,877	-0,071	-0,017
-462,343	-169,995	0,063	0,002
-461,328	-133,137	-0,138	0,013
-460,313	581,460	0,057	0,103
-459,299	-200,000	-0,005	0,040
-458,284	800,000	-0,044	-0,113
-457,270	604,904	-0,042	0,078
-456,255	365,043	0,040	0,060
-455,241	58,026	0,059	-0,043
-454,226	-200,000	-0,018	-0,117
-453,211	195,629	0,070	-0,079
-452,197	558,576	-0,068	0,120
-451,182	290,525	0,028	0,037
-450,168	79,378	0,079	0,063
-449,153	-82,313	-0,122	0,029
-448,138	66,956	0,093	-0,070
-447,124	800,000	-0,019	-0,045
-446,109	53,652	-0,092	-0,065
-445,095	204,523	0,033	0,038
-444,080	-200,000	0,034	0,137
-443,065	800,000	0,073	0,151
-442,051	271,621	0,021	0,028
-441,036	800,000	-0,050	-0,133
-440,022	-65,940	-0,087	0,025
-439,007	-21,352	0,129	-0,058
-437,992	-97,272	-0,065	-0,012
-436,978	-135,947	0,071	0,006
-435,963	-105,782	0,037	-0,006
-434,949	-98,159	-0,090	-0,017
-433,934	56,902	-0,071	0,051
-432,919	-12,342	-0,033	-0,016
-431,905	-200,000	-0,022	-0,077
-430,890	8,799	0,028	0,016
-429,876	-54,647	0,040	-0,013
-428,861	-200,000	0,020	0,066
-427,846	17,124	0,084	-0,049
-426,832	291,116	-0,035	-0,046
-425,817	800,000	-0,053	-0,123
-424,803	800,000	-0,047	-0,147
-423,788	418,707	-0,031	0,048
-422,773	76,830	0,102	-0,080
-421,759	274,826	0,027	-0,035
-420,744	115,146	0,011	-0,009
-419,730	800,000	-0,047	-0,118
-418,715	-200,000	-0,009	-0,062
-417,701	-200,000	0,016	0,072
-416,686	-6,062	-0,075	0,038
-415,671	-70,084	0,065	-0,018
-414,657	-77,211	0,097	-0,025
-413,642	-200,000	0,026	-0,086
-412,628	-20,186	-0,075	0,034
-411,613	800,000	-0,018	-0,060
-410,598	-200,000	0,024	-0,116
-409,584	800,000	0,040	-0,124
-408,569	800,000	-0,030	0,076
-407,555	389,000	0,065	0,099
-406,540	-60,610	0,070	-0,022
-405,525	51,494	-0,128	-0,089
-404,511	292,054	-0,157	-0,210
-403,496	27,781	-0,139	-0,086
-402,482	800,000	0,008	0,016
-401,467	232,380	0,089	-0,107
-400,452	29,905	0,194	-0,121
-399,438	625,939	-0,032	-0,059
-398,423	179,105	0,029	-0,031
-397,409	211,169	0,146	-0,169
-396,394	263,611	-0,031	-0,040
-395,379	381,937	-0,070	0,105
-394,365	-16,023	0,055	0,025
-393,350	-175,953	-0,199	0,004
-392,336	-96,586	0,034	0,007
-391,321	-200,000	0,012	0,047
-390,306	18,582	-0,063	0,037
-389,292	147,769	0,062	-0,062
-388,277	-122,374	0,079	0,009
-387,263	-200,000	0,028	0,097
-386,248	-89,943	-0,028	0,006
-385,233	-200,000	-0,003	-0,033
-384,219	631,841	0,025	-0,047
-383,204	-172,181	0,099	0,002
-382,190	70,262	-0,074	0,056
-381,175	-200,000	-0,006	-0,130
-380,160	-142,862	0,031	0,002
-379,146	-118,795	0,042	0,005
-378,131	453,572	-0,020	-0,033
-377,117	35,327	-0,057	-0,036
-376,102	-124,849	-0,180	-0,020
-375,088	213,928	0,105	0,122
-374,073	106,737	-0,063	-0,055
-373,058	635,881	0,029	-0,054
-372,044	37,583	0,104	0,068
-371,029	251,508	0,146	0,183
-370,015	800,000	-0,043	0,095
-369,000	800,000	0,023	0,070
-367,985	-200,000	-0,026	-0,280
-366,971	345,201	0,033	0,048
-365,956	-85,715	-0,042	-0,009
-364,942	622,897	0,066	0,122
-363,927	-200,000	0,036	0,154
-362,912	-56,477	-0,078	-0,025
-361,898	-88,914	0,064	0,014
-360,883	-8,126	-0,078	0,038
-359,869	489,364	0,044	0,074
-358,854	-63,059	-0,039	-0,012
-357,839	202,531	0,038	0,043
-356,825	800,000	0,010	0,023
-355,810	-200,000	-0,013	0,085
-354,796	-13,134	-0,153	-0,073
-353,781	-200,000	-0,015	0,111
-352,766	-200,000	0,037	0,132
-351,752	-200,000	0,025	-0,088
-350,737	-106,750	-0,064	0,010
-349,723	800,000	0,014	0,043
-348,708	-200,000	0,003	0,056
-347,693	-200,000	-0,026	0,167
-346,679	-200,000	0,040	-0,138
-345,664	139,750	-0,096	-0,093
-344,650	-200,000	-0,019	0,159
-343,635	280,469	0,026	-0,034
-342,620	-200,000	0,047	0,199
-341,606	50,010	0,127	-0,088
-340,591	-118,475	0,067	0,009
-339,577	27,630	-0,163	-0,100
-338,562	-131,511	-0,152	0,014
-337,548	65,366	0,035	0,026
-336,533	323,451	-0,024	-0,034
-335,518	420,164	-0,044	-0,069
-334,504	-200,000	0,007	-0,059
-333,489	-98,206	-0,082	0,015
-332,475	93,143	-0,193	0,159
-331,460	155,553	0,099	-0,100
-330,445	-200,000	0,043	-0,188
-329,431	59,840	-0,074	0,053
-328,416	210,176	-0,038	0,044
-327,402	555,484	0,068	0,120
-326,387	-200,000	-0,117	0,000
-325,372	-73,030	-0,223	-0,059
-324,358	-200,000	0,029	0,137
-323,343	111,212	0,083	-0,073
-322,329	-200,000	0,006	0,129
-321,314	41,653	0,088	0,058
-320,299	117,128	0,066	-0,060
-319,285	-76,681	-0,021	0,005
-318,270	800,000	-0,011	0,025
-317,256	169,904	-0,053	-0,055
-316,241	312,605	0,019	0,026
-315,226	-200,000	0,007	0,038
-314,212	-200,000	0,036	0,169
-313,197	372,647	0,062	0,092
-312,183	-200,000	0,003	-0,010
-311,168	-200,000	0,007	-0,185
-310,153	15,273	-0,127	-0,073
-309,139	305,175	0,076	-0,104
-308,124	291,674	0,055	0,073
-307,110	51,562	0,042	-0,029
-306,095	-200,000	-0,013	0,158
-305,080	304,046	-0,013	-0,018
-304,066	388,818	0,061	0,093
-303,051	800,000	0,045	-0,096
-302,037	156,528	0,044	0,044
-301,022	517,251	-0,084	0,144
-300,008	-92,234	-0,134	-0,027
-298,993	278,943	-0,026	0,035
-297,978	-109,504	0,121	0,018
-296,964	390,550	-0,082	0,125
-295,949	-68,070	-0,061	0,017
-294,935	-200,000	-0,014	-0,113
-293,920	-101,721	0,081	0,014
-292,905	800,000	-0,038	0,104
-291,891	6,064	0,114	0,062
-290,876	0,317	-0,037	-0,019
-289,862	263,072	-0,027	0,034
-288,847	800,000	0,065	-0,158
-287,832	-9,057	-0,075	0,037
-286,818	-174,155	-0,073	0,002
-285,803	187,160	0,067	0,073
-284,789	88,603	0,046	0,038
-283,774	800,000	0,032	0,085
-282,759	70,299	0,121	0,091
-281,745	154,356	-0,031	-0,031
-280,730	-56,708	0,026	0,008
-279,716	106,455	-0,141	0,122
-278,701	-200,000	0,012	-0,071
-277,686	545,476	-0,064	0,113
-276,672	123,068	-0,152	0,139
-275,657	-62,219	0,091	-0,028
-274,643	800,000	0,043	0,111
-273,628	98,434	-0,058	0,049
-272,613	-200,000	0,038	-0,142
-271,599	637,358	-0,063	-0,118
-270,584	36,741	0,032	-0,021
-269,570	800,000	0,052	0,113
-268,555	-15,109	-0,049	-0,023
-267,540	-200,000	-0,019	-0,096
-266,526	-12,209	-0,061	-0,029
-265,511	-64,947	0,107	-0,031
-264,497	129,562	0,077	0,072
-263,482	284,853	-0,042	0,055
-262,467	-200,000	0,004	0,070
-261,453	298,884	0,042	-0,057
-260,438	-200,000	0,010	0,113
-259,424	-200,000	0,004	0,091
-258,409	103,970	-0,067	-0,057
-257,395	800,000	-0,047	0,095
-256,380	455,405	0,104	0,169
-255,365	508,046	-0,087	0,148
-254,351	631,424	0,008	-0,014
-253,336	675,745	0,057	-0,109
-252,322	800,000	-0,053	0,152
-251,307	-44,933	0,025	-0,009
-250,292	-67,189	-0,045	0,013
-249,278	114,083	0,104	0,092
-248,263	73,727	-0,105	0,080
-247,249	-165,486	0,125	0,004
-246,234	-96,225	-0,089	0,017
-245,219	371,314	-0,093	-0,138
-244,205	-200,000	0,018	0,000
-243,190	-200,000	0,024	-0,132
-242,176	-11,935	-0,094	-0,045
-241,161	-200,000	0,054	0,303
-240,146	418,305	0,056	0,087
-239,132	-200,000	0,007	0,051
-238,117	-51,224	-0,026	-0,009
-237,103	145,954	0,016	-0,016
-236,088	800,000	0,018	-0,050
-235,073	225,610	0,090	0,107
-234,059	-138,184	-0,021	0,002
-233,044	259,284	0,054	0,068
-232,030	2,279	-0,024	0,013
-231,015	800,000	-0,076	-0,227
-230,000	800,000	0,023	-0,055
-228,986	-184,238	-0,100	-0,001
-227,971	-200,000	0,004	-0,101
-226,957	-200,000	0,046	0,162
-225,942	800,000	-0,017	-0,050
-224,927	23,309	-0,037	-0,022
-223,913	800,000	-0,037	-0,105
-222,898	204,845	-0,070	0,080
-221,884	-5,780	-0,056	0,028
-220,869	25,301	0,159	-0,096
-219,855	800,000	0,021	0,054
-218,840	-66,189	-0,075	0,022
-217,825	423,130	0,064	-0,100
-216,811	303,445	-0,159	-0,215
-215,796	-200,000	-0,020	-0,086
-214,782	247,660	0,023	-0,028
-213,767	-200,000	-0,022	0,085
-212,752	650,182	0,021	-0,040
-211,738	265,353	0,066	0,084
-210,723	337,130	0,051	-0,073
-209,709	800,000	0,024	0,073
-208,694	238,083	0,040	-0,049
-207,679	274,169	-0,007	0,010
-206,665	-200,000	0,047	0,227
-205,650	-75,236	-0,065	0,017
-204,636	800,000	0,014	-0,036
-203,621	-109,742	0,137	0,021
-202,606	17,561	0,082	0,047
-201,592	-82,196	-0,114	0,027
-200,577	553,083	0,042	0,074
-199,563	-200,000	0,001	0,105
-198,548	119,343	0,100	-0,090
-197,533	3,422	-0,168	-0,089
-196,519	-84,604	0,119	-0,027
-195,504	-200,000	-0,011	0,070
-194,490	-133,450	0,060	-0,005
-193,475	-124,665	-0,086	0,010
-192,460	228,488	-0,082	-0,097
-191,446	-200,000	0,008	-0,104
-190,431	-143,686	0,053	0,004
-189,417	-64,212	-0,070	0,021
-188,402	800,000	-0,048	0,111
-187,387	190,029	-0,069	0,076
-186,373	800,000	0,014	0,029
-185,358	70,613	-0,071	-0,053
-184,344	-200,000	-0,009	0,128
-183,329	-37,908	-0,075	-0,029
-182,315	-23,637	-0,032	-0,014
-181,300	800,000	0,091	0,184
-180,285	-200,000	-0,011	-0,129
-179,271	800,000	-0,032	-0,082
-178,256	800,000	0,028	-0,078
-177,242	201,603	0,110	0,124
-176,227	1,611	0,197	-0,103
-175,212	-56,276	0,026	0,008
-174,198	100,127	0,068	0,057
-173,183	-76,677	-0,161	-0,041
-172,169	-152,079	-0,137	-0,007
-171,154	176,480	-0,047	0,049
-170,139	-170,757	0,202	-0,005
-169,125	-200,000	-0,005	0,025
-168,110	800,000	0,043	0,091
-167,096	292,584	0,086	-0,115
-166,081	800,000	0,088	-0,188
-165,066	-109,052	-0,116	0,018
-164,052	800,000	-0,040	-0,107
-163,037	800,000	-0,016	0,049
-162,023	665,116	0,045	-0,084
-161,008	-62,390	0,161	-0,048
-159,993	-130,634	-0,139	-0,013
-158,979	109,063	0,051	-0,045
-157,964	147,451	-0,127	-0,124
-156,950	-200,000	0,022	-0,079
-155,935	-103,261	-0,086	0,015
-154,920	153,181	0,047	-0,047
-153,906	43,022	-0,077	0,051
-152,891	-154,794	-0,164	-0,008
-151,877	-50,085	-0,078	0,027
-150,862	83,702	-0,031	0,025
-149,847	-200,000	0,003	-0,073
-148,833	-0,875	0,099	-0,051
-147,818	-153,552	0,155	0,008
-146,804	198,542	-0,035	-0,039
-145,789	800,000	-0,005	0,014
-144,775	15,010	-0,076	0,043
-143,760	418,825	0,119	0,185
-142,745	-22,136	-0,102	0,045
-141,731	-59,160	0,076	0,024
-140,716	-200,000	0,007	0,170
-139,702	488,247	0,021	0,034
-138,687	66,028	-0,026	0,019
-137,672	-200,000	-0,022	0,085
-136,658	124,255	-0,090	-0,082
-135,643	60,029	-0,053	-0,038
-134,629	-200,000	0,033	-0,138
-133,614	30,330	0,028	0,017
-132,599	-13,454	0,055	0,026
-131,585	407,637	0,036	0,056
-130,570	-200,000	-0,013	0,094
-129,556	800,000	-0,015	-0,033
-128,541	800,000	-0,010	-0,021
-127,526	135,162	0,056	-0,053
-126,512	-200,000	-0,021	0,131
-125,497	786,655	-0,019	0,038
-124,483	-200,000	-0,017	0,117
-123,468	-20,966	0,060	-0,026
-122,453	518,681	0,044	-0,075
-121,439	-158,305	-0,047	-0,002
-120,424	152,938	-0,061	0,060
-119,410	-19,595	0,126	-0,056
-118,395	194,687	-0,028	0,030
-117,380	-26,042	0,037	0,016
-116,366	-30,722	-0,044	0,018
-115,351	53,789	-0,128	0,089
-114,337	306,183	-0,111	-0,150
-113,322	-142,031	0,071	0,005
-112,307	172,221	-0,140	-0,147
-111,293	181,126	0,133	0,142
-110,278	-34,552	-0,242	-0,096
-109,264	93,879	0,040	-0,033
-108,249	15,167	0,089	-0,051
-107,234	41,954	-0,079	-0,052
-106,220	7,914	-0,097	0,053
-105,205	-112,070	0,135	0,019
-104,191	-200,000	0,029	0,186
-103,176	-12,245	0,050	-0,024
-102,162	-200,000	-0,022	-0,117
-101,147	-200,000	0,015	0,065
-100,132	-200,000	-0,009	-0,078
-99,118	110,144	-0,017	0,015
-98,103	359,867	0,049	0,071
-97,089	-200,000	-0,004	0,055
-96,074	7,225	0,088	-0,047
-95,059	-200,000	0,003	0,025
-94,045	-200,000	0,010	-0,047
-93,030	-137,545	-0,082	-0,007
-92,016	-68,735	-0,083	-0,023
-91,001	140,700	0,109	-0,104
-89,986	-30,727	0,058	-0,024
-88,972	-46,880	0,034	0,012
-87,957	186,913	-0,056	0,060
-86,943	173,416	-0,102	-0,107
-85,928	-60,858	-0,023	0,007
-84,913	21,736	-0,117	-0,069
-83,899	-47,336	0,135	-0,047
-82,884	31,261	0,073	0,045
-81,870	800,000	-0,055	0,155
-80,855	800,000	-0,046	0,146
-79,840	-200,000	-0,007	0,033
-78,826	88,381	0,046	0,037
-77,811	77,081	0,058	-0,045
-76,797	128,577	0,039	0,036
-75,782	-103,142	0,098	0,017
-74,767	-27,888	0,074	-0,031
-73,753	-200,000	-0,019	0,100
-72,738	167,446	0,032	0,033
-71,724	-109,904	-0,112	-0,017
-70,709	227,099	0,072	-0,084
-69,694	230,162	0,099	-0,117
-68,680	-22,562	0,080	-0,035
-67,665	-22,776	-0,066	-0,029
-66,651	122,174	-0,070	-0,064
-65,636	47,862	-0,043	0,029
-64,622	81,318	0,060	-0,047
-63,607	800,000	0,053	-0,124
-62,592	-42,469	-0,150	-0,055
-61,578	81,129	0,018	0,014
-60,563	-200,000	-0,004	0,054
-59,549	298,786	-0,036	0,048
-58,534	-104,712	-1,650	-0,272
-57,519	800,000	-0,666	-1,370
-56,505	-200,000	-1,047	-4,536
-55,490	-58,686	0,702	-0,219
-54,476	800,000	4,846	11,712
-53,461	-200,000	14,524	258,679
-52,446	-200,000	696,223	2235,499
-51,432	566,139	1622,614	2861,155
-50,417	117,620	1630,163	1452,301
-49,403	74,622	1284,445	977,080
-48,388	37,405	1022,591	654,927
-47,373	23,241	981,857	582,320
-46,359	22,495	970,953	573,388
-45,344	21,339	966,801	567,141
-44,330	21,297	965,366	566,140
-43,315	21,141	963,947	564,777
-42,300	21,161	962,691	564,085
-41,286	21,145	961,875	563,533
-40,271	21,171	960,699	562,906
-39,257	21,149	959,786	562,276
-38,242	21,026	958,957	561,371
-37,227	21,075	958,208	561,068
-36,213	21,101	957,257	560,573
-35,198	21,069	956,218	559,841
-34,184	21,085	955,629	559,526
-33,169	21,074	954,522	558,820
-32,154	21,123	953,873	558,575
-31,140	21,090	952,994	557,930
-30,125	21,174	952,271	557,756
-29,111	21,054	951,526	556,910
-28,096	21,148	950,714	556,716
-27,082	21,084	950,177	556,174
-26,067	21,107	949,249	555,681
-25,052	21,085	948,392	555,088
-24,038	21,098	947,945	554,847
-23,023	21,141	947,174	554,510
-22,009	21,204	946,388	554,228
-20,994	21,093	946,154	553,717
-19,979	21,198	945,362	553,565
-18,965	21,106	944,827	552,935
-17,950	21,094	944,218	552,521
-16,936	21,030	943,538	551,898
-15,921	21,026	942,864	551,467
-14,906	20,958	942,318	550,909
-13,892	20,961	941,610	550,484
-12,877	21,006	940,779	550,119
-11,863	20,945	940,254	549,596
-10,848	20,958	939,855	549,385
-9,833	21,082	939,295	549,427
-8,819	21,018	938,676	548,839
-7,804	20,956	938,002	548,228
-6,790	20,964	937,508	547,942
-5,775	20,993	936,848	547,628
-4,760	21,005	936,227	547,279
-3,746	20,997	935,514	546,817
-2,731	20,808	934,806	545,786
-1,717	20,759	934,258	545,288
-0,702	20,844	933,403	545,036
0,313	20,625	932,924	544,890
1,327	23,673	931,025	553,304
2,342	33,110	794,076	496,972
3,356	30,698	450,626	278,373
4,371	0,271	294,610	151,572
5,386	-4,190	275,569	137,535
6,400	-5,530	269,959	133,477
7,415	-5,765	267,609	132,086
8,429	-5,473	266,553	131,821
9,444	-5,656	265,602	131,171
10,459	-5,626	264,880	130,831
11,473	-5,555	264,218	130,557
12,488	-5,670	263,865	130,266
13,502	-5,933	263,298	129,736
14,517	-5,951	262,930	129,527
15,531	-5,784	262,564	129,486
16,546	-5,556	262,130	129,467
17,561	-5,751	261,798	129,115
18,575	-5,636	261,474	129,048
19,590	-5,718	261,115	128,785
20,604	-5,697	260,794	128,634
21,619	-5,837	260,577	128,390
22,634	-5,579	260,101	128,375
23,648	-5,544	259,816	128,254
24,663	-5,800	259,571	127,893
25,677	-5,642	259,491	127,984
26,692	-5,661	259,045	127,735
27,707	-5,925	258,832	127,384
28,721	-5,679	258,592	127,473
29,736	-5,766	258,271	127,226
30,750	-5,632	258,000	127,200
31,765	-5,997	257,821	126,777
32,780	-5,800	257,590	126,827
33,794	-5,648	257,334	126,824
34,809	-5,689	256,945	126,584
35,823	-5,872	256,790	126,335
36,838	-5,885	256,747	126,292
37,853	-5,819	256,472	126,203
38,867	-5,963	256,126	125,894
39,882	-5,988	256,011	125,805
40,896	-5,796	255,466	125,694
41,911	-5,908	255,448	125,576
42,926	-5,870	255,241	125,497
43,940	-6,129	255,003	125,142
44,955	-6,193	254,804	124,977
45,969	-6,075	254,504	124,921
46,984	-6,151	254,279	124,734
47,999	-6,408	254,062	124,392
49,013	-6,478	253,914	124,247
50,028	-6,557	253,572	124,000
51,042	-6,669	253,354	123,785
52,057	-6,570	252,938	123,656
53,071	-6,583	252,889	123,611
54,086	-6,729	252,819	123,438
55,101	-6,306	252,553	123,664
56,115	-6,005	252,418	123,848
57,130	-5,686	252,429	124,118
58,144	-5,730	252,096	123,906
59,159	-5,828	251,957	123,741
60,174	-5,722	251,698	123,695
61,188	-5,841	251,648	123,557
62,203	-5,818	251,354	123,421
63,217	-5,690	251,193	123,441
64,232	-5,797	250,895	123,191
65,247	-5,603	250,591	123,198
66,261	-5,745	250,513	123,027
67,276	-5,904	250,173	122,712
68,290	-6,045	249,822	122,409
69,305	-6,138	249,730	122,273
70,320	-6,046	249,350	122,155
71,334	-5,748	249,342	122,394
72,349	-5,733	249,241	122,346
73,363	-5,689	249,245	122,375
74,378	-5,759	248,953	122,162
75,393	-5,693	248,717	122,091
76,407	-5,877	248,385	121,760
77,422	-5,761	248,347	121,830
78,436	-5,621	248,019	121,777
79,451	-5,943	247,889	121,429
80,466	-6,007	247,720	121,281
81,480	-5,958	247,469	121,189
82,495	-5,912	247,127	121,050
83,509	-6,016	246,992	120,884
84,524	-6,049	246,820	120,761
85,539	-6,262	246,590	120,459
86,553	-6,199	246,421	120,419
87,568	-5,902	246,185	120,542
88,582	-5,805	245,909	120,478
89,597	-6,080	245,871	120,218
90,611	-5,965	245,798	120,268
91,626	-5,735	245,454	120,283
92,641	-5,832	245,334	120,131
93,655	-5,886	245,157	119,989
94,670	-5,796	244,854	119,905
95,684	-5,871	244,723	119,767
96,699	-5,928	244,592	119,644
97,714	-5,933	244,346	119,510
98,728	-6,118	244,252	119,298
99,743	-6,214	244,012	119,091
100,757	-6,199	243,694	118,937
101,772	-5,951	243,661	119,117
102,787	-6,053	243,530	118,958
103,801	-6,126	243,221	118,735
104,816	-5,969	243,167	118,829
105,830	-6,000	243,039	118,730
106,845	-5,686	242,852	118,888
107,860	-5,855	242,550	118,590
108,874	-5,916	242,408	118,459
109,889	-5,878	242,280	118,417
110,903	-5,803	241,906	118,286
111,918	-5,827	241,850	118,229
112,933	-6,085	241,659	117,912
113,947	-5,898	241,559	118,007
114,962	-5,729	241,359	118,037
115,976	-5,891	241,063	117,749
116,991	-5,927	240,975	117,667
118,006	-5,880	240,797	117,607
119,020	-5,768	240,526	117,556
120,035	-5,934	240,687	117,488
121,049	-5,805	240,341	117,414
122,064	-5,961	240,267	117,240
123,079	-5,915	239,992	117,133
124,093	-6,074	239,865	116,931
125,108	-6,025	239,558	116,811
126,122	-6,399	239,385	116,411
127,137	-6,194	239,187	116,471
128,151	-6,090	238,902	116,407
129,166	-5,977	238,779	116,428
130,181	-6,016	238,634	116,315
131,195	-6,189	238,409	116,054
132,210	-5,950	238,282	116,177
133,224	-5,806	238,237	116,261
134,239	-5,840	237,961	116,089
135,254	-5,881	237,920	116,025
136,268	-5,974	237,570	115,769
137,283	-6,182	237,479	115,546
138,297	-6,400	237,285	115,264
139,312	-6,108	236,911	115,309
140,327	-6,126	236,980	115,318
141,341	-5,560	236,971	115,760
142,356	-5,354	236,595	115,732
143,370	-5,614	236,585	115,506
144,385	-5,453	236,421	115,546
145,400	-5,411	236,298	115,509
146,414	-5,344	236,035	115,424
147,429	-5,584	235,811	115,112
148,443	-5,747	235,723	114,928
149,458	-5,727	235,608	114,878
150,473	-5,679	235,460	114,834
151,487	-5,568	235,112	114,742
152,502	-5,311	234,909	114,839
153,516	-5,407	234,778	114,687
154,531	-5,602	234,781	114,523
155,546	-5,663	234,622	114,387
156,560	-5,665	234,424	114,278
157,575	-5,865	234,129	113,966
158,589	-5,753	233,958	113,961
159,604	-5,629	233,901	114,022
160,619	-5,459	233,840	114,116
161,633	-5,386	233,604	114,049
162,648	-5,369	233,425	113,966
163,662	-5,572	233,300	113,733
164,677	-5,708	233,217	113,575
165,692	-5,587	232,996	113,553
166,706	-5,519	232,869	113,535
167,721	-5,526	232,647	113,411
168,735	-5,379	232,470	113,430
169,750	-5,572	232,463	113,265
170,764	-5,516	232,223	113,181
171,779	-5,446	232,061	113,148
172,794	-5,355	231,948	113,155
173,808	-5,635	231,808	112,855
174,823	-5,875	231,408	112,462
175,837	-5,974	231,179	112,263
176,852	-5,868	231,128	112,312
177,867	-5,573	231,118	112,528
178,881	-5,432	230,893	112,519
179,896	-5,601	230,914	112,387
180,910	-5,596	230,761	112,306
181,925	-5,508	230,388	112,184
182,940	-5,538	230,238	112,077
183,954	-5,628	230,261	112,008
184,969	-5,476	230,172	112,073
185,983	-5,495	229,957	111,944
186,998	-5,478	229,793	111,867
188,013	-5,276	229,660	111,950
189,027	-5,247	229,438	111,854
190,042	-5,024	229,242	111,921
191,056	-5,230	229,065	111,666
192,071	-5,411	229,043	111,504
193,086	-5,292	228,655	111,398
194,100	-5,449	228,640	111,259
195,115	-5,564	228,281	110,985
196,129	-5,915	228,108	110,619
197,144	-2,946	229,037	113,363
198,159	1,539	230,350	117,495
199,173	3,641	231,006	119,456
200,188	3,928	230,818	119,571
201,202	3,831	230,841	119,497
202,217	4,071	230,629	119,563
203,232	4,099	230,556	119,536
204,246	4,455	230,287	119,662
205,261	4,324	230,325	119,570
206,275	4,428	230,120	119,533
207,290	4,726	229,893	119,635
208,304	4,668	229,763	119,512
209,319	4,718	229,446	119,375
210,334	4,368	229,278	119,007
211,348	3,991	229,141	118,634
212,363	3,886	228,975	118,457
213,377	3,631	228,641	118,077
214,392	3,411	228,655	117,905
215,407	3,792	228,554	118,135
216,421	3,715	228,270	117,919
217,436	3,619	228,188	117,793
218,450	3,570	227,873	117,582
219,465	3,367	227,523	117,235
220,480	3,557	227,561	117,389
221,494	3,386	227,562	117,249
222,509	3,695	227,404	117,393
223,523	3,700	227,112	117,236
224,538	3,496	227,173	117,101
225,553	3,602	226,906	117,034
226,567	3,836	226,855	117,176
227,582	4,003	226,737	117,231
228,596	3,901	226,621	117,083
229,611	3,579	226,513	116,772
230,626	3,615	226,097	116,574
231,640	3,513	226,119	116,498
232,655	3,864	226,028	116,707
233,669	4,269	226,111	117,047
234,684	4,376	225,747	116,929
235,699	4,112	225,607	116,647
236,713	3,733	225,381	116,233
237,728	3,730	225,143	116,097
238,742	3,621	224,751	115,802
239,757	3,824	224,729	115,934
240,772	3,582	224,841	115,799
241,786	3,401	224,579	115,517
242,801	3,787	224,560	115,788
243,815	4,026	224,372	115,861
244,830	4,185	224,230	115,897
245,844	3,738	224,014	115,439
246,859	3,834	223,819	115,400
247,874	3,848	223,862	115,423
248,888	3,719	223,839	115,303
249,903	3,824	223,416	115,154
250,917	3,663	223,257	114,941
251,932	3,636	223,096	114,828
252,947	3,578	222,876	114,661
253,961	3,371	223,022	114,571
254,976	3,630	222,514	114,493
255,990	3,818	222,644	114,690
257,005	3,926	222,394	114,632
258,020	3,899	222,352	114,579
259,034	3,994	222,317	114,622
260,049	3,842	222,129	114,402
261,063	3,744	221,903	114,202
262,078	3,960	221,803	114,301
263,093	4,042	221,782	114,341
264,107	3,987	221,436	114,111
265,122	3,942	221,310	114,003
266,136	4,106	221,316	114,118
267,151	4,044	221,200	114,002
268,166	3,498	220,930	113,448
269,180	3,657	220,562	113,366
270,195	3,649	220,523	113,331
271,209	3,736	220,407	113,325
272,224	3,588	220,331	113,167
273,239	3,748	220,191	113,202
274,253	3,893	219,968	113,184
275,268	3,515	219,783	112,801
276,282	3,251	219,543	112,474
277,297	3,490	219,426	112,580
278,312	3,697	219,490	112,755
279,326	3,517	219,279	112,505
280,341	3,787	219,151	112,627
281,355	3,776	219,006	112,534
282,370	3,666	218,745	112,309
283,384	3,371	218,632	112,025
284,399	3,373	218,541	111,970
285,414	3,279	218,273	111,754
286,428	3,665	218,255	112,016
287,443	3,880	218,130	112,099
288,457	3,740	218,105	111,975
289,472	3,411	218,001	111,671
290,487	3,427	217,441	111,386
291,501	3,317	217,558	111,357
292,516	3,416	217,273	111,272
293,530	3,261	217,222	111,124
294,545	3,531	216,980	111,185
295,560	3,611	216,981	111,234
296,574	3,536	216,967	111,163
297,589	3,542	216,746	111,044
298,603	3,645	216,742	111,106
299,618	3,693	216,494	111,005
300,633	3,686	216,277	110,878
301,647	3,745	216,195	110,869
302,662	3,914	216,193	110,980
303,676	3,991	216,081	110,968
304,691	3,960	215,953	110,870
305,706	3,957	215,813	110,786
306,720	3,654	215,705	110,503
307,735	3,757	215,480	110,451
308,749	3,611	215,292	110,241
309,764	3,759	215,127	110,253
310,779	3,897	215,186	110,372
311,793	3,780	214,915	110,139
312,808	3,670	214,718	109,950
313,822	3,535	214,604	109,784
314,837	3,624	214,371	109,719
315,852	3,419	214,182	109,467
316,866	3,680	214,072	109,587
317,881	3,782	214,013	109,620
318,895	4,173	213,870	109,815
319,910	3,586	213,702	109,301
320,925	3,321	213,545	109,022
321,939	3,387	213,127	108,846
322,954	3,324	213,308	108,885
323,968	3,793	213,227	109,166
324,983	3,802	213,139	109,118
325,997	3,959	213,066	109,183
327,012	3,795	212,740	108,889
328,027	3,882	212,602	108,871
329,041	4,112	212,602	109,024
330,056	4,180	212,526	109,023
331,070	3,605	212,304	108,493
332,085	3,308	212,056	108,147
333,100	3,497	211,872	108,177
334,114	3,935	211,791	108,435
335,129	3,884	211,595	108,288
336,143	3,668	211,530	108,094
337,158	3,694	211,365	108,018
338,173	3,485	211,333	107,845
339,187	3,545	211,065	107,741
340,202	3,272	210,908	107,459
341,216	3,202	210,825	107,358
342,231	3,192	210,693	107,275
343,246	3,603	210,500	107,455
344,260	3,607	210,428	107,411
345,275	3,878	210,354	107,554
346,289	3,481	210,316	107,246
347,304	3,844	210,018	107,338
348,319	3,682	209,917	107,164
349,333	3,584	209,891	107,073
350,348	3,681	209,760	107,064
351,362	3,702	209,629	107,003
352,377	3,972	209,433	107,081
353,392	3,793	209,198	106,827
354,406	3,870	209,124	106,833
355,421	194,900	1344,147	1432,587
356,435	155,575	1482,508	1432,670
