DTS Sentinel unit serial number:	SN410029Multiplexer serial number:	ORYXHardware model number:	OX2-SRSoftware version number:	ORYX F/W v4,00 Oryx Data Collector v3.7.2.0data status	okinstallation	B6 Nyhavnadifferential loss correction	single-endedforward channel	channel 2reverse channel	N/Adate	2023/12/09time	06:55:09forward acquisition time	300,00reverse acquisition time	0,00gamma	499,1914k internal	0,3139k external	0,3139temperature offset calibration	1,0000default loss term (dB/km)	0,3820temperature slope calibration	1,0000multiplexer offset coefficient	1,0000multiplexer slope coefficient	1,0000fibre end	0,00T internal ref (°C)	18,56T ext. ref 1 (°C)	2,13T ext. ref 2 (°C)	2,15length (m)	temperature (°C)	Stokes	anti-Stokes-744,400	11,846	-0,028	0,016
-743,385	-82,610	-0,173	0,041
-742,371	-200,000	0,011	0,087
-741,356	-60,052	-0,256	0,081
-740,342	-19,700	0,047	0,021
-739,327	-136,915	-0,397	0,033
-738,312	616,494	-0,006	0,012
-737,298	-53,085	-0,256	-0,087
-736,283	-15,459	0,064	-0,030
-735,269	-47,852	-0,348	0,124
-734,254	43,194	-0,038	-0,026
-733,239	-112,215	-0,522	-0,077
-732,225	-180,873	0,212	-0,003
-731,210	91,484	-0,012	-0,010
-730,196	191,610	0,089	-0,099
-729,181	283,971	0,061	0,081
-728,167	-200,000	-0,003	0,027
-727,152	-200,000	-0,019	0,087
-726,137	-72,315	-0,185	-0,050
-725,123	-200,000	0,001	-0,128
-724,108	769,378	-0,036	-0,072
-723,094	800,000	-0,066	-0,162
-722,079	161,622	-0,134	-0,139
-721,064	109,638	0,083	-0,073
-720,050	-200,000	-0,001	0,068
-719,035	-200,000	0,031	-0,164
-718,021	0,828	-0,113	-0,060
-717,006	-129,009	-0,149	-0,015
-715,991	800,000	-0,009	-0,028
-714,977	130,121	0,019	0,018
-713,962	-200,000	0,000	0,154
-712,948	13,119	0,105	-0,060
-711,933	-81,671	-0,009	0,002
-710,918	-111,741	-0,148	-0,022
-709,904	-115,256	0,058	0,008
-708,889	394,870	0,019	-0,029
-707,875	-44,758	0,013	-0,005
-706,860	156,857	-0,028	-0,028
-705,845	-44,438	0,220	0,081
-704,831	800,000	-0,039	-0,094
-703,816	-46,327	-0,024	0,009
-702,802	-43,985	-0,137	-0,051
-701,787	61,980	0,084	0,062
-700,772	-156,462	-0,118	-0,005
-699,758	800,000	-0,073	-0,172
-698,743	24,950	0,034	-0,021
-697,729	800,000	0,067	-0,163
-696,714	22,511	-0,038	0,023
-695,699	-200,000	0,009	0,133
-694,685	338,773	0,047	0,068
-693,670	379,564	-0,004	0,006
-692,656	-200,000	-0,031	-0,107
-691,641	-55,184	0,011	-0,004
-690,627	-47,449	0,162	0,058
-689,612	-43,784	-0,062	-0,023
-688,597	328,598	0,047	-0,067
-687,583	118,874	-0,102	0,093
-686,568	-26,376	-0,081	0,035
-685,554	248,591	-0,101	0,127
-684,539	800,000	0,067	0,172
-683,524	-41,574	0,100	0,038
-682,510	-85,692	-0,019	-0,004
-681,495	45,297	-0,130	-0,088
-680,481	159,107	0,088	0,091
-679,466	-137,248	-0,115	0,010
-678,451	-103,186	0,046	0,008
-677,437	396,660	-0,066	-0,102
-676,422	-200,000	0,015	0,080
-675,408	-59,161	-0,128	-0,041
-674,393	387,006	0,038	0,058
-673,378	-168,984	-0,069	0,002
-672,364	103,032	-0,109	-0,094
-671,349	379,222	0,044	-0,066
-670,335	800,000	-0,017	-0,046
-669,320	-200,000	0,014	-0,047
-668,305	800,000	0,046	0,131
-667,291	-200,000	-0,002	-0,012
-666,276	-200,000	-0,029	-0,136
-665,262	-107,869	-0,064	-0,010
-664,247	92,036	-0,087	-0,072
-663,232	507,633	-0,020	0,035
-662,218	-10,885	0,117	-0,057
-661,203	269,672	-0,067	0,087
-660,189	320,011	-0,090	0,127
-659,174	139,317	-0,100	-0,098
-658,159	-200,000	-0,048	-0,205
-657,145	198,854	-0,053	0,060
-656,130	6,810	0,128	0,070
-655,116	-200,000	-0,033	0,157
-654,101	459,811	0,043	-0,071
-653,086	-48,759	-0,027	-0,009
-652,072	-60,511	-0,055	-0,017
-651,057	64,581	-0,100	-0,074
-650,043	103,537	-0,113	-0,098
-649,028	800,000	-0,043	0,131
-648,014	421,341	0,051	0,081
-646,999	-102,564	-0,112	-0,020
-645,984	-200,000	0,023	-0,147
-644,970	-200,000	-0,006	0,093
-643,955	-2,775	0,054	-0,028
-642,941	800,000	0,032	-0,066
-641,926	218,291	0,102	-0,120
-640,911	-200,000	0,012	-0,176
-639,897	-109,642	0,050	-0,008
-638,882	44,760	0,058	0,039
-637,868	32,963	0,029	-0,019
-636,853	337,951	-0,095	-0,137
-635,838	40,480	0,037	0,025
-634,824	293,400	0,096	0,129
-633,809	-188,709	-0,175	0,002
-632,795	-200,000	0,002	-0,031
-631,780	-200,000	-0,004	0,096
-630,765	552,861	-0,081	-0,143
-629,751	387,261	-0,048	0,073
-628,736	800,000	-0,044	-0,135
-627,722	42,421	0,032	-0,021
-626,707	-29,993	-0,135	-0,057
-625,692	800,000	0,027	0,060
-624,678	-126,016	0,091	0,010
-623,663	-200,000	0,008	0,138
-622,649	800,000	0,033	-0,080
-621,634	230,969	-0,092	-0,112
-620,619	-200,000	-0,016	-0,092
-619,605	31,395	-0,074	-0,047
-618,590	87,146	0,078	0,064
-617,576	-65,153	0,049	0,015
-616,561	775,083	-0,024	0,049
-615,546	-200,000	0,037	-0,149
-614,532	-200,000	0,000	-0,052
-613,517	-109,890	-0,071	-0,011
-612,503	-137,280	0,040	-0,003
-611,488	-61,668	-0,148	0,045
-610,474	-136,082	0,049	-0,004
-609,459	800,000	0,044	0,115
-608,444	-114,838	-0,067	0,009
-607,430	108,173	-0,089	0,078
-606,415	199,859	0,031	0,035
-605,401	281,847	-0,084	0,112
-604,386	219,681	0,051	0,060
-603,371	-200,000	-0,003	-0,060
-602,357	20,540	0,043	0,026
-601,342	133,698	0,027	0,025
-600,328	-5,745	-0,024	-0,012
-599,313	-200,000	-0,021	-0,087
-598,298	-5,799	0,109	0,055
-597,284	-33,565	-0,087	-0,035
-596,269	-26,033	0,133	-0,058
-595,255	-19,072	-0,068	-0,031
-594,240	67,274	-0,120	0,090
-593,225	79,900	-0,043	-0,034
-592,211	-29,657	-0,091	-0,038
-591,196	-200,000	0,004	-0,067
-590,182	800,000	-0,025	-0,080
-589,167	421,796	-0,026	-0,041
-588,152	-137,355	0,127	-0,010
-587,138	107,004	0,056	0,049
-586,123	183,367	-0,059	0,064
-585,109	15,889	0,129	-0,075
-584,094	9,219	-0,182	-0,101
-583,079	42,843	0,010	0,007
-582,065	74,217	-0,125	0,097
-581,050	-10,855	0,134	-0,065
-580,036	32,926	-0,033	-0,021
-579,021	800,000	0,042	-0,103
-578,006	203,303	-0,036	-0,041
-576,992	-200,000	0,023	-0,113
-575,977	310,750	0,029	-0,041
-574,963	109,632	-0,117	0,103
-573,948	16,355	0,088	0,051
-572,934	204,596	-0,111	0,127
-571,919	-200,000	-0,014	-0,061
-570,904	-0,777	0,051	0,027
-569,890	178,310	-0,065	-0,070
-568,875	-136,550	0,138	0,012
-567,861	-51,563	0,097	0,033
-566,846	-200,000	0,000	0,068
-565,831	126,028	0,062	-0,057
-564,817	-188,411	-0,152	-0,001
-563,802	800,000	0,027	-0,057
-562,788	116,520	-0,064	0,057
-561,773	-200,000	0,003	-0,020
-560,758	-74,555	-0,044	0,012
-559,744	-121,869	0,080	-0,010
-558,729	800,000	-0,011	0,027
-557,715	748,495	0,025	-0,049
-556,700	296,274	-0,069	0,093
-555,685	-25,243	0,042	0,018
-554,671	67,265	0,074	0,056
-553,656	449,330	0,047	0,076
-552,642	427,280	0,021	-0,034
-551,627	15,358	-0,030	0,017
-550,612	172,692	-0,063	-0,066
-549,598	106,993	0,018	0,016
-548,583	-200,000	0,001	0,176
-547,569	-129,358	-0,052	-0,005
-546,554	131,172	0,099	0,094
-545,539	448,303	0,022	-0,036
-544,525	-14,366	0,052	0,024
-543,510	-30,862	-0,065	-0,027
-542,496	800,000	0,038	0,079
-541,481	-122,127	-0,125	-0,015
-540,466	-200,000	-0,004	-0,079
-539,452	-200,000	-0,013	0,088
-538,437	-82,876	0,103	-0,024
-537,423	-200,000	0,004	-0,049
-536,408	800,000	0,015	-0,035
-535,393	-118,978	-0,143	-0,018
-534,379	800,000	-0,088	-0,194
-533,364	383,540	-0,028	0,043
-532,350	296,223	-0,046	-0,062
-531,335	-200,000	-0,027	0,125
-530,321	-149,952	-0,030	-0,002
-529,306	-146,780	-0,112	-0,007
-528,291	-160,886	0,069	0,003
-527,277	384,281	0,018	0,027
-526,262	-200,000	0,004	0,074
-525,248	-200,000	-0,021	-0,096
-524,233	800,000	0,031	0,093
-523,218	800,000	-0,020	-0,061
-522,204	-200,000	-0,001	0,061
-521,189	262,101	-0,081	-0,104
-520,175	-118,369	-0,083	-0,011
-519,160	71,395	0,121	-0,093
-518,145	622,998	0,008	0,015
-517,131	-95,613	0,038	0,007
-516,116	1,646	-0,071	0,037
-515,102	-200,000	-0,017	0,130
-514,087	-11,393	0,063	-0,030
-513,072	53,650	-0,093	0,066
-512,058	-46,818	-0,020	0,007
-511,043	-19,013	0,064	0,029
-510,029	-68,809	0,040	0,011
-509,014	800,000	0,053	-0,127
-507,999	800,000	0,040	-0,084
-506,985	-200,000	-0,020	-0,066
-505,970	3,850	-0,140	-0,075
-504,956	800,000	0,024	-0,051
-503,941	-200,000	-0,025	0,175
-502,926	-165,921	-0,092	0,003
-501,912	206,573	0,042	-0,049
-500,897	-200,000	-0,012	-0,061
-499,883	-200,000	-0,046	-0,215
-498,868	-138,197	0,062	-0,005
-497,853	-45,592	-0,074	0,027
-496,839	400,076	0,058	-0,090
-495,824	-135,521	0,054	0,005
-494,810	240,743	-0,116	0,142
-493,795	82,710	0,132	0,105
-492,781	-200,000	0,007	-0,076
-491,766	-200,000	0,005	0,023
-490,751	707,156	-0,065	-0,127
-489,737	-200,000	0,011	-0,043
-488,722	800,000	0,034	0,089
-487,708	258,988	0,086	-0,109
-486,693	800,000	0,010	0,021
-485,678	110,372	0,012	-0,010
-484,664	-63,216	0,023	0,007
-483,649	128,989	-0,086	0,080
-482,635	172,195	-0,053	-0,056
-481,620	111,300	0,061	0,054
-480,605	527,223	0,034	0,058
-479,591	-149,586	-0,095	0,005
-478,576	-82,370	0,022	0,005
-477,562	800,000	0,018	0,051
-476,547	-200,000	0,015	0,122
-475,532	248,690	-0,028	0,034
-474,518	-200,000	-0,008	0,050
-473,503	39,310	-0,095	0,062
-472,489	429,568	0,050	0,080
-471,474	345,708	0,022	0,031
-470,459	-5,868	-0,066	0,033
-469,445	-84,251	-0,072	-0,017
-468,430	245,194	0,004	-0,005
-467,416	-200,000	-0,001	-0,036
-466,401	-76,829	0,085	-0,022
-465,386	-200,000	0,011	-0,048
-464,372	-200,000	0,011	-0,112
-463,357	800,000	0,016	0,035
-462,343	36,975	-0,122	-0,079
-461,328	-200,000	-0,006	0,050
-460,313	325,717	-0,023	0,033
-459,299	-4,642	0,062	0,031
-458,284	88,539	0,057	0,046
-457,270	-119,976	-0,044	0,005
-456,255	800,000	0,072	-0,180
-455,241	-200,000	0,040	0,150
-454,226	502,492	-0,073	-0,124
-453,211	-122,688	0,268	-0,031
-452,197	191,904	0,051	0,056
-451,182	-100,180	-0,069	0,012
-450,168	390,632	0,057	0,087
-449,153	31,068	-0,063	-0,040
-448,138	479,717	0,051	0,086
-447,124	13,866	0,029	0,017
-446,109	-200,000	0,039	-0,182
-445,095	-147,805	0,103	0,006
-444,080	-101,795	0,025	0,004
-443,065	-43,656	-0,089	0,033
-442,051	-40,099	-0,085	0,032
-441,036	372,094	0,097	-0,145
-440,022	-200,000	-0,042	-0,168
-439,007	173,543	0,071	-0,075
-437,992	-74,930	0,193	0,050
-436,978	-200,000	0,016	-0,053
-435,963	800,000	-0,038	0,124
-434,949	-87,833	-0,126	0,027
-433,934	-106,029	0,085	0,014
-432,919	164,553	0,092	0,095
-431,905	175,161	-0,060	-0,064
-430,890	-135,082	0,055	0,005
-429,876	-11,399	0,133	0,064
-428,861	245,223	0,032	0,039
-427,846	-200,000	-0,002	-0,202
-426,832	-200,000	-0,031	-0,119
-425,817	151,708	-0,058	0,058
-424,803	-28,337	-0,084	0,036
-423,788	-0,166	0,046	0,024
-422,773	-200,000	-0,003	-0,015
-421,759	-84,559	-0,155	0,036
-420,744	448,715	0,034	0,054
-419,730	321,846	0,053	0,075
-418,715	371,164	-0,028	-0,041
-417,701	53,283	-0,116	0,081
-416,686	-18,836	0,164	0,075
-415,671	217,024	0,048	-0,056
-414,657	128,873	-0,039	0,037
-413,642	61,518	-0,060	0,044
-412,628	-120,397	0,086	-0,011
-411,613	800,000	0,035	0,078
-410,598	-200,000	-0,002	-0,073
-409,584	-200,000	-0,010	0,036
-408,569	-128,710	0,098	0,010
-407,555	470,863	0,066	-0,109
-406,540	-35,859	-0,014	-0,005
-405,525	800,000	-0,047	-0,116
-404,511	-200,000	0,004	0,015
-403,496	109,902	-0,135	-0,119
-402,482	69,590	-0,025	0,019
-401,467	104,758	0,074	0,064
-400,452	-200,000	-0,011	0,090
-399,438	96,077	-0,042	0,035
-398,423	-89,156	0,030	-0,006
-397,409	-200,000	-0,002	0,025
-396,394	182,909	-0,019	-0,020
-395,379	387,366	-0,040	-0,061
-394,365	577,141	-0,054	0,097
-393,350	186,087	0,067	-0,074
-392,336	-104,227	0,090	0,015
-391,321	800,000	-0,064	-0,155
-390,306	800,000	0,015	-0,035
-389,292	30,962	0,166	0,104
-388,277	-200,000	0,023	-0,089
-387,263	32,462	0,172	-0,108
-386,248	136,641	-0,052	-0,050
-385,233	-54,603	0,124	0,041
-384,219	29,301	-0,038	0,024
-383,204	115,236	-0,067	-0,060
-382,190	282,674	-0,032	-0,042
-381,175	-121,558	-0,048	-0,006
-380,160	-160,606	-0,038	0,001
-379,146	694,765	0,044	0,085
-378,131	-200,000	0,010	0,164
-377,117	-106,488	0,113	0,018
-376,102	-76,541	-0,078	0,020
-375,088	-78,570	-0,071	-0,018
-374,073	190,348	-0,030	-0,032
-373,058	-34,119	0,034	-0,014
-372,044	-145,904	0,062	-0,004
-371,029	-77,830	0,051	-0,013
-370,015	-200,000	0,005	0,022
-369,000	139,345	-0,033	0,032
-367,985	800,000	-0,029	-0,071
-366,971	444,425	0,092	0,148
-365,956	-200,000	0,013	0,117
-364,942	-200,000	0,009	0,103
-363,927	190,627	0,064	0,070
-362,912	800,000	0,015	0,030
-361,898	-200,000	-0,015	0,131
-360,883	-200,000	-0,004	-0,040
-359,869	208,128	0,039	-0,044
-358,854	15,647	-0,113	0,065
-357,839	-89,612	0,120	0,025
-356,825	22,084	0,069	-0,041
-355,810	-170,418	0,050	-0,001
-354,796	-8,431	-0,048	0,023
-353,781	389,248	-0,034	0,051
-352,766	-200,000	-0,004	0,152
-351,752	-48,922	0,146	0,051
-350,737	-57,159	-0,124	0,040
-349,723	-46,330	0,109	0,039
-348,708	-52,179	0,066	-0,022
-347,693	-200,000	0,005	-0,063
-346,679	100,293	0,008	0,007
-345,664	-51,894	-0,079	-0,027
-344,650	-132,068	-0,093	-0,009
-343,635	477,471	-0,050	0,084
-342,620	-200,000	0,010	0,122
-341,606	127,814	-0,051	0,048
-340,591	121,102	0,053	0,048
-339,577	-17,398	-0,046	-0,021
-338,562	140,198	0,079	0,076
-337,548	-24,179	0,063	0,027
-336,533	206,715	0,058	0,066
-335,518	-200,000	0,014	0,101
-334,504	323,288	-0,108	0,151
-333,489	-50,168	-0,108	0,037
-332,475	800,000	-0,056	0,132
-331,460	246,462	0,034	-0,042
-330,445	-68,895	0,135	-0,038
-329,431	203,301	0,125	0,141
-328,416	71,850	-0,112	-0,085
-327,402	800,000	-0,035	0,080
-326,387	470,894	-0,063	0,105
-325,372	320,404	-0,088	-0,123
-324,358	134,602	-0,070	-0,066
-323,343	140,586	0,074	-0,071
-322,329	-94,343	0,079	-0,016
-321,314	-200,000	-0,026	0,084
-320,299	381,975	0,024	0,036
-319,285	-92,858	-0,136	-0,027
-318,270	800,000	0,030	-0,074
-317,256	-69,187	-0,123	0,034
-316,241	46,833	0,068	0,046
-315,226	-77,616	0,198	0,050
-314,212	420,373	0,070	0,110
-313,197	393,289	-0,119	0,181
-312,183	231,688	-0,023	0,028
-311,168	-118,862	-0,091	0,011
-310,153	-200,000	0,023	-0,122
-309,139	800,000	-0,053	-0,136
-308,124	69,435	0,099	-0,074
-307,110	389,344	-0,028	-0,042
-306,095	800,000	0,023	0,065
-305,080	-19,956	0,020	-0,009
-304,066	-121,209	-0,071	0,009
-303,051	800,000	0,037	-0,094
-302,037	-200,000	-0,010	-0,070
-301,022	46,397	-0,089	-0,060
-300,008	-200,000	0,017	-0,060
-298,993	32,944	-0,071	-0,044
-297,978	-66,059	-0,073	0,021
-296,964	-123,819	-0,039	0,004
-295,949	800,000	-0,007	-0,022
-294,935	129,374	-0,112	-0,104
-293,920	-31,476	0,077	-0,031
-292,905	60,507	0,081	-0,059
-291,891	-103,413	-0,014	0,002
-290,876	-200,000	0,026	-0,088
-289,862	800,000	0,016	-0,035
-288,847	-200,000	-0,002	-0,122
-287,832	793,985	-0,043	-0,087
-286,818	-112,121	0,113	0,016
-285,803	-200,000	0,014	0,060
-284,789	-3,953	0,128	0,064
-283,774	-200,000	0,001	0,011
-282,759	-44,587	0,051	0,018
-281,745	163,407	-0,051	-0,053
-280,730	800,000	-0,054	-0,139
-279,716	69,034	0,024	0,018
-278,701	-200,000	0,035	-0,151
-277,686	-181,783	0,018	0,000
-276,672	-200,000	0,004	0,103
-275,657	396,003	-0,071	0,109
-274,643	-29,391	-0,082	0,034
-273,628	398,463	0,021	-0,033
-272,613	800,000	-0,048	0,121
-271,599	-200,000	0,009	0,129
-270,584	-60,402	0,181	-0,056
-269,570	90,969	-0,139	0,113
-268,555	35,482	0,068	-0,043
-267,540	0,868	0,053	0,028
-266,526	-119,324	0,140	0,018
-265,511	-106,615	0,045	0,007
-264,497	800,000	0,055	-0,115
-263,482	-69,191	-0,113	-0,031
-262,467	800,000	0,007	-0,016
-261,453	-14,248	-0,050	0,023
-260,438	152,064	0,045	-0,044
-259,424	462,572	-0,047	-0,076
-258,409	800,000	-0,028	0,057
-257,395	-26,758	-0,094	0,040
-256,380	800,000	-0,012	-0,029
-255,365	-50,071	0,136	0,047
-254,351	800,000	-0,068	0,147
-253,336	-200,000	-0,006	-0,078
-252,322	-122,837	-0,175	0,020
-251,307	-53,962	0,088	-0,029
-250,292	800,000	0,031	-0,078
-249,278	-200,000	0,021	-0,067
-248,263	-200,000	-0,004	-0,109
-247,249	800,000	0,019	-0,054
-246,234	198,206	-0,077	-0,086
-245,219	411,005	0,043	0,067
-244,205	468,230	0,072	-0,118
-243,190	800,000	0,021	0,059
-242,176	245,326	-0,093	-0,114
-241,161	800,000	-0,033	0,102
-240,146	64,340	-0,098	0,072
-239,132	58,388	0,105	-0,075
-238,117	-73,640	-0,052	-0,014
-237,103	-76,174	-0,088	-0,022
-236,088	93,594	0,090	0,074
-235,073	-45,831	0,083	0,030
-234,059	-200,000	0,018	0,064
-233,044	-200,000	-0,060	0,000
-232,030	-9,245	-0,135	0,065
-231,015	92,942	-0,050	0,041
-230,000	147,192	-0,115	-0,113
-228,986	142,281	0,092	0,089
-227,971	5,412	-0,037	-0,020
-226,957	723,176	0,044	0,086
-225,942	5,339	0,092	-0,049
-224,927	-177,300	0,020	0,000
-223,913	-36,160	-0,078	-0,030
-222,898	122,365	-0,047	0,042
-221,884	800,000	-0,037	0,111
-220,869	-13,145	-0,163	0,077
-219,855	60,125	0,066	0,047
-218,840	800,000	-0,010	0,030
-217,825	3,457	0,055	0,029
-216,811	-200,000	0,004	-0,187
-215,796	800,000	-0,065	-0,181
-214,782	20,256	0,177	-0,104
-213,767	222,967	-0,056	-0,066
-212,752	-79,641	0,082	-0,020
-211,738	800,000	0,043	0,136
-210,723	346,996	-0,070	0,100
-209,709	-9,758	-0,102	-0,049
-208,694	-79,543	0,114	-0,028
-207,679	12,601	0,183	-0,102
-206,665	111,468	-0,028	0,025
-205,650	-6,933	0,020	-0,010
-204,636	156,129	0,213	0,213
-203,621	-30,704	-0,001	-0,000
-202,606	800,000	-0,020	0,044
-201,592	800,000	-0,035	-0,082
-200,577	-200,000	-0,047	-0,165
-199,563	-68,304	0,099	-0,028
-198,548	-200,000	0,013	-0,064
-197,533	646,786	-0,042	0,079
-196,519	54,832	-0,074	-0,052
-195,504	369,202	0,022	-0,033
-194,490	246,043	-0,053	-0,065
-193,475	382,222	-0,073	-0,108
-192,460	-104,886	-0,119	-0,020
-191,446	362,911	0,079	0,115
-190,431	-87,350	0,046	-0,010
-189,417	445,265	-0,016	0,026
-188,402	-67,864	-0,116	0,033
-187,387	-95,249	-0,105	0,020
-186,373	-85,959	0,056	-0,012
-185,358	105,457	0,085	0,073
-184,344	-200,000	0,011	0,055
-183,329	293,766	0,059	0,079
-182,315	-5,052	-0,079	0,040
-181,300	283,272	-0,032	0,041
-180,285	-137,324	0,067	0,005
-179,271	-7,262	-0,060	-0,029
-178,256	-200,000	0,024	-0,109
-177,242	104,447	-0,052	-0,045
-176,227	-200,000	-0,017	-0,068
-175,212	-113,768	0,102	-0,014
-174,198	250,762	-0,123	0,152
-173,183	800,000	-0,032	-0,083
-172,169	335,323	0,057	-0,081
-171,154	-118,330	0,090	-0,012
-170,139	-92,559	-0,095	-0,019
-169,125	-59,992	-0,160	0,049
-168,110	800,000	0,020	0,060
-167,096	69,074	0,150	0,112
-166,081	-104,256	-0,123	0,021
-165,066	-73,592	-0,184	-0,048
-164,052	800,000	-0,047	-0,097
-163,037	-55,870	0,054	0,017
-162,023	-144,381	0,088	0,006
-161,008	-176,836	0,152	0,003
-159,993	-200,000	-0,015	0,066
-158,979	47,848	-0,162	-0,110
-157,964	468,608	0,018	0,030
-156,950	-200,000	0,021	-0,147
-155,935	463,438	0,036	-0,059
-154,920	-200,000	0,008	0,063
-153,906	-200,000	0,011	0,148
-152,891	558,829	0,029	-0,051
-151,877	-112,227	0,059	0,008
-150,862	-42,975	-0,134	0,049
-149,847	54,731	-0,074	-0,052
-148,833	-66,820	0,103	-0,029
-147,818	-200,000	-0,008	0,051
-146,804	-50,515	0,053	-0,018
-145,789	-139,040	0,164	0,013
-144,775	-97,003	-0,144	0,027
-143,760	60,160	-0,162	-0,116
-142,745	-76,344	0,106	-0,027
-141,731	-116,606	0,085	-0,011
-140,716	-200,000	-0,007	0,062
-139,702	7,333	-0,054	-0,029
-138,687	-200,000	0,001	-0,016
-137,672	800,000	-0,013	0,029
-136,658	-200,000	-0,010	-0,049
-135,643	-200,000	-0,018	-0,169
-134,629	-45,129	0,033	-0,012
-133,614	-47,720	0,015	0,005
-132,599	325,840	0,017	0,024
-131,585	-92,833	0,195	-0,039
-130,570	-200,000	-0,004	0,118
-129,556	-200,000	0,026	0,106
-128,541	-200,000	0,026	-0,097
-127,526	113,553	0,019	-0,017
-126,512	335,544	0,070	0,098
-125,497	-146,954	-0,041	0,003
-124,483	800,000	0,011	0,023
-123,468	-200,000	0,006	-0,117
-122,453	279,738	-0,027	-0,035
-121,439	-200,000	-0,014	0,050
-120,424	-34,949	-0,119	-0,047
-119,410	629,689	-0,083	-0,152
-118,395	118,012	-0,142	-0,126
-117,380	-200,000	0,008	0,087
-116,366	-35,135	-0,061	-0,024
-115,351	800,000	0,035	-0,085
-114,337	-42,270	-0,065	-0,024
-113,322	-200,000	-0,009	-0,059
-112,307	120,469	0,086	-0,077
-111,293	-153,862	0,059	-0,003
-110,278	800,000	-0,025	-0,065
-109,264	596,483	-0,061	-0,110
-108,249	-200,000	0,002	-0,013
-107,234	82,128	-0,061	0,048
-106,220	-200,000	0,000	-0,051
-105,205	-7,609	0,088	0,043
-104,191	104,734	-0,073	-0,062
-103,176	-5,204	0,031	-0,015
-102,162	-200,000	0,014	0,126
-101,147	421,821	-0,018	0,028
-100,132	-200,000	-0,013	-0,042
-99,118	-200,000	0,010	0,097
-98,103	523,553	-0,053	0,091
-97,089	-12,942	0,067	0,031
-96,074	-150,539	-0,148	-0,008
-95,059	-0,367	0,015	0,008
-94,045	800,000	-0,058	0,172
-93,030	-17,620	-0,104	-0,047
-92,016	-200,000	-0,022	-0,128
-91,001	452,159	-0,039	0,062
-89,986	-5,691	0,044	-0,022
-88,972	-200,000	0,013	0,051
-87,957	-23,374	-0,047	-0,020
-86,943	382,842	-0,020	0,030
-85,928	-188,739	-0,096	-0,001
-84,913	-151,920	0,182	-0,009
-83,899	685,105	0,082	-0,155
-82,884	-200,000	0,027	-0,096
-81,870	-106,961	0,213	-0,034
-80,855	-200,000	0,014	0,080
-79,840	-70,264	-0,041	-0,011
-78,826	116,435	-0,069	-0,061
-77,811	-181,795	-0,035	0,000
-76,797	112,714	-0,057	-0,050
-75,782	97,715	0,152	0,126
-74,767	-110,968	0,052	0,008
-73,753	186,407	-0,080	0,086
-72,738	83,759	-0,046	0,036
-71,724	300,794	-0,068	-0,091
-70,709	-164,958	-0,085	-0,003
-69,694	-46,837	-0,117	-0,041
-68,680	800,000	0,004	-0,012
-67,665	-200,000	-0,002	0,132
-66,651	800,000	0,038	0,099
-65,636	47,528	-0,064	-0,043
-64,622	-141,687	0,037	-0,003
-63,607	800,000	0,039	-0,121
-62,592	-200,000	0,015	0,055
-61,578	534,292	-0,050	0,086
-60,563	-148,393	0,097	0,006
-59,549	166,846	-0,021	0,021
-58,534	-23,271	-1,737	-0,751
-57,519	800,000	-0,478	-1,116
-56,505	-200,000	-1,194	-4,711
-55,490	-200,000	0,617	-0,001
-54,476	800,000	5,290	12,287
-53,461	-200,000	15,857	277,898
-52,446	-200,000	703,093	2243,658
-51,432	561,099	1619,595	2837,139
-50,417	121,076	1623,601	1458,401
-49,403	81,257	1284,054	1000,410
-48,388	36,703	1028,106	654,119
-47,373	21,571	989,979	579,832
-46,359	20,493	978,732	569,669
-45,344	18,787	974,602	561,637
-44,330	18,903	973,349	561,273
-43,315	18,653	971,485	559,356
-42,300	18,589	970,607	558,618
-41,286	18,657	969,432	558,143
-40,271	18,652	968,557	557,600
-39,257	18,584	967,895	556,975
-38,242	18,616	966,871	556,470
-37,227	18,625	966,162	556,066
-36,213	18,539	965,428	555,343
-35,198	18,576	964,440	554,875
-34,184	18,616	963,750	554,584
-33,169	18,532	962,834	553,763
-32,154	18,653	961,830	553,554
-31,140	18,593	961,165	552,956
-30,125	18,611	960,301	552,497
-29,111	18,606	959,660	552,088
-28,096	18,651	958,924	551,790
-27,082	18,544	958,387	551,110
-26,067	18,595	957,306	550,632
-25,052	18,607	956,516	550,196
-24,038	18,606	955,902	549,817
-23,023	18,580	955,211	549,316
-22,009	18,665	954,457	549,131
-20,994	18,627	954,035	548,745
-19,979	18,561	953,481	548,194
-18,965	18,532	952,886	547,735
-17,950	18,581	952,104	547,422
-16,936	18,562	951,474	546,976
-15,921	18,526	950,861	546,488
-14,906	18,424	950,167	545,739
-13,892	18,478	949,447	545,479
-12,877	18,463	948,712	544,987
-11,863	18,412	948,181	544,497
-10,848	18,445	947,670	544,286
-9,833	18,572	947,189	544,393
-8,819	18,599	946,463	544,042
-7,804	18,533	945,607	543,318
-6,790	18,413	945,316	542,746
-5,775	18,533	944,566	542,675
-4,760	18,519	944,013	542,292
-3,746	18,475	943,457	541,813
-2,731	18,306	942,751	540,848
-1,717	18,305	941,855	540,310
-0,702	18,290	941,385	539,972
0,313	18,101	940,886	539,901
1,327	21,161	938,930	548,414
2,342	30,027	796,281	488,704
3,356	27,010	449,163	271,118
4,371	-2,461	295,025	148,572
5,386	-6,592	276,390	135,254
6,400	-7,860	270,404	131,134
7,415	-8,227	268,187	129,708
8,429	-8,140	266,942	129,174
9,444	-7,997	266,162	128,917
10,459	-7,916	265,260	128,542
11,473	-8,093	264,817	128,155
12,488	-8,221	264,192	127,725
13,502	-8,482	263,750	127,263
14,517	-8,192	263,254	127,275
15,531	-8,279	263,018	127,071
16,546	-8,081	262,556	127,015
17,561	-8,099	262,107	126,770
18,575	-8,097	261,954	126,686
19,590	-8,275	261,421	126,257
20,604	-8,206	261,184	126,194
21,619	-8,195	260,916	126,062
22,634	-8,080	260,447	125,928
23,648	-8,319	260,198	125,583
24,663	-8,294	260,054	125,524
25,677	-8,310	259,752	125,354
26,692	-8,223	259,464	125,280
27,707	-8,296	259,161	125,058
28,721	-8,262	258,920	124,961
29,736	-8,365	258,777	124,789
30,750	-8,403	258,400	124,562
31,765	-8,117	258,038	124,630
32,780	-8,292	257,973	124,432
33,794	-8,387	257,589	124,152
34,809	-8,367	257,538	124,135
35,823	-8,618	257,321	123,797
36,838	-8,289	256,891	123,869
37,853	-8,579	256,746	123,532
38,867	-8,410	256,486	123,546
39,882	-8,668	256,336	123,236
40,896	-8,515	256,077	123,234
41,911	-8,400	255,925	123,251
42,926	-8,441	255,652	123,073
43,940	-8,411	255,259	122,899
44,955	-8,559	255,188	122,724
45,969	-8,393	254,824	122,684
46,984	-8,648	254,633	122,357
47,999	-9,011	254,556	121,993
49,013	-9,063	254,135	121,735
50,028	-9,250	253,946	121,471
51,042	-9,242	253,655	121,327
52,057	-9,350	253,354	121,079
53,071	-9,255	253,243	121,097
54,086	-9,026	252,948	121,144
55,101	-8,989	252,857	121,122
56,115	-8,746	252,837	121,312
57,130	-8,448	252,790	121,537
58,144	-8,067	252,480	121,706
59,159	-8,178	252,343	121,533
60,174	-8,166	252,039	121,387
61,188	-8,267	251,972	121,257
62,203	-8,212	251,740	121,182
63,217	-8,235	251,602	121,084
64,232	-8,318	251,262	120,838
65,247	-7,996	251,021	120,988
66,261	-8,274	250,861	120,662
67,276	-8,424	250,566	120,381
68,290	-8,780	250,283	119,929
69,305	-8,863	249,980	119,702
70,320	-8,890	249,822	119,592
71,334	-8,604	249,896	119,862
72,349	-8,296	249,606	119,975
73,363	-7,992	249,288	120,071
74,378	-8,083	249,113	119,898
75,393	-8,180	249,050	119,775
76,407	-8,454	248,827	119,424
77,422	-8,220	248,616	119,511
78,436	-8,171	248,307	119,393
79,451	-8,178	248,284	119,365
80,466	-8,419	247,991	119,010
81,480	-8,509	247,648	118,758
82,495	-8,563	247,492	118,627
83,509	-8,431	247,331	118,651
84,524	-8,493	247,185	118,518
85,539	-8,719	246,924	118,191
86,553	-8,780	246,740	118,042
87,568	-8,661	246,489	118,011
88,582	-8,617	246,399	117,995
89,597	-8,546	246,082	117,892
90,611	-8,454	246,124	117,979
91,626	-8,369	245,873	117,920
92,641	-8,425	245,710	117,784
93,655	-8,498	245,441	117,583
94,670	-8,576	245,219	117,401
95,684	-8,499	245,065	117,381
96,699	-8,665	244,979	117,191
97,714	-8,545	244,670	117,133
98,728	-8,641	244,584	117,001
99,743	-8,795	244,259	116,707
100,757	-8,859	244,122	116,578
101,772	-8,713	243,890	116,577
102,787	-8,695	243,603	116,445
103,801	-8,459	243,446	116,556
104,816	-8,373	243,367	116,578
105,830	-8,447	243,287	116,469
106,845	-8,298	242,992	116,441
107,860	-8,271	242,844	116,382
108,874	-8,442	242,534	116,082
109,889	-8,478	242,432	115,993
110,903	-8,525	242,237	115,850
111,918	-8,695	242,142	115,654
112,933	-8,587	241,889	115,612
113,947	-8,479	241,790	115,643
114,962	-8,598	241,755	115,517
115,976	-8,440	241,441	115,488
116,991	-8,605	241,345	115,296
118,006	-8,574	241,118	115,202
119,020	-8,423	240,940	115,231
120,035	-8,414	240,901	115,210
121,049	-8,393	240,669	115,105
122,064	-8,471	240,554	114,977
123,079	-8,337	240,177	114,896
124,093	-8,414	240,026	114,750
125,108	-8,682	239,676	114,354
126,122	-8,984	239,705	114,110
127,137	-8,935	239,505	114,046
128,151	-8,854	239,281	113,994
129,166	-8,785	239,044	113,928
130,181	-8,789	238,796	113,796
131,195	-8,698	238,755	113,840
132,210	-8,556	238,550	113,848
133,224	-8,457	238,479	113,884
134,239	-8,481	238,395	113,815
135,254	-8,602	238,345	113,682
136,268	-8,496	237,766	113,482
137,283	-8,756	237,597	113,181
138,297	-8,799	237,479	113,080
139,312	-8,888	237,164	112,848
140,327	-8,463	237,131	113,165
141,341	-8,079	237,242	113,517
142,356	-8,100	237,125	113,434
143,370	-7,960	236,886	113,423
144,385	-8,060	236,663	113,226
145,400	-8,056	236,486	113,134
146,414	-8,178	236,301	112,937
147,429	-8,305	236,214	112,784
148,443	-8,037	236,031	112,902
149,458	-8,108	235,857	112,751
150,473	-8,208	235,565	112,521
151,487	-8,344	235,574	112,406
152,502	-8,086	235,432	112,535
153,516	-7,964	235,148	112,487
154,531	-8,090	235,024	112,317
155,546	-8,239	234,896	112,127
156,560	-8,315	234,634	111,932
157,575	-8,397	234,376	111,733
158,589	-8,251	234,296	111,801
159,604	-7,992	234,309	112,004
160,619	-7,725	234,006	112,061
161,633	-7,888	233,999	111,918
162,648	-7,897	233,656	111,737
163,662	-8,137	233,568	111,494
164,677	-8,166	233,315	111,341
165,692	-8,035	233,119	111,340
166,706	-7,849	233,132	111,484
167,721	-7,846	232,970	111,399
168,735	-7,885	232,765	111,261
169,750	-7,936	232,682	111,171
170,764	-8,102	232,373	110,882
171,779	-7,778	232,225	111,057
172,794	-7,814	232,130	110,973
173,808	-8,208	232,091	110,635
174,823	-8,597	231,704	110,135
175,837	-8,850	231,482	109,821
176,852	-8,423	231,466	110,139
177,867	-7,921	231,382	110,482
178,881	-8,073	231,034	110,187
179,896	-7,557	230,942	110,538
180,910	-7,789	230,883	110,318
181,925	-7,941	230,777	110,139
182,940	-7,914	230,643	110,086
183,954	-7,807	230,374	110,031
184,969	-7,828	230,309	109,974
185,983	-7,863	230,289	109,927
186,998	-7,701	229,959	109,886
188,013	-7,810	229,761	109,697
189,027	-7,909	229,601	109,533
190,042	-7,973	229,600	109,473
191,056	-7,958	229,464	109,410
192,071	-7,814	229,250	109,411
193,086	-7,836	228,992	109,260
194,100	-7,745	228,975	109,313
195,115	-8,097	228,533	108,821
196,129	-8,920	228,222	108,027
197,144	-4,542	229,843	112,186
198,159	0,423	231,262	116,740
199,173	3,490	231,845	119,416
200,188	3,619	231,904	119,537
201,202	3,660	231,691	119,448
202,217	3,807	231,590	119,499
203,232	3,924	231,551	119,559
204,246	4,254	231,217	119,633
205,261	4,349	231,240	119,708
206,275	4,176	231,186	119,535
207,290	4,350	231,072	119,600
208,304	4,186	230,910	119,378
209,319	4,171	230,631	119,212
210,334	4,145	230,424	119,074
211,348	4,122	230,173	118,916
212,363	3,694	229,988	118,480
213,377	3,472	229,669	118,134
214,392	3,435	229,469	117,992
215,407	3,545	229,426	118,044
216,421	3,665	229,443	118,135
217,436	3,486	229,114	117,817
218,450	3,056	229,006	117,420
219,465	3,247	228,707	117,403
220,480	3,441	228,635	117,504
221,494	3,166	228,550	117,240
222,509	3,438	228,367	117,344
223,523	3,355	228,302	117,236
224,538	3,278	228,024	117,024
225,553	3,472	227,833	117,064
226,567	3,571	227,836	117,131
227,582	3,731	227,857	117,253
228,596	3,902	227,627	117,255
229,611	3,508	227,329	116,791
230,626	3,158	227,187	116,441
231,640	3,298	227,019	116,451
232,655	3,542	227,068	116,651
233,669	4,004	226,895	116,903
234,684	3,927	226,870	116,822
235,699	3,631	226,648	116,472
236,713	3,463	226,413	116,214
237,728	3,331	226,031	115,908
238,742	3,252	225,955	115,798
239,757	3,419	225,917	115,894
240,772	3,422	225,697	115,773
241,786	3,339	225,601	115,652
242,801	3,788	225,442	115,899
243,815	3,782	225,528	115,928
244,830	3,787	225,252	115,779
245,844	3,526	224,940	115,412
246,859	3,325	224,964	115,263
247,874	3,600	224,835	115,393
248,888	3,738	224,787	115,462
249,903	3,707	224,367	115,212
250,917	3,502	224,177	114,951
251,932	3,464	224,085	114,866
252,947	3,187	224,136	114,674
253,961	3,496	223,897	114,773
254,976	3,244	223,777	114,512
255,990	3,788	223,507	114,770
257,005	3,583	223,499	114,603
258,020	3,570	223,451	114,558
259,034	3,668	223,346	114,567
260,049	3,708	223,117	114,470
261,063	3,525	222,960	114,243
262,078	3,716	222,833	114,309
263,093	3,756	222,646	114,233
264,107	3,603	222,522	114,045
265,122	3,795	222,375	114,102
266,136	4,038	222,178	114,171
267,151	3,792	222,112	113,945
268,166	3,596	221,720	113,589
269,180	3,292	221,659	113,322
270,195	3,250	221,518	113,209
271,209	3,340	221,439	113,225
272,224	3,350	221,227	113,114
273,239	3,492	221,248	113,220
274,253	3,576	220,872	113,079
275,268	3,351	220,668	112,799
276,282	3,069	220,566	112,529
277,297	3,408	220,348	112,657
278,312	3,270	220,392	112,567
279,326	3,456	220,181	112,586
280,341	3,292	220,201	112,466
281,355	3,472	220,060	112,517
282,370	3,530	219,882	112,458
283,384	3,315	219,521	112,106
284,399	2,983	219,482	111,833
285,414	3,240	219,254	111,895
286,428	3,479	219,288	112,076
287,443	3,689	219,207	112,179
288,457	3,586	219,085	112,032
289,472	3,473	218,774	111,780
290,487	3,032	218,559	111,338
291,501	2,928	218,415	111,180
292,516	3,028	218,254	111,161
293,530	3,192	218,245	111,265
294,545	3,155	218,154	111,182
295,560	3,184	218,056	111,144
296,574	3,293	217,866	111,116
297,589	3,431	217,731	111,137
298,603	3,363	217,611	111,017
299,618	3,575	217,447	111,076
300,633	3,529	217,382	111,000
301,647	3,886	217,201	111,156
302,662	3,578	217,160	110,903
303,676	3,706	217,084	110,946
304,691	3,609	216,931	110,788
305,706	3,743	216,660	110,736
306,720	3,853	216,618	110,784
307,735	3,416	216,289	110,291
308,749	3,402	216,290	110,272
309,764	3,688	216,059	110,351
310,779	4,021	215,922	110,510
311,793	3,593	215,794	110,127
312,808	3,489	215,639	109,964
313,822	3,427	215,571	109,875
314,837	3,348	215,168	109,603
315,852	3,068	215,171	109,394
316,866	3,697	215,226	109,862
317,881	4,072	215,145	110,080
318,895	3,798	214,945	109,772
319,910	3,752	214,580	109,543
320,925	3,197	214,425	109,058
321,939	2,945	214,240	108,775
322,954	3,168	214,147	108,877
323,968	3,484	214,161	109,099
324,983	3,596	214,160	109,169
325,997	3,560	213,986	109,045
327,012	3,722	213,747	109,028
328,027	3,293	213,758	108,719
329,041	3,996	213,614	109,135
330,056	3,872	213,478	108,968
331,070	3,264	213,247	108,410
332,085	2,985	213,078	108,117
333,100	3,512	212,911	108,395
334,114	3,553	212,840	108,379
335,129	3,652	212,705	108,370
336,143	3,488	212,506	108,143
337,158	3,312	212,408	107,960
338,173	3,398	212,285	107,948
339,187	3,301	212,188	107,820
340,202	3,045	211,908	107,488
341,216	3,042	211,893	107,470
342,231	3,291	211,608	107,490
343,246	3,184	211,529	107,365
344,260	3,120	211,335	107,213
345,275	3,313	211,362	107,352
346,289	3,665	211,215	107,514
347,304	3,463	211,116	107,313
348,319	3,429	210,894	107,167
349,333	3,252	210,803	106,987
350,348	3,571	210,701	107,148
351,362	3,573	210,509	107,043
352,377	3,712	210,447	107,099
353,392	3,462	210,245	106,812
354,406	3,330	210,125	106,649
355,421	195,095	1340,574	1425,167
356,435	155,783	1478,335	1425,200
