DTS Sentinel unit serial number:	SN410029Multiplexer serial number:	ORYXHardware model number:	OX2-SRSoftware version number:	ORYX F/W v4,00 Oryx Data Collector v3.7.2.0data status	okinstallation	B6 Nyhavnadifferential loss correction	single-endedforward channel	channel 2reverse channel	N/Adate	2023/12/10time	00:50:08forward acquisition time	300,00reverse acquisition time	0,00gamma	499,1914k internal	0,3126k external	0,3126temperature offset calibration	1,0000default loss term (dB/km)	0,3820temperature slope calibration	1,0000multiplexer offset coefficient	1,0000multiplexer slope coefficient	1,0000fibre end	0,00T internal ref (°C)	21,87T ext. ref 1 (°C)	5,68T ext. ref 2 (°C)	5,68length (m)	temperature (°C)	Stokes	anti-Stokes-744,400	34,120	0,129	-0,083
-743,385	-168,835	-0,253	0,007
-742,371	800,000	0,051	0,122
-741,356	79,169	-0,191	0,152
-740,342	575,453	-0,016	-0,029
-739,327	-53,211	-0,281	0,096
-738,312	-74,329	-0,094	0,025
-737,298	-144,070	-0,133	-0,009
-736,283	-200,000	-0,006	-0,021
-735,269	111,054	-0,195	0,175
-734,254	800,000	-0,061	-0,130
-733,239	-150,445	-0,476	-0,027
-732,225	-30,841	0,144	-0,060
-731,210	-12,871	0,026	0,012
-730,196	114,781	0,044	0,040
-729,181	72,108	0,084	-0,065
-728,167	-35,935	-0,069	0,028
-727,152	-200,000	0,003	-0,051
-726,137	-97,009	0,044	-0,009
-725,123	-200,000	0,017	-0,096
-724,108	434,052	0,031	-0,050
-723,094	727,376	-0,041	-0,082
-722,079	-200,000	0,003	0,013
-721,064	-200,000	-0,024	-0,129
-720,050	-200,000	-0,007	-0,124
-719,035	800,000	-0,009	0,023
-718,021	713,098	-0,058	-0,115
-717,006	380,653	-0,024	0,036
-715,991	214,725	-0,065	-0,076
-714,977	43,709	-0,089	0,060
-713,962	800,000	0,017	0,056
-712,948	-111,366	0,026	-0,004
-711,933	-143,579	0,084	-0,006
-710,918	359,128	-0,015	0,022
-709,904	-62,987	-0,158	-0,048
-708,889	28,745	-0,064	-0,040
-707,875	210,333	0,037	-0,044
-706,860	-200,000	-0,016	-0,100
-705,845	109,934	-0,059	-0,052
-704,831	-200,000	-0,004	-0,036
-703,816	8,759	0,063	-0,035
-702,802	691,377	0,035	0,069
-701,787	84,638	-0,165	-0,134
-700,772	-200,000	0,019	-0,086
-699,758	93,620	-0,043	-0,037
-698,743	4,970	0,073	0,040
-697,729	224,614	-0,073	0,088
-696,714	-200,000	0,010	0,093
-695,699	318,787	0,021	-0,029
-694,685	-200,000	0,006	-0,094
-693,670	-200,000	0,003	0,028
-692,656	-200,000	0,017	0,064
-691,641	434,333	0,072	-0,116
-690,627	151,120	-0,027	0,027
-689,612	800,000	0,040	0,114
-688,597	149,701	-0,117	-0,118
-687,583	-200,000	-0,009	0,062
-686,568	-7,509	0,089	-0,045
-685,554	175,824	-0,169	0,182
-684,539	-81,147	0,025	-0,006
-683,524	-41,859	0,064	0,024
-682,510	-200,000	-0,012	-0,088
-681,495	-63,970	0,031	-0,009
-680,481	40,042	-0,047	-0,031
-679,466	28,084	-0,092	-0,058
-678,451	-38,828	0,015	0,006
-677,437	-30,182	-0,048	0,020
-676,422	-103,082	-0,106	0,018
-675,408	-200,000	-0,020	-0,102
-674,393	259,607	0,044	-0,056
-673,378	144,837	0,020	0,020
-672,364	800,000	0,009	-0,025
-671,349	-77,911	0,023	0,006
-670,335	-200,000	-0,047	0,159
-669,320	-14,248	-0,118	-0,056
-668,305	701,879	0,011	-0,022
-667,291	116,621	-0,029	-0,026
-666,276	-200,000	-0,020	-0,169
-665,262	484,535	0,036	-0,062
-664,247	-70,591	-0,167	-0,047
-663,232	800,000	-0,021	-0,047
-662,218	800,000	-0,012	-0,028
-661,203	-200,000	0,007	0,043
-660,189	-6,635	-0,107	0,054
-659,174	-200,000	-0,008	-0,055
-658,159	-11,337	-0,136	-0,066
-657,145	800,000	-0,043	-0,103
-656,130	-200,000	0,014	-0,135
-655,116	216,007	0,042	0,049
-654,101	-77,943	-0,146	0,037
-653,086	800,000	0,026	-0,079
-652,072	29,424	0,106	0,067
-651,057	-93,007	-0,082	-0,017
-650,043	275,683	-0,029	-0,038
-649,028	316,057	-0,033	-0,047
-648,014	240,611	0,055	0,068
-646,999	158,687	-0,008	-0,008
-645,984	800,000	0,058	0,176
-644,970	55,969	-0,033	0,024
-643,955	-121,382	0,064	0,008
-642,941	423,651	0,035	0,056
-641,926	345,193	-0,038	0,055
-640,911	-87,669	-0,060	0,013
-639,897	509,905	-0,042	-0,073
-638,882	670,958	0,050	-0,097
-637,868	186,236	0,090	-0,099
-636,853	-200,000	-0,001	-0,094
-635,838	-200,000	0,009	-0,096
-634,824	274,763	0,103	-0,136
-633,809	46,353	0,074	-0,051
-632,795	-200,000	0,008	-0,103
-631,780	-200,000	0,001	0,028
-630,765	-114,025	0,114	0,016
-629,751	-200,000	-0,025	-0,139
-628,736	46,909	-0,185	-0,127
-627,722	-32,006	-0,076	-0,031
-626,707	-60,937	-0,108	0,034
-625,692	-52,672	0,050	-0,017
-624,678	-32,231	0,073	0,030
-623,663	-200,000	0,009	0,074
-622,649	616,567	0,015	0,028
-621,634	-66,502	0,049	-0,014
-620,619	-200,000	0,019	-0,239
-619,605	-200,000	-0,021	0,083
-618,590	48,196	-0,046	0,032
-617,576	-135,059	0,065	0,006
-616,561	-200,000	0,001	0,132
-615,546	-200,000	0,000	-0,030
-614,532	-200,000	0,006	0,031
-613,517	-38,442	-0,184	-0,072
-612,503	13,723	0,053	-0,030
-611,488	800,000	-0,038	0,082
-610,474	-33,263	-0,063	0,026
-609,459	-200,000	-0,011	-0,049
-608,444	-32,201	-0,093	-0,038
-607,430	223,826	-0,077	-0,092
-606,415	-200,000	0,015	-0,164
-605,401	295,858	0,093	0,127
-604,386	-66,852	0,032	-0,009
-603,371	-200,000	-0,014	0,114
-602,357	800,000	0,077	0,160
-601,342	-53,042	0,100	-0,034
-600,328	-200,000	0,024	0,172
-599,313	451,338	-0,078	0,127
-598,298	-20,118	-0,083	-0,038
-597,284	179,565	0,069	-0,075
-596,269	18,254	-0,084	0,049
-595,255	480,827	-0,025	-0,042
-594,240	-200,000	-0,006	0,032
-593,225	800,000	-0,043	0,099
-592,211	-200,000	-0,006	-0,094
-591,196	800,000	0,070	-0,171
-590,182	106,369	0,066	0,058
-589,167	-200,000	0,045	0,165
-588,152	17,260	0,213	0,125
-587,138	82,820	-0,074	0,060
-586,123	234,987	-0,086	-0,105
-585,109	-167,382	0,032	-0,001
-584,094	-16,367	-0,093	-0,044
-583,079	-200,000	0,010	0,076
-582,065	-200,000	0,050	0,184
-581,050	-200,000	0,008	-0,030
-580,036	190,135	0,025	0,028
-579,021	-96,073	0,064	-0,012
-578,006	7,680	-0,124	0,068
-576,992	-90,821	-0,057	0,012
-575,977	494,796	0,006	0,011
-574,963	552,678	0,044	0,079
-573,948	61,683	-0,082	0,060
-572,934	203,002	0,034	-0,038
-571,919	-142,121	-0,146	-0,011
-570,904	800,000	-0,077	-0,165
-569,890	47,221	-0,111	-0,076
-568,875	-200,000	-0,003	-0,021
-567,861	7,961	0,114	0,063
-566,846	469,116	0,095	-0,158
-565,831	800,000	-0,032	-0,072
-564,817	-114,508	0,117	-0,016
-563,802	19,603	0,072	0,043
-562,788	-200,000	-0,022	-0,074
-561,773	29,904	-0,078	-0,049
-560,758	-51,273	0,108	-0,037
-559,744	54,820	0,048	0,034
-558,729	-95,729	-0,154	-0,030
-557,715	-18,636	0,103	-0,048
-556,700	-108,778	-0,009	-0,001
-555,685	198,736	-0,115	0,130
-554,671	18,697	0,089	0,053
-553,656	80,920	0,072	0,058
-552,642	-44,874	-0,024	-0,009
-551,627	-166,483	0,096	0,003
-550,612	-69,545	-0,040	0,011
-549,598	-200,000	-0,031	0,123
-548,583	-200,000	-0,011	0,056
-547,569	-130,690	0,098	-0,010
-546,554	-23,559	0,047	-0,021
-545,539	82,510	0,052	-0,042
-544,525	-200,000	0,003	0,124
-543,510	412,037	0,043	-0,068
-542,496	800,000	0,042	-0,116
-541,481	-200,000	-0,005	-0,065
-540,466	290,966	0,062	0,084
-539,452	61,673	0,095	-0,070
-538,437	-200,000	0,052	0,201
-537,423	800,000	-0,041	-0,094
-536,408	166,842	-0,054	-0,057
-535,393	735,260	0,040	-0,080
-534,379	-55,850	-0,147	-0,048
-533,364	-200,000	0,003	-0,050
-532,350	-200,000	0,008	0,039
-531,335	800,000	0,060	0,157
-530,321	-125,004	0,129	0,014
-529,306	-57,379	-0,147	0,047
-528,291	-121,764	-0,041	-0,005
-527,277	-200,000	0,003	0,043
-526,262	-200,000	-0,005	-0,016
-525,248	800,000	0,048	0,105
-524,233	-200,000	-0,030	-0,214
-523,218	-72,336	0,152	0,041
-522,204	800,000	0,021	0,062
-521,189	-200,000	-0,002	-0,021
-520,175	325,130	0,087	0,123
-519,160	126,205	-0,039	0,036
-518,145	-200,000	-0,015	0,091
-517,131	183,129	-0,071	0,078
-516,116	173,301	0,031	0,033
-515,102	-145,172	-0,131	0,009
-514,087	13,664	-0,088	-0,050
-513,072	-151,964	-0,047	-0,002
-512,058	-200,000	-0,017	0,116
-511,043	-200,000	-0,013	-0,069
-510,029	-102,600	0,162	0,028
-509,014	610,278	0,046	0,086
-507,999	126,064	-0,040	-0,037
-506,985	251,247	-0,082	-0,103
-505,970	800,000	-0,040	-0,101
-504,956	153,881	-0,038	-0,038
-503,941	142,276	-0,106	0,104
-502,926	437,361	0,039	-0,063
-501,912	-73,176	-0,095	0,026
-500,897	176,143	-0,094	-0,101
-499,883	70,020	0,018	-0,013
-498,868	230,167	0,056	-0,068
-497,853	34,565	0,044	0,028
-496,839	-200,000	0,011	-0,059
-495,824	-200,000	0,015	0,109
-494,810	698,205	-0,026	0,051
-493,795	-20,173	-0,086	0,039
-492,781	28,583	-0,095	-0,059
-491,766	224,355	-0,053	-0,063
-490,751	-131,016	-0,023	0,002
-489,737	-200,000	-0,003	-0,067
-488,722	-155,116	-0,077	-0,004
-487,708	-54,942	0,119	-0,039
-486,693	21,754	0,066	0,039
-485,678	-154,950	0,185	-0,009
-484,664	-86,606	0,134	-0,030
-483,649	-55,628	-0,150	-0,049
-482,635	-200,000	-0,005	-0,035
-481,620	-81,327	0,023	0,006
-480,605	252,384	-0,051	0,064
-479,591	-200,000	0,012	-0,058
-478,576	-200,000	-0,027	0,119
-477,562	-200,000	0,009	-0,084
-476,547	-146,340	0,168	0,011
-475,532	110,497	0,059	-0,052
-474,518	-83,647	0,119	0,028
-473,503	612,910	0,017	0,031
-472,489	144,000	0,040	0,040
-471,474	352,482	0,112	0,164
-470,459	-200,000	-0,027	-0,090
-469,445	7,559	-0,120	-0,066
-468,430	-200,000	0,008	0,215
-467,416	-200,000	-0,026	-0,083
-466,401	800,000	-0,018	-0,038
-465,386	274,109	-0,091	0,118
-464,372	800,000	-0,033	0,077
-463,357	172,278	0,007	-0,008
-462,343	-86,313	0,171	0,038
-461,328	63,432	-0,079	0,058
-460,313	408,538	-0,036	0,056
-459,299	-181,238	-0,055	0,001
-458,284	-87,520	0,090	0,020
-457,270	27,341	0,123	0,076
-456,255	22,956	-0,059	-0,035
-455,241	-200,000	-0,014	-0,053
-454,226	-54,533	-0,203	-0,067
-453,211	268,165	0,077	-0,100
-452,197	-200,000	0,027	-0,126
-451,182	-12,535	0,115	0,055
-450,168	-108,796	-0,075	0,012
-449,153	-200,000	0,031	0,112
-448,138	498,277	-0,027	-0,045
-447,124	139,065	-0,056	-0,055
-446,109	-200,000	0,011	0,122
-445,095	55,175	0,065	0,046
-444,080	-200,000	-0,001	-0,093
-443,065	-200,000	-0,030	-0,155
-442,051	-200,000	-0,006	0,050
-441,036	-200,000	0,041	-0,203
-440,022	-200,000	0,001	-0,087
-439,007	-103,098	0,072	-0,012
-437,992	800,000	0,053	0,139
-436,978	-200,000	0,022	-0,162
-435,963	-138,364	0,155	-0,012
-434,949	800,000	0,010	0,029
-433,934	-29,619	-0,036	0,015
-432,919	-36,402	-0,105	-0,041
-431,905	-57,171	0,064	-0,021
-430,890	554,194	-0,018	0,032
-429,876	-68,215	-0,201	-0,057
-428,861	744,589	0,016	-0,032
-427,846	-72,926	-0,046	-0,012
-426,832	425,413	-0,051	-0,081
-425,817	-200,000	0,022	-0,114
-424,803	150,364	-0,083	-0,083
-423,788	-122,868	0,117	0,014
-422,773	310,934	0,011	0,015
-421,759	123,577	-0,092	0,085
-420,744	-47,371	-0,062	-0,022
-419,730	436,101	0,009	-0,014
-418,715	-126,859	-0,088	0,009
-417,701	-95,120	-0,036	-0,007
-416,686	-98,327	-0,163	-0,030
-415,671	109,966	-0,053	0,047
-414,657	71,567	-0,052	-0,040
-413,642	-187,174	-0,089	-0,001
-412,628	-170,447	0,035	0,001
-411,613	-200,000	-0,010	-0,040
-410,598	267,188	-0,115	-0,148
-409,584	514,710	-0,022	-0,038
-408,569	34,368	0,118	0,075
-407,555	800,000	-0,036	0,097
-406,540	-200,000	-0,035	0,120
-405,525	-195,607	0,082	0,000
-404,511	326,332	0,084	-0,119
-403,496	659,807	-0,033	-0,063
-402,482	140,628	-0,103	-0,100
-401,467	-200,000	0,103	-0,000
-400,452	-200,000	-0,006	0,117
-399,438	472,837	0,044	0,072
-398,423	-132,830	0,058	-0,005
-397,409	707,922	0,036	-0,070
-396,394	-200,000	-0,016	-0,064
-395,379	342,208	-0,084	0,121
-394,365	-200,000	0,012	0,065
-393,350	-33,378	0,041	0,017
-392,336	17,623	-0,125	0,073
-391,321	-200,000	-0,025	-0,136
-390,306	44,015	-0,096	-0,065
-389,292	800,000	0,056	-0,154
-388,277	800,000	-0,023	0,071
-387,263	-200,000	-0,032	0,104
-386,248	-98,504	-0,141	0,026
-385,233	79,166	0,033	0,026
-384,219	165,643	0,012	0,013
-383,204	-49,756	-0,155	0,054
-382,190	800,000	-0,010	-0,025
-381,175	-117,910	0,094	0,012
-380,160	800,000	0,058	0,125
-379,146	800,000	-0,017	0,040
-378,131	-168,710	-0,086	-0,002
-377,117	397,464	-0,026	0,041
-376,102	800,000	0,051	-0,110
-375,088	-0,747	-0,154	0,080
-374,073	-87,971	-0,087	-0,019
-373,058	-200,000	-0,006	0,125
-372,044	143,964	0,054	0,053
-371,029	63,629	0,061	-0,045
-370,015	-83,894	0,115	-0,027
-369,000	800,000	0,052	-0,141
-367,985	719,224	-0,020	0,038
-366,971	-200,000	0,025	-0,136
-365,956	-200,000	-0,006	-0,088
-364,942	-200,000	-0,007	-0,125
-363,927	-170,155	0,143	-0,004
-362,912	54,636	-0,049	-0,035
-361,898	-200,000	0,008	0,032
-360,883	-200,000	0,002	0,016
-359,869	800,000	-0,026	-0,060
-358,854	-200,000	-0,003	0,028
-357,839	448,091	0,065	0,105
-356,825	-200,000	0,018	0,113
-355,810	-144,873	0,049	-0,003
-354,796	177,932	-0,058	0,062
-353,781	289,870	0,076	-0,101
-352,766	-120,491	0,098	-0,012
-351,752	-200,000	0,033	0,129
-350,737	34,653	0,062	0,040
-349,723	458,848	0,066	0,108
-348,708	-200,000	0,008	0,042
-347,693	372,114	-0,030	-0,045
-346,679	567,263	-0,022	0,039
-345,664	-200,000	0,001	-0,069
-344,650	-17,398	-0,123	-0,057
-343,635	345,680	0,051	0,073
-342,620	241,048	-0,075	0,092
-341,606	-108,424	0,153	0,024
-340,591	-200,000	0,009	0,040
-339,577	500,767	-0,042	-0,071
-338,562	273,731	-0,011	0,014
-337,548	-83,457	0,105	0,025
-336,533	-200,000	0,008	0,148
-335,518	-164,013	-0,043	0,001
-334,504	419,596	-0,058	0,092
-333,489	-200,000	-0,012	0,068
-332,475	77,252	0,059	-0,046
-331,460	-131,520	-0,144	-0,014
-330,445	375,566	0,077	-0,115
-329,431	-200,000	-0,016	-0,110
-328,416	50,036	-0,061	-0,042
-327,402	403,708	0,058	0,091
-326,387	-107,971	-0,067	0,011
-325,372	-72,214	-0,105	-0,028
-324,358	159,084	0,010	-0,010
-323,343	-18,697	-0,160	-0,073
-322,329	-55,585	0,055	-0,018
-321,314	33,900	0,025	-0,016
-320,299	64,869	-0,099	0,073
-319,285	269,009	0,052	0,066
-318,270	800,000	-0,035	0,096
-317,256	-45,014	-0,088	-0,032
-316,241	240,479	0,116	0,142
-315,226	-200,000	-0,024	0,162
-314,212	-119,144	0,038	-0,005
-313,197	-39,366	0,063	-0,024
-312,183	800,000	0,018	-0,039
-311,168	-108,934	-0,039	-0,006
-310,153	35,289	-0,052	-0,033
-309,139	-200,000	-0,007	-0,044
-308,124	281,123	-0,022	0,029
-307,110	800,000	0,029	-0,082
-306,095	-149,819	0,008	0,000
-305,080	800,000	0,040	-0,091
-304,066	61,007	0,099	-0,072
-303,051	-82,154	0,219	-0,052
-302,037	-123,140	-0,165	-0,019
-301,022	130,949	0,058	0,055
-300,008	19,151	0,170	0,100
-298,993	-139,402	0,014	0,001
-297,978	-87,730	-0,032	0,007
-296,964	563,232	-0,062	-0,110
-295,949	-200,000	0,006	-0,153
-294,935	-25,494	-0,137	-0,059
-293,920	79,412	0,086	0,068
-292,905	-200,000	0,007	0,099
-291,891	196,356	0,071	-0,079
-290,876	657,964	0,090	0,171
-289,862	-120,263	-0,155	-0,019
-288,847	-39,838	-0,036	-0,014
-287,832	-22,524	-0,023	-0,010
-286,818	-68,433	0,056	0,016
-285,803	800,000	-0,037	0,075
-284,789	-110,805	-0,045	0,007
-283,774	38,588	0,029	0,019
-282,759	-118,085	-0,018	-0,002
-281,745	210,041	-0,055	0,063
-280,730	800,000	0,027	-0,059
-279,716	134,979	0,057	0,054
-278,701	37,512	0,041	0,026
-277,686	205,848	-0,018	0,021
-276,672	-200,000	0,126	-0,000
-275,657	39,576	0,057	0,037
-274,643	355,701	-0,019	-0,028
-273,628	-48,146	0,028	0,010
-272,613	-200,000	-0,019	0,074
-271,599	-54,136	0,126	-0,042
-270,584	-200,000	-0,012	-0,050
-269,570	-200,000	-0,022	-0,101
-268,555	-84,506	0,129	0,030
-267,540	20,014	0,050	0,029
-266,526	-56,240	0,023	-0,007
-265,511	780,474	-0,061	-0,123
-264,497	441,379	0,005	-0,008
-263,482	-163,011	0,078	0,003
-262,467	-200,000	-0,006	-0,032
-261,453	-135,814	-0,093	0,008
-260,438	-91,013	0,100	-0,021
-259,424	-76,877	-0,097	0,025
-258,409	-200,000	-0,005	-0,074
-257,395	79,303	0,083	0,065
-256,380	133,220	0,057	0,054
-255,365	-32,195	-0,103	-0,042
-254,351	-85,025	-0,058	0,013
-253,336	-33,688	0,126	-0,051
-252,322	342,838	-0,081	-0,116
-251,307	-63,099	-0,079	-0,024
-250,292	-157,664	-0,153	-0,007
-249,278	800,000	0,014	-0,029
-248,263	92,646	0,040	0,033
-247,249	800,000	-0,010	-0,027
-246,234	737,609	0,073	-0,144
-245,219	294,497	-0,091	-0,121
-244,205	205,240	-0,014	-0,016
-243,190	-200,000	0,011	-0,124
-242,176	-44,631	0,075	-0,027
-241,161	18,702	0,139	-0,081
-240,146	497,323	0,052	0,088
-239,132	108,024	-0,086	0,074
-238,117	-111,262	-0,105	0,015
-237,103	93,554	-0,041	-0,034
-236,088	158,910	-0,120	0,121
-235,073	353,413	0,021	-0,031
-234,059	33,936	0,054	-0,034
-233,044	-200,000	-0,037	0,167
-232,030	-95,002	-0,037	-0,007
-231,015	65,009	-0,009	-0,006
-230,000	-200,000	0,035	-0,172
-228,986	-94,806	0,085	-0,017
-227,971	800,000	-0,018	-0,045
-226,957	206,672	-0,076	0,086
-225,942	-200,000	0,024	0,232
-224,927	-200,000	-0,009	0,075
-223,913	-5,270	0,070	0,035
-222,898	-148,790	-0,145	0,008
-221,884	-134,702	0,134	0,012
-220,869	-171,627	-0,050	0,001
-219,855	-200,000	0,008	0,150
-218,840	-119,463	-0,043	-0,005
-217,825	800,000	0,044	-0,105
-216,811	-87,532	-0,067	0,015
-215,796	401,808	-0,058	-0,090
-214,782	800,000	0,026	-0,066
-213,767	6,716	0,044	0,024
-212,752	-200,000	-0,009	0,061
-211,738	250,620	-0,093	0,116
-210,723	-25,038	0,115	-0,049
-209,709	-109,063	-0,069	0,011
-208,694	800,000	-0,024	-0,073
-207,679	14,957	-0,129	-0,073
-206,665	653,513	-0,032	-0,060
-205,650	-52,536	-0,092	0,031
-204,636	-200,000	-0,032	0,111
-203,621	-8,303	-0,024	-0,012
-202,606	-48,530	0,162	-0,057
-201,592	-11,919	-0,111	-0,053
-200,577	412,087	0,037	-0,057
-199,563	-200,000	-0,010	-0,094
-198,548	-200,000	-0,001	0,054
-197,533	124,557	0,039	0,035
-196,519	-200,000	-0,018	-0,154
-195,504	2,133	-0,119	-0,063
-194,490	-20,260	-0,092	-0,041
-193,475	289,860	-0,082	0,108
-192,460	71,350	0,087	0,066
-191,446	800,000	-0,090	0,186
-190,431	221,640	0,132	0,155
-189,417	-23,363	-0,128	-0,056
-188,402	-200,000	0,046	-0,200
-187,387	800,000	-0,015	-0,035
-186,373	-17,520	-0,048	0,022
-185,358	-170,239	0,078	0,002
-184,344	-200,000	-0,002	-0,059
-183,329	-2,078	-0,065	0,033
-182,315	95,395	-0,030	0,025
-181,300	4,992	-0,050	0,027
-180,285	-200,000	0,018	-0,065
-179,271	266,928	0,100	-0,127
-178,256	-200,000	0,015	-0,056
-177,242	-200,000	-0,003	-0,037
-176,227	10,483	-0,051	0,028
-175,212	174,495	0,069	0,072
-174,198	3,094	0,091	-0,048
-173,183	800,000	-0,049	-0,124
-172,169	332,861	0,013	0,018
-171,154	800,000	0,016	0,034
-170,139	90,614	0,047	0,038
-169,125	-67,623	0,190	0,054
-168,110	-200,000	0,005	0,043
-167,096	-93,106	-0,146	-0,029
-166,081	-33,833	0,048	0,019
-165,066	118,676	0,027	-0,024
-164,052	133,780	0,091	0,086
-163,037	445,465	-0,039	0,063
-162,023	-200,000	-0,002	0,020
-161,008	-200,000	0,000	-0,063
-159,993	800,000	-0,026	-0,081
-158,979	-200,000	-0,015	0,252
-157,964	27,330	0,051	0,031
-156,950	-200,000	0,095	0,000
-155,935	-200,000	-0,004	-0,062
-154,920	-200,000	0,002	0,140
-153,906	123,441	0,045	-0,041
-152,891	800,000	-0,041	0,107
-151,877	118,045	0,018	0,016
-150,862	-200,000	0,020	-0,114
-149,847	44,656	-0,065	0,043
-148,833	800,000	0,027	0,066
-147,818	263,535	-0,101	-0,128
-146,804	-83,850	0,025	-0,006
-145,789	-200,000	0,009	-0,068
-144,775	-133,330	-0,004	-0,000
-143,760	104,506	-0,039	-0,033
-142,745	-13,776	-0,096	-0,045
-141,731	-200,000	0,017	0,109
-140,716	-7,776	-0,113	-0,055
-139,702	-200,000	0,044	0,174
-138,687	-200,000	-0,008	-0,112
-137,672	-129,728	-0,149	-0,015
-136,658	-98,737	0,159	0,029
-135,643	-19,927	0,125	0,056
-134,629	46,370	-0,047	-0,032
-133,614	-74,042	0,032	-0,008
-132,599	-32,984	0,029	-0,012
-131,585	-100,374	0,081	0,014
-130,570	800,000	-0,050	-0,136
-129,556	79,506	-0,047	-0,037
-128,541	-159,858	-0,052	-0,002
-127,526	-200,000	-0,012	0,100
-126,512	85,607	0,139	0,111
-125,497	-200,000	-0,006	0,139
-124,483	234,370	0,031	-0,037
-123,468	-200,000	0,006	-0,036
-122,453	83,563	-0,162	-0,128
-121,439	7,134	0,075	-0,041
-120,424	89,095	0,031	-0,025
-119,410	443,595	-0,045	0,072
-118,395	243,686	0,073	0,090
-117,380	-200,000	0,001	-0,012
-116,366	-86,820	-0,119	-0,026
-115,351	-45,125	0,105	-0,038
-114,337	-17,158	-0,099	0,045
-113,322	565,620	0,061	-0,108
-112,307	-108,834	0,109	0,017
-111,293	-63,233	0,052	0,015
-110,278	51,326	-0,036	0,025
-109,264	-35,286	0,021	0,008
-108,249	179,637	-0,147	-0,156
-107,234	335,374	-0,108	-0,153
-106,220	-67,370	0,052	-0,015
-105,205	-87,349	-0,026	-0,006
-104,191	465,535	0,020	0,033
-103,176	8,013	0,062	0,034
-102,162	60,834	0,173	0,124
-101,147	314,207	0,082	0,112
-100,132	-200,000	-0,030	-0,105
-99,118	648,687	0,034	0,064
-98,103	-200,000	-0,007	0,127
-97,089	-1,403	0,099	0,051
-96,074	-13,528	0,066	-0,031
-95,059	-55,129	-0,096	0,031
-94,045	800,000	-0,054	-0,126
-93,030	-129,094	0,055	-0,006
-92,016	8,664	-0,107	-0,059
-91,001	-63,877	0,042	0,012
-89,986	-106,419	0,154	-0,025
-88,972	-125,086	-0,109	-0,012
-87,957	-186,027	0,028	-0,000
-86,943	-131,404	-0,090	0,009
-85,928	-28,403	0,135	-0,056
-84,913	-67,564	0,046	-0,013
-83,899	317,054	0,033	-0,045
-82,884	517,730	0,024	0,040
-81,870	-76,957	-0,061	-0,015
-80,855	-200,000	0,138	0,000
-79,840	800,000	0,041	0,088
-78,826	319,793	0,008	0,012
-77,811	89,822	-0,073	0,059
-76,797	217,339	0,030	0,035
-75,782	800,000	-0,024	0,069
-74,767	262,552	-0,018	0,023
-73,753	132,290	0,067	0,063
-72,738	-30,184	0,133	-0,055
-71,724	800,000	0,033	-0,106
-70,709	-168,886	-0,137	0,004
-69,694	62,234	0,084	0,061
-68,680	439,408	-0,087	-0,139
-67,665	-19,144	-0,006	0,003
-66,651	82,494	0,089	0,070
-65,636	-200,000	0,006	-0,133
-64,622	574,903	0,025	0,044
-63,607	-200,000	-0,014	0,066
-62,592	-145,668	-0,129	-0,008
-61,578	-51,781	0,089	0,030
-60,563	293,540	-0,029	0,039
-59,549	-26,097	-0,074	-0,031
-58,534	-116,862	-1,486	-0,195
-57,519	472,434	-0,881	-1,445
-56,505	-200,000	-0,881	-4,390
-55,490	-51,406	0,527	-0,178
-54,476	800,000	4,928	11,771
-53,461	-200,000	13,962	253,130
-52,446	-200,000	694,185	2237,323
-51,432	572,479	1624,248	2880,784
-50,417	117,307	1632,547	1454,933
-49,403	72,382	1286,326	970,778
-48,388	37,417	1022,960	656,102
-47,373	23,851	981,197	584,746
-46,359	23,079	970,561	575,857
-45,344	22,042	966,444	570,007
-44,330	22,018	964,875	568,980
-43,315	21,878	963,622	567,765
-42,300	21,991	962,239	567,293
-41,286	21,934	961,411	566,599
-40,271	21,871	960,596	565,891
-39,257	21,909	959,539	565,368
-38,242	21,875	958,700	564,742
-37,227	21,920	957,697	564,274
-36,213	21,927	956,759	563,720
-35,198	21,781	956,193	562,895
-34,184	21,885	955,324	562,694
-33,169	21,818	954,535	561,991
-32,154	21,896	953,508	561,617
-31,140	21,922	952,589	561,138
-30,125	21,922	951,956	560,742
-29,111	21,883	951,138	560,113
-28,096	21,915	950,516	559,827
-27,082	21,821	949,822	559,093
-26,067	21,886	948,897	558,737
-25,052	21,986	948,073	558,549
-24,038	21,865	947,656	557,893
-23,023	21,975	946,895	557,773
-22,009	21,988	946,243	557,409
-20,994	21,969	945,694	557,005
-19,979	21,911	944,988	556,382
-18,965	21,841	944,537	555,871
-17,950	21,908	943,774	555,612
-16,936	21,889	943,047	555,103
-15,921	21,858	942,210	554,488
-14,906	21,773	941,706	553,899
-13,892	21,814	941,059	553,626
-12,877	21,842	940,461	553,343
-11,863	21,765	939,806	552,691
-10,848	21,789	939,312	552,456
-9,833	21,856	939,014	552,471
-8,819	21,817	938,258	551,880
-7,804	21,864	937,426	551,516
-6,790	21,765	936,944	550,899
-5,775	21,869	936,316	550,835
-4,760	21,796	935,802	550,283
-3,746	21,722	935,327	549,747
-2,731	21,639	934,363	548,897
-1,717	21,590	933,584	548,263
-0,702	21,587	933,026	547,904
0,313	21,425	932,433	547,874
1,327	24,515	930,387	556,322
2,342	34,021	794,533	500,353
3,356	31,972	450,052	280,316
4,371	1,355	292,893	151,987
5,386	-3,358	273,884	137,667
6,400	-4,712	268,214	133,553
7,415	-5,173	265,991	132,011
8,429	-4,816	264,755	131,712
9,444	-5,002	263,823	131,067
10,459	-4,854	263,193	130,877
11,473	-4,801	262,645	130,641
12,488	-4,999	262,307	130,282
13,502	-5,063	261,764	129,943
14,517	-5,161	261,359	129,642
15,531	-5,009	260,988	129,583
16,546	-4,833	260,505	129,490
17,561	-4,877	260,165	129,269
18,575	-5,070	259,969	128,988
19,590	-5,162	259,590	128,706
20,604	-4,871	259,229	128,775
21,619	-4,899	258,890	128,571
22,634	-4,817	258,513	128,445
23,648	-4,956	258,260	128,184
24,663	-4,975	258,043	128,048
25,677	-5,029	257,908	127,921
26,692	-4,949	257,556	127,807
27,707	-5,156	257,318	127,494
28,721	-5,123	257,019	127,364
29,736	-5,079	256,677	127,222
30,750	-5,081	256,344	127,043
31,765	-4,922	256,233	127,118
32,780	-5,104	256,075	126,867
33,794	-4,896	255,751	126,879
34,809	-4,925	255,587	126,761
35,823	-5,081	255,410	126,524
36,838	-5,148	255,061	126,282
37,853	-5,312	254,994	126,093
38,867	-5,078	254,658	126,121
39,882	-5,153	254,571	126,001
40,896	-5,037	254,244	125,929
41,911	-4,977	253,855	125,778
42,926	-5,147	253,799	125,590
43,940	-5,117	253,522	125,468
44,955	-5,119	253,261	125,326
45,969	-5,066	252,972	125,218
46,984	-5,483	252,888	124,803
47,999	-5,460	252,655	124,697
49,013	-5,653	252,381	124,382
50,028	-5,636	252,007	124,202
51,042	-5,870	251,893	123,932
52,057	-5,559	251,689	124,090
53,071	-5,606	251,410	123,900
54,086	-5,692	251,286	123,753
55,101	-5,417	251,037	123,857
56,115	-5,474	250,992	123,774
57,130	-4,973	250,855	124,129
58,144	-4,913	250,688	124,086
59,159	-4,852	250,417	123,993
60,174	-5,016	250,228	123,748
61,188	-4,926	250,098	123,750
62,203	-4,937	249,942	123,652
63,217	-4,988	249,602	123,429
64,232	-4,853	249,555	123,511
65,247	-4,981	249,286	123,257
66,261	-4,887	249,115	123,242
67,276	-5,172	248,780	122,822
68,290	-5,347	248,415	122,481
69,305	-5,461	248,196	122,265
70,320	-5,414	248,161	122,278
71,334	-5,208	247,861	122,294
72,349	-4,876	247,832	122,551
73,363	-4,774	247,679	122,551
74,378	-5,035	247,457	122,209
75,393	-5,009	247,236	122,110
76,407	-4,851	246,941	122,087
77,422	-5,074	246,935	121,885
78,436	-4,835	246,694	121,957
79,451	-5,002	246,393	121,657
80,466	-5,137	246,202	121,437
81,480	-5,211	245,984	121,257
82,495	-5,338	245,689	120,993
83,509	-5,213	245,561	121,025
84,524	-5,102	245,373	121,015
85,539	-5,310	245,081	120,686
86,553	-5,459	245,012	120,516
87,568	-5,513	244,876	120,393
88,582	-5,372	244,679	120,403
89,597	-5,183	244,414	120,420
90,611	-5,084	244,400	120,485
91,626	-5,051	244,158	120,383
92,641	-5,104	244,024	120,262
93,655	-5,155	243,638	120,019
94,670	-5,270	243,537	119,862
95,684	-5,175	243,256	119,792
96,699	-5,160	243,165	119,749
97,714	-5,271	242,969	119,549
98,728	-5,211	242,775	119,493
99,743	-5,646	242,629	119,050
100,757	-5,312	242,258	119,134
101,772	-5,205	242,134	119,151
102,787	-5,436	241,983	118,875
103,801	-5,161	241,735	118,970
104,816	-5,088	241,680	118,992
105,830	-5,076	241,636	118,970
106,845	-5,071	241,311	118,804
107,860	-5,065	241,191	118,738
108,874	-5,105	241,039	118,621
109,889	-5,214	240,853	118,429
110,903	-5,137	240,564	118,340
111,918	-5,286	240,421	118,136
112,933	-5,238	240,359	118,135
113,947	-5,312	240,122	117,947
114,962	-4,896	239,903	118,169
115,976	-5,136	239,686	117,855
116,991	-4,962	239,522	117,907
118,006	-5,110	239,452	117,741
119,020	-5,129	239,329	117,654
120,035	-5,020	239,092	117,616
121,049	-4,960	239,065	117,642
122,064	-4,914	238,777	117,527
123,079	-5,066	238,559	117,285
124,093	-5,226	238,511	117,120
125,108	-5,353	238,213	116,861
126,122	-5,387	237,894	116,666
127,137	-5,460	237,833	116,567
128,151	-5,252	237,639	116,630
129,166	-5,316	237,548	116,523
130,181	-5,253	237,240	116,413
131,195	-5,348	237,192	116,302
132,210	-5,287	236,965	116,229
133,224	-5,068	236,836	116,333
134,239	-5,002	236,683	116,300
135,254	-5,024	236,615	116,239
136,268	-5,112	236,343	116,024
137,283	-5,408	236,190	115,700
138,297	-5,541	235,921	115,451
139,312	-5,463	235,743	115,417
140,327	-5,208	235,610	115,545
141,341	-5,020	235,620	115,692
142,356	-4,611	235,403	115,903
143,370	-4,857	235,298	115,643
144,385	-4,654	235,197	115,747
145,400	-4,691	234,947	115,583
146,414	-4,797	234,766	115,399
147,429	-4,790	234,597	115,312
148,443	-4,936	234,407	115,091
149,458	-4,965	234,182	114,947
150,473	-4,745	234,061	115,053
151,487	-4,834	233,991	114,937
152,502	-4,904	233,734	114,745
153,516	-4,863	233,585	114,694
154,531	-4,846	233,398	114,606
155,546	-4,761	233,097	114,515
156,560	-4,911	232,963	114,320
157,575	-5,030	232,895	114,183
158,589	-4,919	232,606	114,118
159,604	-4,833	232,544	114,146
160,619	-4,794	232,499	114,144
161,633	-4,644	232,176	114,094
162,648	-4,720	232,226	114,049
163,662	-4,845	231,955	113,807
164,677	-4,830	231,762	113,713
165,692	-4,845	231,701	113,662
166,706	-4,569	231,432	113,737
167,721	-4,657	231,287	113,586
168,735	-4,597	231,151	113,557
169,750	-4,715	231,044	113,401
170,764	-5,017	231,039	113,151
171,779	-4,692	230,860	113,308
172,794	-4,714	230,579	113,144
173,808	-4,826	230,366	112,941
174,823	-5,225	230,201	112,538
175,837	-5,394	229,968	112,281
176,852	-4,890	229,977	112,670
177,867	-4,958	229,803	112,522
178,881	-4,900	229,656	112,485
179,896	-4,797	229,454	112,456
180,910	-4,484	229,279	112,604
181,925	-4,801	229,377	112,395
182,940	-4,910	229,074	112,152
183,954	-4,701	228,968	112,253
184,969	-4,723	228,713	112,101
185,983	-4,675	228,624	112,084
186,998	-4,517	228,406	112,090
188,013	-4,669	228,334	111,926
189,027	-4,551	228,107	111,896
190,042	-4,693	228,014	111,731
191,056	-4,643	227,774	111,643
192,071	-4,752	227,788	111,555
193,086	-4,686	227,613	111,510
194,100	-4,667	227,373	111,398
195,115	-4,919	227,030	111,026
196,129	-4,988	226,870	110,885
197,144	-2,259	227,652	113,362
198,159	1,645	228,883	116,989
199,173	3,822	229,483	118,972
200,188	3,932	229,342	118,973
201,202	3,896	229,032	118,773
202,217	4,146	229,049	118,964
203,232	4,212	229,007	118,983
204,246	4,381	228,746	118,967
205,261	4,537	228,612	119,007
206,275	4,547	228,558	118,976
207,290	4,819	228,268	119,024
208,304	4,607	228,257	118,844
209,319	4,560	228,095	118,713
210,334	4,515	227,888	118,561
211,348	4,325	227,669	118,291
212,363	4,011	227,271	117,832
213,377	3,780	227,201	117,609
214,392	3,800	226,995	117,507
215,407	3,761	226,879	117,407
216,421	3,906	226,709	117,420
217,436	3,875	226,524	117,289
218,450	3,663	226,395	117,050
219,465	3,525	226,248	116,859
220,480	3,616	226,114	116,849
221,494	3,408	225,899	116,568
222,509	3,856	225,794	116,845
223,523	3,644	225,721	116,636
224,538	3,704	225,557	116,585
225,553	3,787	225,422	116,568
226,567	3,849	225,277	116,530
227,582	4,122	225,289	116,733
228,596	4,074	225,219	116,650
229,611	3,899	224,934	116,359
230,626	3,469	224,635	115,870
231,640	3,579	224,453	115,849
232,655	3,955	224,435	116,112
233,669	4,515	224,356	116,484
234,684	4,453	224,322	116,409
235,699	4,207	224,063	116,079
236,713	3,960	223,837	115,765
237,728	3,960	223,647	115,657
238,742	3,642	223,411	115,286
239,757	3,640	223,266	115,200
240,772	3,836	223,087	115,243
241,786	3,538	223,195	115,065
242,801	3,784	223,096	115,189
243,815	4,076	222,939	115,316
244,830	4,283	222,817	115,398
245,844	3,930	222,488	114,953
246,859	3,793	222,357	114,773
247,874	3,997	222,265	114,868
248,888	3,962	222,190	114,792
249,903	4,031	222,012	114,741
250,917	3,829	221,883	114,514
251,932	3,781	221,648	114,347
252,947	3,542	221,635	114,152
253,961	3,735	221,302	114,114
254,976	3,898	221,109	114,126
255,990	4,034	221,107	114,215
257,005	3,979	221,040	114,129
258,020	3,987	220,722	113,961
259,034	4,227	220,764	114,150
260,049	4,110	220,624	113,981
261,063	3,930	220,454	113,749
262,078	4,156	220,307	113,830
263,093	4,210	220,343	113,879
264,107	4,141	220,035	113,659
265,122	4,149	219,851	113,560
266,136	4,178	219,910	113,601
267,151	4,366	219,617	113,578
268,166	3,926	219,408	113,137
269,180	3,657	219,097	112,768
270,195	3,886	218,943	112,847
271,209	3,558	218,848	112,547
272,224	3,775	218,770	112,656
273,239	3,922	218,658	112,697
274,253	3,723	218,649	112,536
275,268	3,188	218,483	112,048
276,282	3,624	218,210	112,218
277,297	3,620	217,951	112,071
278,312	3,545	217,954	112,008
279,326	3,898	217,878	112,216
280,341	4,086	217,564	112,182
281,355	3,833	217,678	112,047
282,370	3,624	217,495	111,790
283,384	3,301	217,246	111,417
284,399	3,386	216,982	111,333
285,414	3,489	216,864	111,338
286,428	3,663	216,909	111,478
287,443	3,939	216,846	111,635
288,457	4,075	216,510	111,551
289,472	3,840	216,399	111,314
290,487	3,371	216,156	110,839
291,501	3,491	216,002	110,837
292,516	3,632	215,883	110,868
293,530	3,440	215,891	110,723
294,545	3,132	215,618	110,352
295,560	3,570	215,700	110,700
296,574	3,905	215,566	110,863
297,589	3,895	215,270	110,693
298,603	3,790	215,263	110,604
299,618	3,795	215,120	110,524
300,633	3,691	215,010	110,383
301,647	3,982	214,944	110,549
302,662	4,039	214,763	110,487
303,676	3,938	214,657	110,350
304,691	3,914	214,451	110,217
305,706	3,945	214,424	110,216
306,720	4,026	214,230	110,164
307,735	3,587	214,085	109,766
308,749	3,738	213,700	109,666
309,764	3,930	213,624	109,755
310,779	4,265	213,599	109,971
311,793	3,996	213,488	109,712
312,808	3,950	213,387	109,617
313,822	4,087	213,075	109,545
314,837	3,688	212,977	109,201
315,852	3,719	212,815	109,131
316,866	3,869	212,698	109,167
317,881	3,892	212,601	109,124
318,895	3,791	212,599	109,041
319,910	3,671	212,321	108,804
320,925	3,762	212,037	108,714
321,939	3,425	211,851	108,370
322,954	3,393	211,787	108,305
323,968	3,634	211,678	108,410
324,983	3,866	211,668	108,559
325,997	4,029	211,607	108,633
327,012	3,770	211,499	108,385
328,027	4,098	211,283	108,496
329,041	4,160	211,254	108,515
330,056	4,091	211,083	108,369
331,070	3,811	210,906	108,072
332,085	3,731	210,601	107,849
333,100	3,570	210,601	107,727
334,114	3,784	210,409	107,768
335,129	3,801	210,358	107,745
336,143	3,693	209,996	107,474
337,158	3,926	210,007	107,633
338,173	3,672	209,922	107,403
339,187	3,697	209,765	107,330
340,202	3,528	209,543	107,089
341,216	3,599	209,390	107,051
342,231	3,546	209,317	106,967
343,246	3,694	209,033	106,916
344,260	3,613	208,949	106,807
345,275	3,434	209,029	106,713
346,289	3,785	208,819	106,841
347,304	4,132	208,720	107,022
348,319	3,897	208,566	106,770
349,333	3,582	208,530	106,523
350,348	3,696	208,465	106,560
351,362	3,938	208,250	106,608
352,377	4,039	208,164	106,625
353,392	3,821	207,897	106,328
354,406	4,068	207,839	106,459
355,421	193,347	1345,831	1431,258
356,435	154,226	1484,575	1431,364
