DTS Sentinel unit serial number:	SN410029Multiplexer serial number:	ORYXHardware model number:	OX2-SRSoftware version number:	ORYX F/W v4,00 Oryx Data Collector v3.7.2.0data status	okinstallation	B6 Nyhavnadifferential loss correction	single-endedforward channel	channel 2reverse channel	N/Adate	2023/12/10time	20:40:08forward acquisition time	300,00reverse acquisition time	0,00gamma	499,1914k internal	0,3122k external	0,3122temperature offset calibration	1,0000default loss term (dB/km)	0,3820temperature slope calibration	1,0000multiplexer offset coefficient	1,0000multiplexer slope coefficient	1,0000fibre end	0,00T internal ref (°C)	22,26T ext. ref 1 (°C)	5,80T ext. ref 2 (°C)	5,81length (m)	temperature (°C)	Stokes	anti-Stokes-744,400	-153,200	-0,108	0,006
-743,385	-122,722	-0,203	0,024
-742,371	256,056	0,050	-0,064
-741,356	120,140	-0,180	0,167
-740,342	800,000	0,018	0,038
-739,327	7,255	-0,215	0,119
-738,312	800,000	0,063	-0,190
-737,298	20,434	-0,146	-0,088
-736,283	124,366	-0,012	-0,011
-735,269	6,972	-0,248	0,138
-734,254	81,756	0,037	-0,029
-733,239	-64,079	-0,453	-0,137
-732,225	34,123	0,148	-0,096
-731,210	-124,813	-0,072	-0,008
-730,196	800,000	-0,036	-0,114
-729,181	391,679	-0,088	-0,136
-728,167	-100,521	0,109	-0,020
-727,152	800,000	0,041	0,133
-726,137	-182,638	-0,023	-0,000
-725,123	-73,799	-0,030	-0,008
-724,108	197,243	-0,065	-0,074
-723,094	-200,000	0,012	-0,123
-722,079	800,000	-0,061	-0,126
-721,064	-60,638	-0,136	0,043
-720,050	-169,254	0,075	-0,002
-719,035	-200,000	0,003	-0,056
-718,021	-118,804	-0,079	0,010
-717,006	-20,324	-0,158	0,072
-715,991	52,419	-0,114	0,081
-714,977	-200,000	-0,002	-0,140
-713,962	-22,491	-0,127	-0,057
-712,948	115,055	0,038	-0,035
-711,933	-6,341	-0,059	-0,030
-710,918	89,525	-0,077	0,064
-709,904	-62,789	-0,101	-0,031
-708,889	328,722	-0,031	-0,045
-707,875	800,000	0,017	-0,039
-706,860	-200,000	0,036	-0,159
-705,845	-200,000	-0,014	-0,063
-704,831	-24,237	0,059	0,026
-703,816	33,848	-0,095	0,061
-702,802	8,462	-0,078	-0,044
-701,787	339,004	-0,070	-0,102
-700,772	790,548	-0,031	-0,063
-699,758	-91,845	0,144	-0,030
-698,743	-83,489	0,052	0,012
-697,729	197,035	-0,060	0,069
-696,714	-200,000	0,003	0,183
-695,699	-10,613	-0,102	0,050
-694,685	-200,000	-0,008	0,054
-693,670	-200,000	0,035	0,130
-692,656	-73,400	-0,074	0,020
-691,641	-36,043	0,022	0,009
-690,627	201,485	0,098	0,113
-689,612	-97,839	-0,047	-0,009
-688,597	-200,000	0,014	-0,075
-687,583	800,000	0,024	-0,051
-686,568	-152,254	-0,049	-0,003
-685,554	115,556	0,038	0,035
-684,539	310,094	0,051	0,071
-683,524	-68,359	-0,089	-0,025
-682,510	-200,000	-0,005	-0,025
-681,495	800,000	-0,032	-0,066
-680,481	-200,000	0,016	-0,112
-679,466	201,715	0,052	-0,060
-678,451	-200,000	-0,031	-0,122
-677,437	800,000	0,015	0,041
-676,422	-93,953	-0,118	-0,024
-675,408	-200,000	-0,020	0,140
-674,393	40,640	0,044	0,030
-673,378	117,915	-0,017	0,016
-672,364	-200,000	-0,010	0,066
-671,349	-200,000	-0,010	-0,101
-670,335	-93,979	0,097	0,020
-669,320	10,646	-0,072	0,041
-668,305	-200,000	0,004	-0,024
-667,291	217,479	0,005	0,006
-666,276	-200,000	-0,003	0,165
-665,262	800,000	-0,016	0,043
-664,247	-200,000	0,010	-0,160
-663,232	800,000	0,049	0,111
-662,218	-200,000	0,005	0,164
-661,203	-23,412	-0,148	-0,066
-660,189	305,263	-0,031	-0,043
-659,174	85,389	-0,044	0,036
-658,159	-8,257	-0,085	-0,042
-657,145	607,698	-0,083	-0,155
-656,130	-138,144	0,090	0,007
-655,116	-121,794	-0,133	-0,016
-654,101	-200,000	0,014	0,110
-653,086	-200,000	0,010	0,044
-652,072	-200,000	0,010	-0,101
-651,057	-88,904	0,023	-0,005
-650,043	-120,575	-0,062	-0,008
-649,028	327,516	-0,037	0,053
-648,014	486,363	0,039	-0,066
-646,999	550,428	0,074	-0,132
-645,984	-144,325	-0,197	-0,013
-644,970	73,202	0,092	-0,072
-643,955	-13,773	-0,025	0,012
-642,941	0,767	-0,131	-0,069
-641,926	508,456	-0,034	-0,059
-640,911	-200,000	-0,016	0,078
-639,897	106,187	0,061	0,054
-638,882	-47,399	-0,066	0,024
-637,868	417,188	-0,022	0,036
-636,853	-2,035	-0,061	0,032
-635,838	-200,000	0,013	-0,053
-634,824	800,000	0,024	-0,056
-633,809	-200,000	0,003	0,070
-632,795	784,335	-0,043	0,088
-631,780	476,722	0,038	0,064
-630,765	177,928	0,084	-0,091
-629,751	800,000	-0,043	-0,138
-628,736	-32,974	0,056	-0,023
-627,722	-200,000	-0,011	-0,085
-626,707	-80,961	0,082	-0,020
-625,692	800,000	0,054	0,122
-624,678	614,510	-0,031	-0,059
-623,663	-153,122	-0,051	-0,003
-622,649	800,000	-0,052	-0,117
-621,634	-33,784	-0,039	0,016
-620,619	150,378	-0,107	-0,108
-619,605	-89,059	0,089	0,019
-618,590	800,000	0,043	0,122
-617,576	-127,421	-0,072	0,008
-616,561	-131,028	-0,050	-0,005
-615,546	-108,678	-0,152	-0,024
-614,532	180,235	-0,068	-0,074
-613,517	-200,000	-0,025	0,085
-612,503	50,237	-0,050	-0,035
-611,488	473,623	0,033	0,055
-610,474	9,108	0,021	-0,012
-609,459	800,000	-0,027	0,069
-608,444	-200,000	-0,010	-0,134
-607,430	-200,000	0,001	-0,065
-606,415	210,608	-0,157	-0,184
-605,401	-200,000	-0,004	0,136
-604,386	-200,000	-0,002	-0,052
-603,371	-24,083	-0,114	0,050
-602,357	82,420	0,048	0,039
-601,342	220,120	-0,077	-0,092
-600,328	385,734	-0,083	-0,128
-599,313	-67,283	0,094	-0,027
-598,298	431,428	-0,066	-0,107
-597,284	-39,076	0,089	0,035
-596,269	-200,000	-0,017	-0,070
-595,255	486,022	-0,033	-0,056
-594,240	800,000	0,026	-0,059
-593,225	-95,482	-0,075	-0,015
-592,211	-67,220	-0,087	-0,025
-591,196	-200,000	0,013	-0,066
-590,182	135,639	-0,066	0,064
-589,167	-198,076	0,073	0,000
-588,152	-200,000	-0,019	0,124
-587,138	-30,204	-0,056	-0,024
-586,123	800,000	-0,037	-0,078
-585,109	701,551	-0,020	-0,039
-584,094	-196,054	-0,025	0,000
-583,079	46,947	0,069	-0,048
-582,065	-51,169	-0,114	-0,039
-581,050	-200,000	0,029	0,129
-580,036	-200,000	-0,003	-0,094
-579,021	114,512	-0,068	-0,062
-578,006	800,000	-0,040	-0,104
-576,992	-200,000	0,018	0,097
-575,977	-200,000	-0,002	0,054
-574,963	-32,306	0,036	0,015
-573,948	496,242	-0,021	0,036
-572,934	46,542	0,033	-0,022
-571,919	-200,000	-0,029	-0,167
-570,904	-200,000	0,042	-0,178
-569,890	-65,982	-0,070	0,021
-568,875	800,000	0,016	-0,044
-567,861	535,442	0,021	-0,038
-566,846	-200,000	0,006	-0,032
-565,831	-36,219	-0,030	-0,012
-564,817	287,829	0,024	0,032
-563,802	750,889	0,047	0,095
-562,788	503,644	-0,008	0,014
-561,773	-200,000	-0,001	0,082
-560,758	268,818	0,042	0,055
-559,744	-107,396	0,181	0,029
-558,729	-200,000	-0,002	-0,111
-557,715	-200,000	0,002	0,048
-556,700	-200,000	-0,027	-0,102
-555,685	165,294	0,099	0,103
-554,671	159,326	-0,086	0,088
-553,656	749,822	-0,015	0,030
-552,642	180,028	0,066	-0,072
-551,627	284,196	0,071	-0,094
-550,612	58,121	0,037	-0,027
-549,598	-28,708	0,068	-0,029
-548,583	235,785	-0,044	0,054
-547,569	50,610	0,135	0,094
-546,554	733,801	-0,035	-0,070
-545,539	338,027	-0,017	-0,024
-544,525	-109,036	0,129	0,020
-543,510	91,957	-0,159	0,133
-542,496	-100,360	-0,079	-0,014
-541,481	498,438	0,070	-0,120
-540,466	-50,488	0,037	0,013
-539,452	-88,550	0,099	0,022
-538,437	451,100	0,021	0,035
-537,423	800,000	-0,053	-0,113
-536,408	93,560	0,049	-0,041
-535,393	222,946	-0,142	-0,170
-534,379	24,453	-0,122	-0,074
-533,364	-200,000	-0,001	-0,005
-532,350	93,309	0,039	-0,033
-531,335	-33,139	0,217	0,089
-530,321	295,277	-0,064	0,087
-529,306	800,000	-0,008	-0,026
-528,291	-200,000	-0,024	-0,100
-527,277	350,136	-0,032	0,047
-526,262	-45,011	-0,101	-0,037
-525,248	-24,433	0,139	0,061
-524,233	-200,000	-0,108	0,000
-523,218	209,366	0,039	-0,046
-522,204	-200,000	0,031	-0,109
-521,189	-200,000	-0,032	0,136
-520,175	-26,380	-0,079	-0,034
-519,160	229,654	0,109	-0,132
-518,145	-200,000	0,031	0,106
-517,131	-68,336	-0,063	0,018
-516,116	-135,274	0,083	0,007
-515,102	215,578	-0,063	-0,074
-514,087	424,848	-0,034	0,054
-513,072	-20,960	-0,115	-0,052
-512,058	-200,000	0,006	0,046
-511,043	110,529	-0,085	0,075
-510,029	175,914	-0,037	-0,040
-509,014	76,862	0,035	0,027
-507,999	-3,465	0,074	-0,038
-506,985	800,000	0,005	0,014
-505,970	-37,683	-0,046	0,018
-504,956	800,000	0,041	-0,102
-503,941	390,391	-0,057	-0,088
-502,926	110,451	0,052	0,046
-501,912	-200,000	0,006	-0,154
-500,897	202,948	-0,003	0,004
-499,883	-200,000	0,018	-0,107
-498,868	194,401	-0,058	0,065
-497,853	-200,000	-0,005	0,039
-496,839	122,373	-0,062	0,058
-495,824	40,173	0,067	-0,044
-494,810	159,710	0,114	0,118
-493,795	-200,000	0,001	0,054
-492,781	-45,696	-0,099	0,036
-491,766	-200,000	-0,017	-0,061
-490,751	-20,475	-0,081	-0,037
-489,737	-200,000	-0,012	-0,055
-488,722	55,280	0,036	-0,026
-487,708	136,424	0,137	0,132
-486,693	8,338	0,081	0,045
-485,678	800,000	0,019	-0,052
-484,664	-144,979	-0,092	-0,006
-483,649	-8,823	-0,066	-0,032
-482,635	568,008	-0,011	-0,019
-481,620	93,532	0,077	-0,064
-480,605	29,050	0,140	0,087
-479,591	-200,000	-0,023	0,105
-478,576	-112,454	-0,024	0,003
-477,562	-112,696	-0,103	-0,015
-476,547	-14,858	-0,092	-0,043
-475,532	-91,576	0,033	0,007
-474,518	-165,307	-0,126	0,004
-473,503	201,632	0,009	0,010
-472,489	686,613	-0,039	0,076
-471,474	31,929	-0,101	0,064
-470,459	800,000	0,026	0,073
-469,445	-200,000	-0,018	-0,065
-468,430	239,022	0,033	-0,040
-467,416	-42,861	-0,017	-0,006
-466,401	-102,755	0,100	-0,017
-465,386	237,335	-0,021	-0,026
-464,372	600,567	0,061	0,113
-463,357	800,000	-0,027	-0,077
-462,343	-14,684	-0,114	0,054
-461,328	-200,000	-0,025	-0,148
-460,313	-44,826	0,077	-0,028
-459,299	67,685	-0,113	0,085
-458,284	265,681	0,010	0,012
-457,270	82,508	-0,022	-0,018
-456,255	-200,000	0,004	0,163
-455,241	-91,891	-0,089	-0,018
-454,226	-40,636	-0,039	0,015
-453,211	800,000	-0,028	0,060
-452,197	-69,812	0,085	0,024
-451,182	60,184	0,047	0,035
-450,168	-33,613	0,045	-0,018
-449,153	800,000	0,042	0,100
-448,138	800,000	-0,044	-0,092
-447,124	-101,392	-0,050	-0,009
-446,109	-5,789	0,076	-0,038
-445,095	-130,387	0,014	0,001
-444,080	-94,496	-0,013	-0,003
-443,065	-42,252	0,091	0,034
-442,051	-200,000	0,005	-0,075
-441,036	800,000	-0,052	-0,159
-440,022	-72,916	0,122	0,033
-439,007	-200,000	-0,011	0,058
-437,992	-200,000	-0,020	0,107
-436,978	-118,123	0,118	0,015
-435,963	438,532	0,076	-0,123
-434,949	800,000	0,038	0,077
-433,934	12,007	0,052	0,030
-432,919	73,454	-0,048	0,037
-431,905	230,237	0,072	-0,087
-430,890	800,000	-0,037	0,095
-429,876	-112,995	0,077	0,011
-428,861	707,212	0,025	-0,049
-427,846	-200,000	-0,008	-0,034
-426,832	277,766	-0,034	-0,045
-425,817	197,547	0,113	0,127
-424,803	-200,000	0,011	-0,120
-423,788	75,213	0,035	0,027
-422,773	800,000	-0,025	-0,051
-421,759	9,813	0,088	0,049
-420,744	-200,000	-0,009	0,034
-419,730	-52,285	-0,208	0,071
-418,715	-155,182	-0,073	-0,003
-417,701	-151,351	0,044	-0,002
-416,686	-5,868	0,109	0,055
-415,671	-130,045	0,081	-0,008
-414,657	63,406	0,023	0,017
-413,642	-200,000	0,018	-0,082
-412,628	-141,617	-0,068	-0,005
-411,613	-139,278	-0,029	-0,002
-410,598	309,332	-0,023	0,031
-409,584	-26,323	0,128	0,055
-408,569	81,779	-0,105	0,083
-407,555	13,816	0,087	-0,050
-406,540	-52,069	0,091	0,031
-405,525	18,571	-0,108	0,063
-404,511	-17,780	-0,214	0,098
-403,496	-2,493	-0,093	0,048
-402,482	541,109	-0,043	-0,076
-401,467	-106,678	0,071	-0,011
-400,452	-31,990	-0,095	0,039
-399,438	800,000	0,037	0,076
-398,423	185,933	0,071	-0,078
-397,409	-159,465	-0,089	0,004
-396,394	800,000	0,045	-0,107
-395,379	186,362	-0,027	-0,030
-394,365	44,594	-0,074	0,050
-393,350	-16,755	0,053	0,025
-392,336	-168,654	0,157	0,004
-391,321	85,993	-0,033	-0,026
-390,306	329,123	0,027	0,038
-389,292	800,000	-0,025	-0,068
-388,277	-110,203	-0,060	0,009
-387,263	318,392	0,044	0,061
-386,248	164,269	0,119	-0,123
-385,233	-123,174	0,028	0,003
-384,219	-23,498	-0,058	-0,025
-383,204	139,239	-0,079	-0,077
-382,190	16,280	0,047	0,027
-381,175	170,637	0,019	-0,020
-380,160	800,000	-0,042	-0,092
-379,146	-200,000	0,024	0,093
-378,131	245,755	-0,031	0,038
-377,117	344,967	0,037	-0,054
-376,102	-6,443	0,052	0,026
-375,088	377,765	-0,010	0,016
-374,073	23,124	-0,060	0,036
-373,058	-200,000	-0,003	0,165
-372,044	-200,000	0,004	0,014
-371,029	-170,887	-0,056	-0,001
-370,015	-200,000	0,019	0,077
-369,000	-54,393	-0,089	-0,029
-367,985	316,657	-0,045	-0,062
-366,971	-200,000	-0,021	-0,198
-365,956	606,079	0,034	-0,063
-364,942	459,726	0,033	0,055
-363,927	-49,592	0,142	-0,049
-362,912	-89,102	-0,077	-0,017
-361,898	324,228	-0,055	0,077
-360,883	-200,000	0,017	-0,085
-359,869	-200,000	0,005	0,046
-358,854	285,135	-0,047	-0,063
-357,839	340,396	0,062	0,089
-356,825	-149,526	0,055	0,003
-355,810	-200,000	0,016	-0,073
-354,796	800,000	-0,067	0,144
-353,781	-200,000	-0,024	-0,095
-352,766	-200,000	0,028	-0,102
-351,752	308,264	-0,024	0,033
-350,737	89,909	0,054	0,044
-349,723	-200,000	-0,013	0,043
-348,708	-167,566	0,091	0,003
-347,693	261,051	0,018	-0,024
-346,679	429,709	-0,037	0,059
-345,664	109,840	-0,095	-0,084
-344,650	469,672	-0,037	0,062
-343,635	-183,817	0,159	0,002
-342,620	-200,000	-0,009	-0,049
-341,606	-200,000	-0,029	0,184
-340,591	-200,000	-0,009	-0,086
-339,577	-95,515	0,040	0,008
-338,562	148,603	-0,067	-0,067
-337,548	-200,000	0,019	0,078
-336,533	392,646	-0,050	-0,076
-335,518	194,729	-0,008	-0,009
-334,504	749,805	0,044	0,088
-333,489	35,401	0,048	-0,031
-332,475	800,000	-0,049	-0,136
-331,460	571,011	-0,046	0,083
-330,445	-138,642	0,033	0,003
-329,431	483,094	0,076	-0,127
-328,416	-200,000	-0,015	0,117
-327,402	-200,000	0,002	0,008
-326,387	-200,000	-0,015	0,055
-325,372	52,666	0,064	0,045
-324,358	-37,346	-0,027	0,010
-323,343	612,321	0,034	-0,063
-322,329	-200,000	0,012	-0,069
-321,314	112,331	-0,096	0,086
-320,299	-94,450	0,042	0,008
-319,285	442,177	-0,040	-0,064
-318,270	-56,393	-0,116	-0,038
-317,256	-134,005	0,012	-0,001
-316,241	364,109	0,058	-0,086
-315,226	1,621	0,144	-0,076
-314,212	386,628	0,016	-0,024
-313,197	-28,548	0,035	-0,015
-312,183	-131,421	-0,038	-0,004
-311,168	-188,323	-0,170	-0,002
-310,153	-200,000	0,006	-0,057
-309,139	602,587	-0,042	0,076
-308,124	-75,734	-0,063	0,016
-307,110	287,943	0,055	0,073
-306,095	122,953	0,118	0,109
-305,080	-200,000	0,042	-0,140
-304,066	-200,000	0,053	-0,192
-303,051	-5,817	-0,005	0,003
-302,037	-36,612	0,084	-0,033
-301,022	-200,000	0,001	-0,084
-300,008	-33,453	0,090	-0,036
-298,993	188,258	0,083	0,091
-297,978	75,810	0,043	0,033
-296,964	65,465	0,074	-0,055
-295,949	-7,698	0,090	0,044
-294,935	121,431	0,097	-0,089
-293,920	-200,000	-0,029	-0,127
-292,905	-143,575	-0,074	-0,005
-291,891	267,377	-0,064	0,082
-290,876	-200,000	-0,000	0,040
-289,862	800,000	-0,052	-0,163
-288,847	114,764	0,040	0,036
-287,832	364,401	-0,088	0,130
-286,818	-200,000	0,008	-0,060
-285,803	-66,519	-0,066	0,019
-284,789	800,000	0,018	0,042
-283,774	39,367	0,126	0,083
-282,759	-112,743	0,095	0,014
-281,745	-96,502	-0,097	0,019
-280,730	46,336	-0,023	-0,016
-279,716	-200,000	0,003	0,110
-278,701	371,324	0,133	0,198
-277,686	-200,000	0,001	-0,015
-276,672	-86,960	-0,075	-0,017
-275,657	88,695	0,009	0,007
-274,643	69,740	0,066	0,050
-273,628	14,210	0,177	0,101
-272,613	800,000	0,022	-0,058
-271,599	-200,000	-0,002	-0,028
-270,584	-112,194	0,028	0,004
-269,570	667,828	0,056	0,107
-268,555	-59,028	0,221	0,070
-267,540	-200,000	-0,041	-0,134
-266,526	269,573	-0,025	-0,032
-265,511	156,514	-0,082	0,083
-264,497	244,784	0,037	-0,046
-263,482	351,090	-0,051	-0,075
-262,467	-200,000	-0,040	0,167
-261,453	150,845	-0,035	0,035
-260,438	58,180	-0,106	-0,076
-259,424	800,000	-0,014	-0,031
-258,409	16,007	-0,011	-0,006
-257,395	25,942	0,106	0,065
-256,380	223,901	-0,039	-0,046
-255,365	-200,000	-0,023	0,094
-254,351	245,057	-0,044	0,054
-253,336	227,189	-0,040	-0,048
-252,322	-200,000	0,001	-0,148
-251,307	-200,000	0,001	0,068
-250,292	800,000	-0,008	0,019
-249,278	407,629	0,034	-0,053
-248,263	-200,000	-0,002	0,067
-247,249	800,000	0,014	0,042
-246,234	230,258	0,022	-0,026
-245,219	78,211	0,024	0,019
-244,205	-200,000	0,012	0,087
-243,190	214,157	0,091	0,106
-242,176	740,189	0,058	0,115
-241,161	-88,854	0,080	-0,017
-240,146	183,587	0,121	-0,131
-239,132	-89,995	0,084	0,018
-238,117	42,315	-0,117	-0,077
-237,103	38,897	-0,165	0,107
-236,088	800,000	-0,030	0,065
-235,073	237,733	0,089	-0,108
-234,059	-26,916	0,069	-0,029
-233,044	-3,495	0,055	0,028
-232,030	295,800	-0,101	-0,136
-231,015	162,020	-0,097	-0,099
-230,000	637,475	-0,048	-0,090
-228,986	-23,770	-0,051	0,022
-227,971	-28,890	0,117	0,049
-226,957	-200,000	0,003	-0,061
-225,942	38,156	-0,139	0,090
-224,927	-172,659	-0,078	0,002
-223,913	-9,754	-0,021	0,010
-222,898	-65,528	0,098	-0,028
-221,884	-200,000	-0,017	0,116
-220,869	800,000	-0,012	0,026
-219,855	-147,177	-0,098	0,006
-218,840	800,000	0,088	0,204
-217,825	-200,000	-0,001	0,104
-216,811	101,163	0,044	-0,037
-215,796	772,891	-0,041	0,083
-214,782	800,000	-0,010	0,029
-213,767	96,649	-0,030	0,025
-212,752	-86,743	0,042	-0,009
-211,738	-200,000	-0,002	0,053
-210,723	414,275	-0,047	-0,074
-209,709	-68,709	0,082	-0,023
-208,694	-200,000	-0,015	0,102
-207,679	-199,260	-0,053	0,000
-206,665	-143,345	0,119	-0,008
-205,650	-200,000	0,025	0,133
-204,636	-122,170	-0,073	0,009
-203,621	-120,176	-0,020	-0,002
-202,606	800,000	-0,011	0,024
-201,592	27,374	0,007	-0,004
-200,577	-200,000	-0,018	-0,092
-199,563	-121,766	0,082	0,010
-198,548	-148,709	0,098	0,006
-197,533	142,446	0,069	0,067
-196,519	-134,192	-0,111	0,010
-195,504	-113,630	0,142	-0,020
-194,490	43,335	0,037	0,024
-193,475	-89,296	-0,031	-0,007
-192,460	-11,640	0,016	-0,008
-191,446	128,974	0,033	-0,031
-190,431	149,462	-0,034	0,033
-189,417	-152,763	-0,125	0,006
-188,402	74,773	-0,074	0,057
-187,387	-59,211	-0,059	0,018
-186,373	5,897	-0,089	0,048
-185,358	20,707	-0,063	-0,037
-184,344	-200,000	0,065	-0,000
-183,329	-2,187	-0,107	-0,055
-182,315	-200,000	0,003	0,182
-181,300	-131,194	0,127	-0,012
-180,285	-82,792	-0,184	-0,043
-179,271	-23,355	-0,081	-0,035
-178,256	73,916	-0,072	-0,055
-177,242	-92,015	-0,049	0,010
-176,227	-200,000	-0,010	0,156
-175,212	145,118	0,046	-0,045
-174,198	284,981	-0,009	0,011
-173,183	-85,927	0,061	0,014
-172,169	35,284	-0,046	0,030
-171,154	68,932	-0,133	0,099
-170,139	-200,000	0,019	0,101
-169,125	800,000	0,075	0,228
-168,110	800,000	0,041	-0,087
-167,096	61,367	0,125	-0,091
-166,081	800,000	-0,039	-0,095
-165,066	-200,000	0,086	0,000
-164,052	167,102	0,062	-0,064
-163,037	30,799	0,015	-0,009
-162,023	800,000	-0,030	0,067
-161,008	800,000	0,041	0,108
-159,993	-200,000	-0,006	-0,086
-158,979	17,334	0,027	-0,015
-157,964	800,000	-0,070	0,163
-156,950	90,025	0,084	-0,069
-155,935	-113,172	0,105	-0,015
-154,920	215,312	0,029	0,034
-153,906	-119,805	-0,003	0,000
-152,891	-15,663	-0,017	0,008
-151,877	-200,000	-0,004	0,031
-150,862	105,701	-0,127	-0,109
-149,847	800,000	-0,013	-0,033
-148,833	19,660	-0,073	-0,043
-147,818	800,000	0,064	0,134
-146,804	149,853	0,105	0,104
-145,789	345,633	-0,068	0,098
-144,775	-134,250	-0,049	0,004
-143,760	-200,000	0,023	-0,079
-142,745	-39,306	-0,128	-0,049
-141,731	-200,000	0,004	0,014
-140,716	17,778	0,075	-0,043
-139,702	319,967	0,028	-0,039
-138,687	-200,000	-0,039	-0,129
-137,672	-113,981	0,032	-0,005
-136,658	-200,000	-0,001	0,084
-135,643	212,639	0,126	-0,145
-134,629	293,779	-0,090	-0,120
-133,614	-200,000	0,028	0,096
-132,599	784,991	-0,053	-0,106
-131,585	-200,000	-0,009	0,066
-130,570	-79,632	-0,090	-0,022
-129,556	-14,836	-0,092	-0,043
-128,541	800,000	-0,070	-0,161
-127,526	-1,141	-0,099	0,051
-126,512	339,934	-0,044	0,063
-125,497	-125,379	0,070	0,008
-124,483	800,000	-0,014	0,038
-123,468	800,000	-0,051	-0,121
-122,453	2,499	-0,146	-0,077
-121,439	-143,134	0,072	0,005
-120,424	253,193	-0,035	0,044
-119,410	40,855	0,087	0,057
-118,395	-27,844	0,071	-0,030
-117,380	-200,000	-0,012	0,071
-116,366	-21,872	-0,055	-0,024
-115,351	-16,187	-0,100	-0,046
-114,337	625,417	0,026	-0,049
-113,322	101,561	-0,040	-0,034
-112,307	-200,000	-0,038	0,137
-111,293	800,000	-0,048	-0,120
-110,278	71,418	0,128	-0,097
-109,264	-200,000	0,023	-0,120
-108,249	-27,438	-0,052	0,022
-107,234	-51,811	0,034	0,012
-106,220	-200,000	-0,005	-0,168
-105,205	-28,496	-0,198	0,083
-104,191	-110,468	0,038	0,006
-103,176	179,854	-0,058	-0,062
-102,162	-200,000	-0,020	-0,094
-101,147	173,989	-0,007	0,008
-100,132	-200,000	0,034	0,178
-99,118	776,230	0,019	-0,039
-98,103	36,417	0,066	0,043
-97,089	-200,000	0,025	0,087
-96,074	110,782	0,058	0,051
-95,059	178,332	-0,044	0,047
-94,045	450,761	0,059	-0,095
-93,030	68,223	0,153	-0,114
-92,016	-200,000	-0,001	-0,163
-91,001	-200,000	-0,018	-0,140
-89,986	-142,043	0,019	0,001
-88,972	800,000	0,035	0,102
-87,957	800,000	0,021	-0,048
-86,943	110,316	-0,028	0,024
-85,928	501,395	0,055	-0,092
-84,913	270,619	0,019	-0,024
-83,899	41,779	0,024	-0,016
-82,884	116,561	0,096	0,086
-81,870	86,266	0,046	0,037
-80,855	800,000	0,009	-0,020
-79,840	-200,000	0,004	-0,037
-78,826	160,277	-0,120	0,121
-77,811	-116,666	0,036	-0,005
-76,797	59,858	-0,140	-0,101
-75,782	578,964	0,031	0,055
-74,767	-64,113	0,093	-0,028
-73,753	-47,976	0,150	-0,052
-72,738	325,757	-0,039	0,055
-71,724	614,257	-0,035	-0,063
-70,709	800,000	0,036	-0,074
-69,694	17,862	-0,032	0,018
-68,680	-118,646	-0,046	-0,006
-67,665	167,470	0,087	0,090
-66,651	1,406	0,083	-0,043
-65,636	190,108	-0,024	-0,026
-64,622	-66,400	-0,080	0,023
-63,607	69,996	-0,047	0,035
-62,592	800,000	0,013	0,041
-61,578	-200,000	0,005	0,055
-60,563	303,589	-0,055	0,074
-59,549	-200,000	-0,051	0,219
-58,534	-117,154	-1,365	-0,178
-57,519	411,589	-0,944	-1,460
-56,505	-200,000	-0,928	-4,468
-55,490	86,554	0,551	-0,441
-54,476	800,000	4,957	11,904
-53,461	-200,000	13,804	253,727
-52,446	-200,000	690,913	2256,629
-51,432	588,063	1622,722	2912,532
-50,417	118,713	1634,454	1465,111
-49,403	72,956	1288,428	975,887
-48,388	37,844	1024,078	659,074
-47,373	24,154	981,784	586,813
-46,359	23,450	971,413	578,283
-45,344	22,463	967,170	572,508
-44,330	22,383	965,702	571,356
-43,315	22,357	964,163	570,337
-42,300	22,283	963,255	569,536
-41,286	22,262	962,494	568,994
-40,271	22,313	961,285	568,423
-39,257	22,299	960,112	567,663
-38,242	22,243	959,504	567,099
-37,227	22,238	958,637	566,547
-36,213	22,246	957,823	566,070
-35,198	22,257	956,769	565,460
-34,184	22,265	956,207	565,131
-33,169	22,223	955,312	564,442
-32,154	22,348	954,367	564,267
-31,140	22,297	953,627	563,641
-30,125	22,307	952,602	563,046
-29,111	22,337	951,789	562,639
-28,096	22,299	951,063	562,066
-27,082	22,303	950,524	561,738
-26,067	22,335	949,759	561,365
-25,052	22,274	949,171	560,802
-24,038	22,318	948,331	560,422
-23,023	22,257	947,797	559,890
-22,009	22,346	946,966	559,660
-20,994	22,388	946,513	559,505
-19,979	22,332	945,862	558,920
-18,965	22,312	945,311	558,509
-17,950	22,288	944,657	558,023
-16,936	22,276	943,938	557,537
-15,921	22,221	943,327	556,980
-14,906	22,177	942,484	556,321
-13,892	22,214	941,771	555,994
-12,877	22,208	941,125	555,571
-11,863	22,108	940,818	555,053
-10,848	22,154	940,045	554,718
-9,833	22,260	939,607	554,774
-8,819	22,318	938,830	554,480
-7,804	22,205	938,315	553,794
-6,790	22,150	937,596	553,173
-5,775	22,185	937,200	553,028
-4,760	22,159	936,586	552,562
-3,746	22,159	935,909	552,140
-2,731	22,016	935,353	551,339
-1,717	21,926	934,611	550,597
-0,702	21,980	933,854	550,297
0,313	21,744	933,309	550,064
1,327	24,935	931,179	558,794
2,342	34,688	795,694	503,463
3,356	32,641	451,492	282,566
4,371	1,629	293,964	153,006
5,386	-2,819	274,921	138,868
6,400	-4,554	269,157	134,333
7,415	-5,116	266,695	132,574
8,429	-4,530	265,464	132,487
9,444	-4,597	264,591	131,979
10,459	-4,592	263,881	131,618
11,473	-4,724	263,361	131,227
12,488	-4,787	262,864	130,910
13,502	-4,850	262,367	130,594
14,517	-4,831	261,850	130,342
15,531	-4,669	261,534	130,320
16,546	-4,613	261,140	130,162
17,561	-4,764	260,917	129,903
18,575	-4,750	260,493	129,693
19,590	-4,769	260,084	129,461
20,604	-4,697	259,902	129,423
21,619	-4,711	259,468	129,183
22,634	-4,973	259,231	128,820
23,648	-4,867	258,979	128,777
24,663	-4,796	258,728	128,704
25,677	-4,807	258,410	128,525
26,692	-4,751	258,023	128,371
27,707	-4,773	257,966	128,312
28,721	-4,834	257,786	128,156
29,736	-4,983	257,530	127,885
30,750	-4,886	257,200	127,796
31,765	-4,806	256,855	127,684
32,780	-4,822	256,701	127,582
33,794	-4,993	256,522	127,330
34,809	-4,786	256,282	127,383
35,823	-4,909	255,926	127,086
36,838	-5,007	255,784	126,918
37,853	-4,966	255,534	126,818
38,867	-4,862	255,203	126,734
39,882	-4,998	255,000	126,503
40,896	-4,766	254,810	126,601
41,911	-4,868	254,703	126,447
42,926	-4,822	254,377	126,314
43,940	-4,874	254,048	126,093
44,955	-4,997	253,934	125,918
45,969	-5,080	253,581	125,660
46,984	-5,231	253,400	125,427
47,999	-5,526	253,351	125,135
49,013	-5,488	252,894	124,931
50,028	-5,546	252,677	124,763
51,042	-5,561	252,327	124,565
52,057	-5,632	252,153	124,407
53,071	-5,928	251,850	123,990
54,086	-5,556	251,854	124,302
55,101	-5,553	251,717	124,226
56,115	-5,254	251,621	124,427
57,130	-4,822	251,409	124,684
58,144	-4,785	251,394	124,698
59,159	-4,606	251,092	124,691
60,174	-4,656	250,890	124,537
61,188	-4,690	250,556	124,331
62,203	-4,613	250,426	124,321
63,217	-4,724	250,371	124,187
64,232	-4,780	249,955	123,922
65,247	-4,677	249,860	123,952
66,261	-4,852	249,717	123,720
67,276	-5,095	249,308	123,298
68,290	-5,009	248,983	123,200
69,305	-5,315	248,976	122,924
70,320	-5,073	248,656	122,961
71,334	-4,981	248,545	122,974
72,349	-4,511	248,315	123,251
73,363	-4,663	248,269	123,087
74,378	-4,656	248,003	122,950
75,393	-4,919	247,801	122,615
76,407	-4,786	247,603	122,620
77,422	-4,907	247,456	122,433
78,436	-4,914	247,292	122,335
79,451	-4,763	246,925	122,270
80,466	-4,864	246,727	122,076
81,480	-4,973	246,411	121,816
82,495	-5,150	246,414	121,658
83,509	-4,983	246,208	121,686
84,524	-5,064	246,000	121,504
85,539	-5,073	245,663	121,319
86,553	-5,059	245,495	121,238
87,568	-4,930	245,380	121,279
88,582	-4,908	245,254	121,223
89,597	-4,967	244,954	121,015
90,611	-4,949	244,861	120,973
91,626	-4,879	244,900	121,040
92,641	-4,672	244,600	121,056
93,655	-4,928	244,403	120,732
94,670	-4,862	244,115	120,635
95,684	-5,029	243,946	120,401
96,699	-5,162	243,819	120,216
97,714	-5,097	243,605	120,154
98,728	-5,184	243,382	119,961
99,743	-5,352	243,228	119,734
100,757	-5,153	242,952	119,754
101,772	-5,245	242,718	119,551
102,787	-5,126	242,612	119,587
103,801	-4,976	242,376	119,584
104,816	-5,047	242,340	119,497
105,830	-4,868	242,234	119,583
106,845	-4,909	242,051	119,448
107,860	-4,790	241,793	119,408
108,874	-4,768	241,473	119,258
109,889	-5,079	241,343	118,926
110,903	-5,003	241,173	118,894
111,918	-5,103	240,976	118,704
112,933	-5,209	240,949	118,593
113,947	-5,114	240,759	118,567
114,962	-4,860	240,489	118,632
115,976	-4,805	240,429	118,638
116,991	-4,966	240,302	118,432
118,006	-4,908	239,901	118,271
119,020	-4,940	240,004	118,285
120,035	-4,668	239,852	118,423
121,049	-4,800	239,673	118,215
122,064	-4,866	239,390	118,012
123,079	-4,992	239,301	117,854
124,093	-5,091	238,964	117,597
125,108	-5,081	238,652	117,441
126,122	-5,379	238,486	117,106
127,137	-5,176	238,389	117,213
128,151	-5,175	238,294	117,157
129,166	-5,083	238,103	117,127
130,181	-5,240	237,945	116,912
131,195	-5,228	237,580	116,732
132,210	-5,119	237,528	116,784
133,224	-4,989	237,374	116,804
134,239	-5,010	237,248	116,713
135,254	-5,055	237,101	116,594
136,268	-4,990	236,780	116,479
137,283	-5,230	236,540	116,157
138,297	-5,434	236,358	115,892
139,312	-5,332	236,207	115,890
140,327	-5,001	236,152	116,119
141,341	-4,546	236,217	116,508
142,356	-4,491	235,955	116,413
143,370	-4,571	235,878	116,300
144,385	-4,501	235,654	116,236
145,400	-4,285	235,433	116,290
146,414	-4,525	235,354	116,048
147,429	-4,474	235,164	115,984
148,443	-4,647	234,873	115,692
149,458	-4,621	234,870	115,701
150,473	-4,722	234,624	115,488
151,487	-4,795	234,367	115,293
152,502	-4,812	234,310	115,241
153,516	-4,441	234,175	115,461
154,531	-4,565	233,981	115,256
155,546	-4,584	233,740	115,112
156,560	-4,793	233,682	114,907
157,575	-4,696	233,429	114,849
158,589	-4,789	233,254	114,679
159,604	-4,645	233,080	114,698
160,619	-4,529	233,017	114,749
161,633	-4,496	232,807	114,661
162,648	-4,462	232,711	114,630
163,662	-4,529	232,556	114,490
164,677	-4,568	232,320	114,334
165,692	-4,710	232,268	114,186
166,706	-4,575	232,142	114,220
167,721	-4,645	232,058	114,113
168,735	-4,655	231,803	113,969
169,750	-4,374	231,746	114,153
170,764	-4,508	231,417	113,876
171,779	-4,407	231,272	113,874
172,794	-4,594	231,181	113,672
173,808	-4,760	230,966	113,425
174,823	-5,022	230,650	113,054
175,837	-5,062	230,468	112,923
176,852	-4,779	230,305	113,055
177,867	-4,622	230,361	113,196
178,881	-4,505	230,243	113,219
179,896	-4,409	230,111	113,220
180,910	-4,265	229,907	113,222
181,925	-4,544	229,798	112,940
182,940	-4,486	229,692	112,923
183,954	-4,435	229,466	112,842
184,969	-4,555	229,432	112,721
185,983	-4,400	229,304	112,769
186,998	-4,360	229,012	112,646
188,013	-4,367	228,940	112,595
189,027	-4,462	228,719	112,403
190,042	-4,428	228,613	112,368
191,056	-4,348	228,318	112,274
192,071	-4,362	228,250	112,220
193,086	-4,543	228,123	112,007
194,100	-4,359	228,029	112,094
195,115	-4,581	227,620	111,711
196,129	-5,264	227,263	110,999
197,144	-2,179	228,518	113,995
198,159	2,241	229,580	117,950
199,173	4,205	229,993	119,678
200,188	4,385	229,925	119,772
201,202	4,279	229,804	119,616
202,217	4,548	229,726	119,774
203,232	4,870	229,558	119,925
204,246	4,818	229,436	119,810
205,261	4,852	229,328	119,769
206,275	5,023	229,243	119,847
207,290	5,010	229,069	119,735
208,304	5,163	228,790	119,696
209,319	4,947	228,595	119,417
210,334	4,669	228,534	119,160
211,348	4,635	228,257	118,979
212,363	4,361	228,030	118,639
213,377	4,151	227,908	118,404
214,392	4,040	227,673	118,186
215,407	4,164	227,329	118,092
216,421	4,218	227,508	118,216
217,436	3,894	227,357	117,879
218,450	3,852	227,020	117,661
219,465	3,854	226,781	117,529
220,480	3,975	226,664	117,549
221,494	4,053	226,528	117,528
222,509	4,039	226,472	117,479
223,523	4,122	226,237	117,409
224,538	4,028	226,046	117,228
225,553	3,907	226,003	117,103
226,567	4,117	225,964	117,232
227,582	4,444	225,937	117,456
228,596	4,594	225,702	117,437
229,611	4,050	225,484	116,901
230,626	4,119	225,241	116,816
231,640	3,870	225,166	116,578
232,655	4,303	225,029	116,826
233,669	4,623	225,107	117,098
234,684	4,762	224,955	117,113
235,699	4,560	224,775	116,857
236,713	4,274	224,489	116,481
237,728	4,228	224,222	116,298
238,742	3,946	224,200	116,063
239,757	4,069	223,926	116,004
240,772	4,041	223,761	115,887
241,786	4,214	223,690	115,970
242,801	4,188	223,464	115,823
243,815	4,305	223,606	115,974
244,830	4,593	223,297	116,020
245,844	4,235	223,129	115,654
246,859	4,068	223,140	115,524
247,874	4,356	222,870	115,589
248,888	4,468	222,649	115,549
249,903	4,131	222,432	115,173
250,917	4,331	222,458	115,326
251,932	4,161	222,229	115,070
252,947	4,100	222,053	114,923
253,961	3,999	221,897	114,757
254,976	4,147	221,891	114,854
255,990	4,446	221,707	114,972
257,005	4,128	221,561	114,648
258,020	4,168	221,637	114,707
259,034	4,219	221,355	114,589
260,049	4,176	221,120	114,425
261,063	4,188	221,104	114,416
262,078	4,339	220,948	114,437
263,093	4,632	220,928	114,634
264,107	4,559	220,658	114,429
265,122	4,365	220,586	114,238
266,136	4,562	220,383	114,269
267,151	4,778	220,217	114,332
268,166	4,144	220,019	113,751
269,180	3,763	219,853	113,374
270,195	4,024	219,617	113,434
271,209	4,134	219,465	113,426
272,224	4,189	219,474	113,462
273,239	4,397	219,182	113,454
274,253	4,287	219,128	113,335
275,268	3,992	218,822	112,950
276,282	3,749	218,688	112,692
277,297	3,737	218,505	112,579
278,312	4,047	218,474	112,780
279,326	3,856	218,427	112,606
280,341	4,069	218,162	112,615
281,355	4,019	218,132	112,553
282,370	4,069	217,959	112,490
283,384	4,081	217,724	112,368
284,399	3,827	217,732	112,176
285,414	3,862	217,589	112,119
286,428	4,284	217,337	112,286
287,443	4,400	217,281	112,332
288,457	4,507	217,113	112,312
289,472	4,166	217,028	112,010
290,487	3,733	216,719	111,526
291,501	3,665	216,610	111,411
292,516	3,919	216,486	111,521
293,530	3,739	216,345	111,308
294,545	3,723	216,275	111,251
295,560	4,035	216,199	111,428
296,574	4,222	216,069	111,486
297,589	4,210	215,924	111,392
298,603	4,222	215,791	111,323
299,618	4,133	215,676	111,189
300,633	3,912	215,712	111,038
301,647	4,444	215,585	111,347
302,662	4,129	215,404	111,017
303,676	4,399	215,081	111,035
304,691	4,125	215,172	110,874
305,706	4,477	214,859	110,956
306,720	4,059	214,777	110,603
307,735	4,249	214,565	110,621
308,749	4,052	214,529	110,452
309,764	4,055	214,262	110,306
310,779	4,355	214,198	110,478
311,793	4,254	214,020	110,305
312,808	4,082	213,975	110,149
313,822	4,317	213,783	110,208
314,837	4,218	213,519	109,991
315,852	4,209	213,377	109,902
316,866	3,967	213,293	109,675
317,881	4,103	213,329	109,782
318,895	4,401	212,990	109,809
319,910	3,923	212,996	109,462
320,925	3,823	212,588	109,172
321,939	3,531	212,541	108,931
322,954	3,678	212,473	108,991
323,968	4,093	212,383	109,229
324,983	4,367	212,141	109,289
325,997	4,556	212,007	109,344
327,012	4,292	211,970	109,129
328,027	4,011	211,858	108,863
329,041	4,323	211,818	109,052
330,056	4,745	211,669	109,264
331,070	4,154	211,495	108,747
332,085	3,682	211,310	108,310
333,100	4,089	211,129	108,494
334,114	4,045	211,021	108,398
335,129	4,025	210,798	108,260
336,143	3,881	210,628	108,061
337,158	4,101	210,440	108,110
338,173	4,000	210,300	107,958
339,187	3,729	210,305	107,760
340,202	3,833	210,181	107,760
341,216	3,818	209,893	107,592
342,231	3,980	209,783	107,640
343,246	3,626	209,692	107,336
344,260	3,944	209,680	107,542
345,275	4,024	209,575	107,535
346,289	4,301	209,451	107,655
347,304	4,355	209,212	107,561
348,319	3,854	209,258	107,225
349,333	4,016	208,966	107,178
350,348	4,176	208,936	107,265
351,362	4,195	208,801	107,199
352,377	4,161	208,721	107,125
353,392	4,070	208,460	106,919
354,406	4,055	208,455	106,896
355,421	192,957	1346,227	1432,141
356,435	153,916	1484,957	1432,265
