DTS Sentinel unit serial number:	SN410029Multiplexer serial number:	ORYXHardware model number:	OX2-SRSoftware version number:	ORYX F/W v4,00 Oryx Data Collector v3.7.2.0data status	okinstallation	B6 Nyhavnadifferential loss correction	single-endedforward channel	channel 2reverse channel	N/Adate	2023/12/07time	19:15:08forward acquisition time	300,00reverse acquisition time	0,00gamma	499,1914k internal	0,3163k external	0,3163temperature offset calibration	1,0000default loss term (dB/km)	0,3820temperature slope calibration	1,0000multiplexer offset coefficient	1,0000multiplexer slope coefficient	1,0000fibre end	0,00T internal ref (°C)	14,06T ext. ref 1 (°C)	-2,97T ext. ref 2 (°C)	-2,98length (m)	temperature (°C)	Stokes	anti-Stokes-744,400	277,249	-0,023	-0,030
-743,385	-68,245	-0,311	-0,088
-742,371	-95,275	0,195	0,038
-741,356	-39,791	-0,230	-0,088
-740,342	33,979	0,185	0,118
-739,327	-69,149	-0,275	-0,077
-738,312	110,152	0,094	-0,083
-737,298	-55,821	-0,215	-0,070
-736,283	100,973	0,167	0,143
-735,269	-56,704	-0,328	-0,106
-734,254	-200,000	-0,003	0,073
-733,239	-64,156	-0,445	-0,133
-732,225	-62,166	0,176	0,054
-731,210	-200,000	-0,035	0,151
-730,196	-200,000	0,002	0,112
-729,181	-24,471	-0,116	0,051
-728,167	396,161	0,026	0,040
-727,152	-200,000	-0,013	-0,121
-726,137	368,335	-0,134	0,200
-725,123	472,834	0,060	-0,099
-724,108	-24,022	-0,172	-0,076
-723,094	-200,000	-0,002	-0,087
-722,079	800,000	-0,048	0,107
-721,064	-200,000	-0,017	0,076
-720,050	-87,298	-0,113	-0,025
-719,035	-44,533	0,063	-0,023
-718,021	800,000	-0,071	-0,174
-717,006	800,000	-0,044	-0,104
-715,991	362,347	-0,055	-0,081
-714,977	331,913	-0,061	-0,087
-713,962	-35,116	-0,096	0,038
-712,948	576,864	-0,052	-0,094
-711,933	-19,465	-0,100	-0,045
-710,918	106,183	-0,060	0,052
-709,904	17,702	-0,100	-0,058
-708,889	748,340	-0,056	-0,112
-707,875	6,233	0,083	0,045
-706,860	-40,372	-0,045	-0,017
-705,845	-64,786	-0,061	-0,018
-704,831	36,315	-0,079	0,051
-703,816	-149,882	-0,109	-0,006
-702,802	94,139	-0,058	-0,048
-701,787	-200,000	-0,016	-0,078
-700,772	-108,687	-0,108	-0,017
-699,758	42,897	0,110	-0,073
-698,743	-200,000	-0,019	0,065
-697,729	20,838	0,188	0,112
-696,714	103,741	0,032	-0,028
-695,699	-69,324	-0,065	-0,018
-694,685	25,572	0,076	0,046
-693,670	-200,000	-0,012	-0,057
-692,656	-26,470	-0,068	0,029
-691,641	71,994	-0,019	0,015
-690,627	-200,000	0,008	0,106
-689,612	-12,817	-0,108	0,052
-688,597	100,192	0,013	0,011
-687,583	-200,000	0,002	-0,199
-686,568	2,797	0,021	-0,011
-685,554	395,317	0,097	0,149
-684,539	-75,169	0,115	-0,030
-683,524	88,645	-0,096	0,078
-682,510	799,954	-0,018	-0,037
-681,495	-200,000	0,000	-0,167
-680,481	592,191	-0,031	-0,057
-679,466	147,644	-0,070	0,069
-678,451	-51,510	0,026	0,009
-677,437	-129,444	-0,105	-0,011
-676,422	106,136	0,048	0,042
-675,408	199,857	0,056	-0,063
-674,393	64,318	0,045	0,033
-673,378	282,227	-0,069	-0,091
-672,364	-200,000	-0,037	-0,176
-671,349	-144,484	-0,113	-0,008
-670,335	211,604	0,065	-0,075
-669,320	-148,540	-0,109	-0,006
-668,305	9,111	0,044	-0,025
-667,291	-39,119	-0,139	-0,053
-666,276	-93,053	-0,144	-0,029
-665,262	46,476	-0,157	-0,107
-664,247	800,000	-0,040	-0,110
-663,232	-90,303	-0,046	0,010
-662,218	800,000	0,019	0,049
-661,203	245,802	-0,110	-0,136
-660,189	-101,596	-0,065	-0,011
-659,174	-200,000	-0,014	-0,068
-658,159	-200,000	0,011	0,104
-657,145	369,512	-0,136	0,202
-656,130	344,110	-0,116	0,168
-655,116	-0,486	0,031	-0,016
-654,101	-143,460	0,093	-0,006
-653,086	-200,000	0,012	0,092
-652,072	-200,000	0,010	-0,117
-651,057	-96,800	0,079	0,015
-650,043	373,328	-0,059	-0,088
-649,028	169,092	-0,034	-0,036
-648,014	3,579	0,093	0,050
-646,999	-200,000	-0,011	-0,080
-645,984	-159,845	0,004	-0,000
-644,970	410,377	0,081	0,127
-643,955	449,574	0,059	-0,095
-642,941	800,000	-0,055	-0,119
-641,926	-200,000	-0,011	-0,069
-640,911	-200,000	-0,001	-0,022
-639,897	-10,970	0,059	-0,029
-638,882	78,142	0,075	0,058
-637,868	800,000	0,019	0,053
-636,853	-134,135	-0,058	-0,005
-635,838	-200,000	-0,007	0,035
-634,824	-167,356	0,182	0,005
-633,809	-200,000	0,001	-0,134
-632,795	-75,366	0,119	0,031
-631,780	-200,000	0,055	0,189
-630,765	97,150	-0,016	-0,013
-629,751	-103,934	0,046	0,008
-628,736	96,215	-0,125	-0,105
-627,722	-90,930	0,041	-0,009
-626,707	800,000	0,059	0,154
-625,692	-200,000	0,013	0,070
-624,678	547,905	-0,031	-0,055
-623,663	11,477	0,051	-0,028
-622,649	-200,000	-0,019	-0,075
-621,634	479,545	-0,062	0,103
-620,619	-64,593	0,055	-0,016
-619,605	2,523	0,118	0,063
-618,590	800,000	-0,023	-0,054
-617,576	-178,295	0,164	0,003
-616,561	256,907	-0,029	-0,036
-615,546	55,997	-0,010	-0,007
-614,532	-200,000	-0,008	-0,079
-613,517	34,160	0,067	0,043
-612,503	659,676	0,047	-0,090
-611,488	-93,134	-0,087	0,018
-610,474	87,792	0,108	0,087
-609,459	161,159	-0,077	0,079
-608,444	800,000	-0,059	0,160
-607,430	418,521	-0,084	-0,131
-606,415	454,615	-0,015	0,024
-605,401	102,286	0,020	0,017
-604,386	124,613	-0,054	-0,049
-603,371	-138,901	-0,045	-0,004
-602,357	512,688	0,026	-0,044
-601,342	28,971	0,117	-0,072
-600,328	-40,968	0,034	-0,013
-599,313	439,604	0,053	-0,085
-598,298	-163,754	0,201	0,007
-597,284	512,829	0,035	-0,060
-596,269	800,000	-0,033	0,078
-595,255	330,204	0,045	0,063
-594,240	-200,000	-0,003	0,036
-593,225	-127,669	-0,129	-0,013
-592,211	-200,000	-0,010	0,065
-591,196	-107,942	0,105	-0,017
-590,182	266,311	0,071	-0,091
-589,167	333,739	0,043	-0,061
-588,152	254,830	-0,131	0,164
-587,138	-25,800	-0,079	-0,034
-586,123	209,495	0,065	-0,075
-585,109	-20,961	-0,215	-0,096
-584,094	-200,000	-0,022	-0,135
-583,079	-200,000	-0,017	-0,069
-582,065	287,990	-0,034	0,044
-581,050	434,606	-0,029	0,046
-580,036	-200,000	-0,029	-0,170
-579,021	-135,828	0,030	-0,003
-578,006	28,854	0,079	0,049
-576,992	-9,820	-0,036	-0,018
-575,977	56,256	0,034	-0,024
-574,963	-97,076	-0,054	0,010
-573,948	305,081	0,091	-0,124
-572,934	687,186	0,058	0,111
-571,919	-15,685	-0,044	-0,020
-570,904	156,402	-0,025	0,025
-569,890	-200,000	0,001	-0,054
-568,875	75,474	-0,163	0,126
-567,861	196,827	0,045	-0,051
-566,846	-200,000	0,029	-0,138
-565,831	-59,507	0,073	-0,023
-564,817	42,506	0,034	-0,023
-563,802	-33,823	0,033	0,013
-562,788	118,838	-0,093	-0,084
-561,773	-200,000	0,012	-0,054
-560,758	-151,047	-0,089	0,005
-559,744	-111,943	-0,019	-0,003
-558,729	-200,000	0,010	0,034
-557,715	-113,334	0,111	-0,016
-556,700	-200,000	-0,003	0,165
-555,685	800,000	-0,028	-0,076
-554,671	800,000	0,007	-0,015
-553,656	-160,506	0,080	-0,003
-552,642	283,511	0,026	0,034
-551,627	800,000	0,009	-0,027
-550,612	275,635	-0,069	0,090
-549,598	-18,997	-0,124	-0,056
-548,583	-200,000	-0,010	-0,085
-547,569	349,545	-0,024	-0,034
-546,554	-45,873	0,017	-0,006
-545,539	-200,000	0,000	-0,062
-544,525	-200,000	0,027	0,107
-543,510	800,000	-0,031	-0,068
-542,496	743,415	0,044	0,088
-541,481	-200,000	-0,014	-0,140
-540,466	-87,944	0,022	-0,005
-539,452	94,977	-0,112	0,093
-538,437	-26,661	0,069	0,030
-537,423	170,151	-0,129	0,135
-536,408	109,881	-0,022	-0,019
-535,393	-200,000	-0,013	-0,176
-534,379	43,623	-0,108	0,072
-533,364	-78,031	-0,068	-0,017
-532,350	25,906	0,054	0,033
-531,335	209,250	0,042	0,048
-530,321	-31,567	-0,094	-0,038
-529,306	800,000	-0,036	-0,088
-528,291	82,909	-0,031	-0,025
-527,277	9,398	0,052	-0,029
-526,262	-84,920	-0,079	-0,018
-525,248	464,203	0,039	0,064
-524,233	-200,000	-0,018	-0,137
-523,218	27,102	0,029	-0,018
-522,204	85,779	-0,138	0,110
-521,189	-200,000	-0,017	-0,054
-520,175	118,705	0,048	-0,043
-519,160	-200,000	0,012	-0,162
-518,145	264,639	0,070	-0,088
-517,131	-200,000	-0,001	0,092
-516,116	45,970	0,071	-0,048
-515,102	-47,085	-0,055	0,020
-514,087	-200,000	0,007	-0,104
-513,072	-24,732	-0,143	-0,062
-512,058	-200,000	-0,077	-0,000
-511,043	-200,000	-0,016	-0,093
-510,029	373,736	0,080	-0,118
-509,014	800,000	-0,069	-0,165
-507,999	800,000	0,014	0,041
-506,985	800,000	-0,022	-0,064
-505,970	-200,000	-0,003	-0,190
-504,956	3,908	-0,109	-0,058
-503,941	800,000	0,041	0,112
-502,926	31,467	0,024	0,015
-501,912	439,695	-0,040	0,064
-500,897	120,237	-0,088	0,080
-499,883	-200,000	-0,013	0,056
-498,868	800,000	-0,048	-0,105
-497,853	800,000	0,041	-0,098
-496,839	72,563	-0,045	0,034
-495,824	120,714	0,040	-0,037
-494,810	-57,443	-0,091	-0,029
-493,795	191,554	-0,059	-0,065
-492,781	277,855	0,038	0,049
-491,766	228,050	0,018	-0,022
-490,751	336,412	0,092	-0,130
-489,737	-142,488	-0,103	-0,007
-488,722	800,000	-0,012	0,038
-487,708	-45,365	0,049	-0,018
-486,693	-200,000	-0,009	0,121
-485,678	689,940	0,023	0,044
-484,664	800,000	-0,015	0,045
-483,649	-200,000	-0,010	-0,089
-482,635	-125,429	-0,080	0,009
-481,620	-104,734	-0,152	0,025
-480,605	-115,164	0,028	-0,004
-479,591	-102,474	0,063	0,011
-478,576	800,000	0,017	0,047
-477,562	-200,000	0,012	0,049
-476,547	-13,636	-0,091	-0,043
-475,532	22,119	-0,020	0,012
-474,518	651,547	0,033	-0,063
-473,503	-200,000	0,017	0,058
-472,489	575,399	0,105	0,187
-471,474	-200,000	0,038	0,156
-470,459	706,437	-0,035	-0,068
-469,445	-200,000	-0,012	-0,077
-468,430	495,406	-0,059	0,099
-467,416	34,161	-0,039	0,025
-466,401	-71,854	0,110	0,030
-465,386	800,000	0,030	0,091
-464,372	-85,544	0,057	-0,013
-463,357	-200,000	-0,013	0,053
-462,343	-200,000	-0,049	-0,184
-461,328	-69,824	0,108	-0,030
-460,313	-200,000	-0,008	0,180
-459,299	-200,000	0,019	-0,089
-458,284	179,057	0,090	-0,096
-457,270	557,746	0,016	0,029
-456,255	-200,000	0,045	-0,228
-455,241	800,000	0,016	-0,041
-454,226	800,000	0,031	-0,094
-453,211	59,724	-0,157	0,112
-452,197	-150,322	0,100	-0,006
-451,182	344,314	0,120	-0,171
-450,168	-91,547	-0,054	0,011
-449,153	-200,000	0,013	0,086
-448,138	462,254	-0,028	-0,045
-447,124	-10,575	-0,016	-0,008
-446,109	359,977	-0,082	0,119
-445,095	-200,000	0,045	0,217
-444,080	-200,000	-0,008	0,156
-443,065	-60,848	0,057	0,017
-442,051	67,517	-0,026	-0,019
-441,036	8,554	-0,080	0,043
-440,022	-155,703	-0,103	0,005
-439,007	-147,723	0,073	0,004
-437,992	-200,000	0,008	-0,033
-436,978	72,080	0,054	0,041
-435,963	-100,680	-0,161	-0,029
-434,949	800,000	0,024	0,066
-433,934	-167,585	-0,043	-0,001
-432,919	40,510	0,049	-0,032
-431,905	-200,000	0,002	0,058
-430,890	20,330	0,177	0,104
-429,876	-123,840	-0,074	0,008
-428,861	65,799	0,044	-0,033
-427,846	358,781	0,033	0,048
-426,832	-200,000	0,008	0,076
-425,817	9,446	0,027	0,015
-424,803	540,830	-0,035	-0,060
-423,788	68,142	-0,037	0,028
-422,773	289,987	0,062	0,082
-421,759	11,952	-0,129	0,072
-420,744	-200,000	-0,042	0,138
-419,730	-18,219	-0,029	0,013
-418,715	81,868	0,076	-0,060
-417,701	303,740	-0,030	-0,041
-416,686	-200,000	0,002	-0,119
-415,671	800,000	0,026	-0,053
-414,657	-88,842	0,035	-0,007
-413,642	800,000	-0,045	-0,102
-412,628	54,780	0,040	0,028
-411,613	-200,000	-0,008	0,065
-410,598	184,233	0,046	-0,050
-409,584	800,000	-0,020	0,054
-408,569	-97,366	-0,153	0,029
-407,555	140,063	0,142	0,136
-406,540	-91,008	0,085	0,018
-405,525	13,275	-0,095	-0,053
-404,511	-144,899	-0,044	-0,003
-403,496	-28,571	-0,125	-0,052
-402,482	-108,577	0,030	0,005
-401,467	447,210	0,021	-0,034
-400,452	800,000	0,021	-0,060
-399,438	-137,373	-0,173	0,014
-398,423	-200,000	0,000	-0,015
-397,409	-112,519	-0,094	-0,013
-396,394	605,518	-0,028	-0,050
-395,379	-141,685	0,152	-0,011
-394,365	466,658	0,014	-0,023
-393,350	-151,376	0,050	0,003
-392,336	-58,495	-0,046	-0,014
-391,321	-128,554	0,124	0,013
-390,306	-200,000	-0,001	0,074
-389,292	789,609	-0,049	-0,097
-388,277	-136,283	-0,030	-0,003
-387,263	306,486	0,040	0,054
-386,248	-200,000	0,014	0,081
-385,233	-40,769	0,108	-0,040
-384,219	125,315	-0,122	-0,112
-383,204	-48,066	-0,037	0,013
-382,190	345,117	0,053	-0,075
-381,175	108,819	-0,014	0,012
-380,160	70,655	0,108	-0,081
-379,146	8,805	0,103	-0,056
-378,131	53,258	0,082	0,057
-377,117	-200,000	-0,014	0,132
-376,102	-200,000	0,024	-0,103
-375,088	482,607	-0,044	0,072
-374,073	-63,966	-0,062	0,018
-373,058	800,000	-0,084	0,172
-372,044	-65,957	0,076	-0,022
-371,029	800,000	-0,026	0,054
-370,015	30,549	-0,129	-0,080
-369,000	800,000	-0,034	-0,104
-367,985	440,419	0,050	-0,079
-366,971	-200,000	0,009	-0,029
-365,956	163,958	0,029	-0,029
-364,942	-200,000	0,015	0,084
-363,927	161,558	0,061	0,062
-362,912	95,173	0,029	-0,024
-361,898	106,439	-0,066	-0,057
-360,883	55,069	-0,097	0,068
-359,869	344,255	0,023	0,033
-358,854	411,288	-0,080	0,123
-357,839	87,300	-0,065	-0,052
-356,825	800,000	0,028	0,077
-355,810	-38,869	0,169	-0,064
-354,796	346,810	-0,073	-0,105
-353,781	137,859	0,046	-0,043
-352,766	694,263	0,025	-0,048
-351,752	-200,000	0,050	-0,177
-350,737	800,000	-0,021	-0,067
-349,723	41,034	0,080	-0,052
-348,708	-58,836	-0,146	0,045
-347,693	423,875	-0,011	-0,017
-346,679	-161,054	0,101	0,004
-345,664	-107,633	0,171	0,027
-344,650	492,508	-0,035	-0,059
-343,635	388,444	-0,027	0,041
-342,620	344,460	0,109	0,156
-341,606	-62,123	0,089	0,027
-340,591	35,058	-0,119	-0,076
-339,577	-147,713	0,059	-0,004
-338,562	70,171	-0,071	0,053
-337,548	-200,000	-0,022	0,103
-336,533	-200,000	-0,010	0,077
-335,518	-200,000	0,040	0,152
-334,504	-106,645	-0,144	0,023
-333,489	-177,872	-0,080	-0,001
-332,475	-170,693	0,056	0,001
-331,460	-200,000	-0,025	-0,102
-330,445	-4,846	0,129	-0,064
-329,431	490,215	-0,095	0,158
-328,416	-61,265	0,080	0,024
-327,402	-200,000	-0,002	0,095
-326,387	101,453	-0,040	0,034
-325,372	365,339	0,028	0,041
-324,358	284,421	-0,034	0,045
-323,343	490,865	-0,035	-0,058
-322,329	-80,870	0,190	-0,045
-321,314	-200,000	-0,005	-0,022
-320,299	-70,776	0,094	0,026
-319,285	-200,000	0,013	0,046
-318,270	344,816	-0,018	-0,026
-317,256	140,350	-0,111	-0,106
-316,241	-200,000	-0,021	0,132
-315,226	239,328	0,041	-0,050
-314,212	52,796	-0,075	0,052
-313,197	-2,532	0,004	-0,002
-312,183	172,379	-0,118	-0,123
-311,168	-56,723	-0,154	-0,049
-310,153	269,262	-0,053	-0,067
-309,139	-200,000	-0,007	0,114
-308,124	-200,000	0,015	0,141
-307,110	-200,000	0,026	0,133
-306,095	631,729	-0,075	0,138
-305,080	-200,000	0,001	-0,062
-304,066	-38,612	0,043	0,016
-303,051	-200,000	-0,004	-0,035
-302,037	800,000	-0,051	-0,116
-301,022	520,286	-0,042	0,072
-300,008	800,000	0,027	0,061
-298,993	-200,000	0,008	0,035
-297,978	47,475	-0,052	-0,035
-296,964	-200,000	-0,012	0,069
-295,949	800,000	-0,011	-0,022
-294,935	-200,000	-0,005	0,063
-293,920	-117,845	0,057	0,007
-292,905	184,791	-0,018	-0,019
-291,891	-189,739	0,063	0,001
-290,876	400,475	0,024	0,036
-289,862	-127,594	0,048	-0,005
-288,847	207,665	0,027	-0,031
-287,832	566,936	-0,074	-0,130
-286,818	-200,000	0,013	-0,106
-285,803	125,743	0,071	0,065
-284,789	46,846	0,060	0,041
-283,774	-200,000	0,015	-0,112
-282,759	178,770	0,047	-0,049
-281,745	800,000	-0,012	-0,034
-280,730	800,000	-0,064	-0,146
-279,716	-94,522	0,173	0,034
-278,701	122,335	0,033	0,030
-277,686	-200,000	0,005	0,064
-276,672	149,002	-0,067	-0,065
-275,657	-53,226	0,056	-0,019
-274,643	-200,000	0,000	-0,116
-273,628	401,901	0,030	-0,045
-272,613	800,000	-0,035	-0,075
-271,599	-200,000	0,008	0,042
-270,584	800,000	-0,052	0,117
-269,570	-200,000	-0,014	0,082
-268,555	-92,412	0,020	0,004
-267,540	800,000	-0,038	0,088
-266,526	92,877	0,022	0,018
-265,511	-200,000	0,005	0,061
-264,497	28,491	-0,083	0,051
-263,482	111,590	0,084	-0,073
-262,467	-68,394	0,070	-0,019
-261,453	135,066	-0,087	0,082
-260,438	530,734	-0,018	0,032
-259,424	4,802	-0,113	-0,060
-258,409	40,661	0,136	0,089
-257,395	800,000	0,064	0,131
-256,380	318,014	-0,040	0,055
-255,365	-196,975	0,126	-0,001
-254,351	45,769	-0,022	0,014
-253,336	800,000	0,044	0,118
-252,322	-17,093	-0,041	0,019
-251,307	-58,977	0,081	-0,025
-250,292	-200,000	-0,012	-0,121
-249,278	153,455	0,108	0,107
-248,263	-17,676	-0,064	-0,029
-247,249	-200,000	-0,008	0,102
-246,234	-200,000	0,002	0,056
-245,219	109,046	-0,048	0,041
-244,205	8,619	-0,033	-0,018
-243,190	149,333	0,067	0,066
-242,176	43,623	0,042	-0,027
-241,161	205,746	0,083	0,093
-240,146	84,093	-0,212	-0,167
-239,132	23,898	0,147	0,087
-238,117	-200,000	-0,032	-0,111
-237,103	800,000	-0,033	-0,071
-236,088	-20,143	0,038	-0,017
-235,073	549,261	-0,025	0,043
-234,059	800,000	-0,057	0,135
-233,044	-200,000	0,026	0,168
-232,030	312,910	-0,102	0,138
-231,015	233,586	0,087	-0,104
-230,000	31,970	-0,022	-0,013
-228,986	-200,000	-0,042	-0,134
-227,971	147,796	-0,058	-0,057
-226,957	347,393	0,128	0,182
-225,942	800,000	-0,071	0,143
-224,927	-200,000	0,010	0,115
-223,913	-57,669	0,052	-0,016
-222,898	-200,000	-0,007	-0,134
-221,884	-200,000	0,011	-0,115
-220,869	246,258	0,015	0,019
-219,855	336,496	-0,026	0,036
-218,840	142,285	-0,025	-0,024
-217,825	101,853	-0,067	-0,056
-216,811	-200,000	-0,038	-0,120
-215,796	-200,000	0,004	0,074
-214,782	-145,013	-0,087	-0,006
-213,767	347,006	0,097	0,138
-212,752	83,982	0,095	0,075
-211,738	-200,000	-0,022	0,142
-210,723	660,584	0,053	0,099
-209,709	304,907	0,045	-0,061
-208,694	-60,706	0,091	0,028
-207,679	197,508	-0,042	0,046
-206,665	56,992	0,055	0,038
-205,650	383,663	-0,080	0,119
-204,636	800,000	-0,068	0,138
-203,621	324,609	-0,049	0,067
-202,606	320,915	0,058	0,080
-201,592	18,563	-0,100	0,058
-200,577	-160,978	-0,133	0,005
-199,563	344,380	-0,014	0,020
-198,548	675,510	-0,016	-0,029
-197,533	596,955	0,079	0,142
-196,519	-10,923	0,046	0,022
-195,504	94,113	-0,091	0,074
-194,490	800,000	-0,037	-0,075
-193,475	45,547	0,011	-0,008
-192,460	-200,000	0,003	0,042
-191,446	362,817	0,059	-0,086
-190,431	800,000	-0,009	-0,029
-189,417	93,013	0,016	-0,013
-188,402	58,962	0,128	-0,091
-187,387	-200,000	-0,033	-0,137
-186,373	-36,265	-0,023	-0,009
-185,358	184,000	0,108	-0,115
-184,344	19,556	0,085	0,049
-183,329	800,000	-0,034	0,078
-182,315	800,000	-0,029	0,072
-181,300	-200,000	0,002	0,048
-180,285	21,405	-0,025	-0,014
-179,271	-167,862	-0,068	0,002
-178,256	800,000	-0,047	-0,144
-177,242	385,876	0,066	-0,099
-176,227	4,751	0,095	-0,050
-175,212	13,995	0,039	0,022
-174,198	-200,000	-0,026	-0,087
-173,183	771,346	-0,040	-0,078
-172,169	-14,430	-0,133	0,061
-171,154	-46,963	-0,102	0,036
-170,139	-200,000	0,011	0,101
-169,125	-200,000	0,042	-0,159
-168,110	57,032	0,050	-0,035
-167,096	800,000	0,029	-0,092
-166,081	800,000	-0,021	-0,044
-165,066	-200,000	-0,025	-0,176
-164,052	6,068	0,082	-0,044
-163,037	-200,000	-0,003	0,079
-162,023	124,974	-0,016	-0,015
-161,008	-85,261	-0,099	0,022
-159,993	-200,000	-0,003	0,040
-158,979	573,962	0,060	0,106
-157,964	129,344	-0,053	-0,049
-156,950	28,652	-0,065	0,040
-155,935	-200,000	-0,028	-0,092
-154,920	-200,000	-0,039	-0,188
-153,906	-100,945	-0,049	-0,009
-152,891	-81,784	0,107	0,025
-151,877	800,000	0,024	0,071
-150,862	89,636	-0,109	-0,088
-149,847	800,000	0,013	-0,035
-148,833	-159,225	-0,056	-0,002
-147,818	-124,242	0,126	-0,014
-146,804	-97,757	0,044	0,008
-145,789	344,168	0,057	0,080
-144,775	163,131	-0,041	0,042
-143,760	-156,245	-0,082	0,004
-142,745	-98,797	-0,092	0,017
-141,731	-25,648	0,101	-0,043
-140,716	516,546	-0,026	-0,044
-139,702	385,564	-0,020	0,030
-138,687	-200,000	0,003	0,108
-137,672	-134,486	0,023	0,002
-136,658	741,175	-0,075	-0,146
-135,643	434,918	-0,094	-0,147
-134,629	266,255	0,028	0,035
-133,614	800,000	-0,022	0,060
-132,599	34,696	0,062	-0,039
-131,585	-37,808	-0,076	-0,029
-130,570	401,414	0,047	-0,071
-129,556	-200,000	0,013	0,050
-128,541	-65,284	0,128	-0,037
-127,526	800,000	-0,015	-0,033
-126,512	122,901	0,070	-0,063
-125,497	-155,203	0,132	-0,006
-124,483	-200,000	-0,017	0,068
-123,468	-104,853	-0,152	0,025
-122,453	-200,000	-0,028	-0,144
-121,439	-200,000	-0,021	-0,109
-120,424	45,913	0,052	-0,035
-119,410	-200,000	0,004	0,017
-118,395	570,469	0,011	-0,019
-117,380	800,000	-0,045	-0,100
-116,366	-36,380	0,050	-0,019
-115,351	800,000	-0,008	0,024
-114,337	-168,335	0,054	0,001
-113,322	-54,878	0,158	-0,051
-112,307	-182,996	-0,082	0,001
-111,293	47,383	-0,094	-0,063
-110,278	221,966	0,009	-0,010
-109,264	-25,331	0,067	-0,028
-108,249	-200,000	-0,016	-0,072
-107,234	-200,000	-0,008	-0,179
-106,220	-45,555	0,104	0,037
-105,205	733,669	-0,101	0,195
-104,191	-200,000	0,024	-0,078
-103,176	-64,958	-0,116	0,033
-102,162	-60,146	0,107	-0,033
-101,147	293,880	-0,130	0,171
-100,132	800,000	0,014	0,044
-99,118	90,054	-0,095	0,076
-98,103	800,000	-0,013	-0,032
-97,089	-12,157	0,040	-0,019
-96,074	-60,348	-0,049	0,015
-95,059	387,572	-0,085	-0,126
-94,045	52,912	-0,004	-0,003
-93,030	420,690	0,039	-0,060
-92,016	133,100	-0,079	-0,074
-91,001	300,373	-0,056	-0,074
-89,986	-169,625	0,049	-0,001
-88,972	-166,782	-0,079	-0,002
-87,957	800,000	-0,024	0,057
-86,943	800,000	-0,050	0,132
-85,928	99,237	-0,042	0,035
-84,913	157,182	0,050	-0,049
-83,899	-9,627	-0,126	-0,060
-82,884	7,750	0,092	0,049
-81,870	-56,011	0,189	0,060
-80,855	-200,000	0,001	0,010
-79,840	800,000	0,068	0,151
-78,826	442,452	-0,034	0,053
-77,811	-200,000	0,005	-0,243
-76,797	-48,684	0,111	-0,038
-75,782	-0,962	0,075	0,038
-74,767	-200,000	-0,006	0,159
-73,753	84,613	0,086	0,068
-72,738	155,111	0,024	0,024
-71,724	800,000	-0,015	0,045
-70,709	17,757	-0,023	0,013
-69,694	309,005	-0,053	-0,072
-68,680	-200,000	0,004	0,039
-67,665	46,786	-0,034	-0,023
-66,651	-6,754	-0,107	0,052
-65,636	-69,211	0,128	0,035
-64,622	-147,857	-0,058	0,003
-63,607	800,000	0,019	0,054
-62,592	9,078	0,090	-0,049
-61,578	-200,000	-0,015	-0,052
-60,563	587,126	-0,009	0,017
-59,549	122,339	-0,079	0,071
-58,534	27,742	-2,138	-1,287
-57,519	-200,000	-0,045	-0,729
-56,505	-200,000	-1,278	-5,046
-55,490	84,976	0,948	0,744
-54,476	800,000	5,278	11,995
-53,461	-200,000	18,299	298,905
-52,446	800,000	732,761	2244,783
-51,432	529,827	1646,125	2795,896
-50,417	107,350	1633,860	1391,487
-49,403	71,248	1284,708	953,511
-48,388	30,012	1025,413	624,854
-47,373	19,711	987,676	567,969
-46,359	17,654	975,172	554,035
-45,344	14,427	971,174	541,215
-44,330	14,688	969,758	541,256
-43,315	14,086	967,814	538,191
-42,300	14,091	966,816	537,631
-41,286	14,020	966,119	536,991
-40,271	14,005	965,241	536,433
-39,257	14,064	964,154	535,999
-38,242	14,071	963,426	535,595
-37,227	14,103	962,504	535,166
-36,213	14,038	961,649	534,458
-35,198	14,040	960,702	533,917
-34,184	14,097	960,088	533,740
-33,169	14,064	958,919	532,961
-32,154	14,128	958,052	532,664
-31,140	14,087	957,278	532,082
-30,125	14,082	956,585	531,658
-29,111	14,097	955,512	531,091
-28,096	14,087	954,963	530,730
-27,082	14,189	954,134	530,575
-26,067	14,127	953,447	529,977
-25,052	14,101	952,786	529,503
-24,038	14,025	952,251	528,940
-23,023	14,128	951,433	528,796
-22,009	14,171	950,857	528,593
-20,994	14,115	950,159	528,004
-19,979	14,098	949,673	527,658
-18,965	14,116	948,840	527,232
-17,950	14,127	948,227	526,906
-16,936	14,042	947,713	526,329
-15,921	14,043	947,044	525,938
-14,906	14,010	946,226	525,358
-13,892	13,995	945,686	524,992
-12,877	13,994	945,004	524,590
-11,863	13,947	944,393	524,079
-10,848	13,987	943,939	523,932
-9,833	14,046	943,513	523,864
-8,819	14,022	942,840	523,394
-7,804	14,018	942,235	523,022
-6,790	14,007	941,459	522,537
-5,775	14,002	941,008	522,251
-4,760	13,959	940,608	521,870
-3,746	13,971	939,735	521,406
-2,731	13,836	939,004	520,551
-1,717	13,789	938,430	520,064
-0,702	13,790	937,866	519,736
0,313	13,573	937,130	519,428
1,327	16,852	935,108	528,563
2,342	25,912	787,242	468,762
3,356	21,987	443,136	258,048
4,371	-7,090	295,868	143,201
5,386	-11,082	277,840	130,675
6,400	-12,266	271,960	126,797
7,415	-12,457	269,781	125,593
8,429	-12,486	268,099	124,773
9,444	-12,567	267,372	124,350
10,459	-12,527	266,755	124,088
11,473	-12,752	266,062	123,550
12,488	-12,828	265,481	123,200
13,502	-12,999	265,040	122,830
14,517	-12,749	264,636	122,857
15,531	-12,787	264,208	122,613
16,546	-12,846	263,800	122,360
17,561	-12,767	263,310	122,193
18,575	-12,723	263,034	122,093
19,590	-12,734	262,775	121,953
20,604	-12,579	262,455	121,932
21,619	-12,869	262,253	121,568
22,634	-12,684	261,627	121,432
23,648	-12,748	261,465	121,289
24,663	-12,843	261,353	121,141
25,677	-12,711	260,940	121,057
26,692	-12,724	260,638	120,894
27,707	-12,894	260,484	120,661
28,721	-12,768	260,240	120,649
29,736	-12,560	259,826	120,631
30,750	-12,749	259,579	120,338
31,765	-12,787	259,348	120,187
32,780	-12,657	259,052	120,153
33,794	-12,853	258,960	119,927
34,809	-12,994	258,699	119,671
35,823	-13,113	258,510	119,468
36,838	-12,686	257,999	119,597
37,853	-13,072	257,940	119,219
38,867	-12,773	257,513	119,273
39,882	-12,794	257,386	119,186
40,896	-12,917	257,354	119,052
41,911	-12,862	257,038	118,944
42,926	-12,739	256,566	118,822
43,940	-12,944	256,506	118,605
44,955	-13,056	256,240	118,374
45,969	-12,788	256,005	118,488
46,984	-13,119	255,852	118,118
47,999	-13,430	255,516	117,682
49,013	-13,302	255,214	117,643
50,028	-13,591	255,022	117,293
51,042	-13,604	254,774	117,157
52,057	-13,596	254,511	117,033
53,071	-13,601	254,374	116,955
54,086	-13,377	254,169	117,044
55,101	-13,241	254,088	117,114
56,115	-13,274	253,924	117,000
57,130	-12,733	253,704	117,356
58,144	-12,619	253,568	117,381
59,159	-12,681	253,257	117,172
60,174	-12,770	253,190	117,054
61,188	-12,580	252,787	117,021
62,203	-12,641	252,683	116,910
63,217	-12,832	252,587	116,691
64,232	-12,701	252,245	116,635
65,247	-12,651	251,978	116,545
66,261	-12,548	251,744	116,514
67,276	-12,675	251,586	116,322
68,290	-13,136	251,347	115,806
69,305	-13,174	251,103	115,652
70,320	-13,216	250,886	115,505
71,334	-12,898	250,724	115,692
72,349	-12,546	250,427	115,844
73,363	-12,716	250,521	115,732
74,378	-12,504	250,115	115,714
75,393	-12,814	249,858	115,322
76,407	-12,766	249,782	115,318
77,422	-12,787	249,562	115,188
78,436	-12,887	249,272	114,959
79,451	-12,749	249,119	114,995
80,466	-13,008	248,928	114,678
81,480	-13,030	248,705	114,546
82,495	-12,986	248,512	114,484
83,509	-12,869	248,341	114,494
84,524	-13,106	248,080	114,163
85,539	-13,007	247,830	114,121
86,553	-13,197	247,525	113,811
87,568	-12,962	247,506	113,990
88,582	-12,904	247,210	113,893
89,597	-12,962	247,119	113,791
90,611	-12,787	246,947	113,849
91,626	-12,919	246,968	113,737
92,641	-12,726	246,648	113,742
93,655	-12,807	246,338	113,521
94,670	-12,926	246,346	113,414
95,684	-12,780	246,006	113,370
96,699	-12,896	245,743	113,142
97,714	-12,973	245,563	112,985
98,728	-13,251	245,496	112,712
99,743	-13,289	245,214	112,542
100,757	-13,189	244,941	112,489
101,772	-13,000	244,774	112,559
102,787	-13,001	244,623	112,479
103,801	-12,907	244,420	112,454
104,816	-12,992	244,354	112,343
105,830	-12,691	244,219	112,519
106,845	-12,745	243,826	112,284
107,860	-12,794	243,695	112,173
108,874	-12,821	243,499	112,051
109,889	-12,844	243,296	111,929
110,903	-13,081	243,162	111,661
111,918	-12,758	242,955	111,822
112,933	-13,007	242,802	111,537
113,947	-12,789	242,575	111,602
114,962	-12,993	242,548	111,413
115,976	-12,797	242,295	111,447
116,991	-12,747	242,040	111,361
118,006	-12,968	241,861	111,087
119,020	-12,954	241,771	111,048
120,035	-12,856	241,743	111,105
121,049	-12,704	241,432	111,077
122,064	-12,693	241,259	110,996
123,079	-12,776	241,091	110,841
124,093	-12,794	240,873	110,717
125,108	-12,827	240,625	110,566
126,122	-13,267	240,343	110,068
127,137	-13,215	240,144	110,009
128,151	-13,119	240,100	110,058
129,166	-13,013	239,816	110,004
130,181	-12,961	239,611	109,942
131,195	-13,068	239,498	109,793
132,210	-13,032	239,206	109,679
133,224	-12,809	239,186	109,840
134,239	-12,821	239,053	109,759
135,254	-12,940	238,982	109,621
136,268	-12,885	238,642	109,500
137,283	-13,182	238,420	109,149
138,297	-13,371	238,173	108,873
139,312	-13,265	237,934	108,840
140,327	-13,061	237,892	108,975
141,341	-12,722	237,788	109,190
142,356	-12,688	237,557	109,102
143,370	-12,398	237,580	109,336
144,385	-12,671	237,365	109,008
145,400	-12,517	237,133	109,015
146,414	-12,573	236,937	108,870
147,429	-12,709	236,779	108,679
148,443	-12,583	236,622	108,698
149,458	-12,665	236,490	108,562
150,473	-12,707	236,298	108,431
151,487	-12,739	236,152	108,329
152,502	-12,666	235,952	108,285
153,516	-12,412	235,647	108,338
154,531	-12,617	235,483	108,090
155,546	-12,707	235,505	108,019
156,560	-12,550	235,245	108,015
157,575	-12,775	234,963	107,697
158,589	-12,715	234,898	107,706
159,604	-12,467	234,633	107,770
160,619	-12,560	234,561	107,655
161,633	-12,511	234,453	107,634
162,648	-12,458	234,367	107,627
163,662	-12,614	234,180	107,408
164,677	-12,587	234,114	107,389
165,692	-12,542	233,710	107,231
166,706	-12,540	233,829	107,277
167,721	-12,422	233,459	107,190
168,735	-12,481	233,596	107,197
169,750	-12,602	233,277	106,946
170,764	-12,483	233,058	106,930
171,779	-12,393	232,939	106,936
172,794	-12,537	232,783	106,742
173,808	-12,721	232,572	106,492
174,823	-13,130	232,291	106,033
175,837	-13,169	232,020	105,869
176,852	-12,845	232,137	106,167
177,867	-12,527	231,945	106,318
178,881	-12,840	231,902	106,044
179,896	-12,788	231,654	105,962
180,910	-12,305	231,438	106,230
181,925	-12,615	231,313	105,922
182,940	-12,430	231,187	105,999
183,954	-12,519	231,138	105,898
184,969	-12,531	231,061	105,844
185,983	-12,250	230,703	105,889
186,998	-12,354	230,477	105,695
188,013	-12,503	230,486	105,574
189,027	-12,679	230,497	105,433
190,042	-12,388	230,055	105,447
191,056	-12,334	229,809	105,366
192,071	-12,380	229,915	105,369
193,086	-12,392	229,674	105,240
194,100	-12,440	229,483	105,106
195,115	-12,729	229,021	104,663
196,129	-12,806	229,128	104,643
197,144	-7,426	230,930	109,632
198,159	-1,968	232,544	114,641
199,173	1,520	233,509	117,829
200,188	1,949	233,561	118,179
201,202	1,968	233,287	118,045
202,217	2,023	233,100	117,983
203,232	2,080	233,135	118,034
204,246	2,170	232,967	118,008
205,261	2,434	232,739	118,088
206,275	2,411	232,561	117,969
207,290	2,422	232,658	118,016
208,304	2,574	232,403	117,994
209,319	2,631	232,060	117,853
210,334	2,364	232,007	117,610
211,348	2,339	231,704	117,426
212,363	1,826	231,438	116,885
213,377	1,729	231,431	116,796
214,392	1,620	231,222	116,597
215,407	1,772	231,084	116,633
216,421	1,859	230,867	116,580
217,436	1,987	230,643	116,555
218,450	1,564	230,448	116,122
219,465	1,687	230,341	116,151
220,480	1,695	230,204	116,078
221,494	1,659	229,978	115,926
222,509	1,726	230,167	116,063
223,523	2,018	230,002	116,193
224,538	1,841	229,667	115,878
225,553	1,723	229,587	115,737
226,567	1,872	229,360	115,726
227,582	2,112	229,321	115,879
228,596	2,374	229,260	116,038
229,611	2,025	228,966	115,613
230,626	1,655	228,756	115,215
231,640	1,786	228,618	115,235
232,655	1,952	228,642	115,363
233,669	2,268	228,462	115,502
234,684	2,479	228,320	115,580
235,699	2,257	228,192	115,337
236,713	2,196	227,929	115,147
237,728	2,068	227,634	114,891
238,742	1,672	227,566	114,546
239,757	1,939	227,481	114,695
240,772	1,887	227,338	114,574
241,786	1,939	227,098	114,482
242,801	1,979	227,068	114,487
243,815	2,492	227,113	114,886
244,830	2,324	226,927	114,656
245,844	1,997	226,606	114,237
246,859	1,796	226,370	113,956
247,874	1,940	226,303	114,021
248,888	2,362	226,095	114,223
249,903	2,142	225,970	113,984
250,917	1,956	225,844	113,771
251,932	1,741	225,757	113,556
252,947	1,705	225,446	113,362
253,961	1,543	225,332	113,174
254,976	1,818	225,235	113,321
255,990	1,946	225,180	113,379
257,005	2,145	224,968	113,410
258,020	2,252	224,865	113,428
259,034	2,138	224,881	113,341
260,049	2,122	224,644	113,200
261,063	2,082	224,523	113,099
262,078	2,481	224,264	113,255
263,093	2,245	224,303	113,089
264,107	2,064	224,022	112,803
265,122	2,247	223,779	112,806
266,136	2,561	223,885	113,083
267,151	2,389	223,643	112,823
268,166	2,081	223,329	112,426
269,180	1,697	223,143	112,038
270,195	1,890	223,005	112,102
271,209	1,962	222,888	112,086
272,224	1,860	222,857	111,985
273,239	1,959	222,664	111,951
274,253	1,917	222,375	111,765
275,268	1,828	222,319	111,661
276,282	1,770	222,079	111,488
277,297	1,531	221,936	111,231
278,312	1,731	221,942	111,371
279,326	1,923	221,863	111,462
280,341	1,674	221,757	111,216
281,355	1,943	221,633	111,342
282,370	2,006	221,422	111,272
283,384	1,762	221,203	110,973
284,399	1,543	220,898	110,650
285,414	1,643	220,893	110,711
286,428	1,931	220,929	110,930
287,443	2,256	220,874	111,130
288,457	2,169	220,526	110,881
289,472	1,976	220,312	110,623
290,487	1,680	220,033	110,258
291,501	1,406	219,933	109,998
292,516	1,659	219,868	110,140
293,530	1,504	219,696	109,931
294,545	1,540	219,556	109,878
295,560	1,998	219,503	110,174
296,574	2,100	219,378	110,175
297,589	1,909	219,285	109,980
298,603	2,023	219,218	110,020
299,618	1,906	218,994	109,813
300,633	1,994	218,855	109,797
301,647	2,093	218,883	109,873
302,662	2,136	218,747	109,825
303,676	2,322	218,534	109,844
304,691	2,065	218,429	109,595
305,706	2,432	218,256	109,763
306,720	2,118	218,036	109,417
307,735	2,058	217,776	109,233
308,749	1,826	217,607	108,972
309,764	2,030	217,736	109,174
310,779	2,299	217,595	109,287
311,793	1,996	217,343	108,933
312,808	2,047	217,208	108,892
313,822	2,021	217,002	108,761
314,837	1,832	216,928	108,578
315,852	1,878	216,691	108,482
316,866	1,959	216,654	108,513
317,881	2,076	216,634	108,576
318,895	2,238	216,309	108,519
319,910	1,877	216,049	108,121
320,925	1,403	215,930	107,715
321,939	1,332	215,603	107,491
322,954	1,621	215,748	107,760
323,968	2,058	215,802	108,089
324,983	2,046	215,584	107,962
325,997	2,191	215,445	107,986
327,012	1,869	215,295	107,671
328,027	1,981	215,121	107,654
329,041	2,499	215,173	108,039
330,056	2,288	215,015	107,801
331,070	1,932	214,748	107,405
332,085	1,918	214,491	107,257
333,100	1,995	214,405	107,258
334,114	2,186	214,297	107,330
335,129	2,027	214,126	107,122
336,143	1,712	214,122	106,888
337,158	1,871	213,858	106,859
338,173	1,888	213,769	106,817
339,187	1,861	213,726	106,767
340,202	1,720	213,462	106,527
341,216	1,550	213,118	106,225
342,231	1,609	213,170	106,284
343,246	1,926	212,996	106,410
344,260	2,200	213,053	106,622
345,275	2,462	212,877	106,708
346,289	2,372	212,797	106,595
347,304	2,106	212,554	106,277
348,319	2,091	212,393	106,177
349,333	2,071	212,271	106,092
350,348	2,013	212,309	106,061
351,362	2,404	212,109	106,225
352,377	2,279	211,889	106,018
353,392	2,163	211,719	105,843
354,406	2,138	211,770	105,841
355,421	196,179	1316,486	1392,405
356,435	156,859	1451,042	1392,362
