DTS Sentinel unit serial number:	SN410029Multiplexer serial number:	ORYXHardware model number:	OX2-SRSoftware version number:	ORYX F/W v4,00 Oryx Data Collector v3.7.2.0data status	okinstallation	B6 Nyhavnadifferential loss correction	single-endedforward channel	channel 2reverse channel	N/Adate	2023/12/09time	06:00:08forward acquisition time	300,00reverse acquisition time	0,00gamma	499,1914k internal	0,3142k external	0,3142temperature offset calibration	1,0000default loss term (dB/km)	0,3820temperature slope calibration	1,0000multiplexer offset coefficient	1,0000multiplexer slope coefficient	1,0000fibre end	0,00T internal ref (°C)	18,25T ext. ref 1 (°C)	2,33T ext. ref 2 (°C)	2,36length (m)	temperature (°C)	Stokes	anti-Stokes-744,400	103,757	-0,030	-0,026
-743,385	-172,631	-0,143	0,003
-742,371	800,000	-0,047	0,146
-741,356	-87,869	-0,291	0,064
-740,342	58,292	0,091	0,066
-739,327	-162,317	-0,311	0,011
-738,312	83,452	-0,089	-0,072
-737,298	-92,835	-0,247	0,051
-736,283	251,601	0,062	-0,078
-735,269	50,515	-0,293	0,205
-734,254	800,000	0,011	-0,022
-733,239	-117,625	-0,593	-0,078
-732,225	-127,908	0,133	0,014
-731,210	300,175	0,094	0,129
-730,196	107,592	-0,024	0,021
-729,181	800,000	0,026	0,072
-728,167	-41,316	0,136	0,052
-727,152	5,357	0,014	-0,007
-726,137	-91,613	-0,232	-0,049
-725,123	192,757	-0,032	-0,036
-724,108	-83,148	-0,086	0,020
-723,094	163,905	-0,115	-0,120
-722,079	-200,000	-0,013	0,054
-721,064	27,296	-0,070	0,044
-720,050	494,238	0,061	-0,104
-719,035	800,000	0,031	-0,070
-718,021	-146,190	-0,070	0,004
-717,006	54,275	-0,086	-0,062
-715,991	-138,249	-0,114	-0,009
-714,977	-200,000	-0,041	-0,153
-713,962	47,788	-0,119	-0,082
-712,948	-109,285	0,120	0,019
-711,933	161,352	-0,073	-0,075
-710,918	1,134	-0,064	0,034
-709,904	800,000	-0,036	-0,107
-708,889	9,983	-0,087	-0,049
-707,875	709,543	0,027	0,054
-706,860	-200,000	0,004	-0,023
-705,845	800,000	0,009	0,029
-704,831	111,086	-0,089	-0,079
-703,816	769,289	-0,030	0,060
-702,802	100,029	-0,080	-0,069
-701,787	800,000	0,039	0,101
-700,772	-200,000	-0,014	0,124
-699,758	-200,000	0,001	-0,058
-698,743	-167,082	0,054	-0,002
-697,729	-120,384	0,022	-0,003
-696,714	800,000	0,020	0,065
-695,699	109,534	-0,125	-0,111
-694,685	800,000	0,014	-0,045
-693,670	-200,000	0,001	0,056
-692,656	15,171	0,149	0,086
-691,641	83,057	0,089	-0,072
-690,627	-43,433	-0,061	-0,023
-689,612	800,000	-0,034	0,108
-688,597	48,635	-0,134	0,093
-687,583	491,301	0,031	-0,053
-686,568	-200,000	0,047	-0,166
-685,554	73,738	-0,037	-0,028
-684,539	-53,229	0,055	-0,019
-683,524	-30,330	0,061	0,025
-682,510	-152,390	-0,037	-0,002
-681,495	73,083	-0,021	0,016
-680,481	-200,000	0,000	-0,015
-679,466	157,891	-0,065	-0,067
-678,451	371,650	0,145	-0,219
-677,437	-200,000	-0,011	-0,100
-676,422	12,839	0,106	0,061
-675,408	0,902	-0,115	-0,061
-674,393	800,000	-0,057	-0,163
-673,378	-200,000	0,041	-0,145
-672,364	643,790	-0,102	-0,192
-671,349	2,613	-0,043	-0,023
-670,335	-67,866	-0,094	0,027
-669,320	685,136	0,039	0,076
-668,305	340,283	-0,051	0,074
-667,291	800,000	-0,055	-0,114
-666,276	405,078	-0,013	-0,021
-665,262	109,827	-0,067	0,060
-664,247	204,010	0,028	-0,032
-663,232	16,280	0,073	-0,043
-662,218	-95,950	-0,072	-0,014
-661,203	-78,768	0,062	0,016
-660,189	192,912	-0,023	0,025
-659,174	500,766	-0,034	-0,059
-658,159	-44,035	0,086	-0,032
-657,145	800,000	-0,049	-0,126
-656,130	-11,084	-0,067	0,033
-655,116	-2,148	0,028	-0,014
-654,101	-200,000	0,041	0,145
-653,086	-90,932	-0,129	-0,027
-652,072	210,469	-0,056	-0,065
-651,057	524,919	0,011	-0,019
-650,043	800,000	-0,068	-0,165
-649,028	763,648	-0,059	-0,118
-648,014	697,961	0,090	0,176
-646,999	571,032	-0,049	0,088
-645,984	800,000	0,003	-0,008
-644,970	50,027	-0,095	0,066
-643,955	-7,278	-0,043	-0,022
-642,941	800,000	0,028	-0,058
-641,926	-140,926	0,073	0,005
-640,911	127,232	0,048	0,045
-639,897	323,686	0,147	0,207
-638,882	73,316	0,174	0,134
-637,868	15,495	0,067	0,039
-636,853	-27,778	-0,190	-0,081
-635,838	18,805	-0,110	-0,065
-634,824	800,000	0,049	-0,114
-633,809	-200,000	-0,047	-0,158
-632,795	800,000	0,031	0,090
-631,780	83,048	-0,009	-0,007
-630,765	203,960	0,021	0,024
-629,751	800,000	-0,046	-0,100
-628,736	82,339	-0,078	0,062
-627,722	11,943	-0,048	-0,027
-626,707	77,920	0,086	0,068
-625,692	286,099	-0,048	0,064
-624,678	800,000	0,026	0,065
-623,663	-132,147	0,142	0,013
-622,649	450,085	-0,043	-0,071
-621,634	-200,000	0,001	-0,044
-620,619	-40,540	0,133	0,050
-619,605	-200,000	-0,023	0,125
-618,590	-200,000	-0,037	0,159
-617,576	320,237	0,063	-0,088
-616,561	267,976	-0,007	0,009
-615,546	65,009	-0,093	-0,069
-614,532	-157,194	-0,156	-0,007
-613,517	104,748	0,091	0,079
-612,503	56,254	-0,133	-0,095
-611,488	-200,000	0,006	-0,204
-610,474	-123,231	0,019	-0,002
-609,459	13,337	-0,111	0,063
-608,444	-200,000	-0,007	0,046
-607,430	77,881	0,068	-0,053
-606,415	-141,520	0,054	-0,004
-605,401	-200,000	0,019	-0,173
-604,386	-25,491	0,020	-0,009
-603,371	160,488	0,056	0,057
-602,357	-22,712	-0,075	0,033
-601,342	99,190	-0,021	0,018
-600,328	728,024	0,070	-0,138
-599,313	-200,000	0,011	-0,090
-598,298	153,551	0,054	0,054
-597,284	-21,709	-0,083	0,037
-596,269	-200,000	-0,043	0,196
-595,255	-200,000	0,008	0,039
-594,240	84,759	-0,042	0,034
-593,225	270,493	0,030	0,039
-592,211	-150,896	-0,139	-0,008
-591,196	-106,850	-0,105	0,017
-590,182	-200,000	0,045	0,157
-589,167	206,823	0,026	-0,030
-588,152	-76,181	-0,190	-0,049
-587,138	-85,928	0,099	0,022
-586,123	63,983	-0,019	-0,014
-585,109	101,499	0,084	0,072
-584,094	800,000	-0,027	0,077
-583,079	46,642	0,075	0,051
-582,065	800,000	-0,016	-0,037
-581,050	-200,000	0,020	0,069
-580,036	-200,000	-0,002	0,016
-579,021	685,508	-0,013	0,025
-578,006	-200,000	0,008	-0,035
-576,992	-46,706	0,065	0,023
-575,977	-118,640	0,109	-0,014
-574,963	-200,000	0,025	0,094
-573,948	78,518	-0,104	0,082
-572,934	-200,000	-0,002	0,019
-571,919	800,000	-0,016	-0,034
-570,904	-200,000	0,050	-0,224
-569,890	-45,263	0,102	0,037
-568,875	539,472	-0,007	-0,012
-567,861	157,269	0,034	0,034
-566,846	-136,418	0,060	-0,005
-565,831	11,600	-0,072	-0,040
-564,817	800,000	0,007	0,018
-563,802	93,742	-0,073	-0,061
-562,788	133,296	-0,031	-0,029
-561,773	17,845	-0,023	-0,013
-560,758	285,720	0,014	0,018
-559,744	-49,265	-0,024	0,008
-558,729	-35,569	0,035	0,014
-557,715	21,981	-0,061	0,036
-556,700	-50,477	0,088	-0,031
-555,685	-200,000	0,003	-0,037
-554,671	230,244	-0,011	-0,013
-553,656	81,758	0,021	-0,017
-552,642	-200,000	0,000	0,082
-551,627	292,749	-0,028	0,038
-550,612	91,905	-0,063	0,052
-549,598	179,487	0,050	0,054
-548,583	800,000	-0,019	0,054
-547,569	-200,000	-0,029	-0,100
-546,554	800,000	-0,030	0,089
-545,539	-200,000	0,003	-0,010
-544,525	322,871	0,030	-0,043
-543,510	-200,000	0,017	-0,107
-542,496	800,000	0,077	-0,172
-541,481	-200,000	0,004	-0,110
-540,466	-87,005	0,131	-0,029
-539,452	471,909	0,015	0,025
-538,437	-34,408	0,134	0,054
-537,423	106,596	0,022	0,019
-536,408	-43,594	-0,112	-0,041
-535,393	22,108	-0,048	-0,028
-534,379	-81,004	-0,130	0,031
-533,364	221,632	-0,031	-0,036
-532,350	800,000	-0,036	-0,089
-531,335	173,436	0,133	-0,141
-530,321	-200,000	-0,012	0,080
-529,306	800,000	-0,031	-0,083
-528,291	-64,585	-0,102	-0,030
-527,277	-41,891	-0,116	-0,043
-526,262	41,909	0,107	-0,071
-525,248	-89,166	0,102	0,022
-524,233	800,000	-0,034	0,099
-523,218	294,314	0,039	-0,053
-522,204	38,066	-0,149	0,097
-521,189	277,657	-0,047	-0,062
-520,175	252,164	0,051	0,064
-519,160	42,833	-0,116	-0,078
-518,145	718,086	0,025	0,049
-517,131	363,448	-0,053	-0,079
-516,116	-200,000	-0,005	0,094
-515,102	-9,910	0,219	0,107
-514,087	-31,057	-0,054	-0,022
-513,072	-84,743	0,079	0,018
-512,058	800,000	-0,009	0,026
-511,043	-200,000	0,009	0,158
-510,029	-12,773	-0,075	0,036
-509,014	10,821	0,075	0,042
-507,999	103,924	-0,025	-0,022
-506,985	-200,000	-0,006	-0,078
-505,970	259,233	0,121	-0,153
-504,956	759,463	-0,034	-0,068
-503,941	306,198	0,003	0,004
-502,926	688,218	0,016	-0,031
-501,912	67,173	0,075	-0,056
-500,897	-61,611	-0,074	-0,023
-499,883	-39,277	-0,052	0,020
-498,868	583,444	0,014	-0,025
-497,853	120,673	0,024	-0,022
-496,839	-200,000	-0,016	0,077
-495,824	424,803	-0,025	0,040
-494,810	-163,841	0,114	-0,004
-493,795	521,219	-0,044	0,076
-492,781	-2,807	-0,118	0,060
-491,766	-200,000	-0,012	0,074
-490,751	640,892	-0,037	-0,069
-489,737	-34,831	0,044	0,017
-488,722	361,987	0,092	0,136
-487,708	-127,500	-0,066	-0,007
-486,693	-168,219	-0,072	0,002
-485,678	677,553	-0,029	-0,056
-484,664	595,736	-0,028	-0,052
-483,649	-200,000	-0,011	-0,175
-482,635	-200,000	-0,008	0,111
-481,620	-97,955	0,068	-0,013
-480,605	91,878	-0,031	0,026
-479,591	-200,000	-0,003	0,080
-478,576	700,261	0,044	0,084
-477,562	-26,940	-0,183	-0,078
-476,547	424,085	-0,091	0,145
-475,532	195,416	-0,049	-0,054
-474,518	323,206	0,078	0,109
-473,503	800,000	-0,050	-0,108
-472,489	308,484	-0,013	0,018
-471,474	-27,012	-0,104	0,044
-470,459	-200,000	-0,012	-0,045
-469,445	-200,000	-0,006	-0,127
-468,430	573,955	-0,026	-0,046
-467,416	800,000	0,022	-0,048
-466,401	-28,483	0,154	0,065
-465,386	-200,000	0,012	-0,081
-464,372	800,000	0,021	0,063
-463,357	-200,000	0,026	-0,086
-462,343	-112,872	-0,010	0,001
-461,328	-44,129	-0,076	-0,028
-460,313	249,104	-0,009	-0,012
-459,299	800,000	0,018	0,048
-458,284	13,491	0,158	0,090
-457,270	82,076	-0,057	0,045
-456,255	-75,458	-0,067	0,017
-455,241	-200,000	0,024	-0,161
-454,226	-92,076	-0,115	0,024
-453,211	-200,000	-0,029	0,101
-452,197	121,672	-0,038	0,034
-451,182	800,000	-0,048	-0,098
-450,168	-16,093	0,079	0,037
-449,153	224,688	-0,035	-0,041
-448,138	-60,789	-0,070	-0,022
-447,124	800,000	0,013	-0,028
-446,109	-200,000	-0,006	-0,043
-445,095	-200,000	0,000	0,040
-444,080	-167,553	-0,036	0,001
-443,065	-33,997	0,091	-0,037
-442,051	24,194	-0,037	0,023
-441,036	800,000	-0,026	-0,066
-440,022	-96,756	-0,081	-0,016
-439,007	157,415	-0,061	-0,062
-437,992	-74,486	0,123	-0,032
-436,978	-31,907	0,066	-0,027
-435,963	26,982	-0,138	0,084
-434,949	800,000	-0,022	-0,065
-433,934	-73,703	0,009	-0,002
-432,919	50,845	-0,032	0,022
-431,905	98,674	0,035	0,029
-430,890	-56,190	0,124	-0,040
-429,876	599,948	-0,038	0,069
-428,861	-200,000	0,014	0,135
-427,846	800,000	0,028	-0,066
-426,832	-200,000	-0,002	0,007
-425,817	-200,000	-0,032	-0,124
-424,803	-200,000	-0,022	-0,085
-423,788	83,796	0,181	0,144
-422,773	128,762	-0,021	-0,020
-421,759	-71,919	0,160	-0,043
-420,744	-93,830	-0,102	0,020
-419,730	176,153	-0,179	-0,190
-418,715	240,763	-0,063	-0,078
-417,701	53,072	-0,160	0,112
-416,686	-100,107	0,117	-0,021
-415,671	97,506	-0,163	-0,137
-414,657	-13,236	0,052	0,025
-413,642	-200,000	0,024	0,078
-412,628	365,214	0,092	-0,136
-411,613	800,000	-0,043	0,093
-410,598	425,755	-0,049	-0,077
-409,584	-200,000	0,001	0,019
-408,569	161,900	0,086	0,088
-407,555	170,071	0,046	-0,048
-406,540	271,983	-0,091	-0,117
-405,525	-200,000	0,022	0,152
-404,511	-54,066	-0,111	0,037
-403,496	568,648	0,051	-0,091
-402,482	48,489	0,139	0,095
-401,467	-200,000	-0,046	-0,152
-400,452	-200,000	0,027	0,113
-399,438	800,000	-0,012	-0,034
-398,423	635,961	0,011	-0,020
-397,409	-71,829	0,095	-0,026
-396,394	284,094	0,019	0,026
-395,379	360,498	-0,007	-0,011
-394,365	-200,000	0,033	0,142
-393,350	256,253	-0,060	0,075
-392,336	-2,107	0,080	0,041
-391,321	449,434	0,037	-0,060
-390,306	800,000	-0,053	-0,116
-389,292	-200,000	-0,026	-0,134
-388,277	-68,856	0,142	-0,040
-387,263	-104,370	-0,038	-0,006
-386,248	800,000	0,005	-0,012
-385,233	144,151	-0,141	0,137
-384,219	-41,834	0,072	0,027
-383,204	-22,921	0,038	-0,017
-382,190	320,035	0,045	-0,063
-381,175	414,154	-0,053	-0,082
-380,160	-200,000	-0,010	0,090
-379,146	120,755	0,067	0,061
-378,131	-200,000	-0,019	0,155
-377,117	112,986	-0,101	0,089
-376,102	425,837	-0,072	-0,114
-375,088	291,111	-0,011	0,014
-374,073	94,098	-0,076	0,063
-373,058	-200,000	-0,008	0,072
-372,044	800,000	0,068	0,139
-371,029	44,887	0,038	-0,025
-370,015	800,000	0,016	0,037
-369,000	23,082	-0,102	0,061
-367,985	-14,109	0,112	-0,053
-366,971	118,384	-0,030	-0,027
-365,956	550,135	0,051	-0,089
-364,942	-200,000	0,005	-0,131
-363,927	-200,000	-0,011	0,074
-362,912	800,000	-0,027	-0,060
-361,898	-47,049	-0,065	0,023
-360,883	-200,000	0,002	0,008
-359,869	-125,362	-0,083	-0,009
-358,854	15,706	-0,033	-0,019
-357,839	-200,000	0,002	-0,068
-356,825	-200,000	-0,010	-0,043
-355,810	108,753	-0,042	0,036
-354,796	353,078	0,021	-0,030
-353,781	264,132	-0,028	0,036
-352,766	800,000	-0,062	-0,142
-351,752	-200,000	0,010	-0,067
-350,737	800,000	0,046	0,093
-349,723	750,619	-0,044	-0,086
-348,708	193,805	0,058	-0,064
-347,693	643,559	-0,037	0,070
-346,679	86,549	-0,101	0,081
-345,664	-141,960	0,129	-0,009
-344,650	8,168	0,092	-0,050
-343,635	-200,000	-0,008	-0,091
-342,620	-69,468	-0,052	0,014
-341,606	800,000	0,017	0,045
-340,591	-200,000	0,004	-0,115
-339,577	40,657	-0,217	0,142
-338,562	331,862	-0,075	-0,106
-337,548	800,000	-0,062	0,133
-336,533	-189,788	0,046	0,000
-335,518	172,803	-0,100	0,105
-334,504	-200,000	-0,018	0,092
-333,489	510,487	-0,019	0,032
-332,475	-200,000	-0,038	0,185
-331,460	183,774	-0,070	-0,076
-330,445	-200,000	-0,004	-0,031
-329,431	333,398	-0,030	-0,042
-328,416	46,841	0,069	-0,046
-327,402	176,309	0,064	-0,068
-326,387	47,385	-0,056	-0,038
-325,372	10,484	-0,004	0,002
-324,358	-200,000	0,008	-0,065
-323,343	-72,680	0,072	-0,019
-322,329	142,445	-0,068	0,066
-321,314	-36,340	0,131	-0,051
-320,299	-200,000	-0,034	0,137
-319,285	-200,000	0,005	0,052
-318,270	-200,000	0,011	-0,051
-317,256	71,868	-0,030	-0,023
-316,241	294,881	-0,031	0,041
-315,226	800,000	0,025	0,068
-314,212	-128,688	0,088	0,009
-313,197	182,635	-0,029	0,031
-312,183	103,373	-0,004	0,004
-311,168	286,837	-0,102	0,135
-310,153	-200,000	-0,017	-0,124
-309,139	71,568	0,051	-0,039
-308,124	27,044	0,003	-0,002
-307,110	800,000	0,076	-0,177
-306,095	740,633	-0,036	-0,070
-305,080	-165,464	-0,018	0,001
-304,066	126,439	0,125	-0,115
-303,051	-92,554	0,069	-0,014
-302,037	432,412	0,021	-0,033
-301,022	-200,000	-0,021	-0,205
-300,008	162,953	0,046	-0,047
-298,993	800,000	-0,065	-0,193
-297,978	133,920	-0,103	0,097
-296,964	4,327	0,109	-0,058
-295,949	13,655	-0,039	0,022
-294,935	-84,742	-0,118	-0,027
-293,920	-69,088	0,023	-0,007
-292,905	-159,172	0,119	0,005
-291,891	800,000	-0,013	0,029
-290,876	-164,205	0,027	0,001
-289,862	148,494	-0,046	-0,045
-288,847	800,000	-0,021	-0,062
-287,832	-174,457	-0,045	0,001
-286,818	-53,723	0,085	-0,028
-285,803	800,000	-0,044	-0,132
-284,789	106,624	-0,071	0,062
-283,774	-113,407	0,088	-0,012
-282,759	800,000	0,019	-0,048
-281,745	-200,000	-0,001	0,017
-280,730	-200,000	0,014	-0,139
-279,716	71,309	0,036	-0,027
-278,701	-52,093	-0,079	-0,027
-277,686	-28,877	0,146	-0,061
-276,672	306,577	-0,032	0,043
-275,657	4,273	0,104	0,055
-274,643	-101,258	-0,088	-0,016
-273,628	414,751	-0,074	-0,115
-272,613	800,000	0,044	0,110
-271,599	272,151	0,021	-0,027
-270,584	-140,273	0,102	-0,008
-269,570	314,774	-0,060	-0,083
-268,555	-115,136	0,168	-0,023
-267,540	800,000	0,054	-0,121
-266,526	507,349	-0,054	0,092
-265,511	-71,424	0,084	-0,023
-264,497	800,000	-0,030	-0,062
-263,482	70,069	-0,117	0,088
-262,467	800,000	-0,015	-0,032
-261,453	0,538	0,112	-0,058
-260,438	-27,290	0,058	-0,024
-259,424	-200,000	-0,004	-0,019
-258,409	193,091	0,063	0,070
-257,395	11,464	0,059	-0,033
-256,380	-69,366	0,145	0,040
-255,365	800,000	0,004	-0,010
-254,351	-200,000	0,006	0,052
-253,336	-66,135	0,142	-0,041
-252,322	59,712	-0,134	0,096
-251,307	45,196	0,072	-0,048
-250,292	-200,000	-0,028	0,151
-249,278	800,000	0,019	0,055
-248,263	195,183	0,058	0,065
-247,249	136,018	0,076	0,072
-246,234	106,604	-0,050	0,043
-245,219	273,736	-0,019	0,025
-244,205	-200,000	-0,008	0,049
-243,190	46,280	0,046	0,031
-242,176	-200,000	-0,001	0,016
-241,161	166,606	0,076	0,079
-240,146	800,000	-0,051	-0,119
-239,132	-75,829	-0,048	-0,012
-238,117	800,000	-0,023	-0,049
-237,103	-161,325	0,124	-0,005
-236,088	-200,000	-0,002	-0,172
-235,073	23,676	-0,093	0,056
-234,059	-200,000	-0,020	0,104
-233,044	-19,420	-0,097	0,043
-232,030	-200,000	-0,011	0,041
-231,015	-200,000	0,002	0,022
-230,000	99,679	0,110	0,092
-228,986	134,978	0,048	-0,045
-227,971	-200,000	0,021	-0,151
-226,957	-200,000	-0,031	-0,106
-225,942	-200,000	0,007	0,166
-224,927	140,465	-0,011	0,010
-223,913	757,832	-0,032	0,063
-222,898	-200,000	0,010	-0,214
-221,884	15,486	-0,034	0,020
-220,869	-200,000	0,013	0,044
-219,855	-160,478	-0,139	0,005
-218,840	-200,000	-0,014	-0,054
-217,825	34,555	-0,057	0,036
-216,811	94,058	0,081	-0,067
-215,796	-200,000	-0,003	0,023
-214,782	293,320	0,050	0,066
-213,767	534,600	0,033	-0,057
-212,752	-97,469	0,034	0,006
-211,738	-200,000	0,003	0,139
-210,723	800,000	0,036	0,096
-209,709	19,627	-0,101	0,059
-208,694	74,220	-0,126	-0,096
-207,679	-200,000	0,013	0,090
-206,665	-142,289	0,073	0,005
-205,650	-200,000	0,003	0,130
-204,636	-36,541	-0,080	0,031
-203,621	-15,285	0,051	-0,024
-202,606	-72,744	-0,061	-0,016
-201,592	8,588	-0,078	0,043
-200,577	-200,000	0,008	-0,077
-199,563	-34,872	0,066	-0,026
-198,548	-86,006	0,064	0,014
-197,533	118,874	0,056	-0,050
-196,519	122,913	0,044	0,040
-195,504	-50,553	0,097	-0,033
-194,490	-200,000	-0,005	0,158
-193,475	-165,387	0,107	-0,003
-192,460	800,000	-0,044	0,090
-191,446	2,246	0,022	0,011
-190,431	609,275	0,059	-0,107
-189,417	800,000	-0,025	-0,072
-188,402	-103,306	0,060	0,010
-187,387	64,458	0,013	-0,009
-186,373	469,906	0,074	-0,121
-185,358	26,322	-0,081	-0,049
-184,344	-200,000	-0,005	-0,075
-183,329	403,413	0,060	0,091
-182,315	-112,712	0,027	0,004
-181,300	366,734	0,037	0,054
-180,285	535,792	0,014	-0,025
-179,271	-200,000	-0,018	0,063
-178,256	-200,000	0,002	0,050
-177,242	800,000	0,021	0,046
-176,227	379,597	0,090	0,135
-175,212	380,128	0,018	-0,027
-174,198	-81,854	-0,052	-0,012
-173,183	-200,000	-0,009	0,055
-172,169	-53,993	-0,062	0,020
-171,154	202,218	-0,100	-0,112
-170,139	-200,000	-0,031	-0,124
-169,125	466,878	0,025	0,041
-168,110	156,127	-0,078	0,078
-167,096	800,000	0,020	-0,062
-166,081	-200,000	0,016	0,062
-165,066	-21,646	-0,007	-0,003
-164,052	74,963	0,118	0,090
-163,037	-8,213	0,014	-0,007
-162,023	-108,988	0,096	0,015
-161,008	73,220	-0,015	0,011
-159,993	800,000	0,004	0,011
-158,979	-99,208	-0,203	-0,037
-157,964	-185,217	0,075	-0,001
-156,950	-13,333	-0,060	-0,028
-155,935	-200,000	-0,010	0,110
-154,920	800,000	-0,043	0,125
-153,906	44,324	0,125	0,083
-152,891	19,587	-0,104	0,061
-151,877	-200,000	0,004	0,110
-150,862	-98,223	0,044	-0,008
-149,847	201,471	0,054	-0,060
-148,833	67,973	-0,184	0,136
-147,818	-129,262	0,134	-0,013
-146,804	-126,928	-0,168	0,018
-145,789	-200,000	-0,022	0,134
-144,775	-185,161	-0,110	0,001
-143,760	0,789	-0,047	0,024
-142,745	800,000	-0,069	0,156
-141,731	523,584	0,030	-0,051
-140,716	-200,000	0,011	0,205
-139,702	734,497	-0,050	0,097
-138,687	498,425	0,028	-0,046
-137,672	-200,000	0,004	0,065
-136,658	-200,000	-0,025	-0,127
-135,643	288,935	-0,076	0,099
-134,629	227,811	0,123	0,145
-133,614	501,035	0,076	0,127
-132,599	-200,000	-0,018	0,093
-131,585	-57,940	0,080	-0,025
-130,570	136,956	0,038	0,036
-129,556	800,000	-0,010	0,026
-128,541	-168,794	-0,183	0,005
-127,526	55,035	0,075	0,053
-126,512	-1,713	0,044	-0,022
-125,497	291,791	-0,052	0,069
-124,483	800,000	-0,032	0,071
-123,468	-100,451	0,229	0,041
-122,453	-57,149	-0,041	0,013
-121,439	134,187	-0,043	-0,040
-120,424	800,000	0,031	-0,085
-119,410	-200,000	-0,050	0,168
-118,395	316,403	0,057	-0,077
-117,380	-200,000	-0,004	0,023
-116,366	-162,464	-0,021	-0,001
-115,351	800,000	-0,048	0,102
-114,337	366,403	-0,034	0,050
-113,322	12,036	0,087	0,048
-112,307	406,776	-0,096	0,146
-111,293	53,133	0,002	0,001
-110,278	-98,476	0,057	-0,010
-109,264	111,094	-0,023	-0,020
-108,249	-170,354	-0,071	0,002
-107,234	800,000	0,038	-0,102
-106,220	-200,000	0,004	0,116
-105,205	-200,000	-0,003	-0,092
-104,191	244,446	0,028	0,035
-103,176	9,404	0,148	0,081
-102,162	339,593	-0,066	0,093
-101,147	-200,000	0,028	-0,180
-100,132	800,000	-0,022	-0,060
-99,118	-34,464	0,062	-0,025
-98,103	55,607	0,061	0,042
-97,089	139,709	-0,025	0,024
-96,074	-200,000	0,035	-0,114
-95,059	84,486	0,096	0,076
-94,045	-105,214	-0,148	0,024
-93,030	253,435	-0,070	-0,086
-92,016	-200,000	-0,009	-0,056
-91,001	-64,231	0,143	0,042
-89,986	-92,778	-0,139	-0,028
-88,972	42,417	-0,113	0,074
-87,957	33,725	0,126	0,079
-86,943	39,047	0,068	0,044
-85,928	800,000	0,041	-0,109
-84,913	-2,328	-0,076	-0,038
-83,899	-37,516	0,040	-0,015
-82,884	91,901	-0,053	0,043
-81,870	169,206	0,099	0,103
-80,855	148,595	0,095	-0,092
-79,840	-87,297	0,122	0,027
-78,826	141,807	0,040	-0,039
-77,811	107,919	0,035	-0,030
-76,797	2,397	0,162	0,084
-75,782	-200,000	-0,016	0,133
-74,767	169,061	0,028	0,029
-73,753	-200,000	-0,025	0,095
-72,738	800,000	0,020	-0,055
-71,724	418,282	0,076	0,117
-70,709	3,370	-0,132	-0,069
-69,694	-60,622	-0,133	-0,040
-68,680	172,791	-0,037	0,039
-67,665	200,973	-0,060	-0,067
-66,651	-21,585	0,084	-0,037
-65,636	-200,000	0,016	0,123
-64,622	-200,000	0,047	-0,170
-63,607	-200,000	0,004	-0,089
-62,592	172,272	-0,076	-0,079
-61,578	445,310	-0,077	-0,122
-60,563	49,006	-0,021	-0,014
-59,549	-131,937	0,036	0,003
-58,534	-30,769	-1,812	-0,736
-57,519	800,000	-0,532	-1,205
-56,505	-200,000	-0,994	-4,684
-55,490	-113,952	0,580	0,080
-54,476	800,000	5,322	12,314
-53,461	-200,000	15,904	278,842
-52,446	-200,000	703,991	2244,471
-51,432	562,392	1619,915	2838,213
-50,417	122,575	1622,954	1463,742
-49,403	83,654	1284,108	1009,209
-48,388	36,999	1028,913	655,150
-47,373	21,448	991,010	579,596
-46,359	20,317	979,765	569,265
-45,344	18,535	975,485	560,898
-44,330	18,613	974,307	560,455
-43,315	18,372	972,471	558,584
-42,300	18,277	971,539	557,716
-41,286	18,306	970,606	557,252
-40,271	18,271	969,431	556,442
-39,257	18,299	968,602	556,036
-38,242	18,318	968,066	555,767
-37,227	18,287	967,255	555,179
-36,213	18,302	966,148	554,572
-35,198	18,269	965,304	553,956
-34,184	18,326	964,593	553,711
-33,169	18,249	963,826	553,000
-32,154	18,346	962,806	552,708
-31,140	18,387	961,898	552,297
-30,125	18,289	961,368	551,654
-29,111	18,362	960,461	551,347
-28,096	18,343	959,713	550,836
-27,082	18,255	959,159	550,212
-26,067	18,305	958,230	549,818
-25,052	18,282	957,597	549,357
-24,038	18,317	956,744	548,959
-23,023	18,254	956,052	548,336
-22,009	18,282	955,515	548,099
-20,994	18,267	954,929	547,692
-19,979	18,319	954,262	547,454
-18,965	18,266	953,690	546,935
-17,950	18,278	952,973	546,539
-16,936	18,199	952,471	545,977
-15,921	18,239	951,570	545,567
-14,906	18,226	950,802	545,065
-13,892	18,159	950,283	544,528
-12,877	18,073	949,717	543,909
-11,863	18,113	949,152	543,690
-10,848	18,114	948,586	543,349
-9,833	18,255	948,196	543,554
-8,819	18,278	947,210	543,041
-7,804	18,163	946,802	542,418
-6,790	18,161	946,292	542,100
-5,775	18,185	945,646	541,783
-4,760	18,227	945,080	541,572
-3,746	18,190	944,460	541,077
-2,731	18,041	943,661	540,122
-1,717	18,004	942,923	539,561
-0,702	17,978	942,212	539,050
0,313	17,723	941,640	538,728
1,327	20,918	940,024	547,875
2,342	30,053	796,916	488,799
3,356	27,224	449,773	271,604
4,371	-2,387	295,802	148,927
5,386	-6,430	277,118	135,663
6,400	-7,626	271,332	131,704
7,415	-7,903	268,866	130,239
8,429	-7,733	267,576	129,759
9,444	-8,123	266,840	129,033
10,459	-7,888	266,118	128,888
11,473	-8,207	265,657	128,362
12,488	-8,200	265,072	128,074
13,502	-8,512	264,479	127,492
14,517	-8,413	264,198	127,435
15,531	-8,417	263,759	127,209
16,546	-8,153	263,219	127,175
17,561	-8,319	262,870	126,845
18,575	-8,181	262,519	126,789
19,590	-8,280	262,171	126,521
20,604	-8,345	262,004	126,371
21,619	-8,331	261,434	126,097
22,634	-8,416	261,354	125,971
23,648	-8,309	260,908	125,840
24,663	-8,376	260,672	125,656
25,677	-8,401	260,563	125,569
26,692	-8,628	260,321	125,239
27,707	-8,307	259,913	125,318
28,721	-8,579	259,727	124,975
29,736	-8,432	259,424	124,948
30,750	-8,507	259,035	124,683
31,765	-8,590	258,944	124,555
32,780	-8,605	258,738	124,430
33,794	-8,411	258,343	124,402
34,809	-8,726	258,225	124,055
35,823	-8,419	257,905	124,162
36,838	-8,487	257,679	123,982
37,853	-8,671	257,481	123,713
38,867	-8,490	257,158	123,706
39,882	-8,486	256,830	123,541
40,896	-8,685	256,735	123,309
41,911	-8,507	256,470	123,327
42,926	-8,670	256,354	123,117
43,940	-8,531	256,049	123,082
44,955	-8,614	255,669	122,815
45,969	-8,783	255,601	122,624
46,984	-9,147	255,494	122,243
47,999	-9,272	255,087	121,928
49,013	-9,438	254,949	121,706
50,028	-9,260	254,501	121,637
51,042	-9,442	254,325	121,383
52,057	-9,477	253,969	121,172
53,071	-9,389	253,811	121,162
54,086	-9,293	253,749	121,205
55,101	-9,128	253,487	121,212
56,115	-9,088	253,468	121,228
57,130	-8,280	253,245	121,810
58,144	-8,343	253,198	121,723
59,159	-8,190	253,041	121,769
60,174	-8,265	252,817	121,586
61,188	-8,287	252,453	121,380
62,203	-8,365	252,293	121,225
63,217	-8,566	252,174	120,984
64,232	-8,321	251,922	121,063
65,247	-8,140	251,572	121,040
66,261	-8,390	251,588	120,822
67,276	-8,622	251,118	120,386
68,290	-8,889	250,959	120,069
69,305	-9,131	250,692	119,724
70,320	-8,852	250,594	119,905
71,334	-8,645	250,226	119,896
72,349	-8,374	250,255	120,130
73,363	-8,383	250,039	120,009
74,378	-8,107	249,962	120,197
75,393	-8,571	249,675	119,652
76,407	-8,500	249,488	119,613
77,422	-8,445	249,295	119,556
78,436	-8,568	249,143	119,367
79,451	-8,225	248,751	119,461
80,466	-8,434	248,529	119,166
81,480	-8,582	248,303	118,922
82,495	-8,702	248,105	118,714
83,509	-8,556	247,805	118,684
84,524	-8,767	247,785	118,485
85,539	-9,012	247,489	118,127
86,553	-8,915	247,342	118,128
87,568	-8,771	247,179	118,161
88,582	-8,682	247,030	118,154
89,597	-8,879	246,752	117,845
90,611	-8,795	246,777	117,917
91,626	-8,486	246,508	118,038
92,641	-8,333	246,321	118,066
93,655	-8,587	246,128	117,750
94,670	-8,642	245,825	117,548
95,684	-8,597	245,747	117,538
96,699	-8,807	245,579	117,271
97,714	-8,709	245,246	117,184
98,728	-8,914	245,077	116,921
99,743	-8,863	244,816	116,829
100,757	-8,722	244,680	116,871
101,772	-8,854	244,433	116,633
102,787	-8,923	244,523	116,607
103,801	-8,606	244,061	116,641
104,816	-8,639	244,113	116,628
105,830	-8,577	243,979	116,604
106,845	-8,462	243,933	116,668
107,860	-8,433	243,630	116,537
108,874	-8,549	243,356	116,299
109,889	-8,714	243,059	116,011
110,903	-8,543	242,951	116,090
111,918	-8,572	242,737	115,953
112,933	-8,525	242,645	115,938
113,947	-8,522	242,532	115,876
114,962	-8,497	242,369	115,808
115,976	-8,467	242,057	115,674
116,991	-8,409	241,947	115,659
118,006	-8,400	241,827	115,598
119,020	-8,565	241,754	115,418
120,035	-8,496	241,564	115,373
121,049	-8,361	241,321	115,357
122,064	-8,245	241,061	115,318
123,079	-8,483	240,863	115,019
124,093	-8,531	240,801	114,939
125,108	-8,867	240,358	114,443
126,122	-9,051	240,202	114,207
127,137	-9,237	240,104	113,998
128,151	-9,075	240,007	114,074
129,166	-8,864	239,755	114,117
130,181	-9,015	239,512	113,869
131,195	-9,122	239,300	113,670
132,210	-8,738	239,211	113,930
133,224	-8,618	239,205	114,015
134,239	-8,498	238,970	113,990
135,254	-8,599	238,798	113,816
136,268	-8,723	238,501	113,564
137,283	-9,064	238,231	113,149
138,297	-9,022	237,984	113,055
139,312	-9,035	237,795	112,945
140,327	-8,759	237,828	113,174
141,341	-8,118	237,753	113,646
142,356	-8,168	237,822	113,628
143,370	-8,092	237,506	113,528
144,385	-8,111	237,463	113,482
145,400	-8,071	237,164	113,361
146,414	-8,052	237,059	113,316
147,429	-8,143	236,827	113,122
148,443	-8,139	236,697	113,053
149,458	-8,086	236,473	112,979
150,473	-8,386	236,446	112,715
151,487	-8,287	236,051	112,597
152,502	-8,196	236,069	112,667
153,516	-8,160	235,946	112,628
154,531	-8,254	235,744	112,446
155,546	-8,169	235,514	112,394
156,560	-8,252	235,182	112,160
157,575	-8,268	234,998	112,049
158,589	-8,404	235,026	111,944
159,604	-8,074	234,798	112,088
160,619	-8,060	234,749	112,065
161,633	-7,926	234,569	112,076
162,648	-8,192	234,427	111,787
163,662	-8,070	234,260	111,795
164,677	-8,314	234,066	111,498
165,692	-8,184	234,002	111,561
166,706	-8,068	233,691	111,495
167,721	-7,887	233,534	111,553
168,735	-8,005	233,521	111,443
169,750	-8,089	233,379	111,299
170,764	-7,986	233,291	111,329
171,779	-7,933	233,035	111,238
172,794	-8,034	232,865	111,068
173,808	-8,196	232,461	110,738
174,823	-8,651	232,209	110,250
175,837	-8,932	232,215	110,021
176,852	-8,459	232,141	110,349
177,867	-8,337	232,034	110,384
178,881	-8,145	231,889	110,456
179,896	-8,075	231,724	110,423
180,910	-7,969	231,554	110,415
181,925	-8,175	231,479	110,208
182,940	-7,995	231,287	110,247
183,954	-7,689	231,040	110,359
184,969	-7,952	230,959	110,105
185,983	-7,909	230,991	110,144
186,998	-7,902	230,821	110,059
188,013	-7,873	230,683	110,005
189,027	-7,736	230,298	109,919
190,042	-7,964	230,064	109,620
191,056	-7,911	230,085	109,662
192,071	-7,871	229,905	109,597
193,086	-8,021	229,759	109,401
194,100	-7,829	229,699	109,512
195,115	-7,838	229,302	109,306
196,129	-8,171	229,382	109,076
197,144	-4,242	230,464	112,640
198,159	0,388	231,777	116,886
199,173	3,421	232,586	119,654
200,188	3,733	232,504	119,845
201,202	3,623	232,467	119,729
202,217	3,943	232,287	119,876
203,232	3,999	232,164	119,845
204,246	4,184	232,067	119,929
205,261	4,057	231,870	119,718
206,275	4,279	231,836	119,861
207,290	4,357	231,637	119,808
208,304	4,400	231,439	119,729
209,319	4,285	231,300	119,557
210,334	4,355	231,076	119,485
211,348	3,906	230,878	119,025
212,363	3,813	230,628	118,813
213,377	3,319	230,340	118,272
214,392	3,412	230,321	118,324
215,407	3,364	230,271	118,250
216,421	3,556	230,160	118,331
217,436	3,326	229,968	118,045
218,450	3,024	229,685	117,656
219,465	3,185	229,567	117,709
220,480	3,136	229,385	117,568
221,494	3,170	229,311	117,545
222,509	3,276	229,156	117,537
223,523	3,595	228,845	117,611
224,538	3,255	228,916	117,377
225,553	3,259	228,646	117,231
226,567	3,386	228,621	117,305
227,582	3,630	228,501	117,419
228,596	3,690	228,237	117,319
229,611	3,493	228,276	117,179
230,626	3,283	227,753	116,740
231,640	3,329	227,722	116,748
232,655	3,696	227,662	116,987
233,669	3,939	227,615	117,138
234,684	4,183	227,477	117,241
235,699	3,820	227,210	116,818
236,713	3,804	226,968	116,671
237,728	3,442	226,919	116,360
238,742	3,370	226,867	116,269
239,757	3,307	226,666	116,107
240,772	3,357	226,434	116,016
241,786	3,404	226,281	115,962
242,801	3,674	226,277	116,154
243,815	3,845	226,220	116,244
244,830	3,827	226,148	116,183
245,844	3,585	225,706	115,764
246,859	3,627	225,508	115,683
247,874	3,269	225,639	115,470
248,888	3,739	225,263	115,621
249,903	3,432	225,160	115,327
250,917	3,519	224,992	115,296
251,932	3,427	224,767	115,101
252,947	3,110	224,737	114,838
253,961	3,244	224,477	114,795
254,976	3,398	224,504	114,914
255,990	3,546	224,381	114,952
257,005	3,506	224,198	114,818
258,020	3,692	224,164	114,930
259,034	3,680	224,139	114,898
260,049	3,634	223,829	114,694
261,063	3,683	223,704	114,656
262,078	3,664	223,534	114,544
263,093	3,651	223,342	114,426
264,107	3,801	223,200	114,455
265,122	3,835	223,125	114,431
266,136	3,976	222,906	114,414
267,151	3,740	222,823	114,186
268,166	3,618	222,505	113,922
269,180	3,039	222,263	113,359
270,195	3,313	222,209	113,524
271,209	3,432	221,971	113,480
272,224	3,394	221,964	113,438
273,239	3,589	221,711	113,443
274,253	3,437	221,672	113,301
275,268	3,078	221,472	112,924
276,282	3,284	221,257	112,956
277,297	3,211	221,275	112,901
278,312	3,462	221,075	112,974
279,326	3,618	220,973	113,027
280,341	3,346	220,803	112,729
281,355	3,330	220,733	112,672
282,370	3,672	220,428	112,757
283,384	3,025	220,165	112,138
284,399	3,077	220,238	112,204
285,414	3,053	220,103	112,107
286,428	3,477	219,941	112,325
287,443	3,604	219,892	112,384
288,457	3,420	219,862	112,223
289,472	3,395	219,543	112,033
290,487	3,022	219,324	111,638
291,501	2,867	219,147	111,424
292,516	3,193	218,900	111,527
293,530	3,179	218,961	111,538
294,545	3,290	218,792	111,523
295,560	3,301	218,701	111,475
296,574	3,434	218,774	111,598
297,589	3,546	218,405	111,482
298,603	3,697	218,293	111,524
299,618	3,449	218,135	111,254
300,633	3,343	218,053	111,125
301,647	3,708	217,953	111,328
302,662	3,754	217,835	111,292
303,676	3,725	217,638	111,160
304,691	3,822	217,548	111,175
305,706	3,758	217,463	111,075
306,720	3,578	217,320	110,862
307,735	3,636	216,973	110,717
308,749	3,541	216,853	110,577
309,764	3,496	216,820	110,519
310,779	3,670	216,669	110,556
311,793	3,582	216,467	110,380
312,808	3,428	216,339	110,194
313,822	3,438	216,299	110,172
314,837	3,237	216,147	109,940
315,852	3,149	215,849	109,716
316,866	3,025	215,835	109,610
317,881	3,609	215,644	109,921
318,895	3,705	215,565	109,940
319,910	3,596	215,411	109,774
320,925	3,347	215,196	109,476
321,939	3,119	214,911	109,159
322,954	3,212	214,889	109,204
323,968	3,517	214,924	109,430
324,983	3,556	214,742	109,355
325,997	3,665	214,647	109,375
327,012	3,644	214,370	109,209
328,027	3,543	214,457	109,171
329,041	3,774	214,375	109,285
330,056	4,112	214,213	109,432
331,070	3,509	213,924	108,847
332,085	2,995	213,697	108,357
333,100	3,352	213,642	108,573
334,114	3,564	213,561	108,672
335,129	3,611	213,311	108,568
336,143	3,351	213,246	108,342
337,158	3,109	213,155	108,115
338,173	3,483	212,909	108,244
339,187	3,262	212,707	107,976
340,202	3,153	212,555	107,813
341,216	3,208	212,343	107,735
342,231	3,241	212,370	107,761
343,246	3,214	212,198	107,646
344,260	3,070	212,135	107,503
345,275	3,235	212,074	107,578
346,289	3,643	211,933	107,784
347,304	3,521	211,800	107,621
348,319	3,356	211,739	107,464
349,333	3,368	211,456	107,320
350,348	3,501	211,359	107,354
351,362	3,687	211,309	107,449
352,377	3,593	211,040	107,237
353,392	3,383	210,896	107,008
354,406	3,289	210,912	106,941
355,421	194,374	1343,681	1425,061
356,435	155,190	1481,716	1425,097
