DTS Sentinel unit serial number:	SN410029Multiplexer serial number:	ORYXHardware model number:	OX2-SRSoftware version number:	ORYX F/W v4,00 Oryx Data Collector v3.7.2.0data status	okinstallation	B6 Nyhavnadifferential loss correction	single-endedforward channel	channel 2reverse channel	N/Adate	2023/12/10time	09:05:08forward acquisition time	300,00reverse acquisition time	0,00gamma	499,1914k internal	0,3123k external	0,3123temperature offset calibration	1,0000default loss term (dB/km)	0,3820temperature slope calibration	1,0000multiplexer offset coefficient	1,0000multiplexer slope coefficient	1,0000fibre end	0,00T internal ref (°C)	22,56T ext. ref 1 (°C)	6,30T ext. ref 2 (°C)	6,29length (m)	temperature (°C)	Stokes	anti-Stokes-744,400	77,798	0,094	-0,075
-743,385	-28,700	-0,099	0,042
-742,371	-200,000	0,019	-0,066
-741,356	230,898	-0,104	0,128
-740,342	50,598	-0,027	0,019
-739,327	91,479	-0,140	0,117
-738,312	50,585	-0,072	0,051
-737,298	33,273	-0,160	0,103
-736,283	-32,242	-0,044	-0,018
-735,269	170,067	-0,213	0,227
-734,254	800,000	0,046	-0,110
-733,239	12,165	-0,290	-0,166
-732,225	114,242	0,097	0,088
-731,210	-77,145	0,052	0,013
-730,196	-191,144	-0,184	-0,001
-729,181	46,911	-0,076	-0,052
-728,167	-75,652	-0,039	0,010
-727,152	-4,486	-0,122	-0,063
-726,137	-107,703	-0,204	-0,033
-725,123	-200,000	-0,028	0,101
-724,108	47,131	-0,113	-0,078
-723,094	129,510	0,115	-0,109
-722,079	-13,711	-0,088	-0,042
-721,064	429,388	0,062	-0,099
-720,050	275,795	-0,009	0,012
-719,035	-200,000	-0,002	0,040
-718,021	20,619	-0,099	-0,059
-717,006	-196,793	-0,110	-0,001
-715,991	-140,932	-0,124	0,009
-714,977	-38,326	-0,099	-0,039
-713,962	-200,000	0,010	-0,069
-712,948	-8,520	0,091	0,045
-711,933	-75,234	-0,140	-0,037
-710,918	264,496	-0,060	-0,078
-709,904	241,280	-0,099	-0,124
-708,889	415,700	-0,035	-0,055
-707,875	74,535	-0,054	0,042
-706,860	36,027	-0,031	0,020
-705,845	800,000	0,008	0,026
-704,831	-84,164	-0,123	-0,029
-703,816	800,000	-0,041	-0,121
-702,802	-200,000	-0,010	-0,205
-701,787	75,258	-0,138	-0,108
-700,772	139,492	0,120	-0,117
-699,758	-200,000	0,013	0,106
-698,743	-200,000	-0,015	-0,059
-697,729	33,959	0,046	-0,030
-696,714	166,117	-0,038	0,040
-695,699	193,858	-0,132	-0,149
-694,685	-200,000	0,045	-0,256
-693,670	25,488	-0,145	-0,090
-692,656	-69,800	-0,087	-0,024
-691,641	-200,000	0,002	-0,116
-690,627	478,245	0,029	0,049
-689,612	-83,275	-0,090	0,021
-688,597	-200,000	0,024	-0,155
-687,583	277,429	0,022	0,029
-686,568	49,562	-0,139	-0,097
-685,554	80,967	-0,047	0,037
-684,539	-200,000	0,023	-0,077
-683,524	-12,266	0,030	0,015
-682,510	178,499	0,136	-0,148
-681,495	-122,486	0,053	-0,006
-680,481	52,977	-0,109	-0,078
-679,466	139,701	0,048	0,047
-678,451	18,993	0,067	0,040
-677,437	-133,382	-0,043	-0,004
-676,422	-200,000	-0,002	0,061
-675,408	-170,584	-0,037	-0,001
-674,393	800,000	0,008	-0,027
-673,378	-165,484	-0,108	-0,003
-672,364	-45,173	-0,102	-0,037
-671,349	-113,316	-0,050	0,007
-670,335	540,055	-0,044	-0,078
-669,320	-200,000	0,038	0,186
-668,305	161,821	0,084	0,087
-667,291	264,777	-0,092	0,120
-666,276	800,000	-0,036	-0,083
-665,262	-131,461	-0,115	0,011
-664,247	-200,000	0,033	-0,120
-663,232	800,000	0,015	-0,035
-662,218	168,687	0,060	0,063
-661,203	768,791	0,041	-0,084
-660,189	101,583	0,035	0,030
-659,174	409,591	-0,069	0,109
-658,159	390,613	-0,028	-0,044
-657,145	-200,000	0,000	-0,031
-656,130	289,760	0,050	0,067
-655,116	281,616	-0,057	0,076
-654,101	38,009	0,105	-0,069
-653,086	-155,023	-0,172	0,008
-652,072	71,649	-0,042	0,033
-651,057	-200,000	0,002	-0,056
-650,043	-200,000	0,010	-0,033
-649,028	16,634	0,083	-0,049
-648,014	707,961	0,010	0,019
-646,999	-200,000	0,007	0,069
-645,984	62,633	0,117	0,087
-644,970	-120,814	-0,114	0,014
-643,955	-109,285	-0,095	-0,015
-642,941	167,449	-0,037	-0,039
-641,926	-200,000	0,009	-0,064
-640,911	84,398	-0,051	0,042
-639,897	-200,000	0,001	0,085
-638,882	-200,000	0,004	0,055
-637,868	650,076	-0,031	0,059
-636,853	-200,000	-0,039	-0,131
-635,838	-200,000	-0,030	-0,107
-634,824	-189,452	-0,145	0,001
-633,809	-154,872	0,108	0,005
-632,795	-108,425	-0,078	-0,012
-631,780	-1,485	0,016	0,008
-630,765	82,834	0,119	0,096
-629,751	-190,693	-0,100	0,001
-628,736	800,000	0,029	-0,070
-627,722	-200,000	0,012	-0,059
-626,707	-200,000	-0,005	-0,040
-625,692	-70,540	-0,043	0,012
-624,678	-200,000	0,007	-0,027
-623,663	-97,110	-0,068	0,013
-622,649	-56,608	-0,216	-0,070
-621,634	31,010	0,067	0,042
-620,619	-87,186	-0,138	0,031
-619,605	800,000	-0,049	-0,132
-618,590	-200,000	0,009	0,045
-617,576	-48,919	0,058	0,021
-616,561	21,832	-0,111	-0,067
-615,546	800,000	-0,062	-0,146
-614,532	800,000	0,015	-0,037
-613,517	17,817	-0,026	-0,015
-612,503	-134,355	-0,083	0,007
-611,488	-66,606	0,163	0,048
-610,474	800,000	0,093	0,216
-609,459	176,313	0,028	0,030
-608,444	647,572	-0,049	0,092
-607,430	-200,000	-0,006	0,128
-606,415	-200,000	-0,004	0,053
-605,401	-113,888	0,036	-0,005
-604,386	70,852	-0,104	-0,080
-603,371	-200,000	-0,001	-0,016
-602,357	-33,912	-0,096	0,039
-601,342	35,396	0,040	0,026
-600,328	29,908	0,021	-0,013
-599,313	-200,000	-0,010	-0,239
-598,298	-151,439	0,086	0,005
-597,284	-200,000	0,006	-0,070
-596,269	252,395	0,027	-0,034
-595,255	250,142	-0,043	0,054
-594,240	-34,423	0,055	-0,022
-593,225	-48,702	-0,118	-0,042
-592,211	78,722	0,063	0,050
-591,196	-157,693	-0,115	0,005
-590,182	81,204	0,063	0,050
-589,167	288,566	0,075	0,101
-588,152	800,000	-0,029	0,075
-587,138	-200,000	0,007	0,103
-586,123	-1,175	0,084	-0,044
-585,109	-1,169	-0,062	0,032
-584,094	-157,626	0,125	0,005
-583,079	17,918	0,015	0,009
-582,065	-200,000	-0,010	0,097
-581,050	-76,931	-0,083	-0,021
-580,036	-54,856	0,071	-0,024
-579,021	14,655	-0,044	-0,025
-578,006	-114,962	-0,161	0,022
-576,992	195,989	-0,075	0,084
-575,977	-17,867	0,048	-0,022
-574,963	38,091	0,085	0,056
-573,948	18,220	0,115	0,068
-572,934	116,145	0,094	0,085
-571,919	351,700	-0,051	0,075
-570,904	358,968	-0,014	0,021
-569,890	-200,000	0,002	-0,120
-568,875	-200,000	-0,024	-0,086
-567,861	-128,023	0,166	0,017
-566,846	-200,000	-0,005	-0,032
-565,831	800,000	0,058	-0,154
-564,817	800,000	-0,087	-0,201
-563,802	486,879	-0,024	0,041
-562,788	24,902	0,133	-0,081
-561,773	-92,150	-0,050	-0,010
-560,758	-66,928	-0,081	-0,024
-559,744	102,759	-0,115	0,099
-558,729	-144,971	0,080	0,005
-557,715	266,222	0,088	-0,114
-556,700	363,776	0,090	-0,134
-555,685	150,377	-0,111	0,112
-554,671	45,879	0,075	0,051
-553,656	-200,000	-0,002	-0,037
-552,642	146,278	0,012	0,012
-551,627	-65,316	0,167	0,049
-550,612	-82,177	-0,075	-0,018
-549,598	-4,629	-0,089	0,045
-548,583	-133,943	-0,093	-0,008
-547,569	171,314	-0,052	-0,055
-546,554	376,010	0,046	0,069
-545,539	-152,156	0,059	-0,003
-544,525	518,558	-0,022	0,039
-543,510	491,129	0,080	-0,135
-542,496	-29,756	0,039	0,016
-541,481	103,729	0,071	0,061
-540,466	-139,818	-0,049	-0,004
-539,452	-200,000	0,015	0,054
-538,437	-119,353	0,122	0,015
-537,423	800,000	0,037	0,081
-536,408	-114,585	-0,052	0,007
-535,393	0,622	-0,083	-0,044
-534,379	-200,000	-0,029	-0,129
-533,364	800,000	-0,043	0,095
-532,350	109,334	0,059	0,052
-531,335	442,558	0,056	-0,090
-530,321	-58,819	0,120	-0,038
-529,306	-58,282	-0,086	-0,028
-528,291	-136,280	0,046	0,004
-527,277	-3,742	-0,170	0,087
-526,262	800,000	-0,041	0,121
-525,248	-20,565	0,030	0,014
-524,233	127,123	0,111	-0,104
-523,218	-64,163	0,053	0,016
-522,204	800,000	0,029	0,073
-521,189	-200,000	0,001	-0,025
-520,175	800,000	-0,081	-0,184
-519,160	-46,454	0,093	0,033
-518,145	-200,000	-0,014	0,054
-517,131	-108,303	-0,067	-0,011
-516,116	-76,737	0,097	0,025
-515,102	800,000	0,033	-0,100
-514,087	29,393	-0,147	0,092
-513,072	-101,379	-0,145	-0,026
-512,058	603,343	0,048	0,088
-511,043	675,207	0,066	-0,127
-510,029	-200,000	0,023	0,126
-509,014	-155,655	0,101	-0,005
-507,999	79,303	-0,024	0,019
-506,985	279,262	0,033	0,043
-505,970	-141,807	-0,125	0,009
-504,956	-59,915	0,054	0,017
-503,941	800,000	-0,043	0,099
-502,926	28,844	0,061	0,038
-501,912	33,894	0,121	0,077
-500,897	-200,000	-0,026	0,110
-499,883	-32,405	-0,093	-0,038
-498,868	-116,037	-0,066	-0,009
-497,853	-142,030	0,072	0,005
-496,839	430,355	0,029	-0,047
-495,824	93,926	0,084	-0,070
-494,810	-82,620	0,053	0,013
-493,795	-80,924	0,099	0,024
-492,781	254,693	0,024	0,030
-491,766	-119,897	0,059	-0,007
-490,751	-200,000	-0,008	0,069
-489,737	-200,000	0,001	0,064
-488,722	-43,491	0,124	-0,046
-487,708	-200,000	-0,008	-0,036
-486,693	598,497	0,067	0,124
-485,678	-200,000	0,007	0,056
-484,664	-3,947	0,082	0,042
-483,649	-48,066	-0,117	-0,042
-482,635	1,719	-0,108	-0,057
-481,620	-52,756	0,077	0,026
-480,605	-200,000	-0,003	0,143
-479,591	102,338	-0,050	-0,043
-478,576	-200,000	0,007	-0,127
-477,562	45,380	-0,059	-0,040
-476,547	72,718	0,132	-0,102
-475,532	-30,323	0,074	-0,031
-474,518	349,295	0,048	-0,071
-473,503	-200,000	0,001	-0,028
-472,489	79,560	0,077	-0,061
-471,474	-41,861	-0,074	0,028
-470,459	-127,987	-0,032	-0,003
-469,445	151,572	0,081	-0,082
-468,430	85,874	0,080	-0,065
-467,416	-200,000	-0,006	0,073
-466,401	-123,229	0,187	-0,022
-465,386	-27,005	0,077	0,033
-464,372	-110,721	-0,072	0,011
-463,357	-200,000	-0,005	0,167
-462,343	-200,000	-0,026	-0,251
-461,328	99,143	-0,056	-0,048
-460,313	196,415	-0,050	0,056
-459,299	314,074	0,095	-0,132
-458,284	-200,000	-0,025	0,149
-457,270	154,488	-0,017	0,017
-456,255	-149,913	-0,043	-0,002
-455,241	-4,786	-0,058	0,030
-454,226	-153,944	0,120	-0,006
-453,211	-91,349	-0,121	-0,025
-452,197	7,155	0,181	0,099
-451,182	-147,365	-0,084	-0,005
-450,168	69,625	-0,111	0,084
-449,153	115,815	0,058	0,052
-448,138	-64,461	-0,062	-0,018
-447,124	-200,000	-0,007	-0,037
-446,109	-200,000	-0,025	0,115
-445,095	-200,000	0,004	0,070
-444,080	800,000	0,032	0,082
-443,065	-116,351	-0,077	-0,010
-442,051	-200,000	0,010	0,100
-441,036	10,993	-0,010	-0,006
-440,022	-200,000	-0,035	-0,122
-439,007	-200,000	0,008	-0,034
-437,992	-200,000	0,011	-0,153
-436,978	182,929	-0,089	-0,097
-435,963	447,489	-0,021	-0,035
-434,949	767,356	0,043	-0,088
-433,934	-200,000	-0,006	0,033
-432,919	286,591	-0,016	0,021
-431,905	-200,000	-0,038	-0,160
-430,890	-200,000	-0,001	-0,071
-429,876	13,672	0,094	0,053
-428,861	-119,319	0,098	0,012
-427,846	-200,000	0,023	-0,134
-426,832	-5,699	0,055	-0,028
-425,817	-200,000	0,006	-0,054
-424,803	764,293	-0,042	-0,084
-423,788	800,000	-0,040	-0,086
-422,773	191,357	0,016	-0,017
-421,759	800,000	0,031	-0,065
-420,744	121,457	0,047	0,043
-419,730	-200,000	0,009	-0,092
-418,715	-190,929	0,084	-0,001
-417,701	-200,000	0,003	-0,025
-416,686	-56,967	-0,037	0,012
-415,671	-24,607	0,095	0,041
-414,657	13,565	0,086	-0,049
-413,642	24,419	-0,089	0,054
-412,628	273,804	-0,119	-0,156
-411,613	-200,000	-0,012	-0,044
-410,598	-52,795	-0,058	0,020
-409,584	442,140	-0,030	0,049
-408,569	-200,000	0,027	0,231
-407,555	-173,241	0,087	-0,002
-406,540	52,339	0,086	-0,060
-405,525	480,645	0,041	0,069
-404,511	-130,167	-0,016	-0,002
-403,496	765,911	-0,026	-0,053
-402,482	800,000	-0,061	-0,130
-401,467	-156,963	0,082	-0,004
-400,452	75,796	0,090	0,070
-399,438	-88,584	0,087	-0,019
-398,423	-200,000	0,005	-0,101
-397,409	11,440	0,021	0,012
-396,394	222,650	-0,091	0,108
-395,379	800,000	0,007	-0,017
-394,365	16,892	0,122	-0,071
-393,350	-126,853	-0,045	0,005
-392,336	257,446	0,051	-0,064
-391,321	-200,000	-0,024	0,081
-390,306	132,737	-0,151	-0,143
-389,292	629,362	-0,053	0,099
-388,277	-97,121	0,069	-0,013
-387,263	254,213	-0,045	-0,057
-386,248	335,659	-0,092	0,132
-385,233	-200,000	0,013	0,055
-384,219	502,936	-0,055	0,093
-383,204	67,632	0,037	-0,027
-382,190	323,452	-0,029	0,041
-381,175	-200,000	0,013	-0,048
-380,160	-200,000	0,035	0,192
-379,146	418,072	-0,049	0,078
-378,131	-200,000	0,002	0,078
-377,117	-119,842	0,024	0,003
-376,102	-145,395	-0,166	0,011
-375,088	-200,000	0,005	0,144
-374,073	-0,483	-0,064	-0,033
-373,058	-31,738	0,063	0,026
-372,044	-200,000	0,008	0,073
-371,029	292,093	-0,023	-0,031
-370,015	139,670	-0,035	-0,034
-369,000	95,515	-0,065	0,054
-367,985	10,410	-0,067	0,038
-366,971	785,036	-0,026	0,053
-365,956	-61,954	0,008	0,002
-364,942	9,748	0,059	0,033
-363,927	800,000	0,019	-0,050
-362,912	-36,589	-0,116	0,045
-361,898	-200,000	0,000	0,078
-360,883	170,168	0,094	0,099
-359,869	-40,802	0,096	-0,036
-358,854	278,314	-0,052	-0,069
-357,839	-200,000	-0,016	-0,080
-356,825	450,025	-0,028	0,046
-355,810	559,312	0,041	-0,073
-354,796	90,616	-0,104	0,085
-353,781	240,156	0,053	0,065
-352,766	283,884	0,032	0,042
-351,752	-200,000	0,010	0,114
-350,737	-103,067	0,088	-0,015
-349,723	620,695	-0,042	0,079
-348,708	-176,597	0,080	-0,001
-347,693	217,679	-0,055	0,065
-346,679	800,000	-0,027	0,062
-345,664	44,727	-0,055	0,037
-344,650	15,419	0,083	-0,048
-343,635	23,222	0,225	-0,135
-342,620	215,115	0,018	0,021
-341,606	546,774	0,039	-0,070
-340,591	63,954	0,054	-0,039
-339,577	-87,509	0,052	-0,011
-338,562	-200,000	-0,007	0,066
-337,548	800,000	-0,065	-0,153
-336,533	800,000	-0,027	0,077
-335,518	444,226	-0,004	-0,007
-334,504	800,000	-0,012	0,036
-333,489	73,163	-0,041	-0,032
-332,475	135,955	-0,044	-0,042
-331,460	-37,891	0,045	0,018
-330,445	-200,000	-0,006	-0,027
-329,431	83,002	-0,076	-0,060
-328,416	800,000	0,026	-0,059
-327,402	326,111	-0,082	0,115
-326,387	800,000	0,031	0,072
-325,372	-200,000	-0,042	0,176
-324,358	168,245	-0,032	0,034
-323,343	170,787	-0,037	-0,039
-322,329	744,132	0,041	-0,081
-321,314	88,038	0,097	-0,079
-320,299	800,000	0,042	0,116
-319,285	407,137	0,046	-0,071
-318,270	-197,357	-0,152	0,001
-317,256	-200,000	0,045	0,146
-316,241	-128,003	-0,090	-0,009
-315,226	-92,056	-0,020	-0,004
-314,212	-135,440	0,127	0,011
-313,197	44,075	0,024	-0,016
-312,183	-60,278	0,041	-0,013
-311,168	443,969	-0,079	-0,128
-310,153	-21,886	-0,051	-0,023
-309,139	-200,000	0,009	-0,046
-308,124	-156,459	0,181	0,008
-307,110	-200,000	0,001	-0,005
-306,095	-200,000	0,019	-0,070
-305,080	142,627	-0,174	0,169
-304,066	-200,000	-0,004	-0,016
-303,051	800,000	0,039	-0,100
-302,037	-21,272	-0,158	-0,070
-301,022	98,587	-0,053	-0,045
-300,008	-32,689	0,049	0,020
-298,993	-191,783	0,044	-0,000
-297,978	-96,401	-0,079	0,015
-296,964	158,696	-0,082	-0,083
-295,949	207,879	-0,021	-0,024
-294,935	-130,858	0,108	0,010
-293,920	-84,831	0,010	0,002
-292,905	-200,000	-0,004	0,162
-291,891	-200,000	0,017	0,149
-290,876	-200,000	0,000	-0,073
-289,862	100,007	0,086	-0,073
-288,847	20,793	-0,031	0,018
-287,832	-99,296	-0,056	-0,010
-286,818	29,956	0,051	0,032
-285,803	46,027	-0,085	-0,057
-284,789	110,154	0,100	-0,088
-283,774	800,000	0,010	-0,028
-282,759	81,284	-0,105	-0,083
-281,745	119,836	0,070	-0,063
-280,730	-200,000	-0,031	-0,150
-279,716	-200,000	0,062	-0,262
-278,701	12,149	-0,062	0,035
-277,686	-200,000	0,014	-0,085
-276,672	18,489	-0,025	0,014
-275,657	800,000	-0,046	-0,101
-274,643	-200,000	0,034	-0,129
-273,628	657,201	0,022	0,041
-272,613	-200,000	0,004	0,034
-271,599	-82,740	0,013	-0,003
-270,584	38,083	-0,115	-0,075
-269,570	190,682	0,049	-0,054
-268,555	261,513	-0,142	0,180
-267,540	190,361	0,048	0,053
-266,526	460,455	0,042	0,069
-265,511	-200,000	0,030	-0,102
-264,497	25,066	0,053	0,032
-263,482	-114,476	-0,122	0,017
-262,467	170,199	0,026	0,027
-261,453	210,170	-0,053	-0,060
-260,438	180,655	-0,066	0,071
-259,424	-45,947	-0,075	-0,027
-258,409	-42,269	-0,139	0,052
-257,395	-200,000	0,030	-0,130
-256,380	0,176	0,100	-0,052
-255,365	-200,000	0,025	0,134
-254,351	129,919	-0,027	-0,026
-253,336	-72,501	-0,056	-0,015
-252,322	-154,773	-0,056	-0,003
-251,307	-200,000	-0,004	-0,035
-250,292	800,000	-0,031	-0,076
-249,278	-75,604	0,101	0,026
-248,263	66,175	0,086	-0,063
-247,249	347,539	-0,046	0,067
-246,234	-200,000	0,035	-0,169
-245,219	-41,023	-0,149	0,056
-244,205	-99,685	-0,040	-0,007
-243,190	-200,000	-0,001	0,023
-242,176	800,000	0,029	-0,081
-241,161	-200,000	-0,007	0,091
-240,146	181,288	0,050	0,054
-239,132	-14,405	-0,111	-0,052
-238,117	155,987	0,090	-0,091
-237,103	94,377	0,022	0,018
-236,088	800,000	0,036	-0,082
-235,073	170,145	-0,012	-0,012
-234,059	-200,000	0,010	0,059
-233,044	800,000	0,044	0,118
-232,030	50,075	-0,055	-0,038
-231,015	-152,615	-0,039	-0,002
-230,000	51,528	-0,062	-0,043
-228,986	-110,618	0,055	-0,008
-227,971	-190,625	0,215	0,002
-226,957	42,944	0,069	-0,046
-225,942	800,000	0,027	0,058
-224,927	141,989	0,072	-0,069
-223,913	-31,154	0,060	-0,025
-222,898	-113,807	-0,094	-0,013
-221,884	800,000	-0,057	-0,151
-220,869	-61,346	0,155	-0,047
-219,855	65,091	0,111	0,082
-218,840	88,457	0,126	0,102
-217,825	800,000	-0,068	0,141
-216,811	71,258	0,036	-0,027
-215,796	108,128	-0,037	0,032
-214,782	427,353	-0,061	-0,096
-213,767	11,485	0,056	0,031
-212,752	800,000	0,026	0,070
-211,738	125,631	0,068	-0,062
-210,723	800,000	0,032	-0,064
-209,709	162,752	-0,034	0,035
-208,694	-200,000	0,017	-0,072
-207,679	-200,000	0,011	-0,051
-206,665	800,000	-0,078	-0,178
-205,650	263,866	0,043	0,055
-204,636	-200,000	-0,029	0,095
-203,621	-200,000	-0,020	0,256
-202,606	-200,000	0,004	0,114
-201,592	-62,421	0,027	0,008
-200,577	-77,567	-0,029	-0,007
-199,563	-106,893	0,035	0,006
-198,548	53,481	0,056	0,039
-197,533	220,910	0,031	0,036
-196,519	-200,000	-0,007	0,031
-195,504	-84,756	0,155	0,035
-194,490	800,000	0,016	0,038
-193,475	67,620	-0,019	0,014
-192,460	-41,804	-0,121	0,045
-191,446	336,468	-0,070	-0,100
-190,431	-159,674	0,083	0,003
-189,417	-200,000	0,007	0,086
-188,402	800,000	-0,044	-0,112
-187,387	5,841	-0,022	-0,012
-186,373	-200,000	0,017	0,088
-185,358	17,155	-0,141	0,081
-184,344	33,182	-0,073	0,046
-183,329	-200,000	-0,004	-0,085
-182,315	591,429	-0,067	0,121
-181,300	-161,929	-0,039	0,001
-180,285	271,966	-0,059	-0,077
-179,271	-54,292	-0,130	-0,043
-178,256	-200,000	-0,003	-0,136
-177,242	-200,000	-0,026	0,157
-176,227	-200,000	-0,002	-0,019
-175,212	-177,883	-0,151	-0,003
-174,198	93,874	-0,060	0,049
-173,183	-87,640	0,080	-0,017
-172,169	800,000	-0,035	-0,113
-171,154	16,420	0,061	-0,035
-170,139	-92,492	-0,034	-0,007
-169,125	-64,379	0,030	0,009
-168,110	452,205	-0,026	-0,042
-167,096	-81,283	-0,134	0,032
-166,081	339,150	-0,094	-0,133
-165,066	63,267	0,060	0,044
-164,052	-108,955	-0,054	0,008
-163,037	-200,000	0,007	0,022
-162,023	320,893	-0,126	0,175
-161,008	156,034	0,026	0,026
-159,993	238,067	-0,114	0,138
-158,979	-121,597	0,051	-0,006
-157,964	11,588	0,127	-0,071
-156,950	204,470	0,021	0,024
-155,935	-200,000	-0,021	0,077
-154,920	-157,586	0,066	0,003
-153,906	55,967	-0,108	-0,076
-152,891	-139,862	0,054	0,004
-151,877	-0,942	-0,154	0,079
-150,862	-138,202	-0,018	0,001
-149,847	-50,073	-0,031	-0,011
-148,833	73,372	0,068	-0,052
-147,818	68,348	-0,066	0,049
-146,804	207,124	0,038	0,043
-145,789	85,111	-0,067	0,053
-144,775	-132,890	0,027	0,002
-143,760	43,261	-0,055	-0,036
-142,745	80,010	-0,034	-0,027
-141,731	-29,477	-0,082	-0,034
-140,716	-200,000	0,012	0,050
-139,702	-102,304	0,106	0,018
-138,687	800,000	0,041	0,090
-137,672	347,923	-0,044	0,063
-136,658	72,551	-0,168	-0,127
-135,643	-200,000	-0,023	-0,076
-134,629	-28,114	0,045	-0,019
-133,614	800,000	0,060	0,171
-132,599	-137,597	0,111	-0,009
-131,585	261,611	-0,034	-0,043
-130,570	800,000	0,059	0,126
-129,556	-200,000	-0,006	-0,078
-128,541	800,000	-0,032	0,066
-127,526	64,342	-0,023	0,017
-126,512	-20,131	-0,076	0,034
-125,497	-200,000	0,020	0,086
-124,483	154,034	-0,022	-0,022
-123,468	246,001	0,068	0,084
-122,453	-130,389	-0,100	0,010
-121,439	-141,987	-0,107	-0,008
-120,424	409,115	-0,094	-0,146
-119,410	-54,917	0,047	0,015
-118,395	-200,000	0,039	0,206
-117,380	800,000	0,061	0,126
-116,366	679,572	-0,049	0,092
-115,351	-33,137	0,051	-0,021
-114,337	267,964	-0,072	0,092
-113,322	650,835	0,024	0,046
-112,307	-30,101	0,105	-0,043
-111,293	131,032	0,013	0,012
-110,278	-200,000	0,011	0,060
-109,264	85,408	0,102	0,081
-108,249	67,259	-0,097	0,072
-107,234	-200,000	0,010	-0,051
-106,220	149,546	-0,052	0,052
-105,205	-91,122	0,271	0,056
-104,191	800,000	0,013	-0,033
-103,176	2,195	-0,104	-0,054
-102,162	405,351	0,040	-0,061
-101,147	-99,390	-0,048	-0,009
-100,132	-141,821	0,185	-0,013
-99,118	-183,789	-0,069	-0,001
-98,103	13,220	0,063	-0,035
-97,089	487,337	0,039	-0,064
-96,074	-46,904	-0,129	-0,045
-95,059	163,315	0,039	0,039
-94,045	-70,298	0,124	0,034
-93,030	53,112	-0,047	0,032
-92,016	178,352	-0,064	-0,068
-91,001	-200,000	-0,012	-0,068
-89,986	65,099	0,060	0,044
-88,972	-96,378	-0,035	0,007
-87,957	-94,973	0,133	0,026
-86,943	-102,220	0,178	-0,031
-85,928	-200,000	0,021	-0,090
-84,913	800,000	0,008	-0,019
-83,899	800,000	-0,059	0,153
-82,884	-49,689	0,070	-0,024
-81,870	-54,291	0,054	-0,018
-80,855	-163,769	0,017	0,001
-79,840	538,722	-0,078	-0,135
-78,826	-200,000	-0,018	-0,175
-77,811	-14,951	0,105	-0,049
-76,797	351,031	-0,035	0,050
-75,782	205,877	0,021	-0,023
-74,767	-200,000	-0,049	0,163
-73,753	-54,579	0,169	-0,055
-72,738	664,942	-0,013	0,025
-71,724	-54,708	-0,054	-0,017
-70,709	25,004	-0,029	-0,018
-69,694	-200,000	-0,028	-0,168
-68,680	-33,314	-0,022	0,009
-67,665	426,941	0,118	0,185
-66,651	-30,740	-0,110	0,045
-65,636	-200,000	-0,001	0,125
-64,622	549,429	-0,068	-0,119
-63,607	355,047	0,037	-0,054
-62,592	-13,888	-0,080	-0,037
-61,578	-41,475	0,045	0,017
-60,563	31,352	-0,043	0,027
-59,549	-182,279	0,073	-0,001
-58,534	-198,244	-1,418	-0,006
-57,519	800,000	-0,762	-1,599
-56,505	-200,000	-0,970	-4,427
-55,490	-14,840	0,546	-0,253
-54,476	800,000	5,016	11,860
-53,461	-200,000	13,539	252,932
-52,446	-200,000	688,683	2267,073
-51,432	595,330	1622,573	2925,607
-50,417	120,692	1635,851	1475,367
-49,403	73,586	1290,157	979,488
-48,388	38,387	1024,855	661,238
-47,373	24,510	982,357	588,174
-46,359	23,760	972,022	579,499
-45,344	22,792	967,841	573,821
-44,330	22,699	966,470	572,680
-43,315	22,602	964,915	571,420
-42,300	22,597	964,047	570,869
-41,286	22,624	962,953	570,285
-40,271	22,571	962,102	569,587
-39,257	22,514	961,304	568,907
-38,242	22,593	960,100	568,429
-37,227	22,516	959,483	567,789
-36,213	22,517	958,345	567,098
-35,198	22,515	957,525	566,583
-34,184	22,603	956,865	566,456
-33,169	22,513	956,166	565,728
-32,154	22,632	955,148	565,486
-31,140	22,634	954,195	564,906
-30,125	22,600	953,619	564,434
-29,111	22,611	952,673	563,886
-28,096	22,644	952,041	563,598
-27,082	22,632	951,298	563,095
-26,067	22,631	950,414	562,548
-25,052	22,560	949,964	562,030
-24,038	22,539	949,341	561,571
-23,023	22,587	948,521	561,219
-22,009	22,615	947,867	560,898
-20,994	22,669	947,324	560,727
-19,979	22,687	946,606	560,339
-18,965	22,610	946,037	559,733
-17,950	22,611	945,515	559,405
-16,936	22,559	944,765	558,774
-15,921	22,603	944,005	558,442
-14,906	22,521	943,343	557,769
-13,892	22,481	942,672	557,219
-12,877	22,514	942,039	556,931
-11,863	22,460	941,354	556,331
-10,848	22,493	940,868	556,128
-9,833	22,502	940,626	555,990
-8,819	22,587	939,734	555,710
-7,804	22,529	938,907	555,015
-6,790	22,499	938,619	554,729
-5,775	22,499	938,053	554,371
-4,760	22,483	937,436	553,934
-3,746	22,388	936,915	553,303
-2,731	22,373	936,070	552,736
-1,717	22,331	935,294	552,124
-0,702	22,294	934,733	551,654
0,313	22,065	934,002	551,332
1,327	25,077	932,082	559,624
2,342	34,745	796,642	504,075
3,356	32,721	451,989	282,919
4,371	1,871	293,832	153,139
5,386	-2,667	274,791	138,908
6,400	-4,204	268,962	134,523
7,415	-4,576	266,421	132,898
8,429	-4,322	265,213	132,515
9,444	-4,246	264,453	132,194
10,459	-4,373	263,831	131,755
11,473	-4,433	263,314	131,431
12,488	-4,494	262,720	131,067
13,502	-4,530	262,195	130,762
14,517	-4,465	261,692	130,558
15,531	-4,419	261,336	130,410
16,546	-4,299	260,972	130,325
17,561	-4,447	260,657	130,023
18,575	-4,328	260,071	129,826
19,590	-4,494	260,060	129,659
20,604	-4,178	259,697	129,750
21,619	-4,425	259,270	129,304
22,634	-4,614	259,042	129,011
23,648	-4,442	258,704	128,984
24,663	-4,276	258,306	128,922
25,677	-4,421	258,341	128,798
26,692	-4,425	258,058	128,642
27,707	-4,556	257,699	128,335
28,721	-4,450	257,371	128,254
29,736	-4,695	257,230	127,956
30,750	-4,409	256,904	128,035
31,765	-4,586	256,790	127,811
32,780	-4,512	256,489	127,715
33,794	-4,465	256,273	127,637
34,809	-4,622	256,064	127,383
35,823	-4,328	255,695	127,448
36,838	-4,406	255,449	127,245
37,853	-4,648	255,265	126,929
38,867	-4,718	255,087	126,768
39,882	-4,631	254,817	126,699
40,896	-4,597	254,562	126,590
41,911	-4,628	254,497	126,520
42,926	-4,622	254,109	126,321
43,940	-4,415	253,910	126,391
44,955	-4,541	253,770	126,201
45,969	-4,652	253,373	125,895
46,984	-4,737	253,179	125,713
47,999	-5,095	253,005	125,303
49,013	-5,086	252,702	125,151
50,028	-5,233	252,439	124,882
51,042	-5,376	252,283	124,669
52,057	-5,225	251,932	124,615
53,071	-5,306	251,889	124,513
54,086	-5,414	251,803	124,366
55,101	-4,994	251,457	124,547
56,115	-4,767	251,382	124,695
57,130	-4,616	251,271	124,759
58,144	-4,306	251,082	124,922
59,159	-4,212	250,947	124,924
60,174	-4,203	250,694	124,795
61,188	-4,362	250,483	124,542
62,203	-4,468	250,239	124,318
63,217	-4,284	250,086	124,390
64,232	-4,486	249,933	124,129
65,247	-4,347	249,788	124,165
66,261	-4,362	249,397	123,947
67,276	-4,604	249,116	123,589
68,290	-4,940	249,114	123,290
69,305	-4,877	248,604	123,080
70,320	-4,830	248,447	123,032
71,334	-4,628	248,521	123,230
72,349	-4,291	248,427	123,459
73,363	-4,147	248,135	123,425
74,378	-4,289	247,779	123,117
75,393	-4,366	247,638	122,970
76,407	-4,333	247,572	122,955
77,422	-4,453	247,325	122,719
78,436	-4,365	247,102	122,673
79,451	-4,366	246,898	122,559
80,466	-4,610	246,580	122,184
81,480	-4,702	246,318	121,966
82,495	-4,803	246,226	121,824
83,509	-4,618	246,044	121,879
84,524	-4,628	245,985	121,831
85,539	-4,925	245,648	121,402
86,553	-4,749	245,315	121,376
87,568	-4,753	245,294	121,351
88,582	-4,706	245,172	121,319
89,597	-4,872	244,911	121,039
90,611	-4,598	244,731	121,170
91,626	-4,338	244,554	121,289
92,641	-4,344	244,480	121,237
93,655	-4,557	244,292	120,954
94,670	-4,610	244,170	120,839
95,684	-4,496	243,869	120,774
96,699	-4,490	243,659	120,664
97,714	-4,606	243,427	120,442
98,728	-4,648	243,286	120,327
99,743	-4,800	243,135	120,115
100,757	-5,036	242,928	119,805
101,772	-4,851	242,711	119,841
102,787	-4,753	242,583	119,849
103,801	-4,831	242,442	119,703
104,816	-4,555	242,128	119,767
105,830	-4,385	242,137	119,902
106,845	-4,364	242,071	119,876
107,860	-4,490	241,776	119,615
108,874	-4,712	241,637	119,352
109,889	-4,479	241,357	119,395
110,903	-4,668	241,097	119,100
111,918	-4,679	240,894	118,980
112,933	-4,533	240,792	119,039
113,947	-4,347	240,645	119,109
114,962	-4,531	240,517	118,884
115,976	-4,560	240,350	118,766
116,991	-4,541	240,002	118,600
118,006	-4,556	239,900	118,527
119,020	-4,605	239,878	118,465
120,035	-4,372	239,616	118,515
121,049	-4,444	239,556	118,417
122,064	-4,399	239,251	118,292
123,079	-4,517	239,208	118,163
124,093	-4,590	238,959	117,970
125,108	-4,770	238,705	117,688
126,122	-4,860	238,389	117,448
127,137	-4,964	238,364	117,341
128,151	-4,985	238,141	117,203
129,166	-4,878	238,052	117,236
130,181	-4,718	237,765	117,214
131,195	-4,833	237,551	117,005
132,210	-4,641	237,310	117,031
133,224	-4,698	237,453	117,046
134,239	-4,553	237,127	116,992
135,254	-4,437	237,071	117,048
136,268	-4,638	236,786	116,734
137,283	-5,047	236,575	116,289
138,297	-4,966	236,270	116,194
139,312	-4,968	236,090	116,093
140,327	-4,804	236,205	116,272
141,341	-4,123	236,075	116,746
142,356	-4,279	236,040	116,593
143,370	-4,147	235,720	116,531
144,385	-4,127	235,622	116,488
145,400	-4,242	235,466	116,308
146,414	-4,340	235,193	116,084
147,429	-4,319	235,045	116,018
148,443	-4,340	234,795	115,867
149,458	-4,484	234,778	115,733
150,473	-4,294	234,553	115,763
151,487	-4,295	234,372	115,664
152,502	-4,154	234,211	115,686
153,516	-4,190	234,099	115,592
154,531	-4,284	233,764	115,341
155,546	-4,228	233,595	115,292
156,560	-4,326	233,545	115,179
157,575	-4,483	233,381	114,963
158,589	-4,453	233,048	114,813
159,604	-4,216	233,064	114,998
160,619	-4,154	232,957	114,985
161,633	-4,228	232,774	114,825
162,648	-4,167	232,643	114,799
163,662	-4,292	232,604	114,670
164,677	-4,182	232,259	114,577
165,692	-4,205	232,193	114,516
166,706	-4,118	232,024	114,491
167,721	-4,166	231,899	114,381
168,735	-4,182	231,769	114,294
169,750	-4,251	231,586	114,140
170,764	-4,090	231,328	114,129
171,779	-4,275	231,410	114,014
172,794	-4,094	231,110	113,998
173,808	-4,221	230,909	113,788
174,823	-4,740	230,556	113,197
175,837	-4,799	230,410	113,070
176,852	-4,531	230,339	113,235
177,867	-4,406	230,345	113,325
178,881	-4,424	230,256	113,258
179,896	-4,082	230,040	113,409
180,910	-4,067	229,924	113,353
181,925	-4,211	229,759	113,149
182,940	-4,033	229,324	113,064
183,954	-3,899	229,317	113,154
184,969	-3,940	229,240	113,074
185,983	-4,054	229,120	112,916
186,998	-3,971	228,980	112,902
188,013	-3,873	228,818	112,888
189,027	-4,112	228,699	112,634
190,042	-4,094	228,548	112,563
191,056	-4,134	228,323	112,411
192,071	-4,123	228,215	112,357
193,086	-4,079	228,113	112,330
194,100	-4,012	227,901	112,268
195,115	-4,429	227,613	111,794
196,129	-4,814	227,336	111,351
197,144	-1,144	228,576	114,794
198,159	2,653	229,603	118,249
199,173	3,960	229,855	119,383
200,188	3,895	229,517	119,147
201,202	4,152	229,453	119,302
202,217	4,385	229,383	119,435
203,232	4,429	229,394	119,464
204,246	4,474	229,243	119,410
205,261	4,687	229,042	119,459
206,275	4,952	228,917	119,588
207,290	4,945	228,838	119,530
208,304	4,759	228,637	119,271
209,319	4,695	228,546	119,164
210,334	4,711	228,277	119,026
211,348	4,431	228,013	118,662
212,363	4,188	227,747	118,326
213,377	4,025	227,622	118,125
214,392	3,983	227,304	117,917
215,407	3,957	227,297	117,884
216,421	3,912	227,167	117,772
217,436	3,831	227,051	117,639
218,450	3,774	226,752	117,430
219,465	3,717	226,586	117,290
220,480	3,590	226,443	117,108
221,494	3,590	226,381	117,066
222,509	3,793	226,265	117,151
223,523	3,964	226,011	117,139
224,538	4,258	225,864	117,275
225,553	3,963	225,832	117,024
226,567	3,904	225,761	116,932
227,582	4,189	225,604	117,057
228,596	4,334	225,499	117,103
229,611	4,043	225,283	116,758
230,626	3,796	225,091	116,462
231,640	3,779	224,874	116,326
232,655	4,064	224,800	116,493
233,669	4,524	224,771	116,816
234,684	4,757	224,537	116,859
235,699	4,451	224,483	116,590
236,713	4,115	224,295	116,228
237,728	3,910	224,006	115,914
238,742	3,647	223,961	115,682
239,757	3,889	223,678	115,707
240,772	3,784	223,575	115,565
241,786	3,725	223,477	115,460
242,801	3,955	223,366	115,565
243,815	4,245	223,320	115,748
244,830	4,536	223,219	115,904
245,844	4,286	222,962	115,573
246,859	4,208	222,954	115,500
247,874	4,188	222,778	115,384
248,888	4,120	222,532	115,195
249,903	4,097	222,267	115,031
250,917	3,905	222,214	114,849
251,932	3,926	222,071	114,781
252,947	3,901	221,882	114,654
253,961	3,693	221,808	114,451
254,976	3,825	221,601	114,432
255,990	4,215	221,537	114,679
257,005	4,255	221,317	114,585
258,020	4,226	221,326	114,558
259,034	4,364	221,197	114,584
260,049	4,296	221,058	114,450
261,063	4,041	220,884	114,161
262,078	4,293	220,788	114,288
263,093	4,366	220,674	114,273
264,107	4,264	220,434	114,063
265,122	4,240	220,336	113,984
266,136	4,585	220,195	114,156
267,151	4,252	220,111	113,857
268,166	3,916	219,851	113,464
269,180	3,761	219,652	113,237
270,195	3,865	219,377	113,162
271,209	3,815	219,284	113,066
272,224	3,788	219,235	113,012
273,239	4,166	219,100	113,209
274,253	3,871	218,913	112,886
275,268	3,734	218,672	112,651
276,282	3,608	218,605	112,515
277,297	3,541	218,435	112,368
278,312	3,720	218,272	112,405
279,326	4,027	218,238	112,602
280,341	3,881	218,104	112,416
281,355	3,855	217,986	112,327
282,370	3,841	217,970	112,298
283,384	3,673	217,554	111,951
284,399	3,642	217,349	111,813
285,414	3,795	217,234	111,855
286,428	3,999	217,112	111,931
287,443	3,883	217,216	111,890
288,457	4,066	217,026	111,915
289,472	3,911	216,836	111,695
290,487	3,361	216,610	111,169
291,501	3,451	216,370	111,102
292,516	3,590	216,260	111,136
293,530	3,720	216,214	111,197
294,545	3,494	216,021	110,924
295,560	3,847	215,912	111,113
296,574	3,866	215,851	111,086
297,589	3,675	215,870	110,947
298,603	3,967	215,598	111,008
299,618	4,030	215,489	110,988
300,633	3,765	215,325	110,702
301,647	4,241	215,235	110,989
302,662	4,386	215,014	110,970
303,676	4,356	214,824	110,840
304,691	4,312	214,817	110,794
305,706	4,404	214,659	110,770
306,720	4,123	214,489	110,470
307,735	3,925	214,352	110,248
308,749	3,969	214,209	110,197
309,764	3,951	214,130	110,133
310,779	4,372	214,046	110,381
311,793	4,160	213,897	110,143
312,808	4,193	213,691	110,050
313,822	4,058	213,602	109,898
314,837	3,919	213,326	109,647
315,852	3,754	213,026	109,366
316,866	3,826	213,019	109,404
317,881	4,043	212,994	109,536
318,895	4,080	212,847	109,477
319,910	3,911	212,641	109,241
320,925	3,434	212,406	108,772
321,939	3,364	212,314	108,666
322,954	3,370	212,296	108,651
323,968	3,983	212,162	109,007
324,983	4,263	211,951	109,087
325,997	4,105	212,008	108,995
327,012	4,057	211,779	108,833
328,027	3,782	211,765	108,622
329,041	4,350	211,699	108,980
330,056	4,236	211,585	108,831
331,070	4,029	211,344	108,551
332,085	3,581	210,986	108,042
333,100	4,009	210,839	108,258
334,114	4,007	210,955	108,307
335,129	3,865	210,554	107,992
336,143	3,774	210,472	107,876
337,158	3,723	210,352	107,770
338,173	3,918	210,052	107,743
339,187	3,871	209,930	107,638
340,202	3,401	209,932	107,300
341,216	3,505	209,641	107,214
342,231	3,681	209,652	107,333
343,246	3,791	209,439	107,291
344,260	3,958	209,349	107,352
345,275	3,720	209,357	107,180
346,289	3,875	209,282	107,241
347,304	3,953	209,034	107,159
348,319	3,862	208,867	107,001
349,333	4,098	208,653	107,045
350,348	4,028	208,672	106,996
351,362	4,059	208,531	106,936
352,377	4,291	208,323	106,982
353,392	4,207	208,133	106,816
354,406	3,905	208,187	106,625
355,421	193,082	1346,400	1432,337
356,435	154,008	1485,191	1432,449
