DTS Sentinel unit serial number:	SN410029Multiplexer serial number:	ORYXHardware model number:	OX2-SRSoftware version number:	ORYX F/W v4,00 Oryx Data Collector v3.7.2.0data status	okinstallation	B6 Nyhavnadifferential loss correction	single-endedforward channel	channel 2reverse channel	N/Adate	2023/12/09time	02:00:08forward acquisition time	300,00reverse acquisition time	0,00gamma	499,1914k internal	0,3155k external	0,3155temperature offset calibration	1,0000default loss term (dB/km)	0,3820temperature slope calibration	1,0000multiplexer offset coefficient	1,0000multiplexer slope coefficient	1,0000fibre end	0,00T internal ref (°C)	15,87T ext. ref 1 (°C)	-0,40T ext. ref 2 (°C)	-0,42length (m)	temperature (°C)	Stokes	anti-Stokes-744,400	-75,617	0,182	0,047
-743,385	-65,535	-0,207	0,061
-742,371	-107,521	0,168	0,027
-741,356	78,761	-0,203	0,160
-740,342	-125,475	0,257	0,028
-739,327	-97,182	-0,412	0,079
-738,312	-200,000	-0,002	-0,091
-737,298	-147,179	-0,215	0,013
-736,283	673,988	0,042	-0,080
-735,269	-96,123	-0,302	-0,059
-734,254	245,071	0,071	0,088
-733,239	-58,336	-0,502	-0,160
-732,225	-170,549	0,222	0,006
-731,210	-133,661	-0,138	0,013
-730,196	-108,523	0,130	0,020
-729,181	450,869	-0,063	-0,103
-728,167	-200,000	-0,015	-0,157
-727,152	357,798	-0,045	0,066
-726,137	-105,189	-0,051	-0,009
-725,123	-95,133	-0,106	-0,021
-724,108	-91,666	-0,010	-0,002
-723,094	-151,197	-0,082	-0,004
-722,079	526,756	-0,019	0,032
-721,064	784,985	0,047	0,096
-720,050	-155,710	-0,183	0,008
-719,035	152,419	-0,032	-0,032
-718,021	800,000	0,005	0,012
-717,006	538,405	-0,083	-0,145
-715,991	-100,428	-0,192	-0,035
-714,977	800,000	-0,070	-0,190
-713,962	-200,000	-0,025	0,117
-712,948	-200,000	-0,001	0,073
-711,933	44,607	-0,063	-0,043
-710,918	628,260	0,042	0,079
-709,904	754,209	-0,080	-0,160
-708,889	-200,000	0,010	-0,071
-707,875	714,443	-0,052	-0,102
-706,860	274,612	0,045	-0,059
-705,845	800,000	0,049	-0,126
-704,831	252,678	-0,078	0,098
-703,816	147,638	0,074	0,073
-702,802	-103,788	-0,053	0,009
-701,787	-149,689	0,111	0,006
-700,772	-32,696	-0,081	-0,033
-699,758	-200,000	0,044	-0,172
-698,743	-200,000	0,007	0,104
-697,729	-54,038	-0,037	0,012
-696,714	102,131	-0,062	-0,054
-695,699	492,712	0,048	-0,082
-694,685	-85,415	-0,104	0,024
-693,670	-200,000	0,022	-0,166
-692,656	-200,000	0,002	-0,044
-691,641	154,825	-0,007	0,007
-690,627	578,145	0,086	-0,155
-689,612	-35,301	-0,033	-0,013
-688,597	4,124	-0,142	-0,076
-687,583	728,371	0,017	-0,034
-686,568	218,678	0,073	0,086
-685,554	-2,211	-0,019	0,010
-684,539	286,359	0,046	-0,061
-683,524	55,947	-0,051	0,036
-682,510	283,625	-0,058	-0,077
-681,495	691,818	0,015	-0,030
-680,481	800,000	-0,021	-0,049
-679,466	61,011	-0,101	-0,073
-678,451	32,750	-0,040	-0,025
-677,437	800,000	-0,034	-0,073
-676,422	-43,840	-0,159	0,059
-675,408	-130,961	-0,115	0,011
-674,393	-200,000	-0,006	0,139
-673,378	-102,936	-0,075	0,013
-672,364	-200,000	-0,032	-0,191
-671,349	-200,000	-0,001	-0,039
-670,335	295,939	-0,049	0,066
-669,320	-150,604	-0,108	0,006
-668,305	0,543	0,130	-0,068
-667,291	289,892	-0,053	-0,071
-666,276	-24,210	0,047	-0,021
-665,262	-200,000	0,007	-0,054
-664,247	-200,000	0,030	-0,118
-663,232	-70,402	-0,042	-0,012
-662,218	-14,433	0,110	-0,052
-661,203	-200,000	-0,002	0,061
-660,189	-163,526	-0,021	0,001
-659,174	645,582	-0,015	-0,029
-658,159	371,305	0,058	-0,087
-657,145	14,981	-0,087	-0,050
-656,130	127,944	0,100	0,094
-655,116	274,620	0,018	0,024
-654,101	295,739	-0,031	0,041
-653,086	-62,594	-0,142	0,043
-652,072	670,822	-0,020	0,038
-651,057	-96,206	-0,214	0,041
-650,043	-116,196	-0,064	-0,009
-649,028	43,771	0,036	0,024
-648,014	800,000	0,049	0,129
-646,999	191,251	-0,062	-0,069
-645,984	68,948	0,066	0,050
-644,970	237,778	-0,040	-0,049
-643,955	349,071	0,018	0,026
-642,941	181,871	0,051	-0,055
-641,926	257,296	-0,082	-0,104
-640,911	-31,343	-0,126	0,052
-639,897	-200,000	-0,004	0,028
-638,882	-62,532	0,110	-0,033
-637,868	-59,920	-0,124	0,039
-636,853	800,000	-0,035	-0,089
-635,838	800,000	-0,049	-0,134
-634,824	-10,611	-0,041	0,020
-633,809	81,042	0,077	-0,061
-632,795	460,099	-0,034	0,055
-631,780	-200,000	-0,014	0,080
-630,765	-200,000	-0,005	-0,063
-629,751	65,900	-0,013	0,010
-628,736	-28,056	-0,104	-0,044
-627,722	-150,835	0,139	-0,008
-626,707	-126,276	-0,130	0,014
-625,692	-68,637	-0,032	0,009
-624,678	-6,370	-0,054	-0,027
-623,663	-200,000	0,010	-0,145
-622,649	125,960	0,031	-0,029
-621,634	-146,488	-0,172	0,011
-620,619	286,472	0,033	0,044
-619,605	216,077	-0,067	-0,078
-618,590	140,991	0,029	-0,028
-617,576	800,000	-0,037	0,104
-616,561	0,728	-0,042	0,022
-615,546	-200,000	0,008	-0,073
-614,532	800,000	-0,071	-0,152
-613,517	800,000	-0,028	-0,081
-612,503	-200,000	0,012	-0,115
-611,488	-0,359	-0,024	0,012
-610,474	-117,210	-0,045	-0,006
-609,459	800,000	0,022	0,056
-608,444	455,380	-0,033	-0,053
-607,430	-200,000	0,015	-0,053
-606,415	-74,960	-0,023	0,006
-605,401	59,989	-0,056	-0,040
-604,386	66,298	0,122	-0,091
-603,371	-167,519	0,115	0,003
-602,357	-200,000	-0,001	-0,022
-601,342	291,818	-0,084	0,113
-600,328	-200,000	0,006	-0,083
-599,313	-7,664	-0,023	-0,011
-598,298	-147,136	0,055	-0,003
-597,284	197,998	0,063	-0,071
-596,269	-30,935	0,090	-0,037
-595,255	293,918	0,079	0,107
-594,240	64,298	-0,073	0,054
-593,225	800,000	-0,061	-0,129
-592,211	-200,000	-0,006	-0,147
-591,196	-46,112	0,064	0,023
-590,182	-200,000	-0,035	0,116
-589,167	-62,451	0,157	0,048
-588,152	800,000	0,024	0,064
-587,138	-200,000	-0,008	-0,125
-586,123	-28,362	-0,015	-0,006
-585,109	54,962	0,030	-0,021
-584,094	-25,309	-0,207	0,089
-583,079	800,000	0,027	0,067
-582,065	760,092	-0,034	0,067
-581,050	87,871	0,111	0,090
-580,036	-200,000	-0,006	0,079
-579,021	235,412	0,031	-0,038
-578,006	0,531	-0,083	0,043
-576,992	-200,000	-0,034	-0,147
-575,977	-200,000	0,000	0,107
-574,963	-200,000	-0,005	0,162
-573,948	-59,641	0,100	0,031
-572,934	203,707	0,049	0,056
-571,919	147,819	-0,077	0,077
-570,904	800,000	-0,024	-0,074
-569,890	118,757	-0,088	-0,080
-568,875	800,000	0,023	0,059
-567,861	263,279	0,084	0,107
-566,846	-200,000	0,028	0,222
-565,831	596,945	0,029	0,053
-564,817	485,652	0,007	0,011
-563,802	-76,323	-0,151	-0,039
-562,788	-200,000	-0,010	0,127
-561,773	800,000	-0,049	0,139
-560,758	49,099	0,127	-0,087
-559,744	-106,202	-0,085	-0,014
-558,729	-200,000	-0,017	-0,074
-557,715	87,172	-0,139	-0,112
-556,700	24,599	-0,082	-0,049
-555,685	800,000	-0,062	-0,181
-554,671	199,486	-0,029	-0,032
-553,656	800,000	0,039	0,080
-552,642	-144,134	0,124	-0,008
-551,627	-200,000	0,007	-0,050
-550,612	68,330	-0,099	0,074
-549,598	459,009	-0,047	0,076
-548,583	-184,811	-0,090	-0,001
-547,569	-200,000	-0,006	0,070
-546,554	-157,490	0,091	0,004
-545,539	-200,000	0,006	0,087
-544,525	-200,000	-0,005	0,026
-543,510	800,000	0,037	0,080
-542,496	-200,000	0,011	-0,095
-541,481	331,782	0,092	-0,131
-540,466	800,000	0,055	0,132
-539,452	-200,000	-0,002	-0,017
-538,437	182,992	-0,066	-0,072
-537,423	50,988	0,020	0,014
-536,408	87,246	-0,103	-0,083
-535,393	-200,000	-0,034	-0,124
-534,379	217,156	-0,044	0,051
-533,364	-200,000	-0,035	-0,176
-532,350	-143,235	-0,018	-0,001
-531,335	800,000	-0,025	-0,072
-530,321	-53,108	0,073	-0,024
-529,306	43,373	0,109	-0,073
-528,291	101,616	-0,086	-0,073
-527,277	84,028	-0,145	0,116
-526,262	-3,145	0,091	-0,046
-525,248	800,000	0,095	-0,197
-524,233	159,392	0,046	0,047
-523,218	14,584	0,052	-0,030
-522,204	-88,106	0,078	0,017
-521,189	-121,957	-0,134	0,016
-520,175	156,188	-0,102	-0,103
-519,160	123,852	-0,060	-0,055
-518,145	32,870	0,088	-0,055
-517,131	74,443	0,133	-0,102
-516,116	-8,632	0,068	-0,033
-515,102	800,000	0,030	-0,079
-514,087	60,565	-0,043	-0,031
-513,072	71,051	-0,155	-0,118
-512,058	-200,000	0,001	-0,006
-511,043	-111,401	-0,032	-0,005
-510,029	517,230	-0,043	0,074
-509,014	-200,000	0,014	0,056
-507,999	616,109	0,109	0,201
-506,985	104,323	0,060	0,052
-505,970	-200,000	0,025	-0,107
-504,956	-9,423	0,150	-0,073
-503,941	-154,328	-0,131	-0,006
-502,926	-86,361	0,041	0,009
-501,912	800,000	0,051	0,122
-500,897	-200,000	-0,001	0,040
-499,883	-127,773	0,116	-0,012
-498,868	-200,000	-0,033	-0,191
-497,853	271,756	-0,022	0,028
-496,839	-108,169	0,042	-0,007
-495,824	168,314	0,060	-0,062
-494,810	415,737	-0,018	0,028
-493,795	111,667	-0,091	0,080
-492,781	-67,935	0,090	-0,025
-491,766	-127,179	0,064	0,007
-490,751	-200,000	0,016	-0,075
-489,737	-154,934	-0,061	0,003
-488,722	-61,757	0,150	0,046
-487,708	800,000	-0,024	0,061
-486,693	-161,296	-0,077	0,003
-485,678	-200,000	-0,001	0,049
-484,664	780,949	-0,025	-0,050
-483,649	-200,000	0,039	-0,129
-482,635	-91,941	-0,103	-0,021
-481,620	43,135	0,092	0,061
-480,605	-200,000	-0,020	-0,075
-479,591	-200,000	-0,008	0,031
-478,576	-176,507	-0,149	-0,003
-477,562	-52,752	-0,082	0,028
-476,547	-200,000	-0,014	-0,119
-475,532	800,000	0,036	0,109
-474,518	-118,310	0,095	0,012
-473,503	547,316	-0,055	0,096
-472,489	235,795	0,130	0,157
-471,474	88,619	0,075	0,061
-470,459	478,041	-0,032	-0,053
-469,445	-60,435	-0,092	-0,028
-468,430	76,868	0,131	-0,101
-467,416	-81,414	0,107	-0,026
-466,401	-200,000	-0,008	-0,049
-465,386	800,000	0,029	-0,088
-464,372	-108,473	0,054	-0,008
-463,357	-133,307	-0,089	0,008
-462,343	-29,006	0,066	-0,027
-461,328	384,427	-0,045	-0,068
-460,313	-200,000	-0,012	-0,041
-459,299	130,486	-0,072	0,067
-458,284	34,772	0,133	-0,084
-457,270	-200,000	0,005	0,027
-456,255	134,145	0,057	-0,054
-455,241	800,000	0,016	0,049
-454,226	-138,566	-0,055	-0,004
-453,211	-75,181	0,119	0,031
-452,197	-200,000	0,027	0,203
-451,182	-200,000	0,007	0,067
-450,168	278,625	-0,063	0,082
-449,153	403,484	0,046	-0,071
-448,138	152,918	-0,015	-0,015
-447,124	-200,000	0,001	-0,101
-446,109	-16,913	0,062	0,028
-445,095	-49,431	0,057	-0,020
-444,080	102,121	-0,047	0,040
-443,065	91,289	0,138	-0,113
-442,051	-72,005	0,024	0,006
-441,036	-124,402	0,119	-0,013
-440,022	249,990	0,039	0,049
-439,007	226,844	0,097	-0,115
-437,992	-128,698	0,123	0,012
-436,978	-52,650	-0,029	-0,010
-435,963	-26,388	-0,067	0,029
-434,949	-200,000	0,004	-0,119
-433,934	-94,669	-0,097	-0,019
-432,919	-34,791	-0,024	0,010
-431,905	-76,172	-0,038	0,010
-430,890	-70,734	0,099	0,027
-429,876	-94,979	0,014	-0,003
-428,861	205,328	0,057	0,064
-427,846	526,643	-0,076	0,131
-426,832	-90,003	-0,052	-0,011
-425,817	215,444	-0,102	0,118
-424,803	800,000	0,035	0,077
-423,788	20,874	0,132	0,077
-422,773	613,577	0,020	0,037
-421,759	-9,604	-0,080	0,039
-420,744	-200,000	0,010	-0,077
-419,730	-200,000	0,012	0,079
-418,715	800,000	-0,070	-0,147
-417,701	667,140	0,052	0,098
-416,686	-200,000	0,000	0,055
-415,671	195,759	0,045	0,050
-414,657	-3,998	0,139	0,070
-413,642	-42,236	0,129	-0,048
-412,628	-200,000	-0,033	-0,148
-411,613	459,154	-0,023	0,038
-410,598	-200,000	-0,020	-0,094
-409,584	29,562	0,072	0,044
-408,569	204,858	-0,027	-0,031
-407,555	173,568	0,101	0,106
-406,540	36,125	-0,090	-0,057
-405,525	-49,343	-0,138	-0,048
-404,511	185,232	-0,004	-0,004
-403,496	-200,000	-0,003	0,011
-402,482	800,000	0,036	0,098
-401,467	-200,000	0,001	0,090
-400,452	68,717	0,012	0,009
-399,438	-104,754	-0,096	0,016
-398,423	90,737	0,060	0,049
-397,409	144,461	-0,056	-0,055
-396,394	800,000	-0,040	-0,096
-395,379	-101,522	-0,079	-0,014
-394,365	111,675	0,043	0,037
-393,350	800,000	0,058	0,159
-392,336	20,602	-0,120	0,071
-391,321	800,000	0,014	0,045
-390,306	133,364	-0,139	0,131
-389,292	-11,557	-0,105	0,050
-388,277	-98,595	0,057	-0,011
-387,263	-200,000	-0,007	-0,193
-386,248	253,313	-0,061	-0,075
-385,233	308,887	0,029	0,040
-384,219	87,634	-0,030	0,024
-383,204	166,259	0,135	-0,140
-382,190	85,684	-0,030	-0,024
-381,175	599,788	0,031	0,056
-380,160	92,988	0,061	-0,050
-379,146	603,040	-0,028	-0,050
-378,131	23,282	0,053	-0,032
-377,117	800,000	-0,033	-0,086
-376,102	-6,457	-0,057	0,028
-375,088	-35,341	-0,060	0,023
-374,073	302,151	0,041	-0,055
-373,058	-200,000	-0,001	0,020
-372,044	791,795	0,063	0,127
-371,029	554,880	0,053	0,094
-370,015	-189,776	-0,155	0,001
-369,000	-12,341	-0,055	-0,026
-367,985	-69,495	-0,061	0,017
-366,971	-200,000	-0,016	0,114
-365,956	-83,284	-0,083	-0,019
-364,942	-200,000	-0,021	-0,077
-363,927	800,000	0,021	-0,056
-362,912	-167,490	0,154	0,004
-361,898	-90,881	-0,168	0,035
-360,883	-120,039	-0,062	0,008
-359,869	-12,334	0,012	-0,005
-358,854	800,000	-0,056	-0,124
-357,839	800,000	-0,041	-0,097
-356,825	-19,534	0,108	0,048
-355,810	470,697	-0,061	0,100
-354,796	261,148	0,093	0,117
-353,781	800,000	-0,034	0,076
-352,766	-200,000	0,039	0,158
-351,752	-82,728	-0,136	-0,032
-350,737	-17,627	0,037	0,017
-349,723	-16,247	0,114	0,052
-348,708	221,250	-0,035	0,041
-347,693	-61,597	-0,082	-0,025
-346,679	-127,556	0,019	0,002
-345,664	-95,027	0,071	0,014
-344,650	569,169	0,030	-0,052
-343,635	181,921	0,078	-0,083
-342,620	333,970	0,062	-0,088
-341,606	-101,446	-0,097	0,017
-340,591	800,000	-0,049	-0,115
-339,577	132,017	-0,142	0,132
-338,562	-18,799	0,130	-0,059
-337,548	800,000	0,041	0,099
-336,533	-200,000	-0,060	0,247
-335,518	442,645	-0,025	0,040
-334,504	-47,875	0,094	0,033
-333,489	-133,221	0,178	0,016
-332,475	-127,796	-0,082	0,008
-331,460	-14,883	0,074	0,034
-330,445	75,304	0,089	0,068
-329,431	655,375	0,058	0,109
-328,416	-200,000	-0,037	0,140
-327,402	-200,000	0,025	0,106
-326,387	628,761	0,062	0,114
-325,372	19,022	-0,110	-0,064
-324,358	225,914	-0,094	-0,111
-323,343	-200,000	-0,000	-0,019
-322,329	800,000	0,021	0,055
-321,314	-131,448	-0,071	-0,007
-320,299	137,797	0,116	-0,110
-319,285	391,566	-0,013	0,020
-318,270	-200,000	-0,023	-0,140
-317,256	-200,000	-0,008	-0,064
-316,241	-57,772	-0,053	0,017
-315,226	-31,933	-0,100	-0,040
-314,212	-18,059	0,081	-0,037
-313,197	630,140	-0,041	-0,075
-312,183	55,745	-0,082	0,058
-311,168	-200,000	0,015	0,059
-310,153	-62,535	-0,082	0,024
-309,139	-117,583	-0,098	0,013
-308,124	72,150	-0,162	0,122
-307,110	-21,358	-0,073	0,032
-306,095	800,000	0,035	0,085
-305,080	244,921	-0,011	0,014
-304,066	-109,456	-0,138	-0,021
-303,051	-200,000	0,026	-0,187
-302,037	-75,628	-0,086	0,022
-301,022	800,000	-0,086	-0,177
-300,008	-108,958	0,127	0,019
-298,993	-67,265	-0,052	0,015
-297,978	-98,460	0,007	0,001
-296,964	-31,316	-0,185	0,075
-295,949	-200,000	0,012	-0,053
-294,935	800,000	0,048	0,151
-293,920	170,225	-0,062	0,064
-292,905	174,912	0,064	-0,067
-291,891	201,499	-0,034	-0,038
-290,876	-200,000	-0,002	-0,019
-289,862	-133,928	0,104	0,009
-288,847	-200,000	0,009	-0,030
-287,832	-200,000	0,001	-0,036
-286,818	-28,311	0,039	0,016
-285,803	-200,000	-0,036	-0,120
-284,789	-37,955	0,099	0,038
-283,774	-44,751	0,044	0,016
-282,759	235,092	-0,042	0,050
-281,745	-200,000	0,041	-0,203
-280,730	224,109	-0,045	-0,052
-279,716	-90,569	0,026	0,005
-278,701	56,154	-0,089	0,063
-277,686	138,186	0,093	0,088
-276,672	86,875	0,105	0,084
-275,657	-92,251	-0,067	0,014
-274,643	-12,323	-0,035	-0,017
-273,628	-200,000	0,025	-0,092
-272,613	800,000	0,055	-0,121
-271,599	315,351	0,050	0,068
-270,584	-31,503	0,050	-0,020
-269,570	-11,160	-0,106	-0,051
-268,555	-45,337	-0,096	-0,034
-267,540	-200,000	-0,009	-0,109
-266,526	-107,468	-0,086	-0,014
-265,511	-200,000	-0,023	-0,077
-264,497	-101,003	0,056	0,010
-263,482	-70,582	0,020	-0,006
-262,467	-34,746	0,136	0,053
-261,453	-200,000	0,020	0,113
-260,438	-68,461	0,085	0,024
-259,424	263,938	-0,034	-0,043
-258,409	-28,309	-0,023	-0,010
-257,395	509,618	-0,060	0,102
-256,380	556,738	0,071	-0,125
-255,365	219,202	-0,024	-0,028
-254,351	45,766	0,111	-0,074
-253,336	-200,000	0,002	-0,029
-252,322	-200,000	0,063	-0,211
-251,307	-200,000	-0,027	0,115
-250,292	800,000	-0,047	0,110
-249,278	-140,731	0,070	-0,005
-248,263	72,244	0,030	0,023
-247,249	800,000	0,068	0,198
-246,234	-12,225	-0,143	-0,068
-245,219	-38,445	0,046	-0,018
-244,205	-200,000	0,033	-0,142
-243,190	122,876	0,069	0,063
-242,176	-20,352	-0,008	0,004
-241,161	579,491	0,048	-0,086
-240,146	28,666	-0,006	-0,004
-239,132	-200,000	-0,010	-0,068
-238,117	46,677	-0,070	-0,047
-237,103	-157,088	0,088	-0,004
-236,088	139,744	-0,016	-0,015
-235,073	559,564	-0,050	-0,088
-234,059	-180,813	0,109	-0,002
-233,044	263,273	-0,045	0,057
-232,030	240,734	0,054	-0,065
-231,015	-34,557	-0,106	-0,042
-230,000	294,873	0,039	-0,051
-228,986	-24,636	0,093	-0,040
-227,971	185,249	-0,076	0,081
-226,957	-55,450	0,057	0,019
-225,942	800,000	-0,048	0,126
-224,927	-118,268	0,053	-0,007
-223,913	-200,000	-0,022	-0,086
-222,898	-139,291	0,065	-0,005
-221,884	10,157	-0,098	-0,054
-220,869	57,076	0,049	0,035
-219,855	94,998	0,054	0,045
-218,840	42,798	-0,035	-0,023
-217,825	431,128	0,073	0,115
-216,811	-200,000	-0,013	-0,066
-215,796	-152,796	0,042	0,002
-214,782	407,008	-0,029	0,044
-213,767	-200,000	0,003	-0,018
-212,752	800,000	0,035	0,085
-211,738	-86,757	-0,049	-0,011
-210,723	-200,000	-0,005	-0,026
-209,709	-23,168	-0,021	-0,009
-208,694	800,000	-0,004	-0,011
-207,679	86,510	-0,118	0,094
-206,665	-106,880	0,093	-0,015
-205,650	166,743	0,088	-0,091
-204,636	-168,959	-0,047	-0,001
-203,621	59,136	-0,093	-0,066
-202,606	-152,201	-0,045	0,002
-201,592	800,000	0,032	0,072
-200,577	-200,000	-0,017	-0,128
-199,563	78,650	0,080	-0,062
-198,548	800,000	-0,013	-0,036
-197,533	-200,000	0,020	0,171
-196,519	-200,000	0,005	0,070
-195,504	-200,000	-0,037	-0,169
-194,490	800,000	0,015	-0,041
-193,475	306,734	-0,071	-0,095
-192,460	800,000	-0,009	-0,017
-191,446	-16,646	-0,076	0,035
-190,431	-200,000	-0,005	0,041
-189,417	37,749	-0,085	0,054
-188,402	-117,754	-0,069	-0,009
-187,387	-26,675	0,171	-0,072
-186,373	-114,331	0,039	0,005
-185,358	-22,051	-0,133	0,058
-184,344	580,560	0,017	-0,030
-183,329	-76,677	-0,065	0,016
-182,315	223,913	0,096	0,112
-181,300	349,531	0,066	0,094
-180,285	-0,883	0,034	0,017
-179,271	-200,000	-0,017	0,057
-178,256	391,239	-0,066	0,100
-177,242	1,443	0,039	0,020
-176,227	11,009	-0,139	0,076
-175,212	-44,681	0,155	0,056
-174,198	-200,000	-0,009	-0,046
-173,183	561,468	-0,073	0,127
-172,169	81,585	0,054	-0,042
-171,154	-200,000	-0,024	0,127
-170,139	-14,510	0,072	0,033
-169,125	47,063	-0,030	0,020
-168,110	260,873	0,121	0,151
-167,096	74,157	0,061	-0,046
-166,081	-96,754	-0,046	-0,009
-165,066	-84,579	0,101	0,023
-164,052	-106,856	-0,189	0,030
-163,037	12,389	0,090	0,050
-162,023	-200,000	-0,012	0,159
-161,008	-200,000	-0,008	0,038
-159,993	61,274	-0,055	0,039
-158,979	-200,000	0,018	-0,079
-157,964	800,000	-0,039	-0,089
-156,950	230,177	-0,053	0,062
-155,935	-42,989	0,159	-0,058
-154,920	-200,000	-0,024	-0,098
-153,906	5,734	0,121	-0,064
-152,891	105,246	-0,063	-0,054
-151,877	-137,680	-0,085	0,007
-150,862	-125,651	-0,106	-0,011
-149,847	-200,000	-0,012	0,056
-148,833	-200,000	-0,010	-0,059
-147,818	185,131	0,071	0,076
-146,804	350,202	-0,020	-0,028
-145,789	-200,000	-0,011	-0,071
-144,775	-200,000	0,002	-0,150
-143,760	-200,000	0,001	0,016
-142,745	-200,000	-0,004	-0,115
-141,731	800,000	-0,021	-0,051
-140,716	800,000	0,041	0,109
-139,702	-143,129	-0,050	-0,003
-138,687	340,317	0,067	-0,095
-137,672	-200,000	-0,017	-0,060
-136,658	-200,000	-0,015	-0,071
-135,643	800,000	0,013	-0,039
-134,629	-200,000	0,004	-0,257
-133,614	-200,000	0,004	-0,044
-132,599	-200,000	0,002	0,053
-131,585	-131,531	-0,075	-0,007
-130,570	-76,953	-0,160	-0,040
-129,556	800,000	-0,032	-0,072
-128,541	-28,908	-0,166	-0,068
-127,526	-200,000	-0,002	-0,079
-126,512	-62,985	0,212	-0,063
-125,497	80,774	-0,140	-0,109
-124,483	109,591	-0,072	-0,062
-123,468	800,000	-0,028	0,086
-122,453	444,111	-0,073	-0,115
-121,439	123,101	-0,085	-0,077
-120,424	800,000	0,063	0,181
-119,410	-161,018	0,042	-0,002
-118,395	287,547	-0,033	0,043
-117,380	-200,000	0,025	-0,182
-116,366	-200,000	-0,023	-0,091
-115,351	380,050	-0,023	-0,034
-114,337	-35,835	-0,075	0,029
-113,322	-188,909	-0,057	-0,000
-112,307	-134,281	0,059	0,005
-111,293	-45,502	0,036	0,013
-110,278	-7,631	-0,069	0,033
-109,264	-200,000	-0,023	-0,126
-108,249	199,109	-0,019	-0,021
-107,234	554,599	0,046	-0,080
-106,220	-24,773	-0,106	-0,045
-105,205	800,000	0,047	0,116
-104,191	-193,199	-0,307	0,002
-103,176	800,000	0,034	0,105
-102,162	-200,000	-0,033	0,168
-101,147	34,646	-0,128	-0,080
-100,132	-200,000	0,003	-0,102
-99,118	800,000	0,008	-0,020
-98,103	-200,000	0,004	0,066
-97,089	89,961	-0,048	-0,038
-96,074	125,764	0,153	0,139
-95,059	-200,000	0,001	0,086
-94,045	240,876	-0,051	-0,061
-93,030	-200,000	-0,007	-0,170
-92,016	800,000	0,016	-0,049
-91,001	-200,000	0,019	-0,176
-89,986	183,883	-0,040	0,043
-88,972	250,648	0,061	0,074
-87,957	-104,358	-0,017	-0,003
-86,943	-51,318	-0,049	-0,016
-85,928	-200,000	-0,020	-0,177
-84,913	476,010	-0,026	-0,043
-83,899	661,909	0,038	-0,071
-82,884	50,535	0,006	0,004
-81,870	-100,841	-0,141	0,025
-80,855	-200,000	-0,010	0,038
-79,840	171,539	-0,050	0,051
-78,826	-136,256	-0,070	0,006
-77,811	-5,766	-0,060	0,029
-76,797	775,983	0,031	0,060
-75,782	-200,000	-0,037	0,190
-74,767	-18,932	0,051	0,023
-73,753	-200,000	0,004	0,176
-72,738	-161,336	-0,120	-0,004
-71,724	298,812	-0,062	-0,082
-70,709	92,472	-0,076	-0,061
-69,694	-75,705	-0,083	0,021
-68,680	-200,000	0,011	-0,075
-67,665	-200,000	0,016	0,090
-66,651	800,000	-0,041	0,109
-65,636	154,660	0,053	0,052
-64,622	-200,000	0,010	-0,174
-63,607	20,413	-0,073	-0,042
-62,592	-200,000	0,000	-0,040
-61,578	118,185	0,026	-0,023
-60,563	-200,000	-0,025	-0,145
-59,549	375,176	0,010	-0,015
-58,534	19,661	-1,968	-1,135
-57,519	800,000	-0,315	-0,933
-56,505	-200,000	-1,275	-4,933
-55,490	-53,846	0,773	0,252
-54,476	800,000	5,411	12,179
-53,461	-200,000	17,452	284,116
-52,446	800,000	722,602	2214,838
-51,432	534,919	1635,116	2795,039
-50,417	111,352	1627,223	1408,388
-49,403	74,669	1284,909	969,761
-48,388	32,505	1029,476	637,395
-47,373	19,996	991,515	572,544
-46,359	18,635	979,490	561,102
-45,344	16,178	975,761	550,881
-44,330	16,395	974,215	550,701
-43,315	15,905	972,627	548,174
-42,300	15,890	971,513	547,478
-41,286	15,887	970,442	546,841
-40,271	15,902	969,448	546,308
-39,257	15,929	968,452	545,815
-38,242	15,930	967,716	545,380
-37,227	15,933	966,852	544,883
-36,213	15,937	966,030	544,410
-35,198	15,902	965,038	543,717
-34,184	15,920	964,430	543,412
-33,169	15,901	963,251	542,663
-32,154	15,895	962,511	542,204
-31,140	15,882	961,598	541,626
-30,125	15,898	960,912	541,271
-29,111	15,908	960,027	540,783
-28,096	15,938	959,450	540,533
-27,082	15,872	958,904	539,991
-26,067	15,961	957,940	539,716
-25,052	15,876	957,278	539,045
-24,038	15,888	956,483	538,614
-23,023	15,889	955,834	538,231
-22,009	15,930	955,122	537,943
-20,994	15,906	954,676	537,593
-19,979	15,914	954,017	537,224
-18,965	15,954	953,241	536,896
-17,950	15,949	952,587	536,489
-16,936	15,915	951,948	535,998
-15,921	15,907	951,508	535,705
-14,906	15,763	950,796	534,821
-13,892	15,752	950,325	534,502
-12,877	15,754	949,436	533,987
-11,863	15,739	948,934	533,636
-10,848	15,812	948,294	533,488
-9,833	15,915	947,731	533,477
-8,819	15,862	947,052	532,903
-7,804	15,814	946,655	532,506
-6,790	15,798	945,847	531,981
-5,775	15,766	945,532	531,681
-4,760	15,862	944,775	531,539
-3,746	15,830	943,935	530,945
-2,731	15,672	943,538	530,198
-1,717	15,615	942,965	529,673
-0,702	15,661	942,302	529,427
0,313	15,483	941,439	529,177
1,327	18,881	939,613	538,839
2,342	28,092	793,404	479,362
3,356	24,794	446,747	264,988
4,371	-4,982	296,446	145,975
5,386	-8,840	277,923	133,174
6,400	-10,021	272,307	129,370
7,415	-10,298	270,000	128,006
8,429	-10,231	268,505	127,347
9,444	-10,218	267,621	126,929
10,459	-10,135	267,057	126,726
11,473	-10,266	266,334	126,252
12,488	-10,512	265,888	125,805
13,502	-10,624	265,300	125,414
14,517	-10,637	265,016	125,257
15,531	-10,575	264,554	125,084
16,546	-10,519	264,050	124,885
17,561	-10,435	263,697	124,783
18,575	-10,409	263,404	124,656
19,590	-10,629	262,993	124,252
20,604	-10,524	262,632	124,166
21,619	-10,539	262,460	124,060
22,634	-10,575	262,108	123,849
23,648	-10,547	261,670	123,657
24,663	-10,674	261,490	123,447
25,677	-10,557	261,101	123,358
26,692	-10,597	260,949	123,239
27,707	-10,509	260,722	123,199
28,721	-10,740	260,507	122,881
29,736	-10,744	260,112	122,680
30,750	-10,720	259,916	122,597
31,765	-10,826	259,725	122,403
32,780	-10,789	259,451	122,295
33,794	-10,770	259,227	122,196
34,809	-10,704	258,977	122,125
35,823	-10,670	258,693	122,011
36,838	-10,836	258,300	121,668
37,853	-10,770	258,273	121,702
38,867	-10,903	258,057	121,473
39,882	-10,724	257,659	121,432
40,896	-10,740	257,431	121,300
41,911	-10,697	257,222	121,228
42,926	-10,876	257,194	121,047
43,940	-10,957	256,845	120,801
44,955	-10,947	256,525	120,648
45,969	-10,898	256,414	120,628
46,984	-11,089	256,085	120,296
47,999	-11,604	255,960	119,776
49,013	-11,389	255,530	119,752
50,028	-11,707	255,288	119,351
51,042	-11,600	255,008	119,302
52,057	-11,659	254,733	119,112
53,071	-11,650	254,534	119,016
54,086	-11,470	254,446	119,121
55,101	-11,356	254,324	119,151
56,115	-11,041	254,235	119,372
57,130	-10,771	254,106	119,535
58,144	-10,479	253,924	119,692
59,159	-10,448	253,718	119,611
60,174	-10,411	253,469	119,514
61,188	-10,609	253,266	119,238
62,203	-10,615	253,049	119,119
63,217	-10,607	252,804	119,001
64,232	-10,690	252,642	118,843
65,247	-10,677	252,525	118,788
66,261	-10,614	252,135	118,647
67,276	-10,901	251,975	118,315
68,290	-10,971	251,655	118,095
69,305	-11,292	251,292	117,639
70,320	-11,364	251,335	117,587
71,334	-10,877	251,030	117,850
72,349	-10,436	250,788	118,103
73,363	-10,451	250,771	118,071
74,378	-10,456	250,522	117,939
75,393	-10,419	250,226	117,821
76,407	-10,531	249,971	117,595
77,422	-10,609	249,704	117,392
78,436	-10,653	249,768	117,375
79,451	-10,584	249,411	117,255
80,466	-10,837	249,155	116,910
81,480	-10,935	248,853	116,675
82,495	-10,869	248,683	116,640
83,509	-10,876	248,529	116,552
84,524	-11,002	248,436	116,392
85,539	-11,091	248,216	116,203
86,553	-11,165	247,989	116,024
87,568	-10,995	247,725	116,034
88,582	-10,932	247,527	115,983
89,597	-11,148	247,360	115,713
90,611	-10,839	247,351	115,958
91,626	-10,720	247,177	115,966
92,641	-10,771	247,095	115,874
93,655	-10,620	246,700	115,806
94,670	-10,784	246,523	115,575
95,684	-10,763	246,352	115,502
96,699	-10,870	246,187	115,325
97,714	-11,014	245,961	115,088
98,728	-10,998	245,665	114,953
99,743	-11,176	245,465	114,701
100,757	-11,106	245,308	114,675
101,772	-10,994	245,047	114,637
102,787	-11,055	244,920	114,516
103,801	-10,997	244,818	114,506
104,816	-10,757	244,571	114,580
105,830	-10,850	244,517	114,467
106,845	-10,634	244,392	114,577
107,860	-10,770	244,078	114,307
108,874	-11,046	244,014	114,038
109,889	-10,968	243,742	113,965
110,903	-10,972	243,536	113,856
111,918	-11,013	243,197	113,654
112,933	-10,992	243,253	113,687
113,947	-10,748	242,952	113,737
114,962	-10,725	242,839	113,693
115,976	-10,945	242,830	113,498
116,991	-10,914	242,440	113,330
118,006	-10,787	242,258	113,340
119,020	-10,876	242,278	113,266
120,035	-10,669	242,108	113,347
121,049	-10,677	241,881	113,224
122,064	-10,796	241,748	113,053
123,079	-10,803	241,482	112,913
124,093	-10,829	241,211	112,755
125,108	-10,943	240,927	112,520
126,122	-11,221	240,734	112,192
127,137	-11,364	240,576	111,992
128,151	-11,138	240,411	112,089
129,166	-11,001	240,248	112,115
130,181	-11,287	240,126	111,815
131,195	-11,187	239,900	111,781
132,210	-11,094	239,813	111,807
133,224	-10,755	239,705	112,021
134,239	-10,929	239,486	111,768
135,254	-10,773	239,326	111,810
136,268	-10,888	239,131	111,616
137,283	-11,177	238,721	111,181
138,297	-11,180	238,531	111,080
139,312	-11,278	238,267	110,868
140,327	-10,855	238,369	111,247
141,341	-10,453	238,273	111,517
142,356	-10,306	238,173	111,578
143,370	-10,464	238,039	111,378
144,385	-10,297	237,832	111,406
145,400	-10,323	237,593	111,263
146,414	-10,293	237,393	111,183
147,429	-10,650	237,363	110,872
148,443	-10,393	237,139	110,964
149,458	-10,429	236,906	110,817
150,473	-10,493	236,793	110,702
151,487	-10,283	236,483	110,716
152,502	-10,523	236,313	110,435
153,516	-10,461	236,311	110,473
154,531	-10,530	236,074	110,298
155,546	-10,513	235,910	110,225
156,560	-10,580	235,770	110,096
157,575	-10,754	235,472	109,808
158,589	-10,524	235,341	109,921
159,604	-10,364	235,190	109,968
160,619	-10,475	235,234	109,890
161,633	-10,343	234,962	109,859
162,648	-10,150	234,736	109,895
163,662	-10,080	234,507	109,834
164,677	-10,604	234,422	109,370
165,692	-10,538	234,506	109,451
166,706	-10,206	234,154	109,540
167,721	-10,148	233,976	109,493
168,735	-10,023	233,935	109,562
169,750	-10,333	233,900	109,292
170,764	-10,399	233,659	109,117
171,779	-10,351	233,410	109,029
172,794	-10,235	233,374	109,093
173,808	-10,643	233,075	108,623
174,823	-11,043	232,629	108,091
175,837	-11,082	232,598	108,037
176,852	-10,669	232,470	108,292
177,867	-10,380	232,392	108,472
178,881	-10,186	232,338	108,590
179,896	-10,258	232,157	108,439
180,910	-10,121	231,904	108,418
181,925	-10,199	231,794	108,296
182,940	-10,187	231,677	108,241
183,954	-10,081	231,488	108,226
184,969	-10,218	231,417	108,076
185,983	-9,995	231,228	108,152
186,998	-10,168	231,162	107,977
188,013	-10,255	230,945	107,799
189,027	-10,045	230,882	107,923
190,042	-10,276	230,697	107,647
191,056	-10,121	230,485	107,659
192,071	-10,056	230,379	107,650
193,086	-10,125	230,130	107,471
194,100	-9,867	229,907	107,557
195,115	-10,432	229,791	107,055
196,129	-10,092	229,852	107,338
197,144	-5,185	231,439	111,891
198,159	0,226	233,017	116,875
199,173	3,247	233,829	119,635
200,188	3,363	233,865	119,734
201,202	3,467	233,524	119,630
202,217	3,868	233,313	119,824
203,232	3,935	233,369	119,894
204,246	4,065	233,169	119,881
205,261	4,164	233,050	119,887
206,275	4,350	232,916	119,952
207,290	4,210	232,801	119,773
208,304	4,091	232,695	119,615
209,319	4,279	232,358	119,577
210,334	4,101	232,182	119,338
211,348	3,659	232,163	118,975
212,363	3,457	231,665	118,553
213,377	3,129	231,733	118,323
214,392	3,247	231,424	118,246
215,407	3,369	231,383	118,309
216,421	3,507	231,239	118,332
217,436	3,609	230,972	118,263
218,450	3,047	230,859	117,762
219,465	3,258	230,529	117,745
220,480	3,326	230,456	117,749
221,494	3,088	230,413	117,535
222,509	3,349	230,395	117,715
223,523	3,431	230,179	117,657
224,538	3,174	229,973	117,344
225,553	3,234	229,778	117,280
226,567	3,462	229,671	117,390
227,582	3,679	229,603	117,511
228,596	3,727	229,444	117,455
229,611	3,524	229,211	117,170
230,626	3,217	228,956	116,795
231,640	3,178	228,926	116,741
232,655	3,460	228,798	116,879
233,669	3,848	229,012	117,275
234,684	4,042	228,710	117,257
235,699	3,713	228,364	116,819
236,713	3,665	228,224	116,700
237,728	3,173	228,093	116,249
238,742	3,207	227,826	116,128
239,757	3,208	227,573	115,990
240,772	3,327	227,547	116,057
241,786	3,474	227,347	116,055
242,801	3,507	227,214	116,003
243,815	3,709	227,252	116,164
244,830	3,662	227,184	116,083
245,844	3,581	226,797	115,814
246,859	3,535	226,856	115,799
247,874	3,801	226,478	115,796
248,888	3,632	226,375	115,606
249,903	3,553	226,162	115,428
250,917	3,331	226,115	115,226
251,932	3,454	226,044	115,272
252,947	3,346	225,824	115,069
253,961	3,354	225,525	114,912
254,976	3,287	225,524	114,852
255,990	3,696	225,402	115,085
257,005	3,543	225,334	114,926
258,020	3,645	225,206	114,927
259,034	3,653	225,056	114,846
260,049	3,774	224,921	114,857
261,063	3,671	224,575	114,594
262,078	3,849	224,559	114,708
263,093	3,973	224,531	114,776
264,107	3,744	224,323	114,489
265,122	3,767	224,281	114,474
266,136	3,838	224,102	114,426
267,151	3,893	223,903	114,355
268,166	3,260	223,716	113,778
269,180	3,151	223,468	113,561
270,195	3,322	223,229	113,556
271,209	3,260	223,161	113,465
272,224	3,382	223,113	113,521
273,239	3,385	222,906	113,408
274,253	3,161	222,793	113,175
275,268	3,179	222,503	113,031
276,282	2,969	222,446	112,837
277,297	2,945	222,341	112,755
278,312	3,142	222,198	112,818
279,326	3,329	222,089	112,891
280,341	3,342	222,040	112,866
281,355	3,305	221,836	112,724
282,370	3,401	221,582	112,656
283,384	2,965	221,557	112,313
284,399	3,100	221,210	112,225
285,414	3,162	221,029	112,169
286,428	3,297	221,130	112,309
287,443	3,310	220,998	112,242
288,457	3,549	220,901	112,358
289,472	3,212	220,787	112,043
290,487	2,879	220,381	111,584
291,501	2,942	220,190	111,523
292,516	3,015	220,051	111,496
293,530	2,932	220,016	111,407
294,545	3,147	219,979	111,536
295,560	3,223	219,859	111,521
296,574	3,383	219,718	111,555
297,589	3,481	219,416	111,463
298,603	3,271	219,348	111,266
299,618	3,556	219,371	111,475
300,633	3,400	219,254	111,292
301,647	3,683	219,119	111,420
302,662	3,649	219,032	111,341
303,676	3,664	218,764	111,206
304,691	3,396	218,767	111,003
305,706	3,414	218,564	110,903
306,720	3,506	218,244	110,797
307,735	3,269	218,067	110,527
308,749	3,243	217,976	110,452
309,764	3,554	217,831	110,593
310,779	3,502	217,718	110,488
311,793	3,561	217,602	110,462
312,808	3,558	217,417	110,356
313,822	3,389	217,296	110,163
314,837	3,327	216,999	109,958
315,852	3,130	217,023	109,819
316,866	3,218	216,869	109,795
317,881	3,621	216,713	109,995
318,895	3,404	216,639	109,792
319,910	3,298	216,351	109,560
320,925	3,151	216,177	109,357
321,939	2,761	216,015	108,987
322,954	3,239	216,000	109,311
323,968	3,725	215,979	109,638
324,983	3,601	215,959	109,529
325,997	3,658	215,906	109,533
327,012	3,500	215,551	109,230
328,027	3,531	215,444	109,189
329,041	3,649	215,404	109,243
330,056	3,547	215,408	109,162
331,070	3,483	214,950	108,875
332,085	3,273	214,760	108,620
333,100	3,393	214,497	108,563
334,114	3,371	214,495	108,536
335,129	3,534	214,483	108,636
336,143	3,262	214,337	108,360
337,158	3,148	214,209	108,204
338,173	3,355	214,001	108,236
339,187	3,147	213,914	108,036
340,202	3,164	213,710	107,935
341,216	3,211	213,460	107,832
342,231	3,235	213,340	107,779
343,246	3,055	213,335	107,640
344,260	3,079	213,220	107,590
345,275	3,095	213,062	107,511
346,289	3,533	212,937	107,746
347,304	3,611	212,829	107,737
348,319	3,499	212,640	107,553
349,333	3,611	212,566	107,584
350,348	3,657	212,433	107,540
351,362	3,541	212,391	107,427
352,377	3,947	212,122	107,566
353,392	3,485	211,976	107,159
354,406	3,612	211,889	107,195
355,421	197,204	1340,109	1424,216
356,435	157,608	1477,553	1424,203
