DTS Sentinel unit serial number:	SN410029Multiplexer serial number:	ORYXHardware model number:	OX2-SRSoftware version number:	ORYX F/W v4,00 Oryx Data Collector v3.7.2.0data status	okinstallation	B6 Nyhavnadifferential loss correction	single-endedforward channel	channel 2reverse channel	N/Adate	2023/12/09time	10:15:08forward acquisition time	300,00reverse acquisition time	0,00gamma	499,1914k internal	0,3139k external	0,3139temperature offset calibration	1,0000default loss term (dB/km)	0,3820temperature slope calibration	1,0000multiplexer offset coefficient	1,0000multiplexer slope coefficient	1,0000fibre end	0,00T internal ref (°C)	18,52T ext. ref 1 (°C)	2,18T ext. ref 2 (°C)	2,17length (m)	temperature (°C)	Stokes	anti-Stokes-744,400	77,780	0,135	-0,107
-743,385	-107,297	-0,252	-0,041
-742,371	-200,000	-0,009	-0,053
-741,356	-5,525	-0,178	0,090
-740,342	-200,000	0,032	0,152
-739,327	-26,834	-0,240	0,104
-738,312	220,841	0,133	-0,158
-737,298	94,029	-0,145	-0,122
-736,283	47,036	0,087	-0,060
-735,269	-141,870	-0,273	-0,020
-734,254	-5,890	0,053	0,027
-733,239	-126,198	-0,463	-0,051
-732,225	180,983	0,068	0,074
-731,210	194,005	-0,022	-0,025
-730,196	58,432	-0,091	-0,066
-729,181	800,000	-0,029	-0,074
-728,167	92,493	0,025	-0,021
-727,152	514,339	-0,033	-0,057
-726,137	-200,000	0,013	-0,058
-725,123	75,019	-0,054	0,042
-724,108	800,000	-0,067	-0,203
-723,094	69,768	-0,047	0,036
-722,079	45,156	-0,075	-0,051
-721,064	224,249	0,046	-0,056
-720,050	-200,000	0,002	0,029
-719,035	388,367	0,045	0,069
-718,021	-176,741	-0,088	0,002
-717,006	295,988	-0,123	-0,168
-715,991	-134,831	-0,100	-0,009
-714,977	-60,000	0,165	0,052
-713,962	62,614	-0,136	0,101
-712,948	-200,000	0,035	0,000
-711,933	-69,463	0,142	-0,040
-710,918	800,000	-0,060	-0,125
-709,904	800,000	-0,041	-0,087
-708,889	-200,000	-0,014	0,154
-707,875	105,019	-0,045	-0,039
-706,860	-200,000	0,019	-0,123
-705,845	84,438	-0,070	-0,057
-704,831	-200,000	0,031	0,139
-703,816	181,074	0,002	-0,002
-702,802	579,432	-0,025	-0,045
-701,787	-200,000	-0,015	-0,053
-700,772	12,145	-0,060	0,034
-699,758	-91,181	0,076	-0,016
-698,743	800,000	0,069	-0,168
-697,729	-168,845	-0,103	0,003
-696,714	800,000	0,007	0,021
-695,699	208,487	-0,034	-0,040
-694,685	-200,000	-0,005	-0,064
-693,670	800,000	-0,042	-0,103
-692,656	-59,365	-0,053	-0,017
-691,641	44,945	-0,049	-0,033
-690,627	-200,000	-0,002	0,062
-689,612	-200,000	0,015	-0,141
-688,597	141,117	-0,096	-0,094
-687,583	-200,000	0,018	-0,073
-686,568	30,865	-0,154	-0,098
-685,554	92,205	0,042	0,035
-684,539	19,689	0,138	0,082
-683,524	272,458	0,007	0,009
-682,510	309,598	0,075	-0,104
-681,495	-123,806	-0,136	-0,016
-680,481	360,944	-0,077	-0,114
-679,466	-105,606	-0,073	-0,012
-678,451	167,318	-0,093	-0,098
-677,437	-9,653	0,064	-0,032
-676,422	-89,396	-0,119	0,026
-675,408	534,575	0,009	-0,016
-674,393	3,412	-0,109	-0,059
-673,378	253,748	0,083	-0,105
-672,364	800,000	-0,040	-0,088
-671,349	33,719	0,099	-0,063
-670,335	88,319	0,088	-0,072
-669,320	-137,641	0,009	-0,001
-668,305	591,210	-0,073	0,134
-667,291	800,000	0,022	-0,069
-666,276	0,205	-0,080	-0,042
-665,262	3,028	0,040	-0,022
-664,247	87,626	-0,054	-0,044
-663,232	-200,000	0,002	-0,034
-662,218	-48,074	-0,079	-0,028
-661,203	-96,307	0,056	-0,011
-660,189	-192,369	-0,123	-0,001
-659,174	-200,000	-0,026	-0,112
-658,159	-67,993	0,106	-0,030
-657,145	217,407	-0,061	-0,072
-656,130	800,000	-0,046	0,144
-655,116	117,313	-0,059	-0,053
-654,101	800,000	0,050	0,113
-653,086	34,648	-0,153	0,098
-652,072	-188,812	0,102	0,001
-651,057	-90,329	-0,203	0,043
-650,043	145,306	-0,014	-0,014
-649,028	-122,481	-0,134	-0,016
-648,014	17,707	0,155	-0,091
-646,999	-75,755	0,121	0,031
-645,984	-147,476	-0,034	0,002
-644,970	-200,000	0,008	-0,044
-643,955	-200,000	0,016	-0,127
-642,941	-100,793	-0,043	-0,008
-641,926	800,000	0,010	0,030
-640,911	800,000	-0,059	-0,140
-639,897	13,179	-0,075	0,043
-638,882	188,996	-0,055	0,060
-637,868	-85,017	-0,120	-0,028
-636,853	192,396	-0,065	-0,073
-635,838	-152,771	-0,106	-0,005
-634,824	-200,000	-0,058	-0,222
-633,809	136,481	0,094	-0,091
-632,795	75,902	-0,041	-0,032
-631,780	-200,000	0,006	-0,084
-630,765	-96,984	-0,244	0,047
-629,751	213,620	0,101	-0,118
-628,736	145,065	-0,043	-0,042
-627,722	-146,171	-0,222	-0,014
-626,707	-200,000	-0,013	0,097
-625,692	-200,000	-0,011	0,148
-624,678	-8,562	0,086	0,043
-623,663	-24,599	0,101	-0,044
-622,649	-97,036	-0,162	0,031
-621,634	361,130	0,031	0,045
-620,619	64,366	-0,074	0,055
-619,605	800,000	0,029	-0,071
-618,590	-68,732	-0,107	0,030
-617,576	-131,001	0,106	-0,010
-616,561	-128,519	-0,102	0,011
-615,546	495,584	-0,019	0,032
-614,532	429,728	-0,097	-0,156
-613,517	15,310	0,024	0,014
-612,503	-128,030	-0,121	0,013
-611,488	-200,000	0,031	0,191
-610,474	386,325	0,087	0,134
-609,459	-200,000	-0,017	0,059
-608,444	-200,000	-0,013	-0,065
-607,430	568,721	0,041	0,075
-606,415	-148,736	0,092	0,005
-605,401	77,796	-0,047	0,037
-604,386	365,898	0,064	0,095
-603,371	75,459	0,112	-0,087
-602,357	800,000	-0,042	-0,125
-601,342	67,125	-0,016	-0,012
-600,328	-53,039	-0,078	-0,026
-599,313	345,188	-0,053	-0,077
-598,298	416,257	0,081	0,128
-597,284	271,798	0,010	-0,013
-596,269	-131,545	0,035	-0,003
-595,255	800,000	0,024	0,078
-594,240	100,920	-0,119	-0,102
-593,225	800,000	-0,054	-0,152
-592,211	92,984	-0,171	-0,142
-591,196	-95,452	0,070	0,014
-590,182	101,063	-0,004	0,004
-589,167	167,192	-0,144	-0,151
-588,152	25,964	0,125	-0,077
-587,138	-30,530	0,146	0,061
-586,123	-200,000	-0,017	0,096
-585,109	-2,210	0,068	0,035
-584,094	-200,000	-0,013	-0,059
-583,079	35,846	0,032	-0,021
-582,065	144,563	0,053	-0,052
-581,050	-200,000	-0,046	0,000
-580,036	-75,378	-0,279	0,073
-579,021	68,758	0,024	-0,018
-578,006	658,004	0,015	-0,029
-576,992	30,121	0,105	0,066
-575,977	-200,000	-0,043	0,147
-574,963	-21,098	-0,051	0,023
-573,948	25,309	-0,191	0,116
-572,934	128,827	0,067	-0,063
-571,919	-10,327	-0,052	0,025
-570,904	-41,846	-0,134	-0,050
-569,890	339,663	0,065	-0,094
-568,875	800,000	0,037	0,109
-567,861	-79,647	-0,091	0,022
-566,846	-117,964	0,147	-0,019
-565,831	662,253	0,038	0,073
-564,817	195,435	-0,107	0,119
-563,802	105,345	-0,035	-0,030
-562,788	-200,000	0,005	-0,059
-561,773	-200,000	0,032	-0,106
-560,758	-39,923	-0,104	-0,040
-559,744	177,273	0,063	0,067
-558,729	716,704	0,029	0,056
-557,715	-62,107	-0,048	0,015
-556,700	188,433	0,033	0,036
-555,685	-200,000	-0,017	0,128
-554,671	162,569	0,047	-0,049
-553,656	800,000	0,029	0,071
-552,642	800,000	-0,015	0,040
-551,627	-200,000	0,008	0,030
-550,612	-200,000	-0,001	-0,098
-549,598	-200,000	-0,033	-0,137
-548,583	28,975	0,075	0,047
-547,569	-116,446	0,123	-0,017
-546,554	800,000	0,031	0,084
-545,539	17,951	0,030	0,018
-544,525	-200,000	-0,003	0,038
-543,510	194,167	0,081	0,091
-542,496	-200,000	0,007	-0,152
-541,481	584,990	-0,028	-0,052
-540,466	168,684	-0,110	-0,115
-539,452	800,000	0,052	0,127
-538,437	208,685	-0,055	0,063
-537,423	-61,749	0,150	-0,046
-536,408	35,463	-0,073	0,047
-535,393	-8,988	-0,039	-0,019
-534,379	-200,000	0,000	-0,060
-533,364	-13,241	0,147	0,070
-532,350	-26,439	0,130	0,056
-531,335	-200,000	0,029	0,120
-530,321	-106,358	0,060	-0,010
-529,306	800,000	-0,021	-0,055
-528,291	-97,178	-0,133	0,025
-527,277	-41,334	0,019	0,007
-526,262	-46,894	-0,147	0,053
-525,248	-200,000	0,001	0,059
-524,233	800,000	0,061	0,127
-523,218	37,207	-0,066	0,043
-522,204	352,782	0,074	0,108
-521,189	-200,000	-0,005	-0,064
-520,175	-166,486	0,112	0,003
-519,160	-57,389	-0,052	-0,017
-518,145	-200,000	-0,007	-0,101
-517,131	-200,000	-0,007	0,077
-516,116	270,576	0,062	0,080
-515,102	255,288	0,045	-0,057
-514,087	800,000	-0,007	-0,015
-513,072	726,032	0,038	-0,075
-512,058	46,046	0,057	-0,039
-511,043	545,897	0,048	-0,085
-510,029	-183,537	0,085	-0,001
-509,014	191,829	0,084	0,093
-507,999	241,712	-0,004	0,005
-506,985	-35,101	0,131	0,052
-505,970	800,000	0,079	-0,191
-504,956	-200,000	0,005	0,059
-503,941	800,000	-0,044	0,120
-502,926	-25,499	0,025	-0,011
-501,912	18,773	0,067	-0,040
-500,897	-37,138	-0,098	0,038
-499,883	122,053	-0,094	-0,087
-498,868	-200,000	-0,030	-0,105
-497,853	155,911	-0,070	-0,071
-496,839	129,087	-0,051	-0,048
-495,824	129,019	0,060	0,056
-494,810	97,221	-0,059	-0,050
-493,795	-200,000	-0,009	-0,082
-492,781	-134,317	-0,034	-0,003
-491,766	-119,851	-0,127	-0,016
-490,751	443,522	-0,053	-0,085
-489,737	-28,431	0,035	0,015
-488,722	43,949	-0,048	-0,032
-487,708	-141,401	-0,132	-0,010
-486,693	131,464	0,068	-0,065
-485,678	-200,000	0,003	0,030
-484,664	273,352	0,045	-0,059
-483,649	54,092	-0,090	0,064
-482,635	626,312	0,095	-0,178
-481,620	800,000	-0,043	0,088
-480,605	-145,822	-0,077	-0,005
-479,591	-64,885	0,092	0,027
-478,576	529,247	-0,031	-0,054
-477,562	-36,283	-0,109	-0,043
-476,547	-200,000	0,001	-0,160
-475,532	800,000	-0,054	0,113
-474,518	81,006	0,053	-0,042
-473,503	89,499	-0,053	0,043
-472,489	-34,711	0,095	-0,038
-471,474	-200,000	-0,002	-0,034
-470,459	0,303	-0,135	0,071
-469,445	7,937	-0,186	-0,102
-468,430	-56,323	0,076	0,025
-467,416	-84,495	-0,018	-0,004
-466,401	117,950	0,079	0,072
-465,386	351,781	-0,079	0,116
-464,372	35,283	0,013	0,008
-463,357	90,888	-0,130	-0,107
-462,343	-200,000	0,001	-0,083
-461,328	-75,381	0,074	0,019
-460,313	211,798	0,112	0,129
-459,299	-132,441	0,022	0,002
-458,284	69,488	0,060	0,045
-457,270	44,458	0,062	-0,042
-456,255	-200,000	0,013	-0,116
-455,241	-200,000	-0,002	-0,157
-454,226	-200,000	0,002	-0,022
-453,211	800,000	-0,024	0,065
-452,197	148,755	0,044	-0,044
-451,182	-32,783	-0,102	-0,041
-450,168	-200,000	-0,017	0,082
-449,153	800,000	-0,045	-0,125
-448,138	-187,083	-0,022	0,000
-447,124	-200,000	0,012	-0,078
-446,109	800,000	0,011	0,024
-445,095	-80,333	-0,032	-0,008
-444,080	-141,487	0,018	-0,001
-443,065	-39,351	0,158	-0,060
-442,051	176,173	-0,099	-0,106
-441,036	-4,264	-0,111	0,056
-440,022	19,733	0,053	-0,031
-439,007	-66,887	-0,115	0,033
-437,992	-200,000	-0,012	-0,046
-436,978	-200,000	-0,007	0,038
-435,963	-50,749	-0,106	-0,036
-434,949	15,570	0,067	-0,038
-433,934	-200,000	-0,030	-0,165
-432,919	-200,000	0,008	-0,109
-431,905	-7,680	-0,072	0,035
-430,890	267,117	-0,056	0,072
-429,876	-83,194	0,025	0,006
-428,861	-200,000	-0,008	-0,047
-427,846	-48,452	0,156	0,055
-426,832	38,055	-0,064	-0,042
-425,817	-102,218	0,116	-0,020
-424,803	390,791	0,025	0,039
-423,788	233,684	0,029	0,036
-422,773	640,687	0,093	0,175
-421,759	-22,872	-0,145	0,064
-420,744	-200,000	0,109	0,000
-419,730	-200,000	0,012	-0,084
-418,715	142,891	-0,068	-0,066
-417,701	11,763	0,005	0,003
-416,686	51,079	-0,060	0,042
-415,671	-58,196	0,074	-0,023
-414,657	-116,972	0,119	0,016
-413,642	-24,281	0,053	-0,023
-412,628	235,622	-0,103	-0,125
-411,613	-200,000	-0,004	-0,063
-410,598	800,000	-0,040	-0,095
-409,584	40,024	0,081	0,053
-408,569	403,066	0,039	0,061
-407,555	-200,000	0,002	-0,092
-406,540	-200,000	-0,011	0,069
-405,525	-29,920	-0,163	-0,067
-404,511	-49,923	-0,075	-0,026
-403,496	184,259	0,072	-0,078
-402,482	216,832	0,046	0,053
-401,467	359,580	0,010	-0,015
-400,452	46,835	-0,029	0,019
-399,438	478,285	-0,050	0,083
-398,423	800,000	-0,010	-0,023
-397,409	-101,155	-0,086	-0,015
-396,394	-200,000	-0,012	-0,100
-395,379	-68,741	0,114	0,032
-394,365	-119,011	0,146	0,018
-393,350	-18,384	-0,099	0,045
-392,336	99,981	-0,120	0,101
-391,321	-93,660	-0,049	-0,010
-390,306	62,633	0,064	0,047
-389,292	-200,000	0,006	-0,119
-388,277	427,790	0,042	-0,066
-387,263	-200,000	-0,011	0,067
-386,248	-113,252	-0,034	-0,005
-385,233	-200,000	0,037	-0,184
-384,219	448,976	0,048	-0,077
-383,204	-147,079	-0,042	0,003
-382,190	64,693	0,076	-0,056
-381,175	-61,147	-0,040	0,012
-380,160	-200,000	0,022	-0,094
-379,146	238,863	0,017	0,020
-378,131	363,452	-0,020	-0,030
-377,117	-46,824	0,123	-0,044
-376,102	742,212	-0,044	-0,087
-375,088	65,564	-0,061	-0,045
-374,073	25,104	0,050	-0,031
-373,058	-200,000	0,001	0,069
-372,044	800,000	-0,041	0,125
-371,029	31,864	0,092	0,058
-370,015	94,256	0,021	-0,017
-369,000	-200,000	-0,029	-0,112
-367,985	200,738	-0,047	0,053
-366,971	170,586	0,047	-0,049
-365,956	-200,000	-0,001	-0,055
-364,942	-19,079	0,045	0,020
-363,927	-82,704	0,135	0,032
-362,912	748,244	0,025	-0,049
-361,898	-160,310	-0,080	-0,003
-360,883	731,661	-0,048	0,094
-359,869	-44,266	-0,234	0,085
-358,854	-105,561	0,100	-0,016
-357,839	285,435	-0,027	-0,036
-356,825	14,227	0,089	-0,050
-355,810	-33,759	-0,131	-0,053
-354,796	800,000	-0,031	0,076
-353,781	34,387	-0,102	-0,065
-352,766	27,200	-0,052	-0,032
-351,752	-16,420	0,046	-0,021
-350,737	222,647	0,039	0,046
-349,723	-45,191	0,026	-0,009
-348,708	-120,316	-0,066	-0,008
-347,693	211,894	0,032	0,037
-346,679	-6,751	-0,073	0,036
-345,664	-89,890	0,113	0,024
-344,650	-47,678	-0,078	-0,028
-343,635	128,524	-0,086	-0,080
-342,620	363,518	-0,009	-0,014
-341,606	336,209	-0,022	0,031
-340,591	371,619	-0,047	-0,070
-339,577	-36,644	-0,047	-0,018
-338,562	567,997	-0,051	-0,091
-337,548	800,000	0,036	0,094
-336,533	-140,835	0,169	0,013
-335,518	-200,000	0,031	0,150
-334,504	800,000	-0,028	0,077
-333,489	127,551	0,031	0,028
-332,475	61,854	0,097	0,070
-331,460	-200,000	-0,045	-0,168
-330,445	-3,528	0,042	0,021
-329,431	87,504	0,020	-0,016
-328,416	220,319	-0,069	0,081
-327,402	-200,000	-0,009	0,042
-326,387	141,074	-0,077	0,075
-325,372	117,808	-0,029	0,026
-324,358	264,624	-0,029	0,036
-323,343	-38,450	-0,074	-0,028
-322,329	387,221	0,084	0,127
-321,314	-64,983	0,116	0,034
-320,299	44,828	-0,117	0,079
-319,285	-21,104	0,115	-0,051
-318,270	-200,000	0,007	-0,135
-317,256	87,339	-0,068	-0,055
-316,241	-163,246	0,094	0,003
-315,226	-200,000	0,009	-0,046
-314,212	-159,561	0,073	-0,003
-313,197	-60,271	-0,022	0,007
-312,183	-200,000	0,029	-0,115
-311,168	366,929	-0,108	0,160
-310,153	-200,000	0,018	0,143
-309,139	-200,000	0,003	0,096
-308,124	98,815	-0,056	-0,047
-307,110	-190,483	0,075	0,001
-306,095	45,186	0,109	-0,073
-305,080	-10,179	0,090	-0,044
-304,066	-140,357	-0,125	0,009
-303,051	93,932	0,065	-0,054
-302,037	61,201	-0,054	-0,039
-301,022	505,171	-0,021	-0,036
-300,008	-200,000	-0,033	0,116
-298,993	800,000	-0,039	0,111
-297,978	376,111	-0,073	0,109
-296,964	-135,409	0,091	-0,008
-295,949	544,787	-0,036	0,062
-294,935	420,023	-0,081	0,127
-293,920	-200,000	0,027	0,093
-292,905	124,844	0,141	-0,130
-291,891	467,749	0,028	-0,047
-290,876	392,361	0,043	0,065
-289,862	-200,000	-0,003	-0,110
-288,847	800,000	-0,042	-0,088
-287,832	100,224	0,028	0,024
-286,818	-107,753	0,152	0,024
-285,803	167,095	0,106	0,110
-284,789	-200,000	-0,034	0,000
-283,774	368,266	0,109	0,161
-282,759	-7,531	-0,076	0,037
-281,745	800,000	-0,038	-0,120
-280,730	82,090	-0,104	-0,082
-279,716	800,000	-0,064	0,137
-278,701	103,788	0,123	-0,105
-277,686	299,592	-0,059	0,079
-276,672	-200,000	0,005	0,035
-275,657	-200,000	0,007	-0,041
-274,643	56,473	-0,035	0,025
-273,628	399,694	-0,019	-0,029
-272,613	800,000	0,034	-0,087
-271,599	-200,000	0,023	0,192
-270,584	-45,816	-0,047	-0,017
-269,570	120,476	0,052	-0,047
-268,555	-200,000	0,009	-0,041
-267,540	-34,119	-0,028	0,011
-266,526	-116,403	-0,042	0,006
-265,511	-200,000	-0,021	-0,134
-264,497	800,000	0,016	-0,036
-263,482	92,300	0,067	-0,055
-262,467	428,082	0,031	0,049
-261,453	-101,390	0,154	0,027
-260,438	-138,536	-0,124	-0,010
-259,424	65,516	-0,090	0,066
-258,409	-200,000	-0,010	0,080
-257,395	-200,000	-0,031	0,101
-256,380	10,513	0,112	-0,062
-255,365	292,761	-0,017	0,022
-254,351	-78,674	0,058	-0,014
-253,336	546,776	0,055	0,096
-252,322	201,350	-0,107	-0,120
-251,307	130,327	-0,027	-0,025
-250,292	-148,992	0,165	0,010
-249,278	-84,263	-0,084	0,019
-248,263	82,870	0,050	0,040
-247,249	800,000	-0,062	0,139
-246,234	-114,478	0,013	0,002
-245,219	-200,000	-0,001	-0,101
-244,205	800,000	-0,032	0,070
-243,190	-6,311	0,014	-0,007
-242,176	486,852	0,043	0,071
-241,161	36,232	0,049	0,031
-240,146	800,000	-0,034	0,086
-239,132	-200,000	0,000	0,070
-238,117	83,622	-0,114	0,090
-237,103	-95,819	0,012	0,002
-236,088	-51,733	-0,140	0,047
-235,073	305,116	0,049	0,067
-234,059	-9,924	0,151	-0,073
-233,044	11,680	-0,025	-0,014
-232,030	38,550	0,038	-0,025
-231,015	98,357	-0,095	-0,080
-230,000	596,355	0,058	0,104
-228,986	568,676	0,062	-0,111
-227,971	800,000	-0,031	0,080
-226,957	-50,133	0,083	0,029
-225,942	79,565	0,080	0,062
-224,927	-200,000	0,011	-0,126
-223,913	800,000	-0,037	0,095
-222,898	-200,000	-0,015	-0,134
-221,884	800,000	0,027	-0,078
-220,869	74,278	0,049	-0,037
-219,855	120,785	0,115	-0,104
-218,840	-200,000	-0,024	0,098
-217,825	800,000	0,032	-0,082
-216,811	800,000	0,045	-0,094
-215,796	-200,000	-0,013	0,077
-214,782	800,000	-0,004	-0,012
-213,767	-67,859	-0,058	0,016
-212,752	-200,000	-0,034	0,133
-211,738	800,000	0,046	0,101
-210,723	-99,760	-0,125	-0,023
-209,709	53,074	-0,006	-0,005
-208,694	800,000	0,009	0,028
-207,679	226,391	-0,034	-0,041
-206,665	5,138	-0,078	-0,042
-205,650	-58,830	0,116	0,036
-204,636	149,652	0,031	0,030
-203,621	353,618	0,019	0,028
-202,606	-95,253	0,036	0,007
-201,592	38,916	-0,029	0,019
-200,577	30,096	-0,063	-0,039
-199,563	-81,893	-0,052	-0,012
-198,548	-104,726	0,052	0,009
-197,533	-200,000	0,003	0,168
-196,519	-64,406	0,104	0,030
-195,504	-9,746	-0,081	0,039
-194,490	800,000	0,056	0,123
-193,475	-43,600	-0,144	-0,053
-192,460	-200,000	0,000	-0,102
-191,446	404,512	0,062	-0,095
-190,431	-175,855	0,085	0,002
-189,417	-110,317	0,073	0,011
-188,402	55,189	-0,187	-0,131
-187,387	-104,707	-0,124	0,021
-186,373	-5,880	0,036	-0,018
-185,358	35,424	0,079	0,050
-184,344	-200,000	0,018	0,100
-183,329	20,627	0,102	0,060
-182,315	-71,542	0,105	-0,028
-181,300	-200,000	-0,006	0,057
-180,285	115,790	-0,030	-0,027
-179,271	313,617	0,067	-0,092
-178,256	-154,249	0,047	0,002
-177,242	-200,000	-0,001	-0,030
-176,227	800,000	-0,035	-0,110
-175,212	-200,000	-0,000	0,046
-174,198	54,908	0,042	-0,029
-173,183	334,878	-0,031	0,043
-172,169	66,839	-0,125	-0,092
-171,154	-200,000	0,000	-0,077
-170,139	-200,000	-0,027	0,119
-169,125	81,318	0,125	0,098
-168,110	28,951	0,123	-0,075
-167,096	63,423	0,182	0,132
-166,081	-200,000	-0,044	0,142
-165,066	48,001	0,167	-0,113
-164,052	-145,816	0,044	0,003
-163,037	-200,000	0,014	0,056
-162,023	91,435	0,066	0,054
-161,008	800,000	-0,029	0,060
-159,993	-29,734	0,153	0,063
-158,979	32,302	-0,183	-0,114
-157,964	-36,134	0,074	0,029
-156,950	505,911	-0,074	-0,125
-155,935	-200,000	0,000	0,193
-154,920	-193,911	-0,061	0,000
-153,906	132,840	0,187	0,175
-152,891	704,823	-0,083	0,160
-151,877	-59,182	-0,053	0,016
-150,862	-132,780	-0,060	-0,005
-149,847	-182,601	-0,042	-0,001
-148,833	800,000	-0,013	-0,028
-147,818	-65,718	0,100	-0,029
-146,804	208,795	-0,020	0,023
-145,789	-151,732	0,035	-0,002
-144,775	-52,139	0,044	-0,015
-143,760	120,602	0,021	-0,019
-142,745	-200,000	-0,009	-0,129
-141,731	-58,631	0,055	-0,017
-140,716	-73,373	-0,080	0,021
-139,702	336,782	0,046	0,065
-138,687	-121,968	0,069	-0,008
-137,672	800,000	0,020	0,044
-136,658	388,029	-0,021	-0,031
-135,643	7,566	-0,081	0,044
-134,629	297,081	0,041	0,055
-133,614	-64,390	0,056	0,016
-132,599	-14,450	0,040	-0,019
-131,585	-11,682	0,102	0,048
-130,570	-200,000	0,022	0,135
-129,556	-85,703	-0,109	0,024
-128,541	800,000	-0,035	-0,084
-127,526	-200,000	-0,003	0,109
-126,512	-113,543	-0,033	0,005
-125,497	8,791	0,194	0,105
-124,483	116,974	0,045	0,040
-123,468	59,871	0,091	-0,065
-122,453	48,384	0,112	-0,076
-121,439	74,979	0,081	0,062
-120,424	-36,175	-0,007	0,003
-119,410	-24,485	0,060	0,026
-118,395	4,385	0,131	-0,069
-117,380	-200,000	0,035	0,127
-116,366	741,056	0,083	0,161
-115,351	800,000	-0,044	-0,112
-114,337	-200,000	-0,018	-0,135
-113,322	40,930	-0,104	-0,068
-112,307	-200,000	0,007	-0,041
-111,293	317,890	0,061	0,084
-110,278	-3,676	-0,170	0,085
-109,264	269,620	0,059	-0,075
-108,249	333,958	-0,062	0,086
-107,234	225,973	-0,035	0,042
-106,220	16,973	-0,045	-0,026
-105,205	-59,255	-0,106	0,033
-104,191	681,381	-0,039	0,074
-103,176	660,461	0,088	0,164
-102,162	32,850	-0,171	-0,107
-101,147	-200,000	-0,016	-0,116
-100,132	-200,000	0,013	-0,083
-99,118	161,538	0,081	0,082
-98,103	123,515	0,116	0,105
-97,089	800,000	0,023	-0,050
-96,074	-57,614	0,146	0,046
-95,059	-93,626	-0,187	-0,037
-94,045	-200,000	-0,028	0,150
-93,030	602,270	0,061	0,111
-92,016	-13,781	-0,074	-0,034
-91,001	-200,000	0,019	0,065
-89,986	-200,000	0,014	-0,117
-88,972	-200,000	0,002	0,047
-87,957	800,000	0,020	-0,054
-86,943	239,559	-0,016	-0,019
-85,928	-200,000	0,000	-0,117
-84,913	-200,000	0,001	0,016
-83,899	60,744	-0,151	-0,108
-82,884	449,365	0,029	0,047
-81,870	-200,000	-0,005	0,045
-80,855	494,582	-0,008	0,013
-79,840	55,118	-0,078	-0,055
-78,826	-200,000	-0,004	-0,030
-77,811	95,246	-0,025	-0,020
-76,797	-22,213	-0,055	-0,024
-75,782	10,193	0,138	-0,076
-74,767	800,000	-0,041	0,111
-73,753	-71,713	0,099	-0,027
-72,738	-3,244	-0,097	-0,049
-71,724	143,734	0,107	-0,103
-70,709	18,055	-0,092	0,053
-69,694	605,859	-0,045	-0,081
-68,680	34,710	0,135	-0,085
-67,665	45,127	0,035	0,023
-66,651	-200,000	-0,002	-0,065
-65,636	-3,966	0,112	-0,056
-64,622	-200,000	0,002	0,056
-63,607	800,000	-0,041	-0,096
-62,592	169,144	0,071	-0,073
-61,578	226,915	-0,118	-0,139
-60,563	615,726	0,081	-0,148
-59,549	-51,438	0,051	-0,017
-58,534	-38,413	-1,648	-0,627
-57,519	800,000	-0,377	-1,162
-56,505	-200,000	-1,038	-4,662
-55,490	-158,260	0,750	0,031
-54,476	800,000	5,293	12,064
-53,461	-200,000	15,814	278,666
-52,446	-200,000	702,384	2249,525
-51,432	565,575	1618,796	2845,596
-50,417	121,763	1623,124	1461,592
-49,403	82,287	1284,044	1004,772
-48,388	36,830	1028,312	654,863
-47,373	21,604	989,848	580,026
-46,359	20,534	978,481	569,816
-45,344	18,843	974,508	561,920
-44,330	18,862	973,393	561,317
-43,315	18,605	971,515	559,372
-42,300	18,508	970,595	558,500
-41,286	18,678	969,448	558,375
-40,271	18,575	968,440	557,437
-39,257	18,554	967,746	556,944
-38,242	18,622	966,872	556,643
-37,227	18,623	966,263	556,272
-36,213	18,570	965,332	555,541
-35,198	18,517	964,440	554,834
-34,184	18,581	963,660	554,571
-33,169	18,516	962,790	553,838
-32,154	18,576	961,863	553,476
-31,140	18,621	960,874	553,033
-30,125	18,596	960,165	552,521
-29,111	18,578	959,547	552,084
-28,096	18,600	958,940	551,784
-27,082	18,551	958,257	551,212
-26,067	18,528	957,302	550,566
-25,052	18,527	956,602	550,140
-24,038	18,534	955,975	549,777
-23,023	18,571	955,057	549,347
-22,009	18,595	954,507	549,086
-20,994	18,605	953,858	548,724
-19,979	18,545	953,302	548,190
-18,965	18,582	952,677	547,927
-17,950	18,532	952,308	547,533
-16,936	18,521	951,504	547,013
-15,921	18,478	950,741	546,417
-14,906	18,454	950,030	545,909
-13,892	18,402	949,413	545,365
-12,877	18,416	948,750	545,008
-11,863	18,352	948,174	544,451
-10,848	18,387	947,703	544,271
-9,833	18,511	947,293	544,411
-8,819	18,507	946,544	543,945
-7,804	18,469	945,762	543,354
-6,790	18,498	945,106	543,047
-5,775	18,486	944,740	542,775
-4,760	18,470	944,134	542,356
-3,746	18,386	943,390	541,639
-2,731	18,275	942,543	540,780
-1,717	18,280	941,935	540,423
-0,702	18,287	941,347	540,087
0,313	18,057	940,748	539,830
1,327	21,229	938,853	548,738
2,342	30,298	796,398	489,628
3,356	27,467	449,419	272,033
4,371	-2,427	295,143	148,706
5,386	-6,537	276,401	135,349
6,400	-7,798	270,527	131,287
7,415	-7,988	268,252	129,996
8,429	-7,934	266,944	129,400
9,444	-7,833	266,072	129,059
10,459	-7,973	265,371	128,580
11,473	-8,260	264,887	128,072
12,488	-8,232	264,612	127,953
13,502	-8,403	263,861	127,423
14,517	-8,484	263,472	127,151
15,531	-8,225	262,761	127,030
16,546	-8,316	262,508	126,815
17,561	-8,193	262,210	126,770
18,575	-8,043	261,719	126,657
19,590	-8,045	261,496	126,535
20,604	-7,993	261,191	126,423
21,619	-8,194	261,120	126,197
22,634	-8,162	260,429	125,881
23,648	-8,489	260,358	125,542
24,663	-8,277	260,066	125,580
25,677	-8,266	259,834	125,467
26,692	-8,481	259,569	125,136
27,707	-8,407	259,222	125,023
28,721	-8,369	259,000	124,939
29,736	-8,363	258,678	124,778
30,750	-8,213	258,349	124,741
31,765	-8,422	258,162	124,454
32,780	-8,365	257,882	124,359
33,794	-8,375	257,730	124,265
34,809	-8,504	257,640	124,096
35,823	-8,349	257,330	124,074
36,838	-8,503	257,076	123,804
37,853	-8,360	256,733	123,753
38,867	-8,695	256,595	123,381
39,882	-8,394	256,373	123,528
40,896	-8,480	256,248	123,382
41,911	-8,464	255,895	123,214
42,926	-8,342	255,753	123,242
43,940	-8,466	255,386	122,946
44,955	-8,739	255,232	122,621
45,969	-8,734	254,868	122,440
46,984	-8,823	254,721	122,281
47,999	-9,063	254,353	121,884
49,013	-9,055	254,225	121,818
50,028	-9,321	253,898	121,419
51,042	-9,556	253,792	121,153
52,057	-9,381	253,489	121,151
53,071	-9,221	253,220	121,150
54,086	-9,200	253,108	121,104
55,101	-9,159	253,034	121,093
56,115	-8,784	252,917	121,351
57,130	-8,650	252,812	121,406
58,144	-8,330	252,628	121,584
59,159	-8,230	252,341	121,521
60,174	-8,267	252,234	121,427
61,188	-8,182	251,904	121,331
62,203	-8,287	251,719	121,140
63,217	-8,407	251,456	120,899
64,232	-8,133	251,391	121,093
65,247	-8,211	250,952	120,804
66,261	-8,333	250,814	120,622
67,276	-8,665	250,535	120,193
68,290	-8,630	250,191	120,046
69,305	-8,848	250,020	119,768
70,320	-8,882	249,974	119,705
71,334	-8,463	249,742	119,942
72,349	-8,131	249,507	120,102
73,363	-8,263	249,391	119,922
74,378	-8,157	249,052	119,839
75,393	-8,524	249,069	119,524
76,407	-8,535	248,814	119,381
77,422	-8,586	248,733	119,289
78,436	-8,195	248,492	119,495
79,451	-8,340	248,268	119,253
80,466	-8,564	248,003	118,925
81,480	-8,479	247,827	118,902
82,495	-8,617	247,577	118,655
83,509	-8,765	247,520	118,492
84,524	-8,843	247,143	118,235
85,539	-8,774	246,913	118,172
86,553	-8,756	246,679	118,065
87,568	-8,596	246,545	118,125
88,582	-8,688	246,395	117,966
89,597	-8,670	246,176	117,865
90,611	-8,384	246,158	118,087
91,626	-8,166	245,858	118,115
92,641	-8,437	245,672	117,787
93,655	-8,569	245,475	117,572
94,670	-8,573	245,350	117,498
95,684	-8,443	245,120	117,487
96,699	-8,580	244,862	117,238
97,714	-8,792	244,703	116,974
98,728	-8,804	244,572	116,891
99,743	-8,827	244,314	116,738
100,757	-8,736	244,151	116,726
101,772	-8,668	243,857	116,631
102,787	-8,612	243,745	116,614
103,801	-8,592	243,665	116,582
104,816	-8,669	243,526	116,441
105,830	-8,385	243,279	116,548
106,845	-8,452	243,239	116,463
107,860	-8,294	243,084	116,510
108,874	-8,250	242,564	116,287
109,889	-8,747	242,566	115,866
110,903	-8,487	242,318	115,952
111,918	-8,577	242,091	115,759
112,933	-8,676	242,130	115,686
113,947	-8,485	241,943	115,743
114,962	-8,407	241,712	115,687
115,976	-8,513	241,510	115,492
116,991	-8,435	241,190	115,393
118,006	-8,448	241,067	115,313
119,020	-8,354	241,040	115,367
120,035	-8,429	240,990	115,272
121,049	-8,405	240,719	115,152
122,064	-8,424	240,538	115,039
123,079	-8,427	240,370	114,946
124,093	-8,457	240,009	114,738
125,108	-8,748	239,903	114,440
126,122	-9,119	239,710	114,034
127,137	-8,886	239,472	114,101
128,151	-9,023	239,282	113,889
129,166	-8,828	239,303	114,047
130,181	-9,002	239,147	113,822
131,195	-8,685	238,696	113,855
132,210	-8,692	238,581	113,784
133,224	-8,542	238,424	113,820
134,239	-8,520	238,419	113,825
135,254	-8,346	238,216	113,859
136,268	-8,623	237,976	113,510
137,283	-8,906	237,796	113,185
138,297	-8,818	237,436	113,075
139,312	-9,051	237,335	112,829
140,327	-8,784	237,342	113,038
141,341	-8,208	237,281	113,464
142,356	-8,040	237,034	113,471
143,370	-8,169	236,968	113,325
144,385	-8,105	236,747	113,261
145,400	-8,074	236,556	113,184
146,414	-8,044	236,376	113,112
147,429	-8,086	236,267	113,015
148,443	-7,993	235,963	112,935
149,458	-7,973	235,866	112,894
150,473	-8,291	235,863	112,628
151,487	-8,336	235,473	112,396
152,502	-8,075	235,230	112,479
153,516	-8,062	235,261	112,494
154,531	-8,038	234,946	112,353
155,546	-8,293	234,982	112,156
156,560	-8,149	234,623	112,089
157,575	-8,368	234,502	111,847
158,589	-8,288	234,304	111,806
159,604	-7,940	234,129	111,989
160,619	-8,134	234,110	111,816
161,633	-7,927	233,999	111,918
162,648	-8,145	233,830	111,654
163,662	-8,173	233,689	111,555
164,677	-8,189	233,391	111,389
165,692	-8,040	233,267	111,438
166,706	-8,153	233,151	111,284
167,721	-8,007	233,034	111,333
168,735	-8,076	232,795	111,155
169,750	-8,290	232,706	110,933
170,764	-8,144	232,598	110,987
171,779	-8,049	232,499	111,005
172,794	-7,953	232,226	110,940
173,808	-8,233	232,092	110,646
174,823	-8,656	231,693	110,113
175,837	-8,942	231,547	109,810
176,852	-8,476	231,457	110,123
177,867	-8,168	231,514	110,382
178,881	-8,024	231,206	110,338
179,896	-8,018	231,111	110,288
180,910	-7,830	230,840	110,295
181,925	-7,946	230,875	110,212
182,940	-8,045	230,647	110,016
183,954	-8,029	230,608	110,000
184,969	-8,066	230,313	109,820
185,983	-7,939	230,273	109,890
186,998	-7,883	230,114	109,849
188,013	-7,657	229,783	109,857
189,027	-7,828	229,664	109,657
190,042	-7,801	229,701	109,686
191,056	-7,901	229,391	109,450
192,071	-7,922	229,296	109,379
193,086	-7,858	229,133	109,341
194,100	-7,660	228,893	109,370
195,115	-7,932	228,721	109,068
196,129	-8,390	228,525	108,610
197,144	-4,092	230,027	112,657
198,159	1,441	231,628	117,752
199,173	3,314	231,767	119,271
200,188	3,291	231,886	119,304
201,202	3,446	231,846	119,394
202,217	3,700	231,670	119,491
203,232	3,897	231,572	119,583
204,246	4,065	231,377	119,602
205,261	4,209	231,202	119,613
206,275	4,091	231,304	119,563
207,290	4,417	231,131	119,715
208,304	4,135	230,950	119,392
209,319	4,295	230,726	119,390
210,334	4,003	230,493	119,033
211,348	4,114	230,291	119,003
212,363	3,440	230,034	118,340
213,377	3,413	229,784	118,180
214,392	3,301	229,645	118,011
215,407	3,606	229,510	118,167
216,421	3,654	229,333	118,102
217,436	3,439	229,275	117,897
218,450	3,298	228,945	117,608
219,465	3,246	228,847	117,507
220,480	3,153	228,756	117,378
221,494	3,105	228,529	117,215
222,509	3,436	228,542	117,465
223,523	3,387	228,262	117,273
224,538	3,561	228,054	117,288
225,553	3,372	227,892	117,050
226,567	3,535	227,981	117,210
227,582	3,600	227,918	117,217
228,596	3,812	227,755	117,284
229,611	3,473	227,405	116,836
230,626	3,401	227,158	116,643
231,640	3,318	227,192	116,587
232,655	3,536	227,116	116,704
233,669	4,170	227,169	117,203
234,684	4,209	226,927	117,097
235,699	3,736	226,718	116,620
236,713	3,609	226,393	116,346
237,728	3,440	226,141	116,077
238,742	3,269	226,080	115,907
239,757	3,322	225,993	115,892
240,772	3,209	226,013	115,806
241,786	3,336	225,656	115,709
242,801	3,631	225,492	115,837
243,815	3,763	225,588	115,976
244,830	3,716	225,399	115,833
245,844	3,474	225,046	115,459
246,859	3,533	224,892	115,414
247,874	3,704	224,817	115,494
248,888	3,587	224,766	115,369
249,903	3,603	224,506	115,238
250,917	3,647	224,326	115,168
251,932	3,301	224,282	114,876
252,947	3,540	223,981	114,890
253,961	3,168	223,954	114,588
254,976	3,236	223,772	114,536
255,990	3,643	223,678	114,782
257,005	3,714	223,565	114,766
258,020	3,703	223,474	114,701
259,034	3,962	223,419	114,856
260,049	3,691	223,317	114,591
261,063	3,457	223,072	114,280
262,078	3,737	223,055	114,470
263,093	3,792	222,870	114,406
264,107	3,685	222,609	114,182
265,122	3,835	222,322	114,136
266,136	3,989	222,398	114,279
267,151	3,918	222,159	114,094
268,166	3,478	221,981	113,667
269,180	3,063	221,701	113,205
270,195	3,037	221,674	113,162
271,209	3,159	221,384	113,095
272,224	3,270	221,406	113,178
273,239	3,667	221,384	113,450
274,253	3,486	221,065	113,142
275,268	3,285	220,823	112,861
276,282	3,171	220,706	112,707
277,297	3,029	220,527	112,501
278,312	3,338	220,416	112,661
279,326	3,291	220,338	112,577
280,341	3,469	220,223	112,638
281,355	3,313	220,155	112,479
282,370	3,417	219,983	112,458
283,384	3,248	219,717	112,188
284,399	3,129	219,454	111,957
285,414	3,117	219,495	111,958
286,428	3,421	219,352	112,098
287,443	3,615	219,310	112,209
288,457	3,537	219,100	112,034
289,472	3,457	218,972	111,900
290,487	2,962	218,710	111,396
291,501	2,924	218,609	111,306
292,516	3,237	218,432	111,434
293,530	3,142	218,245	111,260
294,545	3,092	218,136	111,158
295,560	3,188	218,060	111,179
296,574	3,449	217,870	111,262
297,589	3,457	217,765	111,204
298,603	3,298	217,893	111,144
299,618	3,656	217,562	111,225
300,633	3,514	217,527	111,094
301,647	3,831	217,353	111,224
302,662	3,507	217,284	110,945
303,676	3,815	217,039	111,032
304,691	3,944	216,837	111,012
305,706	3,632	216,897	110,808
306,720	3,585	216,604	110,615
307,735	3,300	216,550	110,371
308,749	3,284	216,268	110,206
309,764	3,446	216,328	110,344
310,779	3,437	216,126	110,224
311,793	3,494	215,894	110,137
312,808	3,823	215,803	110,318
313,822	3,649	215,586	110,072
314,837	3,411	215,405	109,799
315,852	3,426	215,334	109,764
316,866	3,495	215,262	109,767
317,881	3,662	215,153	109,821
318,895	3,766	215,080	109,848
319,910	3,584	214,767	109,548
320,925	3,040	214,521	109,025
321,939	2,778	214,420	108,777
322,954	2,887	214,385	108,827
323,968	3,408	214,343	109,168
324,983	3,704	214,159	109,275
325,997	3,822	214,059	109,299
327,012	3,436	213,944	108,955
328,027	3,675	213,722	109,003
329,041	3,476	213,805	108,894
330,056	3,827	213,659	109,059
331,070	3,422	213,295	108,576
332,085	3,177	213,093	108,290
333,100	3,444	212,943	108,393
334,114	3,475	212,871	108,369
335,129	3,315	212,732	108,175
336,143	3,307	212,635	108,111
337,158	3,350	212,550	108,088
338,173	3,555	212,317	108,104
339,187	3,315	212,260	107,897
340,202	3,408	212,014	107,827
341,216	2,899	211,962	107,433
342,231	3,237	211,789	107,574
343,246	3,077	211,627	107,369
344,260	3,342	211,363	107,412
345,275	3,486	211,371	107,507
346,289	3,485	211,481	107,553
347,304	3,727	211,169	107,554
348,319	3,356	211,008	107,203
349,333	3,552	210,790	107,220
350,348	3,576	210,720	107,191
351,362	3,752	210,714	107,302
352,377	3,705	210,775	107,291
353,392	3,319	210,440	106,841
354,406	3,454	210,173	106,790
355,421	195,824	1341,001	1428,380
356,435	156,396	1478,813	1428,422
