DTS Sentinel unit serial number:	SN410029Multiplexer serial number:	ORYXHardware model number:	OX2-SRSoftware version number:	ORYX F/W v4,00 Oryx Data Collector v3.7.2.0data status	okinstallation	B6 Nyhavnadifferential loss correction	single-endedforward channel	channel 2reverse channel	N/Adate	2023/12/07time	20:00:08forward acquisition time	300,00reverse acquisition time	0,00gamma	499,1914k internal	0,3164k external	0,3164temperature offset calibration	1,0000default loss term (dB/km)	0,3820temperature slope calibration	1,0000multiplexer offset coefficient	1,0000multiplexer slope coefficient	1,0000fibre end	0,00T internal ref (°C)	13,90T ext. ref 1 (°C)	-3,09T ext. ref 2 (°C)	-3,09length (m)	temperature (°C)	Stokes	anti-Stokes-744,400	475,248	0,077	0,128
-743,385	-49,597	-0,213	-0,074
-742,371	-172,220	0,184	0,004
-741,356	-151,230	-0,381	-0,021
-740,342	-126,299	0,227	0,025
-739,327	-147,973	-0,497	0,030
-738,312	128,756	0,016	0,015
-737,298	-160,691	-0,324	0,012
-736,283	-70,687	0,161	0,044
-735,269	-113,719	-0,296	0,042
-734,254	257,659	0,033	0,042
-733,239	-9,012	-0,436	-0,214
-732,225	-62,309	0,174	0,053
-731,210	35,575	-0,043	0,028
-730,196	-26,368	-0,076	-0,033
-729,181	205,602	-0,115	-0,131
-728,167	-200,000	-0,015	-0,092
-727,152	-200,000	0,019	-0,114
-726,137	-200,000	0,015	0,051
-725,123	117,803	-0,122	0,110
-724,108	364,523	-0,032	-0,048
-723,094	-200,000	-0,026	-0,132
-722,079	156,844	-0,158	-0,161
-721,064	-128,081	-0,064	-0,007
-720,050	-200,000	0,001	-0,028
-719,035	274,563	-0,028	-0,036
-718,021	-200,000	-0,035	-0,172
-717,006	-200,000	0,005	-0,160
-715,991	465,553	-0,117	-0,193
-714,977	-200,000	0,009	0,050
-713,962	97,782	-0,189	-0,160
-712,948	-200,000	-0,001	0,061
-711,933	-200,000	-0,011	-0,056
-710,918	-200,000	-0,001	0,033
-709,904	275,064	0,058	-0,076
-708,889	-200,000	-0,011	0,112
-707,875	338,986	0,050	0,071
-706,860	286,374	-0,082	-0,110
-705,845	-200,000	0,020	-0,090
-704,831	-94,735	0,058	-0,012
-703,816	27,265	0,021	0,013
-702,802	-21,664	0,056	-0,025
-701,787	220,165	-0,068	-0,080
-700,772	-200,000	-0,006	-0,018
-699,758	-79,193	-0,021	0,005
-698,743	-200,000	0,009	-0,029
-697,729	162,125	0,042	0,043
-696,714	-51,481	-0,122	0,042
-695,699	-200,000	-0,009	-0,086
-694,685	-63,616	0,062	0,019
-693,670	800,000	-0,024	-0,067
-692,656	55,569	-0,122	0,087
-691,641	348,313	0,111	-0,161
-690,627	-200,000	-0,002	0,115
-689,612	76,980	-0,051	-0,039
-688,597	4,188	-0,101	0,054
-687,583	-140,920	-0,130	-0,010
-686,568	58,579	0,092	-0,066
-685,554	118,534	0,099	0,090
-684,539	299,521	0,020	-0,027
-683,524	31,602	0,042	0,026
-682,510	-122,104	0,115	0,014
-681,495	-124,213	-0,113	0,013
-680,481	461,360	0,042	0,069
-679,466	-141,989	-0,062	0,004
-678,451	-131,938	-0,168	0,016
-677,437	30,406	-0,067	-0,042
-676,422	74,505	-0,051	0,039
-675,408	-42,450	-0,047	-0,017
-674,393	-200,000	-0,031	-0,125
-673,378	-200,000	-0,013	-0,144
-672,364	103,580	0,042	-0,036
-671,349	-200,000	-0,028	0,115
-670,335	-140,496	0,066	0,005
-669,320	184,058	-0,074	0,081
-668,305	283,162	0,036	0,047
-667,291	6,731	-0,146	-0,080
-666,276	769,306	-0,047	0,095
-665,262	-200,000	-0,026	-0,207
-664,247	-200,000	-0,011	-0,056
-663,232	800,000	-0,040	-0,084
-662,218	-200,000	0,061	-0,200
-661,203	169,321	0,046	0,049
-660,189	794,209	-0,068	-0,137
-659,174	-7,725	-0,112	-0,055
-658,159	800,000	-0,022	-0,067
-657,145	-200,000	-0,022	-0,097
-656,130	-127,812	0,154	0,016
-655,116	800,000	-0,031	0,101
-654,101	-200,000	-0,019	0,212
-653,086	569,518	0,021	0,037
-652,072	800,000	0,005	0,010
-651,057	-200,000	-0,008	0,122
-650,043	-200,000	-0,007	0,028
-649,028	39,382	0,070	-0,046
-648,014	115,006	0,019	-0,017
-646,999	451,593	0,041	0,067
-645,984	-200,000	0,017	0,200
-644,970	-4,109	-0,038	0,019
-643,955	-200,000	-0,016	-0,115
-642,941	-93,513	-0,138	0,028
-641,926	-42,994	-0,073	0,027
-640,911	-10,115	0,113	-0,055
-639,897	59,714	0,011	0,008
-638,882	171,851	-0,127	-0,134
-637,868	-200,000	0,001	-0,081
-636,853	2,976	-0,082	0,043
-635,838	427,323	-0,023	-0,036
-634,824	104,013	0,063	0,054
-633,809	-107,092	-0,007	0,001
-632,795	130,345	-0,055	0,051
-631,780	262,692	0,059	0,075
-630,765	-200,000	0,010	0,088
-629,751	29,561	-0,106	-0,066
-628,736	224,624	-0,109	-0,129
-627,722	62,353	-0,152	-0,111
-626,707	82,294	0,115	-0,092
-625,692	800,000	-0,027	-0,081
-624,678	7,623	0,084	0,046
-623,663	-61,531	-0,057	-0,017
-622,649	760,477	-0,042	-0,085
-621,634	-200,000	-0,027	-0,160
-620,619	-200,000	0,021	0,089
-619,605	239,398	0,112	-0,136
-618,590	-53,148	0,123	-0,041
-617,576	189,235	0,072	-0,079
-616,561	-200,000	0,002	-0,025
-615,546	-0,306	0,111	-0,058
-614,532	-35,289	-0,042	0,017
-613,517	581,027	0,064	-0,115
-612,503	-92,337	-0,139	0,028
-611,488	695,259	-0,016	0,030
-610,474	229,184	0,098	0,118
-609,459	800,000	-0,051	-0,152
-608,444	-100,648	-0,072	-0,013
-607,430	-200,000	-0,000	0,023
-606,415	262,499	-0,012	-0,015
-605,401	123,054	-0,093	0,085
-604,386	-138,020	0,045	0,004
-603,371	-200,000	0,007	0,069
-602,357	148,634	-0,071	0,070
-601,342	-200,000	-0,033	-0,109
-600,328	-200,000	0,033	-0,171
-599,313	467,563	0,061	-0,101
-598,298	-200,000	0,003	-0,156
-597,284	-138,293	0,169	0,013
-596,269	31,972	-0,093	0,058
-595,255	548,131	-0,024	0,043
-594,240	-200,000	0,022	0,089
-593,225	800,000	0,018	-0,048
-592,211	-75,318	-0,102	0,026
-591,196	-113,244	-0,114	0,016
-590,182	-200,000	-0,003	-0,106
-589,167	18,940	0,047	0,027
-588,152	253,787	-0,058	0,072
-587,138	82,111	0,076	-0,060
-586,123	-200,000	0,010	-0,131
-585,109	-200,000	0,001	-0,051
-584,094	663,217	-0,044	-0,083
-583,079	-53,686	0,091	-0,030
-582,065	148,584	-0,065	0,064
-581,050	-200,000	-0,047	0,206
-580,036	-55,796	-0,097	-0,032
-579,021	-31,135	0,126	-0,052
-578,006	800,000	-0,049	-0,130
-576,992	-16,171	-0,171	-0,079
-575,977	223,671	0,078	-0,093
-574,963	56,305	-0,048	-0,034
-573,948	-20,117	0,034	0,015
-572,934	-200,000	0,035	0,193
-571,919	800,000	-0,024	-0,064
-570,904	-90,866	-0,091	-0,019
-569,890	-200,000	-0,008	-0,062
-568,875	-200,000	0,013	-0,063
-567,861	-125,679	0,125	0,014
-566,846	800,000	-0,019	0,049
-565,831	-95,573	-0,104	-0,020
-564,817	-41,176	-0,102	-0,038
-563,802	-200,000	-0,052	-0,229
-562,788	-38,141	-0,141	0,055
-561,773	23,910	-0,032	-0,019
-560,758	19,795	0,027	0,016
-559,744	800,000	0,041	0,086
-558,729	-33,921	-0,060	0,024
-557,715	150,157	-0,040	0,039
-556,700	800,000	0,060	-0,159
-555,685	-37,153	-0,100	-0,039
-554,671	35,645	0,008	-0,005
-553,656	-200,000	-0,007	0,044
-552,642	239,737	0,027	-0,032
-551,627	59,711	0,040	0,029
-550,612	41,190	-0,128	-0,085
-549,598	-116,439	-0,029	0,004
-548,583	-200,000	0,008	0,054
-547,569	-200,000	-0,004	-0,040
-546,554	204,689	0,080	-0,091
-545,539	-88,652	0,092	-0,020
-544,525	-200,000	-0,040	-0,148
-543,510	-29,372	-0,058	0,024
-542,496	-58,577	-0,102	-0,032
-541,481	559,641	-0,015	0,026
-540,466	800,000	-0,030	-0,061
-539,452	-119,911	0,112	0,014
-538,437	158,854	-0,032	-0,033
-537,423	-200,000	-0,001	0,018
-536,408	144,546	-0,094	-0,092
-535,393	43,819	0,056	-0,037
-534,379	343,179	-0,132	-0,189
-533,364	89,803	-0,077	-0,062
-532,350	-200,000	-0,020	0,090
-531,335	-172,794	0,134	-0,003
-530,321	800,000	-0,040	0,118
-529,306	299,789	0,134	-0,180
-528,291	166,573	-0,047	0,049
-527,277	-200,000	-0,005	-0,125
-526,262	164,464	0,075	-0,078
-525,248	-199,834	0,173	-0,001
-524,233	354,416	0,048	0,070
-523,218	41,002	0,017	-0,011
-522,204	-200,000	0,012	0,049
-521,189	55,914	-0,139	-0,098
-520,175	38,336	0,051	-0,033
-519,160	800,000	0,069	-0,154
-518,145	-200,000	-0,014	0,101
-517,131	-4,223	-0,051	-0,026
-516,116	800,000	0,030	-0,088
-515,102	-200,000	0,001	0,085
-514,087	368,653	0,040	-0,059
-513,072	60,114	-0,052	-0,038
-512,058	-92,816	0,068	-0,014
-511,043	14,428	0,055	0,031
-510,029	800,000	-0,010	-0,025
-509,014	111,821	0,119	0,105
-507,999	-1,840	0,079	0,040
-506,985	70,768	-0,012	-0,009
-505,970	11,712	-0,123	0,069
-504,956	191,667	0,042	-0,047
-503,941	25,155	0,067	-0,041
-502,926	-200,000	-0,007	0,053
-501,912	-52,885	0,048	0,016
-500,897	-113,175	-0,134	0,019
-499,883	-110,063	0,095	-0,014
-498,868	-77,305	-0,141	0,035
-497,853	-200,000	-0,017	-0,181
-496,839	800,000	0,062	-0,160
-495,824	-200,000	0,027	0,117
-494,810	53,681	0,067	0,047
-493,795	-200,000	0,019	0,073
-492,781	402,615	-0,058	-0,089
-491,766	-200,000	0,010	0,053
-490,751	-200,000	0,014	-0,064
-489,737	-171,615	0,087	-0,002
-488,722	-200,000	-0,018	-0,058
-487,708	256,548	0,038	0,047
-486,693	-200,000	-0,035	0,151
-485,678	99,439	0,074	0,062
-484,664	97,653	-0,083	0,069
-483,649	-53,228	0,012	-0,004
-482,635	-200,000	-0,014	0,130
-481,620	-200,000	0,000	-0,008
-480,605	800,000	0,032	0,079
-479,591	557,562	0,077	-0,136
-478,576	-200,000	0,001	0,046
-477,562	-145,450	-0,119	0,008
-476,547	-31,417	0,116	0,047
-475,532	72,268	-0,141	-0,107
-474,518	-27,727	0,142	-0,060
-473,503	-40,274	0,087	-0,033
-472,489	657,236	-0,124	0,233
-471,474	273,534	0,007	0,009
-470,459	800,000	-0,027	-0,077
-469,445	-200,000	-0,027	-0,137
-468,430	767,986	0,081	-0,161
-467,416	117,317	0,055	-0,049
-466,401	137,522	-0,020	-0,019
-465,386	193,082	0,060	-0,066
-464,372	107,276	-0,082	-0,071
-463,357	38,416	-0,050	-0,033
-462,343	-20,226	-0,118	-0,053
-461,328	-200,000	-0,021	-0,174
-460,313	189,568	0,057	-0,063
-459,299	-13,646	0,080	-0,037
-458,284	-136,742	0,180	-0,015
-457,270	-94,976	-0,041	-0,008
-456,255	-39,451	0,129	0,049
-455,241	-118,937	-0,163	0,021
-454,226	-27,897	-0,108	0,045
-453,211	-200,000	-0,085	0,000
-452,197	-55,372	0,031	-0,010
-451,182	-106,916	-0,007	0,001
-450,168	-121,064	-0,061	-0,007
-449,153	800,000	0,019	-0,059
-448,138	63,325	-0,127	-0,092
-447,124	-128,889	0,064	0,006
-446,109	-15,875	-0,034	0,016
-445,095	169,682	-0,036	-0,038
-444,080	-124,543	0,174	-0,019
-443,065	-121,701	-0,125	0,015
-442,051	118,234	-0,054	-0,048
-441,036	-140,540	-0,107	-0,008
-440,022	-200,000	0,001	-0,053
-439,007	-200,000	0,026	-0,086
-437,992	479,258	0,020	0,033
-436,978	-200,000	-0,008	0,167
-435,963	-128,502	0,112	0,011
-434,949	269,331	-0,002	-0,003
-433,934	-200,000	-0,010	-0,087
-432,919	317,161	0,083	0,114
-431,905	648,363	-0,021	0,040
-430,890	-23,369	0,082	-0,036
-429,876	-149,520	-0,048	0,003
-428,861	768,618	0,101	0,201
-427,846	-162,561	0,073	-0,003
-426,832	800,000	-0,047	-0,116
-425,817	-181,413	0,161	-0,002
-424,803	461,993	0,044	-0,071
-423,788	-37,593	-0,085	-0,033
-422,773	189,935	-0,072	0,079
-421,759	-200,000	-0,009	-0,095
-420,744	112,611	0,035	0,031
-419,730	-200,000	-0,013	-0,048
-418,715	272,809	-0,119	-0,152
-417,701	-200,000	-0,019	0,111
-416,686	-121,427	-0,019	0,002
-415,671	87,208	-0,067	0,054
-414,657	800,000	-0,032	0,072
-413,642	125,941	0,025	-0,023
-412,628	211,264	-0,087	0,100
-411,613	-200,000	-0,063	-0,219
-410,598	-200,000	-0,027	0,162
-409,584	152,053	-0,123	0,122
-408,569	-200,000	0,012	0,108
-407,555	240,569	0,082	0,099
-406,540	168,921	-0,025	-0,026
-405,525	-25,203	0,028	0,012
-404,511	780,219	-0,057	0,114
-403,496	57,373	-0,132	-0,093
-402,482	-88,208	0,105	-0,023
-401,467	55,482	0,088	0,062
-400,452	800,000	0,081	0,168
-399,438	800,000	0,025	-0,059
-398,423	-48,561	0,051	0,018
-397,409	385,681	-0,014	0,021
-396,394	-161,240	0,073	0,003
-395,379	410,971	0,048	0,074
-394,365	308,241	0,013	0,018
-393,350	-200,000	-0,009	-0,073
-392,336	252,442	-0,041	0,051
-391,321	-200,000	-0,017	0,148
-390,306	214,883	-0,066	0,076
-389,292	-97,914	-0,060	0,011
-388,277	800,000	-0,015	-0,034
-387,263	-126,100	0,035	-0,004
-386,248	619,672	-0,085	0,156
-385,233	-11,355	0,057	-0,027
-384,219	-123,053	-0,126	0,014
-383,204	471,660	-0,042	0,069
-382,190	-79,706	0,110	-0,027
-381,175	361,300	-0,073	0,106
-380,160	800,000	-0,064	0,186
-379,146	211,394	0,107	0,122
-378,131	383,033	-0,092	0,138
-377,117	348,347	-0,045	0,064
-376,102	-200,000	-0,000	-0,068
-375,088	-200,000	-0,001	-0,038
-374,073	174,827	0,084	0,088
-373,058	720,642	0,040	0,077
-372,044	-48,666	0,079	-0,027
-371,029	-57,527	-0,129	0,041
-370,015	-200,000	0,009	-0,050
-369,000	452,947	0,086	-0,139
-367,985	-60,433	-0,075	0,023
-366,971	221,156	0,021	0,025
-365,956	34,550	0,095	0,060
-364,942	95,835	0,013	0,011
-363,927	800,000	0,035	0,092
-362,912	800,000	0,021	0,061
-361,898	-90,668	-0,086	0,018
-360,883	-142,665	-0,046	-0,003
-359,869	761,330	-0,053	-0,104
-358,854	343,870	0,075	0,107
-357,839	-99,033	0,107	0,020
-356,825	17,227	-0,084	-0,048
-355,810	-200,000	0,008	0,104
-354,796	-200,000	0,006	-0,085
-353,781	-129,860	-0,032	-0,003
-352,766	-200,000	-0,025	0,117
-351,752	-200,000	-0,022	0,086
-350,737	-200,000	0,146	-0,000
-349,723	-200,000	-0,025	0,093
-348,708	-93,191	0,146	-0,029
-347,693	-200,000	-0,001	0,025
-346,679	-121,007	-0,056	-0,007
-345,664	442,652	-0,051	0,081
-344,650	197,660	0,092	-0,102
-343,635	-108,409	-0,032	0,005
-342,620	-200,000	0,014	0,056
-341,606	313,753	0,044	0,060
-340,591	188,612	-0,058	-0,063
-339,577	-163,420	0,121	-0,004
-338,562	-11,024	-0,036	-0,017
-337,548	171,038	-0,064	0,067
-336,533	800,000	-0,025	0,052
-335,518	-200,000	-0,010	0,075
-334,504	-9,573	0,144	-0,069
-333,489	125,785	-0,064	0,059
-332,475	-200,000	-0,044	0,000
-331,460	-200,000	-0,015	-0,159
-330,445	-126,162	-0,078	-0,008
-329,431	-10,501	0,054	-0,026
-328,416	-90,564	0,062	0,013
-327,402	-200,000	-0,014	0,053
-326,387	323,626	0,045	0,062
-325,372	-200,000	-0,030	0,114
-324,358	369,319	-0,094	0,139
-323,343	-200,000	0,035	0,153
-322,329	433,008	-0,025	0,040
-321,314	-43,149	0,114	-0,042
-320,299	800,000	-0,020	-0,054
-319,285	-153,823	0,118	-0,006
-318,270	-49,204	-0,050	-0,017
-317,256	-11,006	0,215	-0,102
-316,241	61,707	-0,077	-0,056
-315,226	557,362	0,039	-0,068
-314,212	216,588	0,075	0,086
-313,197	225,968	0,127	0,149
-312,183	141,638	-0,079	0,075
-311,168	446,961	-0,032	-0,051
-310,153	-59,967	-0,139	-0,043
-309,139	-200,000	-0,001	-0,034
-308,124	-72,966	-0,070	0,018
-307,110	-131,513	0,125	-0,012
-306,095	177,699	0,069	0,073
-305,080	-200,000	0,024	0,142
-304,066	726,656	-0,030	-0,058
-303,051	-200,000	0,020	-0,081
-302,037	496,628	0,035	-0,059
-301,022	113,687	-0,057	0,050
-300,008	57,065	0,106	0,075
-298,993	-200,000	-0,006	0,140
-297,978	30,229	-0,047	-0,029
-296,964	525,255	-0,010	0,018
-295,949	285,733	-0,036	-0,047
-294,935	-100,220	-0,123	-0,022
-293,920	427,649	0,064	-0,100
-292,905	-53,988	0,067	-0,022
-291,891	-90,435	-0,025	-0,005
-290,876	-200,000	0,008	0,159
-289,862	-200,000	-0,002	-0,072
-288,847	7,523	-0,182	-0,098
-287,832	-70,190	-0,108	0,029
-286,818	800,000	-0,046	0,110
-285,803	43,433	-0,043	0,028
-284,789	21,767	-0,013	0,008
-283,774	16,341	-0,115	0,066
-282,759	-107,222	0,086	0,013
-281,745	-45,990	0,011	0,004
-280,730	800,000	-0,030	-0,087
-279,716	26,402	-0,093	0,056
-278,701	-200,000	-0,010	-0,045
-277,686	631,171	-0,021	0,039
-276,672	800,000	-0,037	-0,090
-275,657	800,000	0,007	0,022
-274,643	800,000	-0,032	-0,065
-273,628	-127,572	-0,021	-0,002
-272,613	-200,000	0,021	-0,137
-271,599	-200,000	0,068	-0,280
-270,584	-99,464	0,131	0,024
-269,570	106,781	0,108	-0,093
-268,555	63,231	0,074	-0,054
-267,540	148,122	-0,124	-0,121
-266,526	800,000	0,026	-0,059
-265,511	800,000	0,019	-0,054
-264,497	-14,386	0,156	0,072
-263,482	-200,000	0,010	0,053
-262,467	43,418	0,072	0,048
-261,453	-30,789	-0,063	0,026
-260,438	-34,842	0,019	-0,008
-259,424	240,705	0,044	0,053
-258,409	-111,403	-0,103	0,015
-257,395	-72,680	-0,111	-0,029
-256,380	-200,000	0,011	0,080
-255,365	-200,000	0,007	0,031
-254,351	196,325	-0,105	0,115
-253,336	6,941	0,073	0,039
-252,322	-200,000	-0,013	0,131
-251,307	-200,000	-0,026	0,147
-250,292	800,000	0,042	0,110
-249,278	336,235	0,070	0,099
-248,263	-164,293	0,020	-0,001
-247,249	245,057	0,075	-0,091
-246,234	-200,000	0,036	-0,166
-245,219	-200,000	-0,013	-0,073
-244,205	89,324	0,100	-0,080
-243,190	-125,002	0,086	0,009
-242,176	800,000	0,007	0,017
-241,161	58,130	0,079	0,056
-240,146	-200,000	0,018	0,069
-239,132	-0,423	-0,067	0,034
-238,117	800,000	-0,059	-0,123
-237,103	390,837	0,020	0,031
-236,088	-137,778	-0,060	0,005
-235,073	800,000	-0,017	0,036
-234,059	348,318	-0,053	0,076
-233,044	442,017	0,043	-0,068
-232,030	26,779	0,121	-0,073
-231,015	800,000	-0,007	-0,021
-230,000	94,627	-0,115	0,094
-228,986	-59,690	0,099	0,030
-227,971	-95,702	0,015	-0,003
-226,957	363,091	-0,038	0,055
-225,942	414,530	-0,087	0,134
-224,927	83,366	-0,030	-0,024
-223,913	272,335	-0,072	-0,092
-222,898	-7,325	0,103	-0,050
-221,884	-200,000	0,005	0,025
-220,869	536,187	0,022	-0,037
-219,855	800,000	-0,052	-0,145
-218,840	-169,094	-0,067	0,002
-217,825	168,303	0,042	-0,043
-216,811	356,380	-0,039	-0,057
-215,796	165,109	0,066	0,068
-214,782	800,000	0,043	0,100
-213,767	182,934	0,042	-0,045
-212,752	-200,000	0,011	0,181
-211,738	128,587	0,104	0,095
-210,723	291,095	-0,059	0,077
-209,709	-200,000	0,019	-0,114
-208,694	400,368	0,085	-0,129
-207,679	-73,781	0,154	-0,040
-206,665	-200,000	-0,018	0,133
-205,650	284,446	-0,075	0,097
-204,636	-200,000	0,012	0,093
-203,621	69,540	0,068	-0,050
-202,606	314,948	0,063	0,085
-201,592	-200,000	-0,031	-0,102
-200,577	375,727	-0,097	0,143
-199,563	-42,654	0,066	0,024
-198,548	-107,628	0,136	-0,021
-197,533	238,529	-0,040	-0,048
-196,519	297,997	-0,019	-0,025
-195,504	-139,293	-0,157	0,012
-194,490	140,327	-0,072	0,069
-193,475	342,457	-0,053	-0,074
-192,460	-5,786	-0,030	0,015
-191,446	190,074	0,097	0,105
-190,431	-111,420	-0,100	0,015
-189,417	-62,153	0,163	-0,049
-188,402	-31,046	0,133	-0,054
-187,387	-200,000	-0,022	-0,089
-186,373	800,000	-0,045	0,099
-185,358	19,709	-0,048	0,028
-184,344	213,329	0,047	-0,054
-183,329	-200,000	0,029	0,119
-182,315	266,425	-0,015	0,019
-181,300	139,380	0,085	-0,081
-180,285	278,602	0,060	-0,077
-179,271	282,421	-0,062	-0,081
-178,256	-92,490	0,131	0,026
-177,242	-200,000	0,035	0,145
-176,227	181,561	0,075	0,080
-175,212	156,460	-0,102	0,101
-174,198	-200,000	0,013	0,117
-173,183	2,169	-0,099	-0,051
-172,169	392,905	-0,050	-0,074
-171,154	-31,459	-0,080	-0,032
-170,139	149,118	0,051	0,050
-169,125	204,018	0,078	-0,087
-168,110	800,000	-0,007	-0,016
-167,096	176,691	0,029	0,030
-166,081	-17,117	-0,160	-0,072
-165,066	76,576	-0,088	-0,067
-164,052	32,856	-0,073	-0,045
-163,037	56,528	0,105	0,073
-162,023	221,509	0,029	-0,033
-161,008	67,655	0,085	-0,062
-159,993	16,997	0,122	0,069
-158,979	-190,276	-0,253	-0,002
-157,964	800,000	-0,027	0,058
-156,950	-49,147	0,070	-0,024
-155,935	671,913	-0,021	0,040
-154,920	-200,000	-0,023	-0,094
-153,906	800,000	0,075	0,163
-152,891	741,314	-0,048	0,093
-151,877	213,724	-0,127	-0,145
-150,862	-200,000	0,030	-0,178
-149,847	800,000	0,037	0,089
-148,833	800,000	-0,054	-0,143
-147,818	282,210	0,071	0,092
-146,804	-110,833	0,182	0,027
-145,789	-200,000	0,009	0,076
-144,775	40,104	-0,074	-0,048
-143,760	-9,393	-0,108	0,052
-142,745	-10,543	0,097	0,046
-141,731	-28,270	0,026	-0,011
-140,716	-200,000	0,015	0,047
-139,702	-79,848	0,078	0,019
-138,687	221,392	-0,049	0,056
-137,672	36,157	-0,088	-0,056
-136,658	800,000	0,010	-0,029
-135,643	-200,000	-0,008	-0,035
-134,629	800,000	0,052	0,113
-133,614	599,874	-0,053	-0,094
-132,599	-200,000	0,021	0,099
-131,585	1,601	-0,171	0,088
-130,570	576,654	-0,091	0,161
-129,556	-200,000	0,011	0,043
-128,541	-87,899	-0,055	0,012
-127,526	90,470	0,113	-0,091
-126,512	800,000	0,045	-0,096
-125,497	119,876	0,061	-0,054
-124,483	316,697	-0,065	0,088
-123,468	384,706	0,029	0,044
-122,453	-118,121	0,035	0,004
-121,439	90,490	-0,120	0,097
-120,424	-49,146	-0,078	-0,027
-119,410	-90,039	0,085	0,018
-118,395	-200,000	0,000	0,024
-117,380	-200,000	0,004	-0,020
-116,366	800,000	-0,058	0,149
-115,351	800,000	-0,059	0,151
-114,337	427,145	-0,096	-0,150
-113,322	-57,471	0,112	-0,035
-112,307	57,283	0,025	-0,018
-111,293	-200,000	-0,014	0,048
-110,278	77,342	0,050	0,038
-109,264	800,000	-0,047	-0,121
-108,249	78,367	-0,138	-0,106
-107,234	19,597	-0,119	-0,068
-106,220	190,549	-0,038	-0,042
-105,205	532,598	-0,062	0,105
-104,191	-29,534	-0,122	0,050
-103,176	127,574	-0,132	-0,120
-102,162	-200,000	-0,006	0,067
-101,147	-200,000	-0,025	0,092
-100,132	623,619	-0,037	0,067
-99,118	800,000	0,033	0,094
-98,103	-200,000	0,011	-0,060
-97,089	-77,731	-0,072	0,018
-96,074	673,587	0,049	-0,093
-95,059	-200,000	-0,023	-0,081
-94,045	-200,000	0,008	-0,219
-93,030	659,417	-0,059	-0,109
-92,016	-138,868	-0,052	0,004
-91,001	-200,000	-0,033	-0,105
-89,986	-200,000	0,009	0,092
-88,972	46,258	-0,122	0,081
-87,957	92,353	0,117	-0,094
-86,943	-8,137	0,131	0,063
-85,928	143,482	-0,084	0,080
-84,913	98,953	-0,070	0,058
-83,899	-200,000	0,001	0,114
-82,884	-150,757	0,055	0,003
-81,870	-120,177	-0,083	0,010
-80,855	-200,000	-0,025	0,083
-79,840	-200,000	-0,014	-0,174
-78,826	-200,000	-0,010	-0,062
-77,811	-13,251	-0,038	-0,018
-76,797	155,033	0,114	0,113
-75,782	-129,996	-0,047	0,005
-74,767	800,000	0,058	0,147
-73,753	-199,147	-0,088	-0,000
-72,738	-200,000	0,002	0,029
-71,724	41,806	-0,106	-0,068
-70,709	800,000	-0,018	-0,049
-69,694	68,545	-0,064	0,047
-68,680	-55,323	0,045	0,014
-67,665	-200,000	-0,022	0,147
-66,651	-38,161	-0,045	0,017
-65,636	13,518	0,082	-0,045
-64,622	-200,000	0,007	-0,041
-63,607	38,841	0,054	0,034
-62,592	-153,070	-0,152	-0,008
-61,578	-200,000	0,009	0,032
-60,563	-102,790	0,092	0,016
-59,549	525,785	-0,077	0,131
-58,534	39,171	-2,075	-1,327
-57,519	-200,000	-0,088	-0,798
-56,505	-200,000	-1,213	-5,102
-55,490	184,046	0,813	0,863
-54,476	800,000	5,366	12,159
-53,461	-200,000	18,557	302,812
-52,446	800,000	735,278	2257,568
-51,432	531,883	1648,344	2803,488
-50,417	107,776	1634,447	1393,721
-49,403	71,656	1285,222	955,317
-48,388	29,931	1026,436	625,063
-47,373	19,690	988,783	568,410
-46,359	17,505	976,308	554,070
-45,344	14,222	972,562	541,198
-44,330	14,575	970,962	541,439
-43,315	13,999	968,941	538,412
-42,300	13,887	967,990	537,499
-41,286	13,933	967,128	537,147
-40,271	13,990	966,047	536,711
-39,257	13,947	965,230	536,098
-38,242	13,971	964,355	535,670
-37,227	13,869	963,693	534,948
-36,213	13,945	962,635	534,587
-35,198	13,901	961,816	533,968
-34,184	13,918	960,980	533,537
-33,169	13,956	960,033	533,114
-32,154	13,995	959,079	532,689
-31,140	13,955	958,213	532,058
-30,125	13,954	957,585	531,685
-29,111	13,947	956,754	531,179
-28,096	13,942	956,135	530,798
-27,082	13,956	955,440	530,437
-26,067	13,934	954,818	529,998
-25,052	13,986	953,736	529,545
-24,038	13,878	953,386	528,983
-23,023	13,874	952,634	528,531
-22,009	13,945	951,994	528,383
-20,994	13,978	951,258	528,058
-19,979	13,920	950,904	527,656
-18,965	13,959	950,027	527,274
-17,950	13,960	949,292	526,846
-16,936	13,869	948,926	526,334
-15,921	13,815	948,366	525,831
-14,906	13,863	947,377	525,413
-13,892	13,786	946,776	524,813
-12,877	13,846	945,944	524,523
-11,863	13,782	945,666	524,145
-10,848	13,855	945,053	524,015
-9,833	13,938	944,556	523,982
-8,819	13,893	943,658	523,320
-7,804	13,854	943,103	522,868
-6,790	13,814	942,649	522,470
-5,775	13,850	942,033	522,222
-4,760	13,869	941,483	521,955
-3,746	13,809	940,911	521,428
-2,731	13,698	940,156	520,638
-1,717	13,646	939,622	520,159
-0,702	13,719	938,724	519,871
0,313	13,515	938,115	519,676
1,327	16,871	936,124	529,079
2,342	25,910	788,270	469,264
3,356	21,947	443,177	257,956
4,371	-7,252	295,827	142,986
5,386	-10,960	277,598	130,648
6,400	-12,258	271,937	126,766
7,415	-12,373	269,551	125,536
8,429	-12,719	268,164	124,562
9,444	-12,685	267,218	124,142
10,459	-12,559	266,519	123,921
11,473	-12,679	266,015	123,567
12,488	-12,745	265,384	123,203
13,502	-12,989	264,866	122,731
14,517	-12,822	264,492	122,697
15,531	-12,822	264,000	122,458
16,546	-12,803	263,683	122,317
17,561	-12,858	263,354	122,104
18,575	-12,710	263,072	122,096
19,590	-12,623	262,616	121,951
20,604	-12,884	262,508	121,657
21,619	-12,840	261,960	121,431
22,634	-12,781	261,821	121,408
23,648	-12,861	261,431	121,145
24,663	-12,892	261,115	120,961
25,677	-12,887	260,752	120,785
26,692	-12,694	260,460	120,811
27,707	-12,660	260,300	120,757
28,721	-12,908	260,040	120,405
29,736	-12,869	259,782	120,310
30,750	-12,988	259,376	120,006
31,765	-12,956	259,292	119,984
32,780	-12,892	259,031	119,909
33,794	-12,975	258,823	119,729
34,809	-12,926	258,502	119,613
35,823	-13,022	258,149	119,355
36,838	-12,733	257,728	119,403
37,853	-12,966	257,757	119,201
38,867	-13,011	257,578	119,069
39,882	-12,950	257,212	118,942
40,896	-12,867	256,999	118,905
41,911	-12,900	256,770	118,760
42,926	-12,744	256,462	118,744
43,940	-12,997	256,355	118,462
44,955	-13,050	256,035	118,258
45,969	-12,966	255,761	118,194
46,984	-13,099	255,710	118,044
47,999	-13,325	255,214	117,608
49,013	-13,427	254,944	117,384
50,028	-13,504	254,831	117,255
51,042	-13,695	254,688	117,013
52,057	-13,588	254,283	116,909
53,071	-13,668	254,174	116,779
54,086	-13,703	254,032	116,674
55,101	-13,506	253,899	116,772
56,115	-13,345	253,616	116,771
57,130	-12,878	253,605	117,158
58,144	-12,749	253,320	117,128
59,159	-12,844	253,215	116,987
60,174	-12,630	252,913	117,021
61,188	-12,741	252,738	116,834
62,203	-12,625	252,452	116,791
63,217	-12,831	252,293	116,530
64,232	-12,692	251,924	116,469
65,247	-12,621	251,695	116,413
66,261	-12,780	251,604	116,224
67,276	-12,740	251,169	116,048
68,290	-13,277	251,080	115,537
69,305	-13,310	250,975	115,450
70,320	-13,164	250,677	115,428
71,334	-12,994	250,544	115,501
72,349	-12,947	250,376	115,453
73,363	-12,597	250,101	115,614
74,378	-12,873	250,052	115,346
75,393	-12,851	249,693	115,189
76,407	-12,814	249,583	115,159
77,422	-12,703	249,315	115,119
78,436	-12,731	249,026	114,952
79,451	-12,796	248,909	114,833
80,466	-12,864	248,570	114,608
81,480	-12,875	248,311	114,469
82,495	-13,092	248,251	114,249
83,509	-12,886	248,028	114,310
84,524	-12,998	247,908	114,150
85,539	-13,181	247,654	113,869
86,553	-13,195	247,362	113,712
87,568	-13,154	247,280	113,699
88,582	-13,048	247,041	113,668
89,597	-13,205	246,996	113,506
90,611	-13,096	246,845	113,518
91,626	-12,834	246,612	113,619
92,641	-12,520	246,202	113,683
93,655	-12,794	246,096	113,395
94,670	-13,061	246,002	113,118
95,684	-12,925	245,778	113,119
96,699	-12,820	245,512	113,074
97,714	-12,953	245,313	112,862
98,728	-12,991	245,088	112,716
99,743	-13,172	244,985	112,508
100,757	-13,235	244,821	112,371
101,772	-12,991	244,419	112,379
102,787	-13,186	244,379	112,188
103,801	-12,985	244,119	112,225
104,816	-12,849	244,002	112,274
105,830	-12,606	243,988	112,458
106,845	-12,815	243,820	112,199
107,860	-12,863	243,492	111,998
108,874	-13,072	243,367	111,758
109,889	-12,938	243,029	111,704
110,903	-13,161	242,759	111,386
111,918	-12,947	242,748	111,547
112,933	-13,078	242,638	111,379
113,947	-12,751	242,336	111,498
114,962	-12,786	242,161	111,380
115,976	-12,912	242,020	111,202
116,991	-13,003	241,878	111,052
118,006	-12,901	241,728	111,056
119,020	-12,832	241,348	110,928
120,035	-12,791	241,512	111,027
121,049	-12,866	241,257	110,838
122,064	-12,881	241,112	110,751
123,079	-12,812	240,812	110,659
124,093	-13,011	240,654	110,414
125,108	-13,161	240,331	110,134
126,122	-13,392	240,249	109,899
127,137	-13,126	239,972	109,978
128,151	-13,184	239,820	109,852
129,166	-13,015	239,634	109,894
130,181	-13,060	239,386	109,734
131,195	-12,914	239,121	109,721
132,210	-12,987	239,203	109,689
133,224	-12,866	238,985	109,678
134,239	-12,890	238,871	109,596
135,254	-12,677	238,503	109,590
136,268	-13,138	238,422	109,170
137,283	-13,173	238,144	109,005
138,297	-13,323	237,859	108,745
139,312	-13,488	237,774	108,563
140,327	-13,094	237,693	108,833
141,341	-12,494	237,418	109,179
142,356	-12,572	237,539	109,163
143,370	-12,576	237,294	109,037
144,385	-12,674	237,170	108,891
145,400	-12,507	236,905	108,894
146,414	-12,765	236,932	108,690
147,429	-12,495	236,475	108,686
148,443	-12,549	236,404	108,601
149,458	-12,536	236,060	108,443
150,473	-12,852	236,141	108,219
151,487	-12,994	235,872	107,973
152,502	-12,546	235,767	108,272
153,516	-12,370	235,455	108,259
154,531	-12,673	235,332	107,952
155,546	-12,467	235,161	108,028
156,560	-12,756	234,980	107,705
157,575	-12,837	234,841	107,568
158,589	-12,738	234,632	107,541
159,604	-12,417	234,355	107,658
160,619	-12,506	234,271	107,539
161,633	-12,416	234,089	107,517
162,648	-12,546	234,090	107,406
163,662	-12,654	233,864	107,208
164,677	-12,691	233,825	107,151
165,692	-12,478	233,478	107,150
166,706	-12,567	233,528	107,093
167,721	-12,441	233,368	107,110
168,735	-12,347	233,280	107,133
169,750	-12,544	232,941	106,813
170,764	-12,564	232,729	106,692
171,779	-12,638	232,665	106,595
172,794	-12,737	232,573	106,465
173,808	-12,719	232,299	106,345
174,823	-13,105	232,141	105,961
175,837	-13,278	231,817	105,668
176,852	-12,864	231,821	105,984
177,867	-12,831	231,649	105,922
178,881	-12,674	231,402	105,921
179,896	-12,723	231,578	105,954
180,910	-12,647	231,201	105,832
181,925	-12,633	231,136	105,803
182,940	-12,608	230,934	105,721
183,954	-12,573	230,773	105,665
184,969	-12,599	230,669	105,588
185,983	-12,461	230,522	105,618
186,998	-12,380	230,362	105,598
188,013	-12,375	229,988	105,421
189,027	-12,519	229,995	105,304
190,042	-12,244	229,822	105,428
191,056	-12,674	229,624	104,995
192,071	-12,400	229,491	105,137
193,086	-12,417	229,328	105,039
194,100	-12,327	229,174	105,029
195,115	-12,914	228,774	104,384
196,129	-13,291	228,665	104,035
197,144	-7,543	230,638	109,378
198,159	-1,866	232,560	114,703
199,173	1,653	233,326	117,814
200,188	2,384	233,268	118,343
201,202	2,213	233,045	118,086
202,217	2,308	233,036	118,146
203,232	2,523	232,838	118,202
204,246	2,403	232,812	118,084
205,261	2,344	232,657	117,950
206,275	2,503	232,461	117,963
207,290	2,682	232,270	117,994
208,304	2,582	232,101	117,821
209,319	2,481	232,005	117,683
210,334	2,653	231,610	117,605
211,348	2,449	231,506	117,384
212,363	2,101	231,336	117,019
213,377	1,974	230,963	116,722
214,392	2,008	230,862	116,688
215,407	2,068	230,755	116,669
216,421	2,091	230,696	116,647
217,436	2,041	230,476	116,486
218,450	1,936	230,195	116,254
219,465	1,545	230,145	115,918
220,480	1,796	229,960	116,007
221,494	1,769	229,829	115,910
222,509	2,252	229,731	116,219
223,523	2,274	229,468	116,093
224,538	2,040	229,486	115,913
225,553	1,806	229,303	115,631
226,567	1,903	229,073	115,579
227,582	2,122	229,082	115,740
228,596	2,499	229,013	115,982
229,611	2,230	228,729	115,624
230,626	1,885	228,276	115,122
231,640	2,007	228,285	115,209
232,655	2,080	228,273	115,248
233,669	2,446	228,308	115,534
234,684	2,677	228,024	115,555
235,699	2,441	227,964	115,335
236,713	2,126	227,691	114,948
237,728	1,995	227,547	114,766
238,742	2,036	227,247	114,636
239,757	2,006	227,194	114,576
240,772	2,183	227,089	114,646
241,786	2,081	226,903	114,465
242,801	2,097	226,832	114,431
243,815	2,519	226,846	114,746
244,830	2,586	226,658	114,691
245,844	2,181	226,287	114,189
246,859	2,088	226,185	114,057
247,874	1,908	226,126	113,882
248,888	2,112	226,131	114,028
249,903	2,415	225,686	114,020
250,917	1,839	225,751	113,611
251,932	2,232	225,471	113,755
252,947	1,688	225,349	113,276
253,961	1,761	225,101	113,196
254,976	1,757	224,963	113,113
255,990	2,102	225,004	113,382
257,005	2,360	224,614	113,367
258,020	2,214	224,664	113,273
259,034	2,107	224,571	113,136
260,049	2,434	224,299	113,233
261,063	2,166	224,187	112,966
262,078	2,510	224,119	113,178
263,093	2,490	224,054	113,121
264,107	2,228	223,940	112,858
265,122	2,337	223,831	112,874
266,136	2,491	223,717	112,921
267,151	2,479	223,521	112,802
268,166	1,943	223,218	112,243
269,180	1,711	222,954	111,929
270,195	1,795	222,823	111,915
271,209	1,911	222,649	111,903
272,224	1,819	222,671	111,837
273,239	2,263	222,451	112,043
274,253	1,931	222,282	111,704
275,268	1,701	222,162	111,464
276,282	1,676	221,908	111,308
277,297	1,846	221,631	111,284
278,312	1,784	221,792	111,310
279,326	1,933	221,637	111,331
280,341	2,055	221,547	111,366
281,355	2,338	221,269	111,424
282,370	2,086	221,265	111,227
283,384	2,228	220,951	111,164
284,399	1,864	220,831	110,827
285,414	1,727	220,653	110,628
286,428	2,208	220,642	110,963
287,443	2,234	220,546	110,924
288,457	2,272	220,450	110,894
289,472	2,161	220,040	110,596
290,487	1,673	219,895	110,159
291,501	1,656	219,778	110,078
292,516	1,524	219,636	109,901
293,530	1,773	219,505	110,007
294,545	1,745	219,482	109,965
295,560	1,681	219,266	109,801
296,574	2,095	219,118	110,017
297,589	2,116	219,036	109,981
298,603	2,091	218,896	109,883
299,618	1,958	218,796	109,726
300,633	1,836	218,752	109,607
301,647	2,149	218,552	109,723
302,662	2,174	218,407	109,658
303,676	2,283	218,152	109,599
304,691	2,342	218,152	109,632
305,706	2,360	217,915	109,515
306,720	2,101	217,858	109,291
307,735	2,259	217,672	109,302
308,749	2,027	217,544	109,061
309,764	2,251	217,446	109,162
310,779	2,216	217,162	108,985
311,793	2,262	216,982	108,919
312,808	2,137	217,029	108,843
313,822	2,271	216,806	108,817
314,837	2,234	216,610	108,682
315,852	1,985	216,536	108,457
316,866	2,185	216,462	108,554
317,881	2,372	216,381	108,637
318,895	2,257	216,066	108,387
319,910	1,884	215,903	108,030
320,925	1,685	215,669	107,761
321,939	1,341	215,576	107,460
322,954	1,746	215,483	107,693
323,968	2,212	215,374	107,960
324,983	2,311	215,334	108,000
325,997	2,427	215,242	108,027
327,012	2,262	215,000	107,779
328,027	2,100	214,976	107,642
329,041	2,223	215,078	107,771
330,056	2,413	214,817	107,765
331,070	2,285	214,331	107,422
332,085	1,889	214,222	107,078
333,100	2,164	214,094	107,198
334,114	2,023	214,088	107,086
335,129	2,471	213,947	107,322
336,143	1,926	213,685	106,797
337,158	2,095	213,594	106,861
338,173	2,237	213,330	106,819
339,187	2,124	213,304	106,717
340,202	1,749	213,189	106,387
341,216	1,785	212,889	106,253
342,231	2,283	212,872	106,584
343,246	2,392	212,895	106,663
344,260	2,217	212,757	106,461
345,275	2,404	212,669	106,538
346,289	2,602	212,503	106,585
347,304	2,356	212,375	106,339
348,319	2,035	212,149	105,992
349,333	2,151	212,124	106,051
350,348	2,152	211,953	105,957
351,362	2,507	211,948	106,193
352,377	2,578	211,537	106,026
353,392	2,323	211,517	105,830
354,406	2,289	211,398	105,737
355,421	196,946	1315,355	1393,316
356,435	157,501	1449,807	1393,276
