DTS Sentinel unit serial number:	SN410029Multiplexer serial number:	ORYXHardware model number:	OX2-SRSoftware version number:	ORYX F/W v4,00 Oryx Data Collector v3.7.2.0data status	okinstallation	B6 Nyhavnadifferential loss correction	single-endedforward channel	channel 2reverse channel	N/Adate	2023/12/08time	22:40:08forward acquisition time	300,00reverse acquisition time	0,00gamma	499,1914k internal	0,3158k external	0,3158temperature offset calibration	1,0000default loss term (dB/km)	0,3820temperature slope calibration	1,0000multiplexer offset coefficient	1,0000multiplexer slope coefficient	1,0000fibre end	0,00T internal ref (°C)	15,37T ext. ref 1 (°C)	-1,02T ext. ref 2 (°C)	-1,02length (m)	temperature (°C)	Stokes	anti-Stokes-744,400	-200,000	0,001	0,113
-743,385	-171,614	-0,239	0,006
-742,371	656,963	0,089	0,169
-741,356	-162,108	-0,260	-0,009
-740,342	0,598	0,128	-0,067
-739,327	-86,488	-0,332	-0,074
-738,312	-35,922	0,082	0,032
-737,298	-114,712	-0,209	0,029
-736,283	217,198	0,100	0,118
-735,269	-173,848	-0,307	0,007
-734,254	-13,740	0,074	-0,035
-733,239	0,743	-0,472	-0,248
-732,225	131,985	0,094	0,089
-731,210	-113,794	0,029	0,004
-730,196	-174,033	0,102	0,002
-729,181	364,922	0,040	-0,059
-728,167	-200,000	0,009	-0,134
-727,152	-102,685	0,091	-0,016
-726,137	-55,221	0,022	0,007
-725,123	-200,000	-0,031	-0,212
-724,108	598,303	-0,084	-0,153
-723,094	800,000	0,016	-0,042
-722,079	175,692	-0,142	-0,152
-721,064	800,000	0,017	-0,042
-720,050	-44,733	-0,087	0,032
-719,035	-64,267	-0,148	0,044
-718,021	-178,662	0,105	-0,002
-717,006	-103,435	-0,178	-0,030
-715,991	26,488	-0,085	-0,052
-714,977	-73,614	-0,148	-0,039
-713,962	-200,000	0,004	0,042
-712,948	20,704	-0,103	0,061
-711,933	15,331	0,085	0,049
-710,918	-97,997	0,107	0,020
-709,904	165,363	-0,097	-0,101
-708,889	734,769	-0,087	-0,172
-707,875	-122,682	0,065	0,008
-706,860	66,949	-0,043	-0,032
-705,845	712,040	-0,058	-0,113
-704,831	-102,410	-0,175	-0,030
-703,816	-0,377	-0,034	0,017
-702,802	100,477	0,067	0,057
-701,787	-88,166	-0,096	-0,021
-700,772	-68,770	0,057	0,016
-699,758	-61,448	0,109	-0,033
-698,743	52,534	0,021	-0,015
-697,729	-200,000	0,016	-0,057
-696,714	-105,609	-0,082	0,013
-695,699	-78,023	-0,042	-0,010
-694,685	-144,333	0,017	0,001
-693,670	46,954	-0,019	-0,013
-692,656	157,661	-0,060	-0,062
-691,641	489,424	0,057	-0,097
-690,627	468,104	-0,104	0,172
-689,612	450,081	0,090	-0,146
-688,597	-200,000	-0,010	0,040
-687,583	-152,124	-0,049	-0,003
-686,568	316,332	0,036	0,050
-685,554	221,070	0,053	0,063
-684,539	91,073	0,062	-0,051
-683,524	142,822	0,076	0,074
-682,510	-200,000	-0,005	0,204
-681,495	800,000	0,038	0,079
-680,481	199,712	-0,049	0,055
-679,466	85,314	-0,114	-0,092
-678,451	528,840	0,125	0,218
-677,437	-29,965	0,082	0,034
-676,422	800,000	-0,055	0,136
-675,408	10,210	-0,031	0,017
-674,393	15,739	-0,033	-0,019
-673,378	-200,000	0,005	0,043
-672,364	-57,046	-0,147	-0,047
-671,349	102,481	-0,109	-0,094
-670,335	-93,132	0,090	-0,018
-669,320	800,000	0,073	-0,198
-668,305	-39,127	0,085	0,033
-667,291	99,326	0,041	-0,035
-666,276	-200,000	0,004	0,024
-665,262	-46,965	-0,123	0,044
-664,247	800,000	-0,076	-0,173
-663,232	-198,430	0,107	-0,000
-662,218	-200,000	0,004	-0,058
-661,203	-68,392	0,067	0,019
-660,189	-92,697	-0,129	0,026
-659,174	-200,000	0,008	-0,093
-658,159	200,942	-0,084	0,095
-657,145	800,000	0,031	-0,085
-656,130	-58,661	0,047	-0,015
-655,116	800,000	-0,033	0,089
-654,101	-200,000	-0,047	0,180
-653,086	164,550	-0,059	0,062
-652,072	606,719	-0,032	-0,058
-651,057	-8,871	-0,061	0,030
-650,043	311,001	0,071	-0,099
-649,028	303,770	-0,035	0,048
-648,014	74,440	0,081	-0,062
-646,999	800,000	-0,021	0,060
-645,984	-53,520	-0,092	0,031
-644,970	172,145	0,054	-0,057
-643,955	-48,177	-0,039	0,014
-642,941	105,521	0,041	-0,036
-641,926	-85,064	-0,152	-0,035
-640,911	800,000	0,021	-0,059
-639,897	133,136	0,138	0,131
-638,882	-124,918	0,117	0,013
-637,868	50,731	-0,120	0,083
-636,853	156,113	-0,027	0,027
-635,838	213,811	-0,055	0,064
-634,824	-0,854	-0,075	0,039
-633,809	540,211	0,030	0,053
-632,795	41,632	0,072	0,048
-631,780	800,000	0,043	-0,123
-630,765	-53,448	-0,066	-0,022
-629,751	28,876	-0,043	-0,026
-628,736	140,502	-0,062	-0,060
-627,722	-200,000	-0,002	0,097
-626,707	39,029	-0,093	0,061
-625,692	-145,252	0,042	-0,003
-624,678	-200,000	0,053	-0,173
-623,663	-200,000	0,027	0,128
-622,649	-58,249	0,037	0,012
-621,634	-200,000	-0,010	-0,060
-620,619	-12,419	0,080	-0,038
-619,605	-101,661	0,101	-0,018
-618,590	75,145	-0,069	0,053
-617,576	180,304	0,050	-0,053
-616,561	-56,454	-0,124	-0,040
-615,546	-200,000	-0,011	-0,096
-614,532	800,000	-0,057	-0,131
-613,517	-200,000	-0,031	0,103
-612,503	-36,500	0,121	0,048
-611,488	-177,671	-0,129	0,002
-610,474	280,547	-0,095	-0,125
-609,459	-47,028	-0,082	0,029
-608,444	289,011	-0,021	-0,027
-607,430	218,580	-0,036	-0,042
-606,415	148,460	-0,031	-0,031
-605,401	-200,000	-0,002	0,074
-604,386	337,201	0,059	-0,084
-603,371	-173,597	-0,087	-0,002
-602,357	-102,571	0,039	-0,007
-601,342	-107,500	-0,107	-0,017
-600,328	-116,537	-0,028	0,004
-599,313	595,095	-0,055	-0,099
-598,298	169,836	0,028	-0,029
-597,284	-139,137	-0,044	0,003
-596,269	192,441	-0,108	0,120
-595,255	-130,820	0,065	-0,006
-594,240	800,000	0,007	0,022
-593,225	-38,037	0,044	-0,017
-592,211	-200,000	0,013	0,057
-591,196	-200,000	0,030	0,149
-590,182	800,000	-0,036	0,092
-589,167	-200,000	-0,019	0,187
-588,152	-75,803	0,160	-0,041
-587,138	-69,719	-0,056	-0,015
-586,123	-75,478	-0,019	0,005
-585,109	-200,000	-0,019	0,121
-584,094	-188,881	-0,100	-0,001
-583,079	-26,932	0,079	-0,034
-582,065	-65,374	0,097	0,028
-581,050	-101,959	-0,071	-0,012
-580,036	36,907	-0,062	0,040
-579,021	-122,559	0,091	-0,011
-578,006	175,007	-0,120	-0,127
-576,992	-74,948	0,077	0,020
-575,977	25,668	-0,063	0,039
-574,963	-200,000	-0,009	0,108
-573,948	-200,000	0,006	-0,077
-572,934	56,124	-0,014	-0,010
-571,919	-200,000	-0,002	-0,076
-570,904	213,080	0,083	-0,096
-569,890	-81,237	-0,138	0,033
-568,875	-162,498	-0,008	0,000
-567,861	800,000	0,008	-0,020
-566,846	44,689	0,094	0,063
-565,831	582,845	-0,032	-0,057
-564,817	399,803	-0,056	-0,086
-563,802	60,442	-0,138	-0,100
-562,788	18,663	0,029	-0,017
-561,773	-7,317	0,069	-0,034
-560,758	-158,288	0,130	-0,005
-559,744	347,490	0,039	0,057
-558,729	-152,152	0,083	-0,004
-557,715	214,858	0,078	-0,090
-556,700	398,490	-0,113	-0,173
-555,685	120,528	0,046	0,042
-554,671	469,277	-0,070	-0,115
-553,656	356,859	0,026	0,039
-552,642	354,829	-0,145	0,211
-551,627	423,552	-0,119	0,188
-550,612	348,543	0,032	0,046
-549,598	-123,061	-0,012	0,001
-548,583	800,000	0,044	-0,103
-547,569	800,000	0,041	-0,123
-546,554	-84,902	0,075	-0,017
-545,539	-200,000	-0,031	0,244
-544,525	800,000	0,013	-0,035
-543,510	-7,798	-0,005	0,002
-542,496	-52,046	-0,144	0,049
-541,481	-3,143	-0,040	0,020
-540,466	82,003	0,053	-0,042
-539,452	67,595	-0,056	-0,042
-538,437	227,418	0,075	0,089
-537,423	-200,000	0,016	0,098
-536,408	274,415	0,066	0,085
-535,393	-128,006	-0,069	0,007
-534,379	800,000	-0,031	-0,097
-533,364	-106,273	0,112	-0,018
-532,350	15,919	-0,058	-0,033
-531,335	318,818	-0,076	0,105
-530,321	86,810	0,033	-0,027
-529,306	800,000	-0,028	-0,084
-528,291	-173,057	-0,043	0,001
-527,277	89,957	0,024	0,020
-526,262	-61,838	0,063	-0,019
-525,248	142,982	0,143	-0,139
-524,233	70,335	-0,074	-0,056
-523,218	324,609	0,095	-0,133
-522,204	111,143	-0,077	-0,068
-521,189	800,000	-0,035	0,098
-520,175	-51,155	-0,108	-0,037
-519,160	235,835	-0,044	0,054
-518,145	-133,186	0,075	0,007
-517,131	-200,000	-0,002	0,022
-516,116	321,300	-0,025	0,035
-515,102	800,000	-0,024	-0,074
-514,087	-200,000	0,025	0,135
-513,072	30,374	0,048	-0,030
-512,058	336,450	-0,008	0,011
-511,043	59,619	-0,101	0,073
-510,029	800,000	0,060	-0,143
-509,014	653,377	0,039	0,074
-507,999	800,000	-0,054	-0,166
-506,985	299,077	-0,065	-0,087
-505,970	-95,683	-0,124	0,024
-504,956	36,219	-0,100	0,064
-503,941	73,096	-0,038	0,029
-502,926	-35,408	-0,089	0,035
-501,912	-67,095	-0,082	0,024
-500,897	741,587	-0,051	0,100
-499,883	-22,308	0,044	-0,019
-498,868	800,000	0,036	-0,079
-497,853	-57,386	0,109	-0,035
-496,839	-200,000	-0,006	0,093
-495,824	800,000	-0,071	0,161
-494,810	271,378	-0,052	0,067
-493,795	-38,800	0,111	0,043
-492,781	-80,243	-0,080	-0,019
-491,766	137,451	-0,022	-0,021
-490,751	800,000	-0,022	-0,048
-489,737	-16,761	0,078	-0,036
-488,722	800,000	-0,017	-0,052
-487,708	-174,032	0,048	-0,001
-486,693	78,171	0,027	0,021
-485,678	-200,000	0,020	-0,083
-484,664	8,809	-0,050	-0,028
-483,649	36,923	0,192	-0,123
-482,635	45,331	0,062	-0,042
-481,620	89,969	0,058	0,048
-480,605	130,318	-0,067	-0,063
-479,591	145,566	-0,049	-0,048
-478,576	75,768	-0,066	-0,051
-477,562	-126,319	0,027	-0,003
-476,547	-200,000	-0,025	-0,152
-475,532	800,000	0,032	0,071
-474,518	1,283	-0,061	0,032
-473,503	174,852	0,062	0,066
-472,489	-20,165	-0,104	-0,047
-471,474	-18,648	-0,142	-0,064
-470,459	-200,000	0,058	0,263
-469,445	-58,396	-0,055	0,017
-468,430	-200,000	0,025	0,095
-467,416	800,000	-0,066	0,137
-466,401	160,396	0,069	0,070
-465,386	-111,606	0,069	-0,010
-464,372	-200,000	-0,007	-0,084
-463,357	523,641	0,050	0,086
-462,343	22,701	0,080	-0,048
-461,328	-200,000	-0,034	-0,150
-460,313	-200,000	0,000	0,057
-459,299	-114,983	0,086	0,012
-458,284	14,712	0,076	-0,043
-457,270	-26,947	0,050	-0,021
-456,255	144,693	0,087	-0,085
-455,241	-141,341	0,149	0,011
-454,226	402,636	-0,109	-0,167
-453,211	74,772	-0,073	-0,056
-452,197	-45,684	0,097	-0,035
-451,182	63,092	0,087	0,063
-450,168	104,011	0,140	0,120
-449,153	-18,982	0,054	-0,024
-448,138	386,575	0,087	-0,131
-447,124	-200,000	0,008	-0,093
-446,109	-38,807	-0,166	0,063
-445,095	-200,000	-0,018	0,137
-444,080	335,039	-0,008	-0,011
-443,065	800,000	0,021	-0,056
-442,051	-58,600	0,124	0,039
-441,036	33,974	-0,127	-0,080
-440,022	72,595	0,046	0,035
-439,007	-63,833	0,068	0,020
-437,992	800,000	-0,040	-0,117
-436,978	439,105	-0,006	-0,010
-435,963	377,118	0,052	-0,077
-434,949	376,267	-0,038	0,057
-433,934	-23,709	-0,053	-0,023
-432,919	-123,157	0,059	-0,007
-431,905	2,141	-0,080	-0,042
-430,890	-24,783	0,121	0,052
-429,876	800,000	0,038	0,096
-428,861	800,000	0,013	-0,030
-427,846	-200,000	0,026	-0,192
-426,832	800,000	0,059	-0,137
-425,817	247,755	0,111	-0,137
-424,803	-65,843	-0,096	0,028
-423,788	800,000	0,038	0,115
-422,773	-200,000	-0,017	0,133
-421,759	261,594	-0,046	-0,059
-420,744	-76,601	-0,121	-0,031
-419,730	108,212	0,042	-0,037
-418,715	-200,000	0,003	-0,093
-417,701	234,174	-0,013	0,016
-416,686	800,000	-0,044	0,094
-415,671	-147,132	-0,072	-0,004
-414,657	17,870	-0,071	-0,041
-413,642	-96,406	-0,110	-0,021
-412,628	-141,659	-0,061	0,004
-411,613	-112,300	-0,073	-0,010
-410,598	-113,491	0,072	0,010
-409,584	629,816	-0,086	0,159
-408,569	800,000	0,005	0,013
-407,555	-70,127	0,114	-0,031
-406,540	-107,571	0,074	-0,012
-405,525	800,000	0,045	-0,134
-404,511	800,000	-0,023	0,067
-403,496	-144,884	-0,040	-0,003
-402,482	-49,599	0,020	-0,007
-401,467	217,069	0,052	0,061
-400,452	-200,000	0,003	0,030
-399,438	255,297	0,044	0,055
-398,423	-78,817	-0,072	0,018
-397,409	-99,139	-0,041	-0,007
-396,394	-200,000	-0,004	0,022
-395,379	6,799	-0,078	0,042
-394,365	-76,952	0,075	0,019
-393,350	-153,370	0,096	-0,005
-392,336	-84,396	-0,064	-0,015
-391,321	59,117	0,121	-0,086
-390,306	-200,000	-0,001	-0,028
-389,292	-200,000	-0,008	-0,038
-388,277	-200,000	-0,005	0,124
-387,263	-200,000	-0,006	-0,037
-386,248	-200,000	0,027	0,106
-385,233	-200,000	-0,030	0,227
-384,219	-200,000	-0,000	0,096
-383,204	170,721	-0,062	0,064
-382,190	236,398	0,102	0,123
-381,175	267,868	-0,065	-0,083
-380,160	-100,901	0,243	0,043
-379,146	532,147	-0,011	0,019
-378,131	434,354	0,058	0,092
-377,117	-200,000	-0,018	0,099
-376,102	-20,221	-0,055	0,024
-375,088	623,149	0,052	0,096
-374,073	-200,000	0,012	-0,085
-373,058	302,024	0,031	-0,041
-372,044	-200,000	-0,005	0,019
-371,029	-42,128	0,117	-0,043
-370,015	473,035	0,028	0,045
-369,000	251,871	0,054	-0,067
-367,985	800,000	-0,022	-0,051
-366,971	3,892	-0,143	0,075
-365,956	450,837	-0,089	0,143
-364,942	-200,000	0,006	-0,052
-363,927	-126,023	0,096	0,010
-362,912	-74,500	0,105	0,027
-361,898	21,835	-0,086	-0,051
-360,883	-89,382	-0,042	-0,009
-359,869	139,926	0,118	0,113
-358,854	9,897	0,047	0,026
-357,839	-200,000	0,006	-0,044
-356,825	-200,000	0,008	0,161
-355,810	219,828	0,065	-0,076
-354,796	-200,000	-0,003	-0,012
-353,781	-131,319	-0,179	0,017
-352,766	301,628	0,036	-0,048
-351,752	161,465	0,084	0,086
-350,737	-171,781	-0,051	0,001
-349,723	-110,385	-0,094	-0,014
-348,708	-18,935	0,060	-0,027
-347,693	-200,000	-0,005	-0,060
-346,679	-200,000	0,004	-0,053
-345,664	42,500	-0,093	0,061
-344,650	94,643	-0,016	0,013
-343,635	128,593	-0,079	0,073
-342,620	-200,000	0,015	0,109
-341,606	-96,392	-0,160	0,031
-340,591	25,366	0,139	-0,084
-339,577	144,786	-0,040	-0,039
-338,562	654,903	0,023	0,044
-337,548	298,829	-0,009	0,012
-336,533	-172,897	-0,118	-0,003
-335,518	-62,904	-0,057	0,017
-334,504	69,640	0,111	0,083
-333,489	32,527	-0,149	-0,093
-332,475	365,217	-0,064	-0,094
-331,460	73,078	-0,126	-0,096
-330,445	800,000	-0,021	0,046
-329,431	-17,744	0,064	-0,029
-328,416	30,230	0,139	-0,086
-327,402	39,756	-0,056	0,036
-326,387	722,406	-0,045	0,088
-325,372	-200,000	-0,029	0,107
-324,358	-152,943	0,178	-0,009
-323,343	-21,659	-0,074	0,032
-322,329	202,962	0,052	0,058
-321,314	194,865	0,059	-0,065
-320,299	-81,611	0,062	-0,015
-319,285	147,078	-0,047	0,046
-318,270	226,327	-0,079	0,094
-317,256	17,395	0,051	0,029
-316,241	800,000	0,053	0,134
-315,226	-7,935	0,065	-0,032
-314,212	-200,000	0,004	0,099
-313,197	192,326	0,103	0,113
-312,183	685,249	0,039	0,074
-311,168	-200,000	0,012	0,155
-310,153	76,689	0,072	-0,056
-309,139	-200,000	-0,018	-0,109
-308,124	-200,000	-0,004	0,024
-307,110	-85,875	-0,090	0,020
-306,095	297,421	-0,066	-0,089
-305,080	37,823	-0,087	0,056
-304,066	783,492	-0,051	0,102
-303,051	800,000	-0,056	-0,134
-302,037	-28,891	-0,074	-0,031
-301,022	179,321	0,013	-0,014
-300,008	-189,176	0,115	0,001
-298,993	-134,431	-0,003	-0,000
-297,978	271,690	-0,014	-0,018
-296,964	-24,417	0,131	-0,056
-295,949	-200,000	-0,029	-0,106
-294,935	-116,502	0,066	0,009
-293,920	800,000	0,057	-0,140
-292,905	598,118	0,027	-0,048
-291,891	620,620	0,044	0,081
-290,876	409,485	0,062	0,095
-289,862	36,847	0,072	-0,046
-288,847	116,564	0,022	0,020
-287,832	693,171	0,049	-0,093
-286,818	441,980	0,089	0,142
-285,803	2,076	0,166	0,086
-284,789	-200,000	-0,054	-0,190
-283,774	-161,853	0,042	0,002
-282,759	209,244	-0,135	-0,153
-281,745	-200,000	-0,007	0,034
-280,730	-194,537	0,110	0,001
-279,716	-152,156	-0,144	0,007
-278,701	-33,735	-0,024	-0,010
-277,686	-9,451	-0,060	-0,029
-276,672	-200,000	0,020	-0,080
-275,657	-200,000	-0,025	-0,163
-274,643	235,458	-0,056	-0,067
-273,628	313,733	-0,052	-0,072
-272,613	172,326	-0,098	-0,102
-271,599	-200,000	0,003	0,078
-270,584	-106,161	0,028	-0,004
-269,570	-200,000	-0,002	-0,005
-268,555	173,008	-0,080	0,084
-267,540	300,500	0,032	0,043
-266,526	-200,000	-0,008	0,090
-265,511	-200,000	0,022	0,094
-264,497	60,991	-0,068	0,049
-263,482	-30,299	0,080	-0,033
-262,467	800,000	0,060	0,120
-261,453	-200,000	0,024	-0,080
-260,438	-15,896	-0,077	0,035
-259,424	150,057	0,080	0,079
-258,409	800,000	0,033	0,096
-257,395	99,157	0,057	-0,048
-256,380	800,000	-0,011	-0,027
-255,365	8,523	-0,146	-0,079
-254,351	253,016	-0,008	-0,010
-253,336	208,672	-0,046	0,052
-252,322	-200,000	-0,005	-0,096
-251,307	60,976	0,025	0,018
-250,292	69,546	0,093	0,069
-249,278	800,000	0,041	0,087
-248,263	-200,000	0,026	0,139
-247,249	146,847	-0,030	0,030
-246,234	800,000	0,031	-0,069
-245,219	57,679	0,061	-0,043
-244,205	163,504	0,064	-0,065
-243,190	-200,000	0,018	-0,068
-242,176	-51,159	-0,040	0,013
-241,161	20,445	0,124	-0,072
-240,146	214,594	0,051	0,058
-239,132	-75,190	-0,077	0,020
-238,117	235,869	-0,041	0,050
-237,103	234,718	-0,064	-0,076
-236,088	152,859	0,120	-0,118
-235,073	-76,835	-0,041	-0,010
-234,059	-200,000	0,022	0,152
-233,044	-196,469	0,069	-0,000
-232,030	235,117	-0,068	-0,081
-231,015	378,095	0,031	-0,046
-230,000	-22,170	0,111	-0,048
-228,986	-133,755	-0,091	-0,008
-227,971	2,708	0,069	0,036
-226,957	565,403	0,040	0,070
-225,942	-200,000	-0,034	-0,157
-224,927	142,843	0,084	0,080
-223,913	94,112	-0,067	0,055
-222,898	540,219	-0,012	0,021
-221,884	391,201	-0,021	0,032
-220,869	72,311	-0,088	-0,066
-219,855	577,500	-0,039	-0,069
-218,840	269,510	0,032	0,041
-217,825	-108,440	0,082	-0,013
-216,811	-200,000	0,032	-0,146
-215,796	653,255	-0,072	-0,134
-214,782	63,906	-0,103	0,075
-213,767	-199,431	0,068	-0,000
-212,752	249,759	0,027	0,034
-211,738	283,547	-0,046	0,060
-210,723	-200,000	0,023	0,120
-209,709	-102,155	0,058	0,010
-208,694	-200,000	0,014	0,063
-207,679	141,324	0,031	-0,029
-206,665	768,250	0,007	0,014
-205,650	-9,694	0,162	0,078
-204,636	800,000	-0,021	0,056
-203,621	92,808	-0,087	-0,071
-202,606	245,644	-0,070	0,085
-201,592	-200,000	-0,004	0,050
-200,577	-123,864	-0,127	-0,014
-199,563	77,625	0,045	-0,034
-198,548	-81,907	-0,051	0,012
-197,533	-200,000	0,022	-0,132
-196,519	800,000	-0,045	0,093
-195,504	556,373	0,076	-0,132
-194,490	-2,960	0,066	-0,033
-193,475	74,069	0,108	0,082
-192,460	-16,535	0,202	0,092
-191,446	133,916	0,103	0,096
-190,431	-200,000	-0,043	-0,144
-189,417	-200,000	0,015	-0,175
-188,402	101,834	0,062	0,052
-187,387	800,000	-0,068	-0,140
-186,373	182,411	0,019	0,021
-185,358	82,383	-0,151	-0,118
-184,344	800,000	0,047	0,122
-183,329	-112,223	-0,080	0,012
-182,315	-200,000	-0,020	0,089
-181,300	103,523	-0,091	0,077
-180,285	100,378	-0,088	-0,073
-179,271	-126,042	-0,126	-0,014
-178,256	0,222	0,108	-0,056
-177,242	-200,000	0,018	-0,103
-176,227	402,885	-0,038	-0,058
-175,212	97,947	-0,090	0,074
-174,198	192,105	-0,081	0,088
-173,183	-27,566	0,041	0,017
-172,169	552,965	-0,017	-0,029
-171,154	-200,000	0,024	-0,119
-170,139	-22,763	-0,027	0,012
-169,125	-20,166	0,101	-0,045
-168,110	94,011	-0,119	0,097
-167,096	800,000	0,021	0,044
-166,081	800,000	0,039	-0,125
-165,066	269,998	0,057	-0,072
-164,052	532,943	-0,050	-0,086
-163,037	16,764	0,082	-0,047
-162,023	592,114	-0,044	0,078
-161,008	-117,461	0,079	0,010
-159,993	114,285	-0,065	-0,057
-158,979	-200,000	0,009	-0,041
-157,964	-129,632	0,076	0,007
-156,950	-92,898	-0,030	-0,006
-155,935	-200,000	0,003	-0,056
-154,920	35,478	-0,110	-0,069
-153,906	-27,892	-0,030	0,012
-152,891	60,107	-0,076	-0,054
-151,877	150,673	-0,104	-0,101
-150,862	74,406	-0,047	0,036
-149,847	800,000	0,012	0,032
-148,833	-114,945	-0,130	0,018
-147,818	21,410	0,167	-0,097
-146,804	114,405	0,068	-0,060
-145,789	251,756	-0,078	0,095
-144,775	41,008	0,165	0,107
-143,760	-35,631	-0,035	-0,014
-142,745	147,534	0,064	-0,062
-141,731	-200,000	-0,025	0,121
-140,716	-200,000	-0,052	0,207
-139,702	-2,071	0,175	0,088
-138,687	40,536	-0,096	0,062
-137,672	-200,000	0,003	-0,049
-136,658	-200,000	0,003	-0,108
-135,643	14,067	0,123	0,069
-134,629	96,126	0,086	0,071
-133,614	-200,000	0,002	0,054
-132,599	-131,813	-0,053	-0,005
-131,585	-200,000	-0,025	0,087
-130,570	224,048	0,070	0,082
-129,556	-180,978	-0,130	0,002
-128,541	800,000	-0,025	-0,062
-127,526	-11,671	0,122	-0,057
-126,512	119,181	-0,034	-0,031
-125,497	-164,238	0,093	-0,003
-124,483	-200,000	-0,044	0,143
-123,468	800,000	0,042	-0,094
-122,453	800,000	0,050	0,110
-121,439	278,944	-0,023	0,029
-120,424	35,007	0,044	-0,028
-119,410	-200,000	0,011	-0,047
-118,395	169,780	-0,061	0,063
-117,380	-101,902	-0,051	-0,009
-116,366	23,743	-0,118	-0,070
-115,351	-200,000	0,005	-0,120
-114,337	329,023	0,030	-0,042
-113,322	-85,597	0,154	-0,034
-112,307	-200,000	0,014	0,083
-111,293	32,540	0,076	0,047
-110,278	-200,000	-0,006	0,059
-109,264	573,923	0,030	-0,052
-108,249	54,717	-0,007	0,005
-107,234	-200,000	-0,024	-0,094
-106,220	-200,000	-0,034	-0,164
-105,205	-200,000	-0,006	0,038
-104,191	273,543	0,069	-0,088
-103,176	-71,704	-0,109	0,029
-102,162	-200,000	0,001	0,011
-101,147	544,703	0,066	0,113
-100,132	-52,704	-0,105	-0,034
-99,118	800,000	0,070	-0,167
-98,103	800,000	-0,042	-0,111
-97,089	800,000	0,041	0,088
-96,074	180,451	-0,091	-0,096
-95,059	107,495	-0,032	0,027
-94,045	-200,000	0,013	-0,064
-93,030	225,878	0,054	0,063
-92,016	-114,200	0,038	-0,005
-91,001	51,820	0,095	0,065
-89,986	-154,082	-0,074	0,004
-88,972	800,000	0,049	0,116
-87,957	431,068	-0,069	0,108
-86,943	800,000	-0,036	-0,075
-85,928	-107,986	0,139	-0,021
-84,913	430,899	0,034	-0,054
-83,899	-104,443	-0,017	0,003
-82,884	238,345	0,094	-0,113
-81,870	-39,130	-0,119	0,045
-80,855	-200,000	0,017	0,099
-79,840	-138,299	-0,067	0,005
-78,826	-200,000	0,014	0,051
-77,811	-116,841	-0,056	-0,007
-76,797	27,538	-0,036	0,022
-75,782	-124,612	0,060	-0,007
-74,767	800,000	0,040	0,099
-73,753	-181,011	-0,113	0,002
-72,738	-200,000	0,000	-0,117
-71,724	126,927	-0,055	-0,050
-70,709	-81,724	-0,087	-0,020
-69,694	-60,543	0,153	-0,046
-68,680	134,191	-0,046	-0,043
-67,665	-200,000	0,007	-0,063
-66,651	161,749	-0,060	0,060
-65,636	-200,000	0,021	0,118
-64,622	-200,000	-0,005	-0,018
-63,607	18,469	-0,075	-0,043
-62,592	8,122	-0,128	-0,069
-61,578	170,970	0,107	0,111
-60,563	222,657	0,018	0,021
-59,549	3,403	-0,026	-0,014
-58,534	20,670	-1,935	-1,122
-57,519	-200,000	-0,139	-0,689
-56,505	-200,000	-1,307	-4,840
-55,490	41,982	0,836	0,543
-54,476	800,000	5,396	12,009
-53,461	-200,000	17,769	290,266
-52,446	800,000	725,382	2234,535
-51,432	539,518	1638,201	2808,256
-50,417	110,465	1628,436	1404,281
-49,403	74,047	1283,076	965,250
-48,388	31,897	1026,207	632,887
-47,373	19,965	988,366	570,244
-46,359	18,393	976,265	558,092
-45,344	15,693	972,459	547,066
-44,330	15,840	970,989	546,700
-43,315	15,384	969,418	544,304
-42,300	15,392	968,368	543,720
-41,286	15,362	967,283	542,991
-40,271	15,349	966,245	542,346
-39,257	15,484	965,262	542,212
-38,242	15,434	964,360	541,519
-37,227	15,464	963,575	541,154
-36,213	15,358	963,026	540,480
-35,198	15,321	961,953	539,737
-34,184	15,354	961,289	539,451
-33,169	15,352	960,127	538,771
-32,154	15,396	959,292	538,425
-31,140	15,389	958,358	537,855
-30,125	15,413	957,572	537,469
-29,111	15,412	956,867	537,051
-28,096	15,407	956,356	536,726
-27,082	15,445	955,552	536,374
-26,067	15,444	954,793	535,925
-25,052	15,369	953,958	535,195
-24,038	15,362	953,408	534,843
-23,023	15,374	952,489	534,344
-22,009	15,417	951,987	534,178
-20,994	15,372	951,384	533,674
-19,979	15,427	950,786	533,493
-18,965	15,403	950,195	533,064
-17,950	15,426	949,533	532,746
-16,936	15,353	949,023	532,206
-15,921	15,354	948,203	531,728
-14,906	15,306	947,567	531,195
-13,892	15,307	947,044	530,885
-12,877	15,295	946,178	530,341
-11,863	15,246	945,640	529,862
-10,848	15,272	945,133	529,639
-9,833	15,433	944,702	529,887
-8,819	15,389	944,011	529,341
-7,804	15,326	943,286	528,712
-6,790	15,275	942,971	528,354
-5,775	15,318	942,336	528,114
-4,760	15,307	941,736	527,722
-3,746	15,305	940,909	527,231
-2,731	15,140	940,390	526,397
-1,717	15,160	939,607	526,002
-0,702	15,146	939,003	525,599
0,313	14,985	938,412	525,551
1,327	18,321	936,590	534,988
2,342	27,648	790,122	475,897
3,356	24,339	444,430	262,765
4,371	-5,459	294,802	144,589
5,386	-9,178	276,357	132,016
6,400	-10,502	270,729	128,089
7,415	-10,816	268,484	126,727
8,429	-10,814	267,076	126,052
9,444	-10,889	266,178	125,550
10,459	-10,587	265,668	125,572
11,473	-10,911	264,892	124,900
12,488	-10,766	264,364	124,772
13,502	-11,162	263,927	124,197
14,517	-11,155	263,545	124,012
15,531	-11,012	263,152	123,945
16,546	-10,945	262,704	123,783
17,561	-10,828	262,359	123,715
18,575	-10,793	261,969	123,551
19,590	-10,993	261,595	123,185
20,604	-11,052	261,436	123,046
21,619	-10,977	261,042	122,916
22,634	-10,972	260,528	122,668
23,648	-11,247	260,568	122,431
24,663	-11,099	260,129	122,345
25,677	-11,072	259,799	122,203
26,692	-11,156	259,730	122,085
27,707	-11,171	259,347	121,881
28,721	-11,127	259,038	121,764
29,736	-11,160	258,878	121,649
30,750	-11,346	258,704	121,391
31,765	-11,224	258,403	121,347
32,780	-11,155	258,037	121,225
33,794	-11,240	257,879	121,066
34,809	-11,101	257,562	121,028
35,823	-11,298	257,378	120,758
36,838	-11,288	257,118	120,634
37,853	-11,316	256,901	120,496
38,867	-11,519	256,662	120,196
39,882	-11,256	256,488	120,334
40,896	-11,173	256,061	120,195
41,911	-11,060	255,939	120,227
42,926	-11,429	255,776	119,817
43,940	-11,292	255,487	119,790
44,955	-11,361	255,216	119,592
45,969	-11,317	254,924	119,483
46,984	-11,496	254,854	119,284
47,999	-11,967	254,465	118,682
49,013	-11,963	254,129	118,519
50,028	-12,108	254,027	118,334
51,042	-12,257	253,846	118,111
52,057	-12,298	253,535	117,920
53,071	-12,103	253,197	117,921
54,086	-11,985	253,177	118,003
55,101	-12,010	253,041	117,907
56,115	-11,690	252,889	118,102
57,130	-11,318	252,708	118,328
58,144	-10,819	252,547	118,672
59,159	-11,024	252,434	118,431
60,174	-11,075	252,186	118,261
61,188	-11,151	251,865	118,034
62,203	-11,024	251,704	118,057
63,217	-11,168	251,472	117,814
64,232	-11,029	251,268	117,827
65,247	-11,035	250,971	117,672
66,261	-11,165	250,822	117,481
67,276	-11,324	250,624	117,242
68,290	-11,627	250,185	116,768
69,305	-11,783	250,106	116,588
70,320	-11,642	249,820	116,564
71,334	-11,337	249,717	116,765
72,349	-11,112	249,585	116,884
73,363	-11,090	249,398	116,805
74,378	-10,984	249,190	116,786
75,393	-11,223	249,058	116,512
76,407	-11,285	248,691	116,278
77,422	-11,019	248,567	116,435
78,436	-11,109	248,193	116,172
79,451	-10,994	248,031	116,183
80,466	-11,168	247,782	115,910
81,480	-11,518	247,646	115,541
82,495	-11,301	247,339	115,570
83,509	-11,335	247,448	115,581
84,524	-11,326	247,038	115,387
85,539	-11,662	246,759	114,965
86,553	-11,708	246,768	114,920
87,568	-11,575	246,436	114,867
88,582	-11,404	246,210	114,895
89,597	-11,570	246,067	114,678
90,611	-11,354	246,059	114,845
91,626	-11,170	245,820	114,877
92,641	-11,398	245,601	114,574
93,655	-11,500	245,361	114,367
94,670	-11,434	245,103	114,292
95,684	-11,377	245,019	114,290
96,699	-11,221	244,800	114,307
97,714	-11,403	244,645	114,074
98,728	-11,560	244,363	113,801
99,743	-11,734	244,221	113,581
100,757	-11,578	243,919	113,560
101,772	-11,549	243,884	113,556
102,787	-11,243	243,685	113,707
103,801	-11,545	243,560	113,389
104,816	-11,294	243,330	113,480
105,830	-11,227	243,188	113,458
106,845	-11,093	243,027	113,484
107,860	-11,035	242,817	113,423
108,874	-11,260	242,512	113,085
109,889	-11,337	242,333	112,929
110,903	-11,213	242,106	112,915
111,918	-11,341	241,871	112,690
112,933	-11,369	241,886	112,664
113,947	-11,278	241,731	112,656
114,962	-11,165	241,416	112,592
115,976	-11,036	241,301	112,634
116,991	-11,169	241,204	112,470
118,006	-11,241	241,021	112,316
119,020	-11,246	240,879	112,235
120,035	-11,092	240,787	112,308
121,049	-11,143	240,558	112,150
122,064	-11,187	240,437	112,047
123,079	-11,349	240,166	111,779
124,093	-11,274	239,948	111,729
125,108	-11,431	239,650	111,453
126,122	-11,603	239,420	111,196
127,137	-11,714	239,347	111,062
128,151	-11,912	239,309	110,874
129,166	-11,537	238,972	111,011
130,181	-11,390	238,654	110,973
131,195	-11,675	238,567	110,692
132,210	-11,476	238,442	110,785
133,224	-11,412	238,292	110,757
134,239	-11,269	238,310	110,871
135,254	-11,188	237,925	110,747
136,268	-11,440	237,756	110,456
137,283	-11,607	237,376	110,136
138,297	-11,679	237,174	109,974
139,312	-11,780	237,147	109,870
140,327	-11,559	237,025	109,981
141,341	-10,930	236,954	110,443
142,356	-10,914	236,906	110,424
143,370	-11,175	236,835	110,171
144,385	-11,099	236,695	110,158
145,400	-10,660	236,279	110,305
146,414	-10,699	236,131	110,195
147,429	-10,935	236,014	109,942
148,443	-10,928	235,707	109,795
149,458	-10,994	235,757	109,756
150,473	-10,732	235,468	109,820
151,487	-11,039	235,361	109,517
152,502	-10,903	235,114	109,499
153,516	-10,717	234,912	109,543
154,531	-10,748	234,764	109,440
155,546	-11,086	234,579	109,076
156,560	-11,041	234,450	109,042
157,575	-11,218	234,260	108,804
158,589	-11,011	234,068	108,868
159,604	-10,800	233,968	108,980
160,619	-10,744	233,760	108,917
161,633	-10,775	233,591	108,804
162,648	-10,716	233,488	108,793
163,662	-10,969	233,362	108,525
164,677	-11,062	233,178	108,357
165,692	-10,837	233,058	108,468
166,706	-10,716	232,894	108,478
167,721	-10,733	232,742	108,383
168,735	-10,670	232,546	108,332
169,750	-10,704	232,383	108,219
170,764	-10,845	232,355	108,087
171,779	-10,831	232,221	108,026
172,794	-10,494	231,946	108,152
173,808	-10,908	231,695	107,701
174,823	-11,610	231,466	107,037
175,837	-11,644	231,208	106,882
176,852	-11,389	231,438	107,178
177,867	-10,955	231,268	107,428
178,881	-10,728	231,034	107,486
179,896	-10,732	230,811	107,370
180,910	-10,788	230,684	107,258
181,925	-10,846	230,593	107,161
182,940	-10,918	230,627	107,110
183,954	-10,657	230,318	107,161
184,969	-10,666	230,079	107,033
185,983	-10,653	229,846	106,925
186,998	-10,600	229,802	106,936
188,013	-10,504	229,604	106,909
189,027	-10,650	229,432	106,706
190,042	-10,533	229,265	106,710
191,056	-10,624	229,206	106,602
192,071	-10,432	229,021	106,655
193,086	-10,632	228,797	106,387
194,100	-10,653	228,778	106,352
195,115	-10,901	228,365	105,960
196,129	-11,092	228,469	105,852
197,144	-5,586	230,105	110,862
198,159	0,545	231,861	116,465
199,173	2,904	232,554	118,638
200,188	3,180	232,596	118,863
201,202	3,239	232,315	118,755
202,217	3,712	232,261	119,083
203,232	3,920	232,295	119,251
204,246	4,016	232,051	119,190
205,261	4,045	231,937	119,143
206,275	4,207	231,896	119,236
207,290	4,163	231,773	119,129
208,304	3,998	231,809	119,009
209,319	4,101	231,410	118,873
210,334	4,067	231,180	118,718
211,348	3,903	230,868	118,421
212,363	3,461	230,748	118,008
213,377	3,334	230,418	117,732
214,392	3,313	230,324	117,657
215,407	3,192	230,177	117,478
216,421	3,759	229,938	117,781
217,436	3,563	229,800	117,549
218,450	3,145	229,773	117,205
219,465	2,819	229,549	116,830
220,480	3,057	229,374	116,913
221,494	3,143	229,179	116,869
222,509	3,228	229,164	116,916
223,523	3,156	228,951	116,742
224,538	3,173	228,829	116,682
225,553	3,463	228,584	116,768
226,567	3,474	228,456	116,700
227,582	3,492	228,545	116,749
228,596	3,906	228,406	116,983
229,611	3,611	228,020	116,551
230,626	3,187	227,972	116,194
231,640	3,026	227,748	115,947
232,655	3,380	227,661	116,161
233,669	3,824	227,695	116,504
234,684	3,875	227,569	116,468
235,699	3,762	227,271	116,220
236,713	3,294	227,232	115,836
237,728	3,170	226,872	115,548
238,742	3,198	226,730	115,487
239,757	3,142	226,623	115,380
240,772	3,234	226,522	115,387
241,786	3,268	226,302	115,291
242,801	3,380	226,230	115,328
243,815	3,571	226,269	115,481
244,830	3,700	225,992	115,426
245,844	3,353	225,768	115,041
246,859	3,608	225,598	115,135
247,874	3,665	225,439	115,087
248,888	3,545	225,286	114,909
249,903	3,518	225,125	114,796
250,917	3,569	224,938	114,729
251,932	3,446	224,794	114,553
252,947	3,241	224,604	114,293
253,961	2,803	224,624	113,966
254,976	3,265	224,315	114,144
255,990	3,431	224,292	114,246
257,005	3,457	224,249	114,233
258,020	3,309	224,081	114,026
259,034	3,644	223,980	114,215
260,049	3,615	223,865	114,124
261,063	3,332	223,619	113,778
262,078	3,574	223,517	113,896
263,093	3,671	223,393	113,894
264,107	3,716	223,423	113,933
265,122	3,660	223,094	113,713
266,136	3,815	222,962	113,751
267,151	3,558	222,828	113,483
268,166	3,377	222,517	113,180
269,180	3,050	222,305	112,821
270,195	3,177	222,209	112,855
271,209	3,169	222,188	112,829
272,224	3,268	221,998	112,795
273,239	3,523	221,871	112,908
274,253	3,327	221,637	112,635
275,268	3,262	221,411	112,463
276,282	3,222	221,358	112,396
277,297	3,072	221,014	112,102
278,312	3,027	221,028	112,065
279,326	3,147	220,954	112,106
280,341	3,338	220,863	112,190
281,355	3,563	220,732	112,278
282,370	3,273	220,553	111,965
283,384	3,104	220,274	111,690
284,399	2,893	220,118	111,447
285,414	3,042	220,063	111,518
286,428	3,341	219,968	111,678
287,443	3,392	219,847	111,643
288,457	3,449	219,760	111,631
289,472	3,359	219,491	111,419
290,487	2,817	219,184	110,859
291,501	2,970	218,906	110,820
292,516	2,922	219,138	110,892
293,530	3,096	218,852	110,864
294,545	2,879	218,830	110,686
295,560	3,233	218,708	110,870
296,574	3,206	218,519	110,745
297,589	3,397	218,347	110,786
298,603	3,584	218,309	110,892
299,618	3,517	218,167	110,762
300,633	3,369	218,140	110,632
301,647	3,428	217,908	110,547
302,662	3,642	217,690	110,580
303,676	3,491	217,550	110,391
304,691	3,714	217,416	110,474
305,706	3,720	217,287	110,402
306,720	3,343	217,390	110,173
307,735	3,384	217,096	110,044
308,749	3,406	216,891	109,946
309,764	3,346	216,858	109,877
310,779	3,407	216,837	109,900
311,793	3,501	216,398	109,735
312,808	3,656	216,297	109,784
313,822	3,624	216,209	109,707
314,837	3,133	216,113	109,298
315,852	3,132	215,891	109,175
316,866	3,128	215,781	109,107
317,881	3,685	215,632	109,419
318,895	3,461	215,581	109,224
319,910	3,373	215,314	109,016
320,925	3,143	215,145	108,757
321,939	2,721	215,037	108,393
322,954	2,921	214,832	108,422
323,968	2,815	214,882	108,362
324,983	3,158	214,807	108,558
325,997	3,731	214,650	108,875
327,012	3,438	214,533	108,599
328,027	3,523	214,289	108,526
329,041	3,582	214,418	108,623
330,056	3,638	214,217	108,551
331,070	3,483	213,939	108,291
332,085	3,088	213,729	107,897
333,100	3,368	213,544	107,991
334,114	3,122	213,486	107,779
335,129	3,305	213,430	107,870
336,143	3,213	213,187	107,672
337,158	3,343	212,976	107,647
338,173	3,267	212,952	107,572
339,187	2,872	212,852	107,235
340,202	3,046	212,550	107,195
341,216	3,100	212,407	107,152
342,231	3,086	212,376	107,116
343,246	3,139	212,184	107,047
344,260	2,953	212,185	106,908
345,275	3,342	211,932	107,043
346,289	3,278	211,885	106,965
347,304	3,509	211,675	107,011
348,319	3,278	211,623	106,814
349,333	3,120	211,470	106,616
350,348	3,576	211,318	106,848
351,362	3,386	211,260	106,677
352,377	3,468	211,231	106,710
353,392	3,471	210,952	106,561
354,406	3,360	210,903	106,450
355,421	195,638	1340,050	1418,171
356,435	156,267	1477,593	1418,156
