DTS Sentinel unit serial number:	SN410029Multiplexer serial number:	ORYXHardware model number:	OX2-SRSoftware version number:	ORYX F/W v4,00 Oryx Data Collector v3.7.2.0data status	okinstallation	B6 Nyhavnadifferential loss correction	single-endedforward channel	channel 2reverse channel	N/Adate	2023/12/09time	21:10:08forward acquisition time	300,00reverse acquisition time	0,00gamma	499,1914k internal	0,3128k external	0,3128temperature offset calibration	1,0000default loss term (dB/km)	0,3820temperature slope calibration	1,0000multiplexer offset coefficient	1,0000multiplexer slope coefficient	1,0000fibre end	0,00T internal ref (°C)	21,50T ext. ref 1 (°C)	5,39T ext. ref 2 (°C)	5,39length (m)	temperature (°C)	Stokes	anti-Stokes-744,400	92,036	0,099	-0,083
-743,385	-47,006	-0,298	0,108
-742,371	-80,954	-0,029	0,007
-741,356	10,969	-0,193	0,110
-740,342	66,284	0,112	0,084
-739,327	63,752	-0,178	0,133
-738,312	-102,666	0,096	0,017
-737,298	-175,432	-0,216	0,004
-736,283	752,014	0,038	0,077
-735,269	-47,892	-0,195	0,070
-734,254	2,000	-0,092	0,049
-733,239	-54,286	-0,390	-0,131
-732,225	161,832	0,118	0,123
-731,210	-200,000	0,004	-0,018
-730,196	-200,000	-0,008	0,052
-729,181	105,930	0,046	0,040
-728,167	389,910	0,127	0,197
-727,152	324,313	0,014	-0,021
-726,137	483,727	-0,070	0,119
-725,123	105,823	-0,075	-0,066
-724,108	-200,000	0,021	-0,082
-723,094	231,629	-0,113	-0,138
-722,079	800,000	0,065	-0,145
-721,064	72,671	0,073	0,057
-720,050	-78,959	0,035	0,009
-719,035	-70,349	-0,062	-0,017
-718,021	-200,000	0,011	0,073
-717,006	-200,000	0,009	0,090
-715,991	-200,000	-0,022	-0,134
-714,977	0,404	0,105	0,055
-713,962	-11,030	-0,109	0,053
-712,948	632,719	0,043	0,082
-711,933	-200,000	0,016	-0,123
-710,918	-162,736	-0,031	-0,001
-709,904	-44,512	-0,067	0,025
-708,889	198,853	-0,062	-0,070
-707,875	48,051	0,189	-0,131
-706,860	-200,000	-0,003	-0,130
-705,845	164,784	0,073	0,077
-704,831	104,195	0,060	0,052
-703,816	245,220	-0,059	0,074
-702,802	800,000	-0,059	-0,193
-701,787	-200,000	0,012	-0,083
-700,772	-41,953	0,135	-0,051
-699,758	30,919	0,082	0,052
-698,743	194,802	-0,061	0,069
-697,729	-155,888	0,192	0,009
-696,714	-200,000	-0,008	-0,098
-695,699	-200,000	0,011	0,055
-694,685	2,984	-0,068	0,037
-693,670	-160,278	-0,103	-0,004
-692,656	-200,000	-0,006	0,070
-691,641	-79,994	0,141	0,035
-690,627	-86,996	0,161	0,036
-689,612	-138,279	-0,191	-0,015
-688,597	-13,112	0,034	-0,016
-687,583	53,206	-0,120	-0,085
-686,568	-200,000	-0,007	-0,140
-685,554	-163,384	-0,039	0,001
-684,539	18,884	-0,028	0,016
-683,524	-200,000	-0,007	0,101
-682,510	-50,429	-0,079	-0,028
-681,495	-200,000	0,009	-0,153
-680,481	49,318	-0,058	-0,041
-679,466	137,229	-0,062	-0,060
-678,451	282,071	-0,049	0,065
-677,437	412,749	0,085	0,134
-676,422	344,094	0,086	-0,126
-675,408	-89,213	-0,073	-0,016
-674,393	174,113	-0,048	0,051
-673,378	-200,000	0,001	-0,094
-672,364	389,586	-0,031	-0,048
-671,349	-138,967	-0,064	-0,005
-670,335	800,000	-0,034	0,089
-669,320	-200,000	-0,017	-0,122
-668,305	-200,000	-0,007	-0,071
-667,291	124,629	-0,053	0,050
-666,276	163,821	-0,095	-0,100
-665,262	-169,684	-0,199	-0,005
-664,247	800,000	0,027	0,073
-663,232	-200,000	0,001	0,024
-662,218	-200,000	0,005	0,077
-661,203	800,000	-0,056	-0,122
-660,189	-200,000	0,000	-0,014
-659,174	800,000	0,022	-0,045
-658,159	-200,000	-0,017	-0,205
-657,145	-63,688	-0,137	-0,041
-656,130	127,971	0,014	-0,013
-655,116	311,477	0,071	-0,099
-654,101	-200,000	-0,018	-0,118
-653,086	-97,525	-0,045	-0,009
-652,072	-200,000	-0,001	-0,087
-651,057	800,000	-0,046	0,120
-650,043	800,000	-0,032	-0,103
-649,028	-7,421	-0,157	-0,079
-648,014	-147,264	0,124	-0,008
-646,999	-200,000	0,010	0,199
-645,984	-170,497	0,033	0,001
-644,970	-82,350	-0,123	-0,030
-643,955	-148,581	0,087	0,005
-642,941	-200,000	-0,007	-0,061
-641,926	-108,295	0,058	0,009
-640,911	-151,152	-0,123	-0,007
-639,897	104,034	-0,097	-0,085
-638,882	-49,343	-0,041	0,014
-637,868	-3,020	-0,181	-0,093
-636,853	21,478	-0,107	-0,064
-635,838	398,123	0,037	-0,057
-634,824	-17,510	-0,024	0,011
-633,809	269,751	0,028	0,037
-632,795	-20,983	-0,091	0,041
-631,780	123,432	-0,076	0,070
-630,765	171,656	-0,022	-0,024
-629,751	-151,864	-0,117	0,006
-628,736	59,773	0,041	0,030
-627,722	-76,351	-0,182	-0,047
-626,707	-71,400	-0,104	-0,029
-625,692	195,385	0,057	-0,064
-624,678	721,167	0,029	0,057
-623,663	-33,513	0,042	0,017
-622,649	242,806	0,111	-0,138
-621,634	30,152	-0,144	-0,091
-620,619	1,844	-0,023	-0,012
-619,605	273,185	-0,047	0,061
-618,590	655,643	0,063	-0,121
-617,576	28,475	-0,122	-0,076
-616,561	117,833	0,018	-0,016
-615,546	351,271	-0,098	-0,144
-614,532	-127,569	-0,128	-0,014
-613,517	349,764	0,063	-0,092
-612,503	236,793	0,050	0,062
-611,488	-63,593	-0,045	0,014
-610,474	800,000	-0,021	0,063
-609,459	-26,130	0,132	0,057
-608,444	79,087	-0,090	0,071
-607,430	-95,434	0,108	0,021
-606,415	741,866	-0,033	0,066
-605,401	247,900	0,068	0,085
-604,386	-200,000	0,013	0,065
-603,371	-18,832	-0,106	-0,049
-602,357	-128,623	0,016	-0,002
-601,342	-200,000	0,017	-0,126
-600,328	353,538	-0,053	-0,078
-599,313	-72,106	-0,014	-0,004
-598,298	17,743	-0,021	0,012
-597,284	800,000	-0,028	0,066
-596,269	-110,014	0,078	0,012
-595,255	33,279	0,010	0,006
-594,240	-200,000	-0,016	0,116
-593,225	378,213	-0,073	-0,111
-592,211	39,707	-0,083	-0,055
-591,196	241,172	-0,069	-0,085
-590,182	226,773	0,096	0,116
-589,167	800,000	-0,048	0,100
-588,152	-130,988	-0,108	0,011
-587,138	-24,323	-0,153	-0,067
-586,123	51,072	0,148	-0,103
-585,109	-11,197	0,049	-0,024
-584,094	38,390	-0,108	-0,071
-583,079	54,762	0,045	0,032
-582,065	35,431	-0,038	-0,024
-581,050	-177,679	-0,119	-0,002
-580,036	-200,000	0,014	-0,062
-579,021	-200,000	0,010	-0,045
-578,006	520,282	-0,007	0,013
-576,992	505,346	0,042	-0,071
-575,977	-78,363	0,136	0,034
-574,963	-73,697	0,014	0,004
-573,948	259,109	0,034	-0,043
-572,934	331,177	-0,085	0,121
-571,919	800,000	-0,029	-0,077
-570,904	-200,000	-0,033	-0,201
-569,890	3,153	-0,149	-0,080
-568,875	91,209	0,068	-0,056
-567,861	-19,805	0,068	0,031
-566,846	-55,168	0,206	0,068
-565,831	197,120	-0,069	0,078
-564,817	291,280	-0,047	0,064
-563,802	434,176	-0,023	0,038
-562,788	-74,032	0,102	-0,027
-561,773	-200,000	-0,014	0,055
-560,758	107,783	-0,090	-0,079
-559,744	-5,812	0,062	-0,031
-558,729	-0,456	0,058	0,030
-557,715	800,000	-0,020	-0,051
-556,700	-200,000	-0,017	-0,147
-555,685	-1,940	0,103	-0,053
-554,671	800,000	-0,013	0,035
-553,656	448,286	-0,020	0,033
-552,642	800,000	0,028	-0,068
-551,627	-87,279	0,044	0,010
-550,612	-200,000	-0,008	-0,042
-549,598	359,243	0,097	-0,144
-548,583	143,564	-0,055	-0,054
-547,569	17,208	-0,098	0,057
-546,554	-43,952	-0,061	0,022
-545,539	-55,864	0,066	0,022
-544,525	89,254	-0,083	0,068
-543,510	2,912	-0,092	-0,049
-542,496	264,544	-0,021	-0,027
-541,481	-200,000	0,029	0,151
-540,466	87,984	-0,051	0,042
-539,452	800,000	0,016	-0,044
-538,437	-83,930	0,103	0,024
-537,423	10,777	-0,147	-0,082
-536,408	-200,000	-0,001	0,059
-535,393	28,000	0,135	0,084
-534,379	-200,000	0,020	-0,072
-533,364	800,000	0,041	0,097
-532,350	-60,573	0,138	0,043
-531,335	40,579	0,065	0,043
-530,321	-200,000	0,020	0,098
-529,306	-200,000	-0,007	-0,120
-528,291	21,004	-0,127	0,076
-527,277	-87,528	-0,115	0,026
-526,262	435,628	0,056	-0,090
-525,248	-200,000	0,030	0,120
-524,233	-200,000	0,029	0,127
-523,218	49,065	0,052	0,036
-522,204	-38,995	0,082	-0,032
-521,189	-200,000	-0,003	-0,076
-520,175	-159,969	-0,061	-0,002
-519,160	-157,700	-0,201	-0,009
-518,145	800,000	0,046	-0,124
-517,131	-200,000	0,032	0,147
-516,116	104,439	0,056	-0,049
-515,102	-200,000	0,014	-0,123
-514,087	185,090	-0,077	-0,084
-513,072	-92,775	-0,057	-0,012
-512,058	-114,802	-0,115	-0,016
-511,043	-23,988	0,092	-0,040
-510,029	-101,565	0,155	-0,027
-509,014	-55,842	0,152	0,050
-507,999	-200,000	0,001	-0,079
-506,985	-18,481	0,013	-0,006
-505,970	-45,161	0,119	-0,043
-504,956	-35,179	-0,049	0,020
-503,941	167,387	0,031	0,033
-502,926	-200,000	-0,013	-0,121
-501,912	4,739	-0,124	-0,067
-500,897	-129,886	-0,133	-0,013
-499,883	308,416	-0,010	-0,013
-498,868	-200,000	-0,017	-0,071
-497,853	67,020	0,041	-0,031
-496,839	-92,289	0,105	0,022
-495,824	-141,258	0,203	0,015
-494,810	534,479	0,031	0,054
-493,795	-88,074	0,080	-0,018
-492,781	473,573	0,119	0,198
-491,766	-200,000	-0,000	-0,073
-490,751	81,059	-0,034	-0,027
-489,737	-33,584	-0,047	0,019
-488,722	-200,000	0,021	0,200
-487,708	-25,047	0,051	-0,022
-486,693	514,022	-0,025	-0,042
-485,678	314,978	-0,057	0,080
-484,664	-22,116	-0,036	-0,016
-483,649	-200,000	-0,008	-0,067
-482,635	-200,000	-0,010	-0,081
-481,620	-49,666	-0,180	-0,063
-480,605	88,384	0,077	-0,063
-479,591	800,000	0,024	-0,066
-478,576	53,360	-0,052	-0,037
-477,562	341,703	-0,051	-0,073
-476,547	-154,881	-0,099	0,005
-475,532	44,264	0,088	-0,059
-474,518	81,440	-0,039	-0,031
-473,503	603,895	-0,024	0,044
-472,489	-33,885	0,048	-0,019
-471,474	-200,000	0,047	0,174
-470,459	-200,000	0,001	-0,054
-469,445	-102,195	0,027	-0,005
-468,430	-200,000	0,000	-0,016
-467,416	-117,923	-0,090	-0,012
-466,401	83,939	0,027	0,022
-465,386	134,964	0,032	0,031
-464,372	800,000	0,007	0,022
-463,357	41,322	0,103	0,068
-462,343	800,000	-0,053	-0,127
-461,328	-77,171	0,055	0,014
-460,313	-200,000	0,017	-0,072
-459,299	-37,089	-0,061	0,024
-458,284	45,776	0,077	0,052
-457,270	320,893	0,085	0,119
-456,255	-200,000	0,008	0,054
-455,241	-200,000	-0,019	-0,111
-454,226	-200,000	-0,014	-0,113
-453,211	800,000	0,046	-0,106
-452,197	124,940	0,070	0,065
-451,182	82,807	0,078	0,063
-450,168	-200,000	0,004	0,013
-449,153	-200,000	0,009	0,165
-448,138	-88,000	-0,150	0,033
-447,124	-200,000	0,000	0,106
-446,109	-25,570	-0,029	0,012
-445,095	-105,730	0,158	0,026
-444,080	-183,293	0,126	0,002
-443,065	-200,000	-0,017	0,168
-442,051	116,597	-0,089	-0,080
-441,036	-7,268	-0,116	0,057
-440,022	-200,000	-0,014	-0,049
-439,007	-200,000	-0,015	0,168
-437,992	-132,562	-0,071	0,007
-436,978	178,130	0,068	-0,073
-435,963	-200,000	0,009	-0,062
-434,949	-200,000	0,009	0,076
-433,934	49,250	0,055	0,038
-432,919	134,303	-0,098	-0,093
-431,905	-37,346	-0,028	-0,011
-430,890	113,644	0,027	0,024
-429,876	319,491	-0,077	0,108
-428,861	330,201	-0,038	0,055
-427,846	-18,094	0,054	0,025
-426,832	-200,000	-0,014	-0,083
-425,817	-3,143	-0,083	-0,042
-424,803	380,685	0,024	0,036
-423,788	-36,172	-0,179	0,071
-422,773	-200,000	0,006	0,028
-421,759	82,763	-0,115	-0,092
-420,744	-68,992	-0,059	-0,017
-419,730	601,529	-0,023	-0,042
-418,715	611,291	-0,022	0,040
-417,701	164,265	0,076	0,079
-416,686	800,000	0,024	0,066
-415,671	800,000	-0,019	-0,059
-414,657	79,728	0,065	0,051
-413,642	-200,000	-0,006	0,027
-412,628	195,087	0,073	-0,081
-411,613	-200,000	-0,022	-0,128
-410,598	415,346	-0,050	-0,078
-409,584	70,380	0,079	-0,060
-408,569	181,336	-0,015	0,016
-407,555	-200,000	0,030	-0,143
-406,540	179,878	-0,060	-0,064
-405,525	122,367	-0,116	-0,107
-404,511	-200,000	0,036	-0,135
-403,496	-27,689	0,203	-0,086
-402,482	-200,000	-0,012	0,079
-401,467	-200,000	0,003	0,022
-400,452	272,932	0,039	-0,051
-399,438	-200,000	-0,007	0,201
-398,423	800,000	-0,024	-0,065
-397,409	800,000	0,041	-0,131
-396,394	64,602	-0,007	-0,006
-395,379	-200,000	-0,004	0,044
-394,365	-200,000	-0,004	0,046
-393,350	800,000	0,027	-0,086
-392,336	283,149	-0,011	-0,014
-391,321	-162,191	-0,118	-0,004
-390,306	55,621	-0,043	0,030
-389,292	-38,467	-0,030	0,012
-388,277	80,892	0,056	0,045
-387,263	-3,694	0,064	-0,033
-386,248	-200,000	0,005	0,092
-385,233	163,301	0,069	0,071
-384,219	800,000	-0,032	-0,102
-383,204	137,565	-0,046	-0,044
-382,190	-148,451	0,162	0,010
-381,175	-200,000	0,018	0,076
-380,160	-139,976	0,141	0,011
-379,146	172,437	0,104	0,110
-378,131	-181,674	-0,076	0,001
-377,117	-200,000	0,008	0,109
-376,102	-200,000	-0,004	-0,071
-375,088	138,690	0,016	0,016
-374,073	169,670	-0,073	0,077
-373,058	546,172	0,009	-0,016
-372,044	66,016	0,100	0,075
-371,029	147,523	0,032	0,031
-370,015	494,210	0,053	-0,089
-369,000	800,000	-0,007	0,016
-367,985	-105,932	0,049	0,008
-366,971	-200,000	0,003	0,125
-365,956	-200,000	-0,025	0,080
-364,942	422,845	0,040	0,064
-363,927	-55,693	0,259	0,084
-362,912	-200,000	0,015	0,104
-361,898	-200,000	-0,030	0,120
-360,883	-4,281	0,036	-0,018
-359,869	-200,000	0,019	0,113
-358,854	-200,000	-0,006	0,025
-357,839	2,297	0,032	-0,017
-356,825	-28,146	0,076	0,032
-355,810	-200,000	-0,006	-0,034
-354,796	800,000	0,067	-0,183
-353,781	65,177	-0,065	-0,048
-352,766	-41,235	-0,050	0,019
-351,752	205,593	0,070	-0,080
-350,737	-200,000	0,043	0,147
-349,723	41,798	-0,119	0,079
-348,708	154,094	0,030	0,030
-347,693	178,752	-0,075	-0,080
-346,679	31,079	0,038	0,024
-345,664	-89,017	-0,121	0,026
-344,650	-91,323	0,192	0,040
-343,635	-6,467	-0,133	-0,066
-342,620	65,155	0,046	0,034
-341,606	164,046	0,007	0,007
-340,591	-108,548	0,066	0,010
-339,577	72,754	0,034	-0,026
-338,562	800,000	0,057	0,129
-337,548	31,677	0,117	0,074
-336,533	-49,704	0,038	0,013
-335,518	-200,000	0,009	0,069
-334,504	-200,000	-0,025	-0,102
-333,489	800,000	0,020	-0,044
-332,475	-51,892	-0,059	0,020
-331,460	800,000	-0,003	-0,009
-330,445	-67,198	-0,039	-0,011
-329,431	-200,000	0,001	0,077
-328,416	-125,822	-0,046	-0,005
-327,402	-200,000	-0,016	-0,102
-326,387	800,000	0,014	0,035
-325,372	800,000	0,040	-0,125
-324,358	71,137	-0,090	-0,068
-323,343	-60,989	0,062	0,019
-322,329	-200,000	0,014	0,100
-321,314	-96,971	0,061	0,012
-320,299	-121,228	0,043	0,005
-319,285	-11,254	-0,102	-0,049
-318,270	-42,780	0,038	-0,014
-317,256	61,922	-0,048	0,035
-316,241	36,281	-0,074	0,048
-315,226	-52,291	0,062	0,021
-314,212	19,161	-0,068	0,040
-313,197	152,352	0,100	-0,100
-312,183	94,338	0,140	0,117
-311,168	-200,000	-0,006	-0,065
-310,153	243,392	-0,050	-0,061
-309,139	-200,000	0,029	-0,107
-308,124	39,149	0,137	0,090
-307,110	-200,000	-0,009	0,093
-306,095	155,544	0,074	0,075
-305,080	335,425	0,050	0,071
-304,066	-200,000	0,007	0,123
-303,051	-200,000	-0,018	-0,121
-302,037	606,810	-0,082	-0,150
-301,022	-200,000	-0,021	0,116
-300,008	-121,418	0,139	0,017
-298,993	-200,000	-0,034	0,116
-297,978	-200,000	0,024	0,083
-296,964	-56,584	0,166	-0,053
-295,949	53,494	-0,105	-0,073
-294,935	-200,000	0,004	-0,026
-293,920	-63,840	0,093	0,028
-292,905	-106,470	0,153	0,025
-291,891	-200,000	-0,028	0,183
-290,876	30,322	-0,083	-0,052
-289,862	381,446	0,036	-0,053
-288,847	50,143	0,017	0,012
-287,832	6,337	0,110	-0,060
-286,818	-200,000	0,009	0,037
-285,803	-168,939	-0,034	-0,001
-284,789	362,744	0,090	0,132
-283,774	35,588	-0,030	-0,019
-282,759	-200,000	-0,001	-0,008
-281,745	800,000	-0,029	-0,076
-280,730	758,017	-0,023	-0,046
-279,716	800,000	-0,054	-0,156
-278,701	113,269	0,124	0,110
-277,686	-93,718	0,181	-0,036
-276,672	337,099	0,063	0,090
-275,657	-200,000	-0,017	0,084
-274,643	598,070	0,035	0,064
-273,628	81,904	-0,061	-0,048
-272,613	89,818	-0,108	0,088
-271,599	-200,000	-0,014	-0,052
-270,584	-200,000	0,006	-0,123
-269,570	148,441	0,070	0,069
-268,555	121,984	0,091	0,083
-267,540	-29,895	-0,059	-0,024
-266,526	-142,407	-0,151	-0,011
-265,511	-200,000	0,023	0,124
-264,497	12,165	0,116	0,065
-263,482	800,000	-0,021	0,053
-262,467	164,941	-0,035	0,036
-261,453	184,795	-0,100	0,108
-260,438	-200,000	-0,055	-0,178
-259,424	513,573	-0,009	0,016
-258,409	158,931	0,067	-0,068
-257,395	534,223	0,031	0,054
-256,380	292,856	0,101	0,135
-255,365	-200,000	-0,001	0,021
-254,351	244,056	-0,068	-0,084
-253,336	-83,442	-0,067	-0,015
-252,322	-107,111	-0,126	-0,020
-251,307	34,710	0,046	0,029
-250,292	-102,578	0,084	-0,014
-249,278	-200,000	-0,004	0,034
-248,263	211,776	-0,019	-0,021
-247,249	-200,000	0,007	-0,031
-246,234	10,618	-0,065	0,036
-245,219	298,014	-0,020	-0,026
-244,205	-69,077	-0,096	0,027
-243,190	-28,539	0,042	0,017
-242,176	-49,444	0,050	0,017
-241,161	-84,127	0,033	0,008
-240,146	50,298	-0,095	-0,065
-239,132	304,648	0,054	0,073
-238,117	-200,000	-0,020	-0,120
-237,103	93,842	0,061	-0,050
-236,088	-75,061	-0,078	0,020
-235,073	-101,178	-0,038	-0,007
-234,059	164,901	0,053	0,055
-233,044	-200,000	-0,034	0,194
-232,030	-200,000	-0,018	0,190
-231,015	561,662	-0,005	-0,008
-230,000	-181,159	-0,127	0,002
-228,986	576,150	0,064	-0,114
-227,971	714,104	0,007	-0,014
-226,957	301,011	0,037	0,049
-225,942	-200,000	-0,020	0,105
-224,927	434,482	-0,085	-0,135
-223,913	-200,000	0,011	-0,100
-222,898	290,097	-0,045	-0,060
-221,884	-200,000	0,006	-0,020
-220,869	-200,000	-0,014	0,061
-219,855	800,000	0,042	0,120
-218,840	-200,000	0,015	0,102
-217,825	-82,485	-0,044	0,010
-216,811	145,123	-0,030	-0,029
-215,796	-69,006	-0,164	-0,046
-214,782	-200,000	-0,010	0,062
-213,767	800,000	0,045	0,139
-212,752	38,717	0,085	-0,055
-211,738	-169,084	-0,054	-0,001
-210,723	-72,542	0,012	-0,003
-209,709	117,112	0,108	-0,097
-208,694	-74,462	-0,061	-0,016
-207,679	-10,394	0,004	0,002
-206,665	800,000	0,029	0,090
-205,650	185,150	0,110	0,119
-204,636	-200,000	-0,012	-0,087
-203,621	451,902	0,073	-0,118
-202,606	-65,943	0,101	-0,029
-201,592	34,756	-0,092	0,058
-200,577	102,173	0,063	-0,054
-199,563	419,901	0,028	0,043
-198,548	-94,307	-0,040	0,008
-197,533	146,380	-0,036	-0,035
-196,519	800,000	0,020	0,061
-195,504	-200,000	0,004	0,045
-194,490	31,127	-0,107	-0,066
-193,475	144,527	0,052	0,051
-192,460	-147,383	0,026	-0,002
-191,446	-111,744	-0,008	0,001
-190,431	-200,000	-0,012	-0,050
-189,417	-200,000	0,002	0,038
-188,402	-200,000	0,018	-0,057
-187,387	-13,727	0,016	-0,007
-186,373	-200,000	0,006	-0,097
-185,358	-200,000	0,031	-0,157
-184,344	-200,000	-0,004	-0,062
-183,329	103,981	0,017	-0,015
-182,315	-5,344	-0,027	0,014
-181,300	-140,439	-0,104	-0,008
-180,285	-200,000	-0,022	-0,129
-179,271	4,865	-0,120	0,064
-178,256	800,000	-0,023	-0,055
-177,242	800,000	-0,014	-0,039
-176,227	518,357	-0,013	-0,023
-175,212	-200,000	0,009	-0,090
-174,198	183,586	-0,051	-0,055
-173,183	-185,034	-0,168	-0,002
-172,169	-35,004	-0,117	-0,046
-171,154	100,131	-0,065	0,055
-170,139	-66,474	-0,078	-0,022
-169,125	231,011	0,073	0,087
-168,110	155,072	0,123	0,123
-167,096	-147,616	-0,120	0,007
-166,081	-42,394	-0,070	-0,026
-165,066	644,684	-0,091	-0,170
-164,052	-3,151	-0,055	-0,028
-163,037	-200,000	0,013	-0,073
-162,023	-65,590	0,102	-0,030
-161,008	800,000	0,037	0,091
-159,993	1,981	0,134	-0,070
-158,979	-200,000	-0,020	0,161
-157,964	800,000	-0,052	-0,143
-156,950	800,000	-0,008	0,018
-155,935	247,619	-0,060	-0,074
-154,920	-200,000	0,004	0,046
-153,906	49,883	0,083	0,057
-152,891	-20,585	-0,051	0,023
-151,877	-24,950	0,053	-0,023
-150,862	-62,915	-0,082	0,024
-149,847	-76,261	-0,132	0,034
-148,833	-200,000	-0,000	-0,094
-147,818	108,910	0,090	-0,078
-146,804	-142,416	0,105	-0,007
-145,789	264,211	0,045	0,057
-144,775	443,262	0,037	-0,059
-143,760	-21,398	-0,214	-0,095
-142,745	-200,000	-0,001	0,049
-141,731	-73,793	0,034	0,009
-140,716	-31,399	-0,067	0,027
-139,702	-18,235	0,090	-0,041
-138,687	800,000	0,020	0,063
-137,672	-200,000	0,000	-0,018
-136,658	621,483	-0,075	-0,138
-135,643	800,000	-0,079	-0,162
-134,629	531,863	-0,065	0,111
-133,614	124,769	0,039	0,035
-132,599	210,663	0,060	0,068
-131,585	-56,072	-0,097	0,031
-130,570	108,172	-0,060	-0,052
-129,556	200,078	0,027	-0,030
-128,541	-200,000	-0,003	0,047
-127,526	-200,000	0,018	0,058
-126,512	799,084	0,027	0,055
-125,497	-131,724	0,116	0,011
-124,483	18,339	-0,059	-0,034
-123,468	-149,503	-0,006	-0,000
-122,453	512,109	0,063	-0,108
-121,439	23,408	-0,076	-0,045
-120,424	-200,000	0,011	-0,080
-119,410	106,616	0,087	-0,075
-118,395	-22,557	0,065	-0,028
-117,380	-135,011	0,079	0,007
-116,366	-66,269	0,160	0,046
-115,351	-35,039	-0,043	0,017
-114,337	240,403	0,058	-0,071
-113,322	-200,000	-0,018	0,132
-112,307	-33,948	-0,088	0,035
-111,293	-69,714	-0,033	0,009
-110,278	800,000	0,020	0,044
-109,264	-138,767	-0,127	0,010
-108,249	232,176	-0,150	-0,179
-107,234	106,523	0,108	-0,093
-106,220	-200,000	-0,013	0,066
-105,205	-200,000	0,002	0,047
-104,191	-200,000	0,023	0,168
-103,176	800,000	-0,030	0,094
-102,162	-179,518	0,047	0,001
-101,147	205,174	0,146	0,165
-100,132	-200,000	0,007	-0,069
-99,118	1,650	-0,124	0,065
-98,103	-200,000	0,060	-0,199
-97,089	108,685	0,008	0,007
-96,074	146,980	0,077	0,076
-95,059	275,593	0,040	-0,051
-94,045	-53,566	-0,085	0,028
-93,030	800,000	0,019	0,046
-92,016	-91,606	-0,166	0,034
-91,001	331,234	-0,045	-0,063
-89,986	129,652	0,085	0,079
-88,972	-103,738	-0,124	0,021
-87,957	-200,000	0,043	0,215
-86,943	800,000	-0,015	-0,036
-85,928	-200,000	0,001	-0,010
-84,913	349,897	-0,029	0,042
-83,899	87,869	-0,088	-0,071
-82,884	800,000	0,057	0,121
-81,870	-200,000	-0,036	0,149
-80,855	177,728	0,048	0,050
-79,840	787,520	-0,020	0,040
-78,826	-200,000	0,024	-0,184
-77,811	34,173	0,108	0,068
-76,797	131,026	0,094	0,088
-75,782	-73,777	-0,125	0,033
-74,767	329,782	0,016	0,022
-73,753	800,000	0,078	0,161
-72,738	14,916	0,087	0,049
-71,724	39,884	0,113	-0,073
-70,709	4,739	-0,082	0,044
-69,694	-200,000	0,067	-0,232
-68,680	-72,310	0,102	0,027
-67,665	437,996	-0,015	-0,023
-66,651	-200,000	0,020	0,084
-65,636	-59,133	-0,070	-0,022
-64,622	56,861	0,073	-0,052
-63,607	800,000	-0,057	-0,174
-62,592	-7,571	0,101	0,050
-61,578	66,167	-0,063	0,046
-60,563	-200,000	0,022	0,137
-59,549	-200,000	-0,010	0,107
-58,534	-155,682	-1,368	-0,062
-57,519	642,601	-0,753	-1,396
-56,505	-200,000	-0,953	-4,381
-55,490	-68,253	0,609	-0,170
-54,476	800,000	4,944	11,856
-53,461	-200,000	14,354	253,726
-52,446	800,000	696,548	2227,394
-51,432	564,833	1624,456	2863,488
-50,417	116,743	1630,767	1449,554
-49,403	73,252	1284,600	972,259
-48,388	37,451	1022,187	655,223
-47,373	23,561	980,898	583,163
-46,359	22,814	970,321	574,406
-45,344	21,763	965,825	568,298
-44,330	21,701	964,600	567,352
-43,315	21,566	963,086	566,000
-42,300	21,580	962,104	565,447
-41,286	21,523	960,968	564,571
-40,271	21,555	960,210	564,205
-39,257	21,556	959,142	563,561
-38,242	21,504	958,137	562,778
-37,227	21,520	957,210	562,263
-36,213	21,548	956,285	561,788
-35,198	21,464	955,514	561,041
-34,184	21,536	954,866	560,871
-33,169	21,510	953,964	560,235
-32,154	21,600	953,023	559,951
-31,140	21,593	952,186	559,415
-30,125	21,516	951,676	558,843
-29,111	21,520	950,677	558,250
-28,096	21,508	950,037	557,813
-27,082	21,515	949,343	557,405
-26,067	21,544	948,575	557,024
-25,052	21,547	947,796	556,556
-24,038	21,550	947,158	556,169
-23,023	21,470	946,747	555,650
-22,009	21,637	945,654	555,519
-20,994	21,550	945,383	555,060
-19,979	21,567	944,549	554,601
-18,965	21,585	944,049	554,344
-17,950	21,595	943,277	553,899
-16,936	21,426	942,798	553,058
-15,921	21,455	941,979	552,650
-14,906	21,448	941,250	552,178
-13,892	21,422	940,693	551,748
-12,877	21,383	940,092	551,248
-11,863	21,352	939,375	550,708
-10,848	21,405	938,726	550,473
-9,833	21,538	938,382	550,669
-8,819	21,523	937,840	550,282
-7,804	21,423	937,183	549,558
-6,790	21,389	936,640	549,112
-5,775	21,468	936,076	549,008
-4,760	21,469	935,331	548,554
-3,746	21,401	934,759	547,981
-2,731	21,257	934,063	547,098
-1,717	21,185	933,284	546,392
-0,702	21,160	932,629	545,909
0,313	21,081	931,947	546,088
1,327	24,115	930,058	554,448
2,342	33,422	793,669	497,844
3,356	31,148	450,610	279,211
4,371	0,830	294,324	152,082
5,386	-3,480	275,409	138,212
6,400	-4,886	269,603	133,980
7,415	-5,345	267,426	132,464
8,429	-5,153	266,190	132,015
9,444	-5,129	265,227	131,548
10,459	-5,044	264,551	131,279
11,473	-5,158	263,882	130,832
12,488	-5,033	263,434	130,711
13,502	-5,246	263,029	130,305
14,517	-5,171	262,471	130,085
15,531	-5,337	262,078	129,729
16,546	-5,129	261,596	129,666
17,561	-5,169	261,259	129,452
18,575	-5,222	261,076	129,302
19,590	-5,401	260,751	128,969
20,604	-5,212	260,367	128,937
21,619	-5,164	260,050	128,811
22,634	-5,134	259,707	128,656
23,648	-5,052	259,494	128,613
24,663	-5,200	259,055	128,252
25,677	-5,318	258,792	128,005
26,692	-5,233	258,753	128,050
27,707	-5,381	258,404	127,734
28,721	-5,272	258,087	127,663
29,736	-5,226	257,915	127,608
30,750	-5,302	257,631	127,388
31,765	-5,345	257,342	127,196
32,780	-5,310	257,177	127,134
33,794	-5,329	256,971	127,004
34,809	-5,125	256,571	126,975
35,823	-5,410	256,577	126,715
36,838	-5,417	256,246	126,534
37,853	-5,354	255,920	126,417
38,867	-5,493	255,723	126,186
39,882	-5,484	255,492	126,070
40,896	-5,415	255,239	125,993
41,911	-5,415	255,130	125,929
42,926	-5,552	254,846	125,657
43,940	-5,449	254,595	125,612
44,955	-5,474	254,277	125,423
45,969	-5,497	254,012	125,261
46,984	-5,666	253,974	125,083
47,999	-5,895	253,644	124,709
49,013	-5,919	253,313	124,515
50,028	-5,892	253,238	124,490
51,042	-6,106	252,938	124,146
52,057	-6,103	252,674	124,008
53,071	-6,003	252,577	124,036
54,086	-5,944	252,272	123,926
55,101	-5,969	252,176	123,847
56,115	-5,772	252,052	123,945
57,130	-5,276	251,948	124,311
58,144	-5,140	251,758	124,325
59,159	-5,000	251,566	124,339
60,174	-5,164	251,260	124,035
61,188	-5,160	251,057	123,928
62,203	-5,161	250,761	123,770
63,217	-5,336	250,665	123,561
64,232	-5,285	250,544	123,534
65,247	-5,134	250,267	123,516
66,261	-5,322	250,127	123,275
67,276	-5,322	249,677	123,041
68,290	-5,497	249,476	122,782
69,305	-5,651	249,220	122,514
70,320	-5,636	249,168	122,490
71,334	-5,354	248,929	122,602
72,349	-5,127	248,734	122,689
73,363	-5,004	248,640	122,736
74,378	-5,041	248,261	122,507
75,393	-5,089	248,152	122,401
76,407	-5,265	248,036	122,184
77,422	-5,396	247,834	121,962
78,436	-5,176	247,439	121,944
79,451	-5,204	247,471	121,925
80,466	-5,464	247,080	121,501
81,480	-5,563	246,844	121,290
82,495	-5,675	246,757	121,142
83,509	-5,517	246,572	121,174
84,524	-5,579	246,468	121,059
85,539	-5,522	246,160	120,945
86,553	-5,626	245,909	120,724
87,568	-5,489	245,707	120,729
88,582	-5,592	245,667	120,612
89,597	-5,454	245,408	120,590
90,611	-5,391	245,329	120,594
91,626	-5,428	245,156	120,466
92,641	-5,211	244,911	120,518
93,655	-5,409	244,684	120,229
94,670	-5,358	244,401	120,122
95,684	-5,409	244,234	119,987
96,699	-5,418	244,159	119,931
97,714	-5,552	243,972	119,717
98,728	-5,499	243,673	119,604
99,743	-5,591	243,604	119,483
100,757	-5,930	243,550	119,163
101,772	-5,538	243,104	119,260
102,787	-5,432	242,905	119,240
103,801	-5,425	242,845	119,205
104,816	-5,246	242,710	119,277
105,830	-5,282	242,571	119,169
106,845	-5,177	242,326	119,124
107,860	-5,316	242,173	118,924
108,874	-5,362	241,991	118,786
109,889	-5,469	241,712	118,550
110,903	-5,427	241,571	118,505
111,918	-5,269	241,329	118,506
112,933	-5,521	241,430	118,337
113,947	-5,124	241,114	118,498
114,962	-5,228	240,902	118,297
115,976	-5,296	240,877	118,219
116,991	-5,365	240,687	118,059
118,006	-5,347	240,421	117,933
119,020	-5,413	240,411	117,863
120,035	-5,110	240,124	117,960
121,049	-5,291	239,970	117,725
122,064	-5,439	239,873	117,546
123,079	-5,417	239,608	117,424
124,093	-5,399	239,434	117,343
125,108	-5,336	239,016	117,179
126,122	-5,580	238,895	116,910
127,137	-5,779	238,809	116,696
128,151	-5,614	238,521	116,679
129,166	-5,609	238,473	116,649
130,181	-5,713	238,232	116,436
131,195	-5,501	237,949	116,460
132,210	-5,509	237,920	116,428
133,224	-5,623	237,766	116,250
134,239	-5,541	237,566	116,208
135,254	-5,171	237,475	116,454
136,268	-5,536	237,208	116,017
137,283	-5,641	236,939	115,790
138,297	-5,761	236,812	115,621
139,312	-5,879	236,574	115,400
140,327	-5,358	236,373	115,711
141,341	-5,008	236,558	116,073
142,356	-5,038	236,279	115,901
143,370	-5,135	236,080	115,715
144,385	-5,142	235,996	115,658
145,400	-4,933	235,793	115,717
146,414	-5,071	235,686	115,543
147,429	-5,196	235,487	115,335
148,443	-5,265	235,250	115,153
149,458	-4,987	235,166	115,324
150,473	-5,046	234,988	115,180
151,487	-5,130	234,852	115,035
152,502	-5,077	234,579	114,934
153,516	-4,724	234,382	115,109
154,531	-5,183	234,216	114,651
155,546	-5,130	234,083	114,618
156,560	-5,375	233,986	114,365
157,575	-5,204	233,677	114,340
158,589	-5,208	233,573	114,275
159,604	-5,053	233,442	114,324
160,619	-4,907	233,387	114,403
161,633	-4,802	233,123	114,347
162,648	-4,999	233,080	114,159
163,662	-5,053	232,862	113,999
164,677	-5,173	232,765	113,847
165,692	-5,244	232,521	113,662
166,706	-5,133	232,458	113,708
167,721	-5,015	232,308	113,718
168,735	-4,929	232,136	113,691
169,750	-4,868	231,917	113,622
170,764	-4,852	231,755	113,546
171,779	-4,846	231,552	113,440
172,794	-4,790	231,419	113,409
173,808	-5,084	231,320	113,120
174,823	-5,546	231,032	112,606
175,837	-5,588	230,768	112,434
176,852	-5,190	230,692	112,699
177,867	-5,078	230,749	112,805
178,881	-4,986	230,493	112,742
179,896	-4,966	230,401	112,702
180,910	-5,008	230,268	112,594
181,925	-4,816	230,143	112,673
182,940	-4,793	229,988	112,605
183,954	-4,906	229,792	112,411
184,969	-4,817	229,720	112,435
185,983	-4,924	229,451	112,210
186,998	-4,701	229,314	112,307
188,013	-4,692	229,192	112,244
189,027	-4,859	229,056	112,037
190,042	-4,858	228,903	111,953
191,056	-4,781	228,732	111,919
192,071	-4,809	228,664	111,855
193,086	-4,839	228,455	111,719
194,100	-4,877	228,184	111,547
195,115	-5,173	227,928	111,184
196,129	-5,337	227,816	110,992
197,144	-2,365	228,766	113,748
198,159	1,611	229,801	117,342
199,173	3,774	230,393	119,315
200,188	3,760	230,255	119,221
201,202	3,800	230,144	119,184
202,217	4,071	229,992	119,305
203,232	4,257	229,877	119,380
204,246	4,367	229,806	119,416
205,261	4,393	229,522	119,279
206,275	4,509	229,625	119,411
207,290	4,793	229,383	119,494
208,304	4,630	229,326	119,328
209,319	4,560	229,119	119,156
210,334	4,378	228,794	118,836
211,348	4,313	228,588	118,668
212,363	4,038	228,311	118,302
213,377	3,725	228,115	117,950
214,392	3,688	227,978	117,840
215,407	3,672	227,875	117,764
216,421	3,687	227,755	117,703
217,436	3,859	227,375	117,628
218,450	3,419	227,414	117,300
219,465	3,452	227,125	117,166
220,480	3,567	226,989	117,174
221,494	3,548	226,961	117,134
222,509	3,609	226,873	117,125
223,523	3,793	226,619	117,124
224,538	3,746	226,498	117,014
225,553	3,924	226,344	117,060
226,567	3,825	226,300	116,952
227,582	4,097	226,193	117,093
228,596	4,210	225,953	117,044
229,611	4,047	225,765	116,812
230,626	3,879	225,470	116,522
231,640	3,812	225,382	116,415
232,655	3,925	225,351	116,475
233,669	4,159	225,334	116,632
234,684	4,559	225,143	116,826
235,699	4,150	225,070	116,469
236,713	3,723	224,955	116,076
237,728	3,744	224,721	115,961
238,742	3,739	224,395	115,778
239,757	3,696	224,323	115,698
240,772	3,804	224,020	115,613
241,786	3,734	223,945	115,512
242,801	3,978	223,968	115,696
243,815	4,236	223,843	115,816
244,830	4,132	223,777	115,692
245,844	4,010	223,414	115,403
246,859	3,867	223,406	115,281
247,874	4,196	223,118	115,369
248,888	3,877	223,028	115,073
249,903	4,131	222,957	115,216
250,917	3,845	222,750	114,886
251,932	3,899	222,661	114,870
252,947	3,750	222,340	114,583
253,961	3,862	222,146	114,556
254,976	3,630	222,176	114,388
255,990	3,976	221,978	114,534
257,005	3,888	221,898	114,417
258,020	4,069	221,857	114,520
259,034	4,033	221,757	114,432
260,049	4,138	221,497	114,366
261,063	4,011	221,286	114,152
262,078	4,201	221,212	114,244
263,093	4,055	221,037	114,036
264,107	3,955	221,032	113,949
265,122	3,994	220,744	113,819
266,136	4,244	220,740	113,992
267,151	4,396	220,576	114,010
268,166	3,942	220,218	113,479
269,180	3,520	220,084	113,088
270,195	3,630	219,949	113,090
271,209	3,489	219,816	112,908
272,224	3,747	219,635	112,994
273,239	3,836	219,574	113,019
274,253	3,881	219,419	112,962
275,268	3,487	219,217	112,559
276,282	3,306	219,181	112,397
277,297	3,647	218,942	112,515
278,312	3,659	218,739	112,410
279,326	3,719	218,653	112,399
280,341	3,878	218,535	112,445
281,355	3,858	218,428	112,365
282,370	3,917	218,217	112,290
283,384	3,534	217,948	111,862
284,399	3,380	217,858	111,693
285,414	3,426	217,757	111,665
286,428	3,675	217,792	111,855
287,443	3,861	217,645	111,904
288,457	3,822	217,551	111,818
289,472	3,889	217,300	111,727
290,487	3,441	216,890	111,182
291,501	3,174	216,972	111,020
292,516	3,550	216,810	111,200
293,530	3,670	216,549	111,143
294,545	3,564	216,411	110,986
295,560	3,922	216,443	111,251
296,574	3,789	216,368	111,107
297,589	3,627	216,186	110,886
298,603	3,707	216,118	110,899
299,618	3,684	216,110	110,868
300,633	3,950	215,719	110,849
301,647	3,986	215,784	110,899
302,662	3,905	215,704	110,790
303,676	4,016	215,476	110,742
304,691	4,076	215,231	110,650
305,706	3,881	215,281	110,525
306,720	3,912	215,064	110,427
307,735	3,737	214,824	110,168
308,749	3,835	214,711	110,171
309,764	3,955	214,555	110,167
310,779	3,955	214,570	110,164
311,793	4,110	214,328	110,141
312,808	3,945	214,200	109,947
313,822	3,758	214,076	109,741
314,837	3,833	213,864	109,675
315,852	3,485	213,695	109,331
316,866	3,861	213,481	109,480
317,881	4,023	213,470	109,580
318,895	3,982	213,422	109,516
319,910	3,863	213,161	109,288
320,925	3,687	212,859	108,998
321,939	3,412	212,742	108,733
322,954	3,394	212,644	108,660
323,968	3,931	212,663	109,042
324,983	4,108	212,554	109,101
325,997	4,291	212,440	109,163
327,012	3,940	212,173	108,768
328,027	3,839	212,173	108,686
329,041	4,157	212,132	108,881
330,056	4,245	212,050	108,891
331,070	3,940	211,673	108,473
332,085	3,530	211,517	108,094
333,100	3,711	211,308	108,105
334,114	3,928	211,222	108,204
335,129	3,741	211,099	108,000
336,143	3,665	210,805	107,787
337,158	3,606	210,858	107,763
338,173	3,679	210,715	107,731
339,187	3,454	210,633	107,522
340,202	3,660	210,469	107,573
341,216	3,705	210,106	107,409
342,231	3,477	210,244	107,310
343,246	3,520	210,016	107,214
344,260	3,520	209,827	107,109
345,275	3,614	209,822	107,162
346,289	3,894	209,664	107,268
347,304	3,738	209,583	107,108
348,319	3,871	209,376	107,085
349,333	3,897	209,327	107,068
350,348	3,698	209,199	106,855
351,362	3,984	209,114	107,001
352,377	4,036	208,941	106,939
353,392	3,684	208,854	106,640
354,406	3,933	208,577	106,662
355,421	195,444	1343,491	1434,532
356,435	156,013	1481,860	1434,617
