DTS Sentinel unit serial number:	SN410029Multiplexer serial number:	ORYXHardware model number:	OX2-SRSoftware version number:	ORYX F/W v4,00 Oryx Data Collector v3.7.2.0data status	okinstallation	B6 Nyhavnadifferential loss correction	single-endedforward channel	channel 2reverse channel	N/Adate	2023/12/10time	10:40:08forward acquisition time	300,00reverse acquisition time	0,00gamma	499,1914k internal	0,3122k external	0,3122temperature offset calibration	1,0000default loss term (dB/km)	0,3820temperature slope calibration	1,0000multiplexer offset coefficient	1,0000multiplexer slope coefficient	1,0000fibre end	0,00T internal ref (°C)	22,57T ext. ref 1 (°C)	6,44T ext. ref 2 (°C)	6,44length (m)	temperature (°C)	Stokes	anti-Stokes-744,400	800,000	-0,050	-0,128
-743,385	-39,541	-0,228	0,089
-742,371	113,174	0,036	-0,032
-741,356	82,404	-0,153	0,124
-740,342	-51,501	0,204	-0,071
-739,327	-106,966	-0,081	-0,013
-738,312	800,000	-0,052	-0,143
-737,298	-77,084	-0,206	0,053
-736,283	-200,000	0,014	-0,045
-735,269	172,143	-0,152	0,164
-734,254	-87,151	-0,063	-0,014
-733,239	-78,518	-0,453	-0,115
-732,225	800,000	0,051	0,134
-731,210	190,088	0,026	0,029
-730,196	800,000	-0,042	-0,130
-729,181	-200,000	0,017	-0,067
-728,167	-111,011	0,108	-0,016
-727,152	62,964	-0,105	0,078
-726,137	38,483	-0,031	-0,021
-725,123	-71,115	-0,011	0,003
-724,108	-71,354	-0,103	0,028
-723,094	12,298	-0,160	-0,091
-722,079	188,984	-0,030	-0,034
-721,064	-96,344	-0,176	-0,034
-720,050	-35,728	0,090	0,036
-719,035	800,000	-0,012	-0,037
-718,021	-78,452	-0,075	-0,019
-717,006	12,996	-0,093	-0,053
-715,991	199,906	-0,097	-0,111
-714,977	-200,000	0,000	0,029
-713,962	-200,000	-0,019	-0,141
-712,948	-12,943	0,082	0,040
-711,933	-28,034	-0,096	-0,041
-710,918	-86,449	0,080	-0,018
-709,904	-200,000	-0,009	-0,145
-708,889	361,711	-0,075	-0,112
-707,875	260,520	-0,067	0,086
-706,860	185,760	-0,026	0,028
-705,845	75,132	0,061	0,048
-704,831	160,043	-0,055	0,057
-703,816	-55,023	0,089	-0,030
-702,802	-100,138	0,068	-0,013
-701,787	-200,000	0,018	-0,098
-700,772	23,816	-0,088	0,054
-699,758	22,347	0,032	0,019
-698,743	438,991	-0,046	0,075
-697,729	-152,527	0,141	0,007
-696,714	97,884	-0,083	0,071
-695,699	75,552	0,062	-0,049
-694,685	153,493	-0,009	0,009
-693,670	-200,000	-0,018	-0,075
-692,656	-66,160	-0,060	0,018
-691,641	203,874	-0,107	0,124
-690,627	-200,000	0,006	0,043
-689,612	-27,100	-0,203	-0,088
-688,597	12,386	0,064	0,036
-687,583	800,000	0,056	-0,126
-686,568	203,398	-0,089	-0,102
-685,554	800,000	-0,046	-0,145
-684,539	800,000	0,046	0,103
-683,524	53,219	-0,116	0,083
-682,510	-66,642	-0,066	0,019
-681,495	800,000	-0,023	-0,065
-680,481	-123,527	0,076	0,009
-679,466	-40,522	-0,055	0,021
-678,451	55,092	-0,033	-0,023
-677,437	800,000	-0,051	-0,128
-676,422	44,953	0,078	0,054
-675,408	-189,791	0,060	0,000
-674,393	-200,000	0,007	-0,074
-673,378	259,193	-0,088	0,113
-672,364	800,000	-0,036	0,091
-671,349	117,587	-0,131	0,120
-670,335	609,025	0,025	0,047
-669,320	-200,000	0,005	0,088
-668,305	800,000	0,028	0,072
-667,291	-102,019	-0,084	0,015
-666,276	87,513	-0,126	-0,104
-665,262	800,000	-0,022	-0,051
-664,247	-63,342	-0,087	-0,026
-663,232	-200,000	0,012	0,075
-662,218	800,000	-0,015	0,034
-661,203	42,665	-0,085	-0,057
-660,189	800,000	-0,015	0,032
-659,174	-99,700	0,169	-0,031
-658,159	-90,231	0,131	0,028
-657,145	382,295	0,054	-0,083
-656,130	800,000	-0,087	0,197
-655,116	-200,000	0,011	-0,085
-654,101	485,732	0,052	0,089
-653,086	-139,880	-0,083	0,006
-652,072	88,080	-0,067	-0,056
-651,057	-23,105	-0,132	-0,059
-650,043	162,907	-0,081	-0,084
-649,028	574,801	-0,063	0,115
-648,014	-200,000	0,039	0,231
-646,999	589,337	-0,073	0,134
-645,984	737,357	0,023	0,045
-644,970	375,443	-0,090	-0,137
-643,955	-90,709	-0,029	0,006
-642,941	-65,226	0,029	-0,009
-641,926	-200,000	0,013	-0,118
-640,911	-154,371	0,067	0,003
-639,897	170,650	-0,048	0,051
-638,882	-53,675	0,056	-0,019
-637,868	-49,150	-0,015	-0,005
-636,853	68,447	-0,059	-0,045
-635,838	-200,000	0,018	-0,131
-634,824	242,875	0,124	-0,154
-633,809	76,172	0,077	0,061
-632,795	-8,273	0,086	-0,043
-631,780	-7,415	-0,127	-0,063
-630,765	112,659	-0,044	0,039
-629,751	-41,813	0,094	0,036
-628,736	-8,799	0,041	0,021
-627,722	-185,093	0,056	0,001
-626,707	-83,643	0,058	-0,014
-625,692	-200,000	0,002	-0,026
-624,678	73,218	-0,212	-0,164
-623,663	109,532	0,138	-0,123
-622,649	-200,000	0,009	-0,087
-621,634	85,335	0,047	-0,038
-620,619	-28,895	0,066	-0,028
-619,605	-121,541	0,095	0,012
-618,590	-200,000	0,000	-0,101
-617,576	84,501	0,071	0,058
-616,561	462,584	0,039	-0,065
-615,546	-200,000	-0,007	-0,078
-614,532	5,352	-0,027	-0,015
-613,517	-200,000	-0,011	0,046
-612,503	-200,000	0,013	-0,047
-611,488	18,159	-0,075	-0,044
-610,474	800,000	0,020	0,058
-609,459	213,631	-0,013	0,016
-608,444	-130,133	-0,161	-0,016
-607,430	800,000	-0,028	-0,073
-606,415	-84,772	0,064	0,015
-605,401	-200,000	0,013	-0,065
-604,386	-200,000	0,010	0,075
-603,371	-56,645	-0,086	0,028
-602,357	52,081	-0,073	-0,052
-601,342	308,765	0,068	0,094
-600,328	-64,517	-0,099	0,030
-599,313	510,293	-0,025	0,044
-598,298	172,665	0,045	-0,048
-597,284	800,000	0,028	0,084
-596,269	-200,000	0,020	0,117
-595,255	229,936	-0,031	0,037
-594,240	-179,769	-0,066	0,001
-593,225	303,754	-0,057	-0,078
-592,211	-74,524	0,146	-0,039
-591,196	290,654	-0,036	-0,048
-590,182	-200,000	-0,026	0,187
-589,167	156,866	0,082	0,085
-588,152	-53,388	-0,025	0,008
-587,138	-200,000	0,017	-0,075
-586,123	218,918	-0,031	0,037
-585,109	-38,451	-0,087	0,034
-584,094	-200,000	-0,015	0,069
-583,079	596,119	-0,020	0,037
-582,065	-133,772	0,038	-0,004
-581,050	-138,962	-0,088	0,007
-580,036	-200,000	0,047	-0,195
-579,021	270,749	0,065	-0,085
-578,006	-200,000	0,015	-0,069
-576,992	-130,769	-0,104	0,010
-575,977	100,559	-0,131	-0,113
-574,963	-200,000	-0,011	0,098
-573,948	-125,956	-0,125	0,014
-572,934	-57,591	-0,149	-0,048
-571,919	393,399	-0,066	-0,102
-570,904	133,814	-0,084	-0,081
-569,890	-101,151	-0,103	0,019
-568,875	-75,018	0,065	-0,017
-567,861	-200,000	-0,008	-0,092
-566,846	-79,095	-0,055	0,014
-565,831	-23,678	0,054	0,024
-564,817	-200,000	0,001	-0,013
-563,802	-200,000	-0,006	-0,039
-562,788	39,927	-0,059	-0,039
-561,773	-94,010	0,082	0,017
-560,758	800,000	0,034	0,108
-559,744	11,768	-0,050	0,029
-558,729	-200,000	-0,007	0,110
-557,715	-68,396	-0,086	0,024
-556,700	-46,173	0,099	-0,036
-555,685	14,450	0,100	-0,057
-554,671	-90,940	-0,172	-0,036
-553,656	-127,918	0,024	0,003
-552,642	-16,005	0,051	0,024
-551,627	-200,000	-0,005	0,132
-550,612	-101,399	-0,082	-0,015
-549,598	800,000	0,018	-0,044
-548,583	219,005	-0,035	0,042
-547,569	-47,723	-0,038	-0,013
-546,554	-200,000	0,003	0,045
-545,539	22,705	0,079	0,047
-544,525	-132,344	-0,018	0,002
-543,510	800,000	0,021	-0,060
-542,496	30,256	-0,149	-0,094
-541,481	-125,301	0,064	-0,007
-540,466	77,216	-0,065	-0,051
-539,452	292,666	0,103	-0,139
-538,437	-200,000	0,028	0,110
-537,423	234,979	-0,021	0,026
-536,408	800,000	0,012	-0,028
-535,393	4,197	0,076	0,041
-534,379	-67,386	-0,147	-0,042
-533,364	421,098	-0,059	-0,093
-532,350	725,071	0,020	0,041
-531,335	800,000	-0,033	0,082
-530,321	83,647	0,076	-0,061
-529,306	49,483	-0,108	-0,075
-528,291	632,650	-0,058	-0,108
-527,277	59,800	0,041	-0,030
-526,262	800,000	0,032	-0,101
-525,248	800,000	0,018	-0,043
-524,233	165,136	0,183	0,191
-523,218	-200,000	-0,011	-0,086
-522,204	91,104	0,182	-0,151
-521,189	-200,000	0,007	0,046
-520,175	155,543	-0,157	-0,160
-519,160	800,000	0,012	-0,034
-518,145	-200,000	0,011	-0,121
-517,131	-68,429	0,063	-0,018
-516,116	-200,000	-0,011	0,040
-515,102	800,000	-0,022	-0,048
-514,087	148,152	-0,062	0,062
-513,072	-66,877	-0,082	0,024
-512,058	35,913	0,062	0,040
-511,043	-200,000	-0,011	0,086
-510,029	237,542	0,126	0,155
-509,014	-200,000	0,002	-0,024
-507,999	-200,000	0,018	0,099
-506,985	70,695	0,039	-0,030
-505,970	800,000	-0,017	0,040
-504,956	-1,414	-0,116	-0,061
-503,941	-115,060	-0,079	0,011
-502,926	83,132	0,102	0,082
-501,912	-200,000	0,008	0,063
-500,897	-126,593	-0,092	0,010
-499,883	-109,787	0,098	0,015
-498,868	38,991	-0,033	-0,022
-497,853	272,209	-0,043	-0,056
-496,839	800,000	0,026	-0,081
-495,824	18,412	-0,078	-0,046
-494,810	-120,054	0,045	0,006
-493,795	800,000	-0,013	-0,037
-492,781	529,953	0,028	-0,049
-491,766	-200,000	0,006	-0,055
-490,751	-156,623	-0,052	0,002
-489,737	-100,573	0,080	0,014
-488,722	800,000	-0,009	0,021
-487,708	115,455	0,177	0,160
-486,693	-200,000	0,016	0,146
-485,678	-117,320	-0,142	0,019
-484,664	475,915	-0,060	-0,100
-483,649	-92,674	-0,084	-0,017
-482,635	-13,568	0,135	-0,064
-481,620	26,008	0,170	0,104
-480,605	-200,000	0,003	0,083
-479,591	136,336	-0,030	0,029
-478,576	198,729	0,050	0,057
-477,562	-30,817	-0,092	-0,038
-476,547	-40,375	-0,064	0,024
-475,532	100,530	0,076	0,065
-474,518	-55,703	-0,044	-0,014
-473,503	316,769	0,112	0,157
-472,489	-200,000	0,006	-0,043
-471,474	-200,000	-0,013	0,128
-470,459	-43,159	-0,118	0,044
-469,445	239,460	-0,085	-0,105
-468,430	-34,090	0,080	0,032
-467,416	800,000	0,027	-0,068
-466,401	94,974	0,022	0,018
-465,386	-200,000	-0,014	0,075
-464,372	686,914	-0,034	0,065
-463,357	85,537	-0,067	-0,054
-462,343	-3,303	-0,042	0,022
-461,328	-200,000	-0,011	-0,047
-460,313	-83,131	-0,051	0,012
-459,299	120,883	-0,082	-0,075
-458,284	425,946	0,019	0,031
-457,270	-79,428	-0,124	-0,031
-456,255	-3,132	-0,071	0,036
-455,241	-101,893	-0,156	0,028
-454,226	70,005	-0,126	-0,096
-453,211	55,766	-0,124	-0,089
-452,197	-106,136	-0,129	-0,021
-451,182	-68,352	-0,110	0,031
-450,168	-11,433	-0,035	-0,017
-449,153	-198,142	-0,081	-0,000
-448,138	-156,863	-0,062	0,003
-447,124	61,860	-0,018	-0,013
-446,109	-60,040	-0,144	-0,045
-445,095	300,946	-0,068	-0,093
-444,080	-200,000	0,033	0,113
-443,065	-200,000	0,001	0,047
-442,051	10,252	0,048	-0,027
-441,036	-129,708	0,087	0,009
-440,022	-200,000	-0,032	0,152
-439,007	-200,000	-0,024	-0,083
-437,992	164,134	-0,022	0,023
-436,978	-193,443	0,102	0,001
-435,963	-200,000	0,047	-0,164
-434,949	800,000	0,047	-0,138
-433,934	41,475	0,100	-0,066
-432,919	-200,000	0,025	0,137
-431,905	-200,000	-0,003	-0,069
-430,890	572,528	0,024	-0,043
-429,876	-53,127	0,159	0,054
-428,861	417,299	-0,034	-0,054
-427,846	-20,296	-0,068	0,031
-426,832	-200,000	0,005	-0,022
-425,817	800,000	-0,019	-0,061
-424,803	-200,000	-0,047	0,169
-423,788	-136,486	0,095	-0,008
-422,773	800,000	0,056	0,147
-421,759	-200,000	-0,014	0,111
-420,744	800,000	0,042	0,102
-419,730	177,552	-0,030	0,033
-418,715	-10,967	0,094	-0,046
-417,701	219,801	-0,035	-0,041
-416,686	-200,000	0,001	-0,013
-415,671	800,000	-0,010	0,027
-414,657	800,000	0,034	-0,087
-413,642	0,891	0,041	-0,022
-412,628	180,999	-0,050	-0,054
-411,613	-6,809	0,101	-0,050
-410,598	210,588	0,134	-0,155
-409,584	63,090	-0,037	0,027
-408,569	800,000	-0,062	-0,139
-407,555	-144,804	-0,116	-0,008
-406,540	627,266	-0,067	0,124
-405,525	-200,000	-0,030	0,123
-404,511	282,971	0,095	-0,126
-403,496	-176,403	-0,125	0,002
-402,482	-195,183	0,063	-0,000
-401,467	800,000	0,091	0,191
-400,452	-200,000	0,017	0,096
-399,438	-200,000	-0,006	0,034
-398,423	800,000	-0,081	0,220
-397,409	-178,908	-0,122	-0,002
-396,394	383,125	0,033	-0,050
-395,379	93,107	-0,017	-0,014
-394,365	122,213	0,038	-0,035
-393,350	14,160	0,134	0,076
-392,336	69,800	-0,058	-0,044
-391,321	65,713	0,162	0,121
-390,306	-110,858	-0,059	-0,009
-389,292	-200,000	-0,041	-0,137
-388,277	800,000	0,006	0,018
-387,263	114,615	0,022	-0,019
-386,248	204,803	0,081	0,093
-385,233	-31,315	-0,077	-0,032
-384,219	32,669	0,076	-0,048
-383,204	15,671	-0,136	-0,079
-382,190	-200,000	0,010	-0,051
-381,175	388,721	0,012	-0,019
-380,160	49,831	0,122	-0,085
-379,146	-57,116	-0,085	0,027
-378,131	-200,000	0,007	0,150
-377,117	286,284	-0,061	0,081
-376,102	20,181	0,107	-0,063
-375,088	203,251	-0,095	-0,108
-374,073	-200,000	-0,022	-0,099
-373,058	-22,273	0,061	-0,027
-372,044	434,634	-0,017	-0,028
-371,029	-47,751	-0,034	0,012
-370,015	372,037	-0,037	-0,055
-369,000	92,467	0,070	0,058
-367,985	-69,489	0,037	-0,010
-366,971	291,588	-0,080	-0,107
-365,956	27,543	-0,027	-0,017
-364,942	142,796	0,078	0,076
-363,927	800,000	-0,043	-0,090
-362,912	-54,858	-0,095	0,031
-361,898	424,316	0,081	-0,129
-360,883	-200,000	-0,006	-0,085
-359,869	800,000	-0,021	0,068
-358,854	800,000	0,002	-0,006
-357,839	800,000	-0,018	0,049
-356,825	-2,598	0,108	0,056
-355,810	800,000	0,007	0,014
-354,796	54,970	0,026	-0,018
-353,781	-60,971	-0,064	0,020
-352,766	122,732	0,070	-0,064
-351,752	-177,649	0,179	0,003
-350,737	-200,000	-0,009	-0,062
-349,723	241,254	0,062	0,076
-348,708	-100,398	0,076	0,014
-347,693	-200,000	-0,004	-0,062
-346,679	-200,000	0,009	-0,125
-345,664	126,089	-0,133	-0,123
-344,650	138,949	-0,088	-0,085
-343,635	66,406	0,050	0,037
-342,620	0,968	-0,054	0,028
-341,606	800,000	0,004	0,010
-340,591	-200,000	0,009	-0,031
-339,577	-66,854	-0,103	0,030
-338,562	126,537	-0,063	-0,059
-337,548	149,137	-0,118	-0,117
-336,533	172,749	0,147	0,155
-335,518	-40,311	0,142	0,054
-334,504	19,967	0,187	0,110
-333,489	800,000	0,022	0,065
-332,475	545,478	-0,050	-0,087
-331,460	-101,580	-0,153	0,027
-330,445	-200,000	0,003	0,043
-329,431	76,288	0,113	0,088
-328,416	800,000	0,071	0,170
-327,402	800,000	0,045	0,095
-326,387	-200,000	-0,005	0,091
-325,372	270,761	0,094	-0,121
-324,358	-28,103	-0,060	-0,025
-323,343	402,171	0,085	-0,131
-322,329	800,000	-0,019	-0,053
-321,314	77,585	0,104	-0,081
-320,299	-139,729	0,136	0,010
-319,285	29,484	0,044	0,027
-318,270	38,786	-0,098	0,064
-317,256	-200,000	-0,014	-0,067
-316,241	800,000	-0,007	-0,015
-315,226	14,342	-0,052	-0,029
-314,212	394,704	0,040	0,061
-313,197	-8,871	0,112	-0,055
-312,183	-101,911	0,093	0,016
-311,168	144,174	-0,056	-0,055
-310,153	-200,000	-0,011	-0,094
-309,139	-200,000	-0,003	-0,110
-308,124	-37,939	0,110	-0,043
-307,110	240,135	-0,076	0,093
-306,095	-200,000	-0,006	0,129
-305,080	-200,000	0,063	0,216
-304,066	42,772	-0,033	-0,022
-303,051	7,097	-0,210	-0,114
-302,037	-200,000	-0,019	-0,204
-301,022	36,007	-0,037	0,024
-300,008	-72,653	0,133	-0,036
-298,993	109,301	-0,022	0,020
-297,978	-200,000	0,017	0,145
-296,964	785,821	0,031	-0,063
-295,949	-200,000	-0,016	-0,134
-294,935	129,547	0,032	-0,030
-293,920	-200,000	-0,002	-0,026
-292,905	800,000	-0,056	-0,175
-291,891	-9,493	-0,036	0,017
-290,876	800,000	0,016	0,042
-289,862	89,135	-0,024	-0,020
-288,847	800,000	-0,096	-0,217
-287,832	294,864	0,046	-0,062
-286,818	-200,000	-0,011	0,108
-285,803	328,590	0,093	0,132
-284,789	433,665	0,051	0,082
-283,774	-200,000	-0,013	0,100
-282,759	524,103	-0,109	0,188
-281,745	-57,023	-0,170	0,054
-280,730	13,257	0,066	0,038
-279,716	-200,000	0,001	-0,014
-278,701	800,000	0,048	0,125
-277,686	274,314	0,119	0,155
-276,672	800,000	-0,030	0,080
-275,657	371,806	-0,037	-0,055
-274,643	29,535	0,062	0,038
-273,628	87,982	0,046	0,037
-272,613	456,842	-0,067	-0,110
-271,599	8,608	0,092	0,051
-270,584	752,408	0,061	0,122
-269,570	-84,213	-0,103	0,024
-268,555	269,738	-0,047	0,060
-267,540	-163,247	-0,117	-0,004
-266,526	800,000	-0,008	0,018
-265,511	97,484	-0,069	0,058
-264,497	800,000	0,030	0,078
-263,482	57,925	0,042	-0,030
-262,467	-3,012	0,083	0,042
-261,453	-200,000	-0,006	0,064
-260,438	-81,466	0,118	-0,028
-259,424	-200,000	0,003	-0,066
-258,409	-200,000	0,001	-0,205
-257,395	139,370	0,072	0,070
-256,380	505,438	0,035	0,059
-255,365	-200,000	0,018	0,091
-254,351	-200,000	0,024	0,117
-253,336	800,000	-0,016	0,036
-252,322	565,870	0,032	-0,057
-251,307	24,615	-0,183	-0,111
-250,292	105,992	0,068	0,059
-249,278	221,961	-0,055	0,065
-248,263	-200,000	0,010	0,174
-247,249	-200,000	-0,011	-0,163
-246,234	-200,000	-0,009	-0,090
-245,219	754,932	0,033	-0,066
-244,205	675,605	0,016	-0,030
-243,190	-84,370	-0,060	0,014
-242,176	-200,000	0,009	0,149
-241,161	167,757	0,030	-0,031
-240,146	-153,263	0,030	-0,002
-239,132	421,260	0,022	0,035
-238,117	398,452	-0,040	-0,061
-237,103	6,248	-0,096	-0,052
-236,088	-101,499	0,092	0,016
-235,073	-200,000	0,031	-0,162
-234,059	-9,017	0,122	0,059
-233,044	-45,874	-0,055	0,020
-232,030	-45,736	-0,064	-0,023
-231,015	-110,835	0,040	0,006
-230,000	800,000	0,039	-0,085
-228,986	-200,000	0,003	-0,011
-227,971	507,230	0,034	-0,058
-226,957	-200,000	0,022	0,134
-225,942	-200,000	-0,006	0,172
-224,927	349,984	0,037	0,054
-223,913	-18,251	-0,147	-0,067
-222,898	212,300	-0,026	0,030
-221,884	-200,000	0,009	0,105
-220,869	-200,000	0,004	0,193
-219,855	-74,202	-0,064	-0,017
-218,840	-135,850	0,045	0,004
-217,825	29,149	0,101	0,062
-216,811	107,094	0,056	0,049
-215,796	56,085	-0,076	-0,054
-214,782	315,800	-0,035	-0,049
-213,767	753,488	0,028	-0,056
-212,752	163,571	0,116	0,120
-211,738	800,000	0,071	-0,202
-210,723	-200,000	-0,009	-0,223
-209,709	800,000	0,030	0,080
-208,694	150,035	0,032	0,032
-207,679	-200,000	0,027	0,092
-206,665	-45,601	0,076	0,027
-205,650	250,359	-0,033	0,041
-204,636	-61,260	0,142	0,043
-203,621	-200,000	-0,027	0,146
-202,606	369,380	0,057	-0,084
-201,592	120,451	-0,141	-0,128
-200,577	44,086	0,029	0,019
-199,563	367,277	-0,048	-0,070
-198,548	800,000	-0,047	-0,103
-197,533	-54,284	0,031	-0,010
-196,519	497,215	-0,047	0,080
-195,504	-97,851	-0,063	-0,012
-194,490	-87,884	-0,068	0,015
-193,475	-51,770	-0,041	-0,014
-192,460	-200,000	-0,019	-0,131
-191,446	-200,000	0,003	0,055
-190,431	-200,000	-0,003	0,121
-189,417	186,219	0,108	0,118
-188,402	699,394	0,063	0,121
-187,387	189,900	-0,097	0,107
-186,373	-147,592	-0,042	-0,003
-185,358	-4,903	0,165	0,082
-184,344	800,000	-0,041	0,116
-183,329	641,449	0,062	-0,115
-182,315	800,000	-0,050	0,119
-181,300	212,137	-0,023	-0,026
-180,285	137,458	0,057	0,054
-179,271	-25,410	0,052	-0,022
-178,256	83,323	0,038	-0,030
-177,242	-52,715	0,119	0,040
-176,227	229,259	0,051	0,061
-175,212	-40,268	-0,078	0,029
-174,198	453,161	0,093	-0,151
-173,183	16,464	0,071	-0,041
-172,169	800,000	0,008	0,023
-171,154	70,447	-0,116	0,087
-170,139	-130,272	0,107	0,010
-169,125	33,515	-0,091	0,058
-168,110	-200,000	-0,003	-0,009
-167,096	-200,000	0,032	-0,164
-166,081	1,355	-0,134	-0,070
-165,066	-42,383	-0,074	-0,027
-164,052	-200,000	0,019	-0,061
-163,037	800,000	-0,034	-0,090
-162,023	-200,000	-0,001	-0,138
-161,008	-200,000	0,006	-0,053
-159,993	107,782	-0,005	-0,004
-158,979	-132,085	-0,051	0,005
-157,964	233,925	-0,032	0,039
-156,950	147,724	-0,081	-0,080
-155,935	-61,138	0,168	0,051
-154,920	-108,768	-0,129	-0,020
-153,906	66,139	0,121	0,089
-152,891	-122,381	0,132	0,016
-151,877	0,597	-0,059	-0,031
-150,862	800,000	-0,037	-0,119
-149,847	-12,020	0,140	-0,066
-148,833	-200,000	0,011	-0,091
-147,818	257,666	0,060	0,075
-146,804	-200,000	0,032	0,145
-145,789	209,632	0,066	-0,075
-144,775	-154,440	0,075	-0,004
-143,760	502,405	0,090	-0,152
-142,745	-52,947	0,079	0,026
-141,731	-98,352	-0,053	0,010
-140,716	-200,000	0,011	0,054
-139,702	128,176	-0,039	-0,036
-138,687	-37,710	-0,070	0,027
-137,672	800,000	-0,045	-0,099
-136,658	-200,000	0,003	0,050
-135,643	-200,000	0,036	0,120
-134,629	-157,089	-0,131	0,006
-133,614	354,610	0,022	-0,032
-132,599	-200,000	0,008	0,042
-131,585	253,639	0,062	0,077
-130,570	-35,166	0,083	-0,033
-129,556	30,721	0,040	-0,025
-128,541	-12,412	-0,078	-0,037
-127,526	800,000	0,057	0,154
-126,512	-200,000	-0,004	0,024
-125,497	800,000	0,047	0,150
-124,483	20,665	0,088	-0,052
-123,468	-200,000	-0,019	-0,078
-122,453	385,396	0,047	-0,070
-121,439	800,000	-0,040	-0,120
-120,424	-80,572	-0,105	0,025
-119,410	-154,662	0,164	-0,008
-118,395	97,522	0,049	0,041
-117,380	589,993	0,012	-0,022
-116,366	32,553	-0,142	0,089
-115,351	169,870	-0,034	0,035
-114,337	81,980	0,053	-0,042
-113,322	-200,000	-0,005	-0,034
-112,307	800,000	-0,051	-0,109
-111,293	446,615	0,045	0,072
-110,278	-122,517	-0,053	-0,006
-109,264	800,000	0,048	0,149
-108,249	413,887	0,051	0,080
-107,234	-88,859	-0,069	-0,015
-106,220	57,846	0,077	0,055
-105,205	143,439	0,020	-0,019
-104,191	167,985	0,091	0,095
-103,176	464,101	-0,038	-0,062
-102,162	85,728	0,010	-0,008
-101,147	621,739	-0,058	-0,106
-100,132	-97,156	-0,144	-0,027
-99,118	-200,000	0,005	0,019
-98,103	100,944	0,074	-0,062
-97,089	-200,000	-0,031	0,232
-96,074	21,767	0,130	0,077
-95,059	-200,000	-0,001	0,063
-94,045	109,865	0,121	0,106
-93,030	-54,846	-0,156	-0,051
-92,016	-200,000	0,005	0,092
-91,001	-200,000	0,020	0,113
-89,986	610,868	0,052	0,095
-88,972	1,982	0,084	-0,044
-87,957	540,094	-0,010	0,017
-86,943	-200,000	0,001	0,116
-85,928	16,968	0,016	-0,009
-84,913	59,470	-0,035	-0,025
-83,899	-92,545	-0,078	0,016
-82,884	134,579	0,096	-0,091
-81,870	-200,000	0,003	-0,060
-80,855	800,000	-0,088	0,216
-79,840	61,929	-0,021	-0,015
-78,826	254,575	0,037	0,046
-77,811	79,094	0,161	0,125
-76,797	800,000	0,020	-0,048
-75,782	800,000	0,005	-0,015
-74,767	-50,639	0,033	0,011
-73,753	-57,871	-0,086	0,027
-72,738	114,776	-0,028	0,025
-71,724	-112,589	-0,041	0,006
-70,709	99,176	0,080	0,067
-69,694	135,733	-0,010	-0,010
-68,680	-200,000	0,015	-0,061
-67,665	-200,000	-0,005	-0,071
-66,651	46,191	-0,028	-0,019
-65,636	44,389	0,035	0,024
-64,622	-200,000	0,011	0,090
-63,607	-200,000	-0,063	-0,295
-62,592	132,326	-0,047	0,044
-61,578	-116,312	0,113	-0,015
-60,563	-114,164	0,159	0,022
-59,549	-118,768	-0,010	-0,001
-58,534	-146,362	-1,322	-0,083
-57,519	472,893	-0,914	-1,500
-56,505	-200,000	-0,893	-4,380
-55,490	84,686	0,639	-0,507
-54,476	800,000	5,036	11,772
-53,461	-200,000	13,336	253,284
-52,446	-200,000	688,543	2268,855
-51,432	596,365	1622,653	2928,267
-50,417	120,765	1636,066	1476,169
-49,403	73,655	1290,072	979,875
-48,388	38,377	1024,839	661,309
-47,373	24,554	982,241	588,353
-46,359	23,722	972,114	579,533
-45,344	22,808	967,988	574,062
-44,330	22,739	966,249	572,781
-43,315	22,594	965,208	571,669
-42,300	22,612	964,118	571,060
-41,286	22,598	963,041	570,353
-40,271	22,547	962,237	569,689
-39,257	22,586	961,143	569,145
-38,242	22,558	960,196	568,472
-37,227	22,561	959,440	568,012
-36,213	22,589	958,429	567,478
-35,198	22,523	957,714	566,821
-34,184	22,572	957,064	566,573
-33,169	22,553	956,047	565,887
-32,154	22,565	955,172	565,384
-31,140	22,596	954,351	564,976
-30,125	22,649	953,498	564,618
-29,111	22,614	952,700	564,010
-28,096	22,630	951,984	563,618
-27,082	22,599	951,296	563,086
-26,067	22,602	950,489	562,598
-25,052	22,693	949,704	562,401
-24,038	22,621	949,141	561,815
-23,023	22,613	948,705	561,510
-22,009	22,677	947,967	561,254
-20,994	22,659	947,285	560,772
-19,979	22,632	946,559	560,233
-18,965	22,624	946,096	559,912
-17,950	22,589	945,324	559,319
-16,936	22,557	944,676	558,812
-15,921	22,528	944,100	558,357
-14,906	22,521	943,353	557,872
-13,892	22,524	942,669	557,453
-12,877	22,495	942,027	556,959
-11,863	22,477	941,283	556,442
-10,848	22,508	940,960	556,327
-9,833	22,594	940,707	556,427
-8,819	22,590	939,822	555,869
-7,804	22,496	939,144	555,148
-6,790	22,507	938,417	554,730
-5,775	22,606	937,831	554,677
-4,760	22,515	937,404	554,115
-3,746	22,510	936,800	553,720
-2,731	22,365	936,030	552,783
-1,717	22,366	935,319	552,345
-0,702	22,329	934,566	551,763
0,313	22,094	934,094	551,573
1,327	25,199	931,859	559,974
2,342	34,792	796,736	504,347
3,356	32,853	452,135	283,259
4,371	2,119	293,777	153,389
5,386	-2,374	274,800	139,215
6,400	-4,001	268,986	134,747
7,415	-4,418	266,504	133,108
8,429	-4,194	265,370	132,735
9,444	-4,238	264,554	132,275
10,459	-4,281	263,699	131,796
11,473	-4,320	263,180	131,490
12,488	-4,213	262,540	131,255
13,502	-4,522	262,115	130,752
14,517	-4,536	261,718	130,529
15,531	-4,386	261,351	130,470
16,546	-4,356	260,950	130,285
17,561	-4,235	260,564	130,190
18,575	-4,333	260,298	129,957
19,590	-4,400	259,990	129,732
20,604	-4,347	259,664	129,605
21,619	-4,383	259,392	129,425
22,634	-4,528	259,033	129,105
23,648	-4,398	258,624	129,005
24,663	-4,611	258,496	128,741
25,677	-4,402	258,254	128,794
26,692	-4,506	257,955	128,541
27,707	-4,475	257,718	128,439
28,721	-4,556	257,469	128,232
29,736	-4,399	257,182	128,217
30,750	-4,522	256,719	127,866
31,765	-4,472	256,631	127,855
32,780	-4,384	256,423	127,817
33,794	-4,569	256,382	127,622
34,809	-4,637	256,019	127,371
35,823	-4,523	255,867	127,383
36,838	-4,527	255,430	127,151
37,853	-4,445	255,162	127,079
38,867	-4,503	255,041	126,955
39,882	-4,453	254,930	126,933
40,896	-4,552	254,678	126,709
41,911	-4,547	254,512	126,621
42,926	-4,557	254,150	126,420
43,940	-4,767	254,057	126,179
44,955	-4,601	253,637	126,104
45,969	-4,655	253,485	125,970
46,984	-4,801	253,214	125,697
47,999	-5,071	253,014	125,351
49,013	-5,180	252,786	125,132
50,028	-5,225	252,394	124,888
51,042	-5,509	252,176	124,523
52,057	-5,423	252,070	124,534
53,071	-5,372	251,771	124,419
54,086	-5,230	251,777	124,534
55,101	-5,308	251,522	124,330
56,115	-4,900	251,348	124,585
57,130	-4,473	251,380	124,958
58,144	-4,142	250,972	125,030
59,159	-4,246	251,033	124,960
60,174	-4,189	250,709	124,837
61,188	-4,152	250,468	124,737
62,203	-4,354	250,358	124,498
63,217	-4,387	250,104	124,332
64,232	-4,288	249,862	124,285
65,247	-4,358	249,718	124,143
66,261	-4,383	249,412	123,958
67,276	-4,421	249,031	123,725
68,290	-4,664	248,916	123,449
69,305	-4,785	248,661	123,208
70,320	-5,015	248,650	122,995
71,334	-4,540	248,488	123,310
72,349	-4,331	248,336	123,401
73,363	-3,993	248,060	123,541
74,378	-4,242	247,863	123,221
75,393	-4,383	247,573	122,945
76,407	-4,316	247,461	122,935
77,422	-4,548	247,319	122,657
78,436	-4,279	247,157	122,794
79,451	-4,302	246,908	122,640
80,466	-4,477	246,607	122,332
81,480	-4,615	246,436	122,119
82,495	-4,758	246,215	121,878
83,509	-4,617	246,064	121,911
84,524	-4,889	245,917	121,598
85,539	-4,929	245,593	121,393
86,553	-4,693	245,516	121,543
87,568	-4,643	245,225	121,430
88,582	-4,538	245,146	121,469
89,597	-4,916	244,794	120,966
90,611	-4,499	244,803	121,310
91,626	-4,540	244,679	121,203
92,641	-4,484	244,532	121,166
93,655	-4,630	244,192	120,865
94,670	-4,372	243,988	120,969
95,684	-4,513	243,842	120,768
96,699	-4,535	243,682	120,660
97,714	-4,693	243,522	120,437
98,728	-4,718	243,260	120,276
99,743	-4,820	243,127	120,115
100,757	-4,922	242,895	119,905
101,772	-4,862	242,696	119,846
102,787	-4,627	242,582	119,974
103,801	-4,510	242,282	119,912
104,816	-4,509	242,192	119,858
105,830	-4,486	242,040	119,791
106,845	-4,451	241,867	119,723
107,860	-4,598	241,670	119,493
108,874	-4,559	241,522	119,442
109,889	-4,628	241,326	119,277
110,903	-4,489	241,047	119,243
111,918	-4,565	240,848	119,072
112,933	-4,587	240,935	119,086
113,947	-4,516	240,562	118,950
114,962	-4,638	240,430	118,774
115,976	-4,494	240,182	118,759
116,991	-4,420	240,120	118,778
118,006	-4,502	239,977	118,630
119,020	-4,460	239,892	118,612
120,035	-4,458	239,729	118,522
121,049	-4,266	239,502	118,556
122,064	-4,488	239,370	118,299
123,079	-4,221	239,048	118,347
124,093	-4,374	238,852	118,115
125,108	-4,722	238,641	117,717
126,122	-4,827	238,329	117,466
127,137	-4,886	238,288	117,387
128,151	-5,052	238,236	117,216
129,166	-4,579	238,020	117,484
130,181	-4,576	237,713	117,324
131,195	-4,796	237,437	117,000
132,210	-4,535	237,480	117,222
133,224	-4,453	237,235	117,157
134,239	-4,304	237,111	117,206
135,254	-4,347	237,002	117,107
136,268	-4,719	236,798	116,695
137,283	-4,693	236,475	116,546
138,297	-4,908	236,364	116,308
139,312	-4,808	236,134	116,264
140,327	-4,550	236,054	116,423
141,341	-4,277	236,057	116,633
142,356	-4,017	235,881	116,745
143,370	-4,065	235,733	116,624
144,385	-4,184	235,649	116,476
145,400	-4,201	235,249	116,254
146,414	-4,009	235,116	116,332
147,429	-4,152	234,993	116,146
148,443	-4,193	234,866	116,040
149,458	-4,093	234,570	115,963
150,473	-4,233	234,645	115,878
151,487	-4,174	234,274	115,731
152,502	-4,220	234,161	115,629
153,516	-4,237	234,002	115,526
154,531	-4,252	233,934	115,470
155,546	-4,267	233,779	115,372
156,560	-4,242	233,468	115,228
157,575	-4,404	233,272	114,992
158,589	-4,446	233,285	114,955
159,604	-4,332	233,071	114,930
160,619	-4,164	232,906	114,971
161,633	-4,118	232,734	114,912
162,648	-4,280	232,649	114,732
163,662	-4,235	232,479	114,674
164,677	-4,273	232,437	114,613
165,692	-4,125	232,054	114,531
166,706	-4,179	231,908	114,406
167,721	-3,995	231,821	114,498
168,735	-3,909	231,613	114,452
169,750	-3,949	231,525	114,368
170,764	-4,110	231,358	114,148
171,779	-4,117	231,248	114,078
172,794	-4,131	231,147	114,007
173,808	-4,128	230,840	113,847
174,823	-4,558	230,425	113,295
175,837	-5,030	230,384	112,895
176,852	-4,330	230,442	113,462
177,867	-4,274	230,317	113,435
178,881	-4,185	230,184	113,429
179,896	-4,237	230,098	113,335
180,910	-3,926	229,895	113,469
181,925	-4,016	229,700	113,292
182,940	-4,220	229,641	113,094
183,954	-3,877	229,332	113,199
184,969	-4,272	229,318	112,874
185,983	-3,921	229,129	113,044
186,998	-3,885	228,960	112,979
188,013	-3,931	228,888	112,897
189,027	-3,811	228,473	112,776
190,042	-4,107	228,547	112,572
191,056	-4,047	228,299	112,487
192,071	-3,936	228,067	112,448
193,086	-3,680	227,915	112,561
194,100	-4,031	227,779	112,213
195,115	-4,131	227,454	111,966
196,129	-4,668	227,397	111,513
197,144	-1,216	228,453	114,696
198,159	2,971	229,421	118,423
199,173	4,185	229,692	119,494
200,188	4,020	229,584	119,299
201,202	4,146	229,402	119,292
202,217	4,132	229,476	119,308
203,232	4,577	229,299	119,550
204,246	4,925	229,141	119,726
205,261	4,729	229,053	119,518
206,275	4,734	228,937	119,451
207,290	4,918	228,779	119,500
208,304	4,881	228,701	119,420
209,319	4,826	228,283	119,148
210,334	4,593	228,215	118,923
211,348	4,619	227,947	118,793
212,363	4,217	227,720	118,355
213,377	3,933	227,507	118,016
214,392	4,005	227,256	117,931
215,407	3,985	227,234	117,893
216,421	4,224	227,197	118,047
217,436	3,962	227,086	117,778
218,450	3,834	226,670	117,454
219,465	3,674	226,525	117,246
220,480	3,800	226,498	117,318
221,494	3,637	226,279	117,069
222,509	3,931	226,111	117,196
223,523	3,841	225,983	117,051
224,538	3,476	225,914	116,727
225,553	4,100	225,683	117,071
226,567	4,074	225,733	117,067
227,582	4,235	225,622	117,122
228,596	4,439	225,494	117,200
229,611	4,050	225,228	116,756
230,626	3,886	224,948	116,476
231,640	3,976	224,816	116,465
232,655	4,194	224,798	116,611
233,669	4,346	224,765	116,698
234,684	4,749	224,483	116,846
235,699	4,440	224,336	116,526
236,713	4,188	224,090	116,198
237,728	4,010	224,039	116,026
238,742	3,885	223,785	115,791
239,757	3,880	223,688	115,726
240,772	3,963	223,590	115,727
241,786	3,882	223,286	115,499
242,801	4,198	223,274	115,720
243,815	4,196	223,380	115,763
244,830	4,291	223,060	115,659
245,844	3,903	222,884	115,266
246,859	3,983	222,687	115,214
247,874	4,082	222,628	115,247
248,888	4,346	222,425	115,329
249,903	4,144	222,224	115,063
250,917	3,990	222,123	114,886
251,932	3,930	221,984	114,759
252,947	3,886	221,871	114,658
253,961	3,729	221,807	114,498
254,976	3,736	221,578	114,374
255,990	4,021	221,441	114,506
257,005	4,255	221,379	114,637
258,020	4,397	221,183	114,630
259,034	4,238	221,115	114,467
260,049	4,378	220,925	114,463
261,063	4,380	220,665	114,319
262,078	4,446	220,627	114,338
263,093	4,381	220,559	114,244
264,107	4,266	220,252	113,990
265,122	4,223	220,266	113,956
266,136	4,476	220,134	114,064
267,151	4,363	219,950	113,875
268,166	4,155	219,783	113,625
269,180	3,767	219,671	113,272
270,195	3,936	219,388	113,239
271,209	3,745	219,272	113,029
272,224	3,856	219,244	113,086
273,239	3,938	219,142	113,083
274,253	3,632	218,918	112,733
275,268	3,818	218,693	112,744
276,282	3,758	218,441	112,560
277,297	3,660	218,410	112,462
278,312	3,751	218,320	112,472
279,326	3,914	218,183	112,511
280,341	3,902	218,040	112,418
281,355	3,878	217,975	112,358
282,370	3,959	217,621	112,224
283,384	3,688	217,560	111,985
284,399	3,731	217,329	111,887
285,414	3,752	217,277	111,866
286,428	3,735	217,091	111,748
287,443	4,161	217,031	112,016
288,457	3,972	216,995	111,851
289,472	3,885	216,843	111,699
290,487	3,623	216,504	111,325
291,501	3,555	216,225	111,122
292,516	3,682	216,171	111,176
293,530	3,681	216,142	111,151
294,545	3,592	216,078	111,044
295,560	3,646	215,860	110,961
296,574	3,840	215,829	111,075
297,589	3,707	215,748	110,927
298,603	4,051	215,469	111,022
299,618	4,165	215,308	111,011
300,633	3,911	215,179	110,752
301,647	4,163	215,247	110,959
302,662	4,378	215,079	111,017
303,676	4,305	214,896	110,860
304,691	4,258	214,817	110,775
305,706	4,065	214,665	110,548
306,720	4,300	214,442	110,593
307,735	4,121	214,330	110,396
308,749	3,745	214,164	110,032
309,764	4,151	214,074	110,267
310,779	4,274	213,984	110,298
311,793	4,146	213,871	110,139
312,808	4,083	213,515	109,900
313,822	4,037	213,422	109,810
314,837	3,872	213,279	109,609
315,852	3,738	213,210	109,469
316,866	3,658	213,110	109,350
317,881	4,204	213,054	109,701
318,895	4,355	212,698	109,615
319,910	3,923	212,650	109,273
320,925	3,733	212,350	108,974
321,939	3,671	212,113	108,799
322,954	3,592	212,100	108,727
323,968	4,015	212,060	108,997
324,983	3,947	212,094	108,956
325,997	4,320	212,012	109,168
327,012	3,972	211,784	108,795
328,027	4,051	211,651	108,773
329,041	4,331	211,642	108,956
330,056	4,395	211,342	108,837
331,070	4,022	211,117	108,449
332,085	3,757	210,934	108,159
333,100	3,731	210,880	108,103
334,114	3,909	210,696	108,124
335,129	3,932	210,438	107,999
336,143	3,694	210,454	107,830
337,158	3,886	210,214	107,832
338,173	3,664	210,173	107,645
339,187	3,662	209,991	107,541
340,202	3,926	209,711	107,573
341,216	3,709	209,594	107,351
342,231	3,980	209,514	107,491
343,246	3,524	209,403	107,105
344,260	3,628	209,372	107,152
345,275	3,548	209,384	107,094
346,289	4,018	209,069	107,250
347,304	4,131	209,019	107,294
348,319	4,014	208,843	107,112
349,333	3,918	208,754	106,991
350,348	3,895	208,642	106,907
351,362	4,165	208,502	107,014
352,377	4,025	208,267	106,787
353,392	3,869	208,267	106,669
354,406	4,003	208,126	106,680
355,421	194,051	1346,607	1435,994
356,435	154,823	1485,431	1436,124
