DTS Sentinel unit serial number:	SN410029Multiplexer serial number:	ORYXHardware model number:	OX2-SRSoftware version number:	ORYX F/W v4,00 Oryx Data Collector v3.7.2.0data status	okinstallation	B6 Nyhavnadifferential loss correction	single-endedforward channel	channel 2reverse channel	N/Adate	2023/12/10time	02:15:08forward acquisition time	300,00reverse acquisition time	0,00gamma	499,1914k internal	0,3125k external	0,3125temperature offset calibration	1,0000default loss term (dB/km)	0,3820temperature slope calibration	1,0000multiplexer offset coefficient	1,0000multiplexer slope coefficient	1,0000fibre end	0,00T internal ref (°C)	21,94T ext. ref 1 (°C)	5,71T ext. ref 2 (°C)	5,69length (m)	temperature (°C)	Stokes	anti-Stokes-744,400	-200,000	-0,004	0,053
-743,385	195,713	-0,132	0,150
-742,371	-200,000	0,008	0,107
-741,356	118,217	-0,180	0,165
-740,342	137,038	0,032	-0,032
-739,327	800,000	-0,089	0,236
-738,312	-21,377	0,046	-0,021
-737,298	71,947	-0,128	0,099
-736,283	-43,549	0,001	0,001
-735,269	-57,738	-0,373	0,121
-734,254	135,351	0,116	0,113
-733,239	-95,426	-0,348	-0,069
-732,225	273,985	0,081	-0,106
-731,210	-122,324	-0,128	0,015
-730,196	-200,000	-0,008	0,081
-729,181	476,425	0,080	-0,134
-728,167	800,000	0,038	0,097
-727,152	608,309	0,008	0,015
-726,137	390,493	-0,137	-0,212
-725,123	-200,000	-0,020	-0,088
-724,108	-200,000	0,001	-0,102
-723,094	-200,000	-0,006	-0,130
-722,079	-110,269	-0,107	-0,016
-721,064	81,514	-0,078	0,063
-720,050	93,625	0,098	0,082
-719,035	-200,000	0,017	0,111
-718,021	800,000	0,072	0,195
-717,006	-142,633	-0,103	-0,007
-715,991	325,181	-0,075	0,108
-714,977	253,185	-0,063	-0,080
-713,962	134,393	0,083	0,080
-712,948	0,651	0,088	0,047
-711,933	193,460	-0,043	-0,048
-710,918	-187,067	-0,093	-0,001
-709,904	-200,000	-0,013	-0,123
-708,889	800,000	-0,059	-0,162
-707,875	-200,000	-0,007	0,030
-706,860	54,072	-0,052	-0,037
-705,845	27,424	0,129	-0,080
-704,831	-52,712	0,080	0,027
-703,816	-75,547	-0,080	0,021
-702,802	-48,675	-0,142	-0,050
-701,787	-38,734	0,191	0,075
-700,772	150,825	0,034	-0,035
-699,758	270,898	-0,016	0,021
-698,743	-72,994	0,203	0,055
-697,729	-22,684	0,061	0,027
-696,714	279,800	0,085	0,114
-695,699	-106,688	0,086	-0,014
-694,685	-200,000	0,004	-0,080
-693,670	-200,000	0,004	-0,193
-692,656	689,283	-0,023	0,045
-691,641	-126,345	0,096	-0,011
-690,627	-67,920	0,073	-0,021
-689,612	-109,749	0,144	0,022
-688,597	54,438	-0,083	-0,059
-687,583	-45,812	0,036	-0,013
-686,568	800,000	-0,034	-0,100
-685,554	-100,401	-0,186	0,034
-684,539	-131,044	0,042	0,004
-683,524	217,044	0,032	0,038
-682,510	-100,214	-0,122	0,022
-681,495	-116,347	-0,108	-0,015
-680,481	396,413	0,037	-0,057
-679,466	34,687	-0,100	-0,065
-678,451	-200,000	0,007	0,100
-677,437	237,983	0,028	-0,035
-676,422	800,000	0,020	-0,045
-675,408	-97,484	0,035	0,007
-674,393	316,077	-0,032	-0,045
-673,378	-200,000	-0,020	0,085
-672,364	-115,658	-0,040	-0,006
-671,349	-200,000	0,006	-0,160
-670,335	-200,000	-0,000	0,073
-669,320	51,856	-0,039	-0,028
-668,305	202,253	0,082	0,094
-667,291	-200,000	-0,030	-0,112
-666,276	800,000	-0,022	-0,059
-665,262	-20,190	-0,075	-0,034
-664,247	383,575	-0,069	-0,106
-663,232	19,331	0,101	0,060
-662,218	-156,623	-0,070	0,003
-661,203	-66,591	-0,103	0,030
-660,189	800,000	-0,048	-0,149
-659,174	-132,299	0,102	-0,010
-658,159	231,851	-0,139	-0,169
-657,145	-124,703	-0,062	-0,007
-656,130	-88,783	0,033	0,007
-655,116	-86,807	-0,072	0,016
-654,101	-49,005	0,097	0,034
-653,086	-70,867	-0,084	0,023
-652,072	559,735	-0,047	-0,084
-651,057	-200,000	-0,003	-0,015
-650,043	359,300	0,016	-0,024
-649,028	-200,000	0,035	-0,126
-648,014	800,000	-0,047	-0,112
-646,999	248,737	0,095	-0,120
-645,984	800,000	-0,068	-0,141
-644,970	800,000	0,030	-0,072
-643,955	800,000	-0,010	0,031
-642,941	82,633	-0,045	-0,036
-641,926	-200,000	0,031	-0,109
-640,911	190,804	-0,011	0,012
-639,897	-90,784	0,093	0,020
-638,882	-80,263	0,095	-0,023
-637,868	800,000	-0,035	-0,089
-636,853	160,848	-0,078	-0,081
-635,838	-93,542	-0,140	-0,029
-634,824	-200,000	0,000	-0,080
-633,809	435,412	0,052	-0,084
-632,795	39,107	-0,094	-0,062
-631,780	9,234	0,061	-0,034
-630,765	800,000	0,034	-0,087
-629,751	-111,194	-0,065	-0,010
-628,736	381,663	0,014	0,021
-627,722	42,662	-0,101	-0,068
-626,707	-70,629	0,062	-0,017
-625,692	-200,000	0,005	0,043
-624,678	-200,000	-0,011	0,047
-623,663	42,708	-0,181	0,122
-622,649	77,126	0,062	-0,049
-621,634	329,180	-0,096	0,137
-620,619	-134,082	-0,162	-0,015
-619,605	412,325	0,090	0,143
-618,590	172,969	-0,076	0,082
-617,576	-69,748	0,085	0,024
-616,561	-200,000	0,022	-0,091
-615,546	-3,310	-0,078	-0,040
-614,532	-21,062	-0,027	-0,012
-613,517	-26,401	0,082	-0,035
-612,503	143,750	-0,114	-0,112
-611,488	90,744	-0,061	-0,050
-610,474	21,166	0,042	-0,025
-609,459	-9,614	0,116	-0,057
-608,444	-200,000	-0,006	-0,029
-607,430	575,343	0,037	0,067
-606,415	-200,000	-0,003	0,011
-605,401	-200,000	0,012	-0,048
-604,386	373,511	0,067	-0,101
-603,371	-128,638	0,098	-0,010
-602,357	-4,257	-0,039	0,020
-601,342	432,837	-0,032	0,052
-600,328	-128,846	-0,043	-0,004
-599,313	292,279	-0,078	-0,106
-598,298	-200,000	0,002	-0,075
-597,284	-200,000	-0,007	0,068
-596,269	-132,203	0,077	0,007
-595,255	-101,658	-0,072	-0,013
-594,240	-200,000	0,026	0,092
-593,225	800,000	-0,048	-0,153
-592,211	244,749	0,133	-0,166
-591,196	800,000	-0,044	-0,126
-590,182	358,489	-0,034	0,051
-589,167	-200,000	0,006	0,106
-588,152	623,879	-0,015	0,028
-587,138	217,830	-0,047	0,055
-586,123	-200,000	0,015	0,060
-585,109	6,381	-0,091	0,050
-584,094	-14,113	0,064	0,030
-583,079	193,644	0,006	-0,007
-582,065	-64,731	-0,034	0,010
-581,050	-71,429	-0,036	-0,010
-580,036	622,467	0,041	0,076
-579,021	91,131	0,152	0,126
-578,006	92,891	-0,098	0,082
-576,992	800,000	0,043	-0,131
-575,977	25,426	-0,058	-0,036
-574,963	-200,000	0,026	0,097
-573,948	-21,201	0,081	0,037
-572,934	-146,451	-0,096	-0,006
-571,919	-121,061	-0,071	-0,009
-570,904	-134,385	0,082	-0,007
-569,890	-200,000	0,007	0,039
-568,875	125,207	0,065	0,061
-567,861	153,761	-0,056	-0,057
-566,846	299,019	0,062	0,085
-565,831	-200,000	-0,005	0,037
-564,817	-4,865	0,148	-0,075
-563,802	469,732	0,047	0,078
-562,788	-7,841	-0,090	-0,045
-561,773	0,620	-0,069	0,036
-560,758	-175,669	-0,074	0,001
-559,744	800,000	-0,011	0,033
-558,729	800,000	0,024	0,057
-557,715	800,000	-0,040	-0,103
-556,700	-200,000	-0,009	0,085
-555,685	25,728	0,048	0,030
-554,671	-83,950	0,145	0,034
-553,656	800,000	-0,112	0,256
-552,642	-200,000	-0,021	0,119
-551,627	274,225	0,034	0,044
-550,612	251,640	0,027	-0,034
-549,598	26,373	-0,084	-0,052
-548,583	-126,442	-0,147	-0,016
-547,569	800,000	0,027	0,072
-546,554	-106,700	-0,020	0,003
-545,539	112,787	0,116	0,104
-544,525	6,273	0,043	-0,023
-543,510	-157,956	0,091	0,004
-542,496	128,437	-0,066	0,062
-541,481	-114,624	-0,065	-0,009
-540,466	-200,000	0,007	0,023
-539,452	52,962	0,022	0,015
-538,437	46,750	0,121	0,083
-537,423	-35,631	-0,094	0,037
-536,408	-200,000	0,000	0,017
-535,393	59,381	0,020	0,014
-534,379	577,968	0,047	-0,085
-533,364	10,741	-0,087	0,049
-532,350	256,703	0,063	0,080
-531,335	800,000	-0,018	0,056
-530,321	-200,000	-0,001	-0,029
-529,306	-89,944	-0,117	-0,025
-528,291	-99,974	0,030	-0,005
-527,277	-47,349	-0,030	0,011
-526,262	-82,517	-0,038	0,009
-525,248	212,216	-0,050	-0,058
-524,233	-88,357	-0,062	0,014
-523,218	-99,116	-0,026	-0,005
-522,204	-111,762	0,080	0,012
-521,189	76,301	-0,075	0,059
-520,175	-70,616	-0,122	0,034
-519,160	-200,000	-0,024	0,162
-518,145	248,959	0,087	0,109
-517,131	123,215	0,023	0,021
-516,116	101,469	-0,065	-0,056
-515,102	352,445	0,013	0,019
-514,087	800,000	-0,069	0,171
-513,072	-22,964	-0,039	0,017
-512,058	78,539	-0,081	-0,064
-511,043	-200,000	-0,012	0,139
-510,029	-105,039	0,126	-0,021
-509,014	800,000	0,032	-0,086
-507,999	800,000	0,050	0,108
-506,985	-63,790	0,056	-0,017
-505,970	541,361	-0,087	-0,154
-504,956	-4,615	-0,086	-0,044
-503,941	10,094	0,125	0,070
-502,926	135,172	-0,086	0,082
-501,912	349,699	0,064	-0,094
-500,897	-87,909	0,098	0,022
-499,883	143,075	-0,022	0,022
-498,868	92,810	0,077	-0,064
-497,853	-200,000	-0,005	-0,050
-496,839	72,484	0,076	0,059
-495,824	48,471	0,131	-0,091
-494,810	-40,288	0,053	0,020
-493,795	149,229	0,034	-0,034
-492,781	649,133	-0,021	-0,041
-491,766	800,000	-0,017	-0,048
-490,751	-200,000	0,014	0,065
-489,737	64,374	0,090	-0,067
-488,722	-200,000	-0,002	-0,090
-487,708	159,142	-0,039	-0,040
-486,693	47,769	0,038	0,026
-485,678	359,658	0,012	-0,018
-484,664	-200,000	0,029	-0,138
-483,649	-36,261	0,096	0,038
-482,635	-118,825	0,119	-0,015
-481,620	-200,000	-0,021	0,071
-480,605	258,153	0,035	0,045
-479,591	800,000	0,022	0,067
-478,576	-200,000	0,018	0,072
-477,562	70,171	-0,118	-0,090
-476,547	56,463	0,044	-0,032
-475,532	199,506	-0,070	-0,079
-474,518	20,302	-0,107	0,064
-473,503	-200,000	0,010	-0,091
-472,489	-19,236	0,043	-0,019
-471,474	64,316	-0,046	0,034
-470,459	-173,889	0,015	-0,000
-469,445	-200,000	-0,016	-0,061
-468,430	-200,000	-0,017	-0,075
-467,416	94,325	0,116	-0,097
-466,401	20,233	-0,118	-0,070
-465,386	67,911	0,063	-0,047
-464,372	333,794	-0,062	-0,089
-463,357	542,655	0,083	-0,146
-462,343	62,483	-0,146	-0,107
-461,328	251,366	0,059	-0,073
-460,313	229,134	0,042	-0,051
-459,299	-200,000	0,035	-0,218
-458,284	76,098	-0,072	-0,056
-457,270	70,115	0,071	-0,054
-456,255	149,166	-0,017	-0,017
-455,241	-200,000	-0,006	0,076
-454,226	-200,000	0,019	-0,100
-453,211	29,896	0,065	0,040
-452,197	4,117	0,049	-0,026
-451,182	48,780	-0,071	-0,049
-450,168	-82,509	-0,029	0,007
-449,153	-100,249	0,059	-0,011
-448,138	45,475	-0,042	-0,029
-447,124	58,447	-0,120	0,087
-446,109	-200,000	0,010	-0,058
-445,095	-200,000	0,045	0,168
-444,080	-200,000	-0,016	-0,074
-443,065	481,075	0,046	-0,077
-442,051	262,223	-0,083	0,106
-441,036	535,392	-0,076	0,134
-440,022	-121,869	-0,104	-0,013
-439,007	-91,328	-0,081	-0,017
-437,992	223,170	0,072	0,086
-436,978	-84,539	0,106	0,024
-435,963	800,000	-0,037	-0,079
-434,949	494,681	-0,077	0,131
-433,934	-91,280	-0,052	0,011
-432,919	97,113	0,075	-0,063
-431,905	800,000	-0,035	-0,104
-430,890	154,936	-0,056	-0,057
-429,876	-200,000	0,169	0,001
-428,861	-200,000	0,004	0,149
-427,846	-139,492	-0,167	-0,013
-426,832	510,905	-0,054	0,094
-425,817	15,375	-0,136	0,078
-424,803	-200,000	-0,044	0,210
-423,788	800,000	-0,064	0,148
-422,773	78,789	0,086	0,068
-421,759	50,365	-0,139	-0,096
-420,744	81,271	0,072	0,057
-419,730	-200,000	-0,057	0,261
-418,715	800,000	0,022	0,056
-417,701	-6,176	-0,041	-0,020
-416,686	800,000	-0,044	-0,123
-415,671	-160,155	0,165	-0,006
-414,657	128,052	0,150	0,141
-413,642	-86,548	-0,086	0,019
-412,628	-200,000	0,024	-0,138
-411,613	-200,000	0,002	-0,011
-410,598	800,000	0,078	0,197
-409,584	-57,637	0,009	0,003
-408,569	-95,004	0,065	-0,013
-407,555	-200,000	-0,003	0,023
-406,540	314,411	-0,059	-0,082
-405,525	-200,000	-0,002	-0,123
-404,511	800,000	0,029	0,065
-403,496	800,000	-0,028	-0,068
-402,482	-35,874	-0,043	0,017
-401,467	229,126	-0,045	-0,054
-400,452	-136,776	-0,073	0,006
-399,438	800,000	0,022	0,067
-398,423	-137,747	-0,141	0,011
-397,409	-26,925	-0,108	0,046
-396,394	-10,059	0,105	0,051
-395,379	-138,038	0,081	-0,007
-394,365	-139,388	0,041	0,003
-393,350	-118,697	-0,030	0,004
-392,336	88,265	-0,093	0,076
-391,321	65,298	0,051	0,038
-390,306	-116,047	0,168	-0,023
-389,292	-184,220	-0,120	0,001
-388,277	-129,325	-0,108	-0,011
-387,263	19,584	0,042	0,025
-386,248	254,522	0,084	0,106
-385,233	35,335	-0,159	0,102
-384,219	62,712	-0,137	-0,101
-383,204	800,000	-0,006	-0,014
-382,190	-113,752	-0,037	-0,005
-381,175	131,557	0,124	0,117
-380,160	793,241	-0,068	0,138
-379,146	-200,000	0,005	0,117
-378,131	-200,000	0,014	-0,102
-377,117	225,084	0,108	0,129
-376,102	800,000	0,069	0,199
-375,088	383,670	0,050	0,076
-374,073	800,000	-0,029	0,094
-373,058	-114,827	0,038	0,005
-372,044	-200,000	-0,005	-0,021
-371,029	-92,191	0,020	0,004
-370,015	-200,000	-0,011	0,060
-369,000	646,358	-0,070	-0,132
-367,985	84,409	0,039	-0,031
-366,971	174,155	0,039	-0,041
-365,956	12,012	0,055	-0,031
-364,942	221,867	0,078	-0,092
-363,927	127,035	0,052	0,049
-362,912	415,970	-0,062	-0,097
-361,898	271,891	-0,073	0,095
-360,883	-61,136	-0,056	0,017
-359,869	-102,225	0,053	0,009
-358,854	136,817	-0,106	-0,102
-357,839	283,589	0,033	-0,044
-356,825	80,025	0,100	0,079
-355,810	-40,297	0,157	0,060
-354,796	689,066	0,037	-0,071
-353,781	80,209	-0,157	-0,124
-352,766	-200,000	0,000	0,069
-351,752	800,000	-0,022	0,059
-350,737	7,445	0,214	0,117
-349,723	539,767	0,041	-0,072
-348,708	85,977	0,043	-0,035
-347,693	800,000	-0,011	0,023
-346,679	570,647	0,054	-0,097
-345,664	-200,000	-0,002	-0,021
-344,650	64,038	-0,080	0,059
-343,635	-39,612	0,101	0,039
-342,620	-113,375	-0,099	-0,014
-341,606	283,537	-0,075	0,099
-340,591	106,764	-0,083	0,072
-339,577	746,023	-0,058	-0,115
-338,562	494,717	0,018	0,031
-337,548	-200,000	-0,001	0,071
-336,533	154,647	0,143	0,144
-335,518	540,799	0,018	-0,032
-334,504	-62,390	0,032	0,010
-333,489	-134,614	-0,019	0,002
-332,475	-70,477	-0,052	0,014
-331,460	147,537	0,039	-0,038
-330,445	-22,826	0,049	0,021
-329,431	-102,824	-0,058	0,010
-328,416	800,000	0,031	0,098
-327,402	800,000	0,015	-0,036
-326,387	-143,690	0,110	-0,008
-325,372	168,747	-0,126	-0,132
-324,358	64,063	-0,121	-0,089
-323,343	-200,000	0,003	-0,043
-322,329	642,809	0,067	0,126
-321,314	-200,000	0,013	0,157
-320,299	41,962	-0,034	-0,023
-319,285	-93,820	0,040	-0,008
-318,270	255,705	-0,044	-0,055
-317,256	649,792	-0,081	-0,153
-316,241	150,720	-0,069	-0,069
-315,226	-200,000	0,007	-0,042
-314,212	-200,000	-0,003	0,091
-313,197	110,783	-0,107	0,094
-312,183	140,747	0,010	-0,009
-311,168	800,000	-0,042	-0,120
-310,153	373,816	0,031	0,046
-309,139	-145,007	-0,114	0,007
-308,124	-137,157	0,081	0,007
-307,110	127,254	-0,075	0,069
-306,095	800,000	0,066	0,166
-305,080	-50,467	-0,060	0,021
-304,066	539,312	-0,143	-0,250
-303,051	800,000	0,027	-0,068
-302,037	-84,665	-0,120	0,028
-301,022	-53,703	-0,031	0,010
-300,008	102,848	-0,065	0,056
-298,993	105,149	0,080	0,069
-297,978	33,795	-0,048	0,030
-296,964	3,777	0,089	0,047
-295,949	-200,000	-0,000	0,004
-294,935	33,353	0,107	-0,068
-293,920	800,000	-0,013	0,037
-292,905	-159,202	0,148	-0,006
-291,891	476,085	0,048	0,080
-290,876	-131,047	-0,054	-0,005
-289,862	-131,669	0,089	0,008
-288,847	354,022	-0,086	-0,125
-287,832	-200,000	0,011	-0,161
-286,818	-0,420	-0,101	-0,053
-285,803	-0,207	-0,047	-0,024
-284,789	-65,133	0,032	-0,009
-283,774	31,108	0,026	-0,016
-282,759	-9,627	-0,081	-0,039
-281,745	800,000	-0,040	0,090
-280,730	-125,247	-0,084	0,009
-279,716	-14,977	0,228	0,106
-278,701	-43,183	-0,025	0,009
-277,686	-152,037	0,049	-0,003
-276,672	800,000	0,040	0,126
-275,657	-24,303	-0,011	0,005
-274,643	76,403	-0,144	-0,112
-273,628	36,976	0,134	-0,086
-272,613	-200,000	-0,010	-0,096
-271,599	121,009	0,034	0,031
-270,584	332,012	-0,029	0,041
-269,570	800,000	0,009	0,020
-268,555	-200,000	-0,013	0,197
-267,540	30,029	-0,064	0,040
-266,526	-76,878	-0,181	-0,046
-265,511	498,453	0,091	-0,154
-264,497	-131,372	0,048	-0,005
-263,482	-87,683	0,184	-0,040
-262,467	-166,512	0,012	0,000
-261,453	42,284	-0,053	0,035
-260,438	14,910	-0,179	-0,102
-259,424	290,314	0,004	-0,005
-258,409	181,781	-0,048	-0,052
-257,395	-41,610	0,175	0,066
-256,380	81,368	0,087	-0,069
-255,365	-115,682	0,041	-0,006
-254,351	425,273	0,044	0,069
-253,336	98,935	-0,107	-0,090
-252,322	-200,000	0,022	0,085
-251,307	119,375	0,100	0,091
-250,292	-200,000	0,030	-0,121
-249,278	0,216	-0,119	0,062
-248,263	-200,000	-0,017	-0,097
-247,249	-200,000	-0,006	-0,081
-246,234	22,351	0,108	-0,064
-245,219	-23,806	-0,118	-0,051
-244,205	386,785	0,032	0,049
-243,190	-79,723	0,174	-0,042
-242,176	160,031	0,043	0,044
-241,161	800,000	0,025	-0,053
-240,146	-200,000	-0,008	0,052
-239,132	3,063	-0,149	-0,079
-238,117	-156,996	-0,184	-0,008
-237,103	-127,461	-0,014	0,001
-236,088	800,000	-0,013	-0,030
-235,073	-132,054	0,131	-0,012
-234,059	-182,941	-0,106	-0,001
-233,044	-62,037	0,047	0,014
-232,030	-200,000	-0,014	-0,106
-231,015	-51,916	-0,170	-0,058
-230,000	243,960	-0,023	0,028
-228,986	-95,462	0,041	0,008
-227,971	314,984	0,063	0,087
-226,957	-38,462	-0,079	-0,031
-225,942	101,704	0,099	0,084
-224,927	-200,000	0,036	0,133
-223,913	-200,000	-0,028	-0,124
-222,898	-161,539	0,138	-0,005
-221,884	800,000	-0,058	0,136
-220,869	-1,145	0,135	0,069
-219,855	-90,654	0,026	-0,005
-218,840	315,057	-0,036	-0,049
-217,825	-200,000	-0,024	0,094
-216,811	-200,000	-0,017	-0,076
-215,796	523,056	0,030	-0,051
-214,782	800,000	0,028	-0,066
-213,767	-200,000	0,010	0,042
-212,752	388,386	0,093	-0,141
-211,738	-109,558	0,080	-0,012
-210,723	-200,000	-0,004	-0,059
-209,709	-200,000	-0,003	-0,060
-208,694	585,884	0,076	0,136
-207,679	-200,000	-0,006	-0,064
-206,665	145,819	0,134	-0,131
-205,650	-47,971	0,179	0,063
-204,636	-46,664	0,026	0,009
-203,621	-98,604	0,065	-0,012
-202,606	227,837	0,068	0,080
-201,592	27,275	-0,051	0,031
-200,577	117,682	-0,028	-0,025
-199,563	269,410	-0,125	-0,161
-198,548	744,638	-0,043	0,086
-197,533	1,161	0,074	0,039
-196,519	800,000	-0,024	-0,062
-195,504	84,225	-0,070	-0,056
-194,490	-149,875	0,123	0,007
-193,475	42,441	-0,090	0,060
-192,460	-73,347	-0,054	-0,014
-191,446	-66,521	-0,070	-0,020
-190,431	-65,485	-0,091	0,026
-189,417	507,895	0,060	0,101
-188,402	408,810	0,021	-0,032
-187,387	800,000	-0,028	-0,057
-186,373	270,566	-0,053	0,068
-185,358	784,118	0,088	0,176
-184,344	800,000	-0,023	-0,051
-183,329	68,173	0,064	0,048
-182,315	800,000	0,033	0,093
-181,300	-200,000	0,008	-0,111
-180,285	-2,907	-0,136	-0,069
-179,271	-35,116	0,162	0,064
-178,256	-78,121	-0,063	0,016
-177,242	24,089	0,133	0,080
-176,227	-134,086	0,024	-0,002
-175,212	8,807	0,097	-0,053
-174,198	-200,000	0,015	0,102
-173,183	73,654	-0,094	-0,072
-172,169	-1,977	0,078	-0,040
-171,154	-84,100	0,081	-0,019
-170,139	-200,000	-0,025	0,084
-169,125	-200,000	-0,003	-0,084
-168,110	58,689	-0,041	0,029
-167,096	-200,000	0,034	-0,162
-166,081	800,000	0,047	-0,101
-165,066	-8,755	0,028	0,014
-164,052	-141,223	0,070	0,005
-163,037	-75,574	-0,031	-0,008
-162,023	-98,243	0,164	-0,030
-161,008	-1,482	-0,114	-0,058
-159,993	-24,756	-0,107	-0,046
-158,979	37,706	-0,102	-0,066
-157,964	-48,727	-0,126	0,044
-156,950	-60,588	-0,087	0,027
-155,935	126,710	-0,087	-0,080
-154,920	82,004	0,071	-0,056
-153,906	-158,610	0,134	0,006
-152,891	-200,000	-0,017	0,096
-151,877	99,883	-0,077	-0,065
-150,862	-59,574	0,024	-0,007
-149,847	800,000	-0,028	0,078
-148,833	800,000	-0,005	0,011
-147,818	-200,000	0,041	0,143
-146,804	133,751	0,016	-0,015
-145,789	539,474	0,062	0,107
-144,775	174,501	-0,061	0,065
-143,760	335,115	0,027	0,038
-142,745	-200,000	-0,017	-0,101
-141,731	-200,000	-0,025	0,096
-140,716	-157,509	-0,039	0,002
-139,702	-200,000	0,021	0,091
-138,687	-200,000	0,002	0,018
-137,672	121,551	0,060	0,054
-136,658	-107,615	-0,038	0,006
-135,643	-106,515	-0,052	0,008
-134,629	729,533	-0,052	0,101
-133,614	-200,000	0,033	0,129
-132,599	-200,000	0,004	-0,030
-131,585	-200,000	-0,019	0,092
-130,570	-75,833	-0,068	0,017
-129,556	-200,000	-0,008	0,035
-128,541	37,961	0,074	-0,048
-127,526	-76,905	-0,238	-0,060
-126,512	-147,799	0,066	-0,004
-125,497	800,000	-0,049	0,149
-124,483	-200,000	0,004	-0,028
-123,468	-24,313	-0,090	0,039
-122,453	-26,808	-0,024	-0,010
-121,439	-63,865	0,076	-0,023
-120,424	800,000	0,014	-0,031
-119,410	-200,000	0,053	0,183
-118,395	800,000	0,021	-0,043
-117,380	800,000	-0,069	0,189
-116,366	-200,000	0,010	0,181
-115,351	-200,000	0,022	-0,077
-114,337	-33,357	-0,093	0,037
-113,322	212,678	-0,054	0,062
-112,307	800,000	0,050	-0,136
-111,293	536,221	0,004	0,006
-110,278	12,257	-0,068	-0,038
-109,264	800,000	0,027	0,079
-108,249	330,928	-0,059	0,083
-107,234	-35,840	0,064	-0,025
-106,220	-81,986	-0,107	-0,025
-105,205	138,953	0,024	-0,023
-104,191	-66,063	0,119	0,034
-103,176	206,455	-0,087	0,098
-102,162	-122,407	-0,071	0,008
-101,147	-81,036	0,091	0,022
-100,132	-200,000	0,015	0,082
-99,118	-106,617	-0,070	0,011
-98,103	50,548	-0,101	-0,069
-97,089	-200,000	-0,019	-0,064
-96,074	154,622	-0,037	-0,036
-95,059	230,904	0,056	-0,067
-94,045	800,000	-0,077	-0,163
-93,030	387,475	-0,083	0,125
-92,016	-200,000	-0,013	-0,056
-91,001	-200,000	-0,006	-0,021
-89,986	136,300	-0,069	-0,065
-88,972	-116,739	0,044	0,006
-87,957	-200,000	0,008	0,096
-86,943	-2,321	-0,075	-0,038
-85,928	-200,000	-0,019	0,104
-84,913	29,375	-0,116	0,072
-83,899	-200,000	-0,003	0,025
-82,884	-160,697	-0,026	0,001
-81,870	775,650	0,041	0,082
-80,855	-200,000	0,012	0,156
-79,840	10,869	-0,079	0,043
-78,826	354,337	0,023	0,033
-77,811	665,434	-0,043	-0,081
-76,797	-141,245	0,047	-0,003
-75,782	115,560	0,091	0,081
-74,767	-200,000	0,038	0,187
-73,753	270,943	-0,072	0,092
-72,738	-183,220	0,079	0,001
-71,724	293,540	-0,018	-0,024
-70,709	-30,945	0,061	0,025
-69,694	-69,475	-0,150	-0,041
-68,680	332,212	-0,028	0,039
-67,665	122,493	-0,104	0,095
-66,651	629,680	-0,055	0,102
-65,636	-200,000	0,004	0,094
-64,622	160,584	0,042	-0,043
-63,607	800,000	0,042	-0,124
-62,592	75,865	-0,098	-0,075
-61,578	75,482	-0,066	0,050
-60,563	-200,000	0,030	0,098
-59,549	50,415	-0,059	-0,040
-58,534	-107,814	-1,283	-0,201
-57,519	584,766	-0,810	-1,449
-56,505	-200,000	-0,975	-4,504
-55,490	-85,094	0,658	-0,148
-54,476	800,000	5,056	11,747
-53,461	-200,000	13,944	252,676
-52,446	-200,000	692,754	2239,713
-51,432	575,506	1623,662	2886,442
-50,417	117,635	1633,241	1457,429
-49,403	72,354	1287,100	971,459
-48,388	37,502	1023,379	656,802
-47,373	23,976	981,310	585,353
-46,359	23,186	970,993	576,588
-45,344	22,158	966,682	570,651
-44,330	22,074	965,264	569,516
-43,315	21,975	963,629	568,208
-42,300	22,030	962,756	567,848
-41,286	21,975	961,633	566,985
-40,271	21,976	960,617	566,366
-39,257	21,987	959,724	565,854
-38,242	21,979	958,924	565,332
-37,227	21,898	958,079	564,551
-36,213	21,887	957,246	564,002
-35,198	21,867	956,366	563,395
-34,184	21,961	955,748	563,312
-33,169	21,878	954,978	562,568
-32,154	21,953	953,809	562,099
-31,140	22,024	952,812	561,718
-30,125	22,029	952,076	561,280
-29,111	21,984	951,342	560,679
-28,096	22,015	950,649	560,346
-27,082	21,994	950,037	559,896
-26,067	22,049	949,211	559,565
-25,052	21,991	948,430	558,897
-24,038	21,947	947,871	558,404
-23,023	21,945	947,278	558,025
-22,009	21,986	946,530	557,692
-20,994	21,996	945,922	557,346
-19,979	21,995	945,240	556,919
-18,965	22,022	944,551	556,578
-17,950	21,991	944,111	556,195
-16,936	21,975	943,387	555,698
-15,921	21,923	942,771	555,147
-14,906	21,862	941,963	554,453
-13,892	21,855	941,234	553,981
-12,877	21,873	940,670	553,683
-11,863	21,825	940,023	553,129
-10,848	21,908	939,465	553,042
-9,833	21,969	939,094	552,995
-8,819	21,900	938,558	552,439
-7,804	21,810	937,936	551,764
-6,790	21,849	937,243	551,460
-5,775	21,902	936,574	551,213
-4,760	21,855	935,966	550,684
-3,746	21,838	935,209	550,164
-2,731	21,709	934,877	549,539
-1,717	21,654	934,030	548,846
-0,702	21,645	933,381	548,413
0,313	21,436	932,702	548,186
1,327	24,569	930,550	556,710
2,342	34,111	794,837	500,890
3,356	31,825	450,987	280,738
4,371	1,010	293,974	152,232
5,386	-3,434	274,726	138,048
6,400	-4,683	269,162	134,081
7,415	-5,010	266,814	132,598
8,429	-4,854	265,585	132,118
9,444	-4,838	264,783	131,723
10,459	-4,811	264,153	131,423
11,473	-4,969	263,647	131,015
12,488	-5,091	263,101	130,621
13,502	-5,159	262,613	130,306
14,517	-5,143	262,186	130,097
15,531	-4,873	261,733	130,104
16,546	-4,796	261,322	129,957
17,561	-4,789	260,912	129,748
18,575	-4,981	260,769	129,493
19,590	-4,865	260,337	129,371
20,604	-4,858	260,018	129,207
21,619	-5,000	259,798	128,959
22,634	-5,018	259,416	128,742
23,648	-4,840	259,007	128,686
24,663	-4,992	258,788	128,431
25,677	-4,917	258,561	128,373
26,692	-4,955	258,511	128,303
27,707	-4,764	257,987	128,202
28,721	-4,974	257,759	127,890
29,736	-5,076	257,579	127,699
30,750	-5,329	257,434	127,392
31,765	-5,040	256,911	127,377
32,780	-5,097	256,926	127,323
33,794	-4,919	256,536	127,275
34,809	-5,049	256,351	127,058
35,823	-5,081	256,041	126,864
36,838	-5,153	255,860	126,699
37,853	-5,336	255,817	126,506
38,867	-5,130	255,566	126,552
39,882	-4,938	255,218	126,537
40,896	-5,188	255,142	126,268
41,911	-4,986	254,723	126,226
42,926	-4,998	254,560	126,124
43,940	-5,209	254,286	125,793
44,955	-5,022	254,029	125,818
45,969	-5,153	253,905	125,631
46,984	-5,376	253,788	125,367
47,999	-5,636	253,284	124,881
49,013	-5,804	253,356	124,759
50,028	-5,557	252,857	124,716
51,042	-5,779	252,620	124,396
52,057	-5,744	252,326	124,270
53,071	-5,801	252,292	124,193
54,086	-5,650	252,009	124,174
55,101	-5,611	251,971	124,177
56,115	-5,327	251,791	124,323
57,130	-4,965	251,816	124,637
58,144	-4,663	251,430	124,696
59,159	-4,917	251,294	124,398
60,174	-4,901	251,080	124,296
61,188	-4,892	250,938	124,222
62,203	-4,959	250,769	124,069
63,217	-4,882	250,442	123,962
64,232	-4,925	250,247	123,818
65,247	-4,899	249,979	123,697
66,261	-4,938	249,848	123,587
67,276	-4,982	249,495	123,364
68,290	-5,330	249,443	123,029
69,305	-5,374	249,132	122,827
70,320	-5,495	248,947	122,622
71,334	-5,231	248,908	122,817
72,349	-4,886	248,624	122,960
73,363	-4,692	248,428	123,018
74,378	-4,963	248,314	122,720
75,393	-4,892	247,962	122,595
76,407	-5,049	247,838	122,389
77,422	-4,983	247,659	122,346
78,436	-5,022	247,528	122,237
79,451	-4,855	247,189	122,200
80,466	-4,958	246,937	121,978
81,480	-5,073	246,736	121,770
82,495	-5,083	246,580	121,675
83,509	-5,142	246,473	121,561
84,524	-5,143	246,258	121,444
85,539	-5,286	245,986	121,178
86,553	-5,406	245,869	121,008
87,568	-5,202	245,694	121,083
88,582	-5,330	245,402	120,820
89,597	-5,212	245,227	120,823
90,611	-5,379	245,303	120,709
91,626	-5,076	244,936	120,772
92,641	-4,976	244,652	120,705
93,655	-4,881	244,469	120,684
94,670	-5,156	244,381	120,399
95,684	-5,127	244,095	120,272
96,699	-5,259	243,881	120,045
97,714	-5,104	243,737	120,093
98,728	-5,266	243,481	119,821
99,743	-5,358	243,372	119,680
100,757	-5,414	243,198	119,538
101,772	-5,322	242,998	119,505
102,787	-5,238	242,846	119,489
103,801	-5,176	242,736	119,476
104,816	-5,024	242,422	119,437
105,830	-4,935	242,382	119,480
106,845	-5,068	242,288	119,313
107,860	-5,196	242,054	119,082
108,874	-5,079	241,761	119,023
109,889	-5,065	241,525	118,908
110,903	-5,220	241,381	118,698
111,918	-5,192	241,348	118,695
112,933	-4,981	240,955	118,665
113,947	-4,906	240,814	118,646
114,962	-4,956	240,728	118,553
115,976	-4,982	240,580	118,448
116,991	-5,062	240,410	118,288
118,006	-5,213	240,296	118,097
119,020	-5,010	240,160	118,186
120,035	-5,158	239,872	117,913
121,049	-5,021	239,848	118,002
122,064	-5,027	239,667	117,898
123,079	-4,913	239,370	117,835
124,093	-5,089	239,149	117,572
125,108	-5,265	239,071	117,379
126,122	-5,332	238,790	117,176
127,137	-5,483	238,662	116,980
128,151	-5,446	238,438	116,889
129,166	-5,330	238,291	116,901
130,181	-5,281	238,137	116,855
131,195	-5,377	237,879	116,641
132,210	-5,414	237,864	116,592
133,224	-5,147	237,685	116,711
134,239	-5,041	237,483	116,687
135,254	-4,938	237,215	116,629
136,268	-5,271	237,179	116,331
137,283	-5,193	236,699	116,148
138,297	-5,460	236,699	115,922
139,312	-5,593	236,485	115,700
140,327	-5,218	236,379	115,940
141,341	-4,777	236,138	116,167
142,356	-4,798	236,180	116,160
143,370	-4,920	235,929	115,928
144,385	-4,808	235,907	115,997
145,400	-4,833	235,702	115,866
146,414	-4,669	235,384	115,830
147,429	-4,796	235,188	115,622
148,443	-4,777	235,134	115,601
149,458	-4,798	235,039	115,527
150,473	-4,705	234,830	115,488
151,487	-4,870	234,568	115,217
152,502	-4,820	234,488	115,208
153,516	-4,610	234,339	115,291
154,531	-4,964	234,073	114,869
155,546	-4,847	234,032	114,931
156,560	-4,689	233,718	114,892
157,575	-4,993	233,585	114,575
158,589	-4,908	233,462	114,572
159,604	-4,818	233,397	114,601
160,619	-4,820	233,256	114,520
161,633	-4,608	233,076	114,590
162,648	-4,683	232,911	114,440
163,662	-5,025	232,803	114,105
164,677	-4,932	232,549	114,044
165,692	-4,797	232,324	114,029
166,706	-4,720	232,347	114,092
167,721	-4,684	232,152	114,014
168,735	-4,902	231,927	113,722
169,750	-4,894	231,815	113,663
170,764	-4,658	231,629	113,748
171,779	-4,636	231,586	113,734
172,794	-4,427	231,325	113,760
173,808	-4,918	231,208	113,306
174,823	-5,243	230,842	112,861
175,837	-5,184	230,572	112,766
176,852	-5,001	230,633	112,929
177,867	-4,645	230,686	113,224
178,881	-4,674	230,455	113,078
179,896	-4,598	230,168	112,986
180,910	-4,692	230,073	112,856
181,925	-4,802	230,028	112,738
182,940	-4,843	229,786	112,577
183,954	-4,701	229,581	112,578
184,969	-4,775	229,652	112,544
185,983	-4,513	229,269	112,550
186,998	-4,632	229,178	112,403
188,013	-4,541	229,106	112,429
189,027	-4,527	228,869	112,314
190,042	-4,611	228,821	112,215
191,056	-4,579	228,563	112,103
192,071	-4,464	228,425	112,114
193,086	-4,633	228,196	111,861
194,100	-4,725	228,007	111,688
195,115	-4,876	227,757	111,438
196,129	-5,417	227,418	110,845
197,144	-3,178	228,332	113,015
198,159	1,092	229,517	116,909
199,173	3,720	230,136	119,256
200,188	4,008	230,000	119,399
201,202	3,855	229,930	119,233
202,217	4,261	229,812	119,477
203,232	4,233	229,749	119,411
204,246	4,631	229,515	119,587
205,261	4,427	229,446	119,382
206,275	4,855	229,233	119,592
207,290	4,790	229,198	119,513
208,304	4,597	228,993	119,246
209,319	4,668	228,781	119,180
210,334	4,758	228,587	119,138
211,348	4,209	228,410	118,612
212,363	4,023	228,287	118,394
213,377	3,714	227,841	117,916
214,392	3,617	227,947	117,885
215,407	3,630	227,731	117,772
216,421	3,962	227,588	117,943
217,436	3,681	227,401	117,620
218,450	3,646	227,037	117,395
219,465	3,629	226,944	117,323
220,480	3,685	226,764	117,263
221,494	3,605	226,717	117,167
222,509	3,791	226,515	117,194
223,523	3,844	226,424	117,176
224,538	3,683	226,219	116,937
225,553	4,033	226,134	117,149
226,567	3,884	225,967	116,939
227,582	4,152	226,038	117,169
228,596	3,902	225,940	116,918
229,611	3,626	225,733	116,591
230,626	3,765	225,436	116,533
231,640	3,729	225,284	116,416
232,655	3,704	225,238	116,363
233,669	4,384	225,193	116,844
234,684	4,541	225,036	116,871
235,699	4,087	224,796	116,393
236,713	3,991	224,670	116,245
237,728	3,642	224,456	115,860
238,742	3,514	224,434	115,742
239,757	3,602	224,195	115,675
240,772	3,780	223,946	115,670
241,786	3,742	223,769	115,540
242,801	4,093	223,726	115,772
243,815	4,381	223,667	115,947
244,830	4,294	223,546	115,809
245,844	3,932	223,304	115,401
246,859	3,961	223,178	115,347
247,874	4,127	223,048	115,395
248,888	4,106	222,904	115,294
249,903	3,782	222,779	114,976
250,917	3,965	222,476	114,946
251,932	3,683	222,492	114,734
252,947	3,569	222,119	114,446
253,961	3,923	222,008	114,643
254,976	3,807	221,908	114,495
255,990	3,908	221,935	114,574
257,005	3,968	221,819	114,548
258,020	4,077	221,588	114,500
259,034	4,264	221,506	114,586
260,049	3,949	221,380	114,277
261,063	4,075	221,153	114,242
262,078	3,803	221,249	114,080
263,093	4,196	220,972	114,218
264,107	4,379	220,766	114,237
265,122	3,925	220,647	113,830
266,136	4,428	220,509	114,120
267,151	4,394	220,375	114,016
268,166	3,917	220,134	113,529
269,180	3,536	220,006	113,172
270,195	3,824	219,786	113,261
271,209	3,769	219,693	113,162
272,224	3,812	219,538	113,104
273,239	3,812	219,448	113,047
274,253	3,649	219,317	112,850
275,268	3,650	219,079	112,718
276,282	3,661	218,853	112,600
277,297	3,453	218,779	112,399
278,312	3,641	218,495	112,380
279,326	3,723	218,471	112,418
280,341	3,769	218,452	112,433
281,355	3,914	218,202	112,400
282,370	3,722	218,212	112,255
283,384	3,477	217,930	111,920
284,399	3,654	217,660	111,901
285,414	3,560	217,779	111,884
286,428	3,812	217,593	111,962
287,443	3,917	217,466	111,963
288,457	3,799	217,403	111,834
289,472	3,777	217,130	111,668
290,487	3,381	216,877	111,240
291,501	3,329	216,688	111,096
292,516	3,460	216,633	111,153
293,530	3,197	216,582	110,926
294,545	3,387	216,444	110,983
295,560	3,816	216,274	111,196
296,574	3,777	216,232	111,137
297,589	3,945	216,167	111,215
298,603	4,020	215,883	111,113
299,618	3,996	215,747	111,016
300,633	3,799	215,687	110,833
301,647	4,208	215,625	111,086
302,662	3,993	215,538	110,877
303,676	4,017	215,340	110,782
304,691	3,918	215,114	110,585
305,706	4,250	214,976	110,742
306,720	3,981	214,986	110,545
307,735	3,810	214,730	110,280
308,749	3,536	214,463	109,936
309,764	3,852	214,568	110,207
310,779	4,176	214,264	110,274
311,793	3,769	214,150	109,914
312,808	4,034	213,991	110,012
313,822	3,675	213,948	109,723
314,837	3,731	213,747	109,651
315,852	3,420	213,609	109,348
316,866	3,908	213,469	109,614
317,881	4,044	213,468	109,701
318,895	4,240	213,194	109,690
319,910	3,836	213,048	109,318
320,925	3,752	212,714	109,077
321,939	3,471	212,564	108,790
322,954	3,452	212,526	108,749
323,968	3,862	212,581	109,058
324,983	3,892	212,422	108,988
325,997	4,098	212,189	109,004
327,012	3,744	212,061	108,678
328,027	3,761	212,051	108,675
329,041	4,249	211,913	108,940
330,056	4,081	211,876	108,792
331,070	3,896	211,613	108,517
332,085	3,430	211,440	108,090
333,100	3,577	211,291	108,108
334,114	3,943	211,001	108,208
335,129	3,956	210,940	108,176
336,143	3,736	210,819	107,949
337,158	3,661	210,760	107,857
338,173	3,994	210,642	108,021
339,187	3,664	210,531	107,723
340,202	3,576	210,343	107,555
341,216	3,488	210,116	107,368
342,231	3,856	209,983	107,548
343,246	3,561	209,934	107,307
344,260	3,831	209,604	107,317
345,275	3,772	209,660	107,295
346,289	3,994	209,737	107,480
347,304	4,069	209,448	107,374
348,319	3,841	209,244	107,101
349,333	3,943	209,151	107,115
350,348	3,918	209,036	107,029
351,362	4,172	209,011	107,184
352,377	3,826	208,861	106,857
353,392	3,698	208,728	106,690
354,406	3,970	208,614	106,811
355,421	193,891	1344,507	1431,945
356,435	154,713	1482,991	1432,051
