DTS Sentinel unit serial number:	SN410029Multiplexer serial number:	ORYXHardware model number:	OX2-SRSoftware version number:	ORYX F/W v4,00 Oryx Data Collector v3.7.2.0data status	okinstallation	B6 Nyhavnadifferential loss correction	single-endedforward channel	channel 2reverse channel	N/Adate	2023/12/08time	21:20:08forward acquisition time	300,00reverse acquisition time	0,00gamma	499,1914k internal	0,3158k external	0,3158temperature offset calibration	1,0000default loss term (dB/km)	0,3820temperature slope calibration	1,0000multiplexer offset coefficient	1,0000multiplexer slope coefficient	1,0000fibre end	0,00T internal ref (°C)	15,22T ext. ref 1 (°C)	-1,35T ext. ref 2 (°C)	-1,35length (m)	temperature (°C)	Stokes	anti-Stokes-744,400	8,078	0,130	0,072
-743,385	-117,286	-0,242	0,032
-742,371	-80,154	0,163	0,040
-741,356	26,051	-0,283	0,174
-740,342	-68,281	0,104	0,030
-739,327	-173,752	-0,272	0,006
-738,312	-200,000	0,012	0,094
-737,298	-55,853	-0,254	0,083
-736,283	-41,884	0,154	0,058
-735,269	-81,707	-0,361	-0,087
-734,254	-185,691	0,164	0,002
-733,239	-62,225	-0,589	-0,180
-732,225	-96,853	0,170	-0,033
-731,210	4,457	-0,148	0,080
-730,196	76,371	-0,041	0,032
-729,181	128,266	-0,083	-0,078
-728,167	-200,000	0,001	0,007
-727,152	418,967	-0,079	-0,124
-726,137	-200,000	-0,021	0,113
-725,123	-81,778	-0,115	0,028
-724,108	-200,000	-0,047	-0,203
-723,094	211,502	0,036	-0,042
-722,079	-92,419	-0,098	-0,020
-721,064	-71,609	-0,094	0,026
-720,050	-94,972	-0,056	0,011
-719,035	800,000	-0,068	-0,205
-718,021	800,000	-0,044	0,121
-717,006	516,494	-0,065	-0,113
-715,991	-86,002	-0,099	-0,022
-714,977	-90,426	-0,153	-0,032
-713,962	-200,000	-0,032	0,160
-712,948	-145,394	-0,018	-0,001
-711,933	7,191	-0,046	-0,025
-710,918	-200,000	-0,008	-0,052
-709,904	800,000	-0,029	-0,071
-708,889	-74,239	-0,171	-0,045
-707,875	800,000	-0,030	-0,084
-706,860	-200,000	0,003	0,015
-705,845	-181,749	-0,034	0,000
-704,831	118,577	-0,087	-0,079
-703,816	74,132	-0,182	-0,141
-702,802	-200,000	0,010	0,035
-701,787	67,213	-0,123	-0,092
-700,772	443,386	-0,057	-0,092
-699,758	-59,318	-0,036	-0,011
-698,743	196,041	0,112	-0,125
-697,729	-200,000	-0,012	-0,133
-696,714	-200,000	-0,019	-0,115
-695,699	-71,139	-0,171	-0,047
-694,685	-200,000	0,018	-0,080
-693,670	243,357	-0,008	-0,010
-692,656	-80,964	0,049	0,012
-691,641	-165,303	0,076	0,002
-690,627	800,000	-0,047	0,115
-689,612	95,527	0,070	0,059
-688,597	-173,121	0,083	-0,002
-687,583	-200,000	0,036	-0,152
-686,568	-50,967	0,066	-0,023
-685,554	64,740	-0,065	-0,049
-684,539	679,114	-0,063	-0,120
-683,524	273,699	-0,025	-0,032
-682,510	30,169	-0,069	0,044
-681,495	-200,000	0,002	0,064
-680,481	-26,609	0,036	0,015
-679,466	211,510	-0,032	-0,037
-678,451	199,276	-0,052	-0,058
-677,437	130,391	0,050	-0,047
-676,422	161,613	0,121	0,124
-675,408	-200,000	0,004	0,053
-674,393	215,692	0,049	-0,058
-673,378	-111,269	-0,181	-0,027
-672,364	-200,000	-0,016	-0,077
-671,349	39,643	-0,051	-0,034
-670,335	-200,000	0,014	0,076
-669,320	-113,754	-0,067	-0,009
-668,305	28,092	-0,023	-0,014
-667,291	173,948	-0,088	0,093
-666,276	113,516	-0,039	0,034
-665,262	800,000	-0,011	0,024
-664,247	34,087	-0,060	-0,038
-663,232	-27,083	-0,059	0,025
-662,218	162,836	0,061	-0,063
-661,203	-30,488	-0,061	0,025
-660,189	-44,608	-0,007	0,003
-659,174	-126,308	-0,099	-0,011
-658,159	-200,000	0,010	-0,076
-657,145	346,989	-0,114	-0,165
-656,130	-60,446	0,081	-0,025
-655,116	155,281	-0,054	0,054
-654,101	800,000	0,054	0,155
-653,086	-96,734	0,088	0,017
-652,072	-171,098	-0,213	0,005
-651,057	-200,000	-0,015	-0,049
-650,043	18,285	-0,096	-0,056
-649,028	-33,260	0,117	0,047
-648,014	-200,000	-0,020	0,104
-646,999	800,000	0,069	0,178
-645,984	465,981	0,017	0,029
-644,970	-145,363	-0,069	0,004
-643,955	247,375	-0,079	-0,098
-642,941	800,000	-0,043	-0,114
-641,926	-48,823	-0,035	0,012
-640,911	800,000	0,040	-0,105
-639,897	-7,534	0,038	-0,019
-638,882	353,004	0,015	0,021
-637,868	-11,060	-0,175	-0,085
-636,853	121,548	0,044	-0,041
-635,838	136,657	-0,059	-0,056
-634,824	291,856	0,030	0,040
-633,809	-91,731	0,039	-0,008
-632,795	396,599	0,074	0,114
-631,780	-64,648	0,068	0,020
-630,765	40,285	-0,049	-0,032
-629,751	800,000	-0,035	0,075
-628,736	189,333	-0,101	-0,112
-627,722	277,903	-0,059	-0,077
-626,707	-37,000	0,032	-0,012
-625,692	-200,000	0,013	0,149
-624,678	-200,000	-0,008	0,157
-623,663	19,210	-0,045	-0,027
-622,649	-77,072	-0,168	0,043
-621,634	800,000	0,026	-0,061
-620,619	-49,308	-0,046	-0,016
-619,605	-86,076	-0,069	-0,015
-618,590	115,471	0,037	-0,034
-617,576	-200,000	0,035	0,113
-616,561	118,599	0,065	0,059
-615,546	-200,000	-0,031	-0,106
-614,532	152,342	-0,058	-0,058
-613,517	-200,000	0,016	0,071
-612,503	45,900	0,068	0,046
-611,488	158,229	0,062	0,064
-610,474	-92,108	-0,041	-0,008
-609,459	-200,000	0,008	-0,145
-608,444	-29,179	-0,028	-0,012
-607,430	-200,000	0,011	0,055
-606,415	-34,637	-0,220	0,088
-605,401	-200,000	0,006	0,073
-604,386	-200,000	0,001	-0,023
-603,371	800,000	0,041	0,105
-602,357	800,000	-0,008	0,024
-601,342	-50,568	0,047	-0,016
-600,328	-200,000	-0,074	-0,247
-599,313	-16,359	-0,039	0,018
-598,298	92,709	-0,017	-0,014
-597,284	161,891	0,100	-0,103
-596,269	-169,978	-0,137	-0,004
-595,255	249,025	-0,066	0,082
-594,240	-200,000	0,013	0,045
-593,225	-117,126	-0,084	-0,011
-592,211	-200,000	0,028	-0,198
-591,196	800,000	-0,046	0,116
-590,182	200,946	0,091	-0,103
-589,167	-6,718	-0,111	-0,055
-588,152	-35,285	-0,034	0,014
-587,138	376,718	-0,048	-0,072
-586,123	88,145	-0,105	-0,085
-585,109	195,074	-0,037	-0,041
-584,094	-8,704	-0,079	0,038
-583,079	800,000	0,027	0,066
-582,065	-178,994	0,038	-0,001
-581,050	-46,486	-0,069	0,025
-580,036	209,036	0,039	-0,045
-579,021	352,984	-0,051	-0,074
-578,006	800,000	-0,022	-0,046
-576,992	-200,000	-0,011	-0,092
-575,977	335,211	0,070	0,099
-574,963	97,477	0,088	0,074
-573,948	-200,000	-0,005	-0,035
-572,934	-87,913	-0,072	-0,016
-571,919	-200,000	-0,036	0,141
-570,904	-200,000	0,000	0,001
-569,890	-117,915	0,050	0,007
-568,875	800,000	0,050	-0,112
-567,861	-200,000	-0,004	0,053
-566,846	800,000	0,014	0,031
-565,831	-200,000	-0,025	-0,139
-564,817	43,383	0,061	0,041
-563,802	30,423	-0,105	0,066
-562,788	-200,000	-0,041	-0,150
-561,773	-105,886	0,168	0,027
-560,758	-200,000	0,016	0,080
-559,744	-54,565	0,093	0,030
-558,729	174,648	0,066	0,070
-557,715	-52,446	-0,179	-0,060
-556,700	800,000	0,008	-0,018
-555,685	343,934	0,075	-0,108
-554,671	-200,000	-0,021	0,131
-553,656	298,980	0,075	0,102
-552,642	264,022	0,037	0,047
-551,627	51,355	0,050	-0,035
-550,612	15,575	-0,026	-0,015
-549,598	116,668	-0,048	0,043
-548,583	-99,668	0,069	0,013
-547,569	-89,611	-0,081	0,017
-546,554	78,022	-0,052	0,040
-545,539	128,477	0,054	-0,050
-544,525	-200,000	0,098	0,000
-543,510	-114,050	0,084	0,012
-542,496	-200,000	-0,016	0,057
-541,481	-165,290	0,128	0,004
-540,466	-2,106	-0,124	0,063
-539,452	405,193	-0,023	0,036
-538,437	70,570	0,091	0,069
-537,423	800,000	0,025	-0,062
-536,408	-200,000	0,020	0,167
-535,393	-1,492	0,042	-0,021
-534,379	46,851	-0,168	-0,114
-533,364	800,000	-0,007	0,018
-532,350	-200,000	-0,035	0,135
-531,335	-200,000	0,005	0,089
-530,321	37,465	0,079	-0,051
-529,306	213,390	0,040	-0,046
-528,291	-80,046	-0,063	-0,015
-527,277	-200,000	-0,015	-0,068
-526,262	800,000	0,037	-0,112
-525,248	-200,000	0,006	0,088
-524,233	-200,000	0,010	0,044
-523,218	-103,375	-0,077	0,013
-522,204	73,956	0,053	-0,040
-521,189	-105,462	0,126	-0,021
-520,175	-134,040	-0,185	-0,017
-519,160	93,941	-0,125	-0,104
-518,145	-200,000	-0,010	-0,122
-517,131	-28,039	0,208	0,088
-516,116	-112,979	-0,100	-0,014
-515,102	800,000	0,055	0,116
-514,087	423,042	-0,049	-0,077
-513,072	-41,071	-0,041	-0,016
-512,058	-200,000	-0,007	0,030
-511,043	3,033	-0,092	-0,049
-510,029	-137,362	-0,073	0,006
-509,014	451,380	0,065	0,105
-507,999	494,128	0,054	0,091
-506,985	-86,563	-0,098	-0,022
-505,970	47,893	-0,080	0,054
-504,956	-200,000	-0,022	-0,106
-503,941	-69,538	0,024	0,007
-502,926	352,596	0,031	-0,044
-501,912	-200,000	-0,018	0,105
-500,897	250,085	0,026	0,032
-499,883	93,623	-0,068	-0,056
-498,868	16,474	0,034	-0,020
-497,853	-86,422	0,074	0,017
-496,839	-129,926	-0,042	0,004
-495,824	-200,000	-0,010	0,040
-494,810	-200,000	-0,006	0,148
-493,795	92,057	-0,118	0,097
-492,781	-83,772	-0,058	0,013
-491,766	-140,478	-0,022	-0,002
-490,751	201,980	-0,044	0,050
-489,737	-200,000	0,036	-0,145
-488,722	200,336	-0,026	0,029
-487,708	-200,000	-0,015	0,125
-486,693	117,145	0,126	0,113
-485,678	-51,946	-0,130	-0,044
-484,664	-61,251	-0,043	0,013
-483,649	-200,000	-0,151	0,000
-482,635	174,154	0,063	-0,066
-481,620	-200,000	0,040	0,166
-480,605	475,175	0,101	0,167
-479,591	-200,000	0,033	0,193
-478,576	-1,687	-0,100	-0,051
-477,562	356,495	-0,038	-0,055
-476,547	-200,000	0,026	-0,090
-475,532	-200,000	0,000	0,052
-474,518	-53,895	0,085	-0,028
-473,503	119,574	0,088	0,079
-472,489	165,196	0,059	-0,061
-471,474	-200,000	0,011	0,111
-470,459	-38,255	-0,167	0,064
-469,445	131,776	-0,048	-0,045
-468,430	800,000	-0,018	0,047
-467,416	592,039	0,043	-0,079
-466,401	20,555	-0,082	0,048
-465,386	-200,000	-0,016	-0,131
-464,372	-200,000	-0,022	-0,157
-463,357	-69,341	-0,116	-0,032
-462,343	18,381	-0,043	0,025
-461,328	248,041	0,061	0,075
-460,313	800,000	0,063	-0,136
-459,299	10,198	0,062	0,034
-458,284	-79,763	-0,051	0,012
-457,270	800,000	0,037	0,085
-456,255	-119,042	-0,051	-0,006
-455,241	-80,788	0,062	0,015
-454,226	800,000	0,027	0,065
-453,211	-117,567	0,089	0,012
-452,197	111,667	0,101	0,089
-451,182	390,065	-0,086	-0,131
-450,168	-200,000	-0,028	-0,136
-449,153	142,704	0,026	0,025
-448,138	154,022	-0,074	-0,074
-447,124	-200,000	-0,006	0,083
-446,109	-141,719	-0,023	-0,002
-445,095	280,491	0,096	-0,126
-444,080	-43,315	0,179	0,066
-443,065	-200,000	-0,024	-0,102
-442,051	-119,775	0,038	0,005
-441,036	-200,000	-0,003	-0,026
-440,022	-200,000	-0,009	0,127
-439,007	-28,253	-0,114	0,048
-437,992	-92,871	-0,054	0,011
-436,978	-79,809	-0,114	-0,028
-435,963	-200,000	0,001	0,108
-434,949	-200,000	0,004	-0,043
-433,934	-47,939	-0,075	0,026
-432,919	-200,000	0,005	-0,049
-431,905	-200,000	-0,001	-0,159
-430,890	54,261	0,097	-0,068
-429,876	800,000	-0,042	0,106
-428,861	-106,895	0,094	-0,015
-427,846	62,308	0,107	-0,077
-426,832	800,000	-0,042	-0,090
-425,817	251,070	-0,041	-0,051
-424,803	-200,000	0,028	-0,119
-423,788	-200,000	0,011	-0,039
-422,773	-11,066	-0,054	-0,026
-421,759	-105,840	-0,054	-0,009
-420,744	-200,000	-0,012	0,114
-419,730	800,000	0,024	-0,059
-418,715	34,769	-0,140	-0,089
-417,701	506,944	-0,039	0,066
-416,686	-16,143	-0,104	0,048
-415,671	-4,587	0,138	0,069
-414,657	111,805	0,074	0,065
-413,642	800,000	-0,016	0,043
-412,628	237,451	-0,050	-0,060
-411,613	43,153	0,158	-0,105
-410,598	666,401	-0,035	-0,066
-409,584	-200,000	0,002	0,140
-408,569	-124,259	0,087	-0,010
-407,555	-102,227	-0,197	-0,034
-406,540	137,868	0,048	0,046
-405,525	78,081	0,025	0,019
-404,511	-140,675	0,102	0,008
-403,496	800,000	-0,041	0,112
-402,482	-72,972	-0,116	-0,031
-401,467	534,973	0,054	0,094
-400,452	800,000	0,032	0,067
-399,438	-200,000	0,004	-0,148
-398,423	359,637	-0,019	0,028
-397,409	-200,000	-0,021	-0,097
-396,394	-96,770	0,097	-0,018
-395,379	800,000	0,067	0,139
-394,365	633,955	-0,056	-0,104
-393,350	97,653	-0,013	0,011
-392,336	-200,000	-0,017	0,077
-391,321	181,843	-0,117	-0,126
-390,306	-125,762	0,050	0,005
-389,292	112,111	-0,041	0,036
-388,277	800,000	-0,025	0,056
-387,263	-129,882	0,110	0,011
-386,248	-200,000	0,017	-0,090
-385,233	112,650	-0,077	-0,067
-384,219	-11,156	0,126	0,060
-383,204	-200,000	0,013	0,046
-382,190	800,000	-0,060	-0,128
-381,175	387,376	-0,063	-0,096
-380,160	208,137	0,131	0,149
-379,146	-191,486	-0,188	0,001
-378,131	-200,000	0,002	0,027
-377,117	800,000	-0,005	-0,012
-376,102	-200,000	0,022	-0,079
-375,088	225,739	-0,109	0,128
-374,073	-137,253	0,109	-0,009
-373,058	597,844	0,070	-0,126
-372,044	600,914	0,135	0,245
-371,029	10,544	-0,089	-0,049
-370,015	-4,511	0,085	0,042
-369,000	-200,000	0,007	-0,044
-367,985	-63,353	-0,125	-0,037
-366,971	91,796	0,027	0,022
-365,956	-200,000	-0,008	-0,037
-364,942	-44,596	0,038	-0,014
-363,927	148,450	-0,073	0,071
-362,912	-75,884	-0,096	0,025
-361,898	-59,995	-0,136	-0,042
-360,883	800,000	-0,036	0,074
-359,869	-123,475	0,033	-0,004
-358,854	587,732	-0,059	0,106
-357,839	294,948	0,049	0,065
-356,825	407,001	0,043	0,067
-355,810	-143,820	-0,093	0,006
-354,796	-200,000	0,010	0,054
-353,781	53,253	0,183	-0,127
-352,766	143,541	0,076	-0,073
-351,752	-105,098	-0,035	-0,006
-350,737	800,000	0,047	-0,108
-349,723	-200,000	-0,023	-0,099
-348,708	-117,883	-0,046	0,006
-347,693	-200,000	0,040	-0,145
-346,679	51,923	-0,165	-0,114
-345,664	-43,395	0,089	-0,033
-344,650	263,450	0,102	0,129
-343,635	-141,966	0,165	-0,012
-342,620	-84,878	0,130	-0,029
-341,606	450,086	0,030	-0,048
-340,591	-79,199	0,161	-0,039
-339,577	172,845	-0,099	-0,104
-338,562	800,000	0,023	-0,054
-337,548	-105,575	-0,079	0,013
-336,533	-47,422	0,032	0,011
-335,518	178,976	-0,008	0,008
-334,504	29,648	-0,077	0,047
-333,489	-88,304	0,136	-0,029
-332,475	-158,593	0,143	0,006
-331,460	32,391	-0,121	-0,076
-330,445	270,168	0,101	0,129
-329,431	800,000	0,028	0,082
-328,416	447,776	-0,075	-0,119
-327,402	196,708	0,143	0,158
-326,387	-148,583	0,073	-0,004
-325,372	-200,000	-0,002	0,094
-324,358	127,767	-0,056	0,051
-323,343	71,088	0,036	-0,027
-322,329	423,587	0,007	-0,012
-321,314	-200,000	0,028	0,149
-320,299	-47,281	0,037	-0,013
-319,285	26,713	0,056	0,034
-318,270	-163,085	-0,058	0,002
-317,256	-110,159	0,064	-0,010
-316,241	800,000	0,050	-0,145
-315,226	-200,000	-0,036	0,159
-314,212	800,000	0,047	0,105
-313,197	419,120	0,036	-0,056
-312,183	315,752	0,056	0,077
-311,168	800,000	-0,032	-0,097
-310,153	-56,149	-0,093	-0,030
-309,139	272,355	0,019	-0,024
-308,124	-9,161	0,094	0,045
-307,110	-118,574	0,020	0,002
-306,095	-200,000	-0,009	-0,032
-305,080	800,000	-0,071	-0,151
-304,066	441,358	0,030	0,049
-303,051	800,000	0,019	0,057
-302,037	-200,000	-0,007	0,104
-301,022	259,586	0,065	-0,081
-300,008	-200,000	0,002	0,022
-298,993	-200,000	-0,002	0,087
-297,978	-91,074	-0,099	0,020
-296,964	800,000	0,015	-0,033
-295,949	-153,311	-0,075	0,004
-294,935	112,874	-0,090	-0,079
-293,920	-143,489	0,149	-0,010
-292,905	-21,482	0,166	-0,073
-291,891	-200,000	-0,016	0,093
-290,876	800,000	0,055	0,118
-289,862	-200,000	0,003	0,143
-288,847	-200,000	-0,002	-0,051
-287,832	800,000	-0,039	-0,087
-286,818	800,000	0,004	0,012
-285,803	319,534	-0,029	-0,040
-284,789	-200,000	-0,003	0,206
-283,774	-90,807	0,058	0,012
-282,759	481,447	-0,015	-0,025
-281,745	10,384	0,026	-0,014
-280,730	-54,149	-0,131	-0,043
-279,716	800,000	-0,021	-0,055
-278,701	790,984	0,033	0,066
-277,686	82,929	0,019	0,015
-276,672	182,292	0,123	0,131
-275,657	800,000	-0,051	0,118
-274,643	-76,547	0,053	-0,013
-273,628	-200,000	-0,043	-0,149
-272,613	-200,000	0,012	-0,064
-271,599	340,849	-0,028	-0,039
-270,584	-124,669	0,093	0,010
-269,570	50,603	0,076	0,052
-268,555	18,463	0,073	-0,042
-267,540	-107,181	0,075	-0,012
-266,526	-200,000	0,022	0,080
-265,511	-48,250	0,056	-0,019
-264,497	-200,000	0,002	0,076
-263,482	-80,642	0,017	-0,004
-262,467	-5,975	0,091	0,045
-261,453	468,721	-0,016	0,026
-260,438	156,942	0,071	-0,071
-259,424	-200,000	-0,026	-0,151
-258,409	-136,516	0,142	0,012
-257,395	0,087	-0,020	0,010
-256,380	-80,723	0,136	0,032
-255,365	-142,048	-0,104	0,007
-254,351	8,546	0,101	-0,055
-253,336	70,044	-0,088	-0,066
-252,322	-200,000	0,009	0,052
-251,307	744,517	0,080	-0,157
-250,292	-82,300	0,151	0,035
-249,278	-200,000	0,002	-0,079
-248,263	-164,847	-0,095	0,003
-247,249	-53,174	0,047	0,016
-246,234	-32,034	-0,049	-0,020
-245,219	256,029	-0,043	-0,053
-244,205	-64,323	0,090	0,026
-243,190	-200,000	0,017	0,179
-242,176	-104,517	-0,103	-0,017
-241,161	41,270	-0,172	-0,112
-240,146	190,037	0,029	-0,032
-239,132	169,799	0,121	-0,125
-238,117	203,909	0,058	0,066
-237,103	-155,773	-0,084	0,004
-236,088	158,389	-0,076	-0,077
-235,073	-200,000	0,007	-0,042
-234,059	-3,737	-0,106	0,053
-233,044	565,199	0,069	0,122
-232,030	-200,000	0,010	0,111
-231,015	-38,126	-0,091	-0,035
-230,000	-200,000	-0,020	-0,101
-228,986	140,494	0,075	-0,072
-227,971	-38,547	-0,089	0,034
-226,957	-60,832	0,093	0,028
-225,942	104,765	0,022	-0,019
-224,927	-38,513	0,085	-0,032
-223,913	800,000	0,026	-0,077
-222,898	371,011	-0,026	-0,038
-221,884	-136,513	-0,081	0,007
-220,869	18,811	0,050	0,029
-219,855	-200,000	0,017	0,109
-218,840	211,723	0,076	0,087
-217,825	-200,000	0,012	-0,060
-216,811	800,000	-0,032	-0,069
-215,796	229,467	0,054	-0,064
-214,782	473,387	0,059	0,097
-213,767	-58,331	-0,025	0,008
-212,752	-200,000	-0,011	-0,097
-211,738	800,000	0,053	-0,138
-210,723	214,541	0,019	0,021
-209,709	55,704	0,126	-0,088
-208,694	31,322	-0,144	-0,089
-207,679	1,987	0,032	0,017
-206,665	268,993	0,024	-0,031
-205,650	-58,928	-0,086	0,027
-204,636	800,000	-0,018	0,044
-203,621	-155,175	0,082	0,004
-202,606	-146,253	0,065	0,004
-201,592	800,000	-0,023	-0,055
-200,577	-200,000	-0,000	0,118
-199,563	778,381	-0,018	0,035
-198,548	69,258	0,140	0,104
-197,533	634,181	0,041	0,076
-196,519	66,409	-0,121	-0,088
-195,504	-200,000	-0,002	-0,306
-194,490	-26,194	-0,061	0,026
-193,475	103,223	-0,141	0,119
-192,460	-153,624	0,098	0,005
-191,446	-23,316	-0,172	-0,075
-190,431	54,964	0,109	0,076
-189,417	800,000	-0,020	0,048
-188,402	-20,483	-0,042	0,019
-187,387	141,976	0,079	-0,076
-186,373	-22,895	0,055	-0,024
-185,358	629,359	0,024	-0,045
-184,344	219,055	0,029	0,034
-183,329	362,799	0,030	0,044
-182,315	258,803	-0,054	0,068
-181,300	-42,582	-0,114	-0,042
-180,285	-89,559	-0,105	-0,022
-179,271	70,994	-0,118	-0,088
-178,256	404,194	-0,035	-0,054
-177,242	58,411	0,047	0,033
-176,227	-200,000	-0,024	0,150
-175,212	733,416	-0,044	-0,085
-174,198	800,000	-0,008	0,026
-173,183	800,000	-0,032	-0,074
-172,169	-31,292	-0,037	-0,015
-171,154	-91,583	-0,117	0,024
-170,139	-200,000	0,001	0,106
-169,125	117,013	-0,071	-0,063
-168,110	195,700	0,080	-0,088
-167,096	55,800	-0,093	-0,065
-166,081	2,996	-0,089	0,046
-165,066	-200,000	0,001	-0,113
-164,052	-200,000	0,003	-0,115
-163,037	83,616	-0,054	0,042
-162,023	94,800	-0,088	-0,072
-161,008	-200,000	-0,003	-0,016
-159,993	-200,000	-0,003	-0,059
-158,979	-154,598	0,094	0,004
-157,964	236,374	-0,054	-0,065
-156,950	-56,469	0,087	-0,028
-155,935	800,000	-0,045	0,122
-154,920	800,000	-0,034	0,095
-153,906	-49,281	0,096	-0,033
-152,891	369,977	-0,049	0,072
-151,877	124,062	-0,084	-0,076
-150,862	-200,000	-0,021	-0,083
-149,847	-137,277	0,058	-0,005
-148,833	-200,000	0,027	-0,157
-147,818	141,189	0,076	-0,072
-146,804	-200,000	-0,004	-0,092
-145,789	-200,000	0,005	0,192
-144,775	-196,897	0,118	-0,001
-143,760	800,000	0,009	0,022
-142,745	-62,300	-0,092	0,027
-141,731	-200,000	0,021	0,100
-140,716	83,627	-0,064	0,051
-139,702	472,376	-0,037	-0,060
-138,687	800,000	-0,048	-0,138
-137,672	-131,650	-0,137	-0,013
-136,658	-38,270	0,099	-0,038
-135,643	800,000	-0,007	0,016
-134,629	-200,000	-0,008	-0,032
-133,614	-200,000	-0,005	-0,023
-132,599	264,691	0,052	0,065
-131,585	-1,540	-0,086	0,043
-130,570	-182,668	0,076	0,001
-129,556	-200,000	0,009	-0,058
-128,541	338,998	0,084	-0,118
-127,526	21,142	0,065	-0,038
-126,512	-37,629	0,038	-0,014
-125,497	452,089	0,064	0,101
-124,483	-145,023	-0,067	0,004
-123,468	185,129	0,032	-0,034
-122,453	209,808	-0,005	-0,006
-121,439	-65,144	-0,056	-0,016
-120,424	800,000	-0,035	0,101
-119,410	-71,753	0,089	-0,024
-118,395	11,114	-0,087	0,048
-117,380	-200,000	-0,010	-0,119
-116,366	249,900	-0,018	-0,022
-115,351	8,176	-0,118	0,063
-114,337	75,678	-0,139	0,106
-113,322	-200,000	-0,010	-0,094
-112,307	-49,846	0,077	0,026
-111,293	-200,000	0,006	-0,044
-110,278	-115,354	0,085	0,011
-109,264	-200,000	-0,002	0,042
-108,249	-200,000	-0,001	0,069
-107,234	249,017	0,033	0,040
-106,220	-200,000	0,013	-0,106
-105,205	205,832	0,015	-0,017
-104,191	-56,357	0,115	-0,036
-103,176	14,630	-0,058	0,033
-102,162	-200,000	0,008	0,149
-101,147	61,896	0,027	-0,020
-100,132	800,000	-0,061	-0,176
-99,118	240,655	0,054	-0,065
-98,103	-200,000	-0,003	-0,139
-97,089	83,494	-0,029	0,023
-96,074	-49,033	0,075	0,026
-95,059	-183,508	0,030	0,000
-94,045	116,638	-0,100	-0,088
-93,030	-118,241	-0,077	-0,010
-92,016	-88,524	-0,128	0,027
-91,001	103,173	0,072	-0,061
-89,986	-126,924	-0,096	0,010
-88,972	800,000	0,047	0,124
-87,957	-109,894	0,083	0,012
-86,943	-100,902	-0,041	0,007
-85,928	41,309	-0,121	-0,079
-84,913	-45,224	-0,143	-0,051
-83,899	-125,458	0,033	-0,004
-82,884	-49,870	0,122	0,041
-81,870	429,074	-0,032	-0,050
-80,855	42,685	0,152	-0,100
-79,840	-86,320	-0,160	0,035
-78,826	239,565	0,142	-0,171
-77,811	96,276	-0,117	-0,096
-76,797	-133,515	0,149	0,013
-75,782	-200,000	0,003	0,093
-74,767	800,000	-0,050	0,100
-73,753	46,472	-0,137	-0,091
-72,738	-200,000	-0,004	-0,056
-71,724	800,000	0,045	-0,112
-70,709	374,473	0,108	-0,158
-69,694	65,257	-0,060	-0,044
-68,680	189,330	-0,072	0,078
-67,665	250,435	0,074	0,090
-66,651	-162,620	0,102	-0,004
-65,636	477,336	0,092	-0,150
-64,622	40,983	0,115	0,074
-63,607	427,505	-0,072	0,112
-62,592	23,183	-0,065	0,038
-61,578	-200,000	0,001	0,018
-60,563	-200,000	-0,022	0,175
-59,549	724,837	0,100	0,191
-58,534	20,541	-2,044	-1,184
-57,519	-200,000	-0,183	-0,865
-56,505	-200,000	-1,358	-5,004
-55,490	117,949	0,647	0,572
-54,476	800,000	5,249	11,901
-53,461	-200,000	17,690	289,922
-52,446	800,000	726,759	2229,796
-51,432	536,484	1639,745	2804,237
-50,417	109,599	1629,484	1400,951
-49,403	73,239	1283,307	962,122
-48,388	31,528	1025,990	631,455
-47,373	19,875	988,270	569,850
-46,359	18,262	976,201	557,586
-45,344	15,598	972,220	546,582
-44,330	15,805	970,695	546,380
-43,315	15,305	968,996	543,772
-42,300	15,300	967,891	543,113
-41,286	15,208	966,941	542,260
-40,271	15,170	966,075	541,628
-39,257	15,223	965,195	541,287
-38,242	15,270	964,159	540,835
-37,227	15,274	963,316	540,353
-36,213	15,227	962,588	539,772
-35,198	15,215	961,749	539,240
-34,184	15,334	960,770	539,056
-33,169	15,281	959,871	538,359
-32,154	15,228	959,193	537,785
-31,140	15,241	958,293	537,302
-30,125	15,298	957,377	536,952
-29,111	15,269	956,501	536,343
-28,096	15,276	956,004	536,066
-27,082	15,281	955,332	535,687
-26,067	15,226	954,718	535,144
-25,052	15,244	953,723	534,622
-24,038	15,280	953,150	534,394
-23,023	15,257	952,364	533,859
-22,009	15,239	951,739	533,429
-20,994	15,294	951,302	533,342
-19,979	15,300	950,594	532,942
-18,965	15,244	949,999	532,406
-17,950	15,288	949,363	532,172
-16,936	15,201	948,617	531,453
-15,921	15,202	948,089	531,140
-14,906	15,176	947,372	530,634
-13,892	15,143	946,790	530,182
-12,877	15,137	945,908	529,650
-11,863	15,124	945,368	529,283
-10,848	15,114	944,855	528,942
-9,833	15,213	944,490	529,033
-8,819	15,195	943,935	528,643
-7,804	15,195	943,109	528,161
-6,790	15,147	942,559	527,680
-5,775	15,168	942,014	527,421
-4,760	15,174	941,391	527,068
-3,746	15,130	940,821	526,589
-2,731	15,006	940,121	525,785
-1,717	14,942	939,463	525,194
-0,702	14,979	938,785	524,910
0,313	14,830	938,062	524,828
1,327	18,190	936,160	534,292
2,342	27,431	789,730	475,058
3,356	23,957	444,563	262,258
4,371	-5,621	295,473	144,744
5,386	-9,567	277,099	131,992
6,400	-10,826	271,306	128,052
7,415	-11,102	269,066	126,729
8,429	-11,039	267,678	126,121
9,444	-11,213	266,759	125,519
10,459	-10,989	266,191	125,445
11,473	-11,216	265,472	124,888
12,488	-11,175	265,003	124,693
13,502	-11,521	264,461	124,114
14,517	-11,228	264,005	124,154
15,531	-11,209	263,592	123,966
16,546	-11,171	263,351	123,875
17,561	-11,077	262,935	123,753
18,575	-11,286	262,640	123,416
19,590	-11,080	262,101	123,336
20,604	-11,158	262,032	123,222
21,619	-11,367	261,553	122,799
22,634	-11,132	261,193	122,829
23,648	-11,295	260,997	122,581
24,663	-11,370	260,820	122,420
25,677	-11,271	260,553	122,371
26,692	-11,298	260,254	122,197
27,707	-11,343	259,857	121,959
28,721	-11,296	259,670	121,902
29,736	-11,471	259,404	121,611
30,750	-11,514	259,145	121,441
31,765	-11,342	258,805	121,423
32,780	-11,327	258,611	121,334
33,794	-11,268	258,358	121,257
34,809	-11,415	258,052	120,973
35,823	-11,391	257,775	120,853
36,838	-11,260	257,602	120,877
37,853	-11,248	257,308	120,739
38,867	-11,237	257,058	120,620
39,882	-11,469	256,955	120,357
40,896	-11,245	256,725	120,436
41,911	-11,441	256,480	120,138
42,926	-11,398	256,192	120,030
43,940	-11,449	256,155	119,958
44,955	-11,579	255,790	119,662
45,969	-11,557	255,487	119,530
46,984	-11,819	255,432	119,265
47,999	-11,917	255,018	118,975
49,013	-11,914	254,650	118,796
50,028	-12,089	254,548	118,585
51,042	-12,199	254,308	118,368
52,057	-12,239	253,974	118,167
53,071	-12,330	253,740	117,968
54,086	-12,276	253,801	118,034
55,101	-11,992	253,447	118,103
56,115	-11,806	253,514	118,284
57,130	-11,453	253,339	118,498
58,144	-10,876	253,186	118,914
59,159	-11,182	252,890	118,500
60,174	-11,045	252,601	118,472
61,188	-11,150	252,476	118,313
62,203	-11,436	252,189	117,922
63,217	-11,369	252,194	117,971
64,232	-11,328	251,992	117,901
65,247	-11,326	251,681	117,747
66,261	-11,092	251,292	117,755
67,276	-11,463	251,051	117,314
68,290	-11,569	250,819	117,105
69,305	-11,761	250,634	116,844
70,320	-11,622	250,441	116,862
71,334	-11,283	250,306	117,078
72,349	-11,038	250,152	117,204
73,363	-11,407	250,200	116,902
74,378	-11,093	249,734	116,941
75,393	-11,226	249,710	116,806
76,407	-11,201	249,211	116,583
77,422	-11,288	249,032	116,415
78,436	-11,449	249,021	116,263
79,451	-11,388	248,696	116,153
80,466	-11,463	248,478	115,977
81,480	-11,619	248,232	115,721
82,495	-11,667	248,073	115,595
83,509	-11,471	247,902	115,671
84,524	-11,599	247,640	115,430
85,539	-11,816	247,436	115,142
86,553	-11,637	247,131	115,141
87,568	-11,613	247,002	115,090
88,582	-11,599	246,946	115,065
89,597	-11,491	246,693	115,028
90,611	-11,522	246,574	114,937
91,626	-11,310	246,422	115,034
92,641	-11,320	246,245	114,932
93,655	-11,391	245,935	114,718
94,670	-11,532	245,842	114,547
95,684	-11,562	245,665	114,428
96,699	-11,478	245,430	114,378
97,714	-11,502	245,229	114,254
98,728	-11,649	244,964	113,999
99,743	-11,895	244,766	113,692
100,757	-11,835	244,557	113,635
101,772	-11,794	244,459	113,613
102,787	-11,541	244,050	113,623
103,801	-11,525	244,140	113,667
104,816	-11,550	243,790	113,474
105,830	-11,549	243,885	113,508
106,845	-11,290	243,682	113,618
107,860	-11,272	243,443	113,511
108,874	-11,440	243,193	113,246
109,889	-11,661	242,899	112,917
110,903	-11,494	242,851	113,022
111,918	-11,396	242,513	112,935
112,933	-11,707	242,511	112,668
113,947	-11,531	242,209	112,663
114,962	-11,408	242,226	112,762
115,976	-11,491	242,029	112,592
116,991	-11,332	241,667	112,544
118,006	-11,352	241,678	112,523
119,020	-11,208	241,375	112,489
120,035	-11,285	241,351	112,405
121,049	-11,262	241,239	112,361
122,064	-11,358	240,964	112,145
123,079	-11,334	240,744	112,052
124,093	-11,547	240,515	111,762
125,108	-11,780	240,238	111,434
126,122	-11,843	239,943	111,235
127,137	-11,938	239,878	111,118
128,151	-11,869	239,837	111,146
129,166	-11,786	239,679	111,130
130,181	-11,947	239,543	110,926
131,195	-11,942	239,149	110,738
132,210	-11,562	239,067	110,998
133,224	-11,548	238,836	110,892
134,239	-11,404	238,696	110,933
135,254	-11,489	238,610	110,815
136,268	-11,428	238,314	110,717
137,283	-11,862	238,055	110,237
138,297	-11,971	237,809	110,025
139,312	-11,756	237,647	110,113
140,327	-11,586	237,592	110,215
141,341	-11,200	237,642	110,538
142,356	-11,087	237,454	110,532
143,370	-11,016	237,395	110,552
144,385	-10,993	237,120	110,433
145,400	-10,885	236,870	110,393
146,414	-11,056	236,734	110,182
147,429	-11,107	236,546	110,045
148,443	-11,156	236,446	109,949
149,458	-11,155	236,272	109,859
150,473	-10,852	235,786	109,865
151,487	-10,906	235,649	109,749
152,502	-11,084	235,781	109,658
153,516	-11,095	235,611	109,560
154,531	-10,945	235,386	109,565
155,546	-10,903	235,233	109,518
156,560	-11,245	234,941	109,101
157,575	-11,511	234,849	108,837
158,589	-11,290	234,570	108,873
159,604	-10,973	234,542	109,101
160,619	-10,895	234,494	109,131
161,633	-10,874	234,285	109,041
162,648	-10,882	234,133	108,954
163,662	-11,142	233,855	108,610
164,677	-11,294	233,802	108,455
165,692	-11,151	233,636	108,481
166,706	-11,001	233,555	108,552
167,721	-10,725	233,320	108,651
168,735	-10,932	233,335	108,485
169,750	-11,161	233,159	108,214
170,764	-11,117	232,823	108,082
171,779	-11,104	232,721	108,036
172,794	-11,020	232,553	108,014
173,808	-11,189	232,373	107,788
174,823	-11,503	231,970	107,347
175,837	-11,629	231,841	107,178
176,852	-11,363	231,883	107,396
177,867	-11,142	231,703	107,476
178,881	-11,072	231,546	107,448
179,896	-10,974	231,449	107,470
180,910	-11,014	231,334	107,376
181,925	-10,913	231,099	107,336
182,940	-11,173	231,084	107,117
183,954	-10,800	230,881	107,304
184,969	-10,712	230,604	107,234
185,983	-10,758	230,570	107,173
186,998	-10,935	230,491	106,988
188,013	-10,871	230,228	106,907
189,027	-10,812	230,100	106,883
190,042	-10,681	229,879	106,873
191,056	-10,914	229,731	106,614
192,071	-11,007	229,635	106,488
193,086	-10,977	229,408	106,397
194,100	-10,762	229,195	106,454
195,115	-11,138	228,824	105,982
196,129	-10,877	229,060	106,284
197,144	-5,436	230,918	111,362
198,159	0,225	232,580	116,569
199,173	3,111	232,939	118,986
200,188	3,308	232,947	119,133
201,202	3,195	233,119	119,123
202,217	3,669	232,826	119,330
203,232	3,922	232,763	119,484
204,246	3,873	232,717	119,412
205,261	3,948	232,534	119,366
206,275	3,991	232,389	119,314
207,290	4,200	232,283	119,411
208,304	4,006	232,251	119,234
209,319	3,903	231,987	119,008
210,334	3,998	231,709	118,928
211,348	3,695	231,503	118,577
212,363	3,144	231,299	118,037
213,377	3,217	231,042	117,952
214,392	3,264	230,955	117,933
215,407	3,225	230,845	117,836
216,421	3,491	230,688	117,950
217,436	3,346	230,348	117,654
218,450	2,776	230,287	117,176
219,465	2,962	229,914	117,118
220,480	3,203	230,021	117,347
221,494	3,260	229,787	117,260
222,509	3,203	229,799	117,212
223,523	3,285	229,683	117,205
224,538	3,067	229,401	116,884
225,553	3,318	229,282	117,005
226,567	3,095	229,263	116,815
227,582	3,484	229,135	117,036
228,596	3,748	228,977	117,146
229,611	3,476	228,822	116,849
230,626	2,990	228,513	116,310
231,640	3,120	228,382	116,333
232,655	3,642	228,213	116,633
233,669	3,904	228,281	116,857
234,684	3,812	228,145	116,707
235,699	3,484	227,961	116,353
236,713	3,318	227,751	116,110
237,728	3,250	227,448	115,893
238,742	2,952	227,354	115,610
239,757	3,392	227,084	115,795
240,772	3,190	227,015	115,596
241,786	3,343	226,787	115,585
242,801	3,521	226,755	115,694
243,815	3,653	226,812	115,812
244,830	3,884	226,529	115,831
245,844	3,190	226,380	115,222
246,859	3,469	226,102	115,280
247,874	3,461	225,984	115,203
248,888	3,773	225,974	115,423
249,903	3,467	225,846	115,117
250,917	3,069	225,772	114,770
251,932	3,498	225,423	114,904
252,947	3,099	225,194	114,479
253,961	3,137	225,192	114,496
254,976	3,142	224,979	114,381
255,990	3,359	224,994	114,541
257,005	3,361	224,755	114,410
258,020	3,471	224,662	114,435
259,034	3,714	224,482	114,514
260,049	3,441	224,410	114,264
261,063	3,350	224,252	114,105
262,078	3,517	224,206	114,196
263,093	3,472	223,958	114,026
264,107	3,467	223,838	113,951
265,122	3,544	223,654	113,904
266,136	3,868	223,663	114,139
267,151	3,669	223,395	113,845
268,166	3,234	223,126	113,375
269,180	2,961	223,000	113,099
270,195	3,259	222,774	113,195
271,209	3,042	222,572	112,922
272,224	3,267	222,584	113,084
273,239	3,457	222,472	113,157
274,253	3,339	222,152	112,898
275,268	3,055	222,024	112,613
276,282	3,025	221,875	112,506
277,297	3,222	221,539	112,470
278,312	3,183	221,666	112,496
279,326	3,360	221,518	112,540
280,341	3,276	221,449	112,434
281,355	3,294	221,411	112,418
282,370	3,513	221,038	112,379
283,384	3,188	220,875	112,048
284,399	2,960	220,848	111,857
285,414	3,042	220,685	111,824
286,428	3,398	220,479	111,970
287,443	3,302	220,617	111,961
288,457	3,224	220,315	111,740
289,472	3,139	220,132	111,575
290,487	2,660	219,902	111,100
291,501	2,760	219,642	111,031
292,516	2,747	219,774	111,078
293,530	3,162	219,470	111,217
294,545	3,084	219,317	111,073
295,560	3,119	219,294	111,076
296,574	3,266	219,137	111,094
297,589	3,266	219,038	111,034
298,603	3,367	218,743	110,947
299,618	3,227	218,672	110,800
300,633	3,288	218,694	110,846
301,647	3,197	218,646	110,746
302,662	3,567	218,484	110,921
303,676	3,601	218,182	110,783
304,691	3,387	218,104	110,579
305,706	3,703	217,863	110,674
306,720	3,443	217,833	110,462
307,735	3,309	217,531	110,202
308,749	2,930	217,463	109,885
309,764	3,105	217,556	110,048
310,779	3,648	217,224	110,261
311,793	3,298	217,088	109,931
312,808	3,520	216,928	109,999
313,822	3,352	216,791	109,799
314,837	3,321	216,661	109,701
315,852	3,228	216,474	109,531
316,866	3,195	216,385	109,452
317,881	3,397	216,288	109,538
318,895	3,563	216,147	109,576
319,910	3,034	216,057	109,142
320,925	3,020	215,667	108,925
321,939	2,716	215,642	108,686
322,954	2,829	215,452	108,661
323,968	3,186	215,490	108,925
324,983	3,089	215,429	108,815
325,997	3,482	215,035	108,886
327,012	3,399	215,117	108,859
328,027	3,579	214,920	108,877
329,041	3,554	214,996	108,888
330,056	3,727	214,781	108,892
331,070	3,433	214,461	108,512
332,085	3,044	214,287	108,139
333,100	3,028	214,148	108,048
334,114	3,313	214,060	108,196
335,129	3,280	213,833	108,048
336,143	3,334	213,741	108,030
337,158	3,383	213,484	107,925
338,173	3,175	213,582	107,818
339,187	3,013	213,303	107,554
340,202	2,883	213,203	107,402
341,216	2,854	212,953	107,247
342,231	2,961	212,958	107,314
343,246	3,030	212,750	107,248
344,260	2,952	212,614	107,116
345,275	3,180	212,609	107,264
346,289	3,353	212,494	107,317
347,304	3,134	212,310	107,061
348,319	3,164	212,172	107,003
349,333	3,106	212,176	106,955
350,348	3,191	211,845	106,838
351,362	3,524	211,857	107,067
352,377	3,439	211,595	106,866
353,392	3,378	211,419	106,725
354,406	3,472	211,368	106,755
355,421	196,772	1338,876	1420,475
356,435	157,239	1476,209	1420,447
