DTS Sentinel unit serial number:	SN410029Multiplexer serial number:	ORYXHardware model number:	OX2-SRSoftware version number:	ORYX F/W v4,00 Oryx Data Collector v3.7.2.0data status	okinstallation	B6 Nyhavnadifferential loss correction	single-endedforward channel	channel 2reverse channel	N/Adate	2023/12/07time	22:35:08forward acquisition time	300,00reverse acquisition time	0,00gamma	499,1914k internal	0,3164k external	0,3164temperature offset calibration	1,0000default loss term (dB/km)	0,3820temperature slope calibration	1,0000multiplexer offset coefficient	1,0000multiplexer slope coefficient	1,0000fibre end	0,00T internal ref (°C)	13,56T ext. ref 1 (°C)	-3,35T ext. ref 2 (°C)	-3,32length (m)	temperature (°C)	Stokes	anti-Stokes-744,400	800,000	0,034	0,073
-743,385	-54,225	-0,261	0,087
-742,371	23,765	0,172	-0,104
-741,356	-105,810	-0,329	-0,054
-740,342	211,814	0,059	-0,068
-739,327	-82,727	-0,344	0,081
-738,312	-107,530	0,253	0,040
-737,298	-58,434	-0,335	-0,106
-736,283	264,070	0,075	0,096
-735,269	-168,936	-0,261	0,007
-734,254	218,100	0,019	0,023
-733,239	-62,971	-0,448	-0,135
-732,225	3,167	0,304	0,162
-731,210	49,676	0,066	-0,046
-730,196	443,257	-0,075	-0,121
-729,181	70,439	0,090	-0,069
-728,167	-114,381	0,123	0,017
-727,152	-172,799	-0,039	0,001
-726,137	-200,000	-0,015	-0,101
-725,123	79,544	-0,070	-0,055
-724,108	567,701	-0,077	-0,138
-723,094	-200,000	-0,015	-0,119
-722,079	73,841	-0,113	0,087
-721,064	-200,000	0,003	0,103
-720,050	30,284	0,131	-0,082
-719,035	800,000	-0,003	0,008
-718,021	572,965	-0,057	-0,102
-717,006	-82,391	-0,199	0,047
-715,991	103,889	0,070	-0,060
-714,977	-200,000	0,010	-0,070
-713,962	-200,000	0,012	0,113
-712,948	-200,000	0,009	0,032
-711,933	149,929	-0,113	0,113
-710,918	401,778	0,104	-0,162
-709,904	249,988	-0,045	-0,056
-708,889	110,889	-0,026	-0,023
-707,875	177,370	-0,038	-0,040
-706,860	-74,286	0,025	0,007
-705,845	-136,113	-0,125	-0,011
-704,831	-132,482	0,142	-0,013
-703,816	800,000	-0,042	-0,112
-702,802	95,463	-0,066	0,055
-701,787	-28,665	0,073	-0,031
-700,772	800,000	-0,048	0,103
-699,758	-2,243	0,025	0,013
-698,743	117,518	-0,059	-0,054
-697,729	15,205	0,033	-0,019
-696,714	-32,304	-0,100	-0,041
-695,699	210,382	-0,084	-0,097
-694,685	800,000	0,013	-0,038
-693,670	800,000	-0,014	0,041
-692,656	-200,000	0,034	0,117
-691,641	-103,548	-0,118	0,020
-690,627	-7,890	0,057	-0,028
-689,612	34,175	0,062	-0,040
-688,597	-200,000	0,006	-0,110
-687,583	800,000	-0,038	-0,122
-686,568	-53,512	0,069	-0,023
-685,554	209,388	-0,082	0,095
-684,539	-22,016	-0,087	-0,039
-683,524	-200,000	0,005	-0,019
-682,510	-17,756	-0,110	0,050
-681,495	204,883	0,070	-0,080
-680,481	800,000	0,017	0,038
-679,466	800,000	-0,032	-0,085
-678,451	317,710	-0,045	-0,062
-677,437	260,739	-0,053	-0,067
-676,422	800,000	0,047	0,102
-675,408	275,455	-0,061	0,080
-674,393	38,006	-0,092	-0,060
-673,378	-148,592	-0,125	0,007
-672,364	-28,534	-0,052	-0,022
-671,349	3,454	-0,060	-0,032
-670,335	800,000	-0,019	0,058
-669,320	-67,195	0,111	0,032
-668,305	45,633	-0,050	-0,034
-667,291	-40,972	0,072	0,027
-666,276	128,421	-0,079	-0,074
-665,262	-20,405	0,061	-0,027
-664,247	800,000	0,040	-0,105
-663,232	748,384	0,022	-0,045
-662,218	18,447	0,007	-0,004
-661,203	81,903	-0,135	-0,107
-660,189	-200,000	-0,015	-0,063
-659,174	152,718	-0,071	-0,071
-658,159	577,969	0,040	-0,072
-657,145	-131,709	-0,065	0,006
-656,130	326,337	0,072	-0,102
-655,116	-200,000	0,008	-0,034
-654,101	84,113	0,097	0,078
-653,086	-200,000	0,011	-0,056
-652,072	-200,000	0,011	0,113
-651,057	57,641	-0,096	-0,069
-650,043	800,000	0,029	-0,063
-649,028	121,238	-0,073	-0,067
-648,014	161,508	0,098	0,101
-646,999	-200,000	0,009	-0,119
-645,984	-200,000	0,001	-0,014
-644,970	-200,000	-0,012	0,066
-643,955	-53,587	-0,067	-0,022
-642,941	297,100	-0,125	-0,169
-641,926	-10,572	0,130	0,063
-640,911	118,991	-0,087	-0,079
-639,897	-200,000	-0,002	0,017
-638,882	208,942	0,073	-0,083
-637,868	-106,291	-0,102	-0,016
-636,853	66,777	-0,126	-0,094
-635,838	-114,815	-0,071	-0,010
-634,824	-200,000	-0,013	-0,076
-633,809	28,581	-0,077	0,048
-632,795	136,896	-0,039	-0,037
-631,780	130,674	0,072	-0,068
-630,765	202,000	0,041	-0,047
-629,751	55,460	-0,140	0,099
-628,736	-200,000	0,047	-0,172
-627,722	800,000	0,053	-0,163
-626,707	-70,896	-0,206	0,056
-625,692	96,350	0,070	0,059
-624,678	-105,956	-0,073	-0,012
-623,663	800,000	0,015	-0,043
-622,649	-42,987	-0,154	0,057
-621,634	540,726	-0,025	-0,044
-620,619	-96,200	-0,094	0,018
-619,605	-160,840	0,080	0,003
-618,590	-24,920	-0,079	0,034
-617,576	-85,144	0,122	-0,028
-616,561	1,151	-0,102	0,053
-615,546	-200,000	0,015	-0,076
-614,532	-200,000	0,004	-0,101
-613,517	-112,683	-0,063	-0,009
-612,503	-91,506	-0,002	-0,000
-611,488	-200,000	-0,002	-0,076
-610,474	-89,328	-0,155	0,033
-609,459	-200,000	0,009	-0,053
-608,444	-200,000	-0,013	-0,064
-607,430	-42,238	-0,067	-0,025
-606,415	-200,000	0,012	0,071
-605,401	-127,291	0,081	0,009
-604,386	585,984	0,011	0,020
-603,371	186,461	0,122	0,133
-602,357	-104,143	-0,083	0,014
-601,342	800,000	-0,029	0,070
-600,328	-51,500	-0,077	-0,026
-599,313	800,000	0,018	0,050
-598,298	86,901	0,044	-0,036
-597,284	-200,000	0,003	-0,037
-596,269	278,958	0,097	-0,126
-595,255	-108,571	0,048	-0,007
-594,240	369,300	-0,033	0,049
-593,225	800,000	0,031	-0,094
-592,211	598,817	-0,070	-0,127
-591,196	-98,133	-0,174	0,032
-590,182	0,660	0,028	-0,014
-589,167	-37,833	-0,064	0,025
-588,152	-112,463	-0,078	-0,011
-587,138	-23,502	-0,146	-0,064
-586,123	37,254	-0,145	0,094
-585,109	-1,886	-0,071	0,037
-584,094	-48,735	0,050	-0,017
-583,079	-70,151	0,081	0,022
-582,065	-200,000	-0,003	-0,046
-581,050	751,430	0,017	-0,034
-580,036	-100,698	0,057	0,010
-579,021	-136,264	-0,170	-0,014
-578,006	-106,701	-0,166	0,027
-576,992	-200,000	-0,006	0,072
-575,977	800,000	0,048	0,118
-574,963	340,751	0,097	0,139
-573,948	4,209	-0,064	-0,034
-572,934	-36,479	0,065	-0,025
-571,919	800,000	0,016	0,038
-570,904	541,930	-0,006	-0,010
-569,890	-200,000	-0,016	0,128
-568,875	-200,000	-0,017	0,101
-567,861	43,983	0,049	0,033
-566,846	342,956	-0,024	0,034
-565,831	-75,379	0,069	-0,018
-564,817	55,198	-0,100	-0,071
-563,802	40,057	-0,106	-0,070
-562,788	-200,000	-0,032	-0,205
-561,773	800,000	0,044	-0,132
-560,758	-19,599	0,112	0,050
-559,744	237,007	-0,094	0,114
-558,729	-200,000	-0,027	-0,150
-557,715	-200,000	-0,007	-0,021
-556,700	-154,937	-0,178	-0,008
-555,685	-200,000	0,020	0,112
-554,671	800,000	0,010	0,021
-553,656	127,383	0,059	0,055
-552,642	79,015	0,038	0,030
-551,627	72,865	0,029	0,022
-550,612	-200,000	-0,011	-0,035
-549,598	-200,000	0,004	0,062
-548,583	-58,794	0,093	0,029
-547,569	800,000	0,032	0,078
-546,554	-33,756	-0,118	-0,047
-545,539	181,795	0,017	-0,018
-544,525	-200,000	0,015	-0,060
-543,510	-200,000	0,028	-0,124
-542,496	-14,602	-0,191	-0,089
-541,481	-200,000	-0,008	-0,132
-540,466	800,000	0,026	-0,055
-539,452	-90,311	-0,090	0,019
-538,437	123,899	0,003	0,002
-537,423	800,000	-0,020	0,046
-536,408	35,637	-0,152	0,097
-535,393	-200,000	-0,003	0,161
-534,379	-200,000	0,010	0,048
-533,364	-42,419	-0,051	-0,019
-532,350	-25,761	0,135	0,058
-531,335	-104,377	0,157	-0,026
-530,321	-200,000	-0,020	0,081
-529,306	-200,000	-0,010	0,117
-528,291	-42,865	0,037	-0,014
-527,277	142,077	-0,129	-0,125
-526,262	-200,000	-0,020	-0,073
-525,248	800,000	0,041	-0,104
-524,233	-131,893	-0,106	0,010
-523,218	-69,645	-0,035	-0,010
-522,204	94,310	-0,038	0,031
-521,189	-200,000	-0,018	0,118
-520,175	20,258	0,024	0,014
-519,160	-93,992	-0,142	0,028
-518,145	-22,232	0,083	0,037
-517,131	800,000	-0,093	0,192
-516,116	-75,539	0,168	0,043
-515,102	308,231	-0,055	0,076
-514,087	45,951	-0,025	-0,017
-513,072	-200,000	-0,013	-0,094
-512,058	800,000	-0,037	0,077
-511,043	310,555	0,069	0,094
-510,029	193,634	0,103	-0,113
-509,014	800,000	0,048	0,109
-507,999	-200,000	-0,003	0,035
-506,985	-42,641	-0,078	0,029
-505,970	-38,441	-0,112	-0,043
-504,956	77,980	-0,076	0,059
-503,941	-51,492	0,022	-0,007
-502,926	402,520	0,015	0,024
-501,912	233,654	-0,079	0,095
-500,897	-200,000	0,009	-0,188
-499,883	800,000	-0,048	-0,097
-498,868	-52,145	0,042	0,014
-497,853	-183,043	-0,130	0,002
-496,839	166,608	-0,102	0,105
-495,824	32,861	-0,107	0,067
-494,810	34,910	0,108	-0,069
-493,795	465,199	0,037	0,061
-492,781	127,457	0,056	-0,052
-491,766	31,627	0,024	0,015
-490,751	-182,804	0,043	0,001
-489,737	151,398	0,072	0,072
-488,722	-200,000	0,052	-0,197
-487,708	800,000	-0,037	0,081
-486,693	-200,000	0,016	0,112
-485,678	-200,000	-0,027	0,091
-484,664	-200,000	0,024	0,128
-483,649	464,541	0,045	-0,073
-482,635	5,179	-0,026	0,014
-481,620	-96,381	0,143	-0,027
-480,605	-17,372	-0,087	0,040
-479,591	-65,055	0,098	0,029
-478,576	455,274	0,092	-0,149
-477,562	-76,856	-0,010	0,003
-476,547	800,000	0,044	0,101
-475,532	-196,249	0,093	0,000
-474,518	77,567	0,034	-0,027
-473,503	-106,597	-0,028	0,004
-472,489	800,000	-0,046	0,098
-471,474	-61,675	-0,106	-0,032
-470,459	8,058	0,028	0,015
-469,445	800,000	-0,044	-0,096
-468,430	-58,543	0,050	-0,016
-467,416	591,567	0,082	0,148
-466,401	-167,330	-0,026	-0,001
-465,386	-200,000	0,015	-0,105
-464,372	97,272	0,079	-0,066
-463,357	-90,377	-0,107	-0,022
-462,343	-200,000	0,030	-0,206
-461,328	98,862	-0,029	0,025
-460,313	98,257	0,052	0,044
-459,299	-25,256	0,103	-0,044
-458,284	228,716	0,081	-0,096
-457,270	800,000	0,053	0,120
-456,255	168,036	0,066	0,069
-455,241	-24,152	-0,065	0,028
-454,226	-200,000	0,018	-0,147
-453,211	-155,132	0,206	0,010
-452,197	274,952	0,017	-0,022
-451,182	38,564	0,060	-0,039
-450,168	-148,475	-0,024	0,001
-449,153	-27,426	-0,136	0,057
-448,138	-111,666	-0,107	0,016
-447,124	330,399	0,027	-0,038
-446,109	9,844	0,068	-0,037
-445,095	451,559	0,067	0,107
-444,080	200,906	0,048	0,054
-443,065	-200,000	0,006	0,109
-442,051	125,268	-0,052	-0,048
-441,036	800,000	-0,019	-0,045
-440,022	-73,743	-0,117	-0,031
-439,007	-200,000	-0,021	-0,108
-437,992	-200,000	0,028	0,095
-436,978	3,126	0,068	0,036
-435,963	41,195	0,043	-0,028
-434,949	-11,090	-0,054	-0,026
-433,934	387,541	0,073	-0,110
-432,919	29,391	-0,096	-0,059
-431,905	-95,326	0,109	0,021
-430,890	-200,000	0,006	-0,146
-429,876	174,327	0,073	-0,077
-428,861	-200,000	0,012	-0,040
-427,846	-38,673	-0,070	-0,027
-426,832	-2,464	-0,144	-0,073
-425,817	83,251	0,046	-0,036
-424,803	-0,381	-0,114	-0,059
-423,788	109,659	-0,033	0,029
-422,773	-185,660	-0,089	-0,001
-421,759	-91,758	0,072	0,015
-420,744	132,045	0,024	0,022
-419,730	-200,000	0,008	-0,056
-418,715	-200,000	0,012	0,046
-417,701	-61,882	-0,059	-0,018
-416,686	-98,365	-0,022	0,004
-415,671	-52,804	-0,138	0,046
-414,657	395,963	-0,034	0,052
-413,642	268,007	0,063	0,080
-412,628	-50,101	-0,065	0,022
-411,613	-200,000	0,001	-0,025
-410,598	335,039	0,061	-0,086
-409,584	800,000	0,028	-0,083
-408,569	26,433	-0,043	-0,026
-407,555	-127,225	0,052	0,005
-406,540	800,000	-0,054	0,137
-405,525	299,633	-0,050	0,067
-404,511	22,056	-0,117	0,069
-403,496	-200,000	0,006	-0,047
-402,482	159,384	0,080	0,081
-401,467	-200,000	0,009	-0,043
-400,452	-200,000	0,001	0,063
-399,438	-200,000	0,001	-0,018
-398,423	7,684	-0,059	-0,032
-397,409	-200,000	-0,009	-0,135
-396,394	-200,000	-0,006	-0,060
-395,379	-35,308	-0,072	-0,028
-394,365	-56,796	0,097	0,031
-393,350	133,088	0,166	0,156
-392,336	584,436	-0,033	0,059
-391,321	38,562	-0,096	-0,062
-390,306	-98,652	0,098	-0,018
-389,292	716,149	-0,014	-0,027
-388,277	-30,194	0,056	-0,023
-387,263	-200,000	-0,009	0,132
-386,248	171,788	0,045	0,047
-385,233	10,041	-0,097	0,053
-384,219	269,209	-0,086	-0,110
-383,204	1,121	-0,076	-0,040
-382,190	250,101	-0,060	0,074
-381,175	17,973	0,090	0,052
-380,160	129,273	0,053	0,049
-379,146	-146,447	-0,010	-0,001
-378,131	-92,511	0,118	0,024
-377,117	72,259	-0,024	-0,018
-376,102	-74,788	-0,092	0,024
-375,088	69,583	-0,051	0,038
-374,073	-200,000	-0,012	-0,079
-373,058	-200,000	-0,002	-0,137
-372,044	-200,000	0,001	-0,009
-371,029	-200,000	0,009	0,056
-370,015	520,635	0,070	0,120
-369,000	-91,124	-0,112	0,023
-367,985	94,411	0,047	-0,038
-366,971	-200,000	-0,014	-0,049
-365,956	-200,000	0,002	0,074
-364,942	800,000	0,021	-0,043
-363,927	-200,000	0,008	-0,043
-362,912	-134,370	-0,127	0,011
-361,898	-200,000	0,043	-0,165
-360,883	4,189	-0,109	-0,058
-359,869	247,299	-0,034	-0,042
-358,854	-200,000	-0,007	0,080
-357,839	-62,825	0,130	-0,039
-356,825	64,241	0,109	0,080
-355,810	-82,143	-0,050	0,012
-354,796	-46,416	0,188	0,066
-353,781	-122,606	-0,051	-0,006
-352,766	186,068	0,092	-0,099
-351,752	-200,000	0,001	0,115
-350,737	44,614	0,040	-0,026
-349,723	120,251	-0,032	-0,029
-348,708	55,983	-0,103	-0,072
-347,693	651,958	-0,040	-0,074
-346,679	34,517	0,083	-0,052
-345,664	-55,142	-0,063	-0,020
-344,650	-200,000	-0,001	-0,010
-343,635	485,756	-0,062	0,102
-342,620	460,654	0,058	0,093
-341,606	-98,998	0,083	-0,015
-340,591	38,085	-0,024	-0,015
-339,577	-79,664	0,103	0,025
-338,562	800,000	-0,052	-0,153
-337,548	-133,437	-0,089	0,008
-336,533	-38,416	0,141	0,054
-335,518	-200,000	0,004	-0,105
-334,504	-194,390	0,078	0,000
-333,489	-200,000	-0,010	0,150
-332,475	-28,591	-0,023	0,010
-331,460	230,232	-0,051	-0,061
-330,445	-200,000	0,025	0,144
-329,431	-200,000	0,035	-0,142
-328,416	-200,000	0,020	0,075
-327,402	448,919	0,051	0,082
-326,387	-118,299	0,120	0,015
-325,372	-200,000	-0,016	-0,054
-324,358	-200,000	-0,002	-0,042
-323,343	-200,000	-0,009	0,035
-322,329	50,072	0,090	0,062
-321,314	-125,410	0,077	-0,008
-320,299	3,311	0,071	0,037
-319,285	-79,694	-0,104	0,025
-318,270	230,010	0,019	0,023
-317,256	-84,844	0,057	-0,013
-316,241	-143,780	-0,157	0,011
-315,226	-99,134	0,048	0,009
-314,212	-200,000	-0,009	0,069
-313,197	169,543	0,043	-0,044
-312,183	800,000	-0,019	0,046
-311,168	-164,008	0,091	-0,003
-310,153	368,493	-0,016	-0,023
-309,139	-200,000	-0,007	-0,059
-308,124	418,644	-0,022	0,033
-307,110	-200,000	-0,024	0,089
-306,095	-200,000	-0,006	-0,027
-305,080	125,012	0,068	-0,062
-304,066	-200,000	-0,009	-0,071
-303,051	46,551	-0,052	-0,035
-302,037	-200,000	0,003	0,021
-301,022	30,729	-0,120	0,074
-300,008	800,000	0,022	0,049
-298,993	-153,338	-0,072	0,004
-297,978	1,043	0,064	-0,033
-296,964	124,107	0,089	-0,081
-295,949	140,616	0,077	-0,074
-294,935	800,000	-0,029	-0,081
-293,920	-82,513	-0,165	-0,038
-292,905	67,597	0,023	-0,017
-291,891	-167,549	0,130	-0,004
-290,876	-200,000	-0,012	-0,187
-289,862	112,281	-0,071	0,062
-288,847	800,000	-0,040	-0,115
-287,832	-82,755	0,048	-0,011
-286,818	11,439	-0,144	-0,080
-285,803	-200,000	0,008	-0,030
-284,789	-200,000	0,000	-0,025
-283,774	698,417	0,007	0,013
-282,759	7,080	0,049	0,027
-281,745	-110,090	0,106	0,016
-280,730	112,535	0,052	-0,045
-279,716	-106,111	0,037	-0,006
-278,701	200,453	0,079	0,088
-277,686	734,654	0,061	-0,119
-276,672	800,000	-0,059	0,119
-275,657	168,505	0,065	-0,067
-274,643	-46,848	-0,064	0,022
-273,628	684,549	-0,044	-0,083
-272,613	-91,673	0,079	-0,016
-271,599	-48,030	0,091	0,032
-270,584	34,486	0,096	0,061
-269,570	204,715	0,036	0,040
-268,555	-200,000	0,005	0,027
-267,540	403,765	-0,059	0,091
-266,526	-37,278	0,056	0,022
-265,511	-13,018	-0,157	-0,073
-264,497	-156,456	-0,137	0,006
-263,482	-200,000	-0,037	0,168
-262,467	-200,000	0,028	0,187
-261,453	17,865	0,075	-0,043
-260,438	-200,000	0,022	0,069
-259,424	-46,903	0,049	-0,017
-258,409	-200,000	0,022	-0,105
-257,395	-123,199	-0,106	-0,012
-256,380	-200,000	0,158	0,000
-255,365	286,860	0,099	0,129
-254,351	719,932	-0,009	0,018
-253,336	-200,000	0,026	0,113
-252,322	19,518	-0,109	-0,063
-251,307	-109,790	0,122	-0,018
-250,292	-200,000	-0,004	-0,049
-249,278	-88,005	0,144	-0,031
-248,263	-161,838	0,211	0,008
-247,249	-100,906	0,082	-0,014
-246,234	374,679	0,061	-0,090
-245,219	467,390	-0,041	-0,066
-244,205	-200,000	0,040	0,179
-243,190	-200,000	-0,022	0,129
-242,176	258,411	0,096	0,120
-241,161	-48,845	0,065	0,022
-240,146	513,768	0,025	-0,041
-239,132	-200,000	0,000	0,065
-238,117	449,755	0,043	0,069
-237,103	-119,274	-0,064	-0,008
-236,088	133,521	0,050	0,047
-235,073	-181,839	0,081	0,001
-234,059	286,510	-0,027	0,036
-233,044	-161,942	0,072	-0,003
-232,030	800,000	0,030	0,084
-231,015	-119,852	-0,150	-0,018
-230,000	-86,359	-0,039	-0,009
-228,986	51,624	-0,094	-0,064
-227,971	-200,000	0,000	0,105
-226,957	443,989	0,031	-0,048
-225,942	800,000	0,021	0,047
-224,927	-58,273	0,053	0,017
-223,913	-200,000	0,031	0,130
-222,898	-104,623	0,021	0,003
-221,884	435,493	0,064	-0,101
-220,869	264,480	0,070	0,089
-219,855	555,844	0,029	0,051
-218,840	116,656	-0,070	-0,062
-217,825	-163,759	-0,214	-0,007
-216,811	225,499	0,043	-0,050
-215,796	-158,681	-0,176	0,007
-214,782	-83,287	0,031	0,007
-213,767	711,528	0,049	-0,093
-212,752	114,472	-0,061	-0,054
-211,738	133,425	-0,027	-0,025
-210,723	298,458	-0,092	0,122
-209,709	-200,000	-0,008	-0,041
-208,694	-200,000	-0,008	-0,067
-207,679	-200,000	-0,007	0,061
-206,665	800,000	0,077	-0,208
-205,650	772,028	0,033	0,065
-204,636	-192,037	0,065	0,000
-203,621	37,850	-0,070	0,045
-202,606	602,903	0,050	0,090
-201,592	84,919	-0,113	-0,089
-200,577	19,703	0,090	-0,052
-199,563	-110,765	0,172	-0,025
-198,548	-200,000	-0,014	0,128
-197,533	218,417	0,074	-0,085
-196,519	184,101	0,105	0,112
-195,504	611,144	-0,027	-0,049
-194,490	-50,820	-0,028	-0,009
-193,475	-200,000	-0,003	-0,088
-192,460	-23,888	0,141	0,060
-191,446	-200,000	0,010	-0,058
-190,431	-167,159	0,128	-0,004
-189,417	242,221	0,111	0,134
-188,402	-2,122	-0,042	0,021
-187,387	70,750	0,085	-0,063
-186,373	-124,426	-0,030	-0,003
-185,358	-150,094	0,071	0,004
-184,344	650,304	0,070	0,130
-183,329	-49,687	-0,018	-0,006
-182,315	111,847	0,094	0,082
-181,300	-200,000	0,037	0,129
-180,285	-148,501	-0,084	0,005
-179,271	-200,000	-0,015	0,053
-178,256	90,935	-0,072	0,058
-177,242	-200,000	0,047	-0,174
-176,227	94,561	0,080	0,066
-175,212	800,000	-0,042	0,099
-174,198	-10,267	-0,091	0,043
-173,183	106,134	0,062	-0,052
-172,169	406,031	-0,075	-0,115
-171,154	-63,440	-0,062	0,018
-170,139	-200,000	-0,011	-0,040
-169,125	-36,204	-0,108	-0,042
-168,110	-7,112	0,066	0,032
-167,096	-200,000	-0,033	0,112
-166,081	330,850	0,033	0,046
-165,066	463,469	-0,088	-0,142
-164,052	-67,039	-0,134	-0,038
-163,037	-92,656	0,027	0,005
-162,023	-17,004	0,072	0,033
-161,008	252,844	0,095	0,117
-159,993	-200,000	-0,041	0,171
-158,979	67,946	-0,130	-0,095
-157,964	-200,000	-0,034	-0,125
-156,950	-200,000	0,004	-0,164
-155,935	28,470	0,081	0,049
-154,920	148,365	0,107	-0,104
-153,906	283,274	-0,052	-0,068
-152,891	-200,000	-0,004	0,022
-151,877	800,000	-0,049	-0,115
-150,862	-113,097	0,089	0,013
-149,847	-129,965	0,082	-0,008
-148,833	14,941	0,114	-0,064
-147,818	-30,161	-0,093	0,038
-146,804	-178,953	0,176	-0,003
-145,789	70,850	0,054	-0,040
-144,775	466,831	0,107	-0,173
-143,760	-200,000	-0,024	0,130
-142,745	750,759	0,054	-0,105
-141,731	-6,946	0,068	-0,033
-140,716	800,000	0,026	-0,055
-139,702	2,737	0,122	0,064
-138,687	624,877	-0,025	0,046
-137,672	454,473	-0,064	-0,103
-136,658	400,850	0,064	-0,097
-135,643	-190,687	-0,086	-0,001
-134,629	-73,147	-0,201	-0,053
-133,614	354,766	-0,037	0,053
-132,599	-200,000	-0,008	0,120
-131,585	-200,000	-0,004	-0,063
-130,570	24,312	-0,084	0,049
-129,556	197,738	-0,065	-0,072
-128,541	103,203	0,027	-0,023
-127,526	-200,000	0,008	-0,099
-126,512	-76,210	0,050	0,013
-125,497	-166,954	0,206	0,006
-124,483	127,521	0,082	0,075
-123,468	-29,871	0,090	-0,037
-122,453	192,285	-0,059	0,064
-121,439	271,305	0,033	-0,042
-120,424	162,262	0,023	-0,023
-119,410	1,280	-0,046	0,024
-118,395	-200,000	0,002	0,039
-117,380	15,771	0,103	-0,058
-116,366	72,695	-0,026	0,019
-115,351	-117,166	-0,134	-0,017
-114,337	-200,000	-0,007	0,084
-113,322	-37,171	0,086	-0,033
-112,307	597,603	0,037	-0,066
-111,293	155,536	0,049	-0,048
-110,278	8,319	0,019	-0,010
-109,264	622,840	0,058	-0,105
-108,249	57,136	0,131	-0,092
-107,234	-72,987	-0,063	0,016
-106,220	-200,000	0,006	-0,049
-105,205	186,508	0,061	-0,065
-104,191	800,000	-0,032	0,073
-103,176	2,686	0,039	0,020
-102,162	100,543	-0,086	0,071
-101,147	-44,156	0,091	-0,033
-100,132	29,311	-0,116	-0,071
-99,118	95,586	0,050	-0,041
-98,103	-200,000	0,010	-0,055
-97,089	40,677	0,118	0,076
-96,074	-181,858	0,055	-0,001
-95,059	104,521	-0,081	0,069
-94,045	368,138	-0,034	-0,049
-93,030	-11,986	-0,094	0,044
-92,016	372,223	0,055	0,080
-91,001	-200,000	0,020	0,114
-89,986	-200,000	0,003	0,079
-88,972	-121,001	0,039	0,005
-87,957	213,367	0,033	-0,038
-86,943	371,246	0,088	0,128
-85,928	-101,387	-0,070	-0,012
-84,913	-49,060	0,168	-0,057
-83,899	-200,000	0,007	-0,147
-82,884	800,000	0,028	-0,068
-81,870	-200,000	0,027	0,171
-80,855	686,489	-0,063	0,119
-79,840	-200,000	-0,015	0,073
-78,826	-27,981	-0,056	0,023
-77,811	-101,392	-0,190	0,033
-76,797	-179,847	-0,064	-0,001
-75,782	235,682	-0,057	0,068
-74,767	-200,000	0,068	0,230
-73,753	800,000	-0,021	-0,065
-72,738	800,000	0,034	0,083
-71,724	-200,000	0,000	0,064
-70,709	90,869	0,053	-0,042
-69,694	-39,255	-0,135	-0,051
-68,680	-99,413	0,179	0,032
-67,665	419,474	-0,028	0,043
-66,651	-13,322	0,093	-0,043
-65,636	187,217	-0,108	0,115
-64,622	-93,656	-0,031	0,006
-63,607	648,961	-0,041	-0,076
-62,592	0,989	-0,121	0,062
-61,578	-200,000	-0,006	0,132
-60,563	-27,072	0,124	0,052
-59,549	-122,597	-0,020	-0,002
-58,534	37,410	-2,184	-1,384
-57,519	-200,000	-0,013	-0,664
-56,505	-200,000	-1,420	-5,204
-55,490	120,986	0,938	0,836
-54,476	800,000	5,427	12,184
-53,461	-200,000	18,622	310,742
-52,446	800,000	740,243	2295,936
-51,432	542,805	1653,004	2834,669
-50,417	108,941	1636,588	1401,048
-49,403	72,521	1286,823	959,919
-48,388	29,717	1028,649	625,642
-47,373	19,679	991,341	569,808
-46,359	17,241	978,780	554,573
-45,344	13,911	974,999	541,501
-44,330	14,247	973,539	541,770
-43,315	13,608	971,602	538,582
-42,300	13,581	970,513	537,866
-41,286	13,535	969,789	537,294
-40,271	13,532	968,904	536,773
-39,257	13,625	967,863	536,477
-38,242	13,554	967,039	535,770
-37,227	13,622	966,015	535,402
-36,213	13,598	965,283	534,897
-35,198	13,560	964,279	534,195
-34,184	13,582	963,650	533,898
-33,169	13,516	962,733	533,155
-32,154	13,600	961,662	532,812
-31,140	13,609	960,767	532,325
-30,125	13,639	959,963	531,955
-29,111	13,538	959,523	531,363
-28,096	13,634	958,589	531,135
-27,082	13,591	957,837	530,558
-26,067	13,609	957,237	530,262
-25,052	13,613	956,254	529,710
-24,038	13,533	956,071	529,330
-23,023	13,583	955,138	528,955
-22,009	13,575	954,718	528,676
-20,994	13,594	953,947	528,287
-19,979	13,607	953,376	527,990
-18,965	13,561	952,724	527,462
-17,950	13,599	952,116	527,228
-16,936	13,560	951,510	526,745
-15,921	13,507	950,821	526,174
-14,906	13,457	950,063	525,574
-13,892	13,545	949,351	525,439
-12,877	13,540	948,721	525,052
-11,863	13,469	948,086	524,456
-10,848	13,527	947,445	524,266
-9,833	13,555	947,072	524,128
-8,819	13,549	946,319	523,670
-7,804	13,514	945,676	523,181
-6,790	13,453	945,361	522,792
-5,775	13,542	944,686	522,682
-4,760	13,554	943,936	522,284
-3,746	13,554	943,445	521,991
-2,731	13,348	942,599	520,851
-1,717	13,314	941,942	520,358
-0,702	13,314	941,398	520,039
0,313	13,125	940,736	519,859
1,327	16,592	938,703	529,627
2,342	25,729	789,764	469,649
3,356	21,847	444,231	258,406
4,371	-7,663	296,857	143,058
5,386	-11,395	278,683	130,736
6,400	-12,692	273,097	126,893
7,415	-12,652	270,637	125,776
8,429	-12,990	269,379	124,869
9,444	-12,869	268,273	124,456
10,459	-12,741	267,618	124,258
11,473	-13,109	267,086	123,664
12,488	-13,131	266,491	123,358
13,502	-13,065	265,795	123,085
14,517	-13,245	265,487	122,768
15,531	-13,007	265,002	122,748
16,546	-12,954	264,668	122,630
17,561	-13,125	264,424	122,352
18,575	-12,773	263,906	122,419
19,590	-12,928	263,462	122,062
20,604	-12,981	263,241	121,901
21,619	-13,041	262,986	121,718
22,634	-13,175	262,601	121,409
23,648	-13,199	262,280	121,228
24,663	-13,064	262,057	121,236
25,677	-12,914	261,730	121,207
26,692	-13,218	261,643	120,884
27,707	-12,990	261,219	120,881
28,721	-13,207	261,061	120,604
29,736	-13,094	260,575	120,470
30,750	-13,334	260,483	120,203
31,765	-13,058	260,130	120,274
32,780	-13,216	259,937	120,034
33,794	-13,262	259,733	119,888
34,809	-13,089	259,417	119,885
35,823	-13,180	259,142	119,667
36,838	-13,159	258,864	119,546
37,853	-13,351	258,778	119,326
38,867	-13,162	258,354	119,287
39,882	-13,240	258,243	119,156
40,896	-13,298	258,004	118,984
41,911	-13,173	257,649	118,919
42,926	-13,272	257,594	118,796
43,940	-13,214	257,296	118,699
44,955	-13,290	257,005	118,488
45,969	-13,305	256,893	118,413
46,984	-13,464	256,596	118,126
47,999	-13,592	256,181	117,812
49,013	-13,785	255,971	117,538
50,028	-13,902	255,740	117,319
51,042	-13,858	255,485	117,230
52,057	-13,915	255,151	117,016
53,071	-13,968	255,065	116,920
54,086	-13,822	254,946	116,983
55,101	-13,859	254,727	116,839
56,115	-13,434	254,451	117,071
57,130	-13,143	254,634	117,396
58,144	-12,935	254,274	117,400
59,159	-12,994	254,054	117,237
60,174	-13,022	253,970	117,163
61,188	-13,095	253,676	116,954
62,203	-13,084	253,409	116,831
63,217	-12,984	253,101	116,765
64,232	-13,175	252,869	116,483
65,247	-13,199	252,882	116,458
66,261	-13,148	252,444	116,289
67,276	-13,304	252,145	116,008
68,290	-13,563	251,944	115,683
69,305	-13,550	251,713	115,577
70,320	-13,509	251,596	115,548
71,334	-13,196	251,414	115,722
72,349	-13,108	251,226	115,700
73,363	-12,921	251,192	115,834
74,378	-12,902	250,855	115,685
75,393	-12,954	250,544	115,486
76,407	-13,140	250,442	115,270
77,422	-12,930	250,243	115,348
78,436	-13,167	250,104	115,072
79,451	-13,158	249,803	114,930
80,466	-13,103	249,425	114,793
81,480	-13,551	249,444	114,412
82,495	-13,288	248,929	114,389
83,509	-13,281	248,998	114,415
84,524	-13,510	248,772	114,108
85,539	-13,364	248,377	114,040
86,553	-13,430	248,312	113,944
87,568	-13,237	248,098	113,998
88,582	-13,285	247,948	113,879
89,597	-13,445	247,575	113,562
90,611	-13,373	247,542	113,598
91,626	-13,139	247,370	113,705
92,641	-13,094	247,137	113,626
93,655	-13,076	246,839	113,494
94,670	-13,202	246,764	113,343
95,684	-13,350	246,600	113,135
96,699	-13,241	246,437	113,141
97,714	-13,570	246,267	112,778
98,728	-13,403	245,923	112,749
99,743	-13,564	245,820	112,558
100,757	-13,380	245,516	112,562
101,772	-13,388	245,323	112,457
102,787	-13,307	245,100	112,412
103,801	-13,262	244,937	112,364
104,816	-12,996	244,858	112,538
105,830	-13,140	244,726	112,349
106,845	-13,144	244,513	112,238
107,860	-13,110	244,345	112,179
108,874	-13,302	244,206	111,946
109,889	-13,366	243,938	111,761
110,903	-13,328	243,762	111,701
111,918	-13,251	243,592	111,676
112,933	-13,428	243,382	111,425
113,947	-13,275	243,338	111,521
114,962	-13,243	243,036	111,398
115,976	-13,161	242,908	111,398
116,991	-13,264	242,682	111,199
118,006	-13,152	242,508	111,201
119,020	-13,259	242,516	111,108
120,035	-13,152	242,377	111,122
121,049	-13,204	242,096	110,941
122,064	-13,347	241,968	110,755
123,079	-13,034	241,593	110,829
124,093	-13,322	241,519	110,550
125,108	-13,426	241,134	110,279
126,122	-13,587	240,939	110,048
127,137	-13,788	240,812	109,817
128,151	-13,707	240,693	109,819
129,166	-13,401	240,413	109,930
130,181	-13,420	240,163	109,790
131,195	-13,510	240,029	109,646
132,210	-13,373	239,926	109,700
133,224	-13,129	239,775	109,820
134,239	-13,230	239,595	109,646
135,254	-13,155	239,406	109,610
136,268	-13,179	239,125	109,453
137,283	-13,535	238,892	109,049
138,297	-13,830	238,861	108,787
139,312	-13,601	238,359	108,733
140,327	-13,450	238,405	108,866
141,341	-12,920	238,398	109,280
142,356	-13,039	238,382	109,167
143,370	-12,948	238,130	109,115
144,385	-12,581	237,865	109,279
145,400	-12,904	237,697	108,932
146,414	-12,885	237,528	108,860
147,429	-12,920	237,307	108,722
148,443	-13,085	237,153	108,509
149,458	-13,085	237,059	108,456
150,473	-13,013	236,812	108,391
151,487	-12,856	236,680	108,447
152,502	-12,853	236,539	108,375
153,516	-12,771	236,351	108,344
154,531	-12,902	236,176	108,150
155,546	-12,977	236,052	108,024
156,560	-12,962	235,790	107,906
157,575	-13,002	235,508	107,736
158,589	-12,980	235,369	107,680
159,604	-12,924	235,398	107,729
160,619	-12,802	235,245	107,746
161,633	-12,831	234,951	107,578
162,648	-12,759	234,916	107,610
163,662	-12,929	234,493	107,271
164,677	-12,947	234,525	107,262
165,692	-13,158	234,427	107,042
166,706	-12,554	234,179	107,396
167,721	-12,793	234,175	107,195
168,735	-12,640	233,917	107,188
169,750	-12,913	233,704	106,866
170,764	-12,655	233,586	107,006
171,779	-12,777	233,461	106,843
172,794	-12,645	233,384	106,902
173,808	-12,926	232,970	106,482
174,823	-13,660	232,734	105,789
175,837	-13,597	232,532	105,738
176,852	-13,230	232,615	106,053
177,867	-12,934	232,445	106,198
178,881	-12,828	232,251	106,183
179,896	-12,924	232,186	106,069
180,910	-12,677	231,947	106,143
181,925	-12,596	231,927	106,187
182,940	-12,833	231,780	105,926
183,954	-13,135	231,705	105,647
184,969	-12,733	231,370	105,797
185,983	-12,756	231,332	105,753
186,998	-12,741	231,144	105,669
188,013	-12,902	230,909	105,427
189,027	-12,626	230,723	105,547
190,042	-12,854	230,600	105,305
191,056	-12,800	230,444	105,266
192,071	-12,929	230,371	105,123
193,086	-12,892	230,133	105,034
194,100	-12,693	229,970	105,104
195,115	-13,101	229,545	104,585
196,129	-13,259	229,790	104,565
197,144	-7,740	231,300	109,531
198,159	-2,048	233,067	114,804
199,173	1,921	234,079	118,397
200,188	2,640	234,207	119,012
201,202	2,416	234,056	118,750
202,217	2,440	234,043	118,751
203,232	2,605	233,800	118,747
204,246	2,560	233,667	118,633
205,261	2,806	233,334	118,645
206,275	2,905	233,427	118,759
207,290	2,925	233,109	118,602
208,304	2,843	233,049	118,498
209,319	2,833	232,943	118,425
210,334	2,825	232,639	118,254
211,348	2,618	232,485	118,004
212,363	2,271	232,194	117,577
213,377	2,036	232,128	117,352
214,392	2,102	231,929	117,292
215,407	2,107	231,919	117,280
216,421	2,176	231,740	117,233
217,436	2,067	231,535	117,034
218,450	2,201	231,040	116,877
219,465	1,986	231,092	116,727
220,480	2,165	231,015	116,816
221,494	1,905	230,853	116,523
222,509	2,184	230,695	116,648
223,523	2,280	230,702	116,714
224,538	2,249	230,342	116,499
225,553	2,251	230,107	116,370
226,567	2,197	229,984	116,257
227,582	2,496	230,047	116,506
228,596	2,914	229,852	116,718
229,611	2,294	229,856	116,234
230,626	2,043	229,400	115,803
231,640	1,955	229,296	115,673
232,655	2,356	229,167	115,903
233,669	2,717	229,064	116,115
234,684	2,793	229,053	116,157
235,699	2,508	228,897	115,851
236,713	2,524	228,511	115,657
237,728	2,075	228,487	115,294
238,742	2,003	228,175	115,071
239,757	2,121	228,155	115,141
240,772	2,032	227,847	114,908
241,786	2,038	227,739	114,847
242,801	2,239	227,838	115,039
243,815	2,628	227,762	115,285
244,830	2,507	227,562	115,082
245,844	2,144	227,352	114,691
246,859	2,186	227,222	114,647
247,874	2,336	227,008	114,642
248,888	2,318	226,918	114,572
249,903	2,172	226,776	114,381
250,917	2,334	226,622	114,415
251,932	2,144	226,365	114,133
252,947	1,932	226,098	113,828
253,961	2,099	225,871	113,829
254,976	2,138	225,879	113,852
255,990	2,505	225,639	113,996
257,005	2,474	225,631	113,958
258,020	2,358	225,557	113,824
259,034	2,740	225,286	113,963
260,049	2,467	225,260	113,736
261,063	2,408	225,088	113,595
262,078	2,458	225,059	113,608
263,093	2,836	224,899	113,798
264,107	2,667	224,654	113,538
265,122	2,651	224,556	113,466
266,136	2,958	224,147	113,478
267,151	2,519	224,352	113,245
268,166	2,303	224,040	112,917
269,180	1,939	223,878	112,555
270,195	2,178	223,597	112,581
271,209	2,239	223,570	112,603
272,224	2,001	223,566	112,415
273,239	2,342	223,389	112,567
274,253	2,090	223,133	112,242
275,268	2,025	223,023	112,129
276,282	1,880	222,757	111,878
277,297	1,896	222,556	111,779
278,312	2,085	222,538	111,899
279,326	2,100	222,420	111,840
280,341	2,211	222,327	111,866
281,355	2,297	222,241	111,876
282,370	2,280	222,045	111,755
283,384	2,191	221,706	111,509
284,399	1,929	221,582	111,244
285,414	1,821	221,618	111,173
286,428	2,209	221,538	111,408
287,443	2,557	221,327	111,547
288,457	2,579	221,179	111,478
289,472	2,028	221,039	110,995
290,487	1,933	220,774	110,782
291,501	1,794	220,603	110,585
292,516	1,841	220,372	110,494
293,530	1,878	220,444	110,547
294,545	1,904	220,447	110,558
295,560	2,229	220,072	110,596
296,574	2,077	220,081	110,480
297,589	2,309	219,880	110,538
298,603	2,367	219,866	110,564
299,618	2,185	219,553	110,265
300,633	2,119	219,587	110,223
301,647	2,398	219,628	110,437
302,662	2,476	219,369	110,354
303,676	2,509	219,166	110,265
304,691	2,508	218,874	110,107
305,706	2,467	218,811	110,037
306,720	2,594	218,721	110,073
307,735	2,331	218,553	109,789
308,749	2,067	218,261	109,442
309,764	2,418	218,285	109,697
310,779	2,476	218,104	109,639
311,793	2,351	217,959	109,466
312,808	2,499	217,830	109,498
313,822	2,421	217,693	109,363
314,837	2,375	217,421	109,184
315,852	2,155	217,368	108,989
316,866	2,208	217,220	108,944
317,881	2,602	217,115	109,164
318,895	2,525	216,906	108,994
319,910	2,276	216,791	108,748
320,925	2,019	216,656	108,486
321,939	1,682	216,495	108,155
322,954	1,656	216,354	108,057
323,968	2,117	216,191	108,295
324,983	2,447	216,281	108,565
325,997	2,579	216,253	108,637
327,012	2,450	215,957	108,386
328,027	2,469	215,831	108,327
329,041	2,835	215,778	108,550
330,056	2,717	215,580	108,358
331,070	2,192	215,329	107,849
332,085	2,078	215,086	107,637
333,100	2,264	214,983	107,707
334,114	2,455	214,937	107,810
335,129	2,363	214,688	107,610
336,143	2,052	214,522	107,298
337,158	2,106	214,440	107,285
338,173	2,226	214,267	107,274
339,187	1,938	214,187	107,021
340,202	1,906	213,973	106,882
341,216	2,480	213,886	107,234
342,231	2,439	213,822	107,163
343,246	2,439	213,657	107,071
344,260	2,240	213,543	106,864
345,275	2,584	213,467	107,058
346,289	2,658	213,425	107,080
347,304	2,595	213,105	106,865
348,319	2,307	212,978	106,590
349,333	2,394	212,813	106,559
350,348	2,256	212,676	106,384
351,362	2,438	212,780	106,554
352,377	2,370	212,635	106,425
353,392	2,347	212,380	106,272
354,406	2,438	212,269	106,270
355,421	195,608	1315,997	1389,689
356,435	156,401	1450,417	1389,646
