DTS Sentinel unit serial number:	SN410029Multiplexer serial number:	ORYXHardware model number:	OX2-SRSoftware version number:	ORYX F/W v4,00 Oryx Data Collector v3.7.2.0data status	okinstallation	B6 Nyhavnadifferential loss correction	single-endedforward channel	channel 2reverse channel	N/Adate	2023/12/10time	23:05:08forward acquisition time	300,00reverse acquisition time	0,00gamma	499,1914k internal	0,3122k external	0,3122temperature offset calibration	1,0000default loss term (dB/km)	0,3820temperature slope calibration	1,0000multiplexer offset coefficient	1,0000multiplexer slope coefficient	1,0000fibre end	0,00T internal ref (°C)	22,40T ext. ref 1 (°C)	6,13T ext. ref 2 (°C)	6,14length (m)	temperature (°C)	Stokes	anti-Stokes-744,400	-200,000	-0,005	-0,051
-743,385	-173,315	-0,130	-0,003
-742,371	29,175	0,068	0,043
-741,356	800,000	-0,080	0,201
-740,342	-100,468	0,164	0,030
-739,327	5,128	-0,247	0,135
-738,312	-200,000	0,008	0,076
-737,298	-136,475	-0,151	-0,013
-736,283	69,132	-0,092	-0,071
-735,269	-77,736	-0,207	0,053
-734,254	-123,963	-0,050	-0,006
-733,239	-140,336	-0,330	-0,025
-732,225	-200,000	-0,002	0,024
-731,210	-164,601	0,102	0,003
-730,196	265,926	-0,026	0,034
-729,181	-200,000	-0,007	-0,027
-728,167	-103,607	-0,120	-0,021
-727,152	800,000	0,014	-0,033
-726,137	778,728	-0,038	-0,078
-725,123	3,047	-0,220	-0,119
-724,108	-200,000	-0,026	0,087
-723,094	100,431	-0,109	-0,094
-722,079	14,372	-0,022	-0,013
-721,064	-200,000	0,000	0,057
-720,050	31,760	0,118	-0,075
-719,035	213,075	-0,084	0,099
-718,021	189,316	-0,022	0,025
-717,006	-78,490	-0,119	-0,030
-715,991	-200,000	-0,020	-0,192
-714,977	-46,121	0,044	-0,016
-713,962	6,627	-0,090	0,050
-712,948	142,977	0,018	-0,018
-711,933	-155,981	-0,156	0,007
-710,918	-200,000	-0,014	0,093
-709,904	51,095	0,035	-0,025
-708,889	153,336	0,066	0,068
-707,875	535,365	-0,079	-0,140
-706,860	-200,000	0,018	-0,080
-705,845	-200,000	0,008	0,037
-704,831	-76,971	-0,056	-0,014
-703,816	-140,476	0,154	-0,012
-702,802	-19,352	-0,128	-0,059
-701,787	-200,000	0,009	-0,095
-700,772	-21,913	-0,066	0,030
-699,758	-170,183	-0,139	0,004
-698,743	-109,412	0,054	-0,008
-697,729	-103,378	0,084	0,015
-696,714	-47,621	0,033	-0,012
-695,699	800,000	-0,013	-0,029
-694,685	-200,000	-0,017	-0,078
-693,670	-140,201	-0,100	-0,008
-692,656	287,518	0,031	0,042
-691,641	209,602	-0,049	0,057
-690,627	-153,349	-0,120	0,006
-689,612	-200,000	0,047	0,158
-688,597	800,000	0,012	-0,035
-687,583	-2,685	0,046	-0,024
-686,568	800,000	-0,069	-0,147
-685,554	-200,000	-0,026	0,085
-684,539	392,776	0,052	0,081
-683,524	-200,000	-0,031	0,166
-682,510	-121,517	-0,106	-0,013
-681,495	487,771	-0,045	0,077
-680,481	-151,061	-0,189	0,010
-679,466	-40,361	-0,152	-0,058
-678,451	41,028	-0,053	0,035
-677,437	79,252	0,114	0,091
-676,422	443,368	-0,045	0,073
-675,408	-14,575	0,057	-0,027
-674,393	-59,095	-0,099	-0,031
-673,378	-7,551	-0,073	-0,036
-672,364	-200,000	0,029	-0,112
-671,349	39,393	-0,065	-0,043
-670,335	-103,475	0,144	0,025
-669,320	-200,000	0,020	-0,071
-668,305	421,432	-0,061	-0,098
-667,291	5,092	-0,081	0,044
-666,276	488,912	-0,050	-0,085
-665,262	67,345	-0,100	-0,076
-664,247	-200,000	-0,009	-0,095
-663,232	-200,000	-0,033	-0,120
-662,218	-200,000	-0,003	-0,025
-661,203	112,761	0,049	0,044
-660,189	-200,000	-0,005	0,094
-659,174	-43,279	-0,098	0,037
-658,159	-74,066	0,041	-0,011
-657,145	555,744	-0,065	-0,117
-656,130	64,417	0,072	-0,054
-655,116	-54,046	0,134	0,045
-654,101	-99,890	0,119	0,022
-653,086	-64,286	-0,059	0,018
-652,072	67,125	0,046	-0,035
-651,057	800,000	-0,064	-0,174
-650,043	174,170	-0,056	0,060
-649,028	35,075	-0,104	0,068
-648,014	800,000	-0,047	-0,113
-646,999	-2,564	-0,159	0,082
-645,984	-89,821	-0,030	-0,006
-644,970	59,345	0,084	-0,061
-643,955	-200,000	-0,018	-0,124
-642,941	800,000	0,031	0,082
-641,926	28,504	0,033	0,020
-640,911	-200,000	-0,011	0,074
-639,897	-200,000	0,034	0,192
-638,882	-200,000	-0,005	0,083
-637,868	800,000	-0,044	0,100
-636,853	106,326	-0,092	0,081
-635,838	217,046	-0,009	-0,011
-634,824	-200,000	0,003	-0,154
-633,809	276,966	-0,053	-0,070
-632,795	67,460	-0,066	-0,050
-631,780	800,000	-0,052	0,127
-630,765	-89,076	-0,031	0,007
-629,751	-98,136	0,042	0,008
-628,736	298,758	-0,027	0,036
-627,722	180,662	0,045	-0,049
-626,707	-134,446	-0,118	0,011
-625,692	705,575	-0,030	-0,059
-624,678	279,754	-0,056	0,074
-623,663	429,782	-0,055	0,088
-622,649	-200,000	-0,005	-0,069
-621,634	-200,000	-0,014	-0,134
-620,619	800,000	-0,045	-0,116
-619,605	171,579	0,046	0,049
-618,590	-30,616	-0,033	0,014
-617,576	-110,277	0,013	0,002
-616,561	141,751	-0,079	0,078
-615,546	-200,000	-0,014	0,066
-614,532	-57,698	-0,144	0,047
-613,517	137,423	0,043	-0,042
-612,503	-99,088	-0,057	-0,011
-611,488	-189,173	-0,030	0,000
-610,474	21,035	0,025	-0,015
-609,459	593,736	0,032	-0,058
-608,444	-90,741	-0,016	0,003
-607,430	-32,900	-0,116	-0,047
-606,415	-200,000	0,016	-0,143
-605,401	800,000	-0,023	0,055
-604,386	-168,713	0,138	0,004
-603,371	-100,177	-0,049	0,009
-602,357	51,681	-0,084	0,059
-601,342	800,000	-0,041	0,109
-600,328	266,102	-0,009	-0,012
-599,313	11,694	-0,088	0,050
-598,298	-24,298	-0,022	-0,010
-597,284	-56,408	-0,074	0,024
-596,269	800,000	-0,003	-0,007
-595,255	800,000	-0,065	0,141
-594,240	22,212	-0,062	-0,037
-593,225	-44,205	-0,054	0,020
-592,211	597,479	0,080	-0,147
-591,196	-200,000	0,011	0,078
-590,182	639,544	-0,040	0,076
-589,167	-72,543	-0,024	0,007
-588,152	-42,242	0,026	0,010
-587,138	-200,000	-0,001	-0,060
-586,123	800,000	-0,054	-0,121
-585,109	92,580	0,039	-0,033
-584,094	-200,000	-0,004	0,051
-583,079	-200,000	-0,000	-0,078
-582,065	101,512	0,040	-0,035
-581,050	800,000	0,039	0,107
-580,036	-31,040	-0,086	-0,036
-579,021	614,190	-0,073	-0,136
-578,006	-40,833	-0,167	0,064
-576,992	-200,000	-0,019	-0,122
-575,977	9,285	0,050	-0,028
-574,963	-200,000	-0,047	0,215
-573,948	-200,000	0,018	0,137
-572,934	14,977	0,024	-0,014
-571,919	291,801	0,078	-0,106
-570,904	-200,000	-0,009	-0,107
-569,890	104,292	-0,029	-0,025
-568,875	29,232	0,091	-0,057
-567,861	183,098	0,055	-0,060
-566,846	269,685	0,044	-0,058
-565,831	-159,379	-0,087	-0,004
-564,817	-200,000	-0,012	-0,053
-563,802	800,000	-0,020	-0,052
-562,788	242,237	-0,032	-0,039
-561,773	111,974	-0,080	-0,071
-560,758	800,000	0,041	-0,102
-559,744	-200,000	-0,005	0,030
-558,729	-84,733	-0,124	0,029
-557,715	47,240	-0,057	0,039
-556,700	-83,749	-0,037	0,009
-555,685	-200,000	-0,010	-0,062
-554,671	800,000	-0,005	0,016
-553,656	-200,000	0,008	0,120
-552,642	-200,000	0,001	0,059
-551,627	143,620	-0,104	0,102
-550,612	800,000	-0,014	-0,041
-549,598	188,348	-0,114	-0,126
-548,583	800,000	-0,046	-0,125
-547,569	-104,123	0,089	0,015
-546,554	298,282	-0,046	0,063
-545,539	210,382	0,057	0,066
-544,525	-60,988	0,075	-0,023
-543,510	127,760	-0,089	0,084
-542,496	215,494	0,081	-0,095
-541,481	800,000	0,015	0,034
-540,466	-170,744	0,123	0,003
-539,452	-51,808	-0,032	0,011
-538,437	-200,000	0,000	0,039
-537,423	-109,668	0,042	-0,006
-536,408	800,000	0,027	-0,070
-535,393	-200,000	0,010	0,122
-534,379	-39,489	0,008	0,003
-533,364	-50,032	0,063	0,022
-532,350	430,683	0,026	-0,042
-531,335	-138,713	0,122	-0,010
-530,321	800,000	-0,020	0,048
-529,306	-200,000	0,013	-0,083
-528,291	-200,000	-0,006	0,104
-527,277	-105,590	0,081	-0,013
-526,262	-40,490	-0,126	-0,048
-525,248	677,971	-0,029	0,056
-524,233	-200,000	0,006	0,054
-523,218	700,432	0,025	0,049
-522,204	-108,140	-0,057	-0,009
-521,189	-200,000	-0,000	0,136
-520,175	556,960	0,095	-0,171
-519,160	-70,271	0,120	-0,034
-518,145	190,194	-0,012	0,014
-517,131	645,774	0,047	-0,089
-516,116	-72,877	0,063	-0,017
-515,102	-50,752	-0,211	0,073
-514,087	800,000	0,041	-0,119
-513,072	-200,000	-0,025	-0,139
-512,058	800,000	0,053	-0,135
-511,043	-200,000	0,001	0,052
-510,029	-200,000	0,002	-0,060
-509,014	151,668	-0,040	-0,041
-507,999	-200,000	-0,022	-0,089
-506,985	-200,000	-0,014	-0,101
-505,970	-200,000	0,013	-0,046
-504,956	129,880	-0,059	0,056
-503,941	-200,000	0,026	-0,169
-502,926	22,597	0,066	-0,040
-501,912	215,689	0,065	-0,077
-500,897	-200,000	0,008	-0,033
-499,883	800,000	0,019	0,045
-498,868	17,108	0,047	-0,027
-497,853	-101,512	0,076	-0,014
-496,839	800,000	0,033	-0,082
-495,824	141,283	0,057	0,056
-494,810	219,250	0,144	0,170
-493,795	-17,613	-0,084	0,039
-492,781	72,524	0,017	-0,013
-491,766	-53,458	0,090	-0,030
-490,751	422,434	-0,081	-0,128
-489,737	107,110	0,070	0,061
-488,722	-200,000	-0,004	0,023
-487,708	234,113	0,068	0,083
-486,693	18,461	-0,136	0,080
-485,678	315,708	-0,050	0,070
-484,664	800,000	-0,040	-0,110
-483,649	-200,000	0,021	-0,111
-482,635	800,000	0,019	-0,060
-481,620	206,780	-0,053	-0,061
-480,605	664,794	0,026	0,049
-479,591	29,654	-0,163	-0,102
-478,576	-200,000	0,010	0,064
-477,562	-156,035	-0,135	0,006
-476,547	299,323	0,081	-0,110
-475,532	68,248	-0,044	0,033
-474,518	-200,000	-0,003	-0,038
-473,503	-43,646	-0,116	0,043
-472,489	-35,956	0,112	0,044
-471,474	717,028	0,010	0,019
-470,459	800,000	0,048	0,107
-469,445	-93,673	-0,198	-0,040
-468,430	800,000	0,027	-0,081
-467,416	800,000	0,029	-0,059
-466,401	800,000	-0,017	0,049
-465,386	-200,000	0,039	0,207
-464,372	-24,300	-0,112	-0,049
-463,357	334,691	-0,083	0,119
-462,343	-200,000	-0,011	-0,046
-461,328	-110,009	0,054	0,008
-460,313	53,142	-0,103	0,073
-459,299	13,327	0,055	0,031
-458,284	12,604	0,054	-0,030
-457,270	166,430	-0,105	0,110
-456,255	-200,000	-0,002	0,044
-455,241	-4,464	-0,038	-0,019
-454,226	-2,278	-0,066	0,034
-453,211	69,467	-0,082	0,062
-452,197	228,527	-0,034	0,041
-451,182	-187,579	0,117	0,001
-450,168	-140,873	0,159	-0,012
-449,153	-200,000	0,003	0,063
-448,138	-68,607	-0,076	-0,022
-447,124	-61,657	-0,086	0,026
-446,109	800,000	0,008	-0,019
-445,095	-34,762	0,021	-0,008
-444,080	-125,153	0,050	0,006
-443,065	223,581	0,070	0,084
-442,051	42,312	-0,055	0,037
-441,036	-200,000	0,022	-0,078
-440,022	-166,685	-0,040	0,001
-439,007	-7,663	-0,073	0,036
-437,992	579,603	0,079	0,143
-436,978	-200,000	-0,035	0,139
-435,963	400,752	-0,018	0,027
-434,949	-200,000	-0,000	0,076
-433,934	709,773	-0,047	-0,091
-432,919	7,084	-0,142	-0,078
-431,905	10,590	-0,035	0,020
-430,890	-200,000	-0,009	0,100
-429,876	-118,437	-0,114	0,015
-428,861	432,334	0,057	-0,091
-427,846	438,609	-0,053	-0,086
-426,832	137,942	-0,094	-0,091
-425,817	408,542	-0,032	-0,050
-424,803	800,000	0,054	0,113
-423,788	-110,229	0,151	0,023
-422,773	800,000	0,028	0,060
-421,759	-100,244	0,188	0,034
-420,744	800,000	-0,005	0,013
-419,730	-55,371	-0,084	-0,028
-418,715	57,252	-0,090	0,064
-417,701	103,793	-0,030	-0,026
-416,686	-103,178	0,106	-0,018
-415,671	-200,000	0,009	-0,037
-414,657	731,712	0,058	0,114
-413,642	-200,000	0,020	0,117
-412,628	170,853	0,091	0,096
-411,613	290,244	-0,084	-0,112
-410,598	654,154	0,016	-0,031
-409,584	519,820	0,044	0,076
-408,569	69,003	0,040	0,030
-407,555	173,441	-0,021	0,022
-406,540	-81,747	0,098	-0,023
-405,525	193,381	0,047	0,052
-404,511	-200,000	-0,002	0,130
-403,496	-200,000	-0,085	0,000
-402,482	800,000	0,019	0,056
-401,467	66,137	-0,127	0,095
-400,452	-57,455	0,088	0,028
-399,438	-138,555	0,147	0,012
-398,423	-78,054	-0,070	0,018
-397,409	-60,956	0,051	0,016
-396,394	-200,000	-0,004	-0,061
-395,379	446,844	-0,044	0,071
-394,365	669,494	-0,088	0,168
-393,350	94,134	0,117	0,098
-392,336	21,720	0,047	0,028
-391,321	-200,000	0,009	0,077
-390,306	201,818	-0,076	0,086
-389,292	-169,464	-0,114	-0,003
-388,277	800,000	0,019	-0,056
-387,263	50,800	-0,028	-0,020
-386,248	-119,468	-0,101	-0,013
-385,233	43,644	-0,103	0,069
-384,219	-168,208	-0,076	-0,002
-383,204	-200,000	0,017	-0,164
-382,190	25,049	0,070	-0,042
-381,175	800,000	-0,039	-0,091
-380,160	-200,000	-0,016	0,117
-379,146	740,226	-0,016	-0,031
-378,131	800,000	0,042	0,112
-377,117	800,000	-0,040	-0,085
-376,102	-136,887	-0,097	-0,008
-375,088	447,486	0,036	0,059
-374,073	-106,278	0,069	-0,011
-373,058	-10,229	0,104	-0,050
-372,044	-15,323	0,084	-0,039
-371,029	81,160	0,051	-0,040
-370,015	-200,000	-0,022	0,094
-369,000	800,000	0,057	-0,157
-367,985	404,161	0,064	-0,099
-366,971	391,802	-0,025	0,039
-365,956	-58,470	-0,022	0,007
-364,942	452,865	-0,089	0,146
-363,927	40,351	0,135	0,089
-362,912	-168,635	-0,111	0,003
-361,898	-200,000	-0,001	-0,069
-360,883	662,129	-0,032	-0,062
-359,869	-200,000	0,026	-0,106
-358,854	217,640	0,026	-0,031
-357,839	800,000	-0,051	0,130
-356,825	-87,233	0,082	0,018
-355,810	363,587	-0,009	-0,013
-354,796	-200,000	0,016	-0,186
-353,781	308,502	-0,050	-0,069
-352,766	-200,000	-0,001	-0,187
-351,752	800,000	-0,009	0,021
-350,737	55,212	0,036	0,025
-349,723	294,834	0,055	0,074
-348,708	-60,429	-0,044	-0,014
-347,693	17,436	-0,137	-0,080
-346,679	209,679	0,066	-0,076
-345,664	-200,000	0,029	-0,105
-344,650	266,153	0,092	-0,118
-343,635	-77,101	0,090	-0,023
-342,620	139,111	0,100	0,096
-341,606	-68,272	0,066	0,019
-340,591	267,525	0,075	0,096
-339,577	-200,000	-0,000	0,008
-338,562	-200,000	0,014	-0,137
-337,548	-41,231	0,130	-0,049
-336,533	800,000	0,028	0,076
-335,518	-200,000	-0,024	0,097
-334,504	-5,224	0,105	0,053
-333,489	-200,000	0,008	-0,061
-332,475	14,096	0,036	-0,021
-331,460	103,034	0,039	0,034
-330,445	-125,299	-0,084	-0,009
-329,431	290,687	0,087	0,117
-328,416	-200,000	-0,021	0,113
-327,402	-99,785	-0,124	-0,023
-326,387	-49,264	-0,056	-0,020
-325,372	-102,511	-0,097	-0,017
-324,358	325,166	0,031	0,044
-323,343	144,180	0,060	-0,058
-322,329	-127,052	0,033	-0,004
-321,314	105,757	0,080	-0,069
-320,299	430,321	-0,076	0,121
-319,285	800,000	0,035	-0,107
-318,270	116,452	-0,092	0,083
-317,256	-200,000	-0,006	-0,190
-316,241	-5,398	-0,020	-0,010
-315,226	-68,303	0,062	0,018
-314,212	508,341	0,119	0,203
-313,197	-200,000	0,013	-0,067
-312,183	328,400	-0,048	0,068
-311,168	-106,663	0,099	0,016
-310,153	747,977	0,049	-0,097
-309,139	-65,826	0,055	-0,016
-308,124	-200,000	-0,000	0,108
-307,110	-200,000	-0,011	0,136
-306,095	-51,551	-0,045	-0,015
-305,080	-82,113	0,061	0,014
-304,066	800,000	-0,055	-0,135
-303,051	-200,000	-0,005	0,034
-302,037	-200,000	0,009	-0,057
-301,022	-200,000	-0,002	0,066
-300,008	-107,518	0,035	0,006
-298,993	89,456	0,023	-0,019
-297,978	-88,697	0,076	-0,017
-296,964	-200,000	-0,039	-0,132
-295,949	-144,075	-0,041	-0,003
-294,935	49,426	0,111	0,076
-293,920	163,329	0,057	0,059
-292,905	-200,000	0,024	0,129
-291,891	-37,724	-0,060	0,023
-290,876	-200,000	-0,027	-0,093
-289,862	-100,008	0,158	-0,029
-288,847	800,000	0,053	-0,171
-287,832	800,000	-0,025	0,067
-286,818	-43,754	0,083	-0,031
-285,803	124,763	0,027	0,025
-284,789	800,000	0,076	-0,184
-283,774	242,052	0,109	0,134
-282,759	176,749	0,047	-0,050
-281,745	-200,000	-0,012	-0,055
-280,730	800,000	-0,014	0,045
-279,716	-200,000	-0,006	-0,085
-278,701	800,000	-0,072	0,184
-277,686	800,000	-0,046	0,112
-276,672	-200,000	0,039	0,135
-275,657	800,000	-0,052	-0,129
-274,643	-200,000	-0,014	0,051
-273,628	-26,074	0,123	0,053
-272,613	-200,000	-0,001	-0,094
-271,599	800,000	-0,023	0,052
-270,584	202,525	0,017	0,020
-269,570	-146,822	0,155	0,010
-268,555	-112,378	0,134	0,019
-267,540	800,000	-0,014	-0,044
-266,526	-61,781	-0,078	-0,024
-265,511	150,870	0,094	-0,094
-264,497	-200,000	-0,011	-0,085
-263,482	800,000	-0,061	-0,168
-262,467	19,186	0,122	-0,071
-261,453	193,158	0,076	-0,085
-260,438	294,461	-0,081	-0,109
-259,424	180,045	-0,076	0,082
-258,409	261,731	0,046	0,058
-257,395	13,067	0,060	0,034
-256,380	-97,694	0,119	0,022
-255,365	534,460	0,102	-0,177
-254,351	-116,880	0,166	0,022
-253,336	-45,368	-0,064	0,023
-252,322	-39,480	-0,033	-0,013
-251,307	-58,346	0,012	0,004
-250,292	637,484	-0,064	-0,119
-249,278	-84,301	0,063	0,014
-248,263	-200,000	0,005	0,028
-247,249	-101,598	0,066	-0,012
-246,234	-23,737	0,070	0,030
-245,219	-140,508	-0,046	0,003
-244,205	-162,144	0,121	0,004
-243,190	-100,874	0,105	-0,019
-242,176	316,818	0,064	0,089
-241,161	469,181	-0,064	0,106
-240,146	48,179	-0,097	0,067
-239,132	26,964	-0,066	0,040
-238,117	-111,573	-0,097	0,014
-237,103	56,138	0,060	-0,043
-236,088	721,582	-0,029	0,056
-235,073	-118,657	-0,060	-0,008
-234,059	-109,021	0,108	-0,017
-233,044	-200,000	-0,005	0,045
-232,030	-200,000	-0,016	-0,187
-231,015	-200,000	-0,006	-0,047
-230,000	-79,805	-0,051	-0,012
-228,986	800,000	0,011	-0,035
-227,971	-165,961	-0,030	-0,001
-226,957	-49,253	0,044	-0,015
-225,942	-200,000	-0,008	0,097
-224,927	-50,080	-0,073	0,025
-223,913	-200,000	-0,009	-0,078
-222,898	800,000	-0,013	0,029
-221,884	-5,289	-0,073	-0,037
-220,869	-34,000	0,025	-0,010
-219,855	800,000	0,047	0,104
-218,840	-113,524	0,035	-0,005
-217,825	63,656	0,099	-0,073
-216,811	800,000	-0,022	0,065
-215,796	152,022	-0,108	-0,107
-214,782	103,988	0,168	-0,144
-213,767	30,603	-0,051	-0,031
-212,752	-200,000	-0,010	0,138
-211,738	284,611	0,070	-0,092
-210,723	-84,034	0,033	0,008
-209,709	-87,819	-0,036	0,008
-208,694	-200,000	0,014	-0,055
-207,679	197,045	-0,056	-0,063
-206,665	-84,973	0,142	0,032
-205,650	91,820	0,083	-0,068
-204,636	-200,000	0,055	-0,199
-203,621	-63,852	-0,081	0,024
-202,606	124,914	-0,100	0,092
-201,592	800,000	-0,042	-0,135
-200,577	107,954	-0,097	-0,085
-199,563	751,944	0,103	-0,203
-198,548	-33,050	0,049	0,020
-197,533	-47,137	0,038	0,014
-196,519	-200,000	0,023	0,134
-195,504	133,814	-0,044	-0,041
-194,490	32,504	-0,089	-0,056
-193,475	34,306	0,086	0,055
-192,460	-200,000	0,018	0,073
-191,446	-200,000	0,022	0,111
-190,431	-81,795	0,037	0,009
-189,417	-200,000	-0,015	-0,057
-188,402	-92,849	-0,055	-0,011
-187,387	31,046	-0,088	-0,055
-186,373	-200,000	-0,034	-0,110
-185,358	-200,000	-0,001	0,054
-184,344	-46,290	0,094	-0,033
-183,329	-200,000	-0,017	0,145
-182,315	-200,000	0,046	0,175
-181,300	-82,897	-0,143	0,034
-180,285	-22,170	0,033	0,015
-179,271	-92,997	-0,018	-0,004
-178,256	-68,817	-0,010	0,003
-177,242	-142,611	-0,208	-0,015
-176,227	519,059	0,084	0,144
-175,212	800,000	-0,011	-0,027
-174,198	643,221	0,049	-0,091
-173,183	800,000	-0,063	0,135
-172,169	800,000	-0,030	-0,074
-171,154	-200,000	0,006	-0,071
-170,139	-200,000	0,015	-0,071
-169,125	118,561	0,092	0,082
-168,110	494,038	-0,029	0,049
-167,096	430,229	-0,026	-0,041
-166,081	-115,193	-0,058	-0,008
-165,066	137,473	-0,044	0,042
-164,052	298,450	-0,045	-0,060
-163,037	456,879	0,071	0,115
-162,023	595,059	0,058	0,105
-161,008	-15,402	-0,082	0,038
-159,993	800,000	-0,037	0,116
-158,979	800,000	-0,018	0,042
-157,964	120,734	-0,160	-0,145
-156,950	-200,000	-0,015	-0,067
-155,935	79,219	0,039	0,031
-154,920	-200,000	-0,001	0,020
-153,906	-2,900	0,126	-0,064
-152,891	-200,000	0,003	0,090
-151,877	-123,170	-0,174	-0,020
-150,862	21,188	-0,047	0,028
-149,847	-146,768	0,140	0,009
-148,833	800,000	-0,060	0,127
-147,818	-129,460	0,052	-0,005
-146,804	133,107	0,095	0,090
-145,789	195,097	0,148	0,164
-144,775	-200,000	0,002	0,096
-143,760	-200,000	-0,003	0,071
-142,745	-176,576	-0,108	0,002
-141,731	-200,000	0,009	0,068
-140,716	800,000	0,032	-0,097
-139,702	-126,504	0,060	0,006
-138,687	-34,926	0,159	-0,063
-137,672	800,000	-0,058	-0,118
-136,658	607,522	0,011	-0,021
-135,643	70,712	-0,094	0,071
-134,629	800,000	0,015	0,046
-133,614	-200,000	0,000	0,007
-132,599	800,000	-0,031	0,077
-131,585	143,737	0,076	0,074
-130,570	-152,779	-0,065	-0,003
-129,556	342,960	0,044	-0,063
-128,541	800,000	0,014	0,035
-127,526	-58,968	0,047	-0,015
-126,512	-200,000	0,012	0,059
-125,497	-200,000	0,014	0,144
-124,483	648,245	0,036	-0,067
-123,468	-83,800	0,084	-0,019
-122,453	541,430	0,032	-0,055
-121,439	404,628	0,099	-0,153
-120,424	200,811	0,147	-0,165
-119,410	-200,000	-0,002	-0,066
-118,395	233,281	0,134	0,160
-117,380	-200,000	0,011	0,061
-116,366	800,000	-0,032	0,100
-115,351	-155,631	-0,148	-0,007
-114,337	229,518	0,072	-0,086
-113,322	800,000	-0,039	-0,096
-112,307	-9,675	0,019	-0,009
-111,293	-200,000	-0,004	0,070
-110,278	344,381	0,075	-0,107
-109,264	-200,000	0,039	-0,159
-108,249	-174,157	-0,116	0,002
-107,234	134,535	-0,054	-0,051
-106,220	113,739	0,062	0,055
-105,205	-200,000	-0,010	0,040
-104,191	-200,000	0,001	0,028
-103,176	-98,258	0,029	0,005
-102,162	-140,405	-0,102	0,008
-101,147	551,702	0,010	-0,018
-100,132	-200,000	-0,046	-0,159
-99,118	135,442	0,022	-0,021
-98,103	-200,000	0,033	-0,133
-97,089	800,000	0,051	-0,123
-96,074	-137,502	0,090	0,007
-95,059	366,941	0,044	0,065
-94,045	-200,000	0,033	0,108
-93,030	-200,000	-0,003	0,016
-92,016	-200,000	-0,034	-0,181
-91,001	-200,000	0,006	-0,030
-89,986	-119,575	-0,083	0,010
-88,972	800,000	0,021	0,057
-87,957	9,493	0,049	-0,027
-86,943	-9,768	0,081	0,039
-85,928	-11,923	-0,044	-0,021
-84,913	-200,000	0,003	-0,042
-83,899	85,507	0,132	-0,105
-82,884	-200,000	0,004	-0,026
-81,870	221,895	0,030	0,035
-80,855	-93,672	0,089	-0,018
-79,840	-200,000	0,022	0,151
-78,826	-200,000	-0,041	0,160
-77,811	76,335	-0,105	-0,081
-76,797	-51,999	-0,072	-0,024
-75,782	-200,000	-0,003	-0,054
-74,767	800,000	0,036	0,086
-73,753	274,478	-0,074	0,095
-72,738	800,000	0,046	0,109
-71,724	124,289	-0,054	0,049
-70,709	-105,889	-0,130	-0,021
-69,694	64,754	0,085	0,062
-68,680	62,060	-0,067	0,048
-67,665	453,186	-0,049	0,078
-66,651	-200,000	-0,025	0,179
-65,636	271,758	-0,035	-0,045
-64,622	800,000	-0,077	0,199
-63,607	12,841	0,043	0,024
-62,592	-200,000	-0,014	0,071
-61,578	-200,000	0,007	0,025
-60,563	31,051	-0,076	-0,047
-59,549	800,000	-0,020	0,040
-58,534	-144,993	-1,451	-0,095
-57,519	633,613	-0,756	-1,398
-56,505	-200,000	-0,835	-4,419
-55,490	35,892	0,593	-0,378
-54,476	800,000	4,970	11,740
-53,461	-200,000	13,576	253,462
-52,446	-200,000	689,760	2261,371
-51,432	592,046	1622,759	2920,046
-50,417	119,374	1635,402	1468,940
-49,403	73,365	1289,075	977,925
-48,388	38,156	1024,157	660,111
-47,373	24,346	981,950	587,483
-46,359	23,586	971,515	578,722
-45,344	22,550	967,436	572,884
-44,330	22,533	965,923	571,910
-43,315	22,446	964,402	570,701
-42,300	22,432	963,361	570,019
-41,286	22,428	962,505	569,476
-40,271	22,377	961,672	568,795
-39,257	22,429	960,600	568,307
-38,242	22,400	959,700	567,658
-37,227	22,366	958,918	567,063
-36,213	22,366	957,877	566,425
-35,198	22,341	957,120	565,875
-34,184	22,412	956,484	565,704
-33,169	22,330	955,716	564,962
-32,154	22,455	954,720	564,755
-31,140	22,450	953,749	564,143
-30,125	22,409	952,952	563,518
-29,111	22,452	952,157	563,163
-28,096	22,477	951,323	562,728
-27,082	22,469	950,537	562,215
-26,067	22,459	949,814	561,731
-25,052	22,449	949,258	561,348
-24,038	22,390	948,714	560,817
-23,023	22,450	948,031	560,584
-22,009	22,486	947,223	560,198
-20,994	22,509	946,644	559,907
-19,979	22,479	946,063	559,445
-18,965	22,522	945,420	559,180
-17,950	22,456	944,885	558,629
-16,936	22,411	944,186	558,051
-15,921	22,359	943,449	557,427
-14,906	22,333	942,732	556,900
-13,892	22,361	942,169	556,634
-12,877	22,340	941,649	556,238
-11,863	22,273	940,967	555,600
-10,848	22,261	940,380	555,193
-9,833	22,443	939,853	555,436
-8,819	22,374	939,319	554,881
-7,804	22,288	938,622	554,176
-6,790	22,291	938,205	553,915
-5,775	22,367	937,406	553,661
-4,760	22,280	936,931	553,085
-3,746	22,303	936,293	552,758
-2,731	22,203	935,517	551,962
-1,717	22,136	934,847	551,333
-0,702	22,148	934,093	550,906
0,313	22,040	933,290	550,923
1,327	25,067	931,323	559,232
2,342	34,579	796,202	503,439
3,356	32,644	451,440	282,504
4,371	1,713	293,638	152,904
5,386	-2,625	274,521	138,834
6,400	-4,355	268,604	134,225
7,415	-4,841	266,312	132,622
8,429	-4,457	264,868	132,241
9,444	-4,396	264,028	131,867
10,459	-4,594	263,432	131,376
11,473	-4,641	262,839	131,027
12,488	-4,654	262,344	130,757
13,502	-4,837	261,855	130,335
14,517	-4,855	261,357	130,060
15,531	-4,655	260,965	130,034
16,546	-4,621	260,479	129,810
17,561	-4,609	260,177	129,659
18,575	-4,462	259,990	129,687
19,590	-4,436	259,689	129,547
20,604	-4,579	259,466	129,298
21,619	-4,795	259,082	128,901
22,634	-4,673	258,828	128,872
23,648	-4,782	258,451	128,576
24,663	-4,809	258,193	128,412
25,677	-4,670	257,935	128,396
26,692	-4,542	257,613	128,337
27,707	-4,697	257,551	128,158
28,721	-4,831	257,149	127,827
29,736	-4,815	256,893	127,703
30,750	-4,862	256,554	127,482
31,765	-4,656	256,462	127,607
32,780	-4,609	256,172	127,492
33,794	-4,663	255,952	127,324
34,809	-4,639	255,672	127,194
35,823	-4,815	255,505	126,945
36,838	-4,832	255,209	126,771
37,853	-4,869	254,955	126,602
38,867	-4,815	254,753	126,538
39,882	-4,828	254,479	126,379
40,896	-4,804	254,306	126,303
41,911	-5,058	254,339	126,085
42,926	-4,873	253,850	125,994
43,940	-4,760	253,728	126,020
44,955	-4,955	253,330	125,641
45,969	-4,856	253,064	125,584
46,984	-5,278	252,924	125,136
47,999	-5,333	252,619	124,926
49,013	-5,621	252,420	124,567
50,028	-5,596	252,065	124,402
51,042	-6,004	251,996	124,003
52,057	-5,766	251,730	124,067
53,071	-5,725	251,651	124,053
54,086	-5,544	251,326	124,038
55,101	-5,377	251,228	124,123
56,115	-5,070	251,000	124,264
57,130	-4,647	250,856	124,547
58,144	-4,401	250,842	124,741
59,159	-4,441	250,608	124,578
60,174	-4,668	250,508	124,323
61,188	-4,636	250,146	124,160
62,203	-4,803	250,163	124,013
63,217	-4,827	249,945	123,873
64,232	-4,514	249,531	123,926
65,247	-4,603	249,259	123,703
66,261	-4,789	249,229	123,518
67,276	-5,039	248,952	123,156
68,290	-5,107	248,608	122,916
69,305	-5,325	248,500	122,666
70,320	-5,046	248,172	122,731
71,334	-4,909	248,250	122,875
72,349	-4,654	248,032	122,974
73,363	-4,690	247,791	122,813
74,378	-4,696	247,416	122,611
75,393	-4,657	247,255	122,553
76,407	-4,635	247,091	122,479
77,422	-4,814	246,901	122,223
78,436	-4,541	246,703	122,345
79,451	-4,700	246,535	122,117
80,466	-4,946	246,291	121,777
81,480	-4,915	245,926	121,611
82,495	-4,912	245,878	121,580
83,509	-5,099	245,759	121,353
84,524	-4,840	245,486	121,425
85,539	-5,207	245,248	120,987
86,553	-5,169	245,001	120,887
87,568	-5,128	244,880	120,851
88,582	-4,951	244,667	120,884
89,597	-4,762	244,433	120,915
90,611	-4,914	244,361	120,742
91,626	-4,808	244,210	120,745
92,641	-4,735	244,078	120,730
93,655	-4,979	244,029	120,491
94,670	-5,058	243,850	120,326
95,684	-4,855	243,485	120,304
96,699	-5,003	243,397	120,126
97,714	-4,959	243,119	120,015
98,728	-5,116	242,879	119,755
99,743	-5,000	242,699	119,753
100,757	-5,141	242,600	119,576
101,772	-5,142	242,314	119,423
102,787	-5,270	242,284	119,292
103,801	-4,956	241,988	119,396
104,816	-4,715	241,790	119,487
105,830	-4,751	241,755	119,429
106,845	-4,670	241,452	119,336
107,860	-4,618	241,304	119,294
108,874	-4,718	241,111	119,106
109,889	-4,841	240,867	118,874
110,903	-4,983	240,732	118,680
111,918	-4,919	240,639	118,676
112,933	-5,068	240,489	118,469
113,947	-4,838	240,275	118,542
114,962	-4,580	240,144	118,678
115,976	-4,554	239,910	118,574
116,991	-4,822	239,802	118,290
118,006	-5,053	239,858	118,117
119,020	-4,648	239,428	118,226
120,035	-4,894	239,406	118,004
121,049	-4,663	239,292	118,126
122,064	-4,888	239,128	117,850
123,079	-4,803	238,851	117,773
124,093	-4,842	238,575	117,595
125,108	-5,136	238,423	117,269
126,122	-5,135	238,139	117,121
127,137	-5,073	237,794	116,991
128,151	-5,211	237,814	116,878
129,166	-5,046	237,628	116,910
130,181	-5,202	237,528	116,724
131,195	-5,129	237,108	116,567
132,210	-4,964	236,930	116,602
133,224	-4,926	237,013	116,664
134,239	-5,027	236,923	116,527
135,254	-4,865	236,683	116,529
136,268	-5,063	236,528	116,283
137,283	-5,254	236,229	115,971
138,297	-5,389	236,083	115,780
139,312	-5,374	235,783	115,635
140,327	-4,943	235,678	115,920
141,341	-4,505	235,775	116,310
142,356	-4,425	235,657	116,306
143,370	-4,317	235,451	116,280
144,385	-4,418	235,366	116,147
145,400	-4,531	235,133	115,930
146,414	-4,443	234,872	115,862
147,429	-4,456	234,693	115,753
148,443	-4,484	234,709	115,729
149,458	-4,485	234,381	115,556
150,473	-4,304	234,269	115,634
151,487	-4,572	234,127	115,340
152,502	-4,599	233,840	115,167
153,516	-4,633	233,787	115,103
154,531	-4,356	233,489	115,167
155,546	-4,548	233,351	114,936
156,560	-4,755	233,297	114,734
157,575	-4,960	233,157	114,492
158,589	-4,735	232,944	114,556
159,604	-4,469	232,729	114,651
160,619	-4,244	232,631	114,771
161,633	-4,304	232,499	114,648
162,648	-4,255	232,330	114,593
163,662	-4,472	232,042	114,270
164,677	-4,517	232,056	114,231
165,692	-4,238	231,814	114,322
166,706	-4,345	231,632	114,137
167,721	-4,474	231,693	114,056
168,735	-4,323	231,491	114,065
169,750	-4,272	231,285	113,993
170,764	-4,481	231,136	113,745
171,779	-4,695	231,177	113,587
172,794	-4,252	230,786	113,733
173,808	-4,500	230,589	113,431
174,823	-5,099	230,368	112,843
175,837	-5,191	230,082	112,620
176,852	-4,605	230,009	113,033
177,867	-4,394	229,871	113,120
178,881	-4,506	229,856	113,015
179,896	-4,422	229,867	113,076
180,910	-4,229	229,403	112,988
181,925	-4,456	229,509	112,854
182,940	-4,235	229,232	112,879
183,954	-4,328	229,075	112,719
184,969	-4,258	228,889	112,673
185,983	-4,337	228,763	112,539
186,998	-4,391	228,673	112,443
188,013	-3,932	228,459	112,683
189,027	-4,356	228,366	112,299
190,042	-4,110	228,115	112,356
191,056	-4,300	228,066	112,175
192,071	-4,425	227,874	111,973
193,086	-4,397	227,638	111,869
194,100	-4,267	227,460	111,872
195,115	-4,709	227,248	111,417
196,129	-5,471	227,056	110,725
197,144	-2,317	227,900	113,566
198,159	1,905	229,075	117,417
199,173	4,132	229,656	119,433
200,188	4,237	229,417	119,379
201,202	4,284	229,292	119,340
202,217	4,682	229,109	119,542
203,232	4,718	229,089	119,549
204,246	4,887	229,082	119,664
205,261	5,041	228,845	119,649
206,275	5,029	228,942	119,680
207,290	5,136	228,694	119,622
208,304	4,910	228,443	119,306
209,319	4,735	228,381	119,128
210,334	4,898	228,053	119,072
211,348	4,547	227,915	118,719
212,363	4,417	227,500	118,393
213,377	4,015	227,496	118,072
214,392	4,161	227,340	118,092
215,407	4,144	227,335	118,066
216,421	4,271	227,088	118,025
217,436	4,129	226,872	117,793
218,450	3,845	226,586	117,417
219,465	3,880	226,437	117,357
220,480	4,073	226,277	117,410
221,494	3,882	226,205	117,217
222,509	4,097	226,120	117,326
223,523	4,148	225,860	117,219
224,538	3,928	225,844	117,034
225,553	3,827	225,816	116,931
226,567	4,319	225,666	117,217
227,582	4,469	225,428	117,197
228,596	4,620	225,283	117,226
229,611	4,308	225,125	116,896
230,626	4,075	224,790	116,536
231,640	4,078	224,778	116,522
232,655	4,296	224,745	116,659
233,669	4,565	224,658	116,807
234,684	4,832	224,473	116,902
235,699	4,444	224,319	116,519
236,713	4,177	224,226	116,259
237,728	4,290	223,834	116,130
238,742	4,012	223,706	115,844
239,757	3,904	223,543	115,668
240,772	4,081	223,460	115,748
241,786	4,079	223,325	115,666
242,801	4,368	223,232	115,825
243,815	4,475	223,278	115,918
244,830	4,633	223,086	115,927
245,844	4,144	222,793	115,398
246,859	4,150	222,535	115,259
247,874	4,399	222,610	115,473
248,888	4,431	222,310	115,332
249,903	4,269	222,222	115,154
250,917	4,315	221,989	115,057
251,932	3,951	221,876	114,718
252,947	3,969	221,818	114,691
253,961	4,091	221,524	114,619
254,976	4,130	221,427	114,587
255,990	4,232	221,423	114,651
257,005	4,304	221,177	114,567
258,020	4,123	221,112	114,390
259,034	4,679	221,063	114,766
260,049	4,499	220,829	114,501
261,063	4,050	220,826	114,156
262,078	4,570	220,565	114,396
263,093	4,540	220,323	114,239
264,107	4,265	220,271	113,998
265,122	4,191	220,197	113,894
266,136	4,648	220,048	114,145
267,151	4,653	219,817	114,019
268,166	4,223	219,592	113,575
269,180	3,925	219,485	113,290
270,195	3,845	219,371	113,162
271,209	3,957	219,128	113,109
272,224	4,166	219,031	113,203
273,239	4,095	219,020	113,135
274,253	4,075	218,681	112,935
275,268	4,108	218,605	112,910
276,282	3,741	218,336	112,492
277,297	3,829	218,279	112,517
278,312	3,944	218,228	112,564
279,326	4,015	218,037	112,508
280,341	3,769	218,010	112,305
281,355	4,220	217,740	112,484
282,370	4,195	217,598	112,383
283,384	3,971	217,499	112,158
284,399	3,671	217,334	111,845
285,414	3,921	217,110	111,901
286,428	4,131	217,137	112,059
287,443	4,138	216,950	111,956
288,457	4,125	216,867	111,895
289,472	4,136	216,601	111,755
290,487	3,946	216,211	111,407
291,501	3,528	216,199	111,087
292,516	3,820	216,181	111,280
293,530	3,756	215,977	111,119
294,545	3,739	215,971	111,094
295,560	3,916	215,899	111,174
296,574	4,021	215,660	111,117
297,589	4,127	215,523	111,113
298,603	4,200	215,392	111,088
299,618	4,321	215,375	111,157
300,633	4,006	215,295	110,879
301,647	4,508	215,161	111,162
302,662	4,647	214,940	111,137
303,676	4,346	214,822	110,850
304,691	4,327	214,785	110,807
305,706	4,354	214,480	110,660
306,720	4,306	214,402	110,575
307,735	4,247	214,166	110,401
308,749	4,011	214,024	110,149
309,764	4,334	214,013	110,365
310,779	4,247	213,925	110,248
311,793	4,256	213,693	110,124
312,808	4,123	213,539	109,940
313,822	4,119	213,374	109,843
314,837	4,045	213,287	109,735
315,852	3,837	213,060	109,461
316,866	4,210	212,985	109,678
317,881	4,447	212,830	109,757
318,895	4,175	212,824	109,550
319,910	4,126	212,627	109,405
320,925	3,893	212,312	109,067
321,939	3,456	212,311	108,747
322,954	3,723	212,056	108,796
323,968	4,181	211,937	109,050
324,983	4,310	211,810	109,066
325,997	4,304	211,949	109,123
327,012	4,223	211,596	108,874
328,027	4,251	211,441	108,805
329,041	4,636	211,444	109,068
330,056	4,543	211,317	108,928
331,070	4,050	211,155	108,487
332,085	3,948	210,762	108,204
333,100	4,031	210,748	108,245
334,114	3,731	210,583	107,940
335,129	4,177	210,382	108,140
336,143	3,764	210,212	107,754
337,158	3,796	210,262	107,792
338,173	4,130	210,097	107,932
339,187	3,677	209,964	107,537
340,202	3,567	209,770	107,351
341,216	3,835	209,574	107,428
342,231	3,959	209,484	107,459
343,246	4,046	209,357	107,445
344,260	4,009	209,303	107,382
345,275	3,941	209,160	107,252
346,289	3,969	209,161	107,262
347,304	4,133	209,014	107,292
348,319	4,076	208,836	107,151
349,333	4,197	208,731	107,171
350,348	4,223	208,575	107,100
351,362	4,630	208,414	107,290
352,377	4,468	208,231	107,074
353,392	4,126	208,202	106,812
354,406	4,086	208,004	106,674
355,421	194,131	1345,674	1435,245
356,435	154,891	1484,385	1435,364
