DTS Sentinel unit serial number:	SN410029Multiplexer serial number:	ORYXHardware model number:	OX2-SRSoftware version number:	ORYX F/W v4,00 Oryx Data Collector v3.7.2.0data status	okinstallation	B6 Nyhavnadifferential loss correction	single-endedforward channel	channel 2reverse channel	N/Adate	2023/12/09time	06:50:08forward acquisition time	300,00reverse acquisition time	0,00gamma	499,1914k internal	0,3139k external	0,3139temperature offset calibration	1,0000default loss term (dB/km)	0,3820temperature slope calibration	1,0000multiplexer offset coefficient	1,0000multiplexer slope coefficient	1,0000fibre end	0,00T internal ref (°C)	18,54T ext. ref 1 (°C)	2,16T ext. ref 2 (°C)	2,19length (m)	temperature (°C)	Stokes	anti-Stokes-744,400	-200,000	-0,033	0,122
-743,385	11,420	-0,287	0,163
-742,371	157,066	0,111	0,114
-741,356	-126,362	-0,291	0,032
-740,342	-200,000	0,029	0,115
-739,327	-117,153	-0,233	-0,031
-738,312	-200,000	-0,004	-0,136
-737,298	-116,341	-0,388	-0,053
-736,283	-136,656	0,055	-0,005
-735,269	-71,586	-0,260	0,071
-734,254	-143,081	-0,002	0,000
-733,239	-99,265	-0,337	-0,062
-732,225	-89,356	0,122	-0,026
-731,210	190,155	0,024	0,027
-730,196	-200,000	-0,008	-0,032
-729,181	800,000	0,011	0,030
-728,167	-81,283	-0,056	0,014
-727,152	-52,280	-0,080	-0,027
-726,137	357,617	0,076	-0,113
-725,123	-104,362	-0,073	0,012
-724,108	-29,036	-0,110	0,046
-723,094	57,300	0,070	0,051
-722,079	207,874	0,058	0,067
-721,064	-103,597	-0,053	0,009
-720,050	-14,080	-0,125	0,060
-719,035	-200,000	-0,024	-0,082
-718,021	-99,963	0,031	0,006
-717,006	-35,456	-0,097	-0,039
-715,991	800,000	-0,027	-0,061
-714,977	-200,000	-0,031	-0,119
-713,962	-26,930	-0,125	0,054
-712,948	-200,000	-0,016	-0,067
-711,933	70,883	0,043	-0,033
-710,918	144,647	-0,076	0,075
-709,904	-200,000	-0,016	0,057
-708,889	-79,762	-0,129	0,032
-707,875	-172,385	-0,179	0,004
-706,860	800,000	-0,024	-0,056
-705,845	-114,677	0,026	-0,004
-704,831	34,489	0,083	-0,053
-703,816	800,000	-0,055	-0,151
-702,802	128,530	-0,020	-0,019
-701,787	-200,000	0,026	-0,123
-700,772	800,000	-0,032	-0,089
-699,758	-200,000	0,004	-0,078
-698,743	-200,000	-0,016	0,062
-697,729	-200,000	-0,031	0,133
-696,714	-97,181	-0,178	-0,034
-695,699	-54,122	-0,077	-0,026
-694,685	44,117	-0,045	-0,031
-693,670	89,346	0,127	-0,105
-692,656	-149,022	0,031	-0,002
-691,641	499,855	-0,046	-0,078
-690,627	-200,000	0,028	0,131
-689,612	-200,000	-0,023	-0,089
-688,597	-200,000	-0,003	-0,027
-687,583	260,406	-0,089	-0,114
-686,568	-99,550	-0,109	-0,020
-685,554	-86,843	0,030	0,007
-684,539	299,235	0,044	0,061
-683,524	94,959	0,087	0,073
-682,510	-200,000	0,026	-0,088
-681,495	10,067	-0,096	0,054
-680,481	-178,154	-0,109	0,002
-679,466	-31,358	-0,097	0,040
-678,451	-49,172	0,157	-0,055
-677,437	-70,752	-0,086	-0,024
-676,422	-200,000	0,017	0,066
-675,408	689,015	-0,085	-0,165
-674,393	-105,023	-0,128	-0,021
-673,378	800,000	-0,007	0,020
-672,364	46,166	0,113	-0,077
-671,349	-19,841	-0,049	-0,022
-670,335	-78,641	0,148	-0,037
-669,320	-151,557	-0,013	-0,001
-668,305	89,764	0,089	-0,073
-667,291	58,803	-0,096	-0,070
-666,276	-200,000	0,000	-0,015
-665,262	-200,000	0,010	-0,174
-664,247	-200,000	0,022	0,136
-663,232	-200,000	0,015	-0,070
-662,218	38,948	-0,158	-0,104
-661,203	141,275	0,070	-0,068
-660,189	-46,795	-0,053	0,019
-659,174	800,000	0,049	-0,122
-658,159	97,410	-0,105	-0,089
-657,145	-114,260	-0,102	0,014
-656,130	-200,000	0,007	-0,072
-655,116	-140,484	0,161	-0,012
-654,101	106,258	0,034	-0,030
-653,086	82,013	0,069	-0,055
-652,072	566,293	-0,052	-0,094
-651,057	-200,000	-0,005	-0,036
-650,043	254,730	-0,103	-0,131
-649,028	168,116	0,037	-0,039
-648,014	345,329	0,085	0,124
-646,999	282,579	-0,052	0,068
-645,984	800,000	0,007	0,018
-644,970	-200,000	0,012	-0,052
-643,955	-79,389	-0,113	0,028
-642,941	-7,169	-0,076	-0,038
-641,926	-66,415	0,166	-0,048
-640,911	-110,539	-0,098	-0,015
-639,897	800,000	-0,012	0,035
-638,882	330,249	0,033	0,048
-637,868	576,272	-0,052	-0,094
-636,853	369,543	0,024	-0,036
-635,838	800,000	-0,053	-0,161
-634,824	10,065	0,072	-0,041
-633,809	134,910	-0,015	-0,014
-632,795	-47,762	0,081	-0,029
-631,780	-98,509	-0,054	-0,010
-630,765	23,576	0,074	0,045
-629,751	800,000	-0,017	0,036
-628,736	800,000	-0,051	0,104
-627,722	100,423	-0,174	-0,149
-626,707	1,774	0,194	-0,103
-625,692	-69,649	0,114	-0,032
-624,678	-39,075	-0,094	-0,036
-623,663	58,503	0,093	0,068
-622,649	-36,128	-0,067	-0,027
-621,634	-200,000	-0,013	0,072
-620,619	152,782	-0,119	-0,120
-619,605	4,063	0,049	0,026
-618,590	58,299	0,090	0,065
-617,576	79,715	-0,080	0,064
-616,561	-200,000	-0,039	-0,137
-615,546	87,854	-0,075	0,061
-614,532	4,054	-0,086	-0,046
-613,517	-200,000	-0,008	-0,025
-612,503	-200,000	-0,001	-0,072
-611,488	-31,390	-0,112	-0,046
-610,474	445,697	-0,030	0,049
-609,459	308,572	-0,028	0,038
-608,444	800,000	-0,055	-0,114
-607,430	462,879	-0,094	-0,156
-606,415	-200,000	0,007	-0,190
-605,401	21,709	0,060	-0,036
-604,386	800,000	-0,045	-0,111
-603,371	23,938	0,087	0,053
-602,357	-17,881	-0,029	0,013
-601,342	-150,728	-0,097	-0,005
-600,328	-200,000	0,001	-0,035
-599,313	789,146	0,069	-0,140
-598,298	-102,135	-0,059	-0,010
-597,284	800,000	-0,031	0,071
-596,269	-70,662	0,075	-0,021
-595,255	185,067	0,003	-0,004
-594,240	6,939	-0,118	-0,064
-593,225	431,079	-0,045	-0,072
-592,211	179,368	-0,073	-0,079
-591,196	-200,000	-0,003	-0,031
-590,182	100,699	-0,033	-0,028
-589,167	286,214	0,025	0,033
-588,152	217,967	-0,060	-0,071
-587,138	703,479	-0,055	0,106
-586,123	30,704	0,098	-0,061
-585,109	-66,888	-0,079	0,023
-584,094	-118,665	-0,167	0,022
-583,079	381,085	0,099	0,151
-582,065	-200,000	-0,008	-0,049
-581,050	-200,000	0,000	-0,051
-580,036	26,990	0,108	-0,066
-579,021	800,000	-0,032	-0,066
-578,006	800,000	-0,010	0,022
-576,992	160,805	-0,042	-0,043
-575,977	800,000	0,017	-0,038
-574,963	-115,592	-0,093	-0,013
-573,948	-200,000	0,002	-0,009
-572,934	-42,458	-0,137	-0,051
-571,919	-200,000	0,019	-0,069
-570,904	22,952	0,044	0,026
-569,890	-10,207	-0,079	0,039
-568,875	176,674	0,058	0,062
-567,861	-200,000	-0,001	0,072
-566,846	93,222	-0,017	0,014
-565,831	-200,000	0,003	-0,052
-564,817	132,413	-0,024	0,022
-563,802	-200,000	-0,010	-0,099
-562,788	-200,000	-0,014	-0,152
-561,773	52,305	0,097	0,068
-560,758	-38,224	0,155	0,060
-559,744	-200,000	0,006	0,082
-558,729	8,235	0,050	0,028
-557,715	-28,330	-0,010	-0,004
-556,700	-176,038	0,104	0,002
-555,685	800,000	-0,024	-0,069
-554,671	-101,111	0,020	0,003
-553,656	800,000	-0,046	0,102
-552,642	254,756	0,045	0,056
-551,627	800,000	-0,007	-0,020
-550,612	-90,841	0,069	0,014
-549,598	-78,400	-0,093	-0,023
-548,583	-200,000	-0,052	-0,173
-547,569	49,478	0,040	0,028
-546,554	-200,000	-0,001	0,060
-545,539	250,833	0,126	0,158
-544,525	-20,652	-0,064	0,029
-543,510	-108,715	0,023	-0,004
-542,496	527,623	-0,081	-0,140
-541,481	-138,808	0,026	-0,002
-540,466	172,167	0,142	0,151
-539,452	12,131	-0,098	0,055
-538,437	-200,000	0,001	-0,198
-537,423	800,000	-0,026	-0,062
-536,408	-200,000	-0,036	0,126
-535,393	-153,613	0,113	0,006
-534,379	197,261	-0,126	0,142
-533,364	17,812	0,022	-0,013
-532,350	197,301	0,107	-0,121
-531,335	344,886	0,053	0,076
-530,321	384,491	-0,059	0,089
-529,306	470,436	-0,036	0,060
-528,291	270,654	-0,072	-0,094
-527,277	225,510	-0,045	0,053
-526,262	-200,000	-0,034	-0,112
-525,248	800,000	0,017	-0,043
-524,233	800,000	0,014	-0,042
-523,218	800,000	-0,074	0,166
-522,204	210,025	0,054	0,062
-521,189	-194,092	0,086	-0,001
-520,175	121,784	-0,076	-0,070
-519,160	-200,000	-0,022	0,076
-518,145	-200,000	-0,007	-0,057
-517,131	-130,910	0,149	0,014
-516,116	-60,642	0,118	0,036
-515,102	-70,383	0,142	0,039
-514,087	502,818	-0,020	0,034
-513,072	-22,296	-0,049	-0,022
-512,058	-14,699	0,044	-0,021
-511,043	427,037	-0,012	-0,019
-510,029	43,747	0,058	-0,039
-509,014	18,936	-0,039	0,023
-507,999	108,846	0,086	0,076
-506,985	13,200	-0,118	-0,067
-505,970	-137,397	-0,136	-0,011
-504,956	-200,000	0,030	0,098
-503,941	34,819	-0,059	0,038
-502,926	-10,699	0,058	0,028
-501,912	179,369	0,080	0,086
-500,897	-200,000	0,001	0,075
-499,883	-200,000	-0,000	-0,018
-498,868	-200,000	-0,020	-0,174
-497,853	-155,893	0,068	-0,003
-496,839	-132,960	-0,062	0,006
-495,824	-28,029	0,148	0,062
-494,810	30,058	0,053	-0,033
-493,795	-200,000	-0,020	0,098
-492,781	671,820	0,057	0,109
-491,766	-84,050	-0,113	0,026
-490,751	-200,000	-0,032	-0,131
-489,737	-106,208	0,030	0,005
-488,722	271,970	0,024	0,031
-487,708	271,017	-0,041	0,053
-486,693	791,317	-0,021	0,042
-485,678	-200,000	-0,006	0,070
-484,664	500,499	-0,099	-0,168
-483,649	100,977	-0,070	-0,060
-482,635	-200,000	0,010	-0,069
-481,620	-200,000	-0,001	0,025
-480,605	22,272	-0,079	0,047
-479,591	508,244	0,102	0,174
-478,576	-200,000	0,022	-0,100
-477,562	91,003	-0,186	-0,153
-476,547	-200,000	-0,001	0,101
-475,532	34,291	0,047	0,030
-474,518	800,000	-0,036	-0,092
-473,503	30,396	-0,033	-0,020
-472,489	483,633	-0,033	-0,056
-471,474	800,000	0,039	0,080
-470,459	-52,002	-0,035	0,012
-469,445	-200,000	-0,027	-0,236
-468,430	-118,189	0,026	-0,003
-467,416	156,615	0,125	-0,127
-466,401	-73,140	0,104	0,028
-465,386	800,000	-0,028	0,086
-464,372	234,054	0,059	0,071
-463,357	121,609	0,088	0,080
-462,343	-57,036	-0,083	-0,027
-461,328	181,721	-0,032	0,035
-460,313	451,491	-0,046	0,075
-459,299	379,879	0,038	0,058
-458,284	652,205	-0,061	0,116
-457,270	-64,098	-0,094	-0,028
-456,255	-200,000	0,001	-0,027
-455,241	-153,345	-0,068	-0,003
-454,226	160,846	-0,065	0,066
-453,211	530,810	0,061	-0,107
-452,197	65,885	-0,120	0,089
-451,182	-200,000	0,017	0,100
-450,168	-117,870	-0,048	0,006
-449,153	22,358	-0,060	0,036
-448,138	800,000	0,025	-0,054
-447,124	582,948	-0,014	-0,025
-446,109	-200,000	-0,010	0,040
-445,095	779,868	0,051	0,103
-444,080	-84,046	0,013	0,003
-443,065	508,850	0,019	-0,033
-442,051	48,756	-0,088	-0,061
-441,036	-200,000	-0,060	0,000
-440,022	-27,923	0,053	-0,022
-439,007	800,000	0,009	0,020
-437,992	369,486	0,023	-0,034
-436,978	35,762	-0,148	0,095
-435,963	-30,700	0,145	0,060
-434,949	-200,000	0,000	0,157
-433,934	84,405	0,039	0,031
-432,919	-165,786	-0,030	-0,001
-431,905	-200,000	0,031	-0,155
-430,890	457,244	0,028	-0,046
-429,876	12,942	0,109	0,062
-428,861	-200,000	-0,009	0,116
-427,846	800,000	0,017	0,043
-426,832	-200,000	-0,016	-0,072
-425,817	-200,000	-0,007	-0,028
-424,803	591,748	0,043	-0,078
-423,788	17,120	0,110	0,064
-422,773	-200,000	-0,008	0,037
-421,759	-128,641	0,032	0,003
-420,744	-32,255	0,122	0,050
-419,730	763,201	-0,047	-0,093
-418,715	-129,840	-0,102	-0,010
-417,701	245,501	0,033	0,040
-416,686	800,000	0,027	0,075
-415,671	182,200	-0,082	0,089
-414,657	150,879	-0,054	0,053
-413,642	-143,907	-0,040	0,003
-412,628	222,378	-0,010	-0,012
-411,613	-27,399	-0,158	-0,067
-410,598	65,776	0,126	-0,093
-409,584	-25,825	0,122	0,052
-408,569	-200,000	-0,007	0,142
-407,555	-55,637	0,179	-0,058
-406,540	295,646	-0,113	0,151
-405,525	-53,205	-0,096	-0,032
-404,511	800,000	-0,024	-0,071
-403,496	-200,000	0,014	-0,059
-402,482	211,947	0,048	-0,056
-401,467	187,855	-0,056	0,061
-400,452	-129,846	0,054	0,005
-399,438	-16,508	0,023	-0,011
-398,423	-141,264	-0,058	0,004
-397,409	-88,014	-0,083	0,018
-396,394	-131,644	-0,014	0,001
-395,379	67,483	-0,001	0,001
-394,365	3,234	0,102	-0,054
-393,350	224,993	-0,046	-0,054
-392,336	-200,000	0,018	-0,085
-391,321	-200,000	-0,008	0,111
-390,306	-101,369	0,097	-0,017
-389,292	-124,451	-0,102	-0,012
-388,277	555,066	0,042	-0,074
-387,263	353,379	-0,048	0,070
-386,248	-81,080	0,126	0,030
-385,233	-200,000	0,012	0,050
-384,219	-200,000	-0,010	-0,180
-383,204	800,000	-0,004	-0,010
-382,190	-126,956	-0,022	0,002
-381,175	-200,000	0,023	-0,161
-380,160	-200,000	0,010	0,041
-379,146	20,793	0,144	0,085
-378,131	-200,000	-0,008	0,035
-377,117	218,707	-0,067	0,078
-376,102	-128,239	0,031	-0,003
-375,088	663,664	0,019	-0,035
-374,073	159,897	-0,057	0,058
-373,058	-125,208	0,116	0,013
-372,044	-89,101	0,168	0,036
-371,029	800,000	-0,075	0,182
-370,015	800,000	-0,041	0,092
-369,000	192,085	-0,044	0,048
-367,985	-200,000	-0,015	-0,123
-366,971	-47,270	0,081	-0,029
-365,956	800,000	0,026	-0,065
-364,942	800,000	0,045	-0,109
-363,927	-200,000	-0,023	0,125
-362,912	102,234	-0,072	-0,061
-361,898	-200,000	0,005	0,048
-360,883	-200,000	0,015	-0,062
-359,869	800,000	0,037	-0,114
-358,854	26,923	0,035	-0,021
-357,839	-185,824	0,282	-0,003
-356,825	202,087	0,052	-0,058
-355,810	34,763	-0,074	0,047
-354,796	60,662	0,084	0,061
-353,781	-19,133	-0,082	-0,037
-352,766	800,000	0,028	-0,072
-351,752	681,101	-0,069	-0,132
-350,737	76,000	0,035	-0,027
-349,723	-200,000	0,015	0,077
-348,708	769,057	-0,044	-0,089
-347,693	45,347	-0,032	0,022
-346,679	148,526	-0,064	-0,063
-345,664	730,922	-0,044	-0,085
-344,650	-200,000	-0,053	-0,239
-343,635	-4,802	0,091	0,046
-342,620	258,084	0,153	0,192
-341,606	346,844	-0,046	-0,066
-340,591	-102,983	-0,033	-0,006
-339,577	-141,826	-0,120	-0,009
-338,562	186,795	-0,052	0,057
-337,548	-200,000	-0,024	-0,119
-336,533	-200,000	-0,009	0,136
-335,518	-91,611	0,059	0,012
-334,504	135,574	-0,021	-0,020
-333,489	800,000	0,010	0,027
-332,475	-26,386	-0,104	0,044
-331,460	39,512	-0,024	-0,016
-330,445	-126,958	-0,019	-0,002
-329,431	-0,274	0,122	-0,063
-328,416	-108,742	0,090	0,014
-327,402	553,758	0,031	-0,054
-326,387	-200,000	-0,002	-0,070
-325,372	87,418	0,035	-0,028
-324,358	-1,696	-0,117	0,060
-323,343	-157,776	-0,056	0,002
-322,329	-120,041	-0,008	-0,001
-321,314	21,729	0,112	0,067
-320,299	-163,913	0,062	0,002
-319,285	198,620	0,146	0,163
-318,270	-155,118	0,065	0,003
-317,256	-200,000	0,043	-0,155
-316,241	38,112	0,066	-0,043
-315,226	59,445	-0,139	0,100
-314,212	800,000	0,053	0,131
-313,197	800,000	-0,032	0,092
-312,183	221,120	0,034	0,039
-311,168	-63,594	-0,030	-0,009
-310,153	103,951	-0,167	0,143
-309,139	-200,000	0,030	0,098
-308,124	189,007	0,038	0,042
-307,110	-200,000	0,004	-0,187
-306,095	129,062	0,085	-0,079
-305,080	-200,000	-0,008	-0,064
-304,066	-195,654	-0,133	0,001
-303,051	28,682	-0,064	0,039
-302,037	-200,000	0,006	-0,149
-301,022	345,456	-0,045	-0,065
-300,008	403,838	0,071	0,110
-298,993	253,191	0,079	0,098
-297,978	-200,000	0,007	0,058
-296,964	15,699	0,071	0,041
-295,949	-66,049	-0,104	0,030
-294,935	202,609	0,054	0,061
-293,920	84,908	0,059	0,047
-292,905	328,287	0,065	0,092
-291,891	19,863	0,169	0,099
-290,876	-86,838	-0,086	-0,019
-289,862	274,060	0,036	-0,046
-288,847	-200,000	-0,014	-0,052
-287,832	800,000	-0,023	-0,052
-286,818	-200,000	-0,005	0,119
-285,803	-13,244	0,084	0,040
-284,789	592,446	0,024	-0,043
-283,774	21,523	-0,040	0,024
-282,759	360,748	-0,038	0,056
-281,745	28,914	-0,048	0,029
-280,730	800,000	0,026	0,074
-279,716	775,221	-0,009	-0,019
-278,701	-43,673	0,033	0,012
-277,686	13,467	0,141	0,080
-276,672	19,850	-0,039	-0,023
-275,657	244,168	0,073	0,090
-274,643	-119,658	-0,073	-0,009
-273,628	250,605	0,077	0,095
-272,613	457,442	0,062	-0,100
-271,599	-200,000	0,016	0,064
-270,584	142,077	0,147	0,142
-269,570	-200,000	0,009	-0,033
-268,555	122,256	0,067	-0,061
-267,540	-200,000	0,002	0,139
-266,526	24,087	-0,015	0,009
-265,511	-200,000	0,006	-0,130
-264,497	114,336	-0,093	0,082
-263,482	693,401	-0,059	0,114
-262,467	-122,846	0,050	0,006
-261,453	-86,567	-0,120	0,026
-260,438	-99,877	-0,087	-0,016
-259,424	451,458	0,027	-0,043
-258,409	-200,000	0,003	0,062
-257,395	215,580	0,091	0,105
-256,380	-200,000	-0,004	-0,070
-255,365	395,712	-0,054	-0,082
-254,351	-176,767	0,028	-0,001
-253,336	53,160	-0,157	-0,109
-252,322	-46,373	-0,053	0,019
-251,307	-200,000	-0,013	-0,064
-250,292	-200,000	0,005	0,051
-249,278	340,109	0,143	0,203
-248,263	52,156	0,099	0,069
-247,249	-52,491	0,093	-0,031
-246,234	-13,357	-0,093	0,044
-245,219	-62,308	-0,191	0,058
-244,205	279,220	-0,019	0,025
-243,190	800,000	0,020	-0,053
-242,176	-44,417	-0,051	0,018
-241,161	-200,000	0,004	0,054
-240,146	56,512	0,083	0,059
-239,132	580,748	-0,114	0,205
-238,117	-14,390	-0,041	0,019
-237,103	663,543	0,021	-0,039
-236,088	-200,000	0,021	-0,094
-235,073	-136,136	0,054	-0,005
-234,059	-172,308	-0,084	-0,002
-233,044	88,938	0,120	0,097
-232,030	32,409	0,131	-0,082
-231,015	-100,349	0,078	0,014
-230,000	-135,856	-0,078	0,007
-228,986	95,469	-0,095	-0,079
-227,971	53,423	0,074	-0,051
-226,957	-15,584	0,017	-0,008
-225,942	539,446	0,033	-0,057
-224,927	0,572	-0,117	-0,061
-223,913	355,255	0,037	-0,054
-222,898	-181,737	0,034	0,000
-221,884	-124,983	0,141	-0,016
-220,869	416,880	-0,038	-0,060
-219,855	-143,891	0,122	0,008
-218,840	-200,000	-0,012	0,101
-217,825	519,036	-0,033	0,057
-216,811	-200,000	-0,008	0,036
-215,796	800,000	0,037	-0,098
-214,782	16,942	-0,039	-0,022
-213,767	-139,289	-0,026	-0,002
-212,752	441,466	0,036	-0,058
-211,738	-200,000	0,019	-0,061
-210,723	613,432	0,041	-0,075
-209,709	115,277	-0,157	-0,139
-208,694	171,543	0,070	-0,073
-207,679	-110,104	-0,185	-0,028
-206,665	363,624	0,076	0,112
-205,650	-200,000	-0,005	-0,021
-204,636	-40,418	0,034	0,013
-203,621	640,074	-0,063	-0,116
-202,606	124,607	-0,043	0,039
-201,592	498,021	-0,056	0,094
-200,577	-200,000	-0,036	0,115
-199,563	-200,000	-0,032	0,110
-198,548	800,000	0,029	0,071
-197,533	-46,439	-0,083	-0,030
-196,519	327,460	0,064	0,089
-195,504	800,000	0,011	-0,034
-194,490	2,907	-0,122	0,064
-193,475	15,670	-0,153	-0,087
-192,460	-126,266	-0,069	-0,007
-191,446	-123,089	-0,092	-0,011
-190,431	-200,000	0,007	-0,111
-189,417	-190,603	-0,161	0,001
-188,402	-200,000	0,003	0,026
-187,387	202,477	-0,045	0,051
-186,373	5,530	-0,082	-0,044
-185,358	146,223	-0,107	-0,104
-184,344	-24,504	0,059	-0,025
-183,329	-95,403	0,071	0,014
-182,315	98,569	0,053	-0,044
-181,300	293,500	0,087	-0,115
-180,285	800,000	0,022	-0,048
-179,271	41,038	-0,057	-0,037
-178,256	-200,000	-0,003	-0,068
-177,242	541,972	0,021	-0,037
-176,227	-8,389	0,062	-0,030
-175,212	800,000	-0,004	-0,009
-174,198	-82,175	-0,023	0,005
-173,183	-132,423	-0,185	-0,017
-172,169	-200,000	0,027	-0,158
-171,154	800,000	0,024	-0,066
-170,139	146,561	0,050	-0,049
-169,125	-200,000	-0,001	0,067
-168,110	133,860	0,086	-0,081
-167,096	-200,000	0,012	-0,073
-166,081	-89,392	-0,063	0,013
-165,066	52,040	0,064	-0,044
-164,052	-200,000	0,008	-0,057
-163,037	353,960	-0,047	0,068
-162,023	268,694	0,053	0,067
-161,008	351,655	0,119	0,172
-159,993	472,699	-0,034	-0,055
-158,979	100,518	0,080	-0,068
-157,964	744,014	-0,022	-0,042
-156,950	-80,670	0,059	0,014
-155,935	24,631	-0,086	-0,051
-154,920	243,563	0,101	0,124
-153,906	800,000	-0,048	0,126
-152,891	-41,820	0,069	0,026
-151,877	169,894	-0,020	0,021
-150,862	-24,815	-0,038	0,016
-149,847	-10,345	0,084	0,040
-148,833	-200,000	0,024	0,076
-147,818	-155,908	-0,103	0,005
-146,804	-65,471	0,085	-0,025
-145,789	-200,000	-0,031	-0,101
-144,775	151,772	-0,085	-0,084
-143,760	-200,000	0,000	-0,054
-142,745	-200,000	-0,006	-0,110
-141,731	-62,548	-0,023	0,007
-140,716	800,000	-0,042	-0,104
-139,702	60,364	-0,119	0,085
-138,687	800,000	0,010	0,028
-137,672	-200,000	-0,004	0,026
-136,658	188,066	-0,060	0,065
-135,643	-200,000	0,006	-0,043
-134,629	142,074	-0,095	-0,091
-133,614	76,183	0,091	0,070
-132,599	-177,460	-0,020	0,000
-131,585	-200,000	0,007	0,027
-130,570	242,288	0,078	-0,095
-129,556	-100,415	-0,067	-0,012
-128,541	168,693	0,061	0,063
-127,526	170,542	-0,044	-0,045
-126,512	226,034	-0,019	-0,022
-125,497	-13,423	0,097	-0,045
-124,483	-200,000	0,006	-0,039
-123,468	-200,000	-0,023	-0,082
-122,453	94,634	-0,109	-0,089
-121,439	293,266	-0,062	-0,083
-120,424	-136,153	-0,074	0,006
-119,410	-108,913	-0,134	-0,020
-118,395	43,721	0,047	-0,031
-117,380	249,808	0,047	-0,058
-116,366	64,810	-0,139	-0,101
-115,351	224,242	0,038	0,044
-114,337	282,884	-0,025	0,033
-113,322	-120,858	0,131	-0,016
-112,307	141,575	0,072	0,069
-111,293	321,683	-0,033	-0,046
-110,278	311,671	-0,089	0,121
-109,264	389,506	0,026	-0,040
-108,249	-44,509	-0,031	-0,011
-107,234	-200,000	0,019	0,122
-106,220	-123,748	-0,121	-0,014
-105,205	-165,394	-0,109	0,003
-104,191	-84,197	-0,078	-0,018
-103,176	-109,860	0,047	-0,007
-102,162	-120,197	-0,160	0,020
-101,147	381,321	0,041	-0,061
-100,132	261,503	0,040	0,050
-99,118	-24,993	-0,170	0,073
-98,103	800,000	-0,043	-0,135
-97,089	30,466	-0,040	-0,025
-96,074	142,696	0,010	0,009
-95,059	35,516	-0,090	-0,057
-94,045	-200,000	0,024	0,094
-93,030	-28,186	-0,083	0,035
-92,016	-200,000	0,039	-0,169
-91,001	-4,936	-0,146	-0,072
-89,986	255,855	0,026	-0,033
-88,972	800,000	0,019	0,043
-87,957	-135,090	-0,049	-0,004
-86,943	44,338	-0,084	0,056
-85,928	310,016	0,050	-0,068
-84,913	164,540	0,069	0,070
-83,899	-200,000	-0,013	-0,070
-82,884	-56,213	-0,105	-0,034
-81,870	-59,249	0,014	-0,004
-80,855	146,140	0,080	0,078
-79,840	47,221	0,057	-0,038
-78,826	112,019	-0,118	-0,103
-77,811	-200,000	0,013	-0,080
-76,797	57,246	0,033	-0,023
-75,782	-200,000	0,013	0,086
-74,767	-200,000	0,002	0,054
-73,753	147,208	0,073	0,071
-72,738	-152,910	-0,206	-0,010
-71,724	-116,475	0,016	-0,002
-70,709	-16,345	0,030	-0,014
-69,694	-174,938	-0,064	-0,001
-68,680	-119,855	-0,038	0,005
-67,665	93,898	0,073	-0,059
-66,651	712,671	0,026	0,050
-65,636	-41,057	-0,055	-0,020
-64,622	422,414	0,063	-0,098
-63,607	-24,470	-0,100	-0,043
-62,592	-200,000	-0,022	0,134
-61,578	-200,000	-0,001	0,028
-60,563	-118,207	-0,089	-0,011
-59,549	-35,691	0,148	0,058
-58,534	-20,650	-1,697	-0,749
-57,519	800,000	-0,616	-1,297
-56,505	-200,000	-1,166	-4,637
-55,490	-91,213	0,584	-0,120
-54,476	800,000	5,265	12,129
-53,461	-200,000	15,748	277,936
-52,446	-200,000	702,837	2243,789
-51,432	561,185	1619,495	2837,095
-50,417	121,089	1623,806	1458,627
-49,403	81,289	1284,252	1000,673
-48,388	36,702	1028,320	654,241
-47,373	21,552	990,092	579,828
-46,359	20,517	978,741	569,747
-45,344	18,769	974,693	561,620
-44,330	18,863	973,303	561,106
-43,315	18,578	971,672	559,209
-42,300	18,565	970,582	558,518
-41,286	18,615	969,514	558,043
-40,271	18,559	968,672	557,355
-39,257	18,618	967,714	556,975
-38,242	18,517	967,171	556,309
-37,227	18,622	966,265	556,109
-36,213	18,574	965,521	555,503
-35,198	18,533	964,510	554,766
-34,184	18,638	963,777	554,661
-33,169	18,486	962,884	553,634
-32,154	18,593	961,900	553,392
-31,140	18,652	960,953	553,017
-30,125	18,648	960,094	552,487
-29,111	18,615	959,654	552,106
-28,096	18,629	958,929	551,712
-27,082	18,621	958,193	551,240
-26,067	18,563	957,452	550,606
-25,052	18,513	956,630	549,949
-24,038	18,620	955,929	549,871
-23,023	18,587	955,146	549,290
-22,009	18,633	954,649	549,132
-20,994	18,513	954,086	548,401
-19,979	18,579	953,430	548,213
-18,965	18,589	952,804	547,863
-17,950	18,569	952,009	547,319
-16,936	18,520	951,569	546,889
-15,921	18,487	950,995	546,430
-14,906	18,406	950,322	545,762
-13,892	18,479	949,374	545,430
-12,877	18,472	948,747	545,027
-11,863	18,407	948,303	544,543
-10,848	18,378	947,822	544,151
-9,833	18,517	947,252	544,247
-8,819	18,545	946,580	543,930
-7,804	18,437	945,873	543,156
-6,790	18,464	945,419	542,961
-5,775	18,506	944,675	542,646
-4,760	18,414	944,107	542,005
-3,746	18,449	943,668	541,842
-2,731	18,330	942,708	540,892
-1,717	18,302	942,041	540,398
-0,702	18,304	941,292	539,952
0,313	18,088	940,730	539,759
1,327	21,112	939,094	548,349
2,342	29,986	796,771	488,888
3,356	27,002	449,323	271,197
4,371	-2,586	295,203	148,532
5,386	-6,601	276,410	135,253
6,400	-7,846	270,605	131,242
7,415	-8,174	268,219	129,771
8,429	-7,921	266,984	129,394
9,444	-8,045	266,035	128,809
10,459	-7,928	265,364	128,579
11,473	-8,163	264,813	128,087
12,488	-8,222	264,186	127,719
13,502	-8,464	263,667	127,237
14,517	-8,540	263,273	126,967
15,531	-8,349	262,974	126,984
16,546	-8,118	262,578	126,990
17,561	-8,326	262,317	126,665
18,575	-8,083	261,936	126,689
19,590	-8,250	261,551	126,341
20,604	-8,332	261,291	126,130
21,619	-8,210	260,882	126,031
22,634	-8,218	260,388	125,775
23,648	-8,311	260,170	125,574
24,663	-8,193	259,867	125,523
25,677	-8,310	259,774	125,362
26,692	-8,381	259,570	125,189
27,707	-8,229	259,225	125,147
28,721	-8,284	258,914	124,936
29,736	-8,352	258,792	124,806
30,750	-8,580	258,510	124,456
31,765	-8,389	258,191	124,462
32,780	-8,349	258,016	124,401
33,794	-8,234	257,760	124,368
34,809	-8,343	257,574	124,171
35,823	-8,476	257,235	123,879
36,838	-8,295	256,891	123,862
37,853	-8,226	256,682	123,811
38,867	-8,230	256,432	123,675
39,882	-8,186	256,182	123,583
40,896	-8,341	256,076	123,385
41,911	-8,362	255,718	123,183
42,926	-8,440	255,693	123,091
43,940	-8,594	255,386	122,798
44,955	-8,516	255,123	122,729
45,969	-8,406	255,042	122,775
46,984	-8,821	254,704	122,238
47,999	-9,042	254,333	121,857
49,013	-9,024	254,211	121,803
50,028	-9,260	253,946	121,460
51,042	-9,436	253,648	121,154
52,057	-9,483	253,448	121,006
53,071	-9,194	253,185	121,121
54,086	-9,146	253,233	121,175
55,101	-9,078	252,942	121,084
56,115	-8,733	252,850	121,328
57,130	-8,561	252,851	121,466
58,144	-8,224	252,611	121,632
59,159	-8,113	252,362	121,597
60,174	-8,097	252,281	121,561
61,188	-8,164	251,919	121,318
62,203	-8,166	251,573	121,139
63,217	-8,268	251,550	121,029
64,232	-8,157	251,274	120,981
65,247	-8,326	251,227	120,803
66,261	-8,353	250,828	120,576
67,276	-8,360	250,532	120,418
68,290	-8,741	250,352	119,994
69,305	-8,764	250,031	119,810
70,320	-8,785	249,759	119,651
71,334	-8,552	249,768	119,843
72,349	-8,125	249,620	120,126
73,363	-8,116	249,503	120,066
74,378	-8,260	249,248	119,811
75,393	-8,035	249,047	119,895
76,407	-8,264	248,850	119,595
77,422	-8,400	248,642	119,369
78,436	-8,143	248,360	119,440
79,451	-8,167	248,158	119,312
80,466	-8,392	248,034	119,051
81,480	-8,555	247,662	118,724
82,495	-8,737	247,521	118,492
83,509	-8,364	247,311	118,696
84,524	-8,506	247,138	118,482
85,539	-8,678	246,954	118,239
86,553	-8,776	246,675	118,012
87,568	-8,693	246,494	117,985
88,582	-8,808	246,339	117,804
89,597	-8,608	246,230	117,909
90,611	-8,569	246,110	117,873
91,626	-8,477	245,994	117,885
92,641	-8,345	245,699	117,843
93,655	-8,345	245,463	117,720
94,670	-8,482	245,181	117,460
95,684	-8,363	245,024	117,474
96,699	-8,703	245,142	117,235
97,714	-8,665	244,765	117,077
98,728	-8,709	244,475	116,890
99,743	-8,883	244,234	116,620
100,757	-8,734	243,895	116,571
101,772	-8,912	243,902	116,416
102,787	-8,616	243,723	116,567
103,801	-8,634	243,619	116,491
104,816	-8,644	243,436	116,385
105,830	-8,439	243,283	116,472
106,845	-8,485	243,304	116,433
107,860	-8,483	243,023	116,290
108,874	-8,364	242,604	116,178
109,889	-8,443	242,439	116,023
110,903	-8,539	242,344	115,887
111,918	-8,602	241,932	115,629
112,933	-8,535	241,918	115,667
113,947	-8,529	241,917	115,661
114,962	-8,318	241,685	115,713
115,976	-8,397	241,424	115,513
116,991	-8,492	241,283	115,358
118,006	-8,425	241,089	115,309
119,020	-8,593	240,971	115,105
120,035	-8,436	240,986	115,231
121,049	-8,436	240,840	115,150
122,064	-8,228	240,467	115,132
123,079	-8,381	240,290	114,912
124,093	-8,493	240,283	114,807
125,108	-8,648	239,788	114,433
126,122	-8,862	239,648	114,182
127,137	-8,936	239,466	114,024
128,151	-8,742	239,209	114,050
129,166	-8,887	239,193	113,914
130,181	-8,849	238,986	113,836
131,195	-8,601	238,814	113,945
132,210	-8,675	238,626	113,786
133,224	-8,535	238,544	113,850
134,239	-8,384	238,242	113,818
135,254	-8,476	238,197	113,712
136,268	-8,457	237,869	113,561
137,283	-8,777	237,641	113,183
138,297	-8,969	237,516	112,958
139,312	-8,849	237,234	112,911
140,327	-8,502	237,330	113,227
141,341	-8,192	237,319	113,461
142,356	-7,979	237,072	113,505
143,370	-7,996	236,857	113,378
144,385	-7,986	236,769	113,334
145,400	-8,001	236,525	113,195
146,414	-7,940	236,257	113,106
147,429	-8,106	236,176	112,924
148,443	-8,183	235,966	112,751
149,458	-8,260	235,899	112,648
150,473	-8,210	235,869	112,663
151,487	-8,277	235,492	112,420
152,502	-8,220	235,328	112,377
153,516	-8,012	235,191	112,467
154,531	-8,174	234,994	112,234
155,546	-8,018	234,782	112,247
156,560	-8,224	234,675	112,021
157,575	-8,326	234,352	111,777
158,589	-8,263	234,213	111,750
159,604	-7,953	234,074	111,920
160,619	-7,789	233,942	111,977
161,633	-7,801	233,858	111,918
162,648	-7,884	233,916	111,870
163,662	-8,115	233,699	111,572
164,677	-8,102	233,367	111,414
165,692	-8,197	233,267	111,281
166,706	-7,779	233,055	111,501
167,721	-7,858	232,917	111,363
168,735	-7,940	232,896	111,278
169,750	-7,880	232,603	111,175
170,764	-7,917	232,477	111,076
171,779	-8,047	232,450	110,951
172,794	-7,966	232,211	110,890
173,808	-8,189	232,042	110,625
174,823	-8,571	231,552	110,081
175,837	-8,839	231,515	109,844
176,852	-8,166	231,476	110,343
177,867	-8,064	231,225	110,294
178,881	-8,204	231,321	110,220
179,896	-8,067	231,075	110,200
180,910	-7,760	230,959	110,375
181,925	-8,044	230,834	110,083
182,940	-7,893	230,618	110,089
183,954	-7,819	230,570	110,113
184,969	-7,772	230,319	110,020
185,983	-7,833	230,197	109,905
186,998	-7,621	229,969	109,951
188,013	-7,713	229,768	109,774
189,027	-7,816	229,624	109,615
190,042	-7,577	229,567	109,764
191,056	-7,908	229,474	109,453
192,071	-7,833	229,221	109,380
193,086	-7,976	229,097	109,201
194,100	-7,927	228,963	109,165
195,115	-8,019	228,433	108,831
196,129	-8,856	228,363	108,141
197,144	-4,540	229,854	112,192
198,159	0,811	231,206	117,013
199,173	3,319	231,918	119,319
200,188	3,650	231,890	119,551
201,202	3,615	231,711	119,421
202,217	3,971	231,623	119,642
203,232	4,257	231,455	119,767
204,246	4,033	231,291	119,498
205,261	4,028	231,340	119,508
206,275	4,238	231,125	119,549
207,290	4,400	231,097	119,650
208,304	4,342	230,820	119,451
209,319	4,150	230,713	119,237
210,334	4,126	230,431	119,061
211,348	3,809	230,156	118,663
212,363	3,550	229,902	118,322
213,377	3,338	229,744	118,067
214,392	3,358	229,537	117,965
215,407	3,667	229,575	118,213
216,421	3,626	229,489	118,126
217,436	3,516	229,116	117,839
218,450	3,008	228,963	117,360
219,465	3,117	228,873	117,387
220,480	3,272	228,647	117,379
221,494	3,151	228,555	117,229
222,509	3,440	228,492	117,408
223,523	3,489	228,205	117,287
224,538	3,293	228,129	117,088
225,553	3,313	228,018	117,036
226,567	3,487	227,911	117,103
227,582	3,672	227,821	117,188
228,596	3,819	227,778	117,267
229,611	3,438	227,478	116,813
230,626	3,262	226,997	116,421
231,640	3,245	227,085	116,443
232,655	3,565	226,998	116,631
233,669	3,772	227,043	116,801
234,684	3,916	226,784	116,767
235,699	3,989	226,483	116,657
236,713	3,494	226,401	116,229
237,728	3,384	226,157	116,010
238,742	3,339	225,898	115,833
239,757	3,319	225,790	115,752
240,772	3,370	225,737	115,753
241,786	3,085	225,671	115,494
242,801	3,661	225,523	115,842
243,815	4,031	225,463	116,080
244,830	3,812	225,367	115,855
245,844	3,534	225,190	115,544
246,859	3,634	224,848	115,434
247,874	3,479	224,898	115,333
248,888	3,846	224,730	115,512
249,903	3,367	224,523	115,036
250,917	3,414	224,354	114,974
251,932	3,293	224,207	114,798
252,947	3,353	223,895	114,673
253,961	3,392	223,721	114,603
254,976	3,439	223,648	114,590
255,990	3,316	223,666	114,497
257,005	3,670	223,522	114,677
258,020	3,647	223,419	114,598
259,034	3,711	223,278	114,563
260,049	3,780	223,107	114,516
261,063	3,772	222,908	114,398
262,078	3,914	222,782	114,428
263,093	3,713	222,694	114,224
264,107	3,773	222,455	114,135
265,122	3,805	222,420	114,131
266,136	3,816	222,374	114,105
267,151	3,973	222,197	114,121
268,166	3,626	221,792	113,646
269,180	3,306	221,693	113,348
270,195	3,291	221,607	113,283
271,209	3,419	221,382	113,253
272,224	3,490	221,373	113,290
273,239	3,699	221,143	113,316
274,253	3,499	220,990	113,081
275,268	3,313	220,758	112,815
276,282	3,252	220,560	112,658
277,297	3,375	220,490	112,703
278,312	3,409	220,475	112,710
279,326	3,272	220,403	112,563
280,341	3,396	220,164	112,522
281,355	3,609	220,010	112,589
282,370	3,473	219,877	112,412
283,384	3,163	219,768	112,119
284,399	2,973	219,463	111,815
285,414	3,257	219,393	111,977
286,428	3,386	219,366	112,047
287,443	3,441	219,266	112,026
288,457	3,466	219,072	111,935
289,472	3,320	218,912	111,737
290,487	2,848	218,603	111,225
291,501	2,739	218,421	111,044
292,516	3,099	218,337	111,253
293,530	3,064	218,142	111,118
294,545	3,075	218,155	111,123
295,560	3,403	218,036	111,290
296,574	3,327	217,930	111,172
297,589	3,668	217,636	111,259
298,603	3,731	217,605	111,279
299,618	3,430	217,493	110,993
300,633	3,393	217,458	110,939
301,647	3,659	217,400	111,092
302,662	3,705	217,168	110,997
303,676	3,468	217,130	110,796
304,691	3,533	216,865	110,698
305,706	3,817	216,650	110,783
306,720	3,778	216,532	110,684
307,735	3,137	216,493	110,193
308,749	3,168	216,144	110,028
309,764	3,668	216,021	110,315
310,779	3,676	216,074	110,338
311,793	3,598	215,810	110,137
312,808	3,568	215,643	110,021
313,822	3,282	215,605	109,786
314,837	3,254	215,192	109,546
315,852	3,206	215,092	109,451
316,866	3,597	215,076	109,713
317,881	3,679	215,204	109,827
318,895	3,669	214,954	109,683
319,910	3,350	214,760	109,346
320,925	3,390	214,448	109,206
321,939	2,791	214,416	108,753
322,954	3,059	214,304	108,877
323,968	3,409	214,314	109,122
324,983	3,654	214,059	109,157
325,997	3,505	214,038	109,031
327,012	3,481	213,811	108,888
328,027	3,377	213,746	108,771
329,041	3,786	213,685	109,021
330,056	3,931	213,510	109,025
331,070	3,393	213,368	108,562
332,085	3,229	213,052	108,275
333,100	3,284	212,838	108,195
334,114	3,480	212,804	108,307
335,129	3,752	212,595	108,383
336,143	3,346	212,644	108,111
337,158	3,481	212,375	108,061
338,173	3,526	212,227	108,007
339,187	3,214	212,151	107,739
340,202	3,026	211,974	107,507
341,216	3,060	211,741	107,404
342,231	3,478	211,547	107,589
343,246	3,113	211,560	107,330
344,260	3,289	211,413	107,369
345,275	3,500	211,361	107,481
346,289	3,438	211,268	107,381
347,304	3,496	211,091	107,322
348,319	3,399	210,814	107,103
349,333	3,191	210,748	106,915
350,348	3,575	210,666	107,132
351,362	3,383	210,703	107,007
352,377	3,574	210,448	107,002
353,392	3,395	210,309	106,796
354,406	3,563	210,116	106,806
355,421	195,398	1340,286	1425,822
356,435	156,038	1478,017	1425,857
