DTS Sentinel unit serial number:	SN410029Multiplexer serial number:	ORYXHardware model number:	OX2-SRSoftware version number:	ORYX F/W v4,00 Oryx Data Collector v3.7.2.0data status	okinstallation	B6 Nyhavnadifferential loss correction	single-endedforward channel	channel 2reverse channel	N/Adate	2023/12/08time	07:20:08forward acquisition time	300,00reverse acquisition time	0,00gamma	499,1914k internal	0,3166k external	0,3166temperature offset calibration	1,0000default loss term (dB/km)	0,3820temperature slope calibration	1,0000multiplexer offset coefficient	1,0000multiplexer slope coefficient	1,0000fibre end	0,00T internal ref (°C)	13,16T ext. ref 1 (°C)	-3,37T ext. ref 2 (°C)	-3,36length (m)	temperature (°C)	Stokes	anti-Stokes-744,400	516,500	0,084	-0,145
-743,385	-105,050	-0,156	-0,026
-742,371	-29,753	0,148	0,062
-741,356	-180,469	-0,145	0,002
-740,342	-79,497	0,079	0,019
-739,327	-105,018	-0,336	-0,056
-738,312	800,000	0,048	0,113
-737,298	-70,947	-0,414	-0,114
-736,283	-155,646	0,082	0,004
-735,269	-28,609	-0,270	0,114
-734,254	82,067	0,124	0,099
-733,239	-46,905	-0,490	-0,175
-732,225	-95,885	0,148	-0,029
-731,210	-11,434	0,034	0,017
-730,196	-140,203	0,047	-0,004
-729,181	-73,171	-0,086	-0,023
-728,167	800,000	0,037	-0,093
-727,152	148,354	0,080	-0,080
-726,137	29,854	-0,121	-0,076
-725,123	27,495	0,090	0,055
-724,108	-87,313	-0,067	0,015
-723,094	62,339	-0,146	-0,107
-722,079	-5,575	-0,080	-0,040
-721,064	20,690	-0,069	-0,041
-720,050	800,000	-0,017	0,049
-719,035	-111,395	0,125	0,019
-718,021	711,582	-0,071	-0,138
-717,006	-51,820	0,042	-0,014
-715,991	-154,993	-0,084	0,004
-714,977	-200,000	-0,034	-0,128
-713,962	-152,454	-0,044	0,002
-712,948	292,187	0,048	-0,065
-711,933	-132,641	0,101	0,009
-710,918	-24,914	-0,089	-0,039
-709,904	-200,000	0,013	-0,114
-708,889	-200,000	-0,002	0,039
-707,875	68,970	-0,029	-0,022
-706,860	153,806	-0,051	0,052
-705,845	-60,823	-0,181	-0,056
-704,831	-114,826	0,120	0,017
-703,816	540,645	-0,052	-0,092
-702,802	80,599	0,030	0,023
-701,787	-144,307	-0,040	0,003
-700,772	382,752	-0,073	-0,111
-699,758	223,569	-0,030	-0,036
-698,743	800,000	-0,075	0,166
-697,729	-47,432	0,071	0,025
-696,714	-42,192	0,122	-0,045
-695,699	-64,865	-0,079	-0,023
-694,685	165,088	0,028	-0,029
-693,670	45,783	-0,064	0,043
-692,656	-200,000	-0,004	-0,026
-691,641	554,742	-0,018	-0,032
-690,627	800,000	0,063	0,134
-689,612	5,693	0,158	0,086
-688,597	800,000	-0,047	-0,108
-687,583	67,753	-0,098	-0,073
-686,568	228,155	-0,130	-0,156
-685,554	-165,863	-0,130	0,004
-684,539	-200,000	-0,001	-0,035
-683,524	-111,141	0,101	0,015
-682,510	800,000	0,088	0,190
-681,495	-97,115	-0,132	-0,025
-680,481	-155,388	-0,065	-0,003
-679,466	100,988	-0,092	-0,079
-678,451	800,000	-0,048	-0,099
-677,437	-55,561	0,070	0,023
-676,422	707,328	0,032	0,062
-675,408	536,219	0,025	-0,043
-674,393	67,774	0,048	-0,036
-673,378	625,969	-0,022	0,041
-672,364	-200,000	0,017	-0,077
-671,349	0,971	-0,041	-0,021
-670,335	11,587	-0,093	0,052
-669,320	-200,000	0,025	-0,099
-668,305	260,692	-0,013	0,016
-667,291	75,483	-0,095	-0,074
-666,276	251,326	0,076	-0,095
-665,262	114,584	-0,065	0,058
-664,247	-200,000	0,002	0,019
-663,232	800,000	-0,027	-0,059
-662,218	149,959	0,030	0,030
-661,203	24,440	-0,072	-0,044
-660,189	47,192	0,100	-0,068
-659,174	570,448	-0,067	-0,120
-658,159	-200,000	-0,034	-0,113
-657,145	441,754	-0,100	-0,161
-656,130	60,261	0,099	-0,071
-655,116	-89,002	0,062	-0,013
-654,101	-200,000	0,049	-0,172
-653,086	551,677	-0,011	-0,019
-652,072	47,240	-0,131	0,089
-651,057	-48,045	-0,164	-0,058
-650,043	112,335	-0,060	-0,053
-649,028	-200,000	0,041	-0,166
-648,014	-92,624	-0,022	-0,004
-646,999	800,000	-0,002	-0,005
-645,984	-200,000	-0,007	-0,049
-644,970	297,853	-0,107	-0,144
-643,955	-200,000	-0,002	-0,034
-642,941	-57,893	-0,122	0,039
-641,926	800,000	-0,032	-0,082
-640,911	-200,000	0,016	-0,107
-639,897	-138,069	-0,044	-0,004
-638,882	231,360	-0,018	0,022
-637,868	800,000	-0,037	-0,112
-636,853	-200,000	0,005	-0,071
-635,838	208,524	-0,067	-0,077
-634,824	178,662	0,072	-0,077
-633,809	-200,000	0,001	0,073
-632,795	-147,716	-0,052	-0,003
-631,780	-37,902	0,096	-0,037
-630,765	-115,886	0,040	0,005
-629,751	-20,858	-0,035	0,016
-628,736	153,814	-0,067	0,067
-627,722	-44,623	0,050	0,018
-626,707	-86,519	-0,079	0,018
-625,692	-77,322	0,067	0,017
-624,678	171,018	-0,059	0,062
-623,663	17,249	0,110	0,064
-622,649	-200,000	-0,001	0,006
-621,634	-152,364	-0,158	-0,008
-620,619	-200,000	0,002	0,072
-619,605	22,514	-0,115	0,068
-618,590	-200,000	0,009	-0,067
-617,576	-33,519	-0,152	0,061
-616,561	800,000	-0,031	-0,085
-615,546	-77,389	-0,068	-0,017
-614,532	-75,967	-0,102	-0,026
-613,517	62,478	0,073	-0,053
-612,503	-126,444	-0,140	0,015
-611,488	396,525	0,042	-0,065
-610,474	-36,617	-0,022	0,009
-609,459	-63,434	-0,085	0,025
-608,444	-200,000	-0,012	-0,086
-607,430	-46,811	0,092	0,033
-606,415	35,864	-0,080	-0,051
-605,401	422,202	0,052	-0,081
-604,386	-3,371	-0,068	0,035
-603,371	800,000	-0,006	-0,016
-602,357	800,000	0,016	0,040
-601,342	800,000	-0,041	-0,098
-600,328	-65,590	-0,136	0,040
-599,313	-33,233	0,073	-0,029
-598,298	643,480	-0,045	-0,085
-597,284	133,683	0,017	-0,016
-596,269	548,642	-0,024	-0,042
-595,255	-200,000	0,029	-0,128
-594,240	15,737	-0,109	-0,063
-593,225	219,499	-0,093	-0,109
-592,211	167,291	-0,012	-0,012
-591,196	39,991	0,042	0,027
-590,182	76,304	-0,060	0,047
-589,167	-107,215	0,105	0,017
-588,152	45,172	0,093	0,063
-587,138	630,021	0,045	0,084
-586,123	-68,421	-0,077	-0,022
-585,109	-109,003	-0,064	-0,010
-584,094	800,000	0,030	-0,088
-583,079	92,486	0,027	0,022
-582,065	179,926	-0,040	0,043
-581,050	178,977	-0,083	0,089
-580,036	354,417	-0,027	-0,039
-579,021	-180,116	0,021	0,000
-578,006	287,473	0,057	0,075
-576,992	-17,832	-0,075	0,034
-575,977	-200,000	0,037	0,230
-574,963	-200,000	0,008	0,124
-573,948	800,000	0,008	0,019
-572,934	-177,141	-0,054	0,001
-571,919	-200,000	-0,011	-0,074
-570,904	203,192	-0,109	-0,124
-569,890	15,787	-0,067	-0,039
-568,875	-93,304	0,019	-0,004
-567,861	19,785	0,068	0,040
-566,846	312,832	-0,053	0,073
-565,831	265,051	-0,052	-0,066
-564,817	177,622	0,031	0,033
-563,802	-3,910	-0,058	-0,029
-562,788	139,510	-0,044	0,042
-561,773	201,012	-0,066	-0,074
-560,758	-94,467	0,092	0,018
-559,744	165,040	0,091	0,094
-558,729	-200,000	0,012	-0,053
-557,715	7,816	0,042	-0,023
-556,700	-107,585	-0,204	-0,032
-555,685	-200,000	-0,011	-0,073
-554,671	-200,000	0,005	0,018
-553,656	700,584	0,043	-0,083
-552,642	152,265	0,080	-0,080
-551,627	800,000	0,023	0,059
-550,612	266,105	0,027	-0,035
-549,598	80,002	-0,115	-0,090
-548,583	255,032	-0,052	-0,066
-547,569	154,132	-0,083	-0,083
-546,554	800,000	0,028	-0,077
-545,539	-156,537	-0,063	-0,003
-544,525	49,855	0,108	0,074
-543,510	788,184	-0,040	-0,081
-542,496	46,296	-0,186	0,126
-541,481	78,733	0,106	0,082
-540,466	1,814	0,037	-0,019
-539,452	559,657	-0,031	-0,055
-538,437	471,165	0,015	0,025
-537,423	-200,000	-0,014	0,179
-536,408	-200,000	0,002	0,046
-535,393	53,930	-0,062	-0,044
-534,379	-200,000	0,016	0,158
-533,364	-46,312	0,044	-0,016
-532,350	136,786	-0,107	0,102
-531,335	146,796	0,065	-0,064
-530,321	9,014	0,108	-0,059
-529,306	-200,000	-0,022	0,107
-528,291	-169,563	-0,050	0,001
-527,277	-25,426	0,056	-0,024
-526,262	19,139	0,080	-0,047
-525,248	8,354	0,151	-0,083
-524,233	64,109	-0,056	0,041
-523,218	-200,000	-0,010	-0,032
-522,204	-200,000	-0,010	-0,098
-521,189	800,000	-0,046	-0,131
-520,175	-200,000	-0,027	-0,150
-519,160	147,313	0,073	0,072
-518,145	-200,000	-0,023	-0,113
-517,131	6,412	-0,047	-0,025
-516,116	37,370	-0,068	0,044
-515,102	-200,000	-0,025	0,120
-514,087	612,945	-0,094	0,172
-513,072	-127,473	-0,110	0,011
-512,058	263,785	-0,057	0,072
-511,043	-86,916	-0,094	0,021
-510,029	-200,000	0,017	-0,061
-509,014	-68,117	-0,052	-0,015
-507,999	-200,000	0,005	-0,049
-506,985	-200,000	-0,025	0,123
-505,970	800,000	0,033	-0,090
-504,956	274,333	0,025	-0,032
-503,941	-200,000	0,014	0,044
-502,926	-200,000	0,005	0,043
-501,912	800,000	-0,045	0,096
-500,897	364,014	0,045	-0,065
-499,883	800,000	0,049	0,102
-498,868	-16,754	-0,056	-0,026
-497,853	-200,000	-0,003	-0,014
-496,839	343,085	0,095	-0,136
-495,824	128,254	-0,072	0,067
-494,810	-121,833	0,075	0,009
-493,795	-3,559	0,085	0,043
-492,781	55,639	-0,119	0,084
-491,766	800,000	0,028	-0,090
-490,751	-23,283	-0,076	-0,033
-489,737	-200,000	0,004	0,086
-488,722	-81,325	0,122	0,029
-487,708	768,769	0,057	-0,113
-486,693	46,647	-0,204	0,137
-485,678	-200,000	0,010	0,050
-484,664	777,354	-0,076	0,152
-483,649	800,000	-0,051	-0,132
-482,635	-200,000	0,013	-0,082
-481,620	341,120	0,038	0,054
-480,605	800,000	-0,037	-0,113
-479,591	-200,000	0,007	0,026
-478,576	29,942	-0,151	0,093
-477,562	55,141	0,089	0,062
-476,547	-144,123	-0,003	-0,000
-475,532	170,135	0,032	0,034
-474,518	274,550	0,062	0,080
-473,503	-124,096	0,071	0,008
-472,489	-200,000	-0,004	0,056
-471,474	-200,000	0,012	-0,062
-470,459	-200,000	0,029	-0,214
-469,445	-200,000	0,014	-0,119
-468,430	-200,000	-0,031	0,109
-467,416	-66,111	0,030	0,009
-466,401	24,314	0,046	-0,028
-465,386	-200,000	0,011	0,071
-464,372	175,792	-0,083	0,088
-463,357	449,349	0,025	-0,040
-462,343	800,000	0,040	0,098
-461,328	-200,000	0,025	-0,092
-460,313	432,195	0,050	-0,078
-459,299	-200,000	0,022	0,187
-458,284	-200,000	0,011	-0,137
-457,270	76,624	-0,095	0,073
-456,255	162,288	0,142	0,145
-455,241	-200,000	0,015	-0,127
-454,226	299,019	0,083	-0,111
-453,211	8,589	-0,119	-0,065
-452,197	253,120	0,039	0,048
-451,182	-200,000	0,010	0,082
-450,168	355,527	0,071	-0,103
-449,153	98,225	0,072	0,061
-448,138	-200,000	0,000	0,009
-447,124	285,473	-0,069	0,090
-446,109	214,537	0,023	0,027
-445,095	-62,806	0,153	-0,046
-444,080	75,120	0,134	-0,103
-443,065	800,000	0,033	0,086
-442,051	32,012	0,097	-0,061
-441,036	-165,883	0,035	0,001
-440,022	800,000	-0,021	0,061
-439,007	-9,180	-0,083	-0,040
-437,992	800,000	-0,061	0,128
-436,978	310,847	0,019	0,025
-435,963	-200,000	-0,002	-0,030
-434,949	38,637	0,060	-0,039
-433,934	239,430	-0,140	-0,169
-432,919	-73,187	0,083	-0,022
-431,905	-17,347	0,009	-0,004
-430,890	800,000	-0,039	-0,095
-429,876	-9,736	0,136	0,066
-428,861	237,653	0,086	-0,104
-427,846	21,779	-0,107	0,063
-426,832	800,000	-0,033	0,068
-425,817	-1,029	-0,038	0,020
-424,803	495,216	0,058	0,097
-423,788	25,131	-0,157	0,094
-422,773	800,000	0,100	0,283
-421,759	800,000	-0,051	0,143
-420,744	3,546	-0,040	-0,021
-419,730	800,000	0,016	0,033
-418,715	-97,192	-0,082	0,015
-417,701	-200,000	-0,012	0,070
-416,686	113,481	0,024	-0,021
-415,671	-82,844	-0,077	0,018
-414,657	-100,602	0,094	-0,017
-413,642	-200,000	0,000	-0,237
-412,628	-200,000	-0,010	-0,122
-411,613	66,446	-0,137	-0,101
-410,598	-170,430	-0,100	0,002
-409,584	-200,000	-0,010	-0,104
-408,569	430,818	0,031	0,048
-407,555	-200,000	0,002	-0,071
-406,540	-200,000	-0,019	-0,106
-405,525	18,767	-0,216	0,125
-404,511	428,482	-0,022	-0,034
-403,496	-116,486	-0,099	0,013
-402,482	-153,843	0,024	-0,001
-401,467	32,540	0,076	0,048
-400,452	33,967	-0,099	0,062
-399,438	507,241	0,032	0,053
-398,423	-200,000	0,015	0,106
-397,409	-60,266	-0,120	0,037
-396,394	141,113	-0,047	0,046
-395,379	-200,000	0,010	-0,040
-394,365	7,447	0,071	-0,039
-393,350	-88,478	-0,113	-0,024
-392,336	-40,421	-0,026	0,010
-391,321	273,707	-0,036	0,046
-390,306	52,876	0,075	-0,052
-389,292	-83,732	-0,053	0,012
-388,277	-96,580	0,103	-0,020
-387,263	9,924	0,010	0,005
-386,248	800,000	0,030	-0,067
-385,233	564,440	-0,049	-0,086
-384,219	-84,039	0,212	0,048
-383,204	-148,202	-0,053	0,003
-382,190	-200,000	-0,008	-0,043
-381,175	-200,000	-0,024	-0,103
-380,160	172,056	0,084	0,088
-379,146	-49,574	-0,071	0,025
-378,131	2,774	0,050	-0,026
-377,117	-74,489	0,138	0,036
-376,102	800,000	-0,045	-0,139
-375,088	-2,694	0,085	-0,043
-374,073	-38,390	-0,200	0,076
-373,058	-16,487	0,115	0,053
-372,044	-65,503	0,121	0,035
-371,029	-36,501	0,070	0,027
-370,015	-200,000	0,014	0,060
-369,000	-200,000	0,006	-0,166
-367,985	59,725	0,096	-0,068
-366,971	-200,000	-0,000	-0,061
-365,956	800,000	0,043	0,106
-364,942	448,194	0,035	0,055
-363,927	-89,647	0,185	0,039
-362,912	145,199	0,034	-0,033
-361,898	-200,000	-0,001	0,065
-360,883	800,000	-0,017	-0,046
-359,869	268,950	0,063	0,080
-358,854	-200,000	0,002	-0,009
-357,839	800,000	-0,032	-0,100
-356,825	-200,000	0,043	0,161
-355,810	-200,000	0,014	-0,058
-354,796	301,717	0,061	0,082
-353,781	-200,000	-0,018	0,129
-352,766	-200,000	0,000	-0,015
-351,752	164,389	0,033	-0,034
-350,737	-200,000	0,013	0,135
-349,723	34,763	-0,063	-0,040
-348,708	-20,381	0,155	0,069
-347,693	800,000	-0,012	0,034
-346,679	-200,000	0,005	0,084
-345,664	-30,568	-0,076	-0,031
-344,650	29,866	0,052	-0,032
-343,635	-57,548	0,192	0,061
-342,620	62,565	0,109	0,079
-341,606	-148,897	0,203	-0,012
-340,591	-12,410	-0,102	-0,048
-339,577	-37,636	-0,114	0,044
-338,562	-200,000	-0,022	0,143
-337,548	-200,000	-0,010	0,118
-336,533	205,341	0,045	-0,051
-335,518	242,114	-0,050	-0,061
-334,504	367,884	0,084	0,123
-333,489	-129,569	-0,044	-0,004
-332,475	-200,000	-0,002	0,117
-331,460	-82,447	0,070	0,016
-330,445	-200,000	-0,015	-0,102
-329,431	-49,376	0,061	-0,021
-328,416	-200,000	-0,026	0,107
-327,402	-61,754	0,146	0,044
-326,387	-200,000	-0,002	-0,063
-325,372	94,863	0,031	0,026
-324,358	-200,000	-0,022	-0,090
-323,343	-33,764	-0,111	-0,044
-322,329	33,218	-0,032	0,020
-321,314	225,102	-0,094	-0,110
-320,299	-200,000	0,011	-0,054
-319,285	575,760	-0,042	-0,075
-318,270	-200,000	-0,019	-0,063
-317,256	380,335	-0,016	0,025
-316,241	-13,900	-0,105	-0,049
-315,226	-20,039	0,164	-0,073
-314,212	-40,179	0,199	0,075
-313,197	-200,000	0,026	0,128
-312,183	-54,723	0,076	0,025
-311,168	-104,658	-0,003	-0,000
-310,153	417,177	-0,122	-0,190
-309,139	-150,007	0,015	0,001
-308,124	-52,677	0,058	-0,019
-307,110	-90,159	0,164	0,034
-306,095	800,000	-0,014	0,036
-305,080	800,000	-0,011	0,033
-304,066	134,842	0,075	-0,070
-303,051	34,820	0,050	-0,032
-302,037	-123,652	-0,116	0,013
-301,022	-21,083	-0,125	-0,055
-300,008	-200,000	0,011	0,041
-298,993	52,574	0,008	-0,006
-297,978	-200,000	0,002	0,106
-296,964	10,661	-0,132	0,073
-295,949	-200,000	0,011	-0,080
-294,935	-77,756	-0,114	0,028
-293,920	-100,327	0,220	0,039
-292,905	39,995	0,009	-0,006
-291,891	-164,915	0,017	0,001
-290,876	-88,226	-0,113	-0,024
-289,862	7,349	0,043	-0,023
-288,847	9,200	0,147	-0,080
-287,832	-175,646	-0,124	-0,002
-286,818	-200,000	0,003	-0,155
-285,803	769,910	0,044	0,087
-284,789	-200,000	-0,006	0,025
-283,774	336,796	-0,055	0,078
-282,759	-17,955	0,059	0,027
-281,745	67,929	-0,087	-0,064
-280,730	111,467	-0,046	0,040
-279,716	-200,000	0,004	-0,122
-278,701	230,769	-0,018	0,022
-277,686	300,294	0,185	0,247
-276,672	155,282	0,083	-0,082
-275,657	412,452	0,042	-0,065
-274,643	41,240	0,012	0,008
-273,628	42,552	0,060	-0,039
-272,613	-109,441	-0,107	0,016
-271,599	-68,629	0,122	0,034
-270,584	-70,389	0,081	0,022
-269,570	-193,486	0,091	0,001
-268,555	-200,000	-0,035	-0,115
-267,540	-200,000	0,016	0,063
-266,526	254,991	0,030	-0,037
-265,511	-200,000	-0,020	0,084
-264,497	800,000	0,037	0,088
-263,482	-200,000	0,026	0,000
-262,467	-126,410	-0,097	0,010
-261,453	-153,943	0,040	-0,002
-260,438	340,234	-0,055	-0,078
-259,424	-200,000	-0,001	0,019
-258,409	-111,313	0,102	0,015
-257,395	39,881	0,069	0,045
-256,380	800,000	-0,083	0,166
-255,365	-200,000	0,042	0,137
-254,351	800,000	-0,029	-0,065
-253,336	-109,978	0,185	-0,028
-252,322	-88,664	-0,234	-0,050
-251,307	184,100	-0,027	0,029
-250,292	-78,248	-0,048	-0,012
-249,278	226,012	-0,072	0,084
-248,263	74,664	0,052	0,039
-247,249	318,209	-0,028	-0,038
-246,234	447,562	0,077	-0,123
-245,219	441,223	0,033	0,052
-244,205	-200,000	0,016	0,134
-243,190	17,474	-0,087	0,050
-242,176	-164,797	0,044	0,001
-241,161	34,545	-0,029	0,018
-240,146	60,380	0,015	0,011
-239,132	737,223	0,061	0,119
-238,117	279,497	-0,034	0,044
-237,103	-200,000	-0,026	-0,124
-236,088	682,370	0,095	-0,179
-235,073	487,277	0,073	0,120
-234,059	-22,585	0,104	0,045
-233,044	363,385	0,003	0,005
-232,030	343,430	0,025	0,035
-231,015	522,712	-0,077	-0,132
-230,000	-200,000	0,015	-0,117
-228,986	-200,000	-0,033	-0,145
-227,971	776,646	-0,054	-0,107
-226,957	800,000	0,049	0,127
-225,942	379,693	-0,054	0,080
-224,927	-95,991	0,087	0,017
-223,913	-200,000	-0,022	-0,118
-222,898	530,544	0,072	-0,123
-221,884	183,905	-0,071	-0,076
-220,869	-82,543	0,061	0,014
-219,855	-200,000	0,024	-0,100
-218,840	218,421	-0,069	-0,080
-217,825	-26,999	-0,112	-0,047
-216,811	-73,904	-0,045	-0,012
-215,796	18,630	-0,075	-0,043
-214,782	-200,000	0,000	0,056
-213,767	-200,000	0,005	0,056
-212,752	14,426	0,091	-0,051
-211,738	800,000	-0,035	0,089
-210,723	-107,043	0,053	-0,008
-209,709	17,492	-0,205	0,117
-208,694	-200,000	0,007	-0,042
-207,679	367,532	-0,034	0,049
-206,665	-167,274	0,125	-0,004
-205,650	541,438	0,062	0,107
-204,636	-200,000	0,008	-0,140
-203,621	92,411	-0,089	-0,072
-202,606	-26,057	0,099	-0,042
-201,592	5,349	0,089	0,047
-200,577	-51,738	-0,038	-0,013
-199,563	-28,265	0,153	-0,063
-198,548	-80,296	-0,031	-0,007
-197,533	-58,860	0,156	0,048
-196,519	-200,000	0,003	0,132
-195,504	272,736	-0,081	0,104
-194,490	-200,000	-0,001	0,055
-193,475	-45,387	-0,099	-0,035
-192,460	-200,000	-0,010	-0,063
-191,446	100,454	-0,162	0,135
-190,431	-200,000	-0,019	0,114
-189,417	800,000	-0,024	0,071
-188,402	253,220	0,083	-0,102
-187,387	-150,342	-0,174	-0,010
-186,373	-9,318	0,108	0,052
-185,358	-103,929	0,081	0,013
-184,344	-165,869	-0,039	-0,001
-183,329	-30,416	0,077	-0,031
-182,315	800,000	0,044	0,103
-181,300	-142,904	0,063	-0,004
-180,285	220,418	0,055	-0,064
-179,271	-84,740	-0,113	-0,025
-178,256	800,000	-0,071	-0,218
-177,242	519,707	0,059	0,100
-176,227	-200,000	0,088	0,000
-175,212	-200,000	-0,016	0,116
-174,198	385,189	-0,042	0,062
-173,183	-128,708	-0,106	0,011
-172,169	-43,255	0,046	-0,017
-171,154	-200,000	-0,017	-0,061
-170,139	548,475	0,036	0,062
-169,125	-174,851	0,109	0,002
-168,110	542,314	-0,028	-0,047
-167,096	-200,000	-0,010	-0,112
-166,081	415,670	0,057	-0,087
-165,066	-200,000	0,017	-0,054
-164,052	233,507	0,082	0,097
-163,037	-179,196	-0,132	-0,002
-162,023	-141,194	0,112	-0,008
-161,008	258,965	0,039	0,048
-159,993	-200,000	-0,137	0,000
-158,979	5,499	-0,021	-0,011
-157,964	-14,548	-0,057	0,026
-156,950	800,000	-0,057	-0,122
-155,935	98,092	-0,010	-0,008
-154,920	215,230	0,080	-0,092
-153,906	282,838	0,035	0,045
-152,891	-122,082	-0,129	-0,015
-151,877	63,926	0,074	0,053
-150,862	-200,000	0,007	0,168
-149,847	800,000	0,020	0,053
-148,833	-21,409	-0,065	0,028
-147,818	63,744	0,089	0,064
-146,804	-200,000	-0,000	-0,090
-145,789	-200,000	-0,001	0,014
-144,775	-34,081	-0,024	-0,010
-143,760	-200,000	0,017	-0,103
-142,745	-200,000	0,005	-0,073
-141,731	-48,195	-0,013	-0,005
-140,716	800,000	0,073	-0,151
-139,702	194,744	-0,060	-0,065
-138,687	106,053	0,042	-0,036
-137,672	-15,016	0,085	0,039
-136,658	75,619	-0,057	-0,043
-135,643	-56,887	-0,129	-0,041
-134,629	-51,380	-0,090	0,030
-133,614	-116,344	0,129	-0,017
-132,599	800,000	-0,054	0,129
-131,585	800,000	0,024	0,072
-130,570	-153,324	0,075	-0,004
-129,556	44,705	0,136	0,090
-128,541	61,649	-0,051	0,036
-127,526	175,445	0,030	0,032
-126,512	-200,000	0,017	-0,067
-125,497	-105,665	0,084	-0,013
-124,483	-139,317	0,054	-0,004
-123,468	-162,822	-0,138	-0,005
-122,453	-37,613	0,005	-0,002
-121,439	-102,723	0,054	-0,009
-120,424	800,000	-0,086	0,174
-119,410	-200,000	-0,005	0,054
-118,395	-75,876	-0,086	0,022
-117,380	36,968	0,040	-0,025
-116,366	-16,027	0,062	-0,028
-115,351	-9,323	-0,023	-0,011
-114,337	800,000	0,029	-0,075
-113,322	-102,263	0,100	-0,017
-112,307	-200,000	-0,000	-0,063
-111,293	61,473	0,087	-0,062
-110,278	-167,840	0,238	0,007
-109,264	-200,000	0,027	-0,160
-108,249	-200,000	0,018	-0,111
-107,234	-200,000	-0,007	-0,107
-106,220	800,000	0,046	-0,129
-105,205	-101,649	0,054	-0,009
-104,191	800,000	-0,046	-0,105
-103,176	32,232	0,065	-0,040
-102,162	156,272	-0,082	-0,082
-101,147	249,089	0,058	0,071
-100,132	564,718	-0,073	-0,128
-99,118	74,339	-0,059	-0,045
-98,103	-157,959	0,093	0,004
-97,089	-133,445	0,126	0,011
-96,074	-9,811	0,058	-0,028
-95,059	-84,903	-0,077	0,017
-94,045	-200,000	0,015	-0,105
-93,030	455,635	0,014	0,022
-92,016	15,523	-0,112	0,063
-91,001	116,418	0,104	0,091
-89,986	800,000	-0,008	0,020
-88,972	28,383	0,098	0,059
-87,957	363,983	0,092	0,133
-86,943	-200,000	-0,029	-0,222
-85,928	474,516	0,076	-0,123
-84,913	-200,000	-0,023	-0,135
-83,899	-200,000	0,015	-0,101
-82,884	-100,200	0,057	0,010
-81,870	-200,000	0,021	0,099
-80,855	-200,000	-0,010	0,051
-79,840	22,581	-0,246	0,144
-78,826	-200,000	-0,161	0,000
-77,811	-200,000	-0,009	-0,094
-76,797	91,033	-0,148	0,119
-75,782	188,268	-0,023	-0,025
-74,767	150,708	0,131	0,127
-73,753	-11,177	-0,074	0,035
-72,738	305,828	0,019	-0,026
-71,724	-144,410	-0,053	-0,003
-70,709	-105,067	0,016	-0,003
-69,694	-132,145	0,038	-0,003
-68,680	35,969	0,065	-0,041
-67,665	572,583	0,058	-0,102
-66,651	-106,033	-0,150	-0,024
-65,636	-85,882	0,064	0,014
-64,622	701,057	-0,031	-0,058
-63,607	-141,156	-0,081	-0,006
-62,592	318,146	-0,024	0,032
-61,578	79,942	0,131	0,100
-60,563	86,978	0,039	0,031
-59,549	-200,000	-0,004	0,143
-58,534	17,368	-2,386	-1,353
-57,519	-200,000	0,011	-0,761
-56,505	-200,000	-1,553	-5,237
-55,490	139,172	0,912	0,859
-54,476	800,000	5,369	12,223
-53,461	-200,000	18,844	319,543
-52,446	800,000	741,110	2323,093
-51,432	549,209	1654,595	2849,460
-50,417	109,903	1637,138	1405,390
-49,403	73,464	1287,725	963,870
-48,388	29,509	1029,566	625,165
-47,373	19,585	992,342	569,772
-46,359	16,957	979,946	554,008
-45,344	13,488	976,500	540,661
-44,330	13,866	974,722	540,895
-43,315	13,247	972,642	537,695
-42,300	13,234	971,614	537,062
-41,286	13,170	970,930	536,454
-40,271	13,171	970,031	535,938
-39,257	13,180	969,188	535,480
-38,242	13,227	968,249	535,094
-37,227	13,217	967,406	534,573
-36,213	13,115	966,474	533,705
-35,198	13,119	965,570	533,199
-34,184	13,181	964,849	532,982
-33,169	13,162	963,819	532,329
-32,154	13,220	962,740	531,901
-31,140	13,256	961,854	531,504
-30,125	13,178	961,297	530,924
-29,111	13,208	960,373	530,490
-28,096	13,212	959,862	530,202
-27,082	13,159	959,200	529,643
-26,067	13,219	958,220	529,272
-25,052	13,190	957,548	528,788
-24,038	13,185	956,821	528,349
-23,023	13,140	956,387	527,945
-22,009	13,246	955,657	527,862
-20,994	13,174	955,025	527,259
-19,979	13,254	954,270	527,079
-18,965	13,195	953,824	526,621
-17,950	13,212	953,273	526,352
-16,936	13,211	952,576	525,942
-15,921	13,117	951,955	525,279
-14,906	13,086	951,133	524,704
-13,892	13,067	950,660	524,361
-12,877	13,072	949,940	523,960
-11,863	13,006	949,223	523,334
-10,848	13,086	948,565	523,205
-9,833	13,135	948,182	523,129
-8,819	13,172	947,379	522,783
-7,804	13,093	946,752	522,165
-6,790	13,054	946,386	521,820
-5,775	13,115	945,850	521,695
-4,760	13,121	945,103	521,282
-3,746	13,086	944,457	520,795
-2,731	12,937	943,840	519,962
-1,717	12,904	943,261	519,518
-0,702	12,857	942,598	518,983
0,313	12,721	941,764	518,875
1,327	16,190	939,624	528,602
2,342	25,256	790,314	468,488
3,356	21,311	445,158	258,013
4,371	-7,563	298,119	143,693
5,386	-11,293	280,020	131,392
6,400	-12,449	274,521	127,716
7,415	-12,565	271,992	126,421
8,429	-12,606	270,445	125,652
9,444	-12,809	269,438	124,987
10,459	-12,852	268,829	124,653
11,473	-13,040	268,336	124,241
12,488	-13,139	267,750	123,869
13,502	-13,365	267,196	123,395
14,517	-13,258	266,786	123,292
15,531	-13,131	266,270	123,158
16,546	-13,245	265,846	122,847
17,561	-13,187	265,477	122,718
18,575	-12,946	265,095	122,749
19,590	-13,244	264,884	122,371
20,604	-13,117	264,576	122,332
21,619	-13,218	264,229	122,070
22,634	-13,057	263,726	121,972
23,648	-13,305	263,383	121,579
24,663	-13,297	263,323	121,548
25,677	-13,142	262,941	121,499
26,692	-13,212	262,728	121,328
27,707	-13,331	262,384	121,051
28,721	-13,359	262,069	120,871
29,736	-13,268	261,832	120,832
30,750	-13,236	261,380	120,641
31,765	-13,391	261,331	120,470
32,780	-13,317	261,163	120,447
33,794	-13,388	260,933	120,266
34,809	-13,361	260,638	120,144
35,823	-13,500	260,408	119,904
36,838	-13,401	259,972	119,780
37,853	-13,362	259,759	119,707
38,867	-13,396	259,363	119,483
39,882	-13,368	259,383	119,506
40,896	-13,427	259,118	119,321
41,911	-13,516	258,850	119,109
42,926	-13,418	258,624	119,080
43,940	-13,488	258,423	118,916
44,955	-13,694	258,076	118,565
45,969	-13,703	258,038	118,529
46,984	-13,617	257,779	118,475
47,999	-13,852	257,319	118,047
49,013	-14,130	257,135	117,708
50,028	-14,190	256,769	117,478
51,042	-14,094	256,653	117,498
52,057	-14,345	256,414	117,159
53,071	-14,365	256,237	117,050
54,086	-14,091	256,115	117,223
55,101	-13,988	255,803	117,159
56,115	-13,850	255,694	117,219
57,130	-13,405	255,718	117,607
58,144	-13,166	255,489	117,699
59,159	-13,000	255,345	117,766
60,174	-13,080	254,945	117,502
61,188	-12,972	254,765	117,502
62,203	-13,304	254,624	117,139
63,217	-13,107	254,292	117,146
64,232	-13,402	254,234	116,854
65,247	-13,061	253,925	116,995
66,261	-13,219	253,681	116,737
67,276	-13,546	253,433	116,331
68,290	-13,644	253,036	116,054
69,305	-13,845	252,827	115,775
70,320	-13,961	252,688	115,601
71,334	-13,465	252,559	115,958
72,349	-13,066	252,443	116,236
73,363	-12,993	252,335	116,238
74,378	-13,292	251,973	115,806
75,393	-13,211	251,767	115,770
76,407	-13,348	251,639	115,583
77,422	-13,305	251,367	115,485
78,436	-13,284	251,133	115,385
79,451	-13,068	250,907	115,455
80,466	-13,439	250,487	114,936
81,480	-13,639	250,294	114,667
82,495	-13,504	250,175	114,717
83,509	-13,483	250,017	114,653
84,524	-13,620	249,927	114,485
85,539	-13,835	249,670	114,175
86,553	-13,610	249,403	114,233
87,568	-13,593	249,208	114,148
88,582	-13,692	249,033	113,973
89,597	-13,641	248,823	113,910
90,611	-13,397	248,758	114,076
91,626	-13,209	248,508	114,110
92,641	-13,441	248,499	113,900
93,655	-13,325	248,113	113,811
94,670	-13,342	247,929	113,702
95,684	-13,619	247,672	113,341
96,699	-13,586	247,562	113,308
97,714	-13,459	247,312	113,290
98,728	-13,681	246,905	112,907
99,743	-13,962	246,880	112,651
100,757	-13,779	246,642	112,686
101,772	-13,780	246,446	112,585
102,787	-13,509	246,247	112,711
103,801	-13,597	246,166	112,590
104,816	-13,465	246,081	112,651
105,830	-13,266	245,932	112,738
106,845	-13,201	245,718	112,685
107,860	-13,253	245,725	112,635
108,874	-13,383	245,176	112,264
109,889	-13,448	245,060	112,148
110,903	-13,588	244,811	111,908
111,918	-13,639	244,743	111,824
112,933	-13,538	244,503	111,788
113,947	-13,307	244,359	111,903
114,962	-13,320	244,090	111,760
115,976	-13,373	244,147	111,732
116,991	-13,474	243,942	111,545
118,006	-13,413	243,774	111,509
119,020	-13,381	243,524	111,410
120,035	-13,199	243,387	111,488
121,049	-13,226	243,135	111,340
122,064	-13,242	243,184	111,339
123,079	-13,335	242,879	111,113
124,093	-13,456	242,496	110,829
125,108	-13,559	242,328	110,658
126,122	-14,104	242,267	110,174
127,137	-13,999	241,933	110,098
128,151	-13,837	241,784	110,152
129,166	-13,713	241,641	110,179
130,181	-13,726	241,258	109,984
131,195	-13,578	241,055	110,002
132,210	-13,446	241,043	110,095
133,224	-13,358	240,898	110,090
134,239	-13,468	240,786	109,939
135,254	-13,313	240,545	109,946
136,268	-13,539	240,360	109,668
137,283	-13,842	240,049	109,271
138,297	-13,922	239,753	109,061
139,312	-13,854	239,596	109,035
140,327	-13,386	239,524	109,371
141,341	-12,861	239,367	109,714
142,356	-12,888	239,512	109,749
143,370	-13,124	239,279	109,442
144,385	-13,083	239,203	109,431
145,400	-12,866	238,834	109,427
146,414	-12,924	238,756	109,334
147,429	-13,047	238,528	109,122
148,443	-12,852	238,348	109,187
149,458	-13,080	238,278	108,961
150,473	-13,226	238,194	108,796
151,487	-13,111	237,831	108,712
152,502	-12,987	237,714	108,749
153,516	-12,923	237,577	108,728
154,531	-13,056	237,442	108,550
155,546	-13,011	237,057	108,400
156,560	-13,218	236,960	108,181
157,575	-13,322	236,685	107,962
158,589	-13,220	236,499	107,949
159,604	-13,071	236,430	108,027
160,619	-12,791	236,297	108,180
161,633	-13,030	236,193	107,932
162,648	-12,913	236,044	107,947
163,662	-12,976	235,848	107,798
164,677	-13,160	235,688	107,569
165,692	-13,071	235,516	107,552
166,706	-12,794	235,359	107,690
167,721	-12,694	235,200	107,687
168,735	-12,754	235,182	107,621
169,750	-12,897	235,046	107,436
170,764	-12,747	234,738	107,405
171,779	-13,019	234,803	107,209
172,794	-13,034	234,488	107,044
173,808	-13,061	234,209	106,886
174,823	-13,710	233,939	106,242
175,837	-13,615	233,635	106,170
176,852	-13,202	233,548	106,445
177,867	-12,998	233,622	106,630
178,881	-12,974	233,462	106,566
179,896	-12,918	233,333	106,541
180,910	-12,874	233,129	106,474
181,925	-12,882	232,939	106,371
182,940	-12,823	232,781	106,336
183,954	-12,818	232,633	106,263
184,969	-12,613	232,516	106,360
185,983	-12,779	232,603	106,260
186,998	-12,939	232,413	106,039
188,013	-12,781	232,018	105,972
189,027	-12,721	231,780	105,901
190,042	-12,937	231,913	105,784
191,056	-12,796	231,529	105,709
192,071	-12,842	231,474	105,639
193,086	-12,938	231,237	105,446
194,100	-12,531	231,237	105,754
195,115	-12,564	230,990	105,605
196,129	-11,976	231,199	106,149
197,144	-6,281	233,057	111,446
198,159	-0,267	234,855	117,022
199,173	2,512	235,585	119,560
200,188	2,858	235,449	119,752
201,202	3,012	235,370	119,822
202,217	3,124	235,233	119,830
203,232	3,146	235,283	119,861
204,246	3,327	235,059	119,878
205,261	3,277	235,016	119,806
206,275	3,719	234,691	119,975
207,290	3,705	234,585	119,900
208,304	3,552	234,487	119,720
209,319	3,274	234,371	119,433
210,334	3,233	234,105	119,255
211,348	3,089	233,891	119,023
212,363	3,030	233,599	118,817
213,377	2,673	233,387	118,422
214,392	2,610	233,160	118,247
215,407	2,932	233,125	118,469
216,421	3,058	232,877	118,430
217,436	2,806	232,661	118,114
218,450	2,504	232,585	117,832
219,465	2,489	232,454	117,743
220,480	2,343	232,325	117,554
221,494	2,501	232,167	117,586
222,509	2,898	232,084	117,840
223,523	2,648	232,103	117,646
224,538	2,859	231,829	117,659
225,553	2,798	231,676	117,524
226,567	2,711	231,582	117,399
227,582	3,150	231,448	117,659
228,596	3,392	231,305	117,761
229,611	2,857	231,018	117,194
230,626	2,559	230,798	116,843
231,640	2,756	230,610	116,888
232,655	2,870	230,507	116,913
233,669	3,114	230,506	117,090
234,684	3,325	230,272	117,121
235,699	3,074	230,265	116,915
236,713	2,817	230,046	116,597
237,728	3,031	229,764	116,607
238,742	2,670	229,665	116,271
239,757	2,892	229,533	116,363
240,772	2,649	229,218	116,008
241,786	2,762	229,210	116,080
242,801	3,035	229,046	116,194
243,815	3,155	229,036	116,270
244,830	3,228	228,846	116,219
245,844	2,746	228,605	115,720
246,859	2,572	228,522	115,536
247,874	2,963	228,356	115,738
248,888	3,180	228,173	115,799
249,903	3,106	227,941	115,615
250,917	2,937	227,926	115,469
251,932	2,593	227,903	115,188
252,947	2,494	227,506	114,901
253,961	2,558	227,364	114,868
254,976	2,705	227,152	114,861
255,990	2,683	227,240	114,879
257,005	2,840	227,082	114,907
258,020	3,053	226,889	114,960
259,034	3,108	226,883	114,988
260,049	3,083	226,650	114,840
261,063	2,663	226,613	114,496
262,078	3,066	226,372	114,666
263,093	3,113	226,276	114,643
264,107	3,194	226,004	114,555
265,122	3,064	226,011	114,452
266,136	3,303	225,972	114,600
267,151	3,145	225,621	114,294
268,166	3,015	225,325	114,037
269,180	2,590	225,174	113,634
270,195	2,723	225,053	113,661
271,209	2,596	224,835	113,446
272,224	2,819	224,894	113,632
273,239	2,844	224,698	113,542
274,253	2,710	224,433	113,298
275,268	2,762	224,133	113,175
276,282	2,508	224,231	113,026
277,297	2,669	224,009	113,023
278,312	2,743	223,798	112,962
279,326	2,809	223,773	112,988
280,341	2,906	223,621	112,972
281,355	2,819	223,618	112,896
282,370	2,879	223,418	112,830
283,384	2,851	223,108	112,643
284,399	2,702	222,977	112,457
285,414	2,713	222,735	112,333
286,428	2,958	222,732	112,502
287,443	2,912	222,655	112,419
288,457	3,002	222,390	112,341
289,472	2,523	222,286	111,926
290,487	2,430	222,067	111,738
291,501	2,382	221,793	111,555
292,516	2,442	221,757	111,571
293,530	2,335	221,736	111,472
294,545	2,442	221,568	111,455
295,560	2,620	221,377	111,480
296,574	2,754	221,300	111,530
297,589	2,752	221,168	111,452
298,603	2,845	221,108	111,479
299,618	2,940	221,014	111,491
300,633	3,025	220,787	111,429
301,647	2,893	220,845	111,352
302,662	3,067	220,585	111,338
303,676	2,946	220,366	111,129
304,691	2,956	220,302	111,094
305,706	3,067	220,121	111,073
306,720	2,893	220,066	110,909
307,735	2,555	219,812	110,526
308,749	2,519	219,739	110,454
309,764	2,927	219,591	110,665
310,779	3,055	219,408	110,656
311,793	2,995	219,198	110,497
312,808	3,074	219,133	110,511
313,822	2,932	218,904	110,283
314,837	2,789	218,800	110,118
315,852	2,603	218,698	109,922
316,866	2,619	218,694	109,922
317,881	2,896	218,465	109,997
318,895	3,049	218,328	110,028
319,910	2,764	217,937	109,616
320,925	2,516	217,807	109,363
321,939	2,351	217,578	109,120
322,954	2,388	217,673	109,184
323,968	3,057	217,432	109,534
324,983	3,030	217,473	109,525
325,997	3,037	217,500	109,534
327,012	2,860	217,171	109,232
328,027	2,827	216,992	109,109
329,041	3,047	217,045	109,283
330,056	3,344	216,711	109,317
331,070	2,641	216,626	108,762
332,085	2,728	216,332	108,667
333,100	2,480	216,293	108,461
334,114	2,444	216,028	108,293
335,129	2,894	216,015	108,597
336,143	2,963	215,846	108,551
337,158	2,932	215,853	108,523
338,173	2,964	215,648	108,433
339,187	2,645	215,429	108,087
340,202	2,601	215,203	107,933
341,216	2,348	215,173	107,729
342,231	2,640	215,131	107,905
343,246	2,659	214,965	107,826
344,260	2,792	214,665	107,759
345,275	3,008	214,723	107,932
346,289	3,069	214,575	107,891
347,304	2,878	214,352	107,635
348,319	2,915	214,244	107,596
349,333	2,690	214,074	107,343
350,348	2,874	213,989	107,420
351,362	3,053	213,916	107,500
352,377	3,022	213,665	107,343
353,392	2,885	213,645	107,226
354,406	2,784	213,655	107,151
355,421	197,101	1314,324	1391,895
356,435	157,701	1448,372	1391,831
