DTS Sentinel unit serial number:	SN410029Multiplexer serial number:	ORYXHardware model number:	OX2-SRSoftware version number:	ORYX F/W v4,00 Oryx Data Collector v3.7.2.0data status	okinstallation	B6 Nyhavnadifferential loss correction	single-endedforward channel	channel 2reverse channel	N/Adate	2023/12/10time	11:30:08forward acquisition time	300,00reverse acquisition time	0,00gamma	499,1914k internal	0,3123k external	0,3123temperature offset calibration	1,0000default loss term (dB/km)	0,3820temperature slope calibration	1,0000multiplexer offset coefficient	1,0000multiplexer slope coefficient	1,0000fibre end	0,00T internal ref (°C)	22,67T ext. ref 1 (°C)	6,58T ext. ref 2 (°C)	6,59length (m)	temperature (°C)	Stokes	anti-Stokes-744,400	46,549	0,197	-0,136
-743,385	-140,678	-0,162	-0,012
-742,371	-110,489	0,101	0,015
-741,356	-173,469	-0,161	0,004
-740,342	-64,747	0,051	0,015
-739,327	-70,614	-0,351	0,098
-738,312	-72,522	-0,172	0,047
-737,298	-32,651	-0,259	0,107
-736,283	-54,071	0,094	-0,032
-735,269	609,248	-0,129	0,242
-734,254	-200,000	-0,007	-0,110
-733,239	-26,482	-0,438	-0,191
-732,225	-51,970	0,054	-0,019
-731,210	-9,552	0,089	0,044
-730,196	-33,566	0,076	0,031
-729,181	147,567	0,072	-0,072
-728,167	-172,280	-0,090	0,002
-727,152	-200,000	-0,003	-0,029
-726,137	-200,000	-0,023	0,094
-725,123	-200,000	0,013	-0,071
-724,108	141,676	-0,102	-0,101
-723,094	800,000	0,043	-0,113
-722,079	118,419	-0,013	-0,012
-721,064	75,661	0,055	-0,043
-720,050	800,000	0,056	0,131
-719,035	208,226	0,051	-0,059
-718,021	-200,000	-0,027	0,089
-717,006	-200,000	0,014	-0,207
-715,991	-200,000	-0,030	-0,110
-714,977	228,978	-0,035	0,042
-713,962	-6,008	-0,088	0,044
-712,948	-25,636	-0,139	-0,061
-711,933	-184,843	0,022	0,000
-710,918	-200,000	0,015	-0,103
-709,904	-200,000	-0,018	-0,112
-708,889	-200,000	0,016	-0,111
-707,875	261,724	-0,139	-0,180
-706,860	153,748	0,053	0,055
-705,845	800,000	-0,042	-0,103
-704,831	-200,000	-0,015	0,117
-703,816	-21,975	0,109	-0,049
-702,802	800,000	-0,040	-0,103
-701,787	552,678	-0,090	-0,162
-700,772	-200,000	-0,019	-0,088
-699,758	270,193	-0,120	-0,157
-698,743	182,483	0,043	0,047
-697,729	527,402	-0,105	0,185
-696,714	175,167	0,052	0,056
-695,699	10,877	-0,107	-0,060
-694,685	274,448	-0,050	-0,066
-693,670	-31,015	-0,115	-0,048
-692,656	-43,690	0,109	-0,041
-691,641	144,991	0,038	-0,038
-690,627	-200,000	0,002	0,034
-689,612	-33,817	-0,116	-0,047
-688,597	-53,300	-0,083	-0,028
-687,583	-200,000	-0,005	0,147
-686,568	-48,515	-0,109	-0,039
-685,554	-93,285	-0,127	-0,026
-684,539	-120,786	-0,051	0,006
-683,524	92,082	-0,125	-0,105
-682,510	-184,704	0,137	0,002
-681,495	-5,127	-0,071	0,036
-680,481	10,463	-0,052	-0,029
-679,466	-197,682	-0,254	0,001
-678,451	-200,000	0,001	-0,010
-677,437	-36,950	0,047	-0,019
-676,422	170,563	-0,055	-0,059
-675,408	113,276	0,034	0,031
-674,393	145,944	-0,011	-0,011
-673,378	800,000	0,013	0,028
-672,364	-200,000	-0,001	-0,038
-671,349	319,935	-0,058	-0,082
-670,335	89,030	0,025	-0,021
-669,320	-99,828	0,088	0,016
-668,305	-200,000	-0,005	-0,028
-667,291	-98,033	-0,136	0,026
-666,276	-200,000	0,004	-0,079
-665,262	-200,000	-0,007	-0,093
-664,247	-12,664	0,044	-0,021
-663,232	-200,000	0,002	0,129
-662,218	-200,000	0,007	-0,102
-661,203	243,993	-0,069	-0,086
-660,189	62,054	-0,077	-0,057
-659,174	-113,368	-0,053	-0,008
-658,159	21,361	-0,158	-0,095
-657,145	-200,000	-0,041	-0,252
-656,130	245,990	0,080	-0,100
-655,116	227,807	0,079	-0,095
-654,101	2,192	0,052	-0,028
-653,086	-200,000	-0,025	0,085
-652,072	800,000	0,019	-0,048
-651,057	45,796	-0,124	-0,085
-650,043	258,528	-0,045	0,058
-649,028	178,003	0,053	0,057
-648,014	-200,000	0,010	0,067
-646,999	97,182	0,032	-0,027
-645,984	144,044	-0,087	-0,086
-644,970	43,120	-0,164	-0,111
-643,955	-39,911	-0,217	0,084
-642,941	-35,452	0,087	-0,035
-641,926	133,957	0,073	0,070
-640,911	77,871	-0,031	0,024
-639,897	-180,824	0,138	0,002
-638,882	-200,000	-0,016	-0,068
-637,868	-23,036	-0,064	-0,029
-636,853	-124,952	-0,054	-0,006
-635,838	-200,000	0,000	-0,039
-634,824	800,000	-0,030	-0,067
-633,809	-200,000	0,014	0,090
-632,795	180,524	-0,092	-0,100
-631,780	-200,000	-0,029	0,100
-630,765	541,781	-0,011	0,019
-629,751	291,830	-0,044	-0,060
-628,736	107,917	-0,101	-0,089
-627,722	53,046	-0,103	-0,073
-626,707	369,156	0,022	-0,033
-625,692	-200,000	-0,005	-0,158
-624,678	-122,870	-0,081	-0,010
-623,663	-200,000	-0,022	0,081
-622,649	93,017	-0,031	-0,026
-621,634	-200,000	-0,004	-0,026
-620,619	-200,000	0,002	-0,038
-619,605	-137,851	-0,025	-0,002
-618,590	-122,890	0,082	0,010
-617,576	-92,083	-0,058	0,012
-616,561	-55,988	0,090	-0,029
-615,546	-78,437	-0,128	-0,032
-614,532	-119,590	-0,118	-0,015
-613,517	-91,489	-0,090	-0,019
-612,503	-200,000	-0,016	-0,081
-611,488	-200,000	-0,017	0,091
-610,474	-84,034	0,111	0,026
-609,459	378,810	0,036	0,055
-608,444	240,275	-0,058	-0,072
-607,430	-200,000	-0,028	-0,123
-606,415	119,502	-0,080	0,073
-605,401	-200,000	-0,017	-0,094
-604,386	590,107	-0,034	0,062
-603,371	-200,000	-0,004	0,023
-602,357	-200,000	0,004	-0,021
-601,342	-107,572	-0,067	-0,011
-600,328	39,200	-0,089	-0,059
-599,313	-200,000	0,022	-0,071
-598,298	335,377	-0,030	-0,043
-597,284	265,735	-0,055	0,071
-596,269	-200,000	-0,057	-0,200
-595,255	381,281	-0,081	-0,123
-594,240	593,293	-0,058	-0,106
-593,225	-200,000	0,005	0,042
-592,211	-7,077	0,111	0,056
-591,196	-200,000	0,007	0,042
-590,182	-47,491	-0,119	-0,043
-589,167	413,492	0,048	-0,076
-588,152	-100,947	-0,027	-0,005
-587,138	196,095	-0,035	-0,039
-586,123	8,317	-0,161	0,090
-585,109	40,540	-0,085	-0,057
-584,094	-14,602	0,081	0,039
-583,079	800,000	-0,051	0,124
-582,065	-74,783	0,077	0,020
-581,050	119,715	0,053	-0,049
-580,036	476,669	-0,029	-0,049
-579,021	-32,338	-0,080	-0,033
-578,006	41,167	-0,139	-0,093
-576,992	31,365	-0,114	-0,072
-575,977	-88,883	0,060	0,013
-574,963	-200,000	-0,011	0,039
-573,948	-200,000	0,018	0,069
-572,934	-91,958	-0,063	0,013
-571,919	42,434	0,048	-0,032
-570,904	-128,500	0,139	-0,014
-569,890	249,309	0,011	0,014
-568,875	65,587	-0,035	-0,026
-567,861	501,972	0,015	0,026
-566,846	-34,464	-0,031	-0,012
-565,831	550,576	0,022	-0,039
-564,817	-55,942	-0,005	-0,002
-563,802	800,000	0,046	-0,124
-562,788	444,165	-0,035	0,058
-561,773	299,403	0,117	-0,160
-560,758	-49,492	0,115	0,040
-559,744	800,000	-0,047	-0,117
-558,729	-92,504	-0,035	-0,007
-557,715	-200,000	-0,005	-0,022
-556,700	-108,825	-0,246	-0,038
-555,685	-168,082	-0,121	-0,003
-554,671	40,742	0,064	-0,043
-553,656	-200,000	-0,005	0,034
-552,642	-9,065	-0,066	0,033
-551,627	-17,298	0,063	-0,029
-550,612	-18,427	-0,037	0,017
-549,598	800,000	-0,044	-0,094
-548,583	125,835	0,119	-0,112
-547,569	-152,988	0,071	-0,004
-546,554	794,590	0,067	0,137
-545,539	181,194	0,083	-0,091
-544,525	149,145	0,095	0,095
-543,510	-143,024	0,065	-0,005
-542,496	-33,519	-0,101	-0,041
-541,481	448,514	-0,046	-0,076
-540,466	-23,066	0,095	0,042
-539,452	-200,000	-0,015	0,102
-538,437	-200,000	0,006	0,093
-537,423	-200,000	-0,017	-0,087
-536,408	-200,000	0,013	-0,070
-535,393	-200,000	0,046	-0,238
-534,379	82,669	0,055	0,044
-533,364	-200,000	0,005	-0,101
-532,350	-9,531	0,044	0,022
-531,335	695,967	-0,089	0,174
-530,321	-200,000	0,005	0,124
-529,306	-105,647	0,160	0,026
-528,291	-33,129	0,032	0,013
-527,277	-111,223	0,021	0,003
-526,262	224,755	0,027	0,033
-525,248	-200,000	0,010	0,079
-524,233	-86,784	0,050	0,011
-523,218	154,318	-0,078	-0,080
-522,204	55,564	-0,063	0,045
-521,189	-17,873	-0,174	-0,080
-520,175	78,277	-0,076	0,060
-519,160	170,792	-0,025	0,026
-518,145	800,000	-0,030	-0,085
-517,131	-130,554	0,046	0,005
-516,116	-108,545	0,026	-0,004
-515,102	-168,621	0,072	0,002
-514,087	3,079	-0,118	-0,063
-513,072	-17,143	0,074	-0,034
-512,058	-66,257	-0,105	-0,031
-511,043	199,962	0,077	-0,087
-510,029	-84,457	0,097	0,022
-509,014	-200,000	-0,006	0,027
-507,999	-200,000	0,017	0,072
-506,985	46,171	0,103	0,070
-505,970	-16,540	0,094	-0,044
-504,956	800,000	0,032	-0,090
-503,941	226,854	-0,022	0,026
-502,926	-6,840	-0,106	-0,053
-501,912	5,407	-0,094	0,051
-500,897	-90,187	-0,042	-0,009
-499,883	39,971	0,047	-0,031
-498,868	-141,107	-0,085	0,006
-497,853	-104,744	-0,173	0,029
-496,839	-146,370	-0,063	0,004
-495,824	-23,289	-0,094	0,042
-494,810	29,083	0,031	-0,019
-493,795	800,000	0,036	0,087
-492,781	172,755	-0,033	0,035
-491,766	-8,802	-0,055	-0,027
-490,751	298,428	-0,045	-0,061
-489,737	-89,654	-0,086	-0,018
-488,722	199,556	0,041	0,046
-487,708	166,123	0,055	0,057
-486,693	369,585	-0,021	0,031
-485,678	-200,000	0,007	-0,093
-484,664	314,914	-0,018	-0,026
-483,649	221,773	-0,029	-0,035
-482,635	800,000	-0,073	0,171
-481,620	549,713	-0,042	-0,074
-480,605	238,021	0,084	0,103
-479,591	136,747	0,131	0,126
-478,576	-200,000	-0,004	-0,047
-477,562	632,373	-0,031	-0,057
-476,547	473,697	-0,056	-0,094
-475,532	-200,000	-0,002	-0,055
-474,518	26,072	0,112	-0,069
-473,503	800,000	0,034	0,097
-472,489	22,905	0,040	0,024
-471,474	-200,000	0,011	0,093
-470,459	191,184	0,011	-0,012
-469,445	-200,000	0,037	-0,143
-468,430	-200,000	-0,019	-0,109
-467,416	-120,371	-0,112	0,014
-466,401	398,405	0,062	-0,096
-465,386	143,718	0,040	-0,039
-464,372	-200,000	0,007	0,039
-463,357	-101,153	-0,111	-0,020
-462,343	800,000	-0,032	-0,081
-461,328	-200,000	0,007	-0,244
-460,313	-49,583	-0,134	-0,047
-459,299	323,235	0,090	-0,127
-458,284	800,000	0,043	0,097
-457,270	365,041	-0,058	0,086
-456,255	118,295	0,027	0,025
-455,241	436,795	-0,030	-0,048
-454,226	40,353	-0,099	-0,066
-453,211	-200,000	-0,009	-0,103
-452,197	-118,497	0,130	0,017
-451,182	-200,000	0,013	0,091
-450,168	172,999	-0,098	-0,104
-449,153	264,840	-0,085	-0,110
-448,138	611,231	-0,016	-0,029
-447,124	-107,262	0,017	-0,003
-446,109	124,448	0,054	-0,050
-445,095	-115,639	0,085	-0,012
-444,080	76,948	0,133	0,104
-443,065	262,309	-0,067	0,086
-442,051	485,746	0,027	0,046
-441,036	-200,000	-0,002	-0,020
-440,022	800,000	0,045	-0,102
-439,007	-164,568	0,060	-0,002
-437,992	3,853	0,089	-0,048
-436,978	-200,000	0,012	0,074
-435,963	356,674	0,087	0,128
-434,949	-200,000	-0,019	-0,087
-433,934	273,948	0,093	-0,121
-432,919	365,343	0,089	0,132
-431,905	-52,757	0,100	0,034
-430,890	-193,581	-0,013	0,000
-429,876	800,000	-0,043	0,095
-428,861	398,557	0,025	0,038
-427,846	-99,011	-0,036	0,007
-426,832	30,441	-0,096	-0,060
-425,817	230,574	-0,059	0,072
-424,803	53,413	0,097	-0,068
-423,788	-61,849	0,110	0,034
-422,773	296,477	-0,060	-0,081
-421,759	102,027	-0,047	0,040
-420,744	349,226	0,094	0,136
-419,730	-98,113	-0,216	-0,040
-418,715	311,276	-0,048	-0,067
-417,701	-200,000	-0,051	-0,260
-416,686	76,627	0,030	0,024
-415,671	-200,000	0,035	-0,124
-414,657	181,916	-0,020	-0,022
-413,642	-82,451	-0,135	0,032
-412,628	346,393	0,031	-0,045
-411,613	-200,000	-0,007	0,050
-410,598	-62,361	0,133	-0,041
-409,584	16,190	0,091	-0,052
-408,569	-200,000	-0,001	-0,029
-407,555	-200,000	-0,029	0,154
-406,540	414,790	-0,042	-0,066
-405,525	-200,000	0,004	0,031
-404,511	6,648	0,047	0,026
-403,496	-200,000	-0,001	0,102
-402,482	-200,000	0,002	0,042
-401,467	378,767	-0,027	-0,041
-400,452	567,058	0,018	-0,031
-399,438	-187,772	-0,007	0,000
-398,423	99,780	-0,038	0,033
-397,409	-53,936	-0,106	-0,035
-396,394	-114,877	0,074	-0,010
-395,379	371,743	0,068	-0,102
-394,365	395,254	0,032	-0,050
-393,350	-200,000	-0,036	0,141
-392,336	-91,168	0,113	-0,024
-391,321	68,633	0,074	0,056
-390,306	262,692	0,045	0,057
-389,292	-93,934	-0,109	-0,022
-388,277	567,623	-0,086	-0,154
-387,263	-200,000	0,034	-0,135
-386,248	-160,764	0,078	0,003
-385,233	-68,890	-0,157	0,044
-384,219	-23,998	-0,116	-0,051
-383,204	-82,618	0,241	0,057
-382,190	-200,000	0,024	-0,093
-381,175	333,907	0,030	-0,042
-380,160	113,102	0,053	0,047
-379,146	40,743	-0,044	0,029
-378,131	800,000	0,074	0,165
-377,117	440,629	0,050	-0,080
-376,102	-149,190	0,083	-0,005
-375,088	141,544	-0,082	-0,080
-374,073	297,171	-0,023	-0,031
-373,058	-97,475	-0,043	-0,008
-372,044	800,000	0,041	0,115
-371,029	1,426	-0,148	0,078
-370,015	800,000	0,035	0,091
-369,000	-71,062	0,120	-0,033
-367,985	-75,107	-0,156	0,041
-366,971	193,729	0,090	0,100
-365,956	-200,000	0,010	0,056
-364,942	344,562	0,116	0,167
-363,927	800,000	0,074	0,174
-362,912	123,753	-0,089	-0,082
-361,898	-200,000	-0,006	0,059
-360,883	-200,000	-0,013	0,162
-359,869	-67,403	0,060	0,017
-358,854	27,786	0,075	0,046
-357,839	98,020	0,082	0,069
-356,825	-200,000	0,056	0,207
-355,810	-200,000	0,026	-0,125
-354,796	273,844	-0,066	0,087
-353,781	800,000	0,017	-0,049
-352,766	-200,000	0,006	-0,098
-351,752	19,406	-0,041	0,024
-350,737	-36,836	0,072	0,028
-349,723	613,280	-0,065	0,119
-348,708	-55,258	0,199	0,065
-347,693	27,175	-0,060	0,037
-346,679	41,317	0,083	0,055
-345,664	-200,000	0,014	-0,089
-344,650	151,890	-0,054	0,054
-343,635	93,369	0,090	-0,075
-342,620	-200,000	-0,029	0,117
-341,606	249,740	-0,113	0,141
-340,591	-200,000	-0,003	0,018
-339,577	800,000	-0,019	0,040
-338,562	155,597	-0,102	0,103
-337,548	-135,003	0,136	0,012
-336,533	-29,699	-0,093	0,039
-335,518	-90,510	0,126	-0,027
-334,504	800,000	-0,028	0,076
-333,489	800,000	0,042	0,116
-332,475	252,101	-0,022	0,028
-331,460	72,734	0,048	0,037
-330,445	-93,876	-0,074	0,015
-329,431	4,675	-0,100	0,054
-328,416	27,053	0,032	0,020
-327,402	-11,126	0,056	-0,027
-326,387	-110,279	0,042	0,006
-325,372	-200,000	0,004	0,018
-324,358	-200,000	-0,031	-0,109
-323,343	800,000	-0,035	-0,089
-322,329	-104,459	0,173	0,029
-321,314	-124,346	0,044	0,005
-320,299	-74,156	0,101	0,026
-319,285	800,000	-0,014	-0,034
-318,270	-200,000	0,009	-0,055
-317,256	197,123	-0,056	-0,062
-316,241	-92,243	0,138	-0,028
-315,226	-200,000	-0,012	0,130
-314,212	-90,160	0,108	0,023
-313,197	299,532	0,041	0,056
-312,183	-11,386	-0,126	0,060
-311,168	-181,426	-0,064	-0,001
-310,153	-112,600	-0,086	0,012
-309,139	444,663	0,026	0,041
-308,124	-123,112	0,092	-0,011
-307,110	800,000	0,031	-0,086
-306,095	-156,515	0,114	0,005
-305,080	-5,805	0,105	-0,052
-304,066	87,176	0,025	-0,020
-303,051	478,126	-0,068	-0,112
-302,037	-200,000	-0,009	0,155
-301,022	112,239	0,051	0,045
-300,008	3,708	0,144	-0,077
-298,993	-67,434	0,116	0,033
-297,978	349,871	-0,055	0,080
-296,964	246,388	0,029	0,036
-295,949	24,184	-0,066	0,040
-294,935	800,000	-0,016	-0,042
-293,920	800,000	-0,023	-0,057
-292,905	-93,962	0,083	-0,017
-291,891	-181,477	0,181	0,003
-290,876	23,315	0,117	-0,070
-289,862	-200,000	-0,013	0,111
-288,847	122,043	-0,024	-0,022
-287,832	-32,291	0,097	0,040
-286,818	800,000	-0,026	-0,060
-285,803	-50,085	0,102	-0,035
-284,789	-23,646	0,042	-0,018
-283,774	185,557	0,038	0,041
-282,759	-200,000	-0,002	0,052
-281,745	-200,000	0,001	-0,056
-280,730	-153,477	-0,181	0,009
-279,716	-106,567	-0,110	-0,018
-278,701	301,217	-0,012	0,016
-277,686	112,356	0,147	0,130
-276,672	-200,000	0,016	0,147
-275,657	800,000	0,037	-0,080
-274,643	-200,000	-0,023	0,074
-273,628	-15,047	-0,066	0,031
-272,613	-88,281	0,109	0,024
-271,599	63,946	0,044	0,032
-270,584	-200,000	-0,013	0,082
-269,570	800,000	0,044	0,125
-268,555	-126,606	0,214	-0,023
-267,540	-135,875	0,073	-0,006
-266,526	282,898	-0,039	-0,051
-265,511	477,846	0,075	0,125
-264,497	800,000	0,019	0,057
-263,482	25,639	0,021	-0,013
-262,467	27,439	0,076	-0,046
-261,453	128,574	0,077	-0,072
-260,438	171,668	0,070	0,073
-259,424	-41,783	0,063	-0,023
-258,409	290,096	-0,054	-0,072
-257,395	-145,851	-0,082	0,005
-256,380	56,536	0,062	-0,044
-255,365	800,000	-0,041	0,094
-254,351	-200,000	0,004	0,033
-253,336	-200,000	0,015	0,061
-252,322	408,024	0,063	-0,098
-251,307	800,000	0,039	-0,119
-250,292	130,732	0,059	0,055
-249,278	-77,194	-0,126	0,032
-248,263	-31,217	-0,071	-0,029
-247,249	800,000	0,034	-0,082
-246,234	76,010	0,009	-0,007
-245,219	-81,912	-0,070	-0,017
-244,205	-7,305	0,161	0,079
-243,190	-36,595	-0,037	-0,015
-242,176	-66,795	-0,101	0,029
-241,161	-200,000	0,019	0,070
-240,146	-118,917	0,062	0,008
-239,132	-200,000	-0,021	-0,091
-238,117	-127,445	-0,105	0,011
-237,103	-15,289	0,089	-0,042
-236,088	800,000	0,036	0,084
-235,073	-200,000	0,002	0,023
-234,059	800,000	-0,015	0,032
-233,044	-40,779	0,047	0,018
-232,030	92,995	-0,076	-0,062
-231,015	188,262	0,060	0,066
-230,000	800,000	-0,052	-0,167
-228,986	-135,793	-0,061	0,005
-227,971	231,326	0,037	-0,044
-226,957	800,000	-0,017	-0,038
-225,942	-200,000	0,008	0,039
-224,927	-61,771	-0,051	-0,016
-223,913	425,886	-0,093	-0,147
-222,898	-20,179	0,128	-0,058
-221,884	-200,000	-0,013	-0,084
-220,869	-200,000	0,007	0,092
-219,855	153,570	-0,022	0,022
-218,840	-200,000	0,013	0,149
-217,825	259,096	-0,045	0,057
-216,811	296,475	-0,061	0,082
-215,796	185,328	-0,076	-0,082
-214,782	800,000	0,055	-0,116
-213,767	376,451	0,075	0,112
-212,752	-130,863	-0,047	0,005
-211,738	5,423	0,018	-0,009
-210,723	-64,131	-0,099	0,029
-209,709	391,761	0,078	-0,119
-208,694	148,152	-0,143	-0,141
-207,679	-200,000	0,013	-0,193
-206,665	-123,208	0,065	-0,008
-205,650	37,159	0,028	0,018
-204,636	-200,000	0,007	0,099
-203,621	-8,161	0,117	-0,057
-202,606	-200,000	0,000	-0,047
-201,592	-200,000	0,039	-0,144
-200,577	-200,000	-0,015	0,064
-199,563	-118,201	0,133	-0,017
-198,548	-126,298	0,036	-0,004
-197,533	32,846	0,014	0,009
-196,519	-130,187	-0,058	0,006
-195,504	632,293	-0,029	0,053
-194,490	-55,387	-0,117	0,038
-193,475	-200,000	-0,021	-0,133
-192,460	-38,064	-0,214	0,083
-191,446	267,834	0,078	0,099
-190,431	-123,784	-0,043	-0,005
-189,417	630,019	0,051	0,094
-188,402	-58,840	-0,038	0,012
-187,387	-11,783	-0,129	-0,061
-186,373	-140,928	0,066	0,005
-185,358	-200,000	0,003	0,020
-184,344	-200,000	0,008	-0,128
-183,329	46,271	-0,097	-0,065
-182,315	758,622	-0,079	0,157
-181,300	-200,000	-0,015	0,099
-180,285	123,724	-0,066	-0,061
-179,271	106,731	0,062	-0,053
-178,256	-25,949	-0,071	-0,030
-177,242	153,315	-0,020	-0,020
-176,227	-132,302	0,120	0,011
-175,212	-43,799	-0,019	0,007
-174,198	-200,000	-0,014	0,090
-173,183	-200,000	-0,005	-0,066
-172,169	-200,000	0,005	-0,148
-171,154	800,000	-0,030	-0,085
-170,139	-130,794	-0,123	-0,012
-169,125	-200,000	-0,017	0,103
-168,110	555,871	0,082	0,145
-167,096	757,163	0,068	0,135
-166,081	-94,491	-0,072	-0,014
-165,066	-200,000	-0,009	-0,146
-164,052	-200,000	0,006	0,137
-163,037	-200,000	0,038	0,152
-162,023	800,000	-0,011	0,029
-161,008	240,984	-0,067	0,082
-159,993	-200,000	-0,002	0,034
-158,979	-133,541	-0,076	-0,007
-157,964	-73,526	-0,056	0,015
-156,950	-139,822	-0,142	0,011
-155,935	-200,000	-0,005	0,061
-154,920	225,392	0,105	0,124
-153,906	800,000	-0,042	0,092
-152,891	-48,355	-0,088	0,031
-151,877	-200,000	-0,006	0,026
-150,862	800,000	0,033	-0,069
-149,847	-200,000	0,014	-0,098
-148,833	-200,000	0,007	-0,027
-147,818	-125,365	0,113	0,012
-146,804	-200,000	-0,139	0,000
-145,789	-173,059	0,180	-0,004
-144,775	800,000	0,025	-0,073
-143,760	336,209	-0,085	-0,120
-142,745	100,531	0,101	-0,086
-141,731	-58,124	0,111	0,035
-140,716	155,837	0,101	-0,101
-139,702	-5,075	0,045	0,023
-138,687	177,684	-0,132	0,140
-137,672	67,232	0,068	0,051
-136,658	-99,272	-0,038	-0,007
-135,643	-200,000	-0,002	-0,117
-134,629	-200,000	-0,002	0,025
-133,614	-67,084	0,213	-0,061
-132,599	11,621	-0,038	0,021
-131,585	9,303	-0,060	-0,033
-130,570	486,378	-0,070	0,117
-129,556	100,243	-0,067	0,056
-128,541	-124,411	-0,090	-0,010
-127,526	-40,689	0,063	0,024
-126,512	-108,458	0,037	0,006
-125,497	394,948	0,068	-0,103
-124,483	-172,918	0,036	-0,001
-123,468	-120,765	-0,112	0,014
-122,453	201,654	0,056	-0,063
-121,439	-200,000	0,012	-0,122
-120,424	169,063	-0,045	0,047
-119,410	-132,239	-0,088	0,008
-118,395	-200,000	-0,001	0,032
-117,380	-200,000	-0,007	-0,088
-116,366	-35,316	0,087	0,034
-115,351	-200,000	0,010	0,115
-114,337	18,484	0,175	-0,101
-113,322	-130,294	0,029	0,003
-112,307	-130,808	-0,094	0,009
-111,293	-96,553	-0,117	-0,022
-110,278	9,054	-0,014	0,007
-109,264	-140,848	-0,053	0,004
-108,249	75,168	-0,067	0,051
-107,234	-40,813	-0,137	-0,051
-106,220	-200,000	0,002	-0,051
-105,205	-89,136	0,106	-0,023
-104,191	-72,022	-0,114	0,031
-103,176	-14,144	-0,066	-0,031
-102,162	-159,671	-0,099	-0,004
-101,147	-77,733	0,036	-0,009
-100,132	-200,000	-0,005	-0,216
-99,118	-200,000	0,000	-0,043
-98,103	-200,000	0,029	-0,131
-97,089	800,000	-0,053	0,124
-96,074	-200,000	0,012	0,140
-95,059	140,917	-0,101	0,097
-94,045	800,000	-0,038	0,119
-93,030	18,617	0,019	0,011
-92,016	-200,000	0,003	-0,053
-91,001	800,000	-0,012	-0,035
-89,986	-63,843	0,139	-0,041
-88,972	-57,233	0,103	-0,033
-87,957	800,000	-0,018	-0,042
-86,943	-104,222	-0,112	0,019
-85,928	51,127	-0,018	-0,012
-84,913	-131,877	-0,190	-0,018
-83,899	87,352	0,088	0,070
-82,884	211,874	0,032	0,037
-81,870	-105,565	-0,051	0,008
-80,855	-73,085	0,045	-0,012
-79,840	713,215	-0,056	-0,109
-78,826	-30,383	0,122	-0,050
-77,811	-36,032	-0,132	0,052
-76,797	18,957	0,092	-0,053
-75,782	651,334	0,043	0,080
-74,767	413,487	0,051	0,079
-73,753	-200,000	-0,034	0,164
-72,738	-125,216	0,072	0,008
-71,724	99,329	-0,087	0,073
-70,709	154,229	-0,084	0,084
-69,694	-200,000	-0,009	-0,121
-68,680	692,441	-0,042	0,080
-67,665	185,789	0,053	0,057
-66,651	800,000	0,031	-0,085
-65,636	65,358	-0,085	0,062
-64,622	413,233	-0,052	-0,081
-63,607	-47,328	-0,100	-0,035
-62,592	723,888	0,012	0,023
-61,578	-130,977	0,065	-0,006
-60,563	-136,453	-0,115	0,010
-59,549	-153,331	-0,128	0,006
-58,534	-153,114	-1,198	-0,060
-57,519	796,727	-0,768	-1,542
-56,505	-200,000	-0,990	-4,434
-55,490	45,515	0,629	-0,421
-54,476	800,000	4,980	11,827
-53,461	-200,000	13,261	253,279
-52,446	-200,000	688,528	2271,481
-51,432	597,936	1622,970	2931,178
-50,417	121,077	1636,709	1477,878
-49,403	73,604	1290,789	979,978
-48,388	38,433	1025,550	661,801
-47,373	24,654	982,752	588,849
-46,359	23,755	972,695	579,848
-45,344	22,840	968,475	574,317
-44,330	22,814	966,945	573,304
-43,315	22,666	965,476	571,928
-42,300	22,694	964,415	571,368
-41,286	22,671	963,541	570,751
-40,271	22,672	962,641	570,198
-39,257	22,673	961,540	569,528
-38,242	22,692	960,711	569,076
-37,227	22,657	959,939	568,482
-36,213	22,663	958,967	567,905
-35,198	22,610	958,269	567,296
-34,184	22,696	957,481	567,085
-33,169	22,657	956,610	566,420
-32,154	22,716	955,619	566,001
-31,140	22,725	954,815	565,533
-30,125	22,737	953,964	565,043
-29,111	22,736	953,263	564,603
-28,096	22,671	952,640	564,002
-27,082	22,727	951,947	563,750
-26,067	22,713	951,070	563,165
-25,052	22,715	950,335	562,713
-24,038	22,699	949,747	562,290
-23,023	22,746	948,977	561,963
-22,009	22,774	948,420	561,700
-20,994	22,741	947,887	561,257
-19,979	22,723	947,189	560,764
-18,965	22,690	946,716	560,357
-17,950	22,727	945,800	559,910
-16,936	22,617	945,254	559,214
-15,921	22,689	944,557	559,008
-14,906	22,534	943,755	558,017
-13,892	22,593	943,228	557,873
-12,877	22,604	942,461	557,432
-11,863	22,555	942,066	557,020
-10,848	22,564	941,523	556,705
-9,833	22,697	940,949	556,767
-8,819	22,664	940,297	556,255
-7,804	22,594	939,728	555,673
-6,790	22,606	939,089	555,312
-5,775	22,691	938,519	555,222
-4,760	22,607	937,779	554,496
-3,746	22,648	937,224	554,275
-2,731	22,484	936,437	553,271
-1,717	22,437	935,721	552,677
-0,702	22,466	935,132	552,396
0,313	22,231	934,524	552,130
1,327	25,351	932,500	560,703
2,342	35,119	797,096	505,323
3,356	33,394	451,966	283,901
4,371	2,209	293,533	153,316
5,386	-2,293	274,420	139,066
6,400	-3,766	268,556	134,718
7,415	-4,265	266,056	132,993
8,429	-3,916	264,795	132,670
9,444	-4,078	264,154	132,190
10,459	-4,158	263,478	131,766
11,473	-3,968	262,729	131,553
12,488	-4,148	262,164	131,095
13,502	-4,072	261,845	130,993
14,517	-4,272	261,300	130,528
15,531	-4,296	260,966	130,328
16,546	-4,277	260,703	130,202
17,561	-4,247	260,238	129,985
18,575	-4,078	259,858	129,935
19,590	-4,241	259,494	129,596
20,604	-4,140	259,134	129,495
21,619	-4,204	258,942	129,330
22,634	-4,162	258,554	129,162
23,648	-4,344	258,340	128,881
24,663	-4,391	258,145	128,731
25,677	-4,279	257,722	128,608
26,692	-4,307	257,483	128,453
27,707	-4,275	257,260	128,358
28,721	-4,328	257,031	128,186
29,736	-4,259	256,748	128,094
30,750	-4,286	256,411	127,890
31,765	-4,412	256,376	127,751
32,780	-4,198	255,985	127,733
33,794	-4,327	255,857	127,545
34,809	-4,547	255,712	127,266
35,823	-4,395	255,300	127,183
36,838	-4,342	255,111	127,125
37,853	-4,515	254,928	126,871
38,867	-4,577	254,742	126,713
39,882	-4,329	254,545	126,820
40,896	-4,437	254,238	126,561
41,911	-4,514	253,964	126,347
42,926	-4,434	253,878	126,362
43,940	-4,557	253,607	126,109
44,955	-4,513	253,411	126,038
45,969	-4,518	253,035	125,836
46,984	-4,724	252,818	125,537
47,999	-4,616	252,464	125,445
49,013	-4,880	252,197	125,072
50,028	-5,335	252,187	124,660
51,042	-5,338	251,851	124,481
52,057	-5,173	251,617	124,498
53,071	-5,216	251,493	124,388
54,086	-5,119	251,332	124,381
55,101	-4,939	251,158	124,439
56,115	-4,708	250,935	124,516
57,130	-4,237	250,883	124,885
58,144	-4,029	250,868	125,046
59,159	-4,034	250,531	124,862
60,174	-3,974	250,271	124,774
61,188	-4,048	250,093	124,610
62,203	-4,134	249,880	124,419
63,217	-4,325	249,740	124,175
64,232	-4,116	249,579	124,262
65,247	-4,278	249,321	123,984
66,261	-4,156	248,991	123,913
67,276	-4,414	248,921	123,647
68,290	-4,649	248,564	123,258
69,305	-4,723	248,459	123,132
70,320	-4,646	248,177	123,047
71,334	-4,420	248,003	123,142
72,349	-4,344	248,073	123,231
73,363	-4,212	247,775	123,184
74,378	-4,102	247,495	123,126
75,393	-4,078	247,229	123,004
76,407	-4,251	247,145	122,805
77,422	-4,296	246,898	122,632
78,436	-4,217	246,666	122,574
79,451	-4,124	246,414	122,516
80,466	-4,277	246,019	122,180
81,480	-4,549	246,005	121,932
82,495	-4,441	245,744	121,882
83,509	-4,392	245,598	121,840
84,524	-4,494	245,502	121,697
85,539	-4,635	245,171	121,403
86,553	-4,710	245,055	121,272
87,568	-4,509	244,937	121,371
88,582	-4,320	244,619	121,361
89,597	-4,514	244,460	121,110
90,611	-4,163	244,246	121,286
91,626	-4,228	244,229	121,212
92,641	-4,180	244,052	121,154
93,655	-4,318	243,777	120,891
94,670	-4,316	243,663	120,826
95,684	-4,537	243,460	120,530
96,699	-4,249	243,372	120,716
97,714	-4,432	243,033	120,384
98,728	-4,590	242,880	120,167
99,743	-4,579	242,633	120,043
100,757	-4,665	242,344	119,818
101,772	-4,634	242,402	119,861
102,787	-4,668	242,118	119,682
103,801	-4,653	241,942	119,598
104,816	-4,439	241,850	119,718
105,830	-4,429	241,753	119,667
106,845	-4,321	241,618	119,679
107,860	-4,371	241,352	119,496
108,874	-4,400	241,143	119,358
109,889	-4,592	240,952	119,094
110,903	-4,353	240,675	119,143
111,918	-4,550	240,606	118,936
112,933	-4,433	240,478	118,958
113,947	-4,224	240,306	119,035
114,962	-4,388	240,124	118,800
115,976	-4,263	239,888	118,775
116,991	-4,445	239,869	118,605
118,006	-4,337	239,611	118,556
119,020	-4,307	239,480	118,505
120,035	-4,138	239,196	118,492
121,049	-4,380	239,061	118,217
122,064	-4,212	239,073	118,350
123,079	-4,438	238,820	118,030
124,093	-4,478	238,504	117,830
125,108	-4,754	238,445	117,565
126,122	-4,983	238,095	117,196
127,137	-4,851	237,768	117,132
128,151	-4,697	237,694	117,211
129,166	-4,576	237,603	117,253
130,181	-4,641	237,396	117,087
131,195	-4,616	237,119	116,961
132,210	-4,447	237,001	117,029
133,224	-4,474	236,957	116,975
134,239	-4,130	236,854	117,192
135,254	-4,282	236,604	116,935
136,268	-4,606	236,413	116,569
137,283	-4,596	236,273	116,497
138,297	-4,763	235,950	116,193
139,312	-4,823	235,691	116,007
140,327	-4,431	235,715	116,323
141,341	-4,110	235,733	116,580
142,356	-4,025	235,490	116,518
143,370	-4,117	235,391	116,385
144,385	-4,034	235,285	116,389
145,400	-3,795	235,016	116,437
146,414	-3,819	234,851	116,325
147,429	-3,888	234,696	116,183
148,443	-3,938	234,495	116,033
149,458	-3,943	234,284	115,914
150,473	-4,062	234,199	115,767
151,487	-4,181	233,994	115,560
152,502	-4,027	233,865	115,610
153,516	-3,980	233,578	115,494
154,531	-4,083	233,376	115,302
155,546	-4,212	233,427	115,215
156,560	-4,129	233,215	115,166
157,575	-4,161	232,878	114,964
158,589	-4,190	232,774	114,879
159,604	-4,143	232,840	114,939
160,619	-4,160	232,564	114,778
161,633	-3,920	232,375	114,865
162,648	-3,901	232,316	114,840
163,662	-4,057	232,154	114,627
164,677	-3,998	231,934	114,555
165,692	-4,092	231,927	114,467
166,706	-4,019	231,710	114,407
167,721	-3,864	231,608	114,469
168,735	-3,742	231,446	114,474
169,750	-3,822	231,128	114,245
170,764	-3,857	231,083	114,185
171,779	-3,900	230,960	114,079
172,794	-3,740	230,648	114,041
173,808	-4,167	230,609	113,676
174,823	-4,622	230,242	113,130
175,837	-4,295	229,957	113,235
176,852	-4,266	230,080	113,308
177,867	-4,050	229,999	113,426
178,881	-3,901	229,803	113,436
179,896	-3,856	229,646	113,383
180,910	-3,907	229,531	113,277
181,925	-3,907	229,415	113,210
182,940	-3,997	229,166	113,006
183,954	-3,896	229,215	113,099
184,969	-3,946	228,871	112,881
185,983	-3,624	228,722	113,047
186,998	-3,775	228,607	112,863
188,013	-3,724	228,533	112,856
189,027	-3,818	228,346	112,681
190,042	-3,991	228,245	112,487
191,056	-3,897	227,906	112,383
192,071	-3,851	227,734	112,323
193,086	-3,971	227,633	112,171
194,100	-3,957	227,535	112,123
195,115	-3,951	227,167	111,937
196,129	-4,637	226,831	111,233
197,144	-1,193	227,990	114,454
198,159	2,717	229,021	117,991
199,173	4,012	229,325	119,141
200,188	4,096	229,199	119,130
201,202	4,169	229,182	119,167
202,217	4,319	229,042	119,199
203,232	4,649	228,882	119,360
204,246	4,731	228,670	119,303
205,261	4,823	228,538	119,293
206,275	5,039	228,612	119,488
207,290	5,191	228,365	119,465
208,304	4,855	228,331	119,178
209,319	4,894	227,959	119,003
210,334	4,706	227,952	118,844
211,348	4,537	227,530	118,485
212,363	4,270	227,287	118,143
213,377	3,829	227,206	117,752
214,392	4,066	227,082	117,859
215,407	4,075	226,834	117,727
216,421	4,334	226,635	117,811
217,436	4,227	226,517	117,657
218,450	3,956	226,250	117,302
219,465	3,709	226,193	117,073
220,480	3,802	226,153	117,113
221,494	3,928	225,991	117,114
222,509	4,199	225,738	117,179
223,523	3,908	225,769	116,964
224,538	4,165	225,403	116,958
225,553	4,063	225,339	116,838
226,567	4,193	225,378	116,946
227,582	4,211	225,214	116,864
228,596	4,477	225,064	116,978
229,611	3,840	224,865	116,381
230,626	4,164	224,634	116,496
231,640	3,835	224,503	116,169
232,655	4,096	224,549	116,380
233,669	4,667	224,329	116,687
234,684	4,889	224,223	116,788
235,699	4,447	223,983	116,321
236,713	4,334	223,795	116,127
237,728	4,118	223,625	115,866
238,742	3,961	223,370	115,606
239,757	3,897	223,358	115,541
240,772	4,055	223,238	115,588
241,786	4,090	223,017	115,489
242,801	4,108	222,979	115,472
243,815	4,609	222,877	115,784
244,830	4,449	222,809	115,619
245,844	4,130	222,545	115,233
246,859	3,898	222,392	114,970
247,874	4,397	222,164	115,215
248,888	4,277	222,248	115,159
249,903	4,279	221,888	114,963
250,917	4,103	221,644	114,695
251,932	3,948	221,608	114,551
252,947	4,136	221,456	114,602
253,961	3,846	221,440	114,368
254,976	3,919	221,105	114,239
255,990	4,085	220,989	114,292
257,005	4,178	221,011	114,362
258,020	4,356	220,880	114,416
259,034	4,355	220,738	114,332
260,049	4,308	220,582	114,206
261,063	4,389	220,379	114,151
262,078	4,410	220,350	114,141
263,093	4,551	220,252	114,184
264,107	4,223	220,054	113,829
265,122	4,484	219,961	113,963
266,136	4,372	219,854	113,816
267,151	4,376	219,798	113,779
268,166	4,347	219,409	113,546
269,180	4,324	219,091	113,355
270,195	3,993	218,936	113,021
271,209	3,916	218,887	112,929
272,224	3,809	218,929	112,862
273,239	3,890	218,790	112,840
274,253	3,944	218,508	112,724
275,268	3,801	218,282	112,493
276,282	3,680	218,087	112,294
277,297	3,742	217,885	112,225
278,312	3,984	217,749	112,322
279,326	3,997	217,812	112,354
280,341	4,133	217,715	112,393
281,355	4,210	217,576	112,367
282,370	3,877	217,281	111,963
283,384	4,006	217,180	111,994
284,399	3,760	216,940	111,682
285,414	3,851	216,809	111,670
286,428	4,094	216,792	111,828
287,443	4,279	216,714	111,912
288,457	4,268	216,499	111,783
289,472	4,220	216,424	111,700
290,487	3,686	216,164	111,169
291,501	3,647	215,993	111,043
292,516	3,758	215,816	111,022
293,530	3,798	215,837	111,052
294,545	3,783	215,633	110,926
295,560	3,515	215,679	110,746
296,574	3,907	215,431	110,892
297,589	3,768	215,307	110,718
298,603	4,190	215,128	110,920
299,618	4,124	215,012	110,802
300,633	4,155	214,983	110,800
301,647	4,322	214,968	110,902
302,662	4,226	214,765	110,719
303,676	4,501	214,534	110,788
304,691	4,183	214,576	110,571
305,706	4,292	214,171	110,431
306,720	4,526	214,018	110,509
307,735	4,057	213,800	110,052
308,749	3,976	213,709	109,937
309,764	4,180	213,702	110,069
310,779	4,273	213,519	110,032
311,793	4,259	213,499	110,001
312,808	4,238	213,353	109,902
313,822	4,343	213,037	109,803
314,837	3,889	212,963	109,433
315,852	3,820	212,715	109,246
316,866	4,120	212,502	109,341
317,881	4,251	212,513	109,430
318,895	4,295	212,473	109,430
319,910	4,075	212,239	109,144
320,925	3,847	211,977	108,838
321,939	3,654	211,782	108,592
322,954	3,679	211,701	108,559
323,968	4,048	211,805	108,863
324,983	4,225	211,698	108,923
325,997	4,030	211,644	108,748
327,012	4,419	211,277	108,824
328,027	4,107	211,234	108,573
329,041	4,378	211,139	108,705
330,056	4,527	211,147	108,804
331,070	4,436	210,911	108,609
332,085	3,954	210,555	108,077
333,100	3,995	210,568	108,103
334,114	3,991	210,428	108,019
335,129	4,173	210,129	107,983
336,143	3,831	210,112	107,725
337,158	3,901	209,918	107,665
338,173	3,913	209,818	107,613
339,187	3,664	209,797	107,418
340,202	3,596	209,624	107,272
341,216	3,602	209,401	107,153
342,231	3,813	209,285	107,231
343,246	3,833	209,213	107,198
344,260	3,815	209,009	107,072
345,275	3,864	208,953	107,068
346,289	4,169	208,839	107,212
347,304	3,815	208,861	106,967
348,319	3,908	208,658	106,919
349,333	4,129	208,481	106,972
350,348	4,093	208,291	106,839
351,362	4,288	208,184	106,911
352,377	4,017	208,220	106,732
353,392	4,021	207,789	106,504
354,406	4,088	207,741	106,516
355,421	193,280	1348,299	1434,922
356,435	154,155	1487,375	1435,043
