DTS Sentinel unit serial number:	SN410029Multiplexer serial number:	ORYXHardware model number:	OX2-SRSoftware version number:	ORYX F/W v4,00 Oryx Data Collector v3.7.2.0data status	okinstallation	B6 Nyhavnadifferential loss correction	single-endedforward channel	channel 2reverse channel	N/Adate	2023/12/09time	14:20:08forward acquisition time	300,00reverse acquisition time	0,00gamma	499,1914k internal	0,3133k external	0,3133temperature offset calibration	1,0000default loss term (dB/km)	0,3820temperature slope calibration	1,0000multiplexer offset coefficient	1,0000multiplexer slope coefficient	1,0000fibre end	0,00T internal ref (°C)	20,50T ext. ref 1 (°C)	4,32T ext. ref 2 (°C)	4,34length (m)	temperature (°C)	Stokes	anti-Stokes-744,400	102,904	0,120	-0,104
-743,385	-86,192	-0,162	0,037
-742,371	-67,817	0,059	-0,017
-741,356	169,630	-0,135	0,143
-740,342	-138,923	0,170	-0,013
-739,327	-165,025	-0,182	0,006
-738,312	244,071	0,032	-0,040
-737,298	-65,073	-0,297	0,088
-736,283	800,000	0,055	0,148
-735,269	154,126	-0,220	0,224
-734,254	618,289	-0,030	0,056
-733,239	-89,279	-0,352	-0,076
-732,225	-141,462	0,219	0,016
-731,210	-40,384	-0,050	0,019
-730,196	-128,891	-0,128	-0,013
-729,181	174,545	-0,031	-0,034
-728,167	800,000	0,049	-0,107
-727,152	68,213	-0,018	0,014
-726,137	800,000	-0,026	-0,077
-725,123	-142,560	-0,174	-0,012
-724,108	203,682	-0,151	-0,174
-723,094	-200,000	-0,006	-0,110
-722,079	58,720	-0,067	-0,049
-721,064	431,573	0,038	0,062
-720,050	329,374	-0,030	0,043
-719,035	-200,000	0,008	-0,105
-718,021	114,133	-0,103	-0,093
-717,006	-103,839	-0,094	-0,016
-715,991	71,308	-0,105	-0,081
-714,977	57,245	-0,063	-0,045
-713,962	523,676	-0,033	-0,058
-712,948	6,902	-0,052	0,029
-711,933	-63,825	-0,184	0,055
-710,918	8,015	0,049	-0,027
-709,904	-77,690	-0,109	-0,028
-708,889	232,134	-0,065	0,080
-707,875	-200,000	0,021	-0,078
-706,860	-46,932	-0,183	0,066
-705,845	-200,000	0,019	-0,086
-704,831	-67,328	0,005	0,002
-703,816	-162,118	-0,157	-0,006
-702,802	102,543	0,128	-0,111
-701,787	-125,660	-0,035	-0,004
-700,772	-200,000	0,010	0,044
-699,758	125,453	-0,043	-0,040
-698,743	649,425	0,053	-0,102
-697,729	-200,000	0,026	0,151
-696,714	222,820	0,015	0,018
-695,699	-200,000	0,002	-0,024
-694,685	498,972	-0,031	-0,053
-693,670	197,647	-0,100	0,114
-692,656	56,652	-0,058	0,042
-691,641	-156,390	-0,035	0,002
-690,627	77,034	-0,013	0,010
-689,612	-16,018	0,140	0,066
-688,597	800,000	-0,046	-0,124
-687,583	-57,825	-0,164	-0,053
-686,568	800,000	0,027	-0,074
-685,554	253,292	-0,141	0,179
-684,539	800,000	0,044	0,092
-683,524	138,967	0,134	0,131
-682,510	170,130	-0,077	-0,082
-681,495	81,340	-0,128	-0,102
-680,481	-200,000	-0,011	-0,068
-679,466	310,674	-0,038	0,053
-678,451	-15,286	-0,071	0,033
-677,437	-58,571	-0,109	0,035
-676,422	-77,900	0,109	-0,028
-675,408	800,000	-0,027	-0,059
-674,393	800,000	-0,056	-0,151
-673,378	33,267	0,023	0,015
-672,364	-25,845	-0,117	-0,051
-671,349	-171,212	-0,053	0,001
-670,335	-200,000	0,014	-0,057
-669,320	265,538	0,060	-0,078
-668,305	-49,855	0,146	-0,051
-667,291	-91,057	-0,117	0,025
-666,276	205,017	-0,021	0,025
-665,262	222,252	0,065	-0,078
-664,247	-20,842	-0,168	-0,076
-663,232	552,473	-0,054	-0,096
-662,218	-78,853	0,185	-0,046
-661,203	-200,000	0,017	0,058
-660,189	-200,000	0,004	0,110
-659,174	100,209	-0,062	-0,054
-658,159	-68,550	-0,055	-0,016
-657,145	-39,809	0,146	0,056
-656,130	254,476	-0,045	-0,057
-655,116	800,000	-0,013	-0,034
-654,101	-200,000	-0,003	0,062
-653,086	-200,000	-0,016	-0,060
-652,072	800,000	0,043	0,121
-651,057	-200,000	-0,059	-0,208
-650,043	35,921	0,067	0,043
-649,028	427,894	0,011	0,018
-648,014	153,945	-0,062	0,063
-646,999	-60,814	0,155	0,048
-645,984	-117,149	-0,166	0,022
-644,970	-26,290	-0,101	-0,044
-643,955	800,000	-0,049	0,135
-642,941	-184,367	0,046	-0,001
-641,926	-200,000	-0,003	-0,084
-640,911	125,818	0,040	-0,038
-639,897	800,000	0,032	0,065
-638,882	282,604	0,046	-0,061
-637,868	74,954	0,081	-0,063
-636,853	166,254	-0,153	-0,161
-635,838	194,979	-0,096	-0,108
-634,824	-101,840	-0,158	0,028
-633,809	458,409	-0,040	0,066
-632,795	-78,770	-0,070	0,018
-631,780	-93,304	-0,069	0,014
-630,765	-53,021	0,159	0,054
-629,751	283,200	0,023	-0,031
-628,736	108,154	-0,200	-0,176
-627,722	2,444	-0,120	-0,064
-626,707	800,000	0,017	-0,050
-625,692	325,210	0,030	-0,042
-624,678	123,315	0,094	0,087
-623,663	800,000	-0,008	-0,022
-622,649	-97,445	-0,072	-0,014
-621,634	-117,698	-0,171	-0,023
-620,619	-152,076	0,078	-0,004
-619,605	800,000	-0,048	-0,137
-618,590	800,000	0,034	-0,111
-617,576	362,740	0,001	-0,002
-616,561	-11,166	0,013	0,006
-615,546	107,010	0,075	-0,066
-614,532	-200,000	-0,042	-0,137
-613,517	-200,000	-0,005	-0,097
-612,503	-200,000	0,007	-0,040
-611,488	-200,000	0,053	0,231
-610,474	-200,000	-0,003	0,083
-609,459	-57,424	0,132	-0,042
-608,444	-200,000	-0,018	0,123
-607,430	-131,944	-0,095	0,009
-606,415	800,000	0,007	-0,020
-605,401	325,770	0,054	0,076
-604,386	464,741	0,076	-0,126
-603,371	-55,673	0,077	-0,025
-602,357	-200,000	0,033	-0,147
-601,342	238,923	-0,012	-0,015
-600,328	17,744	-0,172	-0,101
-599,313	800,000	0,017	0,051
-598,298	-56,870	-0,119	-0,039
-597,284	-200,000	-0,002	0,089
-596,269	84,072	0,021	0,017
-595,255	73,605	0,097	0,075
-594,240	-200,000	0,025	0,118
-593,225	-37,040	-0,156	-0,061
-592,211	-200,000	0,020	-0,088
-591,196	-49,704	0,102	-0,035
-590,182	285,284	0,088	0,118
-589,167	38,850	-0,026	-0,017
-588,152	188,429	-0,026	0,029
-587,138	13,769	-0,052	-0,030
-586,123	-85,989	-0,152	0,034
-585,109	-177,936	-0,104	0,002
-584,094	307,242	0,058	-0,080
-583,079	-200,000	-0,000	0,071
-582,065	-142,218	0,133	-0,010
-581,050	108,762	0,095	0,084
-580,036	800,000	0,047	0,112
-579,021	-30,870	-0,028	-0,012
-578,006	42,374	-0,119	-0,079
-576,992	-6,275	0,142	-0,071
-575,977	-63,835	-0,029	-0,009
-574,963	380,858	-0,020	0,031
-573,948	800,000	0,021	0,044
-572,934	800,000	0,027	0,079
-571,919	447,838	0,050	-0,081
-570,904	197,416	-0,034	-0,038
-569,890	-200,000	0,006	-0,045
-568,875	448,662	-0,036	-0,059
-567,861	-200,000	0,018	-0,085
-566,846	10,123	0,037	0,021
-565,831	-200,000	0,002	-0,114
-564,817	-136,968	-0,130	0,011
-563,802	222,200	0,031	0,036
-562,788	106,851	0,041	0,036
-561,773	-200,000	0,003	0,059
-560,758	-62,718	0,087	0,027
-559,744	-78,329	-0,139	0,035
-558,729	75,431	-0,051	-0,040
-557,715	-8,487	-0,077	0,038
-556,700	562,802	-0,125	-0,224
-555,685	800,000	0,006	-0,016
-554,671	-67,186	0,157	0,045
-553,656	9,539	-0,053	-0,029
-552,642	503,838	0,011	0,019
-551,627	-106,468	0,080	0,013
-550,612	53,442	-0,095	-0,067
-549,598	-58,263	-0,240	-0,076
-548,583	60,196	-0,134	0,097
-547,569	800,000	0,050	0,102
-546,554	462,339	0,034	-0,056
-545,539	390,572	0,033	0,050
-544,525	-78,128	0,114	-0,029
-543,510	-38,086	0,012	0,005
-542,496	800,000	0,021	-0,052
-541,481	-200,000	0,011	-0,170
-540,466	-74,622	0,118	0,031
-539,452	-200,000	0,002	0,038
-538,437	-38,678	0,171	-0,066
-537,423	65,077	0,080	0,059
-536,408	-61,082	0,123	0,038
-535,393	370,920	-0,047	-0,071
-534,379	210,719	0,039	0,045
-533,364	-77,283	-0,056	0,014
-532,350	800,000	-0,031	0,064
-531,335	-200,000	-0,023	-0,075
-530,321	114,552	0,053	-0,047
-529,306	208,097	0,077	0,089
-528,291	-200,000	-0,030	0,134
-527,277	-200,000	-0,002	0,096
-526,262	24,342	0,055	0,033
-525,248	800,000	-0,024	0,052
-524,233	-122,920	-0,152	0,018
-523,218	-111,170	0,043	-0,006
-522,204	-200,000	-0,018	-0,077
-521,189	-101,112	0,057	-0,010
-520,175	800,000	0,034	0,085
-519,160	-200,000	-0,010	0,121
-518,145	-152,480	0,186	-0,010
-517,131	120,605	0,034	0,031
-516,116	800,000	-0,036	0,095
-515,102	365,231	-0,065	0,097
-514,087	5,410	-0,033	-0,018
-513,072	800,000	-0,011	0,027
-512,058	-200,000	-0,027	-0,095
-511,043	-29,913	0,159	-0,067
-510,029	-138,186	0,136	0,011
-509,014	-9,083	0,073	-0,036
-507,999	-104,111	0,080	-0,014
-506,985	-111,920	-0,116	0,017
-505,970	800,000	-0,031	-0,078
-504,956	761,768	0,022	-0,044
-503,941	-200,000	-0,006	-0,063
-502,926	-200,000	-0,001	0,073
-501,912	-38,449	-0,024	-0,009
-500,897	800,000	0,024	0,069
-499,883	157,808	-0,137	-0,139
-498,868	763,242	-0,070	-0,141
-497,853	-200,000	0,004	-0,078
-496,839	-7,580	-0,062	0,031
-495,824	71,553	0,045	-0,034
-494,810	84,113	0,011	-0,009
-493,795	-14,921	0,059	-0,028
-492,781	46,142	-0,100	-0,068
-491,766	303,648	-0,030	0,041
-490,751	-137,448	-0,078	0,006
-489,737	-200,000	0,007	-0,033
-488,722	163,649	-0,016	-0,017
-487,708	-52,561	0,153	0,052
-486,693	800,000	-0,029	0,065
-485,678	-177,307	-0,033	-0,001
-484,664	-200,000	-0,031	-0,141
-483,649	315,429	-0,022	-0,030
-482,635	-73,871	0,015	0,004
-481,620	102,845	-0,030	0,026
-480,605	800,000	0,023	0,057
-479,591	-184,215	-0,122	-0,001
-478,576	-72,455	0,118	-0,032
-477,562	3,204	-0,043	0,023
-476,547	0,177	0,111	-0,058
-475,532	550,912	0,054	-0,096
-474,518	96,908	-0,059	-0,050
-473,503	-103,172	-0,032	0,006
-472,489	800,000	0,068	0,171
-471,474	185,981	-0,054	0,059
-470,459	41,914	0,021	-0,014
-469,445	500,691	0,032	-0,055
-468,430	351,560	0,028	-0,041
-467,416	130,281	-0,050	-0,047
-466,401	-31,430	0,067	-0,027
-465,386	-200,000	-0,017	-0,062
-464,372	461,385	0,049	0,080
-463,357	-200,000	0,010	-0,087
-462,343	-200,000	0,008	-0,038
-461,328	96,925	-0,027	0,023
-460,313	-191,830	0,123	0,001
-459,299	-118,739	-0,109	0,014
-458,284	-117,862	-0,045	-0,006
-457,270	800,000	0,068	-0,212
-456,255	40,059	-0,128	-0,084
-455,241	-200,000	-0,004	-0,116
-454,226	32,640	0,074	0,047
-453,211	12,199	-0,095	-0,053
-452,197	-139,201	0,116	-0,009
-451,182	-200,000	0,003	0,101
-450,168	-200,000	-0,004	0,022
-449,153	-200,000	-0,064	-0,234
-448,138	-200,000	0,019	-0,184
-447,124	-200,000	-0,002	-0,112
-446,109	46,653	0,192	0,131
-445,095	-200,000	-0,001	-0,055
-444,080	-200,000	0,013	0,065
-443,065	-27,375	-0,086	0,036
-442,051	-75,410	-0,124	-0,032
-441,036	33,169	-0,084	-0,053
-440,022	-200,000	-0,005	-0,064
-439,007	-88,106	-0,112	0,024
-437,992	321,050	-0,111	0,156
-436,978	575,376	0,048	0,087
-435,963	-200,000	-0,016	-0,144
-434,949	303,011	-0,014	-0,019
-433,934	-112,230	0,167	-0,024
-432,919	-112,278	-0,064	-0,009
-431,905	-200,000	-0,005	0,018
-430,890	800,000	-0,046	0,147
-429,876	-200,000	-0,007	0,054
-428,861	29,702	0,042	0,026
-427,846	-200,000	0,022	-0,122
-426,832	294,403	0,089	-0,120
-425,817	145,425	0,035	0,034
-424,803	67,396	-0,059	-0,044
-423,788	-200,000	-0,015	0,118
-422,773	205,927	-0,028	0,032
-421,759	-129,028	0,047	0,005
-420,744	-147,656	-0,074	-0,004
-419,730	-138,292	-0,038	-0,003
-418,715	800,000	-0,070	0,153
-417,701	-21,749	0,135	-0,060
-416,686	800,000	-0,056	0,121
-415,671	-200,000	-0,012	-0,120
-414,657	-184,674	0,128	0,001
-413,642	17,863	-0,036	0,021
-412,628	-113,787	0,107	0,015
-411,613	-75,878	-0,091	-0,024
-410,598	-200,000	0,016	-0,095
-409,584	-200,000	-0,001	-0,036
-408,569	115,538	0,097	0,087
-407,555	-200,000	0,010	0,079
-406,540	-97,117	0,147	-0,028
-405,525	335,945	-0,080	0,114
-404,511	8,424	0,099	-0,054
-403,496	-17,286	0,091	0,042
-402,482	84,930	0,026	-0,021
-401,467	514,631	0,061	0,104
-400,452	121,088	0,087	-0,080
-399,438	82,748	0,079	-0,063
-398,423	642,926	0,018	0,033
-397,409	-9,604	-0,039	-0,019
-396,394	196,968	-0,040	0,045
-395,379	125,309	-0,087	0,080
-394,365	-200,000	0,012	0,043
-393,350	-200,000	-0,016	-0,053
-392,336	-57,009	-0,052	-0,017
-391,321	-200,000	0,022	0,090
-390,306	-143,980	0,029	-0,002
-389,292	-23,094	-0,109	0,048
-388,277	-200,000	-0,012	-0,174
-387,263	-82,368	0,074	-0,017
-386,248	194,903	0,089	0,099
-385,233	-200,000	0,010	-0,090
-384,219	114,496	0,089	0,080
-383,204	-200,000	-0,001	0,022
-382,190	48,956	-0,162	-0,111
-381,175	-86,912	0,140	-0,031
-380,160	-44,450	0,121	0,044
-379,146	91,934	0,133	0,110
-378,131	128,718	0,055	0,051
-377,117	-200,000	0,001	-0,067
-376,102	94,978	0,114	-0,095
-375,088	54,260	-0,115	-0,081
-374,073	391,644	0,000	0,000
-373,058	-20,009	-0,127	0,057
-372,044	27,294	0,076	0,047
-371,029	-99,230	-0,036	0,007
-370,015	800,000	0,027	0,062
-369,000	215,428	0,079	0,092
-367,985	185,914	-0,143	-0,156
-366,971	175,472	0,096	0,102
-365,956	20,638	-0,065	0,038
-364,942	548,244	0,044	-0,077
-363,927	-200,000	0,027	0,112
-362,912	800,000	0,044	0,127
-361,898	800,000	0,008	0,022
-360,883	-200,000	-0,006	-0,098
-359,869	11,614	-0,084	-0,047
-358,854	-135,707	0,107	-0,009
-357,839	-41,183	0,155	0,058
-356,825	181,826	-0,036	-0,039
-355,810	523,641	-0,087	0,150
-354,796	-11,501	-0,065	-0,031
-353,781	-200,000	-0,011	0,057
-352,766	-200,000	-0,024	-0,120
-351,752	800,000	0,047	0,119
-350,737	800,000	-0,051	0,133
-349,723	19,016	0,013	0,008
-348,708	540,707	0,027	0,047
-347,693	800,000	-0,031	0,071
-346,679	-19,178	-0,069	0,031
-345,664	-200,000	-0,020	-0,171
-344,650	-90,222	-0,157	0,033
-343,635	-200,000	-0,034	0,132
-342,620	800,000	-0,027	0,060
-341,606	-14,587	0,171	0,080
-340,591	-106,327	0,035	-0,006
-339,577	102,899	-0,062	0,053
-338,562	225,494	-0,056	-0,066
-337,548	-200,000	0,014	-0,049
-336,533	22,881	0,068	0,040
-335,518	800,000	0,036	-0,075
-334,504	-200,000	-0,008	-0,061
-333,489	146,451	-0,094	-0,092
-332,475	-14,953	-0,111	-0,052
-331,460	800,000	0,032	-0,075
-330,445	-200,000	0,020	-0,163
-329,431	-18,996	0,019	0,008
-328,416	-96,721	0,125	0,024
-327,402	-200,000	0,024	0,192
-326,387	-200,000	-0,008	0,062
-325,372	769,355	0,019	0,039
-324,358	115,319	0,069	-0,061
-323,343	119,176	-0,039	0,036
-322,329	138,060	0,016	-0,016
-321,314	9,817	0,121	-0,067
-320,299	65,800	-0,053	0,040
-319,285	800,000	-0,033	-0,090
-318,270	-200,000	0,034	-0,141
-317,256	-200,000	-0,002	-0,021
-316,241	-200,000	-0,017	-0,136
-315,226	436,708	0,053	-0,085
-314,212	17,877	-0,018	-0,011
-313,197	-200,000	0,035	-0,116
-312,183	46,562	-0,049	-0,033
-311,168	680,661	0,046	0,089
-310,153	-200,000	-0,009	-0,028
-309,139	-153,874	0,175	0,009
-308,124	-42,093	-0,076	0,028
-307,110	-22,054	0,159	0,070
-306,095	-72,123	0,088	-0,024
-305,080	19,090	-0,085	0,050
-304,066	-94,662	-0,045	0,009
-303,051	-38,453	-0,086	0,033
-302,037	178,633	0,077	0,082
-301,022	-134,670	0,057	0,005
-300,008	510,278	-0,113	0,192
-298,993	-200,000	0,002	0,130
-297,978	-60,212	-0,049	0,015
-296,964	-200,000	-0,018	-0,084
-295,949	84,391	-0,058	-0,046
-294,935	-41,212	-0,122	0,046
-293,920	-12,779	-0,045	0,021
-292,905	470,768	-0,081	0,133
-291,891	800,000	-0,014	0,035
-290,876	12,418	-0,088	0,049
-289,862	-200,000	-0,017	-0,090
-288,847	16,330	0,043	0,025
-287,832	106,194	0,061	0,053
-286,818	-200,000	0,007	-0,033
-285,803	469,706	0,092	-0,151
-284,789	-200,000	-0,014	0,054
-283,774	800,000	-0,056	0,143
-282,759	800,000	0,038	-0,089
-281,745	45,788	0,069	0,046
-280,730	-152,482	-0,154	-0,008
-279,716	204,732	0,070	-0,079
-278,701	-57,992	-0,077	0,024
-277,686	6,178	-0,135	0,073
-276,672	-200,000	-0,009	0,112
-275,657	-168,183	0,090	-0,002
-274,643	-200,000	-0,014	-0,076
-273,628	-200,000	-0,025	0,154
-272,613	128,389	0,100	-0,093
-271,599	699,649	0,025	-0,048
-270,584	80,169	0,021	0,016
-269,570	-200,000	0,012	0,065
-268,555	41,323	0,026	0,017
-267,540	-80,730	0,086	-0,021
-266,526	-57,287	-0,122	-0,039
-265,511	-24,500	0,076	-0,033
-264,497	-120,362	0,212	-0,026
-263,482	-188,478	0,183	-0,002
-262,467	222,941	-0,112	0,131
-261,453	-37,733	0,096	0,037
-260,438	30,111	-0,156	-0,097
-259,424	-137,215	-0,061	-0,005
-258,409	7,807	-0,096	-0,052
-257,395	529,970	-0,040	-0,069
-256,380	-70,485	0,010	-0,003
-255,365	-200,000	0,034	0,123
-254,351	-200,000	-0,005	-0,091
-253,336	-10,171	-0,190	-0,092
-252,322	105,723	0,086	-0,074
-251,307	800,000	0,014	-0,044
-250,292	800,000	0,024	0,074
-249,278	409,422	-0,071	0,110
-248,263	48,633	0,108	0,074
-247,249	-200,000	0,013	0,069
-246,234	124,753	0,010	-0,010
-245,219	-200,000	-0,033	-0,147
-244,205	0,622	0,062	-0,032
-243,190	67,528	-0,052	0,038
-242,176	-200,000	-0,020	0,088
-241,161	-200,000	-0,021	-0,098
-240,146	100,167	0,052	-0,044
-239,132	-200,000	0,002	0,116
-238,117	-121,044	-0,144	0,017
-237,103	-200,000	0,012	0,103
-236,088	13,302	0,059	0,033
-235,073	170,428	-0,043	0,045
-234,059	2,553	-0,070	0,037
-233,044	-200,000	-0,006	-0,075
-232,030	800,000	-0,006	-0,013
-231,015	-116,570	-0,071	0,009
-230,000	-6,394	-0,083	-0,041
-228,986	141,873	-0,005	-0,005
-227,971	-200,000	0,008	0,027
-226,957	374,441	-0,034	0,051
-225,942	449,377	0,049	0,079
-224,927	-138,570	0,123	-0,010
-223,913	-89,543	-0,058	-0,012
-222,898	-26,470	0,093	0,040
-221,884	-24,551	-0,100	0,043
-220,869	-18,712	0,173	0,078
-219,855	-200,000	-0,026	0,112
-218,840	-200,000	0,018	-0,083
-217,825	-53,806	0,101	-0,033
-216,811	152,316	0,063	0,062
-215,796	89,117	-0,067	-0,054
-214,782	124,412	0,050	-0,046
-213,767	800,000	0,011	0,028
-212,752	-200,000	0,019	-0,120
-211,738	226,665	-0,141	0,167
-210,723	-200,000	-0,016	0,100
-209,709	41,013	-0,075	0,049
-208,694	51,392	-0,095	0,066
-207,679	800,000	-0,096	-0,215
-206,665	-110,256	-0,112	-0,017
-205,650	723,069	0,041	-0,079
-204,636	48,735	0,090	0,061
-203,621	84,412	0,056	0,044
-202,606	-200,000	-0,008	-0,073
-201,592	800,000	-0,057	-0,122
-200,577	-82,380	-0,154	0,036
-199,563	-167,803	0,071	0,002
-198,548	337,589	0,063	0,090
-197,533	6,065	0,015	-0,008
-196,519	90,450	-0,013	0,011
-195,504	435,870	-0,062	0,099
-194,490	-200,000	-0,020	-0,125
-193,475	92,365	-0,063	0,051
-192,460	57,739	-0,026	-0,019
-191,446	-82,092	0,076	0,018
-190,431	-118,811	0,093	-0,012
-189,417	-200,000	0,013	0,099
-188,402	119,759	-0,061	0,055
-187,387	-200,000	0,008	-0,101
-186,373	610,240	-0,037	-0,067
-185,358	32,594	0,072	-0,045
-184,344	-46,855	0,088	0,031
-183,329	-200,000	0,023	0,128
-182,315	-200,000	0,020	0,160
-181,300	-54,354	-0,031	0,010
-180,285	284,098	-0,079	0,103
-179,271	-200,000	0,026	-0,087
-178,256	-46,654	-0,163	-0,058
-177,242	-200,000	0,002	0,093
-176,227	-200,000	-0,025	0,162
-175,212	195,783	0,030	0,033
-174,198	-200,000	-0,036	-0,167
-173,183	-200,000	-0,009	-0,126
-172,169	800,000	0,056	-0,117
-171,154	6,048	0,009	0,005
-170,139	-95,300	0,035	-0,007
-169,125	-106,943	0,055	0,009
-168,110	225,438	0,019	0,022
-167,096	148,130	-0,158	-0,155
-166,081	-200,000	-0,005	-0,048
-165,066	-200,000	-0,011	0,092
-164,052	-125,388	-0,092	-0,010
-163,037	-69,157	0,085	-0,023
-162,023	49,006	0,058	0,040
-161,008	800,000	0,042	-0,088
-159,993	-72,750	-0,128	0,034
-158,979	74,012	-0,049	0,037
-157,964	-200,000	0,018	0,110
-156,950	-200,000	-0,013	0,046
-155,935	800,000	-0,014	0,038
-154,920	-200,000	-0,021	0,120
-153,906	13,745	-0,031	-0,017
-152,891	354,416	0,108	0,156
-151,877	-137,855	-0,102	0,008
-150,862	402,992	-0,058	0,089
-149,847	-21,471	-0,122	0,054
-148,833	33,830	-0,097	-0,061
-147,818	419,244	0,063	0,097
-146,804	123,549	0,079	0,072
-145,789	-59,308	-0,124	0,038
-144,775	516,351	0,076	-0,129
-143,760	-39,846	0,092	0,035
-142,745	44,430	-0,102	0,068
-141,731	18,143	-0,101	0,059
-140,716	-191,816	0,056	0,000
-139,702	512,802	0,049	0,083
-138,687	-45,949	0,130	-0,046
-137,672	-125,989	-0,075	0,008
-136,658	-182,193	-0,111	0,001
-135,643	800,000	-0,020	0,045
-134,629	-200,000	0,027	0,107
-133,614	246,400	-0,023	-0,028
-132,599	371,647	0,043	-0,063
-131,585	-200,000	-0,002	0,060
-130,570	-200,000	-0,001	0,064
-129,556	800,000	0,014	-0,041
-128,541	-66,555	-0,071	-0,020
-127,526	800,000	-0,030	-0,082
-126,512	189,501	0,093	0,101
-125,497	-200,000	0,018	0,066
-124,483	43,742	0,081	0,053
-123,468	-113,111	-0,079	0,011
-122,453	800,000	0,009	0,025
-121,439	-88,105	-0,137	0,029
-120,424	276,814	0,026	0,033
-119,410	490,057	0,029	-0,048
-118,395	-108,948	0,061	-0,009
-117,380	403,047	0,063	-0,096
-116,366	701,886	0,065	-0,125
-115,351	-182,005	-0,057	-0,001
-114,337	-200,000	-0,023	-0,091
-113,322	48,973	-0,122	0,083
-112,307	-104,510	0,039	0,007
-111,293	327,629	0,010	0,014
-110,278	4,664	0,060	0,032
-109,264	800,000	0,034	0,098
-108,249	-200,000	0,013	0,049
-107,234	-121,616	-0,223	0,026
-106,220	-102,413	0,175	0,030
-105,205	57,755	0,068	-0,048
-104,191	-200,000	0,016	0,056
-103,176	-19,640	-0,040	0,018
-102,162	-13,229	-0,053	-0,025
-101,147	101,246	-0,060	-0,050
-100,132	-200,000	-0,038	-0,187
-99,118	-190,223	0,069	0,001
-98,103	-200,000	-0,017	-0,086
-97,089	29,851	-0,025	-0,015
-96,074	-200,000	-0,027	0,175
-95,059	159,960	0,081	0,082
-94,045	189,826	-0,155	-0,169
-93,030	125,891	0,103	-0,094
-92,016	-200,000	-0,005	-0,119
-91,001	672,030	0,029	0,055
-89,986	-117,565	-0,132	-0,017
-88,972	-200,000	-0,005	-0,057
-87,957	-107,411	-0,056	0,009
-86,943	96,065	0,046	-0,038
-85,928	139,245	-0,023	-0,022
-84,913	-101,076	-0,074	0,013
-83,899	150,641	0,137	0,135
-82,884	117,833	-0,045	0,040
-81,870	-119,412	-0,039	0,005
-80,855	-200,000	-0,004	0,115
-79,840	800,000	-0,043	0,130
-78,826	800,000	0,036	-0,114
-77,811	-200,000	0,011	-0,063
-76,797	-200,000	0,003	-0,098
-75,782	-200,000	-0,035	-0,208
-74,767	262,943	0,031	0,040
-73,753	716,194	-0,049	0,094
-72,738	-200,000	-0,017	-0,070
-71,724	-117,138	0,118	0,015
-70,709	800,000	-0,082	-0,182
-69,694	58,119	-0,077	0,054
-68,680	-200,000	0,025	0,149
-67,665	-200,000	0,031	0,262
-66,651	-31,044	0,008	-0,003
-65,636	-200,000	0,003	-0,025
-64,622	-14,437	-0,044	0,021
-63,607	10,086	-0,020	0,011
-62,592	800,000	0,039	0,086
-61,578	-200,000	-0,003	-0,092
-60,563	41,614	-0,052	-0,034
-59,549	300,996	0,028	0,038
-58,534	-73,301	-1,612	-0,424
-57,519	800,000	-0,647	-1,344
-56,505	-200,000	-1,136	-4,647
-55,490	-59,024	0,613	-0,190
-54,476	800,000	5,014	11,783
-53,461	-200,000	14,791	263,939
-52,446	-200,000	698,010	2239,081
-51,432	564,910	1622,095	2854,826
-50,417	119,114	1628,985	1456,841
-49,403	76,566	1283,185	982,937
-48,388	37,418	1022,210	654,057
-47,373	22,876	982,003	580,604
-46,359	22,060	971,167	571,505
-45,344	20,835	966,995	565,033
-44,330	20,715	965,637	563,824
-43,315	20,549	964,275	562,469
-42,300	20,580	963,052	561,831
-41,286	20,565	962,167	561,246
-40,271	20,595	961,073	560,682
-39,257	20,527	960,228	559,946
-38,242	20,470	959,464	559,293
-37,227	20,522	958,496	558,877
-36,213	20,513	957,501	558,243
-35,198	20,478	956,755	557,673
-34,184	20,573	955,803	557,404
-33,169	20,449	955,027	556,529
-32,154	20,557	954,076	556,301
-31,140	20,561	953,081	555,710
-30,125	20,560	952,678	555,452
-29,111	20,545	951,707	554,814
-28,096	20,562	950,969	554,418
-27,082	20,489	950,373	553,813
-26,067	20,535	949,474	553,415
-25,052	20,519	948,699	552,891
-24,038	20,531	948,106	552,560
-23,023	20,553	947,456	552,230
-22,009	20,591	946,868	551,986
-20,994	20,593	946,160	551,559
-19,979	20,530	945,628	551,025
-18,965	20,594	945,031	550,861
-17,950	20,530	944,313	550,215
-16,936	20,500	943,746	549,767
-15,921	20,483	942,960	549,235
-14,906	20,448	942,280	548,705
-13,892	20,415	941,725	548,256
-12,877	20,435	941,004	547,878
-11,863	20,393	940,477	547,416
-10,848	20,428	939,974	547,211
-9,833	20,506	939,602	547,222
-8,819	20,467	938,887	546,661
-7,804	20,453	938,177	546,180
-6,790	20,396	937,618	545,652
-5,775	20,462	936,982	545,469
-4,760	20,403	936,630	545,057
-3,746	20,444	935,777	544,669
-2,731	20,301	935,173	543,843
-1,717	20,286	934,364	543,306
-0,702	20,196	933,942	542,756
0,313	20,076	933,227	542,782
1,327	23,123	931,315	551,187
2,342	32,132	793,200	493,332
3,356	29,446	450,901	276,373
4,371	-0,390	295,966	151,442
5,386	-4,781	277,085	137,587
6,400	-5,946	271,431	133,679
7,415	-6,355	268,963	132,073
8,429	-6,189	267,786	131,635
9,444	-6,066	266,703	131,205
10,459	-6,081	266,204	130,934
11,473	-6,275	265,472	130,385
12,488	-6,230	265,086	130,225
13,502	-6,484	264,538	129,713
14,517	-6,448	264,122	129,530
15,531	-6,192	263,627	129,508
16,546	-6,189	263,502	129,437
17,561	-6,218	263,003	129,155
18,575	-6,237	262,628	128,942
19,590	-6,299	262,315	128,721
20,604	-6,285	262,053	128,594
21,619	-6,265	261,708	128,431
22,634	-6,165	261,293	128,305
23,648	-6,295	261,042	128,054
24,663	-6,396	260,832	127,849
25,677	-6,428	260,698	127,743
26,692	-6,434	260,335	127,548
27,707	-6,434	260,132	127,438
28,721	-6,375	259,708	127,271
29,736	-6,416	259,613	127,177
30,750	-6,318	259,106	127,004
31,765	-6,437	258,897	126,784
32,780	-6,446	258,846	126,741
33,794	-6,397	258,480	126,593
34,809	-6,502	258,327	126,414
35,823	-6,527	258,155	126,297
36,838	-6,642	257,765	125,993
37,853	-6,380	257,452	126,060
38,867	-6,605	257,482	125,864
39,882	-6,535	257,010	125,684
40,896	-6,610	256,933	125,569
41,911	-6,523	256,589	125,467
42,926	-6,649	256,453	125,278
43,940	-6,469	256,057	125,232
44,955	-6,647	255,952	125,013
45,969	-6,811	255,892	124,828
46,984	-7,000	255,546	124,482
47,999	-7,066	255,183	124,237
49,013	-7,235	254,850	123,916
50,028	-7,298	254,697	123,775
51,042	-7,388	254,433	123,558
52,057	-7,367	254,133	123,419
53,071	-7,361	253,986	123,342
54,086	-7,369	253,792	123,230
55,101	-7,061	253,603	123,395
56,115	-6,916	253,567	123,493
57,130	-6,639	253,532	123,705
58,144	-6,246	253,286	123,915
59,159	-6,266	253,028	123,761
60,174	-6,289	252,881	123,658
61,188	-6,282	252,634	123,532
62,203	-6,477	252,523	123,298
63,217	-6,524	252,286	123,131
64,232	-6,565	252,041	122,965
65,247	-6,465	251,993	123,016
66,261	-6,475	251,504	122,758
67,276	-6,723	251,227	122,399
68,290	-6,718	251,038	122,300
69,305	-6,909	250,778	121,998
70,320	-6,869	250,542	121,907
71,334	-6,511	250,441	122,154
72,349	-6,320	250,304	122,241
73,363	-6,360	250,168	122,129
74,378	-6,416	250,014	121,994
75,393	-6,461	249,680	121,782
76,407	-6,556	249,560	121,632
77,422	-6,436	249,378	121,634
78,436	-6,263	249,175	121,673
79,451	-6,586	248,986	121,294
80,466	-6,513	248,594	121,154
81,480	-6,710	248,515	120,937
82,495	-6,792	248,188	120,698
83,509	-6,690	248,127	120,744
84,524	-6,805	247,944	120,546
85,539	-6,729	247,529	120,398
86,553	-7,048	247,489	120,098
87,568	-6,702	247,305	120,291
88,582	-6,890	247,126	120,034
89,597	-6,811	246,882	119,972
90,611	-6,552	246,842	120,160
91,626	-6,593	246,689	120,040
92,641	-6,510	246,479	119,997
93,655	-6,489	246,206	119,871
94,670	-6,708	246,141	119,645
95,684	-6,565	245,838	119,607
96,699	-6,431	245,654	119,619
97,714	-6,850	245,422	119,144
98,728	-6,841	245,256	119,061
99,743	-6,846	244,939	118,892
100,757	-6,806	244,752	118,825
101,772	-6,881	244,679	118,716
102,787	-6,820	244,533	118,685
103,801	-6,536	244,311	118,804
104,816	-6,769	244,328	118,607
105,830	-6,331	244,084	118,843
106,845	-6,379	243,838	118,673
107,860	-6,715	243,669	118,300
108,874	-6,511	243,453	118,354
109,889	-6,719	243,286	118,090
110,903	-6,730	243,163	118,010
111,918	-6,682	242,954	117,938
112,933	-6,628	242,698	117,848
113,947	-6,590	242,691	117,865
114,962	-6,580	242,422	117,733
115,976	-6,684	242,302	117,578
116,991	-6,623	242,084	117,512
118,006	-6,661	241,876	117,369
119,020	-6,459	241,762	117,471
120,035	-6,349	241,625	117,484
121,049	-6,636	241,494	117,173
122,064	-6,558	241,147	117,059
123,079	-6,461	240,978	117,046
124,093	-6,609	240,764	116,810
125,108	-6,837	240,633	116,549
126,122	-6,827	240,358	116,413
127,137	-6,897	240,199	116,269
128,151	-7,141	240,120	116,021
129,166	-6,755	239,878	116,209
130,181	-7,182	239,743	115,785
131,195	-7,011	239,524	115,807
132,210	-6,903	239,537	115,892
133,224	-6,507	239,114	115,999
134,239	-6,361	238,998	116,051
135,254	-6,577	238,893	115,814
136,268	-6,828	238,745	115,528
137,283	-6,908	238,416	115,294
138,297	-6,961	238,185	115,129
139,312	-7,266	238,027	114,795
140,327	-6,756	238,040	115,204
141,341	-6,175	238,052	115,670
142,356	-6,150	237,908	115,611
143,370	-6,104	237,676	115,525
144,385	-6,228	237,473	115,316
145,400	-6,094	237,278	115,319
146,414	-6,283	237,238	115,137
147,429	-6,176	236,990	115,092
148,443	-6,323	236,770	114,857
149,458	-6,309	236,492	114,723
150,473	-6,242	236,545	114,792
151,487	-6,127	236,230	114,722
152,502	-6,242	236,147	114,578
153,516	-6,222	235,985	114,505
154,531	-6,220	235,655	114,337
155,546	-6,304	235,418	114,145
156,560	-6,248	235,337	114,140
157,575	-6,295	235,206	114,028
158,589	-6,603	234,996	113,671
159,604	-6,176	234,829	113,920
160,619	-6,085	234,845	113,991
161,633	-6,079	234,469	113,803
162,648	-6,249	234,555	113,699
163,662	-6,221	234,250	113,563
164,677	-6,313	234,080	113,398
165,692	-6,353	234,031	113,332
166,706	-6,173	233,841	113,373
167,721	-5,960	233,645	113,437
168,735	-5,876	233,634	113,488
169,750	-6,182	233,434	113,138
170,764	-6,058	233,174	113,100
171,779	-5,980	232,969	113,052
172,794	-6,037	232,936	112,981
173,808	-6,143	232,568	112,709
174,823	-6,800	232,386	112,093
175,837	-6,769	232,196	112,016
176,852	-6,514	232,240	112,228
177,867	-6,331	232,265	112,374
178,881	-6,047	232,012	112,465
179,896	-6,035	231,747	112,336
180,910	-6,118	231,645	112,211
181,925	-6,125	231,517	112,134
182,940	-6,038	231,317	112,095
183,954	-6,007	231,261	112,082
184,969	-5,987	231,124	112,022
185,983	-5,805	230,858	112,025
186,998	-6,075	230,833	111,792
188,013	-6,052	230,735	111,752
189,027	-5,912	230,473	111,724
190,042	-6,102	230,234	111,451
191,056	-5,948	230,157	111,523
192,071	-5,919	229,985	111,453
193,086	-5,992	229,786	111,289
194,100	-5,918	229,631	111,262
195,115	-6,192	229,433	110,944
196,129	-6,631	229,086	110,425
197,144	-3,204	230,321	113,682
198,159	1,190	231,580	117,729
199,173	3,521	232,213	119,863
200,188	3,727	231,981	119,894
201,202	3,792	231,768	119,824
202,217	3,897	231,791	119,907
203,232	4,043	231,731	119,979
204,246	4,059	231,553	119,889
205,261	4,034	231,457	119,809
206,275	4,342	231,398	120,007
207,290	4,465	231,252	120,017
208,304	4,357	230,928	119,754
209,319	4,357	230,813	119,683
210,334	4,198	230,602	119,440
211,348	4,043	230,453	119,232
212,363	3,725	230,131	118,809
213,377	3,515	229,932	118,533
214,392	3,551	229,870	118,519
215,407	3,747	229,577	118,509
216,421	3,764	229,514	118,478
217,436	3,643	229,181	118,203
218,450	3,390	229,086	117,948
219,465	3,194	229,015	117,751
220,480	3,349	228,777	117,737
221,494	3,246	228,642	117,578
222,509	3,432	228,651	117,715
223,523	3,431	228,351	117,549
224,538	3,565	228,207	117,567
225,553	3,516	228,133	117,481
226,567	3,637	228,008	117,499
227,582	3,954	227,906	117,678
228,596	3,969	227,896	117,674
229,611	3,675	227,606	117,289
230,626	3,501	227,435	117,058
231,640	3,412	227,197	116,857
232,655	3,623	227,100	116,957
233,669	4,106	227,087	117,308
234,684	4,297	226,882	117,338
235,699	4,023	226,606	116,976
236,713	3,737	226,441	116,663
237,728	3,602	226,334	116,495
238,742	3,318	226,214	116,208
239,757	3,438	226,127	116,244
240,772	3,450	225,859	116,104
241,786	3,382	225,709	115,966
242,801	3,667	225,671	116,151
243,815	3,937	225,675	116,347
244,830	4,125	225,337	116,304
245,844	3,741	225,061	115,862
246,859	3,629	225,089	115,781
247,874	3,710	224,945	115,758
248,888	3,705	224,789	115,664
249,903	3,730	224,615	115,583
250,917	3,516	224,454	115,329
251,932	3,595	224,341	115,319
252,947	3,547	224,070	115,134
253,961	3,242	224,034	114,876
254,976	3,698	223,908	115,144
255,990	3,619	223,883	115,061
257,005	3,622	223,649	114,933
258,020	3,897	223,509	115,057
259,034	3,966	223,458	115,072
260,049	3,766	223,204	114,781
261,063	3,886	223,038	114,775
262,078	3,869	223,111	114,789
263,093	4,026	222,853	114,764
264,107	4,108	222,630	114,700
265,122	4,033	222,473	114,553
266,136	3,994	222,538	114,547
267,151	4,059	222,227	114,425
268,166	3,551	221,977	113,910
269,180	3,466	221,801	113,745
270,195	3,646	221,641	113,787
271,209	3,404	221,579	113,566
272,224	3,654	221,411	113,654
273,239	3,609	221,408	113,609
274,253	3,460	221,154	113,358
275,268	3,421	220,804	113,141
276,282	3,340	220,612	112,972
277,297	3,361	220,755	113,051
278,312	3,619	220,407	113,052
279,326	3,519	220,248	112,888
280,341	3,747	220,193	113,017
281,355	3,662	220,263	112,980
282,370	3,476	220,100	112,749
283,384	3,218	219,819	112,406
284,399	2,981	219,631	112,126
285,414	3,178	219,499	112,193
286,428	3,536	219,360	112,374
287,443	3,817	219,283	112,531
288,457	3,629	219,100	112,289
289,472	3,354	219,036	112,045
290,487	3,183	218,700	111,739
291,501	3,107	218,554	111,598
292,516	3,215	218,481	111,630
293,530	3,010	218,415	111,437
294,545	3,182	218,218	111,452
295,560	3,485	218,089	111,597
296,574	3,684	218,027	111,699
297,589	3,550	217,857	111,505
298,603	3,725	217,709	111,546
299,618	3,563	217,588	111,357
300,633	3,552	217,393	111,239
301,647	3,803	217,480	111,456
302,662	3,903	217,291	111,422
303,676	3,659	217,192	111,184
304,691	3,815	217,045	111,212
305,706	3,668	216,937	111,040
306,720	3,469	216,607	110,718
307,735	3,274	216,439	110,481
308,749	3,747	216,364	110,775
309,764	3,823	216,262	110,767
310,779	3,923	216,078	110,735
311,793	3,698	215,974	110,510
312,808	3,716	215,721	110,383
313,822	3,544	215,644	110,211
314,837	3,655	215,442	110,177
315,852	3,294	215,352	109,863
316,866	3,671	215,130	110,010
317,881	4,046	215,092	110,249
318,895	3,921	214,968	110,086
319,910	3,560	214,758	109,710
320,925	3,467	214,576	109,542
321,939	3,193	214,382	109,237
322,954	3,215	214,353	109,228
323,968	3,386	214,477	109,403
324,983	3,563	214,301	109,431
325,997	4,015	214,105	109,643
327,012	3,699	213,896	109,301
328,027	3,595	213,805	109,171
329,041	3,905	213,634	109,294
330,056	4,283	213,604	109,537
331,070	3,617	213,417	108,959
332,085	3,238	213,045	108,490
333,100	3,260	213,065	108,507
334,114	3,758	212,799	108,714
335,129	3,902	212,662	108,736
336,143	3,729	212,595	108,570
337,158	3,650	212,494	108,453
338,173	3,681	212,448	108,441
339,187	3,649	212,129	108,247
340,202	3,444	211,946	107,999
341,216	3,007	211,793	107,604
342,231	3,512	211,715	107,910
343,246	3,368	211,631	107,757
344,260	3,355	211,564	107,703
345,275	3,634	211,591	107,904
346,289	3,687	211,310	107,788
347,304	3,835	211,184	107,818
348,319	3,666	211,080	107,637
349,333	3,447	210,977	107,421
350,348	3,449	210,862	107,355
351,362	3,767	210,731	107,501
352,377	3,815	210,559	107,437
353,392	3,651	210,342	107,202
354,406	3,817	210,302	107,288
355,421	194,762	1342,571	1428,994
356,435	155,502	1480,584	1429,065
