DTS Sentinel unit serial number:	SN410029Multiplexer serial number:	ORYXHardware model number:	OX2-SRSoftware version number:	ORYX F/W v4,00 Oryx Data Collector v3.7.2.0data status	okinstallation	B6 Nyhavnadifferential loss correction	single-endedforward channel	channel 2reverse channel	N/Adate	2023/12/10time	15:00:08forward acquisition time	300,00reverse acquisition time	0,00gamma	499,1914k internal	0,3122k external	0,3122temperature offset calibration	1,0000default loss term (dB/km)	0,3820temperature slope calibration	1,0000multiplexer offset coefficient	1,0000multiplexer slope coefficient	1,0000fibre end	0,00T internal ref (°C)	22,51T ext. ref 1 (°C)	5,98T ext. ref 2 (°C)	5,99length (m)	temperature (°C)	Stokes	anti-Stokes-744,400	52,685	-0,140	0,099
-743,385	-200,000	-0,037	0,143
-742,371	-93,980	0,121	-0,025
-741,356	-72,779	-0,322	0,088
-740,342	-200,000	-0,034	-0,132
-739,327	-34,413	-0,309	0,126
-738,312	146,915	0,143	-0,144
-737,298	219,662	-0,145	0,173
-736,283	800,000	0,031	0,081
-735,269	-102,965	-0,269	0,047
-734,254	800,000	0,045	-0,113
-733,239	-164,789	-0,371	-0,012
-732,225	-14,070	0,130	0,062
-731,210	220,932	-0,108	0,129
-730,196	-72,922	0,082	-0,022
-729,181	-200,000	-0,004	-0,085
-728,167	44,231	0,121	0,083
-727,152	259,172	-0,004	-0,005
-726,137	-89,002	-0,116	-0,025
-725,123	21,055	-0,082	-0,049
-724,108	-200,000	-0,036	-0,147
-723,094	-120,095	-0,231	0,029
-722,079	185,962	-0,089	-0,099
-721,064	-100,906	0,105	-0,019
-720,050	72,540	-0,048	0,037
-719,035	297,872	-0,019	0,026
-718,021	366,867	-0,091	0,138
-717,006	251,425	-0,054	0,069
-715,991	800,000	-0,042	-0,102
-714,977	-200,000	-0,000	0,118
-713,962	-113,067	-0,044	-0,006
-712,948	5,374	0,037	-0,020
-711,933	244,727	0,035	0,044
-710,918	216,148	-0,032	-0,038
-709,904	15,143	-0,037	0,022
-708,889	86,786	-0,099	-0,082
-707,875	-88,626	-0,147	-0,032
-706,860	-120,804	-0,094	0,012
-705,845	-200,000	-0,041	-0,155
-704,831	146,369	0,054	-0,054
-703,816	407,226	-0,093	-0,147
-702,802	-15,209	0,073	0,035
-701,787	-32,395	-0,124	0,051
-700,772	760,846	0,017	-0,034
-699,758	366,375	-0,040	0,060
-698,743	23,794	0,012	0,007
-697,729	259,095	0,067	-0,086
-696,714	-61,491	-0,016	0,005
-695,699	162,419	0,033	0,035
-694,685	-193,542	-0,015	0,000
-693,670	37,475	-0,045	-0,030
-692,656	800,000	0,043	0,108
-691,641	108,503	0,082	-0,073
-690,627	800,000	-0,016	-0,034
-689,612	623,125	0,009	0,017
-688,597	172,569	-0,116	-0,125
-687,583	-200,000	0,034	-0,178
-686,568	-200,000	-0,012	-0,121
-685,554	-200,000	0,046	0,152
-684,539	781,515	0,050	-0,102
-683,524	-200,000	0,004	0,031
-682,510	59,549	-0,027	0,020
-681,495	800,000	-0,076	-0,160
-680,481	171,438	-0,017	-0,018
-679,466	-200,000	-0,010	0,067
-678,451	800,000	-0,041	-0,116
-677,437	45,109	-0,056	-0,038
-676,422	609,899	-0,020	0,038
-675,408	-90,525	0,019	-0,004
-674,393	-144,679	-0,047	0,003
-673,378	-152,485	-0,073	0,004
-672,364	-74,376	-0,010	-0,003
-671,349	-131,264	0,027	-0,003
-670,335	-200,000	-0,012	-0,045
-669,320	15,868	0,035	-0,020
-668,305	-200,000	0,013	0,066
-667,291	800,000	0,037	-0,116
-666,276	800,000	-0,087	-0,238
-665,262	-27,234	-0,150	0,064
-664,247	111,052	-0,042	0,038
-663,232	-78,384	-0,053	0,013
-662,218	342,596	0,076	-0,111
-661,203	-200,000	0,012	-0,199
-660,189	-200,000	-0,004	0,057
-659,174	-130,173	-0,134	-0,013
-658,159	800,000	-0,054	-0,130
-657,145	344,486	-0,087	-0,128
-656,130	-186,129	0,100	-0,001
-655,116	-200,000	0,020	0,110
-654,101	-51,591	-0,099	-0,034
-653,086	59,143	-0,012	0,009
-652,072	306,489	-0,021	0,029
-651,057	800,000	-0,045	-0,109
-650,043	179,811	0,035	0,039
-649,028	-90,312	-0,073	-0,016
-648,014	39,943	0,110	0,073
-646,999	48,153	-0,099	0,068
-645,984	800,000	-0,053	-0,131
-644,970	800,000	0,008	0,019
-643,955	-200,000	-0,011	-0,072
-642,941	-17,663	-0,087	-0,041
-641,926	162,351	0,056	-0,059
-640,911	-17,805	0,023	-0,011
-639,897	290,449	0,148	-0,201
-638,882	-65,101	-0,097	0,029
-637,868	-200,000	-0,008	-0,060
-636,853	291,990	0,030	0,041
-635,838	28,014	-0,126	-0,079
-634,824	52,857	0,080	-0,057
-633,809	-200,000	-0,007	0,065
-632,795	-68,178	0,070	0,020
-631,780	171,967	-0,122	0,130
-630,765	-19,950	-0,084	0,038
-629,751	290,514	-0,045	0,061
-628,736	-187,929	-0,042	-0,000
-627,722	573,666	-0,025	-0,046
-626,707	-11,695	0,072	-0,035
-625,692	-54,989	-0,073	-0,024
-624,678	-83,610	-0,072	0,017
-623,663	-0,771	0,042	-0,022
-622,649	363,652	-0,088	-0,131
-621,634	28,199	0,124	-0,078
-620,619	2,530	0,038	0,020
-619,605	293,980	-0,056	0,076
-618,590	315,641	0,071	-0,100
-617,576	669,102	0,052	0,101
-616,561	-83,406	0,082	-0,019
-615,546	701,791	-0,022	0,043
-614,532	-200,000	-0,027	-0,159
-613,517	-200,000	0,016	0,064
-612,503	93,181	0,074	-0,062
-611,488	-57,763	0,052	0,017
-610,474	10,283	-0,063	-0,035
-609,459	248,259	-0,019	0,024
-608,444	-151,747	-0,037	0,002
-607,430	304,251	-0,074	0,102
-606,415	-200,000	-0,016	-0,105
-605,401	800,000	-0,036	0,083
-604,386	416,961	0,049	0,078
-603,371	321,198	0,074	0,105
-602,357	668,639	0,069	0,134
-601,342	-145,850	-0,097	0,006
-600,328	-81,929	-0,140	-0,034
-599,313	-124,488	-0,069	-0,008
-598,298	104,093	0,060	-0,052
-597,284	84,688	0,047	0,038
-596,269	-57,481	-0,042	0,014
-595,255	800,000	-0,040	0,104
-594,240	-200,000	-0,025	0,104
-593,225	-200,000	0,003	-0,061
-592,211	37,528	0,060	-0,039
-591,196	800,000	0,078	0,162
-590,182	800,000	-0,016	0,043
-589,167	684,767	0,009	-0,017
-588,152	143,362	-0,065	-0,064
-587,138	-52,670	-0,082	-0,028
-586,123	10,575	-0,084	-0,047
-585,109	-200,000	-0,013	-0,094
-584,094	-200,000	0,024	0,108
-583,079	18,755	0,081	-0,048
-582,065	-140,343	-0,081	0,006
-581,050	781,832	0,024	-0,048
-580,036	800,000	0,046	-0,114
-579,021	800,000	-0,034	-0,100
-578,006	421,676	-0,071	-0,113
-576,992	-33,549	0,089	-0,036
-575,977	-177,710	0,023	-0,000
-574,963	106,124	0,115	0,101
-573,948	800,000	0,032	0,081
-572,934	-200,000	-0,018	-0,104
-571,919	-117,964	-0,126	0,017
-570,904	123,157	-0,161	-0,150
-569,890	-200,000	-0,029	-0,161
-568,875	54,367	-0,085	0,061
-567,861	-18,850	-0,034	0,016
-566,846	115,610	0,051	-0,046
-565,831	-200,000	0,000	0,020
-564,817	800,000	-0,035	-0,075
-563,802	-127,329	-0,124	0,013
-562,788	538,481	-0,075	-0,133
-561,773	-174,334	-0,040	-0,001
-560,758	800,000	-0,037	0,102
-559,744	97,222	0,026	0,022
-558,729	-200,000	-0,015	-0,057
-557,715	477,859	0,080	-0,135
-556,700	-119,733	-0,092	-0,012
-555,685	-200,000	-0,009	-0,072
-554,671	-200,000	0,006	-0,082
-553,656	-100,686	-0,034	0,006
-552,642	355,279	0,058	0,085
-551,627	-68,013	0,182	-0,052
-550,612	-135,671	0,057	-0,005
-549,598	539,680	-0,069	-0,123
-548,583	-68,742	-0,077	-0,022
-547,569	800,000	0,023	0,053
-546,554	356,566	0,056	0,083
-545,539	-154,586	0,165	0,008
-544,525	-200,000	0,008	-0,072
-543,510	54,783	-0,139	-0,099
-542,496	322,084	-0,075	-0,106
-541,481	-200,000	-0,005	-0,110
-540,466	-73,156	0,111	-0,030
-539,452	35,681	-0,030	-0,019
-538,437	-80,536	0,097	-0,024
-537,423	800,000	0,054	-0,120
-536,408	45,259	0,040	0,027
-535,393	-175,292	0,132	0,003
-534,379	-93,993	-0,073	0,015
-533,364	63,216	0,039	-0,029
-532,350	-200,000	0,010	0,140
-531,335	-42,687	-0,035	0,013
-530,321	-125,377	-0,106	-0,012
-529,306	104,792	0,091	-0,079
-528,291	616,192	0,013	0,024
-527,277	84,895	-0,066	-0,053
-526,262	-200,000	0,019	-0,079
-525,248	-140,267	0,046	-0,004
-524,233	595,573	0,041	0,076
-523,218	-51,539	0,060	-0,021
-522,204	-22,935	-0,091	0,040
-521,189	-200,000	-0,005	-0,082
-520,175	207,363	0,022	0,025
-519,160	-77,913	-0,098	-0,025
-518,145	719,291	-0,068	-0,135
-517,131	-200,000	0,009	0,064
-516,116	-200,000	-0,009	0,127
-515,102	683,141	0,044	0,085
-514,087	397,756	0,048	0,075
-513,072	188,994	-0,047	0,052
-512,058	51,328	-0,068	-0,048
-511,043	223,468	-0,092	-0,110
-510,029	285,156	0,093	0,124
-509,014	-200,000	-0,024	-0,120
-507,999	-17,777	0,075	-0,035
-506,985	140,999	0,068	0,066
-505,970	-200,000	-0,008	-0,054
-504,956	221,919	0,059	-0,070
-503,941	-200,000	0,005	0,166
-502,926	-99,047	0,101	0,019
-501,912	-25,726	-0,084	-0,037
-500,897	67,246	-0,075	0,056
-499,883	-200,000	-0,012	-0,048
-498,868	491,397	-0,033	-0,055
-497,853	40,970	0,033	0,022
-496,839	-143,612	-0,111	0,008
-495,824	-167,541	0,093	-0,003
-494,810	800,000	0,026	-0,084
-493,795	160,011	-0,065	0,067
-492,781	800,000	-0,023	0,070
-491,766	342,048	-0,062	0,090
-490,751	184,169	-0,071	-0,078
-489,737	287,576	-0,038	0,051
-488,722	800,000	-0,015	-0,036
-487,708	2,056	-0,039	-0,020
-486,693	196,731	0,036	0,041
-485,678	-200,000	-0,002	-0,023
-484,664	-9,198	0,047	-0,023
-483,649	295,751	-0,017	-0,023
-482,635	387,892	0,034	0,052
-481,620	-31,393	-0,042	0,018
-480,605	-10,446	-0,059	0,029
-479,591	-200,000	-0,004	0,037
-478,576	800,000	0,030	0,096
-477,562	-200,000	-0,013	-0,045
-476,547	-16,195	-0,114	0,053
-475,532	60,011	0,079	-0,058
-474,518	800,000	-0,042	0,095
-473,503	800,000	-0,026	-0,078
-472,489	-200,000	-0,025	0,106
-471,474	19,241	-0,086	-0,051
-470,459	800,000	-0,017	-0,050
-469,445	-200,000	-0,012	0,064
-468,430	18,115	-0,026	-0,015
-467,416	32,994	0,010	0,006
-466,401	-88,739	-0,103	-0,022
-465,386	-200,000	-0,000	-0,023
-464,372	741,424	-0,014	-0,029
-463,357	95,443	-0,019	-0,016
-462,343	226,094	0,034	-0,041
-461,328	-200,000	-0,007	0,065
-460,313	-155,362	-0,049	0,002
-459,299	201,588	0,036	0,041
-458,284	-165,001	-0,058	0,002
-457,270	-200,000	0,062	0,227
-456,255	176,202	-0,027	0,029
-455,241	-200,000	-0,025	-0,145
-454,226	800,000	-0,037	-0,084
-453,211	800,000	0,014	-0,028
-452,197	-140,830	0,142	0,011
-451,182	134,936	0,104	0,100
-450,168	-200,000	0,009	0,147
-449,153	112,137	0,009	0,008
-448,138	-5,926	-0,082	-0,041
-447,124	-34,054	0,074	-0,030
-446,109	-200,000	0,016	0,091
-445,095	-2,501	-0,091	-0,047
-444,080	-138,847	0,131	-0,010
-443,065	-79,304	-0,071	-0,017
-442,051	50,167	0,052	-0,036
-441,036	800,000	-0,049	-0,112
-440,022	101,888	-0,022	0,019
-439,007	-168,536	0,039	-0,001
-437,992	29,310	0,010	0,006
-436,978	800,000	-0,026	-0,068
-435,963	100,689	0,038	0,032
-434,949	461,544	-0,054	-0,090
-433,934	-127,054	0,095	0,010
-432,919	49,546	0,020	-0,014
-431,905	71,458	0,037	-0,028
-430,890	168,777	-0,084	0,089
-429,876	800,000	0,081	0,175
-428,861	-200,000	0,007	0,096
-427,846	-200,000	0,024	0,093
-426,832	122,306	0,020	-0,019
-425,817	-185,004	0,080	0,001
-424,803	52,245	0,047	0,033
-423,788	89,016	0,028	-0,023
-422,773	-200,000	-0,025	0,257
-421,759	32,812	0,079	0,050
-420,744	21,078	-0,059	0,035
-419,730	-14,692	0,102	-0,048
-418,715	-200,000	0,005	-0,073
-417,701	-200,000	-0,014	-0,062
-416,686	-112,933	-0,032	-0,005
-415,671	478,085	0,019	0,032
-414,657	-7,368	0,094	0,047
-413,642	-16,664	-0,090	0,042
-412,628	-162,338	0,024	0,001
-411,613	12,646	0,117	0,066
-410,598	-6,751	-0,103	0,051
-409,584	355,582	-0,038	-0,056
-408,569	-31,874	0,138	-0,056
-407,555	800,000	-0,017	0,055
-406,540	-19,026	0,083	0,038
-405,525	445,455	0,014	0,022
-404,511	-136,293	-0,160	0,014
-403,496	-61,235	0,071	-0,022
-402,482	800,000	0,060	-0,142
-401,467	30,264	-0,045	0,028
-400,452	-101,313	0,047	-0,008
-399,438	358,337	-0,063	0,092
-398,423	96,245	-0,037	0,031
-397,409	-80,308	-0,078	0,019
-396,394	-54,523	0,103	0,034
-395,379	34,260	0,146	-0,094
-394,365	-49,526	-0,055	0,019
-393,350	29,751	0,095	0,059
-392,336	-17,194	-0,033	-0,015
-391,321	245,149	0,080	-0,100
-390,306	48,499	-0,031	-0,021
-389,292	-82,710	-0,139	-0,033
-388,277	-178,945	0,112	-0,002
-387,263	17,290	0,021	-0,012
-386,248	210,348	0,111	0,129
-385,233	-31,918	0,073	0,030
-384,219	-143,690	-0,068	0,005
-383,204	179,674	0,081	0,088
-382,190	-62,671	0,009	-0,003
-381,175	-23,139	-0,072	0,032
-380,160	-112,915	0,058	0,008
-379,146	-200,000	0,000	0,134
-378,131	-29,248	-0,026	0,011
-377,117	-200,000	-0,065	0,225
-376,102	-200,000	0,022	-0,076
-375,088	800,000	-0,039	-0,123
-374,073	800,000	-0,006	-0,016
-373,058	-116,370	0,095	-0,013
-372,044	130,287	0,046	-0,043
-371,029	-146,302	-0,086	-0,005
-370,015	116,457	-0,033	-0,030
-369,000	324,620	0,016	0,022
-367,985	137,719	-0,047	0,045
-366,971	262,538	-0,021	0,026
-365,956	85,213	0,039	-0,032
-364,942	594,545	-0,036	0,066
-363,927	425,865	-0,028	0,045
-362,912	-75,139	-0,028	-0,007
-361,898	-84,599	-0,144	-0,033
-360,883	-200,000	-0,007	0,122
-359,869	-100,498	-0,087	0,016
-358,854	-200,000	0,038	-0,137
-357,839	-36,797	0,133	0,052
-356,825	81,306	-0,107	-0,085
-355,810	-200,000	-0,069	-0,000
-354,796	800,000	-0,016	0,049
-353,781	-131,728	-0,124	-0,012
-352,766	55,240	0,075	-0,053
-351,752	-200,000	0,014	0,179
-350,737	-200,000	0,018	0,079
-349,723	63,203	0,081	-0,059
-348,708	112,728	0,090	0,080
-347,693	-61,631	0,062	0,019
-346,679	599,428	-0,028	0,050
-345,664	800,000	-0,067	-0,190
-344,650	-37,824	0,128	0,050
-343,635	-149,408	0,071	-0,004
-342,620	-200,000	-0,014	0,134
-341,606	110,972	0,092	0,081
-340,591	78,671	-0,092	-0,073
-339,577	-116,076	-0,081	-0,011
-338,562	-200,000	0,004	-0,138
-337,548	-200,000	-0,004	-0,028
-336,533	-45,066	0,078	-0,028
-335,518	-200,000	0,013	-0,104
-334,504	160,949	0,042	-0,043
-333,489	659,803	-0,085	-0,161
-332,475	-190,966	0,111	-0,001
-331,460	20,524	-0,146	0,086
-330,445	235,884	0,037	-0,045
-329,431	152,522	0,083	-0,084
-328,416	49,623	0,116	0,080
-327,402	96,820	0,059	0,050
-326,387	-200,000	0,012	0,042
-325,372	226,321	-0,041	0,049
-324,358	-69,841	0,089	-0,025
-323,343	-86,862	-0,123	-0,027
-322,329	-200,000	0,017	-0,059
-321,314	206,044	-0,016	-0,019
-320,299	-200,000	-0,042	0,240
-319,285	570,125	-0,040	0,072
-318,270	235,836	0,045	0,055
-317,256	177,613	-0,119	0,127
-316,241	-111,412	-0,156	0,023
-315,226	312,397	0,079	-0,109
-314,212	-74,183	0,073	-0,019
-313,197	483,561	0,039	0,065
-312,183	-98,458	-0,121	-0,022
-311,168	277,369	-0,053	-0,070
-310,153	-86,158	-0,117	0,026
-309,139	-115,795	0,136	0,018
-308,124	503,262	0,064	0,108
-307,110	-103,140	0,110	0,019
-306,095	-200,000	-0,016	0,057
-305,080	-200,000	-0,008	-0,115
-304,066	151,384	0,068	-0,068
-303,051	-200,000	-0,015	0,104
-302,037	-200,000	-0,030	0,120
-301,022	-89,059	-0,106	0,023
-300,008	-98,973	-0,064	0,012
-298,993	199,264	-0,073	0,082
-297,978	44,844	-0,022	0,015
-296,964	-92,016	0,014	-0,003
-295,949	203,300	-0,058	0,065
-294,935	40,532	-0,124	-0,082
-293,920	792,914	-0,070	0,141
-292,905	-200,000	0,023	0,153
-291,891	800,000	0,038	0,102
-290,876	-200,000	-0,020	0,117
-289,862	-200,000	0,008	0,124
-288,847	1,034	-0,055	0,029
-287,832	82,014	0,082	-0,065
-286,818	-200,000	0,036	0,125
-285,803	-24,702	-0,063	0,027
-284,789	-200,000	-0,009	0,049
-283,774	-24,325	0,100	0,044
-282,759	-200,000	-0,014	0,086
-281,745	-127,943	-0,029	-0,003
-280,730	-60,653	0,044	0,014
-279,716	-200,000	-0,007	-0,123
-278,701	-130,804	0,154	0,015
-277,686	800,000	0,037	-0,085
-276,672	297,680	0,075	0,102
-275,657	-200,000	0,044	0,184
-274,643	-200,000	0,003	-0,049
-273,628	-200,000	-0,000	-0,046
-272,613	-29,207	-0,114	0,048
-271,599	-200,000	-0,007	0,079
-270,584	20,189	-0,047	0,028
-269,570	-107,784	-0,104	0,016
-268,555	55,121	0,148	-0,104
-267,540	-59,797	-0,050	-0,016
-266,526	-200,000	-0,048	-0,162
-265,511	408,055	0,051	0,079
-264,497	-18,899	0,044	0,020
-263,482	-200,000	-0,020	0,096
-262,467	-200,000	0,035	0,116
-261,453	-200,000	-0,002	0,082
-260,438	-200,000	0,006	-0,122
-259,424	168,197	0,064	-0,066
-258,409	-109,713	-0,113	0,017
-257,395	-200,000	0,013	0,140
-256,380	800,000	0,041	-0,121
-255,365	-200,000	0,002	0,086
-254,351	679,682	0,052	-0,099
-253,336	51,653	0,130	-0,090
-252,322	-33,774	0,109	-0,044
-251,307	450,005	-0,069	-0,111
-250,292	-200,000	-0,026	-0,116
-249,278	-199,141	0,048	-0,000
-248,263	236,579	0,081	0,099
-247,249	-92,499	-0,070	-0,014
-246,234	526,126	-0,008	0,014
-245,219	-200,000	0,008	-0,178
-244,205	-116,279	0,064	0,009
-243,190	539,572	0,072	-0,126
-242,176	249,226	0,042	0,052
-241,161	288,089	0,070	0,093
-240,146	420,291	-0,005	-0,008
-239,132	736,156	-0,057	0,112
-238,117	-45,278	0,070	-0,025
-237,103	-153,014	-0,063	-0,003
-236,088	-200,000	-0,015	-0,051
-235,073	450,928	-0,056	0,090
-234,059	-0,137	0,101	0,052
-233,044	73,074	-0,107	-0,081
-232,030	-94,695	0,121	0,024
-231,015	200,043	-0,143	-0,161
-230,000	-30,234	-0,038	-0,016
-228,986	313,586	-0,068	-0,093
-227,971	-66,976	-0,097	-0,028
-226,957	-115,947	-0,039	0,005
-225,942	-79,127	0,073	0,018
-224,927	800,000	-0,065	-0,191
-223,913	590,618	-0,057	-0,104
-222,898	800,000	0,017	-0,043
-221,884	-200,000	-0,014	0,113
-220,869	27,063	0,103	0,063
-219,855	800,000	0,020	0,044
-218,840	-105,817	-0,094	0,015
-217,825	142,903	0,114	-0,111
-216,811	800,000	0,027	0,073
-215,796	-200,000	0,028	-0,090
-214,782	239,370	0,049	0,060
-213,767	-200,000	-0,014	0,077
-212,752	-65,569	0,099	0,029
-211,738	521,222	0,016	-0,028
-210,723	362,351	0,042	-0,062
-209,709	-124,013	-0,074	-0,008
-208,694	800,000	-0,036	0,076
-207,679	731,073	0,043	0,084
-206,665	598,764	-0,035	-0,064
-205,650	90,100	0,146	0,119
-204,636	363,534	0,027	-0,040
-203,621	8,921	-0,029	0,016
-202,606	225,775	0,078	-0,092
-201,592	-200,000	-0,017	-0,067
-200,577	800,000	0,023	-0,070
-199,563	186,124	-0,111	-0,121
-198,548	22,502	0,025	0,015
-197,533	-74,003	-0,072	0,019
-196,519	-15,554	-0,063	0,029
-195,504	292,807	-0,074	0,099
-194,490	-26,012	0,082	0,035
-193,475	-33,016	-0,100	0,040
-192,460	800,000	-0,078	-0,182
-191,446	-119,848	0,127	-0,016
-190,431	69,468	0,053	-0,040
-189,417	-200,000	-0,009	0,071
-188,402	284,554	-0,044	-0,058
-187,387	800,000	-0,020	-0,043
-186,373	4,982	0,021	-0,011
-185,358	-200,000	-0,013	-0,224
-184,344	-200,000	0,006	0,062
-183,329	38,414	0,091	-0,059
-182,315	-161,078	-0,038	0,001
-181,300	374,742	0,014	-0,021
-180,285	-129,726	-0,043	0,004
-179,271	-101,514	-0,087	-0,015
-178,256	-178,934	-0,058	-0,001
-177,242	-200,000	-0,018	-0,064
-176,227	-12,107	-0,071	-0,034
-175,212	-10,198	-0,107	0,052
-174,198	-131,375	-0,098	-0,009
-173,183	800,000	-0,068	-0,148
-172,169	-39,832	0,060	0,023
-171,154	19,398	0,033	-0,019
-170,139	656,533	0,078	0,148
-169,125	49,414	0,073	-0,050
-168,110	505,283	0,059	-0,101
-167,096	192,002	0,086	0,095
-166,081	800,000	0,031	-0,088
-165,066	-200,000	-0,003	-0,075
-164,052	-200,000	-0,019	-0,080
-163,037	-200,000	0,001	-0,008
-162,023	-10,263	0,083	0,040
-161,008	-61,472	0,099	0,030
-159,993	5,541	0,078	0,042
-158,979	-200,000	-0,026	0,103
-157,964	10,101	-0,076	0,042
-156,950	35,360	0,043	-0,027
-155,935	17,824	-0,045	-0,026
-154,920	-106,695	0,057	0,009
-153,906	377,839	-0,038	-0,057
-152,891	-200,000	0,002	-0,142
-151,877	-154,703	-0,076	-0,004
-150,862	-200,000	0,023	0,102
-149,847	53,264	0,022	-0,016
-148,833	800,000	0,031	0,075
-147,818	66,262	0,044	-0,033
-146,804	403,230	-0,047	0,072
-145,789	-200,000	-0,048	0,183
-144,775	86,248	-0,052	0,042
-143,760	707,091	-0,046	0,089
-142,745	800,000	0,035	-0,071
-141,731	-200,000	-0,007	-0,118
-140,716	-200,000	0,021	-0,078
-139,702	-88,819	-0,032	-0,007
-138,687	500,355	0,040	-0,067
-137,672	-117,156	-0,132	-0,017
-136,658	710,673	-0,018	-0,035
-135,643	-200,000	-0,004	-0,078
-134,629	350,677	-0,092	0,132
-133,614	-22,204	0,050	0,022
-132,599	-110,851	-0,052	-0,008
-131,585	-55,587	-0,095	-0,031
-130,570	586,728	-0,012	0,022
-129,556	27,347	-0,048	-0,029
-128,541	231,357	0,074	-0,088
-127,526	516,539	0,044	0,076
-126,512	-37,293	-0,131	0,051
-125,497	-200,000	-0,016	0,099
-124,483	76,661	-0,048	0,037
-123,468	-200,000	-0,012	-0,039
-122,453	147,948	-0,045	-0,044
-121,439	-20,177	-0,041	-0,018
-120,424	-49,444	0,070	-0,024
-119,410	729,635	0,036	-0,069
-118,395	-200,000	0,013	0,108
-117,380	-200,000	0,027	0,159
-116,366	-200,000	0,001	-0,067
-115,351	32,703	-0,102	0,064
-114,337	297,646	-0,070	-0,094
-113,322	-200,000	-0,021	0,186
-112,307	800,000	-0,035	0,100
-111,293	-65,368	0,151	-0,044
-110,278	-53,228	0,103	-0,034
-109,264	-127,745	0,048	-0,005
-108,249	136,171	-0,039	-0,037
-107,234	67,723	0,054	-0,040
-106,220	-200,000	0,002	-0,029
-105,205	-102,225	0,018	0,003
-104,191	-80,379	-0,026	0,006
-103,176	18,462	0,096	-0,056
-102,162	71,066	-0,059	-0,045
-101,147	-80,889	-0,068	-0,016
-100,132	-186,625	-0,095	-0,001
-99,118	144,076	0,029	-0,028
-98,103	247,020	-0,038	-0,047
-97,089	-200,000	0,021	0,073
-96,074	-30,295	0,144	0,059
-95,059	718,157	0,030	0,059
-94,045	-42,278	-0,239	0,088
-93,030	651,059	0,006	0,011
-92,016	-200,000	-0,019	-0,083
-91,001	-95,298	0,130	0,025
-89,986	392,793	-0,035	-0,054
-88,972	-109,791	0,100	0,015
-87,957	800,000	0,072	0,171
-86,943	92,247	0,085	0,070
-85,928	-53,293	-0,121	-0,040
-84,913	-200,000	-0,010	-0,173
-83,899	230,586	-0,061	-0,073
-82,884	-200,000	-0,020	-0,117
-81,870	-200,000	-0,018	0,073
-80,855	-200,000	0,021	0,070
-79,840	774,099	0,030	0,061
-78,826	-200,000	0,004	-0,049
-77,811	800,000	0,057	-0,136
-76,797	62,537	-0,044	-0,032
-75,782	-200,000	-0,003	-0,018
-74,767	-40,947	0,095	0,035
-73,753	-10,067	0,062	-0,030
-72,738	-8,504	-0,062	0,030
-71,724	-122,254	-0,079	0,009
-70,709	800,000	-0,063	-0,138
-69,694	800,000	-0,032	-0,069
-68,680	5,842	0,015	0,008
-67,665	188,022	-0,107	0,117
-66,651	529,185	0,050	0,087
-65,636	4,290	-0,079	-0,042
-64,622	-98,789	0,112	0,021
-63,607	-137,756	-0,114	0,009
-62,592	-125,276	0,022	0,002
-61,578	13,832	-0,072	-0,040
-60,563	-97,784	0,107	0,020
-59,549	23,364	-0,157	0,094
-58,534	-118,867	-1,268	-0,160
-57,519	530,854	-0,796	-1,372
-56,505	-200,000	-0,887	-4,251
-55,490	37,368	0,664	-0,427
-54,476	800,000	4,894	11,933
-53,461	-200,000	13,614	253,179
-52,446	-200,000	688,630	2265,871
-51,432	595,283	1622,083	2925,503
-50,417	120,245	1635,751	1473,595
-49,403	73,602	1289,789	979,564
-48,388	38,337	1024,693	661,161
-47,373	24,430	982,271	588,030
-46,359	23,689	971,788	579,302
-45,344	22,681	967,590	573,481
-44,330	22,632	966,119	572,425
-43,315	22,571	964,665	571,343
-42,300	22,562	963,669	570,701
-41,286	22,556	962,810	570,151
-40,271	22,525	961,860	569,463
-39,257	22,514	960,892	568,831
-38,242	22,537	959,897	568,296
-37,227	22,572	958,943	567,822
-36,213	22,459	958,169	566,975
-35,198	22,523	957,303	566,647
-34,184	22,523	956,751	566,298
-33,169	22,532	955,684	565,674
-32,154	22,532	954,806	565,129
-31,140	22,604	954,031	564,882
-30,125	22,564	953,162	564,216
-29,111	22,538	952,422	563,672
-28,096	22,575	951,619	563,294
-27,082	22,546	951,148	562,900
-26,067	22,499	950,320	562,234
-25,052	22,515	949,565	561,819
-24,038	22,562	949,052	561,642
-23,023	22,532	948,297	561,076
-22,009	22,586	947,678	560,863
-20,994	22,618	946,998	560,538
-19,979	22,529	946,364	559,858
-18,965	22,613	945,804	559,771
-17,950	22,598	945,136	559,307
-16,936	22,501	944,458	558,572
-15,921	22,504	943,839	558,197
-14,906	22,460	942,997	557,535
-13,892	22,450	942,345	557,095
-12,877	22,461	941,752	556,757
-11,863	22,443	940,938	556,196
-10,848	22,415	940,767	555,983
-9,833	22,518	940,223	555,968
-8,819	22,464	939,604	555,410
-7,804	22,453	938,833	554,897
-6,790	22,415	938,306	554,444
-5,775	22,435	937,741	554,148
-4,760	22,440	937,118	553,777
-3,746	22,486	936,287	553,406
-2,731	22,283	935,784	552,447
-1,717	22,243	935,099	551,894
-0,702	22,238	934,468	551,484
0,313	22,013	933,906	551,275
1,327	25,011	931,771	559,399
2,342	34,511	796,662	503,616
3,356	32,456	452,190	282,728
4,371	1,495	293,996	152,890
5,386	-2,894	274,689	138,683
6,400	-4,363	268,930	134,399
7,415	-4,932	266,523	132,661
8,429	-4,595	265,278	132,338
9,444	-4,582	264,421	131,911
10,459	-4,622	263,771	131,538
11,473	-4,783	263,200	131,095
12,488	-4,892	262,602	130,687
13,502	-4,944	262,081	130,369
14,517	-4,675	261,721	130,421
15,531	-4,638	261,439	130,303
16,546	-4,626	261,032	130,099
17,561	-4,630	260,783	129,959
18,575	-4,455	260,284	129,856
19,590	-4,719	259,982	129,458
20,604	-4,547	259,647	129,433
21,619	-4,615	259,409	129,242
22,634	-4,613	258,922	128,990
23,648	-4,709	258,805	128,834
24,663	-4,708	258,544	128,694
25,677	-4,648	258,289	128,608
26,692	-4,582	258,013	128,519
27,707	-4,780	257,772	128,211
28,721	-4,817	257,416	127,990
29,736	-4,694	257,138	127,950
30,750	-4,722	256,874	127,781
31,765	-4,876	256,834	127,614
32,780	-4,768	256,498	127,531
33,794	-4,746	256,308	127,445
34,809	-4,883	256,199	127,258
35,823	-4,574	255,740	127,292
36,838	-4,813	255,633	127,016
37,853	-4,787	255,483	126,953
38,867	-4,945	255,121	126,624
39,882	-4,949	254,925	126,511
40,896	-4,732	254,505	126,482
41,911	-4,853	254,364	126,294
42,926	-4,875	254,336	126,250
43,940	-4,897	253,955	126,030
44,955	-4,963	253,803	125,886
45,969	-4,907	253,581	125,813
46,984	-5,187	253,439	125,487
47,999	-5,255	253,075	125,236
49,013	-5,444	252,665	124,859
50,028	-5,381	252,495	124,818
51,042	-5,443	252,233	124,623
52,057	-5,553	252,032	124,418
53,071	-5,539	251,781	124,295
54,086	-5,467	251,766	124,339
55,101	-5,422	251,659	124,314
56,115	-5,260	251,400	124,315
57,130	-4,793	251,314	124,664
58,144	-4,609	251,198	124,755
59,159	-4,629	251,155	124,705
60,174	-4,734	250,750	124,403
61,188	-4,646	250,511	124,348
62,203	-4,632	250,503	124,345
63,217	-4,724	250,123	124,067
64,232	-4,628	249,877	124,016
65,247	-4,576	249,754	123,989
66,261	-4,604	249,553	123,853
67,276	-4,969	249,180	123,345
68,290	-5,280	248,996	122,977
69,305	-5,202	248,757	122,915
70,320	-5,118	248,524	122,860
71,334	-4,872	248,541	123,067
72,349	-4,534	248,337	123,244
73,363	-4,586	248,096	123,069
74,378	-4,578	247,894	122,965
75,393	-4,642	247,852	122,878
76,407	-4,859	247,600	122,558
77,422	-4,701	247,319	122,543
78,436	-4,783	247,194	122,400
79,451	-4,673	246,870	122,321
80,466	-4,922	246,784	122,057
81,480	-4,861	246,447	121,931
82,495	-5,012	246,311	121,726
83,509	-4,828	246,129	121,780
84,524	-4,981	245,881	121,518
85,539	-5,000	245,641	121,372
86,553	-5,249	245,580	121,121
87,568	-5,135	245,373	121,104
88,582	-5,058	245,184	121,065
89,597	-4,829	244,789	121,051
90,611	-4,815	244,828	121,072
91,626	-4,763	244,666	121,025
92,641	-4,886	244,549	120,853
93,655	-4,940	244,293	120,670
94,670	-4,858	244,045	120,605
95,684	-4,968	243,823	120,393
96,699	-5,022	243,769	120,310
97,714	-4,843	243,479	120,306
98,728	-4,930	243,226	120,097
99,743	-5,364	243,222	119,724
100,757	-5,143	242,899	119,738
101,772	-5,091	242,626	119,636
102,787	-4,920	242,623	119,766
103,801	-5,039	242,439	119,565
104,816	-4,761	242,237	119,686
105,830	-4,758	242,182	119,650
106,845	-4,585	242,028	119,707
107,860	-4,780	241,754	119,399
108,874	-4,817	241,537	119,251
109,889	-4,887	241,426	119,128
110,903	-5,021	241,150	118,870
111,918	-5,076	240,990	118,735
112,933	-5,044	240,911	118,712
113,947	-4,865	240,682	118,736
114,962	-4,633	240,489	118,821
115,976	-4,804	240,223	118,539
116,991	-4,725	240,028	118,497
118,006	-4,770	239,960	118,416
119,020	-4,954	239,791	118,171
120,035	-4,856	239,761	118,226
121,049	-4,482	239,556	118,421
122,064	-4,688	239,416	118,172
123,079	-4,710	239,310	118,091
124,093	-4,817	238,941	117,811
125,108	-4,988	238,787	117,585
126,122	-5,232	238,473	117,221
127,137	-5,361	238,377	117,058
128,151	-5,285	238,245	117,045
129,166	-5,024	238,029	117,141
130,181	-5,085	237,814	116,975
131,195	-5,237	237,551	116,712
132,210	-5,081	237,554	116,830
133,224	-4,874	237,395	116,909
134,239	-4,962	237,297	116,779
135,254	-4,850	237,021	116,724
136,268	-5,065	236,861	116,460
137,283	-5,094	236,556	116,277
138,297	-5,362	236,425	115,985
139,312	-5,321	236,231	115,913
140,327	-5,232	236,112	115,916
141,341	-4,603	236,167	116,440
142,356	-4,515	236,088	116,461
143,370	-4,521	235,820	116,314
144,385	-4,550	235,647	116,194
145,400	-4,317	235,453	116,276
146,414	-4,543	235,263	115,990
147,429	-4,601	235,145	115,875
148,443	-4,405	234,741	115,822
149,458	-4,587	234,661	115,627
150,473	-4,499	234,589	115,652
151,487	-4,534	234,376	115,509
152,502	-4,602	234,233	115,373
153,516	-4,459	234,193	115,458
154,531	-4,474	233,864	115,273
155,546	-4,706	233,708	115,001
156,560	-4,573	233,450	114,970
157,575	-4,675	233,322	114,815
158,589	-4,807	233,198	114,640
159,604	-4,464	233,060	114,834
160,619	-4,096	232,910	115,042
161,633	-4,146	232,851	114,962
162,648	-4,420	232,711	114,666
163,662	-4,427	232,408	114,500
164,677	-4,542	232,269	114,332
165,692	-4,702	232,466	114,291
166,706	-4,531	232,112	114,242
167,721	-4,295	231,934	114,331
168,735	-4,634	231,837	114,005
169,750	-4,727	231,702	113,855
170,764	-4,672	231,533	113,806
171,779	-4,358	231,300	113,928
172,794	-4,471	231,210	113,785
173,808	-4,482	230,897	113,612
174,823	-5,030	230,602	113,026
175,837	-5,160	230,313	112,773
176,852	-4,760	230,368	113,103
177,867	-4,441	230,252	113,286
178,881	-4,545	230,284	113,211
179,896	-4,398	229,971	113,162
180,910	-4,277	229,850	113,186
181,925	-4,279	229,684	113,092
182,940	-4,466	229,568	112,879
183,954	-4,343	229,449	112,907
184,969	-4,367	229,290	112,800
185,983	-4,224	229,158	112,836
186,998	-4,123	228,946	112,801
188,013	-4,119	228,970	112,806
189,027	-4,218	228,686	112,579
190,042	-4,482	228,589	112,316
191,056	-4,182	228,321	112,407
192,071	-4,320	228,186	112,223
193,086	-4,423	228,026	112,055
194,100	-4,443	227,880	111,957
195,115	-4,658	227,360	111,526
196,129	-5,464	227,234	110,832
197,144	-2,531	228,334	113,632
198,159	1,588	229,317	117,311
199,173	3,916	229,887	119,401
200,188	4,148	229,717	119,483
201,202	3,976	229,704	119,332
202,217	4,238	229,607	119,473
203,232	4,406	229,562	119,569
204,246	4,617	229,207	119,537
205,261	4,767	229,070	119,572
206,275	4,786	229,079	119,580
207,290	4,788	228,955	119,506
208,304	4,827	228,668	119,375
209,319	4,987	228,620	119,463
210,334	4,722	228,465	119,168
211,348	4,455	228,232	118,829
212,363	3,849	228,067	118,267
213,377	3,815	227,784	118,084
214,392	3,903	227,664	118,079
215,407	4,064	227,332	118,019
216,421	4,065	227,252	117,968
217,436	4,140	227,061	117,916
218,450	3,655	226,938	117,470
219,465	3,833	226,700	117,472
220,480	3,894	226,625	117,469
221,494	3,820	226,542	117,360
222,509	4,017	226,389	117,420
223,523	3,929	226,203	117,247
224,538	3,952	225,999	117,148
225,553	4,020	225,905	117,140
226,567	4,008	225,872	117,104
227,582	4,256	225,808	117,249
228,596	4,175	225,729	117,136
229,611	4,163	225,235	116,860
230,626	3,796	225,196	116,551
231,640	3,868	225,038	116,513
232,655	4,079	225,011	116,648
233,669	4,451	224,972	116,900
234,684	4,654	224,772	116,938
235,699	4,462	224,555	116,670
236,713	4,100	224,449	116,332
237,728	3,685	224,116	115,836
238,742	3,891	223,996	115,918
239,757	3,821	223,950	115,832
240,772	4,090	223,664	115,876
241,786	3,989	223,632	115,773
242,801	4,074	223,492	115,754
243,815	4,272	223,493	115,893
244,830	4,412	223,172	115,822
245,844	4,066	222,989	115,457
246,859	3,951	222,947	115,338
247,874	4,299	222,725	115,474
248,888	4,319	222,727	115,480
249,903	4,190	222,465	115,237
250,917	4,131	222,259	115,076
251,932	4,041	222,107	114,919
252,947	3,674	222,018	114,590
253,961	3,909	221,841	114,664
254,976	4,035	221,689	114,668
255,990	4,097	221,542	114,628
257,005	4,355	221,402	114,737
258,020	4,286	221,452	114,702
259,034	4,274	221,369	114,640
260,049	4,321	221,085	114,517
261,063	4,207	220,981	114,369
262,078	4,197	220,942	114,331
263,093	4,382	220,723	114,344
264,107	4,297	220,462	114,135
265,122	4,376	220,341	114,121
266,136	4,588	220,275	114,234
267,151	4,496	220,155	114,093
268,166	4,064	219,922	113,644
269,180	3,843	219,548	113,278
270,195	3,896	219,541	113,303
271,209	3,921	219,437	113,257
272,224	4,050	219,234	113,237
273,239	4,026	219,206	113,195
274,253	3,825	218,949	112,904
275,268	3,899	218,772	112,858
276,282	3,811	218,729	112,761
277,297	3,682	218,497	112,536
278,312	3,537	218,484	112,413
279,326	3,890	218,266	112,550
280,341	4,277	218,115	112,745
281,355	4,021	218,065	112,522
282,370	3,752	217,985	112,274
283,384	3,867	217,896	112,302
284,399	3,827	217,482	112,050
285,414	3,783	217,359	111,945
286,428	3,762	217,415	111,948
287,443	3,920	217,309	111,998
288,457	4,296	217,084	112,146
289,472	3,913	216,923	111,774
290,487	3,452	216,668	111,298
291,501	3,579	216,424	111,255
292,516	3,664	216,489	111,340
293,530	3,545	216,394	111,195
294,545	3,736	216,144	111,195
295,560	3,753	216,015	111,131
296,574	3,841	215,878	111,114
297,589	3,874	215,921	111,151
298,603	3,963	215,759	111,121
299,618	4,098	215,524	111,088
300,633	3,852	215,479	110,877
301,647	4,100	215,485	111,050
302,662	4,204	215,193	110,964
303,676	4,230	214,971	110,858
304,691	4,056	214,893	110,683
305,706	4,410	214,717	110,837
306,720	4,483	214,724	110,883
307,735	4,044	214,383	110,382
308,749	3,685	214,371	110,109
309,764	3,828	214,278	110,154
310,779	4,155	214,073	110,273
311,793	4,123	213,828	110,114
312,808	4,023	213,731	109,983
313,822	4,333	213,497	110,074
314,837	3,851	213,592	109,768
315,852	3,865	213,256	109,596
316,866	3,705	213,149	109,417
317,881	3,909	213,229	109,594
318,895	4,020	213,020	109,556
319,910	4,111	212,746	109,470
320,925	3,806	212,593	109,165
321,939	3,545	212,414	108,878
322,954	3,620	212,262	108,843
323,968	3,827	212,281	108,990
324,983	4,066	212,179	109,098
325,997	4,150	212,122	109,118
327,012	4,215	211,853	109,016
328,027	3,908	211,795	108,759
329,041	4,330	211,699	108,998
330,056	4,561	211,573	109,086
331,070	4,104	211,289	108,608
332,085	3,754	211,039	108,224
333,100	3,873	211,054	108,305
334,114	3,891	210,990	108,276
335,129	3,727	210,784	108,045
336,143	3,848	210,616	108,034
337,158	3,931	210,459	108,002
338,173	3,923	210,391	107,952
339,187	3,609	210,169	107,608
340,202	3,533	209,959	107,438
341,216	3,383	209,920	107,304
342,231	3,845	209,878	107,596
343,246	3,697	209,717	107,401
344,260	3,701	209,489	107,277
345,275	3,797	209,544	107,363
346,289	3,843	209,438	107,331
347,304	4,077	209,080	107,301
348,319	4,050	209,085	107,275
349,333	4,021	208,855	107,127
350,348	4,129	208,783	107,156
351,362	4,166	208,724	107,142
352,377	4,215	208,686	107,146
353,392	3,964	208,405	106,819
354,406	3,960	208,331	106,768
355,421	192,031	1347,130	1430,077
356,435	153,130	1485,980	1430,189
