DTS Sentinel unit serial number:	SN410029Multiplexer serial number:	ORYXHardware model number:	OX2-SRSoftware version number:	ORYX F/W v4,00 Oryx Data Collector v3.7.2.0data status	okinstallation	B6 Nyhavnadifferential loss correction	single-endedforward channel	channel 2reverse channel	N/Adate	2023/12/09time	19:55:08forward acquisition time	300,00reverse acquisition time	0,00gamma	499,1914k internal	0,3130k external	0,3130temperature offset calibration	1,0000default loss term (dB/km)	0,3820temperature slope calibration	1,0000multiplexer offset coefficient	1,0000multiplexer slope coefficient	1,0000fibre end	0,00T internal ref (°C)	21,18T ext. ref 1 (°C)	5,19T ext. ref 2 (°C)	5,15length (m)	temperature (°C)	Stokes	anti-Stokes-744,400	576,100	0,081	-0,148
-743,385	-44,501	-0,307	-0,114
-742,371	257,478	0,098	0,125
-741,356	-35,246	-0,196	0,079
-740,342	-27,561	0,049	-0,021
-739,327	-4,072	-0,176	0,091
-738,312	-73,675	0,176	0,047
-737,298	-104,787	-0,278	0,047
-736,283	646,410	-0,033	0,063
-735,269	-51,772	-0,187	0,064
-734,254	-54,889	0,134	-0,045
-733,239	-77,295	-0,546	-0,140
-732,225	-184,068	0,130	0,002
-731,210	-105,051	-0,106	0,018
-730,196	-63,256	0,129	-0,039
-729,181	381,186	-0,045	-0,069
-728,167	-195,453	-0,131	-0,001
-727,152	-94,160	-0,096	-0,019
-726,137	359,694	-0,091	0,136
-725,123	-172,272	-0,146	0,003
-724,108	-3,820	-0,095	-0,049
-723,094	358,120	-0,102	-0,151
-722,079	800,000	-0,045	-0,095
-721,064	-200,000	0,002	-0,031
-720,050	-133,712	-0,076	-0,007
-719,035	800,000	-0,048	0,107
-718,021	800,000	-0,035	0,092
-717,006	250,479	-0,068	-0,086
-715,991	140,702	-0,105	-0,103
-714,977	800,000	-0,054	0,133
-713,962	-200,000	0,001	0,037
-712,948	176,119	-0,037	0,040
-711,933	136,442	-0,016	0,015
-710,918	-113,823	-0,028	0,004
-709,904	-200,000	-0,013	-0,181
-708,889	-200,000	0,009	-0,061
-707,875	184,666	-0,066	-0,073
-706,860	-107,424	-0,028	-0,005
-705,845	640,206	0,040	-0,076
-704,831	800,000	0,047	-0,105
-703,816	800,000	-0,036	-0,110
-702,802	22,221	0,128	0,078
-701,787	-36,075	-0,093	0,037
-700,772	225,150	-0,049	0,059
-699,758	800,000	0,047	0,102
-698,743	-200,000	0,057	-0,249
-697,729	32,565	0,125	-0,080
-696,714	-92,449	0,037	-0,008
-695,699	125,235	-0,082	0,077
-694,685	800,000	-0,030	-0,066
-693,670	-200,000	-0,021	-0,087
-692,656	-115,249	0,070	0,010
-691,641	-78,120	0,101	0,026
-690,627	-200,000	-0,001	0,042
-689,612	-12,708	-0,093	0,045
-688,597	116,513	-0,094	0,085
-687,583	-103,591	-0,080	0,014
-686,568	-200,000	0,007	0,058
-685,554	-111,908	-0,064	-0,010
-684,539	84,061	0,097	-0,078
-683,524	-46,139	-0,064	-0,023
-682,510	800,000	-0,073	0,195
-681,495	-200,000	-0,008	0,044
-680,481	-96,927	-0,105	-0,020
-679,466	138,834	-0,080	-0,078
-678,451	-93,136	-0,047	-0,010
-677,437	-79,422	-0,083	-0,021
-676,422	136,580	-0,100	0,096
-675,408	658,165	0,025	-0,049
-674,393	105,421	-0,081	-0,071
-673,378	107,479	-0,065	-0,057
-672,364	-65,111	-0,171	-0,051
-671,349	308,442	0,043	-0,059
-670,335	214,105	-0,033	0,038
-669,320	250,490	-0,049	-0,062
-668,305	-99,859	-0,029	-0,005
-667,291	800,000	0,037	-0,078
-666,276	0,501	-0,198	-0,104
-665,262	185,345	0,023	-0,025
-664,247	68,815	-0,012	-0,009
-663,232	43,593	-0,107	0,072
-662,218	29,226	0,132	0,083
-661,203	800,000	0,060	-0,149
-660,189	800,000	0,023	-0,063
-659,174	800,000	0,018	0,045
-658,159	-65,388	-0,079	-0,023
-657,145	262,519	0,035	-0,045
-656,130	-92,842	-0,049	0,010
-655,116	281,623	0,074	-0,099
-654,101	-71,579	-0,078	0,022
-653,086	51,410	-0,058	0,041
-652,072	-200,000	-0,023	-0,170
-651,057	800,000	-0,059	-0,153
-650,043	501,620	-0,031	-0,054
-649,028	800,000	-0,022	0,052
-648,014	-6,340	-0,108	0,054
-646,999	176,127	0,037	-0,040
-645,984	-117,642	-0,034	0,004
-644,970	-200,000	-0,014	-0,147
-643,955	-200,000	0,016	0,058
-642,941	277,322	-0,070	0,092
-641,926	-200,000	0,012	0,146
-640,911	424,028	-0,042	-0,068
-639,897	-200,000	-0,021	-0,133
-638,882	395,826	0,038	0,059
-637,868	316,260	0,032	-0,045
-636,853	4,151	-0,084	-0,045
-635,838	-200,000	0,016	-0,108
-634,824	25,357	-0,164	-0,100
-633,809	-200,000	-0,147	0,000
-632,795	-59,583	0,083	0,026
-631,780	-200,000	-0,016	-0,126
-630,765	-31,242	0,057	-0,024
-629,751	130,254	-0,029	0,028
-628,736	-138,716	-0,074	-0,006
-627,722	-200,000	-0,010	-0,068
-626,707	-17,825	-0,078	0,036
-625,692	137,188	-0,044	0,043
-624,678	-200,000	-0,009	0,074
-623,663	800,000	0,026	-0,066
-622,649	800,000	-0,048	-0,110
-621,634	142,349	-0,063	-0,062
-620,619	-104,195	-0,149	-0,025
-619,605	-200,000	-0,012	-0,045
-618,590	166,076	0,027	-0,029
-617,576	-69,976	0,045	0,013
-616,561	-32,962	0,017	-0,007
-615,546	-200,000	-0,006	-0,047
-614,532	-57,441	-0,113	-0,037
-613,517	-200,000	0,024	-0,098
-612,503	-23,623	-0,059	-0,026
-611,488	131,964	-0,011	-0,011
-610,474	-200,000	0,016	-0,099
-609,459	-46,243	-0,030	0,011
-608,444	298,172	0,104	0,142
-607,430	800,000	-0,016	0,036
-606,415	77,792	0,071	0,056
-605,401	106,365	-0,146	0,128
-604,386	-200,000	-0,009	0,086
-603,371	24,408	-0,100	0,061
-602,357	246,952	-0,084	0,105
-601,342	800,000	-0,016	-0,035
-600,328	179,510	-0,060	-0,065
-599,313	64,919	0,099	-0,074
-598,298	31,717	0,051	-0,032
-597,284	-98,896	0,067	0,012
-596,269	-200,000	-0,007	0,120
-595,255	-59,034	-0,114	0,036
-594,240	-5,144	-0,055	0,028
-593,225	800,000	0,030	-0,083
-592,211	-37,363	-0,159	-0,062
-591,196	-200,000	-0,003	-0,029
-590,182	511,706	-0,108	0,187
-589,167	111,745	0,033	-0,030
-588,152	9,992	0,027	-0,015
-587,138	279,838	-0,059	0,078
-586,123	-200,000	0,029	-0,097
-585,109	-200,000	0,031	-0,192
-584,094	156,633	-0,043	0,044
-583,079	82,350	0,031	-0,025
-582,065	-156,278	-0,105	-0,005
-581,050	-150,058	0,064	0,004
-580,036	800,000	-0,045	-0,103
-579,021	-55,492	-0,097	0,032
-578,006	-104,420	-0,083	0,014
-576,992	716,042	-0,041	0,080
-575,977	-129,593	0,104	-0,011
-574,963	-108,839	0,020	-0,003
-573,948	79,022	-0,048	0,038
-572,934	-111,775	-0,037	0,005
-571,919	-200,000	0,002	0,085
-570,904	24,302	-0,072	-0,044
-569,890	121,035	-0,025	0,023
-568,875	-200,000	-0,019	0,085
-567,861	-122,867	-0,096	0,011
-566,846	777,795	0,062	0,126
-565,831	800,000	0,049	0,129
-564,817	-152,852	0,072	-0,004
-563,802	109,639	-0,074	-0,065
-562,788	800,000	0,004	-0,010
-561,773	71,144	0,077	0,059
-560,758	387,702	0,056	0,086
-559,744	466,914	0,108	0,179
-558,729	-36,971	-0,079	0,031
-557,715	159,943	-0,068	-0,070
-556,700	259,180	-0,052	-0,066
-555,685	-198,085	0,116	0,000
-554,671	-124,290	0,054	-0,006
-553,656	-77,126	0,174	-0,044
-552,642	196,650	0,014	-0,016
-551,627	-176,408	-0,078	-0,001
-550,612	81,164	-0,105	-0,084
-549,598	280,384	-0,055	-0,073
-548,583	-136,100	-0,140	-0,012
-547,569	344,580	0,055	0,080
-546,554	800,000	0,055	-0,135
-545,539	-200,000	-0,003	-0,070
-544,525	151,691	-0,052	-0,053
-543,510	-135,833	0,109	-0,009
-542,496	352,289	-0,051	-0,075
-541,481	330,288	-0,063	-0,090
-540,466	578,835	0,013	0,024
-539,452	-200,000	0,009	-0,091
-538,437	166,696	0,093	0,098
-537,423	263,872	-0,073	-0,094
-536,408	12,703	-0,048	0,027
-535,393	-41,890	0,099	0,037
-534,379	800,000	0,020	-0,059
-533,364	-200,000	0,001	-0,053
-532,350	-90,444	0,083	-0,018
-531,335	78,577	0,076	0,060
-530,321	-48,218	-0,054	-0,019
-529,306	800,000	0,030	-0,068
-528,291	469,778	-0,048	0,080
-527,277	51,872	0,037	0,026
-526,262	-90,187	-0,065	0,014
-525,248	278,079	-0,043	0,056
-524,233	-200,000	-0,015	0,099
-523,218	-200,000	0,003	0,019
-522,204	13,430	0,147	0,084
-521,189	151,974	-0,027	-0,027
-520,175	137,559	-0,059	-0,057
-519,160	-200,000	0,017	-0,088
-518,145	-4,342	0,042	0,021
-517,131	379,335	-0,052	-0,079
-516,116	441,739	0,121	0,196
-515,102	102,049	-0,055	-0,048
-514,087	371,330	0,057	-0,086
-513,072	-49,529	-0,097	-0,034
-512,058	49,441	0,010	0,007
-511,043	-111,930	0,153	0,023
-510,029	230,252	-0,045	0,054
-509,014	-110,622	-0,139	0,021
-507,999	589,512	-0,029	0,053
-506,985	-104,017	-0,007	0,001
-505,970	-141,888	0,056	-0,004
-504,956	-200,000	-0,003	0,172
-503,941	38,841	-0,111	0,073
-502,926	800,000	-0,036	-0,107
-501,912	283,209	0,056	0,074
-500,897	-47,263	0,170	0,061
-499,883	-39,018	-0,040	0,015
-498,868	-103,503	-0,031	0,005
-497,853	-2,882	-0,077	0,040
-496,839	-127,094	0,061	-0,007
-495,824	522,683	-0,079	-0,137
-494,810	-133,193	0,109	0,010
-493,795	-200,000	0,000	0,001
-492,781	234,043	0,093	-0,114
-491,766	800,000	-0,035	-0,089
-490,751	451,016	-0,030	-0,050
-489,737	95,106	-0,025	0,021
-488,722	250,223	0,110	-0,138
-487,708	800,000	-0,028	0,074
-486,693	57,878	-0,029	0,021
-485,678	50,177	-0,066	-0,046
-484,664	147,327	-0,098	0,097
-483,649	-200,000	0,005	-0,062
-482,635	11,522	-0,089	0,050
-481,620	-146,995	0,107	0,007
-480,605	145,587	-0,011	0,011
-479,591	18,079	-0,059	0,035
-478,576	-119,520	-0,119	-0,015
-477,562	53,091	0,026	-0,018
-476,547	-36,491	-0,081	-0,032
-475,532	-200,000	0,021	-0,071
-474,518	615,990	-0,031	0,058
-473,503	800,000	-0,022	-0,056
-472,489	-5,309	-0,097	0,049
-471,474	800,000	-0,057	0,121
-470,459	742,449	0,041	0,081
-469,445	41,908	-0,033	-0,022
-468,430	-123,563	-0,081	-0,009
-467,416	-70,403	0,043	0,012
-466,401	781,664	0,096	0,195
-465,386	-200,000	-0,022	0,192
-464,372	800,000	-0,030	0,068
-463,357	482,910	-0,044	-0,073
-462,343	-77,025	-0,118	0,030
-461,328	338,506	0,078	-0,113
-460,313	62,537	-0,080	-0,059
-459,299	-160,954	0,090	-0,003
-458,284	800,000	0,051	0,126
-457,270	115,593	0,035	-0,032
-456,255	47,821	-0,075	0,052
-455,241	124,566	0,060	-0,055
-454,226	93,057	-0,033	-0,028
-453,211	-200,000	0,005	-0,041
-452,197	247,992	-0,035	0,044
-451,182	-49,458	0,075	0,026
-450,168	-93,145	0,087	-0,018
-449,153	-200,000	-0,013	0,080
-448,138	344,345	0,066	0,095
-447,124	-94,607	-0,109	-0,022
-446,109	12,427	-0,055	-0,031
-445,095	163,462	0,071	-0,074
-444,080	-200,000	-0,004	-0,110
-443,065	-53,729	0,106	0,035
-442,051	800,000	-0,050	-0,118
-441,036	28,707	-0,067	0,042
-440,022	-200,000	0,009	0,029
-439,007	-81,355	0,131	-0,031
-437,992	-200,000	0,005	-0,059
-436,978	-119,023	-0,046	0,006
-435,963	-33,601	-0,039	0,016
-434,949	151,834	-0,048	-0,048
-433,934	358,174	-0,096	0,141
-432,919	357,001	0,056	0,082
-431,905	183,305	-0,036	-0,039
-430,890	151,884	0,040	-0,040
-429,876	-200,000	0,022	0,083
-428,861	-200,000	0,001	-0,095
-427,846	-32,024	-0,081	-0,033
-426,832	-72,608	0,047	0,013
-425,817	234,270	-0,071	0,087
-424,803	155,158	-0,030	-0,030
-423,788	575,726	0,069	-0,124
-422,773	-200,000	0,034	-0,170
-421,759	245,890	0,043	0,053
-420,744	-200,000	0,002	0,023
-419,730	-200,000	0,011	-0,123
-418,715	-200,000	0,016	-0,055
-417,701	800,000	0,051	-0,107
-416,686	-78,409	0,082	0,021
-415,671	73,935	0,172	0,133
-414,657	88,799	0,031	0,025
-413,642	377,696	0,035	-0,052
-412,628	314,361	0,037	-0,051
-411,613	-70,759	0,072	-0,020
-410,598	-45,726	-0,052	0,019
-409,584	-146,185	0,079	-0,005
-408,569	18,254	0,078	0,046
-407,555	-81,416	0,150	-0,036
-406,540	-44,415	-0,225	0,082
-405,525	800,000	-0,004	0,012
-404,511	-101,447	-0,126	-0,022
-403,496	800,000	-0,047	0,136
-402,482	111,638	-0,100	0,088
-401,467	-192,527	0,188	0,001
-400,452	-89,908	-0,069	-0,015
-399,438	234,185	0,061	0,074
-398,423	238,843	0,027	-0,033
-397,409	-162,642	-0,099	-0,004
-396,394	20,051	0,059	0,035
-395,379	669,431	0,007	-0,013
-394,365	800,000	0,006	0,017
-393,350	74,423	0,104	-0,080
-392,336	-54,056	-0,047	-0,016
-391,321	301,929	0,067	-0,091
-390,306	126,403	-0,100	-0,093
-389,292	489,121	0,065	-0,109
-388,277	9,131	0,034	-0,019
-387,263	-200,000	-0,006	-0,035
-386,248	-60,091	0,082	0,026
-385,233	-200,000	0,005	0,092
-384,219	-77,874	-0,097	-0,024
-383,204	-159,562	0,034	-0,001
-382,190	353,443	-0,080	-0,116
-381,175	-116,247	-0,098	0,013
-380,160	-200,000	-0,018	0,109
-379,146	-118,284	0,069	0,009
-378,131	-114,212	-0,060	-0,008
-377,117	48,475	0,161	0,111
-376,102	-83,131	0,109	0,026
-375,088	-40,279	0,095	-0,036
-374,073	22,376	-0,027	-0,016
-373,058	-200,000	-0,008	0,113
-372,044	69,946	0,060	0,045
-371,029	-200,000	-0,003	0,096
-370,015	-156,794	0,128	-0,006
-369,000	-13,179	-0,086	-0,041
-367,985	-105,065	0,019	-0,003
-366,971	143,377	0,053	-0,052
-365,956	-115,416	0,018	-0,002
-364,942	-162,458	0,114	0,004
-363,927	-200,000	-0,009	0,058
-362,912	114,956	0,065	0,058
-361,898	-200,000	0,045	-0,147
-360,883	-54,619	-0,089	-0,029
-359,869	97,199	-0,015	-0,012
-358,854	800,000	-0,016	-0,038
-357,839	5,007	-0,101	0,054
-356,825	123,503	0,065	-0,060
-355,810	-66,473	0,194	-0,056
-354,796	69,385	0,106	-0,080
-353,781	92,169	-0,129	-0,107
-352,766	50,467	-0,040	0,028
-351,752	-38,748	0,107	-0,041
-350,737	-42,266	0,041	-0,015
-349,723	-200,000	-0,001	0,050
-348,708	132,378	-0,092	0,087
-347,693	128,753	-0,117	-0,110
-346,679	800,000	-0,068	-0,152
-345,664	-10,403	-0,054	-0,026
-344,650	-200,000	-0,003	0,060
-343,635	-200,000	-0,007	0,156
-342,620	-90,994	-0,069	0,014
-341,606	800,000	-0,036	0,098
-340,591	-200,000	0,013	-0,124
-339,577	-200,000	0,004	0,057
-338,562	102,822	0,078	-0,067
-337,548	800,000	-0,057	0,120
-336,533	-136,085	0,143	-0,012
-335,518	800,000	-0,040	0,091
-334,504	544,744	0,069	-0,121
-333,489	-100,943	-0,069	-0,012
-332,475	-5,668	0,078	0,039
-331,460	-135,289	-0,102	-0,009
-330,445	255,532	0,056	0,070
-329,431	-200,000	0,019	0,166
-328,416	445,213	-0,026	0,042
-327,402	-45,135	0,116	0,042
-326,387	146,831	-0,086	-0,084
-325,372	-200,000	-0,005	-0,143
-324,358	36,891	-0,028	-0,018
-323,343	82,058	-0,080	0,063
-322,329	-138,434	0,122	0,010
-321,314	-11,665	0,058	-0,028
-320,299	70,853	-0,127	0,096
-319,285	-94,158	-0,138	0,027
-318,270	575,865	-0,016	0,029
-317,256	52,281	-0,032	-0,022
-316,241	-87,474	-0,016	-0,004
-315,226	-111,565	0,172	-0,025
-314,212	577,749	-0,049	-0,089
-313,197	237,986	0,051	0,062
-312,183	-132,259	-0,047	0,004
-311,168	-200,000	0,010	0,094
-310,153	385,373	-0,030	-0,045
-309,139	-81,838	-0,055	0,013
-308,124	-36,897	0,098	-0,038
-307,110	-128,311	0,131	0,013
-306,095	-132,594	0,100	-0,009
-305,080	212,310	0,107	0,123
-304,066	800,000	-0,030	0,089
-303,051	791,688	-0,079	-0,160
-302,037	25,110	0,081	0,049
-301,022	-81,913	0,046	0,011
-300,008	-200,000	0,026	0,141
-298,993	800,000	-0,036	0,081
-297,978	-200,000	-0,003	0,167
-296,964	258,925	-0,014	-0,018
-295,949	-200,000	-0,014	-0,072
-294,935	196,880	0,050	-0,056
-293,920	-200,000	0,009	-0,113
-292,905	314,144	-0,060	0,082
-291,891	299,216	0,051	0,069
-290,876	-4,068	-0,144	-0,073
-289,862	-56,689	-0,068	-0,022
-288,847	390,089	-0,081	0,123
-287,832	-68,881	-0,051	-0,014
-286,818	-200,000	0,024	0,077
-285,803	268,021	0,093	-0,120
-284,789	259,417	0,040	-0,051
-283,774	800,000	0,028	0,087
-282,759	-200,000	0,004	0,023
-281,745	220,910	0,062	-0,072
-280,730	83,001	-0,033	0,026
-279,716	65,290	-0,075	0,055
-278,701	75,440	0,158	0,122
-277,686	142,162	0,080	0,077
-276,672	-73,731	0,104	0,027
-275,657	-11,036	0,027	0,013
-274,643	-200,000	-0,002	0,026
-273,628	-110,380	0,079	0,012
-272,613	800,000	0,038	0,104
-271,599	800,000	-0,012	0,031
-270,584	125,081	0,113	-0,104
-269,570	-121,875	0,134	-0,016
-268,555	648,128	0,016	0,030
-267,540	-48,100	-0,086	-0,030
-266,526	-72,470	0,019	0,005
-265,511	76,006	-0,073	0,056
-264,497	-12,138	-0,075	0,036
-263,482	115,361	-0,029	-0,026
-262,467	-35,173	0,107	-0,042
-261,453	475,271	-0,089	0,147
-260,438	0,584	-0,047	-0,024
-259,424	50,451	0,071	-0,049
-258,409	118,380	-0,010	0,009
-257,395	91,010	0,072	0,059
-256,380	-200,000	-0,004	-0,031
-255,365	800,000	-0,008	0,016
-254,351	-33,184	0,145	-0,058
-253,336	682,320	-0,023	0,045
-252,322	120,740	-0,080	-0,073
-251,307	-130,514	-0,157	-0,015
-250,292	369,275	0,079	-0,118
-249,278	-101,056	0,046	-0,008
-248,263	-200,000	-0,015	0,090
-247,249	-66,816	-0,050	0,014
-246,234	-0,617	-0,132	0,068
-245,219	-200,000	0,019	0,077
-244,205	-65,653	0,162	-0,047
-243,190	800,000	-0,053	-0,153
-242,176	-62,502	0,091	0,027
-241,161	800,000	0,031	-0,080
-240,146	800,000	-0,015	0,038
-239,132	671,922	0,027	-0,052
-238,117	800,000	-0,050	-0,155
-237,103	99,222	-0,030	-0,025
-236,088	-200,000	0,000	-0,012
-235,073	-118,949	-0,031	0,004
-234,059	800,000	0,015	-0,040
-233,044	88,544	0,106	0,086
-232,030	11,126	0,131	-0,073
-231,015	581,874	0,022	-0,039
-230,000	-34,992	-0,118	-0,047
-228,986	800,000	0,042	-0,093
-227,971	112,622	0,152	-0,134
-226,957	-200,000	0,001	-0,013
-225,942	-74,793	-0,070	0,018
-224,927	-200,000	-0,011	-0,112
-223,913	800,000	-0,043	-0,091
-222,898	800,000	0,010	-0,025
-221,884	-200,000	-0,008	0,081
-220,869	800,000	0,047	0,100
-219,855	-200,000	0,016	0,056
-218,840	800,000	0,069	0,167
-217,825	800,000	0,023	0,053
-216,811	-146,715	0,084	-0,005
-215,796	5,469	-0,038	0,020
-214,782	-51,183	-0,075	0,025
-213,767	179,966	-0,080	-0,085
-212,752	-51,485	-0,155	0,053
-211,738	41,471	-0,027	-0,018
-210,723	770,906	0,049	-0,098
-209,709	152,331	0,046	-0,045
-208,694	-200,000	-0,034	-0,123
-207,679	-200,000	0,010	-0,081
-206,665	-61,686	0,087	0,027
-205,650	-200,000	-0,039	0,164
-204,636	-157,841	-0,060	-0,003
-203,621	108,529	0,098	0,085
-202,606	-49,682	0,053	0,018
-201,592	22,270	-0,025	0,015
-200,577	-57,061	-0,064	-0,021
-199,563	381,784	0,049	0,073
-198,548	-66,122	0,135	0,039
-197,533	-200,000	0,000	0,128
-196,519	529,872	-0,053	0,092
-195,504	349,720	0,046	0,066
-194,490	800,000	-0,029	-0,067
-193,475	342,948	-0,068	-0,098
-192,460	-200,000	-0,080	0,000
-191,446	104,934	0,117	-0,101
-190,431	123,545	0,058	0,053
-189,417	-128,745	0,061	0,006
-188,402	192,762	0,053	-0,058
-187,387	-200,000	0,001	-0,012
-186,373	800,000	-0,017	0,053
-185,358	-155,820	0,162	0,007
-184,344	-112,660	0,023	0,003
-183,329	-109,506	0,075	-0,011
-182,315	-200,000	0,002	0,038
-181,300	238,800	-0,072	0,087
-180,285	54,881	-0,120	-0,084
-179,271	-101,083	0,112	-0,020
-178,256	-200,000	0,008	-0,079
-177,242	-148,459	-0,058	0,003
-176,227	-122,180	-0,032	-0,004
-175,212	520,439	0,028	0,048
-174,198	-37,039	-0,084	-0,032
-173,183	800,000	-0,074	-0,198
-172,169	390,434	-0,084	-0,127
-171,154	-88,548	0,013	-0,003
-170,139	-29,557	-0,113	0,047
-169,125	103,301	0,021	0,018
-168,110	-200,000	-0,021	0,086
-167,096	277,925	0,065	-0,084
-166,081	45,119	0,064	-0,043
-165,066	616,354	0,030	-0,055
-164,052	200,012	-0,052	-0,058
-163,037	738,557	-0,069	0,134
-162,023	-66,727	0,071	-0,020
-161,008	800,000	-0,070	0,180
-159,993	376,932	-0,049	0,073
-158,979	403,611	-0,009	0,014
-157,964	346,187	-0,080	-0,115
-156,950	279,488	0,051	-0,066
-155,935	-37,434	0,048	-0,019
-154,920	446,031	0,046	-0,073
-153,906	28,786	0,070	0,043
-152,891	86,893	-0,058	-0,047
-151,877	800,000	-0,031	-0,071
-150,862	-142,176	-0,043	-0,003
-149,847	-200,000	0,002	0,030
-148,833	399,882	-0,070	-0,107
-147,818	-143,154	-0,041	-0,003
-146,804	-127,359	0,058	0,006
-145,789	202,925	0,034	0,039
-144,775	-200,000	-0,017	-0,111
-143,760	-200,000	-0,022	-0,127
-142,745	462,220	0,053	-0,087
-141,731	-200,000	0,013	-0,078
-140,716	168,216	-0,043	0,045
-139,702	-119,396	-0,167	0,021
-138,687	-200,000	-0,009	-0,101
-137,672	-193,000	-0,059	-0,000
-136,658	-200,000	0,013	-0,058
-135,643	364,347	-0,075	-0,110
-134,629	-34,894	0,031	0,012
-133,614	800,000	0,106	-0,227
-132,599	-200,000	0,006	0,086
-131,585	-10,242	0,041	0,020
-130,570	-200,000	0,001	-0,039
-129,556	-90,143	-0,161	-0,034
-128,541	63,283	-0,046	-0,034
-127,526	-200,000	0,020	-0,118
-126,512	800,000	-0,036	-0,076
-125,497	-120,207	0,091	-0,011
-124,483	-163,208	-0,068	-0,002
-123,468	-200,000	0,013	0,073
-122,453	800,000	-0,006	0,012
-121,439	268,449	-0,047	-0,059
-120,424	503,695	0,048	-0,081
-119,410	-200,000	0,008	0,083
-118,395	-66,221	0,045	-0,013
-117,380	800,000	0,022	0,068
-116,366	62,598	-0,043	-0,031
-115,351	173,399	-0,010	0,011
-114,337	364,459	-0,080	-0,117
-113,322	-15,790	0,088	0,040
-112,307	-148,343	0,119	-0,007
-111,293	-200,000	-0,043	0,178
-110,278	6,130	-0,017	-0,009
-109,264	-200,000	-0,016	0,145
-108,249	272,290	-0,059	0,076
-107,234	-7,634	0,020	-0,010
-106,220	-200,000	0,014	-0,133
-105,205	75,705	-0,149	-0,114
-104,191	-200,000	0,042	0,196
-103,176	137,311	0,052	0,050
-102,162	171,522	-0,107	0,112
-101,147	115,597	-0,058	-0,051
-100,132	-34,688	-0,159	-0,063
-99,118	204,384	0,075	-0,084
-98,103	472,087	-0,040	0,065
-97,089	-74,809	0,156	-0,040
-96,074	-200,000	0,003	-0,090
-95,059	46,275	0,094	-0,063
-94,045	-3,025	-0,080	-0,040
-93,030	162,905	0,047	-0,048
-92,016	587,983	-0,013	-0,024
-91,001	800,000	0,036	-0,109
-89,986	370,910	0,113	0,166
-88,972	800,000	0,047	0,130
-87,957	11,024	-0,051	-0,028
-86,943	168,769	-0,068	-0,070
-85,928	800,000	0,057	-0,150
-84,913	-145,293	-0,063	-0,004
-83,899	228,857	0,016	-0,019
-82,884	-23,690	0,024	0,010
-81,870	800,000	-0,028	0,078
-80,855	-200,000	-0,039	0,168
-79,840	-38,814	-0,142	-0,054
-78,826	432,701	-0,071	-0,112
-77,811	-200,000	0,025	-0,195
-76,797	38,035	0,029	-0,019
-75,782	-200,000	0,021	0,085
-74,767	177,357	-0,037	-0,040
-73,753	-87,280	0,055	-0,012
-72,738	-200,000	0,018	0,146
-71,724	45,773	-0,082	-0,055
-70,709	143,351	0,079	-0,076
-69,694	14,401	-0,114	-0,064
-68,680	800,000	0,049	0,145
-67,665	117,704	-0,059	0,052
-66,651	265,174	0,038	0,048
-65,636	-50,868	-0,049	-0,017
-64,622	800,000	-0,014	0,032
-63,607	800,000	-0,051	-0,146
-62,592	-200,000	0,034	-0,199
-61,578	-168,287	-0,089	-0,002
-60,563	-155,948	-0,047	-0,002
-59,549	-200,000	-0,008	-0,063
-58,534	-86,099	-1,463	-0,324
-57,519	570,448	-0,769	-1,361
-56,505	-200,000	-0,896	-4,500
-55,490	-60,709	0,626	-0,191
-54,476	800,000	4,961	12,032
-53,461	-200,000	14,464	257,428
-52,446	-200,000	696,792	2232,297
-51,432	564,697	1623,790	2860,532
-50,417	117,199	1630,546	1450,763
-49,403	74,080	1284,567	975,066
-48,388	37,378	1022,640	654,922
-47,373	23,333	981,623	582,533
-46,359	22,522	970,970	573,532
-45,344	21,443	966,726	567,484
-44,330	21,495	964,968	566,598
-43,315	21,271	963,633	565,062
-42,300	21,221	962,793	564,385
-41,286	21,274	961,627	563,851
-40,271	21,306	960,583	563,320
-39,257	21,152	959,964	562,437
-38,242	21,226	958,701	561,914
-37,227	21,193	957,946	561,344
-36,213	21,224	956,896	560,806
-35,198	21,140	956,233	560,121
-34,184	21,200	955,537	559,886
-33,169	21,141	954,621	559,139
-32,154	21,184	953,939	558,854
-31,140	21,281	952,937	558,557
-30,125	21,226	952,096	557,867
-29,111	21,298	951,217	557,560
-28,096	21,216	950,654	556,944
-27,082	21,214	950,016	556,543
-26,067	21,276	949,013	556,131
-25,052	21,270	948,374	555,716
-24,038	21,241	947,795	555,260
-23,023	21,216	947,170	554,793
-22,009	21,259	946,550	554,544
-20,994	21,253	945,940	554,148
-19,979	21,292	945,316	553,883
-18,965	21,193	944,763	553,222
-17,950	21,239	944,146	552,985
-16,936	21,176	943,457	552,358
-15,921	21,178	942,626	551,858
-14,906	21,062	941,986	551,093
-13,892	21,088	941,269	550,732
-12,877	21,098	940,632	550,370
-11,863	21,059	940,200	549,971
-10,848	21,087	939,725	549,761
-9,833	21,200	939,206	549,793
-8,819	21,174	938,586	549,327
-7,804	21,101	937,812	548,620
-6,790	21,119	937,295	548,353
-5,775	21,145	936,642	548,031
-4,760	21,083	936,188	547,547
-3,746	21,097	935,481	547,157
-2,731	20,945	934,943	546,343
-1,717	20,888	934,138	545,672
-0,702	20,939	933,306	545,325
0,313	20,780	932,615	545,242
1,327	23,750	930,746	553,424
2,342	32,951	794,124	496,621
3,356	30,515	451,192	278,469
4,371	0,426	295,202	152,047
5,386	-4,098	276,492	138,094
6,400	-5,175	270,737	134,204
7,415	-5,377	268,265	132,779
8,429	-5,240	267,012	132,273
9,444	-5,289	266,234	131,832
10,459	-5,514	265,549	131,274
11,473	-5,485	265,046	131,041
12,488	-5,337	264,491	130,890
13,502	-5,587	263,842	130,329
14,517	-5,545	263,417	130,146
15,531	-5,410	263,141	130,120
16,546	-5,591	262,680	129,717
17,561	-5,665	262,308	129,455
18,575	-5,454	261,938	129,451
19,590	-5,624	261,559	129,100
20,604	-5,685	261,569	129,037
21,619	-5,625	261,047	128,823
22,634	-5,602	260,832	128,726
23,648	-5,692	260,358	128,400
24,663	-5,426	260,106	128,502
25,677	-5,692	260,102	128,250
26,692	-5,685	259,708	128,051
27,707	-5,817	259,552	127,845
28,721	-5,635	259,117	127,781
29,736	-5,652	258,917	127,656
30,750	-5,681	258,533	127,430
31,765	-5,621	258,184	127,300
32,780	-5,627	258,146	127,264
33,794	-5,849	258,084	127,025
34,809	-5,904	257,725	126,789
35,823	-5,747	257,455	126,784
36,838	-5,825	257,166	126,561
37,853	-5,705	256,872	126,511
38,867	-5,578	256,845	126,598
39,882	-5,837	256,662	126,268
40,896	-5,715	256,201	126,138
41,911	-5,751	255,978	125,985
42,926	-5,853	255,849	125,820
43,940	-5,861	255,654	125,706
44,955	-5,760	255,408	125,663
45,969	-5,804	255,282	125,551
46,984	-6,132	254,942	125,086
47,999	-6,119	254,555	124,896
49,013	-6,315	254,403	124,639
50,028	-6,301	254,098	124,490
51,042	-6,511	253,896	124,197
52,057	-6,518	253,713	124,091
53,071	-6,289	253,422	124,137
54,086	-6,288	253,203	124,020
55,101	-6,090	253,117	124,138
56,115	-6,040	252,949	124,088
57,130	-5,457	252,800	124,510
58,144	-5,560	252,771	124,395
59,159	-5,375	252,575	124,448
60,174	-5,370	252,311	124,311
61,188	-5,660	252,133	123,961
62,203	-5,697	252,056	123,880
63,217	-5,639	251,555	123,673
64,232	-5,520	251,410	123,693
65,247	-5,510	251,173	123,574
66,261	-5,522	250,977	123,456
67,276	-5,643	250,676	123,194
68,290	-5,759	250,391	122,943
69,305	-6,176	250,430	122,593
70,320	-5,876	250,161	122,708
71,334	-5,695	249,997	122,772
72,349	-5,482	249,814	122,853
73,363	-5,525	249,567	122,684
74,378	-5,582	249,402	122,543
75,393	-5,596	249,192	122,417
76,407	-5,715	249,002	122,211
77,422	-5,779	248,910	122,101
78,436	-5,573	248,619	122,122
79,451	-5,572	248,415	122,013
80,466	-5,365	247,937	121,942
81,480	-5,865	247,810	121,445
82,495	-5,930	247,739	121,344
83,509	-5,884	247,596	121,302
84,524	-5,693	247,249	121,283
85,539	-5,924	247,025	120,967
86,553	-5,939	246,870	120,867
87,568	-5,918	246,811	120,845
88,582	-5,874	246,545	120,741
89,597	-6,001	246,393	120,550
90,611	-5,802	246,220	120,622
91,626	-5,681	246,177	120,692
92,641	-5,568	245,929	120,655
93,655	-5,856	245,689	120,284
94,670	-5,690	245,418	120,280
95,684	-5,856	245,328	120,085
96,699	-5,735	245,145	120,087
97,714	-5,907	244,865	119,795
98,728	-5,819	244,634	119,745
99,743	-5,870	244,444	119,599
100,757	-6,025	244,349	119,412
101,772	-5,856	243,993	119,368
102,787	-5,675	243,936	119,480
103,801	-5,861	243,808	119,253
104,816	-5,752	243,747	119,303
105,830	-5,623	243,518	119,287
106,845	-5,777	243,411	119,096
107,860	-5,782	243,133	118,946
108,874	-5,765	242,991	118,879
109,889	-5,603	242,564	118,795
110,903	-5,750	242,556	118,657
111,918	-5,697	242,407	118,619
112,933	-5,651	242,295	118,591
113,947	-5,744	242,105	118,410
114,962	-5,720	241,964	118,351
115,976	-5,546	241,730	118,369
116,991	-5,585	241,528	118,227
118,006	-5,601	241,332	118,108
119,020	-5,704	241,394	118,042
120,035	-5,587	241,088	117,979
121,049	-5,404	240,938	118,046
122,064	-5,734	240,730	117,662
123,079	-5,644	240,536	117,631
124,093	-5,697	240,312	117,467
125,108	-5,868	240,143	117,234
126,122	-5,843	239,865	117,108
127,137	-6,256	239,797	116,727
128,151	-6,113	239,576	116,726
129,166	-5,984	239,375	116,723
130,181	-5,817	239,140	116,734
131,195	-6,001	238,928	116,470
132,210	-5,833	238,928	116,597
133,224	-5,966	238,895	116,462
134,239	-5,738	238,616	116,501
135,254	-5,673	238,377	116,426
136,268	-5,797	238,152	116,205
137,283	-6,029	237,839	115,854
138,297	-6,006	237,701	115,796
139,312	-6,007	237,489	115,681
140,327	-6,008	237,598	115,723
141,341	-5,346	237,422	116,162
142,356	-5,333	237,267	116,087
143,370	-5,357	237,108	115,979
144,385	-5,259	236,925	115,958
145,400	-5,269	236,696	115,828
146,414	-5,237	236,585	115,789
147,429	-5,481	236,397	115,491
148,443	-5,509	236,139	115,331
149,458	-5,437	236,185	115,402
150,473	-5,399	235,874	115,270
151,487	-5,318	235,593	115,187
152,502	-5,353	235,505	115,106
153,516	-5,308	235,387	115,074
154,531	-5,439	235,274	114,904
155,546	-5,464	235,149	114,813
156,560	-5,613	234,835	114,530
157,575	-5,430	234,707	114,604
158,589	-5,269	234,413	114,578
159,604	-5,317	234,391	114,518
160,619	-5,218	234,241	114,514
161,633	-5,242	234,136	114,433
162,648	-5,038	233,756	114,399
163,662	-5,435	233,826	114,108
164,677	-5,405	233,503	113,963
165,692	-5,260	233,508	114,071
166,706	-5,133	233,371	114,095
167,721	-5,169	233,156	113,951
168,735	-5,239	233,071	113,844
169,750	-5,378	233,026	113,702
170,764	-5,319	232,737	113,597
171,779	-5,281	232,655	113,577
172,794	-5,110	232,364	113,560
173,808	-5,291	232,119	113,287
174,823	-5,813	231,899	112,759
175,837	-5,952	231,650	112,518
176,852	-5,587	231,695	112,817
177,867	-5,463	231,568	112,843
178,881	-5,523	231,498	112,751
179,896	-5,096	231,255	112,958
180,910	-5,539	231,206	112,576
181,925	-5,409	230,945	112,542
182,940	-5,186	230,718	112,595
183,954	-5,292	230,624	112,456
184,969	-5,239	230,544	112,449
185,983	-5,204	230,457	112,424
186,998	-5,169	230,345	112,386
188,013	-5,083	230,078	112,313
189,027	-5,055	229,893	112,235
190,042	-5,031	229,660	112,130
191,056	-4,808	229,555	112,242
192,071	-5,000	229,415	112,014
193,086	-5,112	229,320	111,871
194,100	-5,170	229,058	111,688
195,115	-5,251	228,828	111,503
196,129	-5,629	228,620	111,098
197,144	-2,873	229,495	113,656
198,159	1,472	230,774	117,668
199,173	3,645	231,325	119,633
200,188	3,889	231,140	119,718
201,202	3,882	231,189	119,727
202,217	3,912	231,067	119,677
203,232	4,236	230,839	119,800
204,246	4,532	230,622	119,906
205,261	4,456	230,566	119,806
206,275	4,520	230,444	119,782
207,290	4,337	230,514	119,666
208,304	4,304	230,244	119,490
209,319	4,330	230,002	119,374
210,334	4,315	229,967	119,333
211,348	4,201	229,740	119,117
212,363	3,880	229,345	118,653
213,377	3,535	229,195	118,300
214,392	3,606	228,818	118,149
215,407	3,778	228,887	118,307
216,421	3,840	228,678	118,236
217,436	3,794	228,373	118,032
218,450	3,482	228,233	117,709
219,465	3,479	228,066	117,611
220,480	3,565	228,083	117,675
221,494	3,398	228,045	117,517
222,509	3,629	227,780	117,546
223,523	3,723	227,501	117,464
224,538	3,653	227,367	117,331
225,553	3,527	227,320	117,200
226,567	3,789	227,159	117,307
227,582	3,964	227,111	117,404
228,596	3,890	227,023	117,293
229,611	3,714	226,804	117,035
230,626	3,369	226,530	116,620
231,640	3,589	226,466	116,744
232,655	3,738	226,475	116,852
233,669	4,398	226,288	117,247
234,684	4,417	225,998	117,100
235,699	4,139	225,934	116,846
236,713	3,853	225,754	116,526
237,728	3,636	225,740	116,343
238,742	3,483	225,353	116,018
239,757	3,651	225,298	116,106
240,772	3,771	225,077	116,072
241,786	3,685	224,993	115,954
242,801	3,784	224,842	115,940
243,815	4,246	224,795	116,255
244,830	4,268	224,632	116,176
245,844	3,933	224,365	115,776
246,859	3,504	224,351	115,435
247,874	3,854	224,210	115,616
248,888	3,961	224,078	115,618
249,903	3,916	223,841	115,451
250,917	3,472	223,815	115,094
251,932	3,517	223,567	114,990
252,947	3,384	223,331	114,759
253,961	3,545	223,160	114,781
254,976	3,899	223,034	114,971
255,990	3,667	223,025	114,782
257,005	3,793	222,789	114,745
258,020	3,795	222,787	114,735
259,034	4,121	222,550	114,846
260,049	3,882	222,501	114,632
261,063	3,857	222,452	114,579
262,078	4,150	222,066	114,587
263,093	4,346	222,047	114,713
264,107	3,907	221,923	114,312
265,122	3,924	221,788	114,246
266,136	3,980	221,836	114,302
267,151	4,319	221,482	114,360
268,166	3,771	221,291	113,846
269,180	3,354	221,080	113,418
270,195	3,474	220,830	113,368
271,209	3,567	220,792	113,408
272,224	3,689	220,712	113,447
273,239	3,870	220,498	113,460
274,253	3,612	220,308	113,162
275,268	3,485	220,211	113,008
276,282	3,291	220,075	112,786
277,297	3,399	219,825	112,726
278,312	3,402	219,787	112,700
279,326	3,623	219,624	112,768
280,341	3,687	219,560	112,773
281,355	3,781	219,502	112,802
282,370	3,539	219,286	112,503
283,384	3,438	218,941	112,242
284,399	2,927	218,966	111,871
285,414	3,330	218,637	111,987
286,428	3,655	218,632	112,212
287,443	3,790	218,622	112,296
288,457	3,823	218,464	112,228
289,472	3,709	218,295	112,049
290,487	3,565	218,002	111,783
291,501	3,225	217,743	111,393
292,516	3,319	217,826	111,494
293,530	3,571	217,660	111,583
294,545	3,379	217,521	111,362
295,560	3,489	217,387	111,363
296,574	3,644	217,264	111,402
297,589	3,743	217,182	111,423
298,603	3,709	217,016	111,303
299,618	3,691	216,839	111,189
300,633	3,585	216,746	111,054
301,647	3,859	216,894	111,319
302,662	4,049	216,588	111,289
303,676	3,895	216,451	111,098
304,691	3,825	216,370	110,996
305,706	4,064	216,110	111,025
306,720	4,119	215,926	110,960
307,735	3,801	215,690	110,600
308,749	3,649	215,643	110,457
309,764	3,711	215,579	110,459
310,779	4,225	215,397	110,725
311,793	3,743	215,288	110,312
312,808	3,864	215,061	110,273
313,822	3,732	214,890	110,081
314,837	4,048	214,649	110,174
315,852	3,565	214,597	109,792
316,866	3,664	214,592	109,851
317,881	3,817	214,321	109,811
318,895	3,788	214,224	109,732
319,910	3,759	214,241	109,709
320,925	3,465	213,939	109,335
321,939	3,404	213,669	109,144
322,954	3,321	213,554	109,017
323,968	3,748	213,612	109,340
324,983	3,853	213,607	109,403
325,997	4,179	213,293	109,464
327,012	3,947	213,265	109,275
328,027	3,820	213,217	109,150
329,041	4,063	213,011	109,207
330,056	3,922	212,863	109,022
331,070	3,480	212,642	108,586
332,085	3,373	212,371	108,362
333,100	3,453	212,301	108,374
334,114	3,846	212,301	108,642
335,129	3,594	212,081	108,341
336,143	3,693	211,999	108,360
337,158	3,412	211,794	108,047
338,173	3,479	211,728	108,051
339,187	3,518	211,498	107,952
340,202	3,345	211,310	107,724
341,216	3,339	211,123	107,615
342,231	3,510	211,141	107,735
343,246	3,296	210,976	107,491
344,260	3,774	210,785	107,719
345,275	3,432	210,792	107,473
346,289	3,506	210,802	107,521
347,304	3,908	210,427	107,602
348,319	3,819	210,328	107,479
349,333	3,835	210,202	107,416
350,348	3,716	209,985	107,212
351,362	4,044	209,856	107,366
352,377	3,773	209,849	107,163
353,392	3,710	209,727	107,048
354,406	3,809	209,628	107,057
355,421	194,471	1345,247	1432,474
356,435	155,224	1483,695	1432,565
