DTS Sentinel unit serial number:	SN410029Multiplexer serial number:	ORYXHardware model number:	OX2-SRSoftware version number:	ORYX F/W v4,00 Oryx Data Collector v3.7.2.0data status	okinstallation	B6 Nyhavnadifferential loss correction	single-endedforward channel	channel 2reverse channel	N/Adate	2023/12/07time	10:30:08forward acquisition time	300,00reverse acquisition time	0,00gamma	499,1914k internal	0,3205k external	0,3205temperature offset calibration	1,0000default loss term (dB/km)	0,3820temperature slope calibration	1,0000multiplexer offset coefficient	1,0000multiplexer slope coefficient	1,0000fibre end	0,00T internal ref (°C)	6,99T ext. ref 1 (°C)	-7,08T ext. ref 2 (°C)	-7,12length (m)	temperature (°C)	Stokes	anti-Stokes-744,400	14,070	0,205	0,116
-743,385	11,564	-0,318	-0,176
-742,371	-81,468	0,255	0,060
-741,356	-52,305	-0,434	-0,145
-740,342	-84,996	0,310	0,070
-739,327	-61,602	-0,316	-0,096
-738,312	-96,718	0,148	0,028
-737,298	-20,701	-0,441	-0,196
-736,283	-9,867	0,156	0,075
-735,269	-84,396	-0,332	-0,076
-734,254	-22,723	0,231	0,101
-733,239	11,431	-0,527	-0,293
-732,225	-51,976	0,192	0,065
-731,210	29,905	-0,061	0,038
-730,196	-81,072	0,056	0,013
-729,181	-65,810	0,104	-0,030
-728,167	8,290	0,057	0,031
-727,152	-42,503	-0,067	0,025
-726,137	800,000	-0,054	-0,168
-725,123	-200,000	0,005	-0,047
-724,108	68,161	-0,056	0,042
-723,094	800,000	-0,021	0,044
-722,079	-45,349	-0,050	-0,018
-721,064	-0,890	0,067	-0,035
-720,050	-200,000	-0,038	0,121
-719,035	89,529	0,051	-0,041
-718,021	-77,383	-0,070	0,017
-717,006	204,888	-0,126	-0,142
-715,991	369,372	-0,104	-0,154
-714,977	195,373	-0,048	-0,053
-713,962	-200,000	-0,001	0,034
-712,948	800,000	0,039	-0,106
-711,933	96,632	0,086	0,072
-710,918	160,472	0,054	0,055
-709,904	-66,591	0,074	-0,021
-708,889	-200,000	0,002	-0,097
-707,875	367,411	-0,045	-0,067
-706,860	-200,000	-0,005	0,035
-705,845	-200,000	-0,003	0,053
-704,831	-200,000	-0,014	-0,046
-703,816	84,715	-0,106	0,084
-702,802	-147,698	0,149	-0,009
-701,787	-130,939	-0,134	0,013
-700,772	-80,610	-0,104	0,025
-699,758	156,351	0,029	0,029
-698,743	-200,000	0,007	0,110
-697,729	-91,682	-0,133	0,027
-696,714	117,307	-0,086	0,077
-695,699	800,000	-0,030	-0,061
-694,685	-200,000	0,002	-0,044
-693,670	-200,000	0,007	0,026
-692,656	-52,898	0,044	-0,015
-691,641	-13,730	-0,015	0,007
-690,627	800,000	-0,071	-0,147
-689,612	-200,000	-0,001	0,014
-688,597	632,429	0,034	0,063
-687,583	72,003	0,085	-0,064
-686,568	-106,523	-0,148	0,024
-685,554	-68,715	-0,135	0,038
-684,539	610,537	-0,019	-0,035
-683,524	-200,000	0,015	-0,050
-682,510	-153,593	-0,038	0,002
-681,495	800,000	0,020	-0,057
-680,481	-200,000	0,015	-0,103
-679,466	472,110	-0,095	-0,156
-678,451	-3,068	-0,103	-0,052
-677,437	-109,087	0,116	0,018
-676,422	-97,979	-0,072	0,013
-675,408	-80,028	0,097	-0,023
-674,393	-123,995	0,067	0,008
-673,378	-200,000	-0,021	-0,135
-672,364	452,059	0,035	0,056
-671,349	171,970	-0,089	-0,093
-670,335	-27,999	0,090	0,037
-669,320	800,000	-0,031	-0,085
-668,305	327,585	0,036	0,050
-667,291	392,751	-0,043	0,065
-666,276	552,362	-0,006	0,010
-665,262	-48,571	0,038	-0,013
-664,247	153,270	-0,110	-0,110
-663,232	28,161	-0,040	0,024
-662,218	784,760	0,078	0,155
-661,203	-0,766	0,069	0,035
-660,189	-200,000	-0,007	0,079
-659,174	-200,000	0,009	0,047
-658,159	253,206	0,061	0,075
-657,145	-82,584	-0,033	-0,008
-656,130	-39,901	-0,041	-0,015
-655,116	-84,347	0,089	-0,020
-654,101	78,672	-0,087	-0,067
-653,086	-200,000	0,034	-0,134
-652,072	52,355	0,042	-0,029
-651,057	-37,620	-0,118	0,045
-650,043	-153,278	-0,074	0,004
-649,028	-150,456	0,158	-0,009
-648,014	800,000	-0,032	0,091
-646,999	-200,000	-0,019	0,064
-645,984	-200,000	-0,002	-0,089
-644,970	532,179	-0,029	0,050
-643,955	-23,502	-0,059	0,026
-642,941	-200,000	0,003	0,081
-641,926	-200,000	0,014	0,068
-640,911	-200,000	-0,003	-0,026
-639,897	13,990	-0,038	0,021
-638,882	-200,000	0,027	0,088
-637,868	800,000	-0,041	0,082
-636,853	-136,021	-0,183	0,015
-635,838	-200,000	-0,006	0,075
-634,824	-200,000	0,002	0,015
-633,809	-200,000	-0,027	0,085
-632,795	330,722	-0,034	0,048
-631,780	425,493	0,048	0,075
-630,765	-13,029	-0,137	-0,064
-629,751	-188,420	0,062	0,001
-628,736	-74,331	-0,098	0,025
-627,722	-200,000	-0,033	0,124
-626,707	-31,566	0,047	-0,019
-625,692	-101,931	0,109	-0,019
-624,678	10,804	0,081	-0,045
-623,663	87,040	-0,070	0,056
-622,649	-200,000	0,004	0,033
-621,634	-200,000	-0,029	-0,105
-620,619	800,000	-0,028	-0,064
-619,605	-200,000	0,012	0,101
-618,590	134,220	-0,107	0,100
-617,576	102,183	0,040	0,034
-616,561	-110,348	0,037	-0,005
-615,546	-63,187	-0,150	0,044
-614,532	-200,000	-0,010	-0,039
-613,517	-200,000	0,005	0,062
-612,503	-200,000	-0,008	-0,053
-611,488	-200,000	0,005	0,047
-610,474	-200,000	-0,002	0,131
-609,459	96,536	0,073	0,060
-608,444	56,842	-0,134	0,094
-607,430	304,334	-0,132	-0,177
-606,415	800,000	0,035	0,107
-605,401	-60,893	-0,090	0,027
-604,386	81,892	-0,126	0,099
-603,371	7,124	-0,115	0,062
-602,357	-200,000	0,003	0,054
-601,342	392,809	-0,051	0,078
-600,328	-109,918	-0,060	0,009
-599,313	342,610	-0,072	0,102
-598,298	800,000	-0,039	-0,080
-597,284	-200,000	0,004	0,090
-596,269	-25,857	0,186	0,079
-595,255	-11,706	0,088	-0,041
-594,240	-61,925	-0,108	-0,032
-593,225	-111,246	-0,048	-0,007
-592,211	24,524	-0,008	-0,005
-591,196	-139,021	-0,059	-0,005
-590,182	-13,099	0,070	-0,033
-589,167	-79,769	0,081	0,019
-588,152	-95,414	0,080	0,015
-587,138	-200,000	0,024	-0,126
-586,123	-200,000	-0,028	-0,155
-585,109	279,242	-0,078	-0,101
-584,094	653,070	0,021	0,039
-583,079	281,526	-0,018	0,023
-582,065	-141,453	0,051	0,004
-581,050	-200,000	-0,022	-0,074
-580,036	12,176	-0,067	-0,037
-579,021	-200,000	0,011	-0,072
-578,006	-30,024	-0,123	0,050
-576,992	747,994	0,076	0,148
-575,977	-200,000	-0,003	0,122
-574,963	-98,462	-0,174	-0,032
-573,948	-124,372	0,096	-0,011
-572,934	94,010	-0,114	0,093
-571,919	70,571	0,004	0,003
-570,904	223,207	-0,083	0,096
-569,890	413,296	0,022	0,034
-568,875	688,523	0,063	-0,120
-567,861	-30,530	0,060	-0,025
-566,846	126,917	0,190	-0,174
-565,831	-200,000	-0,011	-0,121
-564,817	20,711	0,045	0,026
-563,802	-181,125	-0,148	0,002
-562,788	-186,028	0,126	0,001
-561,773	68,084	0,134	0,099
-560,758	-4,023	-0,050	-0,025
-559,744	42,461	-0,085	-0,055
-558,729	167,879	-0,014	-0,014
-557,715	306,953	0,025	0,034
-556,700	-200,000	-0,000	0,014
-555,685	82,301	-0,062	0,049
-554,671	-200,000	-0,002	0,026
-553,656	-200,000	-0,005	0,074
-552,642	-33,833	0,105	0,042
-551,627	-166,269	0,065	-0,002
-550,612	-200,000	-0,009	-0,062
-549,598	-168,023	-0,044	0,001
-548,583	800,000	-0,057	0,139
-547,569	-141,646	0,095	0,007
-546,554	-38,155	0,060	0,023
-545,539	41,662	-0,099	-0,065
-544,525	69,225	-0,026	0,019
-543,510	-48,850	-0,046	0,016
-542,496	-70,641	-0,085	-0,023
-541,481	117,522	-0,125	-0,111
-540,466	-200,000	-0,029	-0,120
-539,452	571,062	-0,020	0,034
-538,437	-161,162	0,047	-0,002
-537,423	102,284	-0,126	-0,106
-536,408	28,921	0,041	0,025
-535,393	685,322	0,031	0,058
-534,379	-126,388	0,162	0,017
-533,364	637,980	0,054	0,099
-532,350	620,024	-0,029	0,053
-531,335	-200,000	0,002	-0,022
-530,321	27,317	0,055	-0,033
-529,306	800,000	-0,033	-0,078
-528,291	51,043	0,077	-0,052
-527,277	800,000	-0,049	-0,131
-526,262	75,046	-0,138	0,104
-525,248	-38,236	-0,099	-0,037
-524,233	-56,870	0,106	0,033
-523,218	94,477	-0,050	-0,041
-522,204	74,174	0,085	-0,064
-521,189	-45,992	-0,113	0,040
-520,175	-58,764	0,010	-0,003
-519,160	279,769	-0,082	-0,106
-518,145	-55,921	0,199	0,064
-517,131	-63,394	-0,048	-0,014
-516,116	-32,933	0,140	0,056
-515,102	-200,000	0,026	0,183
-514,087	368,016	-0,015	0,021
-513,072	168,376	0,097	0,099
-512,058	800,000	-0,031	-0,071
-511,043	-37,174	0,123	0,047
-510,029	51,339	-0,019	0,013
-509,014	-200,000	0,007	0,129
-507,999	-20,887	-0,064	-0,028
-506,985	800,000	-0,068	-0,167
-505,970	-200,000	0,015	-0,121
-504,956	1,145	-0,088	0,045
-503,941	259,518	0,073	0,091
-502,926	800,000	-0,014	0,045
-501,912	51,111	0,109	-0,074
-500,897	702,093	0,075	0,142
-499,883	-200,000	-0,011	-0,079
-498,868	-7,196	-0,070	0,034
-497,853	-200,000	-0,004	-0,050
-496,839	141,752	-0,087	-0,083
-495,824	-148,911	0,079	-0,005
-494,810	800,000	0,076	0,237
-493,795	541,970	-0,043	0,075
-492,781	-117,043	0,085	-0,011
-491,766	800,000	-0,015	0,034
-490,751	-200,000	0,009	0,074
-489,737	800,000	0,034	0,092
-488,722	-134,198	-0,037	0,003
-487,708	41,063	0,100	0,065
-486,693	-200,000	-0,004	0,018
-485,678	-72,867	0,083	0,022
-484,664	-28,868	-0,041	0,017
-483,649	-33,350	-0,114	0,045
-482,635	-64,058	0,051	0,015
-481,620	-200,000	-0,002	-0,057
-480,605	74,945	0,088	0,066
-479,591	92,882	-0,031	-0,025
-478,576	4,424	0,108	-0,057
-477,562	-200,000	-0,008	0,028
-476,547	-52,234	-0,120	-0,040
-475,532	-200,000	0,014	0,065
-474,518	-200,000	0,037	0,136
-473,503	414,432	0,034	-0,052
-472,489	-111,963	0,115	-0,017
-471,474	302,773	0,046	-0,062
-470,459	44,587	-0,124	-0,082
-469,445	106,435	-0,075	-0,064
-468,430	-54,848	0,070	-0,023
-467,416	642,379	0,010	-0,019
-466,401	118,649	-0,100	0,088
-465,386	-200,000	0,005	-0,060
-464,372	800,000	-0,069	0,150
-463,357	334,548	0,064	0,089
-462,343	-87,800	-0,111	-0,024
-461,328	800,000	-0,068	-0,201
-460,313	-200,000	0,014	-0,078
-459,299	3,246	0,101	0,053
-458,284	800,000	0,031	0,092
-457,270	-61,747	0,086	-0,026
-456,255	800,000	0,031	-0,072
-455,241	164,946	-0,041	0,042
-454,226	373,172	0,103	0,151
-453,211	800,000	0,059	-0,177
-452,197	-69,070	0,088	-0,024
-451,182	-78,972	0,043	-0,010
-450,168	-200,000	0,014	-0,044
-449,153	-200,000	-0,020	-0,130
-448,138	-105,180	-0,122	-0,020
-447,124	705,173	0,055	0,104
-446,109	-200,000	0,005	0,071
-445,095	-27,153	0,207	0,086
-444,080	231,857	-0,034	-0,040
-443,065	513,576	0,045	0,076
-442,051	-200,000	0,009	0,073
-441,036	-83,101	-0,060	0,014
-440,022	800,000	-0,032	0,097
-439,007	-200,000	0,008	-0,070
-437,992	-74,229	0,016	-0,004
-436,978	140,949	0,078	0,074
-435,963	2,251	0,068	-0,035
-434,949	800,000	0,035	0,073
-433,934	422,781	-0,083	-0,128
-432,919	800,000	-0,044	-0,135
-431,905	-200,000	-0,024	-0,129
-430,890	673,276	-0,045	0,083
-429,876	-83,185	0,087	0,020
-428,861	538,288	0,041	0,071
-427,846	-67,099	-0,199	-0,056
-426,832	-200,000	-0,027	-0,103
-425,817	-171,226	0,083	0,002
-424,803	68,861	-0,089	-0,066
-423,788	257,279	0,071	0,088
-422,773	18,957	0,018	0,010
-421,759	-97,813	0,043	-0,008
-420,744	270,851	0,042	0,053
-419,730	97,995	-0,042	-0,034
-418,715	-26,379	0,075	0,031
-417,701	-200,000	-0,013	0,057
-416,686	-200,000	-0,004	0,046
-415,671	-94,070	0,089	-0,017
-414,657	143,991	-0,058	0,056
-413,642	-16,839	-0,059	0,027
-412,628	123,587	-0,159	-0,143
-411,613	-200,000	0,031	0,103
-410,598	800,000	0,062	0,124
-409,584	0,212	0,148	-0,076
-408,569	-6,828	0,116	-0,056
-407,555	657,238	0,024	-0,044
-406,540	552,183	0,017	-0,029
-405,525	42,003	-0,108	-0,070
-404,511	118,060	-0,045	-0,040
-403,496	651,755	0,038	-0,070
-402,482	-200,000	-0,026	0,117
-401,467	-200,000	0,018	0,142
-400,452	-200,000	0,018	0,113
-399,438	-83,986	-0,029	0,006
-398,423	108,140	0,062	-0,053
-397,409	284,804	-0,056	0,072
-396,394	43,335	-0,112	-0,073
-395,379	800,000	-0,029	-0,067
-394,365	800,000	0,017	-0,050
-393,350	13,064	0,155	0,086
-392,336	-200,000	-0,010	0,058
-391,321	-200,000	-0,013	0,103
-390,306	304,101	-0,031	-0,041
-389,292	130,219	0,014	0,013
-388,277	-167,774	-0,074	-0,002
-387,263	800,000	0,015	0,033
-386,248	-122,609	-0,128	0,015
-385,233	800,000	-0,037	-0,092
-384,219	-200,000	-0,004	-0,079
-383,204	3,530	0,044	-0,023
-382,190	-200,000	-0,003	-0,108
-381,175	105,734	0,067	-0,057
-380,160	354,626	-0,016	-0,023
-379,146	-74,427	0,088	0,022
-378,131	-135,226	-0,023	0,002
-377,117	16,816	-0,050	-0,028
-376,102	-200,000	0,018	-0,129
-375,088	260,374	-0,069	-0,085
-374,073	800,000	0,034	0,098
-373,058	-134,284	0,125	0,011
-372,044	-200,000	-0,000	0,142
-371,029	-112,226	0,134	0,019
-370,015	-200,000	-0,001	-0,035
-369,000	-114,871	-0,215	0,029
-367,985	800,000	-0,019	0,053
-366,971	-44,976	0,051	0,018
-365,956	-128,044	0,087	-0,009
-364,942	-88,631	-0,028	0,006
-363,927	-42,039	0,085	-0,031
-362,912	800,000	0,035	-0,102
-361,898	800,000	-0,014	-0,036
-360,883	192,320	-0,067	0,072
-359,869	800,000	0,032	-0,083
-358,854	36,228	-0,064	0,041
-357,839	126,653	0,118	0,107
-356,825	-135,882	-0,082	0,007
-355,810	188,808	-0,037	-0,039
-354,796	-200,000	0,012	0,059
-353,781	-42,247	0,029	-0,010
-352,766	-68,702	0,013	-0,003
-351,752	494,969	0,023	-0,037
-350,737	36,071	0,047	0,030
-349,723	-141,661	0,099	-0,007
-348,708	-77,351	-0,040	-0,010
-347,693	-200,000	-0,006	-0,139
-346,679	-200,000	-0,001	-0,062
-345,664	797,921	-0,028	0,055
-344,650	64,672	0,092	-0,066
-343,635	445,167	0,039	-0,062
-342,620	-61,136	0,069	0,021
-341,606	37,970	0,065	0,041
-340,591	800,000	-0,047	-0,122
-339,577	-128,038	0,129	-0,013
-338,562	150,873	-0,045	-0,044
-337,548	-122,051	0,106	0,012
-336,533	697,368	0,086	0,162
-335,518	-200,000	0,001	0,015
-334,504	-200,000	0,014	-0,070
-333,489	22,078	-0,056	-0,032
-332,475	-42,223	-0,135	0,049
-331,460	-55,984	0,073	0,023
-330,445	-200,000	0,021	-0,092
-329,431	-88,550	-0,074	-0,016
-328,416	667,144	0,027	-0,050
-327,402	-152,996	-0,053	0,003
-326,387	800,000	0,059	0,129
-325,372	800,000	-0,034	0,098
-324,358	-200,000	0,013	-0,143
-323,343	120,327	0,023	-0,020
-322,329	-10,645	0,087	0,041
-321,314	-200,000	-0,003	-0,054
-320,299	-200,000	0,008	-0,047
-319,285	800,000	-0,015	0,034
-318,270	462,249	0,048	-0,077
-317,256	6,229	-0,117	-0,062
-316,241	31,324	0,037	-0,023
-315,226	145,204	-0,056	-0,053
-314,212	800,000	0,076	0,163
-313,197	-113,037	0,071	-0,010
-312,183	-60,213	0,078	-0,024
-311,168	385,885	-0,066	-0,098
-310,153	800,000	0,013	-0,036
-309,139	571,086	-0,027	-0,047
-308,124	-200,000	0,001	-0,087
-307,110	217,391	0,051	0,059
-306,095	-200,000	-0,028	-0,161
-305,080	-200,000	0,008	-0,036
-304,066	800,000	-0,057	-0,137
-303,051	650,966	-0,052	-0,095
-302,037	774,291	0,075	-0,147
-301,022	-37,452	0,101	0,038
-300,008	800,000	-0,002	0,007
-298,993	19,065	-0,045	0,026
-297,978	402,588	0,127	-0,191
-296,964	800,000	-0,033	-0,079
-295,949	42,242	0,052	0,034
-294,935	800,000	0,039	0,096
-293,920	-200,000	0,005	-0,143
-292,905	-200,000	0,004	-0,030
-291,891	116,731	0,103	0,090
-290,876	-107,323	-0,189	0,029
-289,862	-67,638	0,103	-0,029
-288,847	800,000	-0,058	0,116
-287,832	583,908	0,039	-0,068
-286,818	710,063	-0,048	-0,091
-285,803	-200,000	0,023	0,197
-284,789	112,292	-0,061	0,052
-283,774	-200,000	-0,002	-0,028
-282,759	24,976	-0,031	-0,018
-281,745	64,552	-0,084	-0,060
-280,730	-24,340	-0,113	0,048
-279,716	-119,071	-0,121	-0,015
-278,701	-55,264	0,100	-0,032
-277,686	-200,000	-0,021	-0,093
-276,672	331,295	0,096	0,133
-275,657	548,846	0,065	0,112
-274,643	-90,378	-0,195	-0,040
-273,628	234,381	0,060	-0,071
-272,613	-200,000	0,063	0,218
-271,599	800,000	-0,063	0,165
-270,584	165,186	-0,073	-0,074
-269,570	-200,000	0,013	-0,077
-268,555	-200,000	-0,018	0,059
-267,540	-170,195	-0,110	0,003
-266,526	56,029	-0,023	0,016
-265,511	60,206	0,035	0,024
-264,497	659,612	-0,034	0,063
-263,482	-26,892	0,141	0,059
-262,467	800,000	-0,026	-0,070
-261,453	-124,495	0,093	0,010
-260,438	-130,145	-0,158	0,015
-259,424	-52,114	0,116	-0,038
-258,409	250,085	-0,077	-0,093
-257,395	800,000	0,028	-0,074
-256,380	-27,834	0,164	0,067
-255,365	800,000	-0,023	0,052
-254,351	-49,459	0,082	-0,028
-253,336	-82,807	-0,098	0,022
-252,322	724,233	0,026	0,049
-251,307	330,294	0,061	0,084
-250,292	6,396	-0,107	-0,056
-249,278	140,891	0,115	0,108
-248,263	-200,000	-0,016	0,076
-247,249	-72,179	0,069	-0,018
-246,234	-4,459	-0,065	0,032
-245,219	-59,227	-0,083	0,025
-244,205	615,136	-0,041	-0,074
-243,190	-200,000	0,004	-0,043
-242,176	-134,725	-0,081	-0,007
-241,161	800,000	-0,021	0,052
-240,146	-44,246	0,091	-0,032
-239,132	530,347	-0,034	-0,057
-238,117	-149,747	0,012	0,001
-237,103	-36,307	-0,032	0,012
-236,088	638,701	-0,027	-0,050
-235,073	-200,000	-0,002	0,083
-234,059	800,000	0,061	-0,177
-233,044	647,697	-0,064	-0,117
-232,030	414,279	-0,059	-0,089
-231,015	247,874	-0,054	-0,066
-230,000	81,859	-0,048	0,037
-228,986	113,380	0,075	-0,064
-227,971	-200,000	0,018	-0,071
-226,957	-200,000	-0,007	-0,023
-225,942	-76,262	-0,049	-0,012
-224,927	-132,512	-0,136	-0,012
-223,913	-66,614	-0,055	-0,016
-222,898	-160,525	-0,107	0,004
-221,884	155,931	-0,068	-0,067
-220,869	213,845	0,070	0,079
-219,855	-100,782	-0,024	-0,004
-218,840	-39,313	0,139	0,052
-217,825	107,970	-0,114	-0,097
-216,811	-66,713	0,006	0,002
-215,796	177,313	-0,118	0,122
-214,782	34,143	0,039	-0,024
-213,767	123,491	-0,035	0,032
-212,752	-200,000	-0,012	-0,048
-211,738	59,093	0,026	0,018
-210,723	-43,487	0,057	0,020
-209,709	800,000	0,013	0,031
-208,694	-200,000	-0,037	-0,139
-207,679	28,066	-0,070	0,042
-206,665	344,149	-0,093	0,129
-205,650	-186,950	0,170	0,002
-204,636	202,655	-0,032	0,036
-203,621	15,043	0,005	0,003
-202,606	-162,675	-0,066	-0,002
-201,592	76,161	0,047	0,036
-200,577	149,255	-0,080	-0,077
-199,563	-200,000	-0,002	-0,157
-198,548	800,000	0,029	0,072
-197,533	-200,000	-0,042	-0,192
-196,519	4,725	-0,107	0,056
-195,504	220,157	0,070	0,080
-194,490	-200,000	0,038	-0,225
-193,475	134,003	-0,086	-0,079
-192,460	800,000	0,022	-0,048
-191,446	-102,883	0,143	-0,024
-190,431	800,000	0,020	0,041
-189,417	747,211	0,048	0,093
-188,402	576,356	-0,029	0,051
-187,387	3,906	-0,163	0,084
-186,373	-126,644	-0,038	-0,004
-185,358	718,696	-0,076	0,145
-184,344	9,645	0,141	0,076
-183,329	-200,000	-0,024	-0,143
-182,315	-93,428	0,097	0,019
-181,300	-200,000	0,004	-0,013
-180,285	-99,335	-0,230	0,041
-179,271	800,000	0,068	-0,144
-178,256	75,785	-0,073	-0,055
-177,242	16,022	0,043	-0,024
-176,227	452,854	-0,104	-0,165
-175,212	7,559	-0,066	0,035
-174,198	-52,091	0,147	0,048
-173,183	800,000	0,067	-0,156
-172,169	-31,710	-0,129	0,051
-171,154	-200,000	0,024	0,081
-170,139	66,072	0,079	-0,057
-169,125	509,189	0,074	0,123
-168,110	800,000	-0,060	-0,133
-167,096	340,188	-0,065	0,090
-166,081	-92,739	0,064	-0,013
-165,066	86,386	-0,074	-0,058
-164,052	20,485	-0,058	-0,033
-163,037	716,498	0,009	0,017
-162,023	-200,000	-0,041	-0,142
-161,008	-200,000	0,001	-0,161
-159,993	408,504	-0,028	0,042
-158,979	-13,743	0,059	-0,027
-157,964	698,649	0,066	-0,125
-156,950	800,000	0,077	0,155
-155,935	-73,644	0,142	-0,037
-154,920	-163,950	0,103	-0,003
-153,906	-81,475	0,158	0,037
-152,891	147,928	-0,098	0,094
-151,877	553,785	-0,036	-0,062
-150,862	66,003	0,062	-0,045
-149,847	-200,000	0,001	0,055
-148,833	508,816	0,031	-0,051
-147,818	800,000	-0,058	0,148
-146,804	204,604	-0,023	-0,025
-145,789	-95,126	0,194	0,037
-144,775	214,172	0,112	-0,126
-143,760	-16,040	-0,111	0,050
-142,745	-141,011	-0,128	0,009
-141,731	505,720	0,054	-0,089
-140,716	-200,000	-0,015	-0,119
-139,702	101,902	0,059	0,049
-138,687	800,000	-0,027	0,054
-137,672	386,006	0,026	0,038
-136,658	90,887	0,045	-0,035
-135,643	800,000	-0,005	0,012
-134,629	-134,979	0,161	0,014
-133,614	263,540	0,087	0,108
-132,599	-47,036	-0,057	-0,020
-131,585	234,179	-0,012	0,014
-130,570	-54,053	0,085	-0,027
-129,556	-33,933	-0,140	-0,054
-128,541	83,646	0,071	-0,055
-127,526	-200,000	-0,014	-0,071
-126,512	-200,000	-0,007	0,032
-125,497	256,903	0,088	0,107
-124,483	-200,000	0,010	0,154
-123,468	336,732	-0,017	-0,024
-122,453	10,068	-0,121	-0,065
-121,439	800,000	-0,001	-0,003
-120,424	209,154	-0,075	0,083
-119,410	-192,694	0,123	0,001
-118,395	-200,000	-0,010	-0,169
-117,380	-63,368	-0,039	-0,011
-116,366	43,005	-0,136	0,087
-115,351	-120,966	0,114	-0,013
-114,337	-200,000	-0,008	-0,051
-113,322	288,455	0,080	-0,103
-112,307	-200,000	-0,022	-0,104
-111,293	-200,000	0,006	0,047
-110,278	-125,027	0,052	-0,006
-109,264	-46,700	0,063	-0,022
-108,249	-200,000	0,019	-0,069
-107,234	177,114	0,005	0,005
-106,220	-200,000	0,054	-0,173
-105,205	-153,580	0,106	0,005
-104,191	-195,233	-0,085	0,000
-103,176	233,557	0,115	0,134
-102,162	284,331	0,057	0,072
-101,147	-200,000	-0,035	0,172
-100,132	-5,184	0,076	0,037
-99,118	347,103	0,020	-0,027
-98,103	352,236	0,041	-0,058
-97,089	-18,479	0,049	0,022
-96,074	-40,174	0,035	0,013
-95,059	-200,000	0,002	-0,043
-94,045	800,000	0,010	-0,028
-93,030	-59,417	-0,093	-0,028
-92,016	-200,000	0,012	-0,093
-91,001	-136,568	0,170	0,014
-89,986	727,450	-0,076	0,145
-88,972	-200,000	-0,007	0,064
-87,957	-105,410	0,060	0,010
-86,943	-190,263	-0,060	0,000
-85,928	726,111	0,027	-0,052
-84,913	160,942	0,136	-0,135
-83,899	103,578	0,097	0,081
-82,884	-1,565	-0,178	0,089
-81,870	26,398	0,180	0,106
-80,855	-200,000	-0,035	0,114
-79,840	800,000	0,022	-0,046
-78,826	539,692	-0,103	-0,175
-77,811	44,871	0,152	-0,099
-76,797	195,103	-0,075	0,081
-75,782	-200,000	0,032	0,132
-74,767	310,220	0,095	0,126
-73,753	343,416	0,077	0,107
-72,738	316,303	-0,063	-0,084
-71,724	783,086	-0,043	-0,084
-70,709	800,000	0,010	0,020
-69,694	377,289	-0,017	0,025
-68,680	300,372	0,085	-0,111
-67,665	800,000	0,067	0,160
-66,651	-200,000	0,040	0,130
-65,636	52,074	0,078	-0,052
-64,622	-29,916	-0,105	0,042
-63,607	-200,000	-0,026	-0,091
-62,592	800,000	0,009	-0,018
-61,578	556,967	0,062	-0,106
-60,563	172,919	0,079	0,080
-59,549	800,000	-0,061	0,146
-58,534	108,529	-2,814	-2,376
-57,519	-117,607	0,687	0,087
-56,505	800,000	-2,035	-5,700
-55,490	471,672	1,176	1,878
-54,476	800,000	5,384	12,048
-53,461	-200,000	23,329	354,182
-52,446	800,000	766,180	2265,968
-51,432	506,670	1645,546	2708,075
-50,417	64,033	1647,247	1169,869
-49,403	13,772	1565,594	857,848
-48,388	8,603	1518,916	806,094
-47,373	18,746	1513,616	854,254
-46,359	12,173	1501,645	814,729
-45,344	7,209	1497,690	787,765
-44,330	7,118	1495,800	786,285
-43,315	7,057	1494,139	785,075
-42,300	7,016	1492,460	783,956
-41,286	7,032	1490,933	783,203
-40,271	6,993	1489,404	782,178
-39,257	6,974	1488,179	781,407
-38,242	7,030	1486,457	780,752
-37,227	7,043	1485,332	780,194
-36,213	7,015	1483,915	779,277
-35,198	6,990	1482,562	778,414
-34,184	7,020	1481,214	777,822
-33,169	7,004	1479,920	777,035
-32,154	7,007	1478,356	776,195
-31,140	7,105	1476,708	775,786
-30,125	7,084	1475,699	775,119
-29,111	7,032	1474,489	774,195
-28,096	7,050	1473,437	773,701
-27,082	7,057	1472,541	773,235
-26,067	7,045	1471,328	772,509
-25,052	7,041	1470,221	771,879
-24,038	6,988	1468,893	770,891
-23,023	7,041	1467,769	770,530
-22,009	7,002	1467,193	770,007
-20,994	7,036	1466,180	769,608
-19,979	7,008	1465,008	768,825
-18,965	7,035	1463,897	768,347
-17,950	7,033	1463,015	767,842
-16,936	6,985	1462,035	767,063
-15,921	6,959	1461,097	766,414
-14,906	6,925	1459,869	765,571
-13,892	6,898	1459,094	765,006
-12,877	6,915	1458,034	764,503
-11,863	6,881	1457,059	763,793
-10,848	6,932	1456,149	763,536
-9,833	6,985	1455,341	763,338
-8,819	6,994	1453,940	762,619
-7,804	6,964	1453,143	762,021
-6,790	6,902	1452,596	761,405
-5,775	6,959	1451,550	761,103
-4,760	6,943	1450,733	760,566
-3,746	6,918	1449,544	759,794
-2,731	6,828	1448,577	758,821
-1,717	6,768	1447,518	757,946
-0,702	6,780	1446,521	757,450
0,313	6,632	1445,398	757,292
1,327	10,069	1442,276	772,129
2,342	18,646	1200,046	676,551
3,356	13,998	670,665	367,744
4,371	-13,212	455,205	208,053
5,386	-16,340	428,455	191,282
6,400	-17,389	420,062	186,029
7,415	-16,630	416,670	185,579
8,429	-18,001	413,818	182,375
9,444	-17,837	412,595	182,049
10,459	-18,019	411,512	181,302
11,473	-18,097	410,746	180,839
12,488	-18,279	409,561	180,051
13,502	-18,314	409,004	179,741
14,517	-18,313	408,249	179,394
15,531	-18,205	407,579	179,234
16,546	-18,184	406,630	178,828
17,561	-18,377	406,346	178,423
18,575	-18,344	405,599	178,124
19,590	-18,395	405,110	177,824
20,604	-18,361	404,662	177,658
21,619	-18,542	404,160	177,174
22,634	-18,484	403,797	177,078
23,648	-18,362	403,077	176,914
24,663	-18,501	402,705	176,545
25,677	-18,359	402,216	176,508
26,692	-18,431	402,017	176,307
27,707	-18,509	401,537	175,976
28,721	-18,324	401,019	175,983
29,736	-18,403	400,572	175,665
30,750	-18,488	400,269	175,401
31,765	-18,435	399,886	175,290
32,780	-18,442	399,432	175,065
33,794	-18,336	399,089	175,042
34,809	-18,433	398,776	174,758
35,823	-18,444	398,215	174,483
36,838	-18,295	397,891	174,524
37,853	-18,509	397,413	174,013
38,867	-18,323	397,161	174,136
39,882	-18,396	396,643	173,796
40,896	-18,490	396,506	173,595
41,911	-18,407	395,997	173,467
42,926	-18,495	395,696	173,203
43,940	-18,426	395,240	173,079
44,955	-18,528	394,867	172,765
45,969	-18,554	394,735	172,657
46,984	-18,357	394,369	172,743
47,999	-18,482	394,082	172,437
49,013	-18,361	393,568	172,356
50,028	-18,587	393,328	171,937
51,042	-18,425	393,002	171,992
52,057	-18,360	392,516	171,850
53,071	-18,491	392,251	171,547
54,086	-18,403	392,024	171,547
55,101	-18,391	391,621	171,372
56,115	-18,366	391,384	171,286
57,130	-18,240	390,743	171,155
58,144	-18,227	390,293	170,961
59,159	-18,269	390,134	170,820
60,174	-18,336	389,836	170,588
61,188	-18,324	389,525	170,451
62,203	-18,387	389,212	170,216
63,217	-18,356	388,743	170,037
64,232	-18,334	388,340	169,874
65,247	-18,335	388,086	169,747
66,261	-18,297	387,607	169,572
67,276	-18,462	387,345	169,227
68,290	-18,407	387,148	169,197
69,305	-18,304	386,837	169,181
70,320	-18,433	386,537	168,867
71,334	-18,361	386,098	168,754
72,349	-18,291	385,733	168,669
73,363	-18,296	385,340	168,476
74,378	-18,198	385,071	168,470
75,393	-18,196	384,686	168,289
76,407	-18,315	384,456	168,021
77,422	-18,221	383,976	167,917
78,436	-18,228	383,666	167,756
79,451	-18,275	383,224	167,488
80,466	-18,292	383,071	167,384
81,480	-18,360	382,672	167,108
82,495	-18,291	382,311	167,024
83,509	-18,306	382,284	166,978
84,524	-18,431	382,000	166,678
85,539	-18,282	381,456	166,617
86,553	-18,280	381,119	166,458
87,568	-18,167	380,837	166,464
88,582	-18,209	380,674	166,325
89,597	-18,194	380,285	166,159
90,611	-18,079	379,836	166,094
91,626	-18,251	379,627	165,770
92,641	-18,255	379,215	165,569
93,655	-18,284	378,939	165,397
94,670	-18,379	378,772	165,189
95,684	-18,283	378,340	165,108
96,699	-18,344	378,154	164,934
97,714	-18,364	377,948	164,804
98,728	-18,308	377,468	164,651
99,743	-18,306	377,244	164,542
100,757	-18,283	376,692	164,315
101,772	-18,164	376,544	164,386
102,787	-18,240	376,265	164,154
103,801	-18,157	375,965	164,113
104,816	-18,370	375,829	163,770
105,830	-18,201	375,255	163,718
106,845	-18,295	375,233	163,576
107,860	-18,124	374,857	163,612
108,874	-18,111	374,589	163,497
109,889	-18,033	374,147	163,387
110,903	-18,195	373,903	163,064
111,918	-18,187	373,645	162,946
112,933	-18,123	373,312	162,866
113,947	-18,175	373,170	162,724
114,962	-18,171	372,741	162,528
115,976	-18,142	372,372	162,389
116,991	-18,202	372,221	162,234
118,006	-18,150	371,857	162,126
119,020	-18,311	371,874	161,918
120,035	-18,209	371,379	161,815
121,049	-18,235	371,284	161,726
122,064	-18,292	370,948	161,495
123,079	-18,286	370,701	161,381
124,093	-18,177	370,088	161,234
125,108	-18,187	369,936	161,141
126,122	-18,230	369,616	160,935
127,137	-18,272	369,349	160,752
128,151	-18,259	368,986	160,596
129,166	-18,141	368,852	160,669
130,181	-18,137	368,389	160,458
131,195	-18,292	368,254	160,194
132,210	-18,171	367,997	160,216
133,224	-18,045	367,605	160,187
134,239	-18,098	367,289	159,969
135,254	-18,152	367,120	159,816
136,268	-18,037	366,774	159,792
137,283	-18,217	366,409	159,398
138,297	-18,166	366,023	159,278
139,312	-18,081	365,722	159,236
140,327	-18,272	365,579	158,927
141,341	-18,190	365,276	158,881
142,356	-18,052	364,959	158,897
143,370	-18,121	364,770	158,716
144,385	-17,910	364,410	158,803
145,400	-18,165	364,007	158,303
146,414	-18,061	363,809	158,329
147,429	-18,092	363,524	158,154
148,443	-18,115	363,273	158,002
149,458	-18,091	363,118	157,949
150,473	-18,112	362,865	157,800
151,487	-18,147	362,606	157,630
152,502	-18,066	362,233	157,553
153,516	-18,166	361,983	157,309
154,531	-18,040	361,671	157,312
155,546	-18,018	361,428	157,218
156,560	-18,201	361,333	156,943
157,575	-18,148	360,883	156,796
158,589	-17,994	360,525	156,812
159,604	-18,109	360,348	156,583
160,619	-17,991	360,111	156,608
161,633	-17,986	359,838	156,481
162,648	-17,953	359,692	156,443
163,662	-17,962	359,377	156,282
164,677	-17,961	359,212	156,197
165,692	-17,963	358,880	156,036
166,706	-17,969	358,546	155,870
167,721	-18,062	358,475	155,714
168,735	-17,868	358,217	155,820
169,750	-18,064	358,006	155,480
170,764	-18,111	357,761	155,304
171,779	-18,031	357,586	155,310
172,794	-18,048	357,357	155,176
173,808	-18,138	357,003	154,901
174,823	-17,881	356,666	155,047
175,837	-18,063	356,674	154,820
176,852	-18,075	356,366	154,658
177,867	-18,027	356,045	154,562
178,881	-17,936	355,722	154,516
179,896	-17,898	355,346	154,384
180,910	-17,971	355,229	154,233
181,925	-18,052	355,000	154,025
182,940	-18,013	354,529	153,852
183,954	-18,154	354,496	153,658
184,969	-17,987	354,277	153,746
185,983	-17,878	354,035	153,756
186,998	-17,763	353,698	153,730
188,013	-17,945	353,505	153,419
189,027	-17,851	353,157	153,365
190,042	-17,879	352,985	153,243
191,056	-18,029	352,816	152,981
192,071	-17,941	352,590	152,972
193,086	-17,846	352,211	152,906
194,100	-17,911	352,031	152,738
195,115	-17,921	351,801	152,613
196,129	-16,449	352,473	154,615
197,144	-12,717	354,043	159,678
198,159	-8,414	356,110	165,678
199,173	-4,716	357,785	170,823
200,188	-3,942	357,930	171,792
201,202	-3,555	357,736	172,141
202,217	-3,485	357,583	172,136
203,232	-3,145	357,381	172,424
204,246	-3,284	357,440	172,273
205,261	-2,980	357,228	172,514
206,275	-2,978	356,943	172,363
207,290	-2,881	356,743	172,366
208,304	-2,849	356,538	172,289
209,319	-2,887	356,224	172,078
210,334	-2,827	356,065	172,056
211,348	-2,706	355,799	172,054
212,363	-2,716	355,447	171,857
213,377	-2,843	355,427	171,683
214,392	-2,805	355,141	171,574
215,407	-2,752	354,848	171,479
216,421	-2,562	354,581	171,557
217,436	-2,632	354,351	171,349
218,450	-2,770	354,239	171,118
219,465	-2,676	354,071	171,131
220,480	-2,682	353,897	171,025
221,494	-2,457	353,403	171,033
222,509	-2,627	353,344	170,791
223,523	-2,534	353,025	170,730
224,538	-2,537	352,876	170,639
225,553	-2,376	352,529	170,643
226,567	-2,613	352,221	170,204
227,582	-2,711	352,144	170,037
228,596	-2,640	351,959	170,016
229,611	-2,565	351,638	169,932
230,626	-2,619	351,405	169,742
231,640	-2,815	351,153	169,378
232,655	-2,737	350,955	169,358
233,669	-2,730	350,666	169,211
234,684	-2,639	350,351	169,149
235,699	-2,510	350,326	169,271
236,713	-2,569	349,907	168,986
237,728	-2,473	349,824	169,041
238,742	-2,565	349,397	168,714
239,757	-2,546	349,216	168,633
240,772	-2,625	348,986	168,417
241,786	-2,562	348,815	168,391
242,801	-2,558	348,700	168,326
243,815	-2,480	348,304	168,208
244,830	-2,639	348,140	167,932
245,844	-2,628	348,026	167,875
246,859	-2,581	347,768	167,789
247,874	-2,562	347,431	167,633
248,888	-2,566	347,148	167,477
249,903	-2,558	347,227	167,510
250,917	-2,569	346,868	167,309
251,932	-2,575	346,627	167,171
252,947	-2,580	346,368	167,025
253,961	-2,550	345,963	166,849
254,976	-2,585	345,846	166,738
255,990	-2,682	345,675	166,531
257,005	-2,477	345,397	166,614
258,020	-2,419	345,236	166,588
259,034	-2,514	345,062	166,382
260,049	-2,438	344,725	166,290
261,063	-2,545	344,592	166,090
262,078	-2,637	344,403	165,880
263,093	-2,543	344,250	165,897
264,107	-2,743	343,944	165,510
265,122	-2,438	343,679	165,712
266,136	-2,352	343,420	165,669
267,151	-2,511	343,360	165,445
268,166	-2,380	342,962	165,387
269,180	-2,502	342,747	165,131
270,195	-2,493	342,626	165,068
271,209	-2,434	342,305	164,965
272,224	-2,448	342,204	164,886
273,239	-2,565	341,975	164,630
274,253	-2,385	341,623	164,648
275,268	-2,399	341,343	164,482
276,282	-2,416	341,145	164,353
277,297	-2,525	341,057	164,173
278,312	-2,598	340,867	163,987
279,326	-2,486	340,692	164,013
280,341	-2,339	340,333	163,989
281,355	-2,338	340,091	163,859
282,370	-2,401	339,919	163,692
283,384	-2,397	339,728	163,589
284,399	-2,314	339,558	163,585
285,414	-2,420	339,413	163,384
286,428	-2,350	339,173	163,330
287,443	-2,343	338,911	163,197
288,457	-2,441	338,669	162,957
289,472	-2,290	338,317	162,942
290,487	-2,248	338,241	162,936
291,501	-2,507	338,009	162,523
292,516	-2,409	337,779	162,507
293,530	-2,263	337,497	162,518
294,545	-2,281	337,340	162,408
295,560	-2,270	337,075	162,279
296,574	-2,296	336,971	162,185
297,589	-2,222	336,727	162,135
298,603	-2,200	336,390	161,982
299,618	-2,306	336,264	161,791
300,633	-2,321	336,010	161,638
301,647	-2,130	335,778	161,722
302,662	-2,117	335,641	161,655
303,676	-2,209	335,455	161,450
304,691	-2,341	335,205	161,171
305,706	-2,226	334,875	161,123
306,720	-2,162	334,628	161,060
307,735	-2,144	334,482	160,996
308,749	-2,173	334,278	160,852
309,764	-2,159	334,257	160,842
310,779	-2,046	333,800	160,731
311,793	-2,223	333,607	160,430
312,808	-2,016	333,413	160,549
313,822	-2,166	333,246	160,291
314,837	-2,103	333,023	160,238
315,852	-2,122	332,816	160,104
316,866	-1,985	332,627	160,147
317,881	-2,179	332,504	159,863
318,895	-2,054	332,287	159,880
319,910	-2,147	331,887	159,571
320,925	-1,904	331,665	159,715
321,939	-2,008	331,631	159,572
322,954	-2,108	331,287	159,283
323,968	-1,901	331,164	159,434
324,983	-1,928	330,997	159,310
325,997	-2,111	330,780	158,994
327,012	-2,024	330,555	158,965
328,027	-2,040	330,345	158,833
329,041	-2,116	330,177	158,656
330,056	-2,098	329,944	158,549
331,070	-1,849	329,729	158,700
332,085	-2,049	329,491	158,356
333,100	-1,910	329,271	158,386
334,114	-1,804	328,965	158,338
335,129	-1,779	328,826	158,283
336,143	-1,902	328,508	157,984
337,158	-2,000	328,510	157,867
338,173	-1,949	328,278	157,795
339,187	-1,930	328,077	157,705
340,202	-1,907	327,724	157,546
341,216	-1,737	327,535	157,623
342,231	-1,813	327,308	157,419
343,246	-1,881	327,046	157,206
344,260	-1,996	327,068	157,080
345,275	-1,870	326,777	157,060
346,289	-2,100	326,627	156,729
347,304	-2,035	326,390	156,670
348,319	-1,867	326,059	156,676
349,333	-1,802	325,994	156,700
350,348	-1,997	325,757	156,366
351,362	-1,985	325,551	156,266
352,377	-1,853	325,310	156,276
353,392	-1,640	325,037	156,356
354,406	-1,778	324,850	156,106
355,421	195,242	1323,383	1378,544
356,435	159,572	1444,818	1378,340
