DTS Sentinel unit serial number:	SN410029Multiplexer serial number:	ORYXHardware model number:	OX2-SRSoftware version number:	ORYX F/W v4,00 Oryx Data Collector v3.7.2.0data status	okinstallation	B6 Nyhavnadifferential loss correction	single-endedforward channel	channel 2reverse channel	N/Adate	2023/12/08time	14:10:08forward acquisition time	300,00reverse acquisition time	0,00gamma	499,1914k internal	0,3159k external	0,3159temperature offset calibration	1,0000default loss term (dB/km)	0,3820temperature slope calibration	1,0000multiplexer offset coefficient	1,0000multiplexer slope coefficient	1,0000fibre end	0,00T internal ref (°C)	15,05T ext. ref 1 (°C)	-1,54T ext. ref 2 (°C)	-1,55length (m)	temperature (°C)	Stokes	anti-Stokes-744,400	22,869	0,124	-0,075
-743,385	-200,000	-0,335	0,001
-742,371	39,764	0,207	0,136
-741,356	86,484	-0,264	0,214
-740,342	-200,000	0,007	0,123
-739,327	-22,483	-0,376	-0,167
-738,312	-106,443	-0,049	0,008
-737,298	-131,812	-0,274	-0,026
-736,283	-118,008	0,093	0,012
-735,269	180,417	-0,100	0,109
-734,254	23,707	0,100	0,061
-733,239	-98,035	-0,554	-0,104
-732,225	134,350	0,129	0,123
-731,210	-86,850	0,081	0,018
-730,196	-174,911	-0,174	-0,004
-729,181	-200,000	-0,008	-0,068
-728,167	-200,000	0,022	-0,128
-727,152	410,974	-0,051	0,081
-726,137	-8,247	0,114	0,056
-725,123	-58,735	-0,031	0,010
-724,108	70,174	-0,121	-0,092
-723,094	166,905	-0,051	-0,054
-722,079	-8,983	-0,083	0,041
-721,064	-95,779	-0,120	0,023
-720,050	-12,785	0,016	-0,008
-719,035	800,000	-0,049	-0,104
-718,021	-200,000	0,043	0,141
-717,006	800,000	0,030	0,066
-715,991	17,449	-0,167	-0,098
-714,977	10,862	-0,093	-0,052
-713,962	800,000	-0,072	-0,149
-712,948	-99,859	0,145	0,026
-711,933	800,000	-0,009	-0,022
-710,918	-131,358	-0,031	0,003
-709,904	22,170	-0,190	0,114
-708,889	-141,058	-0,127	-0,009
-707,875	-61,655	-0,050	0,015
-706,860	148,608	-0,068	-0,068
-705,845	360,314	-0,061	0,090
-704,831	-20,999	0,111	0,050
-703,816	495,928	-0,025	0,043
-702,802	28,957	0,047	0,029
-701,787	-200,000	0,025	-0,096
-700,772	69,076	-0,130	-0,098
-699,758	53,579	0,054	0,038
-698,743	-101,491	-0,119	0,021
-697,729	-200,000	-0,024	0,118
-696,714	-120,085	0,061	0,008
-695,699	207,528	-0,028	0,032
-694,685	12,109	0,084	0,047
-693,670	-33,499	-0,090	0,036
-692,656	-200,000	0,018	-0,113
-691,641	-200,000	-0,011	-0,054
-690,627	-129,246	0,126	0,013
-689,612	-200,000	-0,026	-0,148
-688,597	-200,000	-0,003	-0,192
-687,583	-200,000	0,007	-0,135
-686,568	100,847	-0,066	0,056
-685,554	35,709	-0,218	0,140
-684,539	220,657	0,069	0,081
-683,524	513,547	0,020	0,034
-682,510	-200,000	0,021	-0,070
-681,495	-14,263	-0,005	-0,002
-680,481	25,522	0,120	-0,073
-679,466	28,689	-0,096	-0,059
-678,451	179,246	-0,043	-0,047
-677,437	190,102	0,080	-0,088
-676,422	800,000	-0,018	-0,054
-675,408	-102,479	-0,109	0,019
-674,393	-118,481	-0,139	-0,018
-673,378	800,000	-0,032	0,065
-672,364	103,097	0,049	-0,042
-671,349	163,854	-0,086	-0,089
-670,335	-200,000	-0,005	0,188
-669,320	800,000	0,040	-0,101
-668,305	-126,375	0,049	-0,005
-667,291	-106,274	-0,122	0,020
-666,276	125,775	-0,033	-0,031
-665,262	392,045	0,051	0,078
-664,247	-13,645	0,145	-0,069
-663,232	61,032	-0,105	0,076
-662,218	800,000	-0,012	0,031
-661,203	-200,000	-0,004	0,073
-660,189	49,171	-0,074	0,051
-659,174	87,336	-0,136	0,110
-658,159	800,000	0,033	-0,086
-657,145	-152,670	-0,070	0,004
-656,130	-200,000	-0,004	0,022
-655,116	119,936	0,026	0,023
-654,101	-200,000	-0,028	-0,117
-653,086	-200,000	-0,006	0,052
-652,072	-12,436	-0,066	-0,032
-651,057	77,836	-0,022	-0,017
-650,043	-4,234	0,104	-0,052
-649,028	-90,856	-0,051	-0,011
-648,014	-68,403	0,212	0,060
-646,999	-148,614	0,045	-0,003
-645,984	-200,000	0,005	0,110
-644,970	-50,435	-0,156	-0,054
-643,955	800,000	-0,034	-0,073
-642,941	-94,394	-0,122	-0,024
-641,926	-200,000	0,001	0,009
-640,911	0,093	-0,185	0,096
-639,897	-200,000	0,021	0,092
-638,882	800,000	0,004	-0,012
-637,868	800,000	-0,020	-0,043
-636,853	-200,000	0,027	-0,173
-635,838	-200,000	-0,033	-0,187
-634,824	-165,743	0,043	-0,001
-633,809	-76,889	0,119	0,030
-632,795	282,273	0,030	-0,040
-631,780	-50,832	0,103	-0,035
-630,765	800,000	-0,085	-0,183
-629,751	445,351	-0,069	-0,111
-628,736	-23,760	-0,025	0,011
-627,722	121,907	-0,041	-0,038
-626,707	800,000	0,023	-0,071
-625,692	-98,224	-0,065	0,012
-624,678	4,919	-0,045	-0,024
-623,663	204,738	-0,032	-0,036
-622,649	-200,000	-0,029	-0,144
-621,634	119,338	-0,053	-0,048
-620,619	800,000	-0,034	-0,108
-619,605	-200,000	0,027	-0,091
-618,590	-200,000	-0,018	0,071
-617,576	-200,000	0,010	0,051
-616,561	181,577	0,043	-0,046
-615,546	-97,018	-0,154	-0,029
-614,532	250,699	-0,056	-0,070
-613,517	-28,071	-0,026	0,011
-612,503	800,000	0,065	-0,144
-611,488	-145,343	0,100	-0,006
-610,474	271,729	-0,079	0,102
-609,459	167,166	0,034	0,035
-608,444	-200,000	-0,007	-0,089
-607,430	-200,000	0,012	-0,226
-606,415	-77,785	-0,104	-0,026
-605,401	83,067	-0,084	0,067
-604,386	-200,000	-0,022	0,082
-603,371	-200,000	0,000	0,015
-602,357	800,000	0,024	0,073
-601,342	-200,000	-0,031	-0,137
-600,328	800,000	-0,026	-0,059
-599,313	19,600	-0,082	0,048
-598,298	-88,386	-0,181	-0,039
-597,284	576,197	0,009	-0,015
-596,269	342,861	0,059	0,085
-595,255	-127,857	-0,097	-0,010
-594,240	774,011	-0,035	0,070
-593,225	-84,398	-0,201	-0,046
-592,211	57,919	-0,051	-0,037
-591,196	-200,000	-0,010	-0,128
-590,182	800,000	-0,022	-0,059
-589,167	-5,982	0,023	-0,011
-588,152	-200,000	0,008	-0,099
-587,138	135,638	-0,064	-0,061
-586,123	800,000	-0,048	-0,102
-585,109	-200,000	0,000	-0,082
-584,094	800,000	0,006	-0,013
-583,079	681,724	-0,052	0,100
-582,065	736,840	0,027	0,053
-581,050	-200,000	-0,035	0,169
-580,036	14,074	0,106	0,061
-579,021	-200,000	-0,013	-0,115
-578,006	337,327	-0,037	0,053
-576,992	-200,000	-0,001	-0,113
-575,977	375,836	0,054	0,080
-574,963	-76,612	-0,081	0,021
-573,948	414,183	0,087	0,135
-572,934	800,000	-0,024	-0,068
-571,919	60,759	0,008	-0,005
-570,904	59,719	0,026	-0,019
-569,890	7,863	-0,065	0,036
-568,875	-200,000	-0,015	0,076
-567,861	69,988	0,043	0,033
-566,846	-200,000	-0,021	-0,205
-565,831	-148,380	-0,014	-0,001
-564,817	-78,429	-0,115	-0,029
-563,802	800,000	-0,019	-0,044
-562,788	29,783	-0,062	0,039
-561,773	-136,336	0,166	-0,014
-560,758	127,926	0,065	0,061
-559,744	334,363	-0,040	-0,056
-558,729	-200,000	0,002	-0,027
-557,715	-22,665	0,040	0,018
-556,700	219,538	0,062	0,073
-555,685	-131,167	0,084	-0,008
-554,671	-200,000	-0,000	-0,069
-553,656	198,456	0,098	0,110
-552,642	387,536	-0,008	0,012
-551,627	-200,000	0,009	0,122
-550,612	800,000	-0,049	0,148
-549,598	-200,000	-0,003	0,050
-548,583	-200,000	-0,019	0,062
-547,569	-200,000	0,010	0,058
-546,554	146,277	-0,058	0,057
-545,539	333,438	-0,028	-0,040
-544,525	-9,908	0,139	-0,067
-543,510	14,741	0,089	-0,051
-542,496	-200,000	-0,002	0,017
-541,481	-200,000	0,023	-0,144
-540,466	-4,768	-0,021	-0,010
-539,452	579,107	-0,016	-0,028
-538,437	90,832	0,085	-0,070
-537,423	-120,677	-0,037	-0,004
-536,408	800,000	0,046	0,108
-535,393	259,082	0,044	0,055
-534,379	-200,000	-0,047	-0,156
-533,364	800,000	0,034	-0,101
-532,350	800,000	0,023	-0,057
-531,335	-163,203	0,030	0,001
-530,321	-200,000	0,005	-0,043
-529,306	13,712	0,100	-0,057
-528,291	800,000	-0,019	-0,046
-527,277	-17,135	-0,028	-0,013
-526,262	576,554	0,035	-0,062
-525,248	235,576	0,056	-0,068
-524,233	-93,744	0,102	0,020
-523,218	-200,000	0,010	-0,058
-522,204	-200,000	0,019	0,075
-521,189	-200,000	-0,012	-0,091
-520,175	800,000	0,011	0,023
-519,160	800,000	0,025	0,058
-518,145	-103,173	-0,068	-0,012
-517,131	-16,680	0,169	-0,078
-516,116	287,173	-0,061	0,081
-515,102	800,000	0,007	0,021
-514,087	800,000	-0,032	-0,093
-513,072	157,540	-0,136	-0,138
-512,058	-149,389	-0,057	-0,003
-511,043	744,774	-0,053	-0,104
-510,029	-24,766	0,149	0,064
-509,014	575,668	-0,026	-0,046
-507,999	-200,000	0,036	0,216
-506,985	183,973	-0,050	-0,054
-505,970	-6,035	0,065	0,032
-504,956	-106,454	-0,070	-0,011
-503,941	75,788	0,059	-0,045
-502,926	-200,000	-0,003	-0,059
-501,912	-200,000	0,006	0,086
-500,897	33,514	0,071	0,045
-499,883	323,875	-0,060	0,084
-498,868	144,384	0,044	-0,043
-497,853	-200,000	0,004	-0,040
-496,839	-116,711	0,126	0,017
-495,824	-200,000	0,032	0,121
-494,810	-200,000	0,004	0,026
-493,795	157,530	-0,027	-0,028
-492,781	-62,272	0,061	-0,019
-491,766	104,837	-0,040	-0,035
-490,751	198,391	0,028	-0,032
-489,737	-85,724	-0,073	0,017
-488,722	-200,000	-0,005	-0,057
-487,708	-9,295	0,111	-0,054
-486,693	800,000	-0,047	-0,099
-485,678	23,342	-0,063	-0,038
-484,664	771,137	-0,052	-0,104
-483,649	90,251	-0,016	-0,013
-482,635	800,000	0,027	-0,074
-481,620	477,308	-0,018	-0,030
-480,605	-66,094	0,058	0,017
-479,591	-200,000	-0,026	0,093
-478,576	800,000	0,020	0,047
-477,562	531,833	0,045	0,077
-476,547	-200,000	-0,036	-0,145
-475,532	66,741	0,131	0,097
-474,518	342,253	-0,040	0,057
-473,503	-200,000	-0,024	0,083
-472,489	-200,000	0,022	0,071
-471,474	800,000	-0,027	-0,078
-470,459	57,321	-0,120	-0,085
-469,445	-55,054	-0,051	-0,017
-468,430	118,420	-0,071	-0,064
-467,416	-82,824	0,187	-0,044
-466,401	239,927	0,049	0,059
-465,386	-17,077	-0,135	0,062
-464,372	800,000	-0,027	0,083
-463,357	-200,000	0,002	0,050
-462,343	-200,000	-0,008	-0,120
-461,328	111,426	0,108	0,095
-460,313	-11,236	0,087	-0,042
-459,299	26,969	0,081	0,049
-458,284	237,417	-0,052	0,063
-457,270	262,750	0,084	0,106
-456,255	489,182	0,065	-0,108
-455,241	800,000	-0,027	-0,059
-454,226	-200,000	-0,020	-0,090
-453,211	-118,639	0,049	0,006
-452,197	254,072	-0,120	0,149
-451,182	-200,000	0,001	0,037
-450,168	-200,000	0,047	0,159
-449,153	50,200	0,014	0,010
-448,138	800,000	-0,018	-0,052
-447,124	-43,299	0,057	-0,021
-446,109	149,111	0,048	-0,048
-445,095	477,484	0,083	0,137
-444,080	-200,000	0,006	0,111
-443,065	442,598	0,016	0,026
-442,051	-86,954	-0,099	0,022
-441,036	-83,949	-0,040	0,009
-440,022	95,480	0,138	0,115
-439,007	-127,881	0,156	0,016
-437,992	-105,676	0,035	-0,006
-436,978	298,333	0,043	-0,058
-435,963	-200,000	-0,021	-0,108
-434,949	-5,407	-0,096	-0,048
-433,934	-200,000	-0,002	-0,182
-432,919	-132,908	-0,115	0,011
-431,905	-200,000	-0,017	-0,077
-430,890	-74,138	-0,075	-0,020
-429,876	-200,000	0,009	0,124
-428,861	214,723	0,100	0,116
-427,846	454,732	0,050	-0,082
-426,832	-129,954	-0,141	-0,014
-425,817	572,008	-0,045	-0,081
-424,803	197,585	0,082	0,092
-423,788	-141,081	0,048	-0,004
-422,773	386,064	0,051	0,077
-421,759	-47,991	0,109	-0,038
-420,744	-82,747	0,125	0,029
-419,730	-200,000	0,013	-0,090
-418,715	-86,996	0,100	0,022
-417,701	73,827	-0,057	-0,043
-416,686	59,642	-0,097	-0,070
-415,671	172,723	-0,022	-0,023
-414,657	-200,000	-0,006	0,101
-413,642	-200,000	0,028	0,106
-412,628	-26,961	0,017	0,007
-411,613	800,000	-0,024	-0,075
-410,598	358,427	-0,080	-0,117
-409,584	-125,677	0,201	-0,022
-408,569	-60,906	0,138	0,042
-407,555	615,384	-0,052	0,095
-406,540	-200,000	-0,014	0,070
-405,525	373,892	-0,068	0,100
-404,511	-200,000	-0,030	-0,105
-403,496	-200,000	0,005	-0,048
-402,482	-200,000	0,007	0,061
-401,467	569,206	0,028	-0,050
-400,452	267,961	-0,030	-0,038
-399,438	-92,030	0,070	0,014
-398,423	131,691	-0,044	-0,041
-397,409	800,000	-0,032	0,076
-396,394	106,616	0,051	-0,044
-395,379	244,265	-0,018	0,022
-394,365	-152,998	-0,118	0,006
-393,350	43,527	0,092	-0,061
-392,336	-200,000	-0,010	-0,081
-391,321	800,000	-0,066	0,155
-390,306	-25,685	-0,118	0,050
-389,292	118,203	-0,042	0,037
-388,277	57,254	-0,065	0,046
-387,263	148,504	0,117	0,115
-386,248	327,395	0,076	0,106
-385,233	622,990	0,043	0,080
-384,219	800,000	0,033	-0,097
-383,204	-55,883	-0,115	0,037
-382,190	-200,000	-0,027	0,132
-381,175	-95,260	-0,020	0,004
-380,160	800,000	0,069	-0,164
-379,146	788,794	0,049	0,098
-378,131	-109,718	-0,075	-0,011
-377,117	800,000	0,037	0,107
-376,102	800,000	-0,041	-0,119
-375,088	279,454	0,081	-0,105
-374,073	-134,514	-0,054	0,005
-373,058	-101,062	0,150	0,026
-372,044	146,215	-0,023	-0,022
-371,029	-28,148	-0,082	-0,034
-370,015	-200,000	-0,021	-0,074
-369,000	-104,918	-0,045	0,007
-367,985	-200,000	-0,038	-0,152
-366,971	-132,865	-0,055	0,005
-365,956	172,951	0,089	0,094
-364,942	-200,000	-0,005	-0,056
-363,927	133,907	-0,064	-0,060
-362,912	800,000	-0,109	-0,269
-361,898	800,000	0,022	-0,066
-360,883	39,528	-0,061	0,040
-359,869	-200,000	-0,014	-0,203
-358,854	407,154	0,093	0,143
-357,839	-200,000	-0,004	0,159
-356,825	800,000	0,061	-0,125
-355,810	800,000	0,043	-0,100
-354,796	-148,486	0,080	0,005
-353,781	-146,812	0,053	-0,003
-352,766	292,201	-0,105	-0,139
-351,752	156,941	0,032	0,032
-350,737	8,065	-0,064	0,034
-349,723	-200,000	0,015	0,098
-348,708	-200,000	0,012	0,056
-347,693	404,289	-0,044	-0,067
-346,679	-28,066	-0,145	-0,061
-345,664	11,003	0,031	-0,017
-344,650	-137,682	-0,130	0,010
-343,635	-13,677	0,052	0,024
-342,620	38,997	0,051	0,033
-341,606	287,098	0,074	0,097
-340,591	178,466	0,048	0,051
-339,577	-161,117	0,165	0,006
-338,562	43,436	-0,100	-0,066
-337,548	-200,000	-0,026	-0,100
-336,533	-200,000	0,009	0,054
-335,518	-9,675	-0,106	-0,051
-334,504	-69,481	0,134	0,037
-333,489	800,000	0,024	0,058
-332,475	46,544	-0,040	0,027
-331,460	648,900	0,052	0,097
-330,445	315,264	0,125	-0,171
-329,431	99,892	0,005	0,004
-328,416	800,000	0,022	0,054
-327,402	128,481	0,021	0,019
-326,387	-200,000	-0,037	0,201
-325,372	-48,272	-0,080	0,028
-324,358	181,685	0,031	-0,034
-323,343	-41,007	0,087	0,032
-322,329	-200,000	0,036	0,122
-321,314	269,244	-0,076	0,096
-320,299	-10,376	-0,067	0,032
-319,285	224,616	-0,054	0,064
-318,270	-200,000	0,016	0,060
-317,256	-200,000	0,050	-0,169
-316,241	-200,000	-0,007	-0,129
-315,226	465,184	0,062	-0,102
-314,212	-66,009	0,081	-0,023
-313,197	-18,835	0,072	0,032
-312,183	-200,000	-0,000	0,070
-311,168	-4,697	0,066	0,033
-310,153	-135,847	0,053	-0,004
-309,139	800,000	-0,037	0,077
-308,124	-106,855	-0,093	-0,015
-307,110	-94,387	0,052	0,010
-306,095	510,014	0,046	0,078
-305,080	-8,340	0,121	-0,059
-304,066	46,949	0,033	0,022
-303,051	210,743	-0,054	-0,061
-302,037	117,955	0,064	0,057
-301,022	66,525	0,032	-0,024
-300,008	800,000	0,048	0,111
-298,993	134,082	0,063	0,059
-297,978	-200,000	-0,017	0,097
-296,964	50,518	-0,033	-0,022
-295,949	-200,000	0,005	0,036
-294,935	800,000	0,020	-0,062
-293,920	502,568	0,068	0,114
-292,905	-200,000	-0,012	0,048
-291,891	228,686	0,074	0,087
-290,876	-200,000	-0,013	0,116
-289,862	-200,000	-0,013	0,125
-288,847	-82,210	-0,125	0,029
-287,832	800,000	0,011	-0,026
-286,818	171,815	0,085	0,088
-285,803	409,993	-0,075	-0,116
-284,789	-88,445	0,098	0,021
-283,774	-200,000	0,023	0,126
-282,759	12,476	-0,158	-0,088
-281,745	-69,103	0,148	0,041
-280,730	-200,000	-0,023	-0,093
-279,716	-33,977	-0,038	-0,015
-278,701	175,148	0,058	-0,061
-277,686	-75,174	0,158	0,041
-276,672	375,984	-0,042	-0,062
-275,657	17,663	-0,109	0,063
-274,643	800,000	0,089	0,191
-273,628	-163,332	-0,196	0,007
-272,613	211,117	-0,078	0,089
-271,599	-200,000	0,007	0,135
-270,584	141,201	0,163	0,156
-269,570	154,211	-0,031	-0,031
-268,555	24,040	0,057	0,034
-267,540	-200,000	-0,009	0,113
-266,526	-200,000	0,028	-0,122
-265,511	-90,669	0,051	0,011
-264,497	-200,000	0,015	-0,063
-263,482	-44,486	0,076	0,027
-262,467	-23,361	0,125	0,054
-261,453	-124,701	0,022	0,002
-260,438	87,694	-0,089	0,071
-259,424	176,817	-0,025	-0,026
-258,409	298,745	0,054	0,073
-257,395	-200,000	0,000	0,022
-256,380	307,287	0,097	0,131
-255,365	-200,000	-0,005	0,061
-254,351	-200,000	0,001	0,048
-253,336	-65,244	-0,037	-0,011
-252,322	-96,004	-0,036	-0,007
-251,307	-63,907	-0,085	-0,025
-250,292	-200,000	-0,017	-0,112
-249,278	0,137	-0,085	0,044
-248,263	713,167	0,028	0,053
-247,249	800,000	-0,068	0,140
-246,234	17,659	-0,104	-0,060
-245,219	800,000	-0,038	0,085
-244,205	-15,975	0,030	0,014
-243,190	-71,214	-0,030	0,008
-242,176	-35,282	0,040	0,016
-241,161	-60,568	0,090	0,027
-240,146	399,578	-0,054	-0,082
-239,132	-54,194	-0,087	0,028
-238,117	158,753	0,111	-0,111
-237,103	-110,563	-0,102	0,015
-236,088	226,373	0,050	0,058
-235,073	-121,544	0,071	-0,008
-234,059	800,000	0,046	-0,100
-233,044	-154,996	0,105	-0,005
-232,030	-200,000	-0,021	-0,111
-231,015	-34,782	-0,062	-0,024
-230,000	-19,222	-0,082	0,036
-228,986	9,407	0,050	0,027
-227,971	-67,050	0,032	0,009
-226,957	800,000	0,046	0,130
-225,942	-67,166	-0,208	0,059
-224,927	800,000	0,065	0,156
-223,913	114,595	-0,061	-0,054
-222,898	287,445	-0,028	-0,037
-221,884	800,000	0,027	-0,065
-220,869	5,093	0,214	-0,113
-219,855	-123,859	0,058	-0,006
-218,840	-15,663	0,136	-0,062
-217,825	94,898	-0,073	0,060
-216,811	-92,076	-0,126	-0,025
-215,796	-96,567	-0,140	-0,026
-214,782	800,000	-0,015	-0,039
-213,767	240,663	0,073	-0,089
-212,752	116,147	-0,067	0,059
-211,738	-200,000	-0,007	0,092
-210,723	85,051	-0,036	0,028
-209,709	1,382	-0,125	-0,065
-208,694	-200,000	-0,020	-0,163
-207,679	-200,000	-0,001	-0,069
-206,665	800,000	-0,023	0,047
-205,650	53,013	0,082	0,056
-204,636	224,386	-0,003	-0,003
-203,621	396,723	0,050	-0,076
-202,606	-200,000	-0,026	-0,145
-201,592	214,982	-0,091	-0,104
-200,577	271,189	0,037	-0,047
-199,563	-200,000	0,052	0,179
-198,548	-117,710	0,138	0,018
-197,533	-200,000	0,002	-0,148
-196,519	338,204	-0,046	-0,065
-195,504	-200,000	-0,042	0,145
-194,490	-62,731	-0,087	0,026
-193,475	407,118	-0,072	0,110
-192,460	800,000	-0,027	-0,083
-191,446	800,000	-0,017	-0,047
-190,431	-200,000	-0,003	-0,034
-189,417	800,000	-0,048	-0,129
-188,402	677,191	0,006	0,012
-187,387	-119,563	-0,077	-0,010
-186,373	77,222	-0,050	-0,038
-185,358	-136,328	-0,084	-0,007
-184,344	-200,000	-0,018	0,068
-183,329	353,001	0,040	0,057
-182,315	-49,152	-0,096	0,033
-181,300	321,756	-0,084	-0,116
-180,285	357,125	-0,053	-0,076
-179,271	22,215	-0,060	0,035
-178,256	-200,000	-0,023	-0,077
-177,242	-200,000	0,026	0,136
-176,227	-200,000	0,006	0,139
-175,212	-200,000	0,014	0,075
-174,198	300,679	0,021	0,028
-173,183	-82,776	-0,091	0,021
-172,169	-53,443	0,076	0,025
-171,154	464,666	-0,030	0,048
-170,139	-200,000	0,023	0,185
-169,125	-200,000	0,019	0,072
-168,110	-200,000	0,002	0,057
-167,096	422,042	-0,039	0,061
-166,081	-16,487	0,111	0,050
-165,066	-200,000	-0,018	0,083
-164,052	68,927	-0,018	0,013
-163,037	-200,000	0,141	0,000
-162,023	-200,000	-0,029	-0,094
-161,008	-8,669	0,125	-0,060
-159,993	-200,000	-0,096	-0,000
-158,979	-200,000	-0,005	-0,098
-157,964	29,860	-0,039	0,024
-156,950	602,665	-0,037	-0,067
-155,935	-193,449	-0,080	-0,000
-154,920	189,831	-0,079	-0,085
-153,906	24,721	-0,055	0,033
-152,891	112,223	-0,050	0,043
-151,877	6,255	0,138	0,073
-150,862	279,251	-0,054	-0,069
-149,847	800,000	-0,066	0,144
-148,833	-200,000	-0,022	0,071
-147,818	266,462	0,038	-0,047
-146,804	-200,000	-0,044	0,142
-145,789	-107,942	-0,193	-0,030
-144,775	478,213	-0,027	-0,044
-143,760	617,125	0,012	-0,021
-142,745	-200,000	-0,000	-0,103
-141,731	-8,303	-0,091	0,044
-140,716	57,377	0,035	-0,025
-139,702	-17,607	0,076	0,034
-138,687	90,182	-0,032	-0,025
-137,672	400,661	-0,093	0,141
-136,658	-200,000	-0,019	0,088
-135,643	294,384	0,012	-0,016
-134,629	512,181	0,056	-0,095
-133,614	-200,000	0,001	0,007
-132,599	171,930	-0,095	-0,098
-131,585	-200,000	0,021	0,111
-130,570	-33,527	0,066	-0,026
-129,556	-90,947	-0,150	-0,031
-128,541	737,725	0,020	-0,038
-127,526	145,881	-0,024	0,023
-126,512	800,000	0,060	0,133
-125,497	-200,000	-0,027	0,146
-124,483	146,602	0,055	0,053
-123,468	478,510	-0,040	0,065
-122,453	-88,785	-0,052	-0,011
-121,439	800,000	0,039	-0,118
-120,424	-200,000	0,020	-0,123
-119,410	95,074	-0,084	-0,069
-118,395	20,012	0,104	-0,060
-117,380	-200,000	0,005	-0,066
-116,366	168,305	-0,077	-0,079
-115,351	163,774	-0,084	-0,085
-114,337	211,003	-0,032	-0,036
-113,322	-101,260	0,096	-0,017
-112,307	-200,000	0,034	-0,155
-111,293	-200,000	0,007	-0,156
-110,278	16,749	-0,044	0,025
-109,264	800,000	0,009	0,029
-108,249	-3,062	-0,075	-0,038
-107,234	293,139	0,023	-0,031
-106,220	-200,000	-0,036	-0,134
-105,205	-99,677	0,096	0,017
-104,191	744,688	0,029	-0,056
-103,176	-159,845	-0,088	-0,003
-102,162	-121,939	-0,066	0,008
-101,147	-200,000	-0,011	0,076
-100,132	-200,000	-0,020	0,088
-99,118	317,177	-0,123	-0,168
-98,103	111,651	-0,062	-0,054
-97,089	800,000	0,013	0,041
-96,074	-80,841	0,077	-0,018
-95,059	800,000	0,027	0,062
-94,045	189,342	0,100	-0,108
-93,030	227,434	-0,091	0,106
-92,016	128,546	-0,071	-0,065
-91,001	150,548	0,162	-0,158
-89,986	800,000	0,088	0,240
-88,972	-90,498	0,041	-0,008
-87,957	-160,912	0,107	0,004
-86,943	0,000	0,147	-0,075
-85,928	-13,139	-0,136	-0,063
-84,913	-200,000	0,014	-0,090
-83,899	-49,370	-0,195	-0,066
-82,884	800,000	0,043	0,114
-81,870	258,970	-0,088	-0,109
-80,855	96,850	0,087	0,071
-79,840	-26,403	0,138	-0,058
-78,826	160,499	-0,121	0,121
-77,811	81,113	-0,076	0,059
-76,797	350,363	-0,049	-0,070
-75,782	426,096	-0,034	-0,053
-74,767	-200,000	-0,012	0,112
-73,753	-104,615	-0,155	0,025
-72,738	163,982	0,036	0,036
-71,724	266,400	-0,054	0,068
-70,709	47,530	0,070	-0,047
-69,694	-52,441	0,069	-0,023
-68,680	-41,271	0,117	-0,043
-67,665	258,467	0,068	0,084
-66,651	59,264	-0,059	0,042
-65,636	-200,000	0,006	0,087
-64,622	-95,318	-0,057	0,011
-63,607	541,887	0,021	-0,037
-62,592	800,000	0,061	-0,125
-61,578	131,933	0,130	-0,120
-60,563	-200,000	0,019	0,099
-59,549	-200,000	-0,026	-0,088
-58,534	15,325	-2,018	-1,133
-57,519	-200,000	-0,162	-0,926
-56,505	-200,000	-1,368	-4,891
-55,490	123,207	0,838	0,754
-54,476	800,000	4,976	11,620
-53,461	-200,000	17,909	290,177
-52,446	800,000	728,064	2223,760
-51,432	532,088	1640,608	2795,546
-50,417	108,640	1629,800	1396,270
-49,403	72,563	1282,970	958,911
-48,388	31,179	1025,889	630,039
-47,373	19,872	988,106	569,594
-46,359	18,192	975,791	556,975
-45,344	15,334	971,929	545,413
-44,330	15,589	970,497	545,417
-43,315	15,115	968,630	542,802
-42,300	15,041	967,807	542,077
-41,286	15,044	966,629	541,408
-40,271	15,030	965,626	540,777
-39,257	15,105	964,604	540,428
-38,242	15,102	963,761	539,924
-37,227	15,056	962,994	539,324
-36,213	15,071	962,258	538,938
-35,198	15,091	961,236	538,412
-34,184	15,109	960,399	537,978
-33,169	14,998	959,721	537,220
-32,154	15,111	958,744	537,014
-31,140	15,149	957,850	536,617
-30,125	15,097	957,072	535,991
-29,111	15,060	956,301	535,419
-28,096	15,155	955,487	535,246
-27,082	15,128	954,757	534,732
-26,067	15,113	954,002	534,236
-25,052	15,103	953,237	533,757
-24,038	15,055	952,865	533,373
-23,023	15,022	952,159	532,852
-22,009	15,111	951,346	532,661
-20,994	15,106	950,771	532,300
-19,979	15,115	950,190	531,983
-18,965	15,062	949,697	531,516
-17,950	15,138	948,955	531,323
-16,936	15,033	948,406	530,658
-15,921	14,950	947,787	530,028
-14,906	14,955	946,980	529,571
-13,892	14,925	946,382	529,119
-12,877	14,974	945,686	528,867
-11,863	14,941	945,013	528,364
-10,848	14,901	944,715	528,049
-9,833	15,106	944,092	528,330
-8,819	15,059	943,379	527,763
-7,804	15,029	942,655	527,239
-6,790	14,950	942,275	526,755
-5,775	14,965	941,819	526,527
-4,760	15,043	940,979	526,284
-3,746	14,980	940,479	525,784
-2,731	14,842	939,670	524,874
-1,717	14,815	939,063	524,430
-0,702	14,788	938,455	523,986
0,313	14,584	937,971	523,864
1,327	18,187	935,710	533,886
2,342	27,526	789,034	474,764
3,356	24,035	444,233	262,110
4,371	-5,657	295,393	144,630
5,386	-9,697	277,058	131,815
6,400	-10,987	271,446	127,935
7,415	-11,148	269,217	126,724
8,429	-11,334	267,748	125,851
9,444	-11,196	266,770	125,506
10,459	-11,155	266,164	125,248
11,473	-11,490	265,704	124,715
12,488	-11,480	265,119	124,438
13,502	-11,500	264,457	124,099
14,517	-11,551	264,118	123,882
15,531	-11,404	263,719	123,817
16,546	-11,290	263,362	123,740
17,561	-11,191	262,885	123,594
18,575	-11,173	262,556	123,445
19,590	-11,321	262,342	123,200
20,604	-11,238	262,046	123,125
21,619	-11,556	261,759	122,694
22,634	-11,384	261,293	122,618
23,648	-11,571	261,052	122,328
24,663	-11,280	260,679	122,402
25,677	-11,324	260,426	122,233
26,692	-11,329	260,250	122,135
27,707	-11,290	259,859	121,975
28,721	-11,472	259,681	121,719
29,736	-11,481	259,495	121,613
30,750	-11,562	259,178	121,382
31,765	-11,535	258,866	121,248
32,780	-11,338	258,718	121,343
33,794	-11,436	258,507	121,147
34,809	-11,496	258,088	120,886
35,823	-11,257	257,873	120,986
36,838	-11,613	257,708	120,584
37,853	-11,609	257,497	120,478
38,867	-11,626	257,231	120,328
39,882	-11,645	256,918	120,154
40,896	-11,657	256,882	120,116
41,911	-11,521	256,498	120,045
42,926	-11,637	256,216	119,801
43,940	-11,618	256,041	119,725
44,955	-11,546	255,715	119,625
45,969	-11,612	255,636	119,519
46,984	-11,990	255,236	118,993
47,999	-11,909	254,905	118,898
49,013	-12,084	254,783	118,679
50,028	-12,184	254,640	118,514
51,042	-12,306	254,284	118,232
52,057	-12,490	254,004	117,932
53,071	-12,324	253,874	118,005
54,086	-12,275	253,732	117,971
55,101	-12,193	253,490	117,919
56,115	-11,928	253,437	118,112
57,130	-11,570	253,329	118,361
58,144	-11,324	253,185	118,495
59,159	-11,041	252,840	118,567
60,174	-11,257	252,802	118,352
61,188	-11,346	252,564	118,154
62,203	-11,250	252,169	118,041
63,217	-11,310	252,059	117,927
64,232	-11,394	251,978	117,807
65,247	-11,335	251,688	117,712
66,261	-11,331	251,393	117,567
67,276	-11,636	251,048	117,134
68,290	-11,789	250,897	116,922
69,305	-12,193	250,710	116,480
70,320	-11,864	250,484	116,645
71,334	-11,601	250,348	116,795
72,349	-11,259	250,159	116,988
73,363	-11,196	249,976	116,946
74,378	-11,384	249,851	116,717
75,393	-11,484	249,709	116,555
76,407	-11,397	249,326	116,440
77,422	-11,425	249,224	116,358
78,436	-11,585	249,061	116,136
79,451	-11,283	248,739	116,231
80,466	-11,498	248,434	115,897
81,480	-11,709	248,270	115,632
82,495	-11,633	248,037	115,577
83,509	-11,684	247,881	115,451
84,524	-11,767	247,745	115,308
85,539	-11,793	247,368	115,100
86,553	-11,681	247,225	115,117
87,568	-11,782	247,108	114,967
88,582	-11,841	246,883	114,802
89,597	-11,776	246,746	114,784
90,611	-11,600	246,623	114,863
91,626	-11,518	246,508	114,868
92,641	-11,551	246,307	114,737
93,655	-11,508	245,876	114,562
94,670	-11,794	245,867	114,309
95,684	-11,573	245,602	114,360
96,699	-11,457	245,426	114,364
97,714	-11,752	245,065	113,940
98,728	-11,583	244,856	113,973
99,743	-11,922	244,652	113,587
100,757	-11,834	244,408	113,536
101,772	-11,793	244,342	113,530
102,787	-11,756	244,172	113,471
103,801	-11,751	244,046	113,406
104,816	-11,662	244,110	113,500
105,830	-11,638	243,760	113,347
106,845	-11,269	243,571	113,554
107,860	-11,525	243,376	113,241
108,874	-11,623	243,122	113,032
109,889	-11,626	242,797	112,869
110,903	-11,527	242,770	112,927
111,918	-11,772	242,476	112,579
112,933	-11,761	242,371	112,529
113,947	-11,522	242,250	112,659
114,962	-11,578	242,007	112,491
115,976	-11,376	241,984	112,636
116,991	-11,637	241,862	112,355
118,006	-11,485	241,504	112,302
119,020	-11,544	241,392	112,192
120,035	-11,398	241,398	112,305
121,049	-11,526	241,110	112,056
122,064	-11,491	240,969	112,009
123,079	-11,416	240,652	111,913
124,093	-11,620	240,485	111,659
125,108	-11,816	240,160	111,339
126,122	-11,917	240,062	111,202
127,137	-11,959	239,777	111,025
128,151	-11,817	239,540	111,021
129,166	-11,844	239,444	110,944
130,181	-11,743	239,354	110,974
131,195	-12,025	239,141	110,638
132,210	-11,687	238,978	110,826
133,224	-11,444	238,807	110,933
134,239	-11,535	238,603	110,755
135,254	-11,445	238,405	110,726
136,268	-11,659	238,226	110,460
137,283	-11,839	237,903	110,156
138,297	-12,053	237,826	109,938
139,312	-11,994	237,542	109,845
140,327	-11,556	237,395	110,118
141,341	-11,096	237,515	110,534
142,356	-11,178	237,399	110,405
143,370	-11,432	237,296	110,143
144,385	-11,156	237,165	110,294
145,400	-11,294	236,891	110,046
146,414	-11,069	236,701	110,128
147,429	-11,078	236,434	109,986
148,443	-11,273	236,314	109,765
149,458	-11,271	236,111	109,662
150,473	-11,152	235,860	109,631
151,487	-11,437	235,646	109,295
152,502	-11,348	235,714	109,387
153,516	-11,252	235,413	109,314
154,531	-11,198	235,395	109,339
155,546	-11,272	235,157	109,160
156,560	-11,331	234,897	108,983
157,575	-11,356	234,729	108,876
158,589	-11,318	234,601	108,836
159,604	-11,238	234,533	108,859
160,619	-11,059	234,159	108,817
161,633	-11,054	234,190	108,825
162,648	-11,133	233,960	108,646
163,662	-11,223	233,786	108,485
164,677	-11,198	233,722	108,466
165,692	-11,195	233,555	108,381
166,706	-10,989	233,283	108,407
167,721	-11,097	233,255	108,299
168,735	-11,064	233,156	108,270
169,750	-11,156	232,899	108,069
170,764	-11,145	232,790	108,017
171,779	-11,067	232,639	107,998
172,794	-11,370	232,548	107,709
173,808	-11,466	232,264	107,492
174,823	-11,664	231,815	107,120
175,837	-11,900	231,778	106,909
176,852	-11,506	231,759	107,198
177,867	-11,212	231,773	107,425
178,881	-11,192	231,556	107,331
179,896	-11,232	231,348	107,194
180,910	-10,908	231,061	107,303
181,925	-11,164	231,082	107,104
182,940	-11,267	230,812	106,889
183,954	-10,935	230,800	107,133
184,969	-11,064	230,677	106,965
185,983	-10,891	230,390	106,957
186,998	-10,990	230,318	106,837
188,013	-11,074	230,154	106,687
189,027	-11,159	230,039	106,558
190,042	-11,145	229,886	106,488
191,056	-11,053	229,663	106,446
192,071	-10,948	229,410	106,401
193,086	-10,951	229,372	106,371
194,100	-10,839	228,987	106,270
195,115	-11,227	228,809	105,880
196,129	-12,001	228,786	105,263
197,144	-6,521	230,256	110,174
198,159	-0,705	232,224	115,636
199,173	2,717	233,121	118,741
200,188	3,176	233,096	119,075
201,202	3,128	232,906	118,930
202,217	3,233	232,904	119,000
203,232	3,571	232,690	119,142
204,246	3,687	232,425	119,086
205,261	3,694	232,420	119,079
206,275	3,997	232,369	119,277
207,290	3,949	232,176	119,130
208,304	3,996	232,002	119,066
209,319	3,615	231,891	118,704
210,334	3,620	231,593	118,545
211,348	3,473	231,433	118,339
212,363	3,104	231,260	117,955
213,377	2,898	231,045	117,676
214,392	3,170	230,755	117,727
215,407	3,291	230,687	117,775
216,421	3,197	230,514	117,604
217,436	2,988	230,390	117,370
218,450	2,772	230,127	117,059
219,465	2,969	229,822	117,046
220,480	3,137	229,740	117,122
221,494	2,875	229,731	116,906
222,509	3,003	229,642	116,948
223,523	3,113	229,603	117,002
224,538	3,109	229,240	116,803
225,553	2,983	229,089	116,620
226,567	3,250	229,035	116,786
227,582	3,348	228,976	116,820
228,596	3,379	228,954	116,823
229,611	3,231	228,553	116,495
230,626	2,951	228,352	116,169
231,640	3,078	228,014	116,083
232,655	3,285	228,240	116,345
233,669	3,494	228,250	116,499
234,684	3,561	227,997	116,410
235,699	3,343	227,790	116,128
236,713	3,073	227,573	115,803
237,728	3,009	227,396	115,654
238,742	2,984	227,252	115,552
239,757	3,021	227,103	115,493
240,772	3,109	226,866	115,429
241,786	2,862	226,728	115,162
242,801	3,193	226,768	115,422
243,815	3,488	226,745	115,622
244,830	3,564	226,415	115,501
245,844	2,996	226,366	115,038
246,859	3,013	226,039	114,874
247,874	3,341	225,844	115,012
248,888	3,218	225,779	114,876
249,903	3,006	225,733	114,683
250,917	3,204	225,533	114,720
251,932	3,201	225,322	114,600
252,947	2,863	225,128	114,238
253,961	2,892	224,913	114,141
254,976	2,840	224,821	114,045
255,990	3,329	224,708	114,342
257,005	3,407	224,673	114,373
258,020	3,157	224,561	114,118
259,034	3,290	224,287	114,069
260,049	3,457	224,167	114,121
261,063	3,114	224,021	113,782
262,078	3,264	223,939	113,841
263,093	3,521	223,869	113,987
264,107	3,292	223,617	113,678
265,122	3,322	223,486	113,624
266,136	3,581	223,380	113,752
267,151	3,560	223,208	113,639
268,166	3,000	222,975	113,096
269,180	2,710	222,693	112,728
270,195	3,041	222,579	112,905
271,209	2,967	222,414	112,757
272,224	2,810	222,540	112,694
273,239	3,000	222,183	112,643
274,253	2,971	222,140	112,590
275,268	2,813	221,859	112,321
276,282	2,903	221,628	112,261
277,297	2,756	221,597	112,127
278,312	2,967	221,407	112,176
279,326	3,213	221,319	112,302
280,341	2,988	221,240	112,086
281,355	3,113	221,131	112,113
282,370	2,924	221,024	111,910
283,384	2,678	220,676	111,544
284,399	2,867	220,558	111,613
285,414	2,917	220,490	111,605
286,428	2,883	220,400	111,525
287,443	3,031	220,411	111,629
288,457	3,270	220,109	111,640
289,472	2,664	220,031	111,148
290,487	2,614	219,757	110,964
291,501	2,522	219,545	110,779
292,516	2,732	219,383	110,840
293,530	2,893	219,269	110,890
294,545	2,795	219,248	110,799
295,560	2,838	219,070	110,730
296,574	3,216	219,006	110,962
297,589	2,960	218,863	110,694
298,603	3,185	218,703	110,766
299,618	3,115	218,604	110,656
300,633	3,183	218,453	110,618
301,647	3,464	218,346	110,757
302,662	3,354	218,169	110,578
303,676	3,323	218,110	110,516
304,691	3,301	217,963	110,416
305,706	3,175	217,835	110,250
306,720	3,294	217,541	110,177
307,735	3,010	217,567	109,976
308,749	2,895	217,286	109,741
309,764	3,144	217,156	109,845
310,779	3,606	217,124	110,151
311,793	3,395	216,966	109,910
312,808	3,378	216,724	109,765
313,822	3,112	216,592	109,498
314,837	3,255	216,500	109,544
315,852	2,851	216,332	109,161
316,866	2,941	216,361	109,229
317,881	3,214	216,142	109,304
318,895	3,546	215,941	109,430
319,910	2,890	215,716	108,838
320,925	2,652	215,701	108,651
321,939	2,842	215,302	108,576
322,954	3,126	215,344	108,790
323,968	3,030	215,230	108,654
324,983	3,090	215,159	108,651
325,997	3,132	215,212	108,698
327,012	3,097	214,839	108,476
328,027	3,142	214,720	108,437
329,041	3,330	214,637	108,519
330,056	3,406	214,601	108,545
331,070	3,123	214,222	108,143
332,085	2,754	214,003	107,763
333,100	2,630	213,923	107,625
334,114	2,977	214,015	107,907
335,129	3,172	213,773	107,913
336,143	2,928	213,598	107,643
337,158	3,191	213,470	107,754
338,173	3,169	213,321	107,654
339,187	2,738	213,123	107,241
340,202	2,853	213,164	107,334
341,216	2,900	212,733	107,139
342,231	3,004	212,708	107,190
343,246	2,869	212,586	107,025
344,260	2,972	212,546	107,067
345,275	3,233	212,416	107,175
346,289	3,021	212,374	106,995
347,304	3,185	212,271	107,049
348,319	2,967	211,963	106,732
349,333	2,974	211,897	106,694
350,348	3,101	211,763	106,706
351,362	3,433	211,599	106,845
352,377	3,312	211,496	106,699
353,392	3,187	211,375	106,541
354,406	3,285	211,216	106,520
355,421	195,040	1340,872	1416,636
356,435	155,764	1478,481	1416,594
