DTS Sentinel unit serial number:	SN410029Multiplexer serial number:	ORYXHardware model number:	OX2-SRSoftware version number:	ORYX F/W v4,00 Oryx Data Collector v3.7.2.0data status	okinstallation	B6 Nyhavnadifferential loss correction	single-endedforward channel	channel 2reverse channel	N/Adate	2023/12/08time	05:55:08forward acquisition time	300,00reverse acquisition time	0,00gamma	499,1914k internal	0,3165k external	0,3165temperature offset calibration	1,0000default loss term (dB/km)	0,3820temperature slope calibration	1,0000multiplexer offset coefficient	1,0000multiplexer slope coefficient	1,0000fibre end	0,00T internal ref (°C)	13,00T ext. ref 1 (°C)	-3,85T ext. ref 2 (°C)	-3,83length (m)	temperature (°C)	Stokes	anti-Stokes-744,400	-37,600	0,124	0,048
-743,385	-98,903	-0,301	0,056
-742,371	-88,231	0,068	-0,015
-741,356	-144,154	-0,350	-0,024
-740,342	-13,354	0,111	0,053
-739,327	-19,909	-0,285	-0,129
-738,312	13,818	0,112	-0,064
-737,298	-172,075	-0,373	0,009
-736,283	5,537	0,263	0,142
-735,269	-108,344	-0,352	0,055
-734,254	56,688	0,134	0,096
-733,239	-51,527	-0,476	-0,162
-732,225	-146,946	0,246	-0,015
-731,210	429,338	0,110	0,175
-730,196	-68,040	-0,147	-0,042
-729,181	149,396	0,070	0,069
-728,167	-119,051	-0,054	0,007
-727,152	212,161	0,075	-0,087
-726,137	136,300	0,034	-0,033
-725,123	800,000	0,040	-0,114
-724,108	-31,085	-0,225	-0,093
-723,094	199,259	-0,120	-0,136
-722,079	-200,000	0,017	-0,076
-721,064	-200,000	0,015	-0,060
-720,050	-103,699	-0,039	-0,007
-719,035	238,092	0,077	0,095
-718,021	-110,085	-0,126	0,019
-717,006	72,737	-0,042	0,033
-715,991	-200,000	0,006	-0,033
-714,977	-18,712	-0,077	-0,035
-713,962	521,579	-0,019	-0,033
-712,948	3,538	-0,016	-0,009
-711,933	-31,161	-0,165	-0,068
-710,918	-200,000	0,002	-0,162
-709,904	-200,000	0,015	-0,097
-708,889	0,627	0,033	0,018
-707,875	-20,442	-0,073	0,033
-706,860	-153,330	0,190	-0,010
-705,845	8,007	-0,119	-0,065
-704,831	-124,730	0,131	0,015
-703,816	-200,000	-0,015	0,083
-702,802	-50,797	-0,066	0,023
-701,787	-25,422	0,036	-0,016
-700,772	188,543	0,076	-0,083
-699,758	-200,000	-0,004	-0,080
-698,743	67,560	0,069	0,052
-697,729	-3,809	0,071	0,036
-696,714	56,277	-0,120	0,086
-695,699	-121,426	-0,088	-0,011
-694,685	21,456	0,039	0,023
-693,670	-138,143	-0,099	-0,008
-692,656	421,044	-0,060	-0,095
-691,641	800,000	-0,046	-0,134
-690,627	-112,831	-0,052	-0,008
-689,612	-90,878	0,036	-0,008
-688,597	65,984	-0,135	0,100
-687,583	800,000	0,086	-0,198
-686,568	800,000	0,056	0,132
-685,554	-79,703	-0,057	-0,014
-684,539	-83,543	0,074	0,017
-683,524	162,387	0,039	-0,041
-682,510	-69,701	0,120	-0,033
-681,495	-120,651	-0,066	0,008
-680,481	-0,013	-0,145	-0,076
-679,466	208,848	-0,061	-0,070
-678,451	209,508	-0,057	-0,066
-677,437	-3,233	0,137	-0,070
-676,422	-200,000	-0,009	0,075
-675,408	0,642	-0,083	0,043
-674,393	64,589	0,049	0,036
-673,378	-200,000	0,007	-0,056
-672,364	9,412	-0,067	-0,037
-671,349	580,724	-0,074	-0,134
-670,335	170,161	-0,028	0,030
-669,320	800,000	0,049	0,129
-668,305	108,136	-0,027	0,023
-667,291	67,364	-0,038	-0,029
-666,276	800,000	0,045	-0,102
-665,262	374,033	-0,105	-0,158
-664,247	128,379	0,102	0,095
-663,232	180,080	-0,077	0,082
-662,218	184,110	0,034	0,037
-661,203	-27,455	0,018	0,008
-660,189	-200,000	0,013	0,131
-659,174	190,404	-0,136	-0,149
-658,159	18,327	-0,174	-0,102
-657,145	-200,000	0,003	0,057
-656,130	460,481	-0,082	0,135
-655,116	195,776	-0,046	-0,051
-654,101	-79,782	0,162	-0,040
-653,086	-34,633	-0,107	0,043
-652,072	489,339	0,043	0,072
-651,057	800,000	-0,022	0,058
-650,043	-33,987	-0,037	-0,015
-649,028	41,285	-0,016	0,011
-648,014	28,155	0,063	-0,039
-646,999	76,470	-0,095	-0,074
-645,984	-10,603	0,056	-0,027
-644,970	37,673	-0,080	-0,052
-643,955	800,000	-0,017	-0,053
-642,941	56,810	-0,065	-0,046
-641,926	-39,786	0,144	-0,055
-640,911	-65,892	0,098	-0,028
-639,897	355,780	-0,110	0,160
-638,882	51,394	-0,034	-0,024
-637,868	-64,424	-0,077	-0,023
-636,853	177,318	-0,070	-0,075
-635,838	378,368	0,053	0,079
-634,824	5,918	-0,087	0,047
-633,809	-180,178	-0,127	-0,002
-632,795	267,686	-0,046	0,058
-631,780	800,000	-0,044	0,107
-630,765	-66,480	0,141	0,041
-629,751	800,000	0,010	-0,023
-628,736	628,394	-0,058	-0,107
-627,722	69,518	-0,077	-0,058
-626,707	800,000	0,063	0,167
-625,692	-200,000	-0,001	0,103
-624,678	745,086	-0,083	-0,165
-623,663	-200,000	0,002	0,109
-622,649	14,982	0,044	0,025
-621,634	-4,734	-0,102	-0,052
-620,619	506,728	-0,092	-0,157
-619,605	-110,241	0,096	-0,015
-618,590	-114,850	-0,022	0,003
-617,576	-144,660	-0,143	-0,009
-616,561	343,170	0,069	-0,099
-615,546	-200,000	0,001	0,134
-614,532	1,506	-0,062	0,033
-613,517	475,974	0,047	0,078
-612,503	-200,000	0,004	0,182
-611,488	-200,000	0,015	0,052
-610,474	-200,000	0,008	0,103
-609,459	-134,049	0,071	-0,006
-608,444	-35,881	-0,129	0,051
-607,430	124,958	-0,065	0,060
-606,415	-132,235	0,073	0,007
-605,401	-157,862	0,148	0,006
-604,386	183,298	0,047	0,051
-603,371	800,000	0,072	-0,146
-602,357	-200,000	0,006	-0,041
-601,342	115,810	-0,026	0,023
-600,328	-138,419	0,061	0,005
-599,313	-200,000	0,021	-0,070
-598,298	-200,000	0,013	-0,088
-597,284	-200,000	-0,004	-0,057
-596,269	-200,000	0,002	0,113
-595,255	344,394	0,043	0,062
-594,240	-52,359	-0,078	0,026
-593,225	291,204	-0,129	-0,172
-592,211	-200,000	0,021	-0,109
-591,196	187,728	-0,095	-0,104
-590,182	-200,000	-0,009	0,100
-589,167	-200,000	-0,017	-0,082
-588,152	-200,000	0,026	-0,095
-587,138	185,657	-0,080	0,087
-586,123	-200,000	-0,020	-0,129
-585,109	200,473	-0,128	-0,144
-584,094	39,800	0,127	-0,083
-583,079	-200,000	0,003	-0,059
-582,065	311,060	-0,003	-0,004
-581,050	222,877	-0,098	-0,116
-580,036	-88,706	0,018	0,004
-579,021	443,052	0,074	0,118
-578,006	171,036	-0,057	-0,060
-576,992	38,791	-0,026	-0,017
-575,977	-200,000	-0,027	0,124
-574,963	-156,411	-0,201	0,009
-573,948	-200,000	0,016	0,074
-572,934	800,000	0,073	0,164
-571,919	325,833	0,007	-0,010
-570,904	-200,000	0,001	-0,065
-569,890	-200,000	0,000	0,016
-568,875	-109,965	-0,027	0,004
-567,861	-128,728	0,092	0,009
-566,846	197,586	0,048	-0,054
-565,831	800,000	-0,037	0,086
-564,817	-118,464	-0,069	0,009
-563,802	800,000	-0,064	-0,164
-562,788	-200,000	0,028	-0,212
-561,773	-200,000	0,004	-0,067
-560,758	-112,499	0,072	-0,010
-559,744	-114,462	-0,056	0,008
-558,729	-200,000	-0,004	-0,016
-557,715	-120,313	-0,059	-0,007
-556,700	-39,137	-0,073	-0,028
-555,685	-117,897	0,048	0,006
-554,671	35,145	-0,113	-0,072
-553,656	800,000	-0,021	-0,055
-552,642	247,936	0,010	0,013
-551,627	46,237	-0,023	-0,015
-550,612	44,514	0,111	0,074
-549,598	-41,613	0,063	0,024
-548,583	-200,000	0,031	-0,131
-547,569	114,021	0,022	-0,020
-546,554	-200,000	0,011	-0,039
-545,539	800,000	0,005	-0,010
-544,525	-95,093	-0,113	0,022
-543,510	-81,897	0,100	0,024
-542,496	-21,235	-0,157	-0,070
-541,481	84,647	-0,104	-0,083
-540,466	94,267	0,047	-0,039
-539,452	-93,638	0,224	0,045
-538,437	41,437	0,118	0,078
-537,423	-32,942	-0,045	0,018
-536,408	800,000	0,012	-0,037
-535,393	15,532	0,018	-0,010
-534,379	800,000	-0,029	-0,078
-533,364	800,000	0,033	-0,069
-532,350	800,000	-0,010	-0,028
-531,335	800,000	0,022	-0,053
-530,321	-135,968	-0,076	0,006
-529,306	-123,669	0,022	-0,003
-528,291	304,362	0,021	0,028
-527,277	-86,316	-0,057	0,013
-526,262	4,056	0,072	0,038
-525,248	-200,000	0,002	0,022
-524,233	278,245	0,083	0,108
-523,218	322,156	-0,016	-0,023
-522,204	-24,453	0,078	0,034
-521,189	800,000	0,028	0,067
-520,175	42,034	-0,132	-0,087
-519,160	-52,775	-0,039	-0,013
-518,145	98,246	-0,046	0,038
-517,131	-200,000	-0,008	0,059
-516,116	-31,011	-0,103	0,042
-515,102	-86,944	0,062	-0,014
-514,087	-53,292	-0,037	-0,012
-513,072	338,233	0,062	-0,088
-512,058	-200,000	-0,011	0,121
-511,043	153,876	0,061	-0,061
-510,029	-163,709	0,200	0,007
-509,014	337,388	-0,030	0,042
-507,999	-200,000	0,002	-0,016
-506,985	20,519	0,074	-0,043
-505,970	79,281	-0,036	-0,028
-504,956	-30,749	-0,047	-0,019
-503,941	71,228	0,083	0,063
-502,926	-142,646	0,081	-0,006
-501,912	-200,000	0,014	0,065
-500,897	99,852	0,032	0,027
-499,883	-200,000	0,020	-0,131
-498,868	-162,137	-0,101	-0,004
-497,853	-200,000	0,016	0,052
-496,839	24,556	-0,030	-0,018
-495,824	247,043	0,056	0,068
-494,810	2,207	0,118	-0,062
-493,795	-200,000	-0,012	0,106
-492,781	-40,560	-0,121	-0,046
-491,766	-200,000	-0,010	-0,121
-490,751	13,720	-0,055	0,031
-489,737	800,000	0,074	-0,154
-488,722	-200,000	-0,007	0,027
-487,708	349,648	0,085	0,123
-486,693	800,000	0,020	0,061
-485,678	266,326	-0,096	-0,122
-484,664	11,233	-0,065	-0,036
-483,649	-87,353	-0,054	-0,012
-482,635	-200,000	-0,047	-0,211
-481,620	-200,000	-0,010	-0,059
-480,605	-94,833	0,074	-0,015
-479,591	-200,000	0,023	0,172
-478,576	519,525	0,061	0,104
-477,562	598,130	-0,033	-0,060
-476,547	162,470	0,039	-0,040
-475,532	214,356	0,038	0,044
-474,518	134,039	-0,122	0,115
-473,503	616,877	0,010	-0,018
-472,489	-200,000	0,002	-0,131
-471,474	322,295	-0,083	0,115
-470,459	178,328	0,029	-0,031
-469,445	800,000	0,055	-0,124
-468,430	-36,861	0,084	0,032
-467,416	-200,000	-0,018	0,119
-466,401	42,870	0,105	-0,070
-465,386	-109,863	-0,071	-0,011
-464,372	-12,911	0,030	0,014
-463,357	-30,994	-0,112	0,046
-462,343	-200,000	-0,008	-0,121
-461,328	83,380	0,067	0,053
-460,313	-123,588	0,120	-0,014
-459,299	800,000	0,050	0,121
-458,284	800,000	0,025	0,072
-457,270	184,968	-0,140	0,151
-456,255	-147,284	-0,168	0,010
-455,241	160,793	0,062	0,063
-454,226	-186,836	0,060	0,001
-453,211	50,262	-0,079	0,054
-452,197	467,222	-0,027	0,044
-451,182	154,573	0,108	0,108
-450,168	-200,000	-0,001	0,052
-449,153	-163,642	0,062	0,002
-448,138	446,357	-0,024	-0,038
-447,124	43,651	-0,092	0,061
-446,109	188,765	0,063	0,068
-445,095	-200,000	-0,011	0,111
-444,080	380,408	0,008	-0,012
-443,065	-110,852	0,056	0,008
-442,051	21,368	-0,164	0,096
-441,036	677,143	0,052	-0,098
-440,022	-13,094	0,114	-0,053
-439,007	-104,882	-0,032	0,005
-437,992	-48,077	0,092	-0,032
-436,978	-51,083	0,009	-0,003
-435,963	313,407	-0,063	0,087
-434,949	5,917	-0,015	-0,008
-433,934	518,151	0,066	-0,113
-432,919	800,000	-0,021	0,045
-431,905	-48,128	-0,092	0,032
-430,890	109,716	0,149	-0,130
-429,876	95,362	-0,071	-0,059
-428,861	444,401	-0,078	0,125
-427,846	551,667	0,027	0,048
-426,832	-123,241	-0,188	0,022
-425,817	800,000	-0,052	0,120
-424,803	-200,000	-0,001	0,072
-423,788	-14,530	0,076	0,035
-422,773	95,744	-0,058	-0,048
-421,759	-200,000	-0,006	0,018
-420,744	-150,786	-0,101	-0,005
-419,730	99,598	-0,068	-0,057
-418,715	754,406	0,031	-0,062
-417,701	183,493	0,025	0,026
-416,686	-200,000	-0,000	-0,083
-415,671	-200,000	0,002	0,031
-414,657	-11,829	0,026	-0,012
-413,642	96,286	-0,125	0,104
-412,628	-200,000	-0,011	-0,041
-411,613	-65,559	-0,020	0,006
-410,598	117,692	-0,032	-0,029
-409,584	-200,000	0,144	-0,000
-408,569	79,330	0,127	0,099
-407,555	-71,647	-0,023	0,006
-406,540	-200,000	0,012	0,161
-405,525	-200,000	0,057	0,187
-404,511	74,205	-0,090	0,069
-403,496	-80,653	-0,069	0,016
-402,482	-137,689	0,068	-0,005
-401,467	-200,000	0,013	-0,066
-400,452	14,972	0,169	0,096
-399,438	800,000	-0,056	0,124
-398,423	108,083	-0,042	0,037
-397,409	-29,216	-0,066	-0,027
-396,394	332,054	0,094	-0,132
-395,379	79,178	0,079	0,061
-394,365	41,071	0,049	0,032
-393,350	-60,040	0,154	-0,047
-392,336	172,111	-0,079	0,082
-391,321	563,955	-0,035	-0,061
-390,306	-109,554	0,145	-0,022
-389,292	-53,438	0,036	-0,012
-388,277	465,001	0,070	0,115
-387,263	-160,402	0,027	-0,001
-386,248	438,959	0,091	0,145
-385,233	-200,000	0,001	0,018
-384,219	405,407	0,019	0,029
-383,204	-85,994	-0,064	0,014
-382,190	-6,712	0,067	0,033
-381,175	-200,000	-0,016	-0,071
-380,160	521,177	-0,079	-0,134
-379,146	-81,754	-0,066	-0,016
-378,131	-54,487	-0,063	-0,021
-377,117	800,000	0,019	0,050
-376,102	1,623	-0,093	-0,049
-375,088	-200,000	-0,022	0,115
-374,073	800,000	-0,067	0,139
-373,058	-200,000	-0,002	-0,021
-372,044	21,317	0,108	0,063
-371,029	155,360	0,140	0,140
-370,015	-57,250	0,037	-0,012
-369,000	800,000	0,042	-0,121
-367,985	-200,000	0,005	-0,029
-366,971	137,562	-0,015	0,014
-365,956	6,907	0,159	-0,085
-364,942	245,996	0,062	0,076
-363,927	-103,909	0,199	0,033
-362,912	0,138	-0,013	0,007
-361,898	230,607	-0,004	-0,005
-360,883	-200,000	-0,000	0,084
-359,869	219,987	0,073	-0,085
-358,854	40,272	0,064	0,042
-357,839	-180,561	-0,102	-0,001
-356,825	-200,000	0,001	-0,032
-355,810	-200,000	0,015	-0,082
-354,796	-20,104	0,018	0,008
-353,781	-200,000	0,017	0,062
-352,766	40,327	-0,100	0,065
-351,752	800,000	0,042	0,094
-350,737	-94,272	0,099	0,019
-349,723	105,923	-0,026	0,022
-348,708	392,776	-0,046	0,070
-347,693	-156,173	-0,205	0,009
-346,679	-30,499	-0,036	-0,015
-345,664	-73,756	-0,063	0,016
-344,650	21,475	-0,111	0,065
-343,635	-153,273	0,145	-0,007
-342,620	-33,139	-0,012	0,005
-341,606	181,509	-0,026	0,028
-340,591	-56,320	-0,058	0,019
-339,577	-132,121	-0,088	-0,008
-338,562	-33,071	0,045	-0,018
-337,548	-101,014	-0,133	-0,023
-336,533	-52,701	-0,117	-0,039
-335,518	800,000	0,019	-0,061
-334,504	127,166	-0,101	-0,092
-333,489	54,488	-0,108	-0,075
-332,475	75,804	-0,091	-0,069
-331,460	342,384	0,062	-0,088
-330,445	68,740	-0,100	0,074
-329,431	-82,856	0,067	-0,016
-328,416	-200,000	0,038	0,185
-327,402	58,535	-0,022	0,016
-326,387	-200,000	0,015	0,059
-325,372	177,173	0,098	0,103
-324,358	4,105	-0,063	-0,033
-323,343	365,555	0,047	0,069
-322,329	-16,263	-0,040	0,018
-321,314	-108,803	0,106	0,016
-320,299	-200,000	0,004	0,042
-319,285	91,138	-0,030	-0,024
-318,270	169,165	-0,227	-0,235
-317,256	-90,703	-0,075	-0,016
-316,241	680,750	-0,011	-0,020
-315,226	-200,000	0,022	0,081
-314,212	-103,254	0,133	-0,023
-313,197	-164,953	0,096	0,003
-312,183	499,644	-0,056	0,094
-311,168	417,258	-0,047	-0,072
-310,153	-200,000	-0,019	0,000
-309,139	0,513	0,162	-0,083
-308,124	-200,000	-0,013	0,045
-307,110	21,873	0,016	-0,009
-306,095	-187,550	0,144	-0,001
-305,080	-69,896	-0,136	-0,037
-304,066	-200,000	0,001	0,035
-303,051	-200,000	0,016	0,156
-302,037	710,364	-0,016	0,030
-301,022	309,145	-0,035	-0,047
-300,008	233,803	0,132	-0,158
-298,993	-200,000	0,016	0,143
-297,978	800,000	0,021	0,048
-296,964	270,976	-0,058	-0,074
-295,949	39,592	0,097	-0,063
-294,935	-63,998	0,115	0,034
-293,920	-200,000	-0,009	-0,042
-292,905	-130,524	0,150	-0,014
-291,891	-69,439	-0,094	-0,026
-290,876	-29,001	0,035	-0,014
-289,862	209,987	-0,111	-0,126
-288,847	20,245	-0,127	-0,074
-287,832	-200,000	-0,012	-0,038
-286,818	-200,000	0,002	0,109
-285,803	199,015	0,028	0,031
-284,789	-30,259	-0,137	-0,056
-283,774	800,000	0,052	0,109
-282,759	327,924	-0,029	0,040
-281,745	330,276	-0,072	-0,101
-280,730	196,826	0,087	-0,096
-279,716	-200,000	-0,010	0,041
-278,701	29,902	0,078	-0,048
-277,686	57,403	-0,182	0,128
-276,672	18,183	0,063	0,036
-275,657	611,784	-0,034	-0,062
-274,643	-103,008	-0,070	0,012
-273,628	-7,130	-0,076	-0,037
-272,613	332,959	-0,019	-0,026
-271,599	-0,524	0,082	0,042
-270,584	800,000	0,018	-0,037
-269,570	-12,781	0,054	-0,026
-268,555	-200,000	0,008	0,095
-267,540	-40,616	0,112	0,042
-266,526	-172,360	-0,152	-0,003
-265,511	-117,709	0,089	0,011
-264,497	30,091	-0,065	0,040
-263,482	-200,000	0,018	0,061
-262,467	-108,341	-0,109	-0,017
-261,453	-18,671	0,130	0,058
-260,438	399,289	-0,124	-0,188
-259,424	800,000	-0,003	-0,007
-258,409	-200,000	-0,005	0,096
-257,395	800,000	0,026	-0,055
-256,380	800,000	0,049	-0,142
-255,365	22,532	-0,072	-0,043
-254,351	-200,000	-0,000	-0,068
-253,336	800,000	0,069	-0,173
-252,322	-200,000	0,000	0,015
-251,307	190,813	-0,029	-0,031
-250,292	-19,048	0,080	0,036
-249,278	31,491	0,097	0,060
-248,263	734,722	-0,086	-0,166
-247,249	-131,202	0,074	-0,007
-246,234	481,163	0,069	-0,114
-245,219	-88,270	-0,062	0,013
-244,205	-200,000	-0,007	-0,070
-243,190	286,518	-0,081	0,106
-242,176	-200,000	-0,013	-0,045
-241,161	552,216	-0,031	0,054
-240,146	255,664	0,071	0,088
-239,132	-35,279	-0,023	0,009
-238,117	368,681	0,060	0,087
-237,103	-200,000	-0,007	-0,128
-236,088	-200,000	0,043	0,149
-235,073	-91,912	0,139	0,028
-234,059	49,019	0,075	-0,050
-233,044	-160,847	-0,088	-0,003
-232,030	-76,030	0,019	-0,005
-231,015	44,687	-0,064	-0,042
-230,000	-76,857	-0,089	0,022
-228,986	-200,000	-0,013	-0,104
-227,971	18,602	0,078	0,045
-226,957	41,916	-0,037	0,024
-225,942	-106,194	-0,117	-0,019
-224,927	144,361	0,029	0,028
-223,913	-64,813	0,072	0,021
-222,898	426,231	-0,020	0,031
-221,884	-200,000	-0,003	0,026
-220,869	-53,230	0,079	0,026
-219,855	47,829	0,105	0,071
-218,840	-200,000	0,012	0,053
-217,825	-134,296	-0,067	0,006
-216,811	800,000	-0,033	0,069
-215,796	800,000	-0,033	-0,075
-214,782	433,661	0,006	-0,009
-213,767	-73,730	-0,113	0,029
-212,752	-200,000	0,005	-0,033
-211,738	800,000	-0,017	-0,051
-210,723	516,425	0,020	0,033
-209,709	-107,400	0,071	0,011
-208,694	-82,305	-0,194	-0,045
-207,679	251,710	0,018	-0,022
-206,665	-39,115	-0,092	-0,035
-205,650	60,789	0,137	0,098
-204,636	188,251	0,111	-0,119
-203,621	-200,000	-0,014	0,100
-202,606	-20,648	-0,043	-0,019
-201,592	-200,000	0,021	-0,241
-200,577	-200,000	0,011	0,117
-199,563	-200,000	-0,038	-0,146
-198,548	800,000	-0,016	0,037
-197,533	-157,969	0,099	0,004
-196,519	32,789	0,121	0,075
-195,504	-200,000	-0,004	-0,016
-194,490	-43,006	-0,107	-0,039
-193,475	103,622	0,087	-0,074
-192,460	-200,000	0,003	-0,145
-191,446	-14,709	0,085	-0,039
-190,431	-45,524	0,071	0,025
-189,417	-47,000	0,127	-0,044
-188,402	238,151	0,074	-0,089
-187,387	424,998	-0,048	-0,075
-186,373	-200,000	0,012	-0,061
-185,358	643,697	0,082	-0,151
-184,344	-158,379	0,080	-0,003
-183,329	-200,000	-0,006	-0,065
-182,315	-31,216	-0,088	0,036
-181,300	-117,483	-0,134	0,017
-180,285	-45,340	-0,056	-0,020
-179,271	158,857	-0,024	0,024
-178,256	-90,672	-0,062	0,013
-177,242	-159,734	-0,118	-0,005
-176,227	-200,000	-0,013	0,078
-175,212	-177,659	0,078	0,001
-174,198	306,070	-0,073	0,098
-173,183	-147,853	0,106	0,006
-172,169	111,130	-0,085	0,073
-171,154	-91,377	0,170	-0,035
-170,139	27,592	-0,027	-0,016
-169,125	373,866	-0,105	0,154
-168,110	175,663	0,051	0,054
-167,096	-56,207	-0,111	0,035
-166,081	-200,000	-0,000	0,002
-165,066	-97,175	-0,102	-0,019
-164,052	-139,968	0,107	-0,008
-163,037	800,000	-0,058	0,152
-162,023	-200,000	0,017	0,060
-161,008	78,350	-0,117	-0,089
-159,993	-200,000	0,014	0,044
-158,979	54,864	-0,048	-0,033
-157,964	-75,599	0,173	-0,044
-156,950	-200,000	-0,002	-0,100
-155,935	-35,557	0,080	-0,031
-154,920	20,844	0,117	0,068
-153,906	173,704	0,084	-0,087
-152,891	703,245	-0,058	-0,110
-151,877	358,476	-0,108	-0,156
-150,862	800,000	0,020	-0,052
-149,847	132,721	-0,051	-0,047
-148,833	93,329	0,079	-0,064
-147,818	800,000	0,049	0,108
-146,804	-173,588	0,101	-0,002
-145,789	11,322	-0,040	-0,022
-144,775	-50,421	0,193	-0,065
-143,760	472,390	-0,049	-0,080
-142,745	-171,591	-0,117	0,003
-141,731	628,143	0,076	-0,139
-140,716	403,798	0,056	0,085
-139,702	113,756	0,086	-0,075
-138,687	288,887	-0,023	0,030
-137,672	-96,425	0,070	-0,013
-136,658	133,213	-0,097	-0,090
-135,643	-200,000	0,040	-0,184
-134,629	-200,000	-0,003	-0,093
-133,614	422,937	0,038	0,058
-132,599	-118,629	0,085	0,011
-131,585	800,000	-0,041	0,108
-130,570	-145,230	-0,134	-0,009
-129,556	98,926	-0,059	-0,049
-128,541	-128,368	-0,064	-0,006
-127,526	-68,779	-0,050	-0,014
-126,512	178,531	0,019	-0,020
-125,497	53,229	0,052	-0,036
-124,483	38,677	0,023	-0,015
-123,468	-200,000	-0,012	0,068
-122,453	-80,399	-0,236	-0,056
-121,439	658,277	0,053	-0,099
-120,424	64,227	-0,144	0,104
-119,410	-133,533	0,125	-0,011
-118,395	375,375	-0,012	-0,017
-117,380	704,856	0,029	0,056
-116,366	150,973	0,063	0,061
-115,351	-52,709	-0,087	-0,029
-114,337	-93,230	-0,088	-0,017
-113,322	662,825	0,042	0,079
-112,307	-200,000	0,006	0,032
-111,293	342,028	0,107	0,151
-110,278	800,000	0,065	0,176
-109,264	108,500	-0,056	0,048
-108,249	-110,905	0,087	0,013
-107,234	240,472	0,045	-0,053
-106,220	72,942	-0,076	0,057
-105,205	-200,000	0,028	-0,145
-104,191	-73,625	0,134	0,035
-103,176	333,095	0,036	0,050
-102,162	256,334	0,062	0,076
-101,147	-135,059	-0,140	0,012
-100,132	508,163	-0,051	-0,086
-99,118	307,821	-0,072	-0,096
-98,103	800,000	-0,033	-0,089
-97,089	-34,778	0,118	0,046
-96,074	-33,564	0,172	0,068
-95,059	-200,000	-0,019	0,088
-94,045	-200,000	-0,005	-0,082
-93,030	513,256	-0,034	-0,058
-92,016	800,000	-0,048	0,097
-91,001	800,000	-0,024	0,074
-89,986	-7,001	-0,087	-0,042
-88,972	-30,062	0,019	-0,008
-87,957	-200,000	-0,030	0,168
-86,943	312,070	-0,108	0,146
-85,928	396,011	-0,045	0,068
-84,913	196,949	0,015	0,016
-83,899	-52,872	0,078	0,026
-82,884	800,000	-0,047	0,106
-81,870	-200,000	0,016	0,075
-80,855	800,000	-0,022	0,059
-79,840	339,903	0,069	0,096
-78,826	-200,000	-0,014	-0,081
-77,811	77,343	-0,073	0,056
-76,797	-147,667	-0,163	0,010
-75,782	281,624	-0,037	0,048
-74,767	157,326	0,126	-0,125
-73,753	-200,000	-0,012	-0,136
-72,738	96,344	0,029	-0,024
-71,724	-200,000	-0,044	-0,144
-70,709	532,276	0,048	0,081
-69,694	-144,092	0,076	0,005
-68,680	-18,248	-0,087	-0,039
-67,665	0,844	0,012	-0,006
-66,651	-200,000	0,016	-0,126
-65,636	-36,630	0,106	-0,040
-64,622	4,936	-0,099	-0,052
-63,607	-200,000	0,006	-0,056
-62,592	342,789	-0,053	-0,074
-61,578	260,069	0,060	-0,074
-60,563	42,042	0,098	-0,064
-59,549	66,894	0,118	0,086
-58,534	54,118	-2,205	-1,517
-57,519	-200,000	-0,036	-0,591
-56,505	-200,000	-1,385	-5,098
-55,490	147,871	0,897	0,866
-54,476	800,000	5,384	12,248
-53,461	-200,000	18,970	321,296
-52,446	800,000	742,443	2324,969
-51,432	547,692	1655,139	2848,051
-50,417	109,545	1637,206	1404,154
-49,403	73,103	1287,985	962,905
-48,388	29,315	1029,383	624,582
-47,373	19,557	992,543	569,968
-46,359	16,805	980,223	553,831
-45,344	13,359	976,699	540,511
-44,330	13,650	974,951	540,474
-43,315	13,048	973,198	537,512
-42,300	13,029	971,889	536,705
-41,286	13,037	971,109	536,278
-40,271	12,968	970,117	535,485
-39,257	12,968	969,246	534,981
-38,242	12,983	968,421	534,554
-37,227	13,017	967,347	534,051
-36,213	12,962	966,629	533,454
-35,198	12,986	965,578	532,931
-34,184	13,020	965,036	532,722
-33,169	12,993	963,969	532,022
-32,154	13,056	962,903	531,617
-31,140	13,040	962,168	531,139
-30,125	13,009	961,468	530,633
-29,111	13,003	960,657	530,142
-28,096	13,085	959,905	529,972
-27,082	13,083	959,207	529,560
-26,067	13,048	958,474	529,022
-25,052	13,102	957,564	528,670
-24,038	13,041	957,112	528,206
-23,023	12,971	956,673	527,716
-22,009	13,037	955,857	527,459
-20,994	13,094	955,118	527,211
-19,979	13,070	954,778	526,925
-18,965	12,999	954,152	526,333
-17,950	13,066	953,482	526,156
-16,936	13,003	952,659	525,478
-15,921	12,982	952,156	525,114
-14,906	12,958	951,254	524,519
-13,892	12,901	950,827	524,081
-12,877	12,920	950,029	523,681
-11,863	12,917	949,522	523,371
-10,848	12,893	948,924	522,944
-9,833	13,042	948,407	523,112
-8,819	13,012	947,644	522,575
-7,804	12,975	946,984	522,074
-6,790	12,955	946,556	521,752
-5,775	12,972	945,959	521,456
-4,760	12,975	945,263	521,063
-3,746	12,888	944,705	520,459
-2,731	12,838	943,929	519,853
-1,717	12,742	943,378	519,221
-0,702	12,789	942,579	518,912
0,313	12,572	942,065	518,724
1,327	16,098	940,058	528,714
2,342	25,335	790,510	468,952
3,356	21,447	445,074	258,244
4,371	-7,957	298,549	143,542
5,386	-11,760	280,387	131,156
6,400	-13,143	274,814	127,239
7,415	-12,945	272,507	126,343
8,429	-13,033	270,834	125,476
9,444	-13,236	269,986	124,884
10,459	-13,208	269,293	124,578
11,473	-13,385	268,564	124,067
12,488	-13,486	268,114	123,756
13,502	-13,604	267,498	123,352
14,517	-13,591	267,228	123,229
15,531	-13,384	266,503	123,072
16,546	-13,423	266,390	122,974
17,561	-13,327	265,963	122,852
18,575	-13,282	265,644	122,735
19,590	-13,494	265,350	122,396
20,604	-13,428	265,047	122,306
21,619	-13,408	264,582	122,098
22,634	-13,545	264,399	121,879
23,648	-13,525	264,003	121,703
24,663	-13,550	263,746	121,551
25,677	-13,285	263,465	121,650
26,692	-13,333	263,184	121,467
27,707	-13,463	262,963	121,236
28,721	-13,524	262,637	121,021
29,736	-13,348	262,184	120,958
30,750	-13,498	262,018	120,738
31,765	-13,705	261,931	120,501
32,780	-13,352	261,336	120,531
33,794	-13,553	261,508	120,421
34,809	-13,563	261,322	120,315
35,823	-13,697	260,868	119,976
36,838	-13,572	260,560	119,935
37,853	-13,612	260,504	119,863
38,867	-13,664	260,188	119,662
39,882	-13,648	259,852	119,510
40,896	-13,623	259,782	119,489
41,911	-13,828	259,416	119,129
42,926	-13,755	259,380	119,166
43,940	-13,612	258,882	119,054
44,955	-13,698	258,629	118,851
45,969	-13,689	258,466	118,773
46,984	-13,914	258,155	118,422
47,999	-14,162	258,065	118,151
49,013	-14,269	257,699	117,879
50,028	-14,212	257,303	117,738
51,042	-14,287	256,960	117,505
52,057	-14,424	256,916	117,354
53,071	-14,352	256,660	117,290
54,086	-14,388	256,589	117,215
55,101	-14,145	256,332	117,300
56,115	-13,941	256,237	117,423
57,130	-13,692	256,267	117,644
58,144	-13,382	256,086	117,821
59,159	-13,249	255,763	117,778
60,174	-13,280	255,549	117,642
61,188	-13,173	255,308	117,613
62,203	-13,340	255,101	117,363
63,217	-13,400	254,840	117,179
64,232	-13,402	254,693	117,100
65,247	-13,307	254,474	117,071
66,261	-13,346	254,160	116,883
67,276	-13,656	253,885	116,478
68,290	-13,829	253,607	116,191
69,305	-14,025	253,370	115,902
70,320	-13,873	253,264	115,974
71,334	-13,587	253,005	116,092
72,349	-13,236	252,980	116,372
73,363	-13,499	252,834	116,069
74,378	-13,060	252,514	116,288
75,393	-13,367	252,366	115,946
76,407	-13,519	252,073	115,671
77,422	-13,620	251,915	115,502
78,436	-13,483	251,741	115,529
79,451	-13,463	251,510	115,430
80,466	-13,609	251,123	115,118
81,480	-13,673	250,850	114,927
82,495	-13,788	250,880	114,833
83,509	-13,612	250,565	114,828
84,524	-13,549	250,224	114,715
85,539	-13,956	250,139	114,320
86,553	-13,848	249,912	114,298
87,568	-13,685	249,718	114,337
88,582	-13,681	249,413	114,190
89,597	-13,780	249,379	114,081
90,611	-13,492	249,218	114,241
91,626	-13,291	249,023	114,312
92,641	-13,594	248,827	113,956
93,655	-13,622	248,688	113,857
94,670	-13,554	248,567	113,850
95,684	-13,702	248,260	113,574
96,699	-13,482	248,020	113,639
97,714	-13,565	247,857	113,485
98,728	-13,821	247,535	113,112
99,743	-13,952	247,416	112,938
100,757	-14,082	247,305	112,769
101,772	-13,934	247,005	112,746
102,787	-13,957	246,968	112,699
103,801	-13,736	246,614	112,712
104,816	-13,638	246,618	112,786
105,830	-13,361	246,391	112,903
106,845	-13,529	246,233	112,681
107,860	-13,535	246,075	112,594
108,874	-13,529	245,663	112,400
109,889	-13,460	245,471	112,359
110,903	-13,612	245,233	112,114
111,918	-13,606	245,121	112,058
112,933	-13,524	245,046	112,081
113,947	-13,724	245,001	111,885
114,962	-13,670	244,659	111,764
115,976	-13,604	244,514	111,742
116,991	-13,580	244,299	111,654
118,006	-13,369	244,083	111,720
119,020	-13,412	243,934	111,606
120,035	-13,591	243,861	111,415
121,049	-13,493	243,777	111,447
122,064	-13,433	243,372	111,302
123,079	-13,552	243,356	111,186
124,093	-13,731	243,102	110,913
125,108	-13,890	242,896	110,679
126,122	-13,923	242,595	110,504
127,137	-14,071	242,383	110,276
128,151	-14,061	242,243	110,212
129,166	-13,983	241,984	110,147
130,181	-14,002	241,910	110,089
131,195	-14,055	241,670	109,926
132,210	-13,842	241,538	110,030
133,224	-13,578	241,390	110,169
134,239	-13,538	241,205	110,107
135,254	-13,354	240,887	110,101
136,268	-13,659	240,781	109,795
137,283	-13,931	240,524	109,448
138,297	-14,128	240,356	109,200
139,312	-14,006	240,117	109,182
140,327	-13,803	240,061	109,311
141,341	-13,103	240,017	109,849
142,356	-13,211	239,889	109,693
143,370	-13,140	239,734	109,669
144,385	-13,091	239,650	109,661
145,400	-13,069	239,372	109,542
146,414	-13,021	239,205	109,495
147,429	-13,063	239,017	109,365
148,443	-13,229	238,839	109,140
149,458	-13,340	238,590	108,927
150,473	-13,384	238,502	108,842
151,487	-13,364	238,224	108,721
152,502	-13,374	238,305	108,740
153,516	-13,249	238,094	108,735
154,531	-13,181	237,845	108,666
155,546	-13,347	237,669	108,443
156,560	-13,296	237,413	108,357
157,575	-13,563	237,201	108,037
158,589	-13,235	237,069	108,230
159,604	-13,189	236,977	108,215
160,619	-13,136	236,897	108,211
161,633	-13,367	236,800	107,973
162,648	-13,135	236,583	108,049
163,662	-13,151	236,241	107,871
164,677	-13,549	236,158	107,506
165,692	-13,163	236,074	107,765
166,706	-13,038	235,848	107,752
167,721	-13,134	235,783	107,636
168,735	-13,015	235,517	107,600
169,750	-13,147	235,485	107,471
170,764	-13,259	235,365	107,318
171,779	-13,069	235,101	107,338
172,794	-13,027	235,056	107,341
173,808	-13,456	234,813	106,881
174,823	-13,843	234,387	106,372
175,837	-13,855	234,254	106,293
176,852	-13,467	234,230	106,579
177,867	-13,161	234,141	106,770
178,881	-13,051	233,876	106,726
179,896	-13,260	233,797	106,516
180,910	-13,203	233,610	106,467
181,925	-13,002	233,498	106,564
182,940	-12,886	233,247	106,531
183,954	-13,122	233,276	106,350
184,969	-13,028	232,989	106,283
185,983	-12,994	232,857	106,240
186,998	-12,772	232,731	106,347
188,013	-13,047	232,606	106,065
189,027	-13,111	232,392	105,907
190,042	-13,106	232,252	105,839
191,056	-12,974	232,061	105,845
192,071	-12,935	231,920	105,801
193,086	-12,805	231,696	105,792
194,100	-12,939	231,611	105,639
195,115	-13,438	231,223	105,064
196,129	-13,156	231,300	105,309
197,144	-7,414	233,195	110,660
198,159	-1,444	235,147	116,277
199,173	2,722	236,122	120,034
200,188	3,101	236,100	120,311
201,202	3,054	236,049	120,237
202,217	3,084	235,793	120,119
203,232	3,067	235,760	120,078
204,246	3,367	235,594	120,218
205,261	3,298	235,471	120,091
206,275	3,688	235,341	120,319
207,290	3,414	235,353	120,101
208,304	3,673	235,053	120,139
209,319	3,413	234,805	119,798
210,334	3,594	234,541	119,794
211,348	3,345	234,448	119,542
212,363	2,860	234,076	118,963
213,377	2,582	234,011	118,703
214,392	2,519	233,902	118,588
215,407	2,748	233,908	118,759
216,421	2,761	233,628	118,617
217,436	2,837	233,375	118,536
218,450	2,943	232,916	118,375
219,465	2,510	232,902	118,022
220,480	2,652	232,913	118,127
221,494	2,395	232,839	117,879
222,509	2,675	232,818	118,075
223,523	2,831	232,468	118,007
224,538	2,656	232,309	117,781
225,553	2,641	232,295	117,752
226,567	2,781	232,086	117,744
227,582	3,245	231,953	118,024
228,596	3,102	231,868	117,860
229,611	3,127	231,485	117,674
230,626	2,644	231,474	117,285
231,640	2,775	231,230	117,252
232,655	2,806	231,303	117,303
233,669	3,255	231,029	117,498
234,684	3,294	230,876	117,440
235,699	2,992	230,900	117,210
236,713	2,880	230,561	116,942
237,728	2,874	230,306	116,797
238,742	2,799	230,059	116,604
239,757	2,622	230,115	116,487
240,772	2,811	229,849	116,486
241,786	2,858	229,776	116,474
242,801	3,036	229,703	116,563
243,815	3,169	229,685	116,645
244,830	3,197	229,314	116,467
245,844	3,107	229,245	116,353
246,859	2,863	228,972	116,019
247,874	3,013	228,942	116,108
248,888	3,175	228,706	116,101
249,903	3,066	228,626	115,966
250,917	2,799	228,511	115,695
251,932	2,757	228,362	115,578
252,947	2,763	228,002	115,390
253,961	2,589	228,013	115,254
254,976	2,696	227,720	115,176
255,990	3,030	227,703	115,409
257,005	3,004	227,613	115,335
258,020	3,024	227,401	115,232
259,034	3,170	227,381	115,321
260,049	3,011	227,206	115,103
261,063	2,970	227,016	114,965
262,078	3,080	227,068	115,064
263,093	3,111	226,916	115,000
264,107	2,931	226,753	114,772
265,122	3,003	226,537	114,706
266,136	3,378	226,341	114,878
267,151	3,544	226,119	114,879
268,166	2,945	225,955	114,337
269,180	2,531	225,655	113,866
270,195	2,673	225,682	113,975
271,209	2,859	225,423	113,973
272,224	2,703	225,477	113,874
273,239	2,835	225,195	113,820
274,253	2,732	225,138	113,704
275,268	2,575	224,878	113,446
276,282	2,440	224,757	113,274
277,297	2,462	224,572	113,187
278,312	2,932	224,414	113,446
279,326	2,853	224,287	113,314
280,341	2,928	224,234	113,332
281,355	2,931	224,105	113,260
282,370	2,793	224,034	113,111
283,384	2,593	223,749	112,809
284,399	2,663	223,503	112,726
285,414	2,625	223,340	112,606
286,428	2,865	223,330	112,769
287,443	2,824	223,371	112,749
288,457	2,969	223,123	112,720
289,472	2,859	222,752	112,442
290,487	2,329	222,619	111,974
291,501	2,500	222,351	111,956
292,516	2,680	222,350	112,078
293,530	2,380	222,153	111,748
294,545	2,467	222,225	111,839
295,560	2,455	222,157	111,785
296,574	2,681	221,897	111,810
297,589	2,556	221,803	111,661
298,603	2,990	221,662	111,898
299,618	2,793	221,633	111,729
300,633	3,022	221,329	111,733
301,647	3,088	221,339	111,776
302,662	2,988	221,176	111,612
303,676	3,057	220,933	111,530
304,691	3,043	220,812	111,448
305,706	3,246	220,734	111,547
306,720	2,958	220,523	111,221
307,735	2,760	220,377	110,993
308,749	2,672	220,276	110,868
309,764	2,986	220,087	110,991
310,779	2,969	220,018	110,934
311,793	2,804	219,857	110,723
312,808	3,066	219,636	110,792
313,822	2,929	219,467	110,598
314,837	2,886	219,335	110,490
315,852	2,371	219,218	110,049
316,866	2,846	219,307	110,428
317,881	3,025	219,030	110,408
318,895	3,043	218,809	110,299
319,910	2,897	218,616	110,087
320,925	2,431	218,495	109,680
321,939	2,474	218,245	109,575
322,954	2,512	218,186	109,564
323,968	2,613	218,393	109,731
324,983	2,670	218,107	109,618
325,997	2,796	218,147	109,719
327,012	2,980	217,692	109,613
328,027	2,929	217,631	109,535
329,041	3,237	217,595	109,729
330,056	3,326	217,374	109,671
331,070	2,943	217,197	109,298
332,085	2,725	217,006	109,036
333,100	2,588	216,893	108,872
334,114	2,799	216,632	108,882
335,129	2,484	216,430	108,546
336,143	2,584	216,456	108,621
337,158	3,066	216,514	108,984
338,173	3,080	216,354	108,903
339,187	2,790	216,043	108,531
340,202	2,659	215,800	108,306
341,216	2,479	215,734	108,135
342,231	2,626	215,507	108,116
343,246	2,870	215,540	108,296
344,260	2,803	215,446	108,192
345,275	2,893	215,241	108,143
346,289	2,901	215,176	108,106
347,304	2,708	214,963	107,853
348,319	2,807	214,768	107,816
349,333	2,966	214,582	107,825
350,348	2,845	214,585	107,731
351,362	3,043	214,501	107,820
352,377	3,086	214,375	107,777
353,392	2,709	214,259	107,444
354,406	2,822	214,068	107,417
355,421	197,442	1314,471	1393,540
356,435	158,003	1448,482	1393,485
