DTS Sentinel unit serial number:	SN410029Multiplexer serial number:	ORYXHardware model number:	OX2-SRSoftware version number:	ORYX F/W v4,00 Oryx Data Collector v3.7.2.0data status	okinstallation	B6 Nyhavnadifferential loss correction	single-endedforward channel	channel 2reverse channel	N/Adate	2023/12/10time	00:30:08forward acquisition time	300,00reverse acquisition time	0,00gamma	499,1914k internal	0,3126k external	0,3126temperature offset calibration	1,0000default loss term (dB/km)	0,3820temperature slope calibration	1,0000multiplexer offset coefficient	1,0000multiplexer slope coefficient	1,0000fibre end	0,00T internal ref (°C)	21,82T ext. ref 1 (°C)	5,70T ext. ref 2 (°C)	5,71length (m)	temperature (°C)	Stokes	anti-Stokes-744,400	-200,000	0,059	0,000
-743,385	-135,404	-0,232	-0,020
-742,371	-124,066	0,093	-0,011
-741,356	-34,729	-0,314	0,127
-740,342	-200,000	-0,002	-0,111
-739,327	-156,076	-0,200	0,009
-738,312	-107,360	0,003	0,000
-737,298	-181,302	-0,268	0,004
-736,283	800,000	0,047	-0,142
-735,269	191,344	-0,110	0,124
-734,254	-200,000	0,036	-0,127
-733,239	-9,845	-0,325	-0,160
-732,225	-3,574	0,119	-0,061
-731,210	-5,395	0,141	0,072
-730,196	285,612	-0,086	0,115
-729,181	342,584	-0,035	0,052
-728,167	-12,531	-0,118	-0,057
-727,152	-23,676	0,055	0,024
-726,137	-67,069	-0,122	-0,036
-725,123	-200,000	0,016	0,055
-724,108	-200,000	-0,022	-0,095
-723,094	800,000	-0,062	-0,171
-722,079	-81,393	-0,062	0,015
-721,064	-46,033	0,098	0,036
-720,050	-200,000	0,027	0,123
-719,035	52,829	-0,116	0,082
-718,021	731,390	-0,026	-0,052
-717,006	239,677	-0,092	-0,114
-715,991	167,477	-0,042	-0,045
-714,977	-33,707	-0,158	-0,065
-713,962	-200,000	0,042	-0,192
-712,948	800,000	-0,009	-0,028
-711,933	-111,692	-0,055	0,008
-710,918	41,497	0,048	-0,032
-709,904	-200,000	-0,012	-0,121
-708,889	800,000	-0,083	-0,180
-707,875	800,000	-0,013	0,027
-706,860	-66,396	0,074	-0,022
-705,845	22,445	0,103	0,062
-704,831	73,166	-0,058	-0,045
-703,816	-200,000	0,014	0,158
-702,802	230,966	-0,107	0,130
-701,787	-200,000	-0,003	-0,254
-700,772	649,580	-0,054	-0,104
-699,758	-200,000	0,008	0,057
-698,743	-200,000	0,013	0,110
-697,729	511,645	0,051	0,088
-696,714	-200,000	-0,020	0,086
-695,699	-78,032	-0,088	-0,022
-694,685	94,590	-0,027	-0,022
-693,670	67,033	0,034	-0,026
-692,656	106,895	0,068	0,060
-691,641	175,587	-0,027	0,029
-690,627	41,513	-0,080	-0,054
-689,612	625,381	0,055	0,104
-688,597	-182,923	-0,088	0,001
-687,583	-78,212	-0,151	-0,038
-686,568	-43,891	-0,052	0,019
-685,554	-26,509	-0,020	-0,009
-684,539	133,546	-0,087	-0,084
-683,524	107,558	0,020	-0,018
-682,510	800,000	0,051	0,130
-681,495	568,354	-0,012	0,023
-680,481	23,498	0,048	0,029
-679,466	800,000	0,017	-0,053
-678,451	800,000	-0,016	-0,040
-677,437	255,751	0,033	0,042
-676,422	-200,000	-0,012	0,049
-675,408	-200,000	-0,004	0,020
-674,393	45,548	-0,101	-0,069
-673,378	800,000	-0,023	-0,048
-672,364	236,903	-0,076	-0,093
-671,349	-200,000	-0,016	0,065
-670,335	-0,867	0,016	-0,009
-669,320	-200,000	-0,016	-0,098
-668,305	59,921	0,055	-0,041
-667,291	12,799	0,048	0,027
-666,276	446,876	0,037	-0,060
-665,262	114,381	-0,102	-0,092
-664,247	395,109	0,025	-0,038
-663,232	-200,000	-0,003	-0,095
-662,218	800,000	-0,062	0,140
-661,203	-68,200	0,127	-0,036
-660,189	246,065	-0,031	-0,039
-659,174	-123,556	-0,137	0,016
-658,159	-200,000	-0,018	-0,134
-657,145	-200,000	-0,019	-0,123
-656,130	306,628	0,017	0,023
-655,116	-200,000	0,005	-0,093
-654,101	7,676	-0,032	-0,018
-653,086	-200,000	-0,036	0,136
-652,072	-4,187	-0,072	-0,037
-651,057	-58,898	-0,086	0,028
-650,043	-200,000	-0,020	-0,129
-649,028	800,000	-0,027	-0,078
-648,014	-200,000	-0,003	0,046
-646,999	-136,408	0,027	-0,002
-645,984	205,712	-0,063	-0,073
-644,970	268,834	0,007	-0,009
-643,955	-200,000	-0,027	-0,125
-642,941	95,243	-0,058	0,049
-641,926	-46,167	-0,039	0,014
-640,911	239,716	0,060	-0,075
-639,897	-87,971	-0,091	0,020
-638,882	-200,000	0,002	0,012
-637,868	62,001	-0,127	-0,094
-636,853	800,000	-0,021	-0,054
-635,838	597,157	-0,057	-0,105
-634,824	-18,527	0,021	-0,009
-633,809	800,000	0,009	-0,025
-632,795	400,722	0,106	0,165
-631,780	19,009	-0,039	0,023
-630,765	-111,109	-0,064	-0,010
-629,751	800,000	-0,027	-0,078
-628,736	365,725	-0,114	-0,172
-627,722	112,156	-0,059	-0,053
-626,707	138,343	-0,087	0,084
-625,692	72,311	-0,041	0,031
-624,678	800,000	-0,024	0,071
-623,663	-200,000	-0,019	-0,111
-622,649	-200,000	-0,043	-0,163
-621,634	-200,000	-0,009	-0,091
-620,619	188,260	-0,055	-0,061
-619,605	-118,468	-0,119	-0,015
-618,590	800,000	-0,025	-0,074
-617,576	-12,808	0,050	-0,024
-616,561	-78,796	-0,115	0,029
-615,546	4,076	-0,075	0,041
-614,532	156,305	-0,193	-0,197
-613,517	800,000	0,031	-0,073
-612,503	-1,210	0,052	-0,027
-611,488	-39,690	0,049	-0,019
-610,474	-155,222	-0,067	0,003
-609,459	54,236	-0,153	0,109
-608,444	-167,615	0,095	0,003
-607,430	102,818	0,067	0,058
-606,415	413,998	-0,016	0,026
-605,401	25,149	-0,100	-0,062
-604,386	28,407	0,014	0,009
-603,371	-147,678	0,114	0,007
-602,357	33,587	-0,120	0,077
-601,342	800,000	0,031	-0,095
-600,328	-200,000	-0,010	-0,097
-599,313	238,315	0,015	0,018
-598,298	8,822	0,061	-0,034
-597,284	82,102	0,022	-0,018
-596,269	123,041	-0,052	0,048
-595,255	800,000	0,039	0,113
-594,240	-12,682	-0,141	-0,068
-593,225	-67,299	0,084	0,024
-592,211	800,000	-0,032	-0,091
-591,196	188,769	-0,129	0,143
-590,182	-7,153	-0,091	0,046
-589,167	184,266	0,107	0,118
-588,152	110,458	0,137	0,122
-587,138	527,878	-0,025	0,043
-586,123	-200,000	-0,044	-0,165
-585,109	255,857	-0,018	0,023
-584,094	800,000	0,044	0,112
-583,079	-200,000	-0,011	0,045
-582,065	-8,584	-0,048	0,024
-581,050	-156,119	-0,102	-0,005
-580,036	-84,681	0,057	0,013
-579,021	366,870	-0,023	-0,034
-578,006	134,356	-0,039	-0,037
-576,992	21,726	0,181	0,109
-575,977	158,557	0,051	0,053
-574,963	316,563	-0,019	-0,026
-573,948	541,832	0,022	0,040
-572,934	55,149	-0,050	0,036
-571,919	189,472	-0,087	0,097
-570,904	-133,591	0,118	0,011
-569,890	-83,055	-0,056	0,013
-568,875	226,947	0,133	0,160
-567,861	-92,525	-0,059	-0,012
-566,846	537,027	0,040	0,070
-565,831	-200,000	0,010	-0,039
-564,817	-200,000	-0,012	-0,110
-563,802	43,037	0,006	0,004
-562,788	-53,037	-0,146	0,049
-561,773	-114,620	0,041	0,006
-560,758	-200,000	-0,057	-0,000
-559,744	800,000	-0,039	0,114
-558,729	331,784	-0,044	0,063
-557,715	113,247	0,055	-0,049
-556,700	-97,582	-0,069	-0,013
-555,685	-200,000	-0,030	0,133
-554,671	66,291	0,060	-0,045
-553,656	508,532	-0,051	0,089
-552,642	26,073	0,013	0,008
-551,627	17,887	-0,061	0,036
-550,612	16,166	0,097	0,057
-549,598	685,904	-0,040	-0,077
-548,583	-157,105	-0,133	-0,006
-547,569	-30,365	0,121	0,051
-546,554	-81,984	0,099	0,024
-545,539	-76,741	0,079	-0,020
-544,525	409,846	0,006	-0,009
-543,510	-200,000	-0,030	0,140
-542,496	-41,984	-0,046	0,017
-541,481	136,908	-0,017	-0,016
-540,466	686,565	-0,042	-0,082
-539,452	-168,841	-0,070	-0,002
-538,437	797,004	0,058	0,118
-537,423	62,695	0,033	-0,024
-536,408	532,488	-0,061	0,107
-535,393	-133,734	0,071	-0,006
-534,379	6,741	-0,143	0,078
-533,364	-200,000	-0,006	0,128
-532,350	-200,000	0,023	0,102
-531,335	-57,769	-0,048	-0,015
-530,321	-57,864	-0,036	-0,011
-529,306	110,328	0,058	0,052
-528,291	-200,000	-0,028	0,143
-527,277	-132,090	-0,108	-0,010
-526,262	-104,042	0,107	-0,018
-525,248	392,341	0,005	0,007
-524,233	-200,000	0,016	0,101
-523,218	-102,265	0,142	-0,025
-522,204	658,824	-0,040	-0,076
-521,189	-72,903	-0,045	0,012
-520,175	-200,000	-0,010	-0,092
-519,160	-132,383	-0,045	0,004
-518,145	-200,000	-0,008	0,035
-517,131	701,340	-0,040	0,079
-516,116	-135,414	0,114	-0,010
-515,102	181,711	0,049	-0,053
-514,087	-49,939	-0,039	0,014
-513,072	118,057	-0,067	0,061
-512,058	-114,812	-0,051	-0,007
-511,043	323,261	-0,065	-0,091
-510,029	85,975	0,163	0,133
-509,014	800,000	-0,026	0,063
-507,999	-71,347	-0,036	0,010
-506,985	-100,374	-0,134	-0,024
-505,970	779,826	-0,032	-0,065
-504,956	31,994	0,112	0,071
-503,941	122,751	0,119	0,110
-502,926	-57,226	0,095	0,031
-501,912	-200,000	-0,020	0,087
-500,897	-200,000	0,006	0,036
-499,883	-114,983	-0,024	0,003
-498,868	-100,456	0,098	0,018
-497,853	-47,588	0,007	0,002
-496,839	120,576	0,067	-0,061
-495,824	40,908	0,018	0,012
-494,810	-114,043	-0,033	0,005
-493,795	-85,663	-0,102	-0,023
-492,781	578,690	-0,046	0,083
-491,766	-36,485	-0,036	0,014
-490,751	462,411	0,022	0,037
-489,737	-91,834	0,053	0,011
-488,722	800,000	0,017	0,048
-487,708	21,011	-0,042	0,025
-486,693	-16,011	0,078	0,036
-485,678	-200,000	-0,016	-0,115
-484,664	252,984	-0,038	-0,047
-483,649	800,000	-0,057	-0,168
-482,635	-200,000	0,009	-0,123
-481,620	500,346	-0,071	0,121
-480,605	-200,000	-0,004	0,086
-479,591	-200,000	-0,008	0,047
-478,576	-200,000	-0,008	0,040
-477,562	102,805	-0,094	0,081
-476,547	374,645	0,019	-0,028
-475,532	32,196	-0,105	0,066
-474,518	800,000	-0,040	-0,119
-473,503	-63,758	0,122	0,036
-472,489	666,259	0,080	0,153
-471,474	-200,000	-0,000	0,072
-470,459	-200,000	-0,025	-0,149
-469,445	-125,066	0,075	-0,008
-468,430	124,043	0,059	-0,054
-467,416	-200,000	0,007	-0,056
-466,401	122,893	-0,099	-0,092
-465,386	-200,000	0,007	-0,136
-464,372	84,744	0,016	0,013
-463,357	187,702	-0,037	-0,041
-462,343	594,425	-0,047	-0,086
-461,328	30,687	-0,048	-0,030
-460,313	208,671	-0,047	0,054
-459,299	247,769	-0,014	0,018
-458,284	-81,053	0,072	-0,017
-457,270	58,937	-0,137	-0,099
-456,255	19,110	-0,052	0,031
-455,241	-200,000	0,011	-0,170
-454,226	-200,000	-0,011	-0,122
-453,211	-164,179	0,077	0,003
-452,197	-52,299	0,068	0,023
-451,182	800,000	0,027	-0,066
-450,168	2,754	0,074	-0,039
-449,153	172,838	0,028	-0,030
-448,138	-79,437	-0,069	0,017
-447,124	-43,410	0,116	-0,043
-446,109	-200,000	0,022	-0,089
-445,095	1,000	0,046	-0,024
-444,080	11,944	-0,081	-0,046
-443,065	-10,214	0,017	0,008
-442,051	-200,000	0,003	0,072
-441,036	102,788	-0,107	-0,092
-440,022	481,549	0,044	0,073
-439,007	-31,745	0,026	-0,011
-437,992	275,797	0,091	0,120
-436,978	800,000	0,079	0,172
-435,963	172,510	0,069	-0,073
-434,949	3,166	0,077	0,041
-433,934	800,000	0,077	-0,195
-432,919	29,375	0,075	-0,047
-431,905	337,796	-0,069	0,099
-430,890	-31,218	0,056	0,023
-429,876	-42,082	0,141	-0,053
-428,861	549,431	-0,043	0,075
-427,846	-129,410	-0,113	-0,011
-426,832	261,742	-0,026	-0,034
-425,817	41,187	0,047	0,031
-424,803	-108,215	0,049	-0,008
-423,788	-2,114	0,053	0,027
-422,773	508,592	-0,013	0,022
-421,759	158,737	-0,032	-0,033
-420,744	-118,603	-0,108	-0,014
-419,730	204,785	-0,092	-0,105
-418,715	-200,000	-0,005	0,138
-417,701	366,770	-0,107	0,159
-416,686	27,562	0,052	0,032
-415,671	-200,000	0,024	0,171
-414,657	-87,169	0,146	0,032
-413,642	6,656	0,058	0,032
-412,628	-45,486	-0,152	-0,055
-411,613	-58,210	-0,088	-0,028
-410,598	-6,529	-0,049	-0,024
-409,584	-84,080	-0,042	0,010
-408,569	102,356	0,096	0,083
-407,555	800,000	-0,010	0,021
-406,540	177,971	-0,041	0,044
-405,525	-200,000	0,028	-0,104
-404,511	-200,000	-0,006	0,050
-403,496	307,896	0,064	-0,089
-402,482	-52,235	0,042	0,014
-401,467	-166,811	0,092	0,003
-400,452	13,910	-0,076	-0,043
-399,438	-200,000	-0,027	0,157
-398,423	-50,550	-0,194	0,067
-397,409	-30,119	0,036	0,015
-396,394	98,056	0,097	0,082
-395,379	3,283	0,118	-0,063
-394,365	373,936	0,059	0,089
-393,350	800,000	-0,036	0,100
-392,336	730,638	-0,011	-0,021
-391,321	-29,477	-0,125	-0,052
-390,306	20,546	-0,085	-0,050
-389,292	800,000	-0,050	0,155
-388,277	153,236	-0,075	0,075
-387,263	38,247	-0,093	-0,061
-386,248	-200,000	-0,013	0,061
-385,233	227,531	0,015	0,018
-384,219	174,508	-0,029	0,031
-383,204	768,774	0,033	-0,066
-382,190	800,000	-0,026	-0,063
-381,175	-200,000	0,008	-0,067
-380,160	-25,779	-0,110	-0,047
-379,146	-140,047	0,070	-0,005
-378,131	387,008	-0,043	0,066
-377,117	53,296	0,071	-0,050
-376,102	-58,383	0,076	-0,024
-375,088	-200,000	-0,011	-0,101
-374,073	800,000	0,026	0,064
-373,058	9,195	-0,017	0,009
-372,044	-27,453	0,088	-0,037
-371,029	-114,932	-0,061	-0,008
-370,015	-120,970	0,067	-0,008
-369,000	-200,000	-0,004	0,021
-367,985	-22,657	-0,233	-0,103
-366,971	605,340	0,051	-0,094
-365,956	-200,000	0,009	0,054
-364,942	-200,000	0,000	0,094
-363,927	-200,000	0,042	0,172
-362,912	113,932	0,004	0,003
-361,898	-200,000	-0,019	-0,087
-360,883	516,344	-0,030	-0,051
-359,869	-87,612	0,097	0,021
-358,854	-200,000	-0,011	-0,055
-357,839	43,673	0,013	-0,009
-356,825	-51,520	-0,105	0,036
-355,810	-200,000	-0,040	-0,141
-354,796	19,415	0,029	-0,017
-353,781	442,739	-0,030	-0,048
-352,766	-200,000	0,012	0,053
-351,752	335,282	-0,040	0,058
-350,737	266,408	0,050	0,065
-349,723	39,355	-0,101	0,066
-348,708	-25,632	0,029	0,013
-347,693	-84,941	0,053	-0,012
-346,679	109,255	0,048	0,042
-345,664	-127,064	-0,185	0,020
-344,650	333,279	0,024	0,034
-343,635	54,206	0,186	-0,131
-342,620	-200,000	-0,005	-0,107
-341,606	-11,880	0,130	0,062
-340,591	334,495	-0,022	-0,032
-339,577	-56,797	0,034	0,011
-338,562	-7,596	-0,065	0,032
-337,548	-88,537	0,124	-0,027
-336,533	-200,000	-0,017	0,092
-335,518	-12,103	-0,064	-0,030
-334,504	-200,000	-0,014	-0,142
-333,489	-200,000	-0,032	-0,162
-332,475	-200,000	-0,015	-0,108
-331,460	112,909	-0,149	-0,132
-330,445	111,770	0,082	-0,072
-329,431	800,000	0,034	-0,095
-328,416	127,321	-0,013	0,012
-327,402	76,271	0,178	0,138
-326,387	103,254	-0,082	-0,071
-325,372	800,000	0,024	-0,055
-324,358	-7,922	0,086	-0,043
-323,343	432,917	-0,043	-0,069
-322,329	224,180	-0,058	-0,069
-321,314	-200,000	-0,001	-0,098
-320,299	-200,000	-0,009	-0,074
-319,285	-53,956	0,094	-0,031
-318,270	-75,304	0,010	-0,003
-317,256	-200,000	0,019	-0,164
-316,241	-93,146	0,031	0,006
-315,226	-200,000	0,003	0,076
-314,212	96,110	0,091	-0,076
-313,197	-104,138	0,074	0,012
-312,183	402,872	0,081	0,125
-311,168	11,127	-0,091	0,051
-310,153	800,000	0,025	-0,066
-309,139	97,163	-0,076	-0,064
-308,124	146,227	0,087	-0,085
-307,110	98,236	-0,063	0,053
-306,095	745,220	0,026	0,051
-305,080	-61,213	0,021	-0,006
-304,066	800,000	0,015	0,043
-303,051	715,617	0,047	-0,093
-302,037	-74,958	-0,147	-0,038
-301,022	800,000	0,028	-0,075
-300,008	288,621	-0,008	-0,011
-298,993	251,228	-0,088	-0,109
-297,978	-156,695	-0,060	-0,003
-296,964	-23,228	0,150	0,066
-295,949	-200,000	0,005	0,105
-294,935	-200,000	0,008	-0,028
-293,920	-146,476	0,020	-0,001
-292,905	-44,166	-0,100	0,036
-291,891	-200,000	-0,002	0,052
-290,876	-20,755	0,122	0,054
-289,862	-143,798	0,036	-0,002
-288,847	-48,928	0,082	-0,028
-287,832	800,000	0,048	-0,123
-286,818	800,000	0,063	-0,147
-285,803	800,000	0,047	0,142
-284,789	27,416	-0,105	0,064
-283,774	108,897	0,034	0,030
-282,759	568,049	-0,056	-0,101
-281,745	218,145	-0,043	-0,050
-280,730	800,000	0,018	-0,056
-279,716	-140,472	-0,070	0,005
-278,701	-200,000	0,249	0,001
-277,686	-200,000	-0,026	0,144
-276,672	119,415	-0,066	0,060
-275,657	800,000	-0,013	-0,030
-274,643	598,090	-0,058	-0,105
-273,628	-76,922	0,040	-0,010
-272,613	174,548	0,011	-0,012
-271,599	800,000	0,011	0,026
-270,584	-131,599	0,058	-0,006
-269,570	545,662	-0,022	0,039
-268,555	-149,872	-0,043	0,002
-267,540	-200,000	-0,030	-0,109
-266,526	219,930	0,065	-0,076
-265,511	-17,813	-0,021	-0,010
-264,497	-43,593	-0,040	-0,015
-263,482	800,000	-0,015	0,044
-262,467	800,000	0,035	0,082
-261,453	329,441	0,066	-0,092
-260,438	-54,441	0,041	0,014
-259,424	484,299	-0,040	-0,067
-258,409	-41,032	-0,085	0,032
-257,395	-51,537	-0,048	-0,016
-256,380	47,702	-0,018	-0,012
-255,365	59,313	0,140	0,101
-254,351	-200,000	-0,027	0,000
-253,336	430,559	-0,076	-0,121
-252,322	22,017	0,207	-0,123
-251,307	125,059	0,103	-0,095
-250,292	201,268	-0,032	-0,036
-249,278	457,208	0,094	-0,153
-248,263	-200,000	-0,005	0,023
-247,249	76,294	0,083	-0,064
-246,234	301,000	-0,081	-0,109
-245,219	51,055	-0,088	-0,061
-244,205	800,000	0,030	-0,061
-243,190	252,799	-0,052	0,064
-242,176	201,215	0,077	0,086
-241,161	-72,156	-0,125	0,034
-240,146	499,029	0,069	0,117
-239,132	-200,000	-0,002	0,134
-238,117	-200,000	0,002	-0,047
-237,103	-57,095	-0,040	0,013
-236,088	158,225	0,057	0,058
-235,073	241,174	0,059	-0,072
-234,059	-62,046	-0,099	0,030
-233,044	-75,180	0,134	-0,035
-232,030	225,608	0,028	-0,033
-231,015	116,679	-0,040	0,036
-230,000	614,372	-0,014	0,025
-228,986	629,465	-0,023	0,042
-227,971	-200,000	0,015	0,089
-226,957	-114,086	-0,102	-0,014
-225,942	-200,000	0,000	-0,042
-224,927	-88,790	0,104	-0,022
-223,913	89,610	-0,045	-0,036
-222,898	-151,015	-0,172	0,009
-221,884	-200,000	0,017	-0,072
-220,869	94,907	0,132	0,110
-219,855	62,149	0,085	-0,062
-218,840	413,708	-0,018	0,028
-217,825	79,891	0,018	-0,014
-216,811	-200,000	-0,026	-0,119
-215,796	-200,000	0,000	-0,065
-214,782	522,577	0,044	0,076
-213,767	-200,000	0,034	-0,134
-212,752	-189,530	-0,048	-0,000
-211,738	61,969	0,147	0,107
-210,723	128,023	0,076	0,071
-209,709	401,060	-0,025	0,038
-208,694	103,931	-0,055	-0,047
-207,679	218,551	0,032	-0,038
-206,665	125,050	-0,058	0,054
-205,650	-200,000	0,005	0,163
-204,636	-91,831	0,058	-0,012
-203,621	-101,761	0,115	-0,020
-202,606	-72,144	0,051	0,014
-201,592	-1,252	-0,160	0,082
-200,577	-129,261	0,049	-0,005
-199,563	-70,409	0,092	-0,025
-198,548	-200,000	-0,020	0,094
-197,533	-63,899	0,050	0,015
-196,519	-181,930	0,125	-0,002
-195,504	800,000	-0,016	0,042
-194,490	284,411	-0,012	-0,015
-193,475	-57,150	-0,068	0,022
-192,460	-26,395	-0,065	0,028
-191,446	-159,995	0,007	-0,000
-190,431	-42,430	0,104	-0,039
-189,417	-101,109	-0,050	0,009
-188,402	46,983	-0,076	0,052
-187,387	-83,075	-0,033	0,008
-186,373	172,187	-0,052	0,054
-185,358	-142,058	0,019	0,001
-184,344	108,406	0,106	-0,093
-183,329	5,685	0,063	-0,034
-182,315	70,286	0,045	-0,034
-181,300	603,677	-0,005	-0,010
-180,285	113,848	0,029	-0,025
-179,271	800,000	0,023	0,058
-178,256	-71,605	0,049	-0,013
-177,242	304,286	-0,070	-0,094
-176,227	191,780	0,032	-0,035
-175,212	-46,047	0,084	0,030
-174,198	800,000	0,029	0,076
-173,183	97,216	-0,062	-0,052
-172,169	350,309	0,037	0,053
-171,154	800,000	-0,051	-0,151
-170,139	-200,000	0,009	0,204
-169,125	-200,000	-0,034	0,142
-168,110	57,397	0,015	-0,010
-167,096	260,932	0,065	-0,081
-166,081	-200,000	0,006	0,048
-165,066	-79,859	-0,135	0,033
-164,052	586,634	-0,056	0,100
-163,037	-200,000	-0,007	0,054
-162,023	-91,862	0,067	0,014
-161,008	-174,706	0,116	0,002
-159,993	23,440	0,086	-0,051
-158,979	606,532	0,022	-0,040
-157,964	22,397	-0,064	0,038
-156,950	-200,000	-0,003	0,132
-155,935	-54,634	0,047	0,015
-154,920	-32,570	-0,109	0,044
-153,906	-133,889	-0,035	-0,003
-152,891	-59,717	0,158	0,049
-151,877	-119,772	-0,095	0,012
-150,862	-84,341	-0,086	-0,020
-149,847	-64,083	-0,121	0,036
-148,833	113,707	0,108	-0,096
-147,818	800,000	0,010	0,029
-146,804	501,275	-0,053	0,090
-145,789	328,686	0,023	-0,032
-144,775	800,000	-0,019	0,057
-143,760	-200,000	-0,027	-0,174
-142,745	-200,000	-0,004	-0,110
-141,731	79,627	-0,052	-0,041
-140,716	-200,000	-0,019	-0,093
-139,702	364,366	0,044	0,065
-138,687	-200,000	-0,007	-0,040
-137,672	800,000	0,023	-0,069
-136,658	-35,751	-0,094	0,037
-135,643	217,027	0,032	0,037
-134,629	-127,817	-0,128	-0,013
-133,614	70,229	0,089	-0,067
-132,599	-200,000	-0,001	-0,093
-131,585	661,468	0,074	-0,139
-130,570	-78,949	-0,111	-0,027
-129,556	123,445	-0,083	0,076
-128,541	-200,000	-0,041	-0,193
-127,526	-200,000	-0,001	0,116
-126,512	-200,000	-0,022	-0,084
-125,497	-200,000	0,013	0,218
-124,483	-158,729	0,112	0,005
-123,468	-73,434	-0,013	-0,003
-122,453	-7,169	-0,117	-0,057
-121,439	800,000	-0,049	0,123
-120,424	199,888	0,031	0,035
-119,410	-8,167	0,052	-0,026
-118,395	800,000	-0,015	-0,049
-117,380	-200,000	-0,003	0,118
-116,366	-117,619	-0,035	-0,004
-115,351	-200,000	0,019	-0,076
-114,337	-200,000	-0,036	-0,122
-113,322	-200,000	-0,031	-0,107
-112,307	351,819	-0,056	-0,081
-111,293	327,987	-0,051	0,071
-110,278	18,163	0,172	0,100
-109,264	449,105	-0,082	0,131
-108,249	-50,401	-0,061	0,021
-107,234	-200,000	-0,014	-0,072
-106,220	-24,607	-0,091	-0,039
-105,205	199,854	0,108	0,120
-104,191	14,939	-0,116	0,066
-103,176	470,992	0,042	-0,069
-102,162	800,000	-0,052	0,123
-101,147	235,523	-0,045	0,054
-100,132	191,297	0,028	-0,031
-99,118	7,223	0,146	0,079
-98,103	-200,000	-0,018	-0,073
-97,089	-200,000	0,016	0,124
-96,074	0,160	0,119	0,062
-95,059	-3,726	0,113	0,057
-94,045	-200,000	-0,011	-0,087
-93,030	248,834	-0,025	-0,030
-92,016	-112,569	-0,060	-0,009
-91,001	5,853	0,087	0,047
-89,986	252,006	0,068	-0,084
-88,972	-61,251	0,065	0,020
-87,957	270,138	-0,011	0,014
-86,943	677,721	0,076	0,143
-85,928	326,426	0,036	-0,051
-84,913	-21,159	0,075	0,033
-83,899	449,119	-0,021	0,034
-82,884	-119,388	0,133	0,017
-81,870	-34,223	-0,059	0,023
-80,855	127,903	-0,041	0,038
-79,840	-5,067	0,055	0,027
-78,826	800,000	-0,004	0,011
-77,811	497,618	-0,020	-0,033
-76,797	-20,699	0,048	-0,021
-75,782	-145,367	0,059	-0,004
-74,767	-165,720	0,087	-0,003
-73,753	-200,000	-0,011	-0,092
-72,738	148,293	-0,035	0,035
-71,724	-94,486	-0,206	-0,040
-70,709	-200,000	0,012	-0,062
-69,694	-200,000	-0,014	0,068
-68,680	-200,000	-0,005	-0,021
-67,665	73,189	0,086	0,066
-66,651	433,124	-0,050	-0,080
-65,636	800,000	0,032	-0,078
-64,622	800,000	-0,024	0,061
-63,607	306,268	-0,079	-0,106
-62,592	81,259	-0,204	-0,159
-61,578	-71,315	0,059	0,016
-60,563	800,000	-0,037	0,082
-59,549	35,500	-0,041	0,026
-58,534	-101,513	-1,426	-0,249
-57,519	717,235	-0,795	-1,538
-56,505	-200,000	-1,010	-4,481
-55,490	-9,112	0,699	-0,338
-54,476	800,000	5,020	11,671
-53,461	-200,000	14,092	253,442
-52,446	-200,000	694,300	2237,475
-51,432	571,955	1624,520	2880,409
-50,417	117,300	1632,856	1455,273
-49,403	72,406	1286,628	971,170
-48,388	37,474	1023,060	656,406
-47,373	23,865	981,249	584,863
-46,359	23,073	970,692	575,955
-45,344	22,057	966,561	570,164
-44,330	21,989	964,970	568,981
-43,315	21,922	963,542	567,897
-42,300	21,883	962,551	567,166
-41,286	21,833	961,713	566,486
-40,271	21,861	960,610	565,904
-39,257	21,870	959,727	565,390
-38,242	21,842	958,661	564,651
-37,227	21,824	957,846	564,090
-36,213	21,804	957,089	563,557
-35,198	21,746	956,185	562,815
-34,184	21,819	955,511	562,630
-33,169	21,779	954,651	561,974
-32,154	21,834	953,675	561,552
-31,140	21,888	952,918	561,261
-30,125	21,859	952,082	560,653
-29,111	21,903	951,010	560,140
-28,096	21,862	950,584	559,735
-27,082	21,816	949,932	559,180
-26,067	21,853	949,088	558,781
-25,052	21,852	948,428	558,366
-24,038	21,824	947,710	557,830
-23,023	21,806	947,165	557,431
-22,009	21,905	946,374	557,259
-20,994	21,914	945,765	556,909
-19,979	21,867	945,048	556,312
-18,965	21,880	944,572	556,054
-17,950	21,880	943,976	555,681
-16,936	21,833	943,058	554,968
-15,921	21,788	942,455	554,449
-14,906	21,749	941,926	553,990
-13,892	21,759	941,051	553,486
-12,877	21,732	940,505	553,056
-11,863	21,695	940,057	552,655
-10,848	21,799	939,318	552,528
-9,833	21,837	939,030	552,459
-8,819	21,864	938,248	552,059
-7,804	21,734	937,744	551,330
-6,790	21,745	937,057	550,938
-5,775	21,723	936,359	550,437
-4,760	21,743	935,817	550,159
-3,746	21,706	935,222	549,673
-2,731	21,624	934,542	548,991
-1,717	21,561	933,694	548,273
-0,702	21,513	933,245	547,838
0,313	21,293	932,702	547,651
1,327	24,503	930,694	556,508
2,342	34,113	794,517	500,620
3,356	32,179	449,936	280,575
4,371	1,184	292,632	151,690
5,386	-3,508	273,683	137,433
6,400	-4,623	267,855	133,465
7,415	-5,148	265,548	131,822
8,429	-4,744	264,383	131,601
9,444	-4,885	263,470	131,007
10,459	-4,709	262,759	130,802
11,473	-4,947	262,346	130,369
12,488	-4,996	261,776	130,029
13,502	-5,141	261,299	129,651
14,517	-5,057	260,876	129,505
15,531	-5,103	260,465	129,248
16,546	-5,268	260,182	128,948
17,561	-4,956	259,599	128,927
18,575	-4,870	259,468	128,927
19,590	-4,962	259,018	128,610
20,604	-5,044	258,806	128,420
21,619	-5,032	258,463	128,249
22,634	-5,046	258,194	128,092
23,648	-4,968	257,709	127,908
24,663	-4,994	257,474	127,758
25,677	-5,072	257,364	127,623
26,692	-5,064	257,019	127,447
27,707	-4,947	256,692	127,377
28,721	-5,168	256,631	127,140
29,736	-5,059	256,213	127,018
30,750	-5,002	256,065	126,984
31,765	-5,214	255,874	126,690
32,780	-4,941	255,426	126,698
33,794	-5,077	255,260	126,485
34,809	-4,971	254,957	126,416
35,823	-5,191	254,866	126,167
36,838	-5,276	254,686	125,992
37,853	-4,971	254,359	126,086
38,867	-5,121	254,154	125,842
39,882	-5,162	254,042	125,740
40,896	-5,278	253,744	125,479
41,911	-5,237	253,459	125,363
42,926	-5,248	253,166	125,197
43,940	-5,170	253,042	125,193
44,955	-5,134	252,761	125,074
45,969	-5,183	252,529	124,905
46,984	-5,425	252,328	124,585
47,999	-5,635	252,098	124,278
49,013	-5,640	251,825	124,128
50,028	-5,715	251,686	123,984
51,042	-6,034	251,240	123,478
52,057	-6,035	251,264	123,478
53,071	-5,785	250,954	123,530
54,086	-5,936	250,758	123,291
55,101	-5,731	250,537	123,349
56,115	-5,417	250,479	123,580
57,130	-5,259	250,422	123,677
58,144	-4,740	250,077	123,940
59,159	-4,723	249,850	123,831
60,174	-4,705	249,703	123,764
61,188	-5,092	249,563	123,352
62,203	-5,021	249,365	123,303
63,217	-5,019	249,114	123,170
64,232	-4,962	248,778	123,041
65,247	-4,841	248,702	123,096
66,261	-4,929	248,469	122,894
67,276	-5,255	248,177	122,462
68,290	-5,459	248,065	122,222
69,305	-5,438	247,786	122,091
70,320	-5,399	247,496	121,971
71,334	-5,106	247,405	122,163
72,349	-4,963	247,362	122,253
73,363	-4,772	247,067	122,258
74,378	-4,974	246,849	121,968
75,393	-5,035	246,780	121,872
76,407	-5,043	246,510	121,720
77,422	-5,085	246,331	121,586
78,436	-4,962	246,060	121,545
79,451	-4,996	245,884	121,419
80,466	-5,092	245,728	121,250
81,480	-5,169	245,282	120,954
82,495	-5,347	245,260	120,783
83,509	-5,312	245,192	120,768
84,524	-5,295	244,901	120,628
85,539	-5,409	244,645	120,396
86,553	-5,295	244,419	120,369
87,568	-5,344	244,428	120,322
88,582	-5,300	244,133	120,203
89,597	-5,293	244,048	120,157
90,611	-5,100	243,774	120,172
91,626	-5,266	243,722	119,997
92,641	-5,230	243,540	119,926
93,655	-5,070	243,326	119,944
94,670	-5,223	243,064	119,677
95,684	-5,110	242,916	119,687
96,699	-4,846	242,558	119,719
97,714	-5,196	242,492	119,386
98,728	-5,251	242,312	119,241
99,743	-5,603	242,111	118,839
100,757	-5,352	241,877	118,922
101,772	-5,357	241,640	118,790
102,787	-5,265	241,556	118,814
103,801	-5,377	241,390	118,630
104,816	-5,174	241,251	118,719
105,830	-5,039	241,018	118,705
106,845	-5,093	240,992	118,637
107,860	-5,204	240,777	118,428
108,874	-5,115	240,545	118,377
109,889	-5,202	240,269	118,159
110,903	-5,070	240,121	118,184
111,918	-5,224	239,890	117,934
112,933	-5,347	239,883	117,819
113,947	-5,100	239,662	117,902
114,962	-5,058	239,588	117,890
115,976	-4,928	239,050	117,721
116,991	-4,963	239,109	117,711
118,006	-5,264	238,886	117,345
119,020	-5,092	238,881	117,472
120,035	-5,067	238,666	117,376
121,049	-4,987	238,510	117,355
122,064	-5,041	238,237	117,166
123,079	-5,046	238,155	117,111
124,093	-5,204	237,920	116,857
125,108	-5,379	237,856	116,673
126,122	-5,492	237,531	116,411
127,137	-5,475	237,203	116,254
128,151	-5,352	237,047	116,266
129,166	-5,182	236,966	116,353
130,181	-5,615	236,947	115,984
131,195	-5,424	236,593	115,955
132,210	-5,203	236,551	116,102
133,224	-5,234	236,391	115,988
134,239	-4,966	236,042	116,022
135,254	-5,022	236,099	115,995
136,268	-5,302	235,751	115,588
137,283	-5,537	235,663	115,346
138,297	-5,569	235,402	115,183
139,312	-5,510	235,249	115,145
140,327	-5,129	235,154	115,393
141,341	-5,011	235,197	115,499
142,356	-4,786	234,891	115,519
143,370	-4,867	234,835	115,416
144,385	-4,861	234,711	115,349
145,400	-4,635	234,315	115,324
146,414	-4,652	234,219	115,254
147,429	-4,945	234,099	114,951
148,443	-4,937	233,927	114,863
149,458	-4,852	233,699	114,808
150,473	-4,820	233,554	114,752
151,487	-4,949	233,461	114,593
152,502	-4,869	233,223	114,529
153,516	-4,874	232,957	114,385
154,531	-4,950	232,903	114,288
155,546	-4,890	232,810	114,279
156,560	-4,854	232,517	114,154
157,575	-4,824	232,373	114,097
158,589	-5,051	232,269	113,856
159,604	-4,937	232,134	113,870
160,619	-4,857	231,985	113,850
161,633	-4,916	231,883	113,743
162,648	-4,765	231,594	113,710
163,662	-4,920	231,499	113,531
164,677	-5,050	231,285	113,314
165,692	-4,932	231,161	113,337
166,706	-4,803	231,080	113,388
167,721	-4,699	230,871	113,357
168,735	-4,656	230,644	113,268
169,750	-4,689	230,591	113,207
170,764	-4,662	230,463	113,155
171,779	-4,714	230,323	113,036
172,794	-4,688	230,177	112,974
173,808	-4,794	229,976	112,782
174,823	-5,387	229,704	112,176
175,837	-5,488	229,562	112,018
176,852	-5,054	229,319	112,227
177,867	-4,808	229,324	112,412
178,881	-4,682	229,204	112,441
179,896	-4,633	228,970	112,354
180,910	-4,654	228,879	112,283
181,925	-4,667	228,646	112,149
182,940	-4,770	228,520	111,997
183,954	-4,690	228,257	111,920
184,969	-4,691	228,289	111,925
185,983	-4,723	228,216	111,854
186,998	-4,610	227,893	111,774
188,013	-4,724	227,918	111,688
189,027	-4,528	227,656	111,701
190,042	-4,622	227,520	111,552
191,056	-4,555	227,277	111,475
192,071	-4,419	227,149	111,506
193,086	-4,630	227,137	111,328
194,100	-4,560	226,833	111,222
195,115	-4,695	226,618	111,004
196,129	-5,010	226,478	110,683
197,144	-2,104	227,238	113,283
198,159	1,544	228,380	116,661
199,173	3,703	228,900	118,585
200,188	4,000	228,832	118,768
201,202	3,905	228,691	118,612
202,217	4,325	228,405	118,777
203,232	4,404	228,381	118,814
204,246	4,543	228,383	118,911
205,261	4,539	228,207	118,806
206,275	4,461	228,088	118,674
207,290	4,667	227,964	118,756
208,304	4,621	227,673	118,559
209,319	4,519	227,466	118,363
210,334	4,561	227,394	118,347
211,348	4,331	227,167	118,042
212,363	4,019	226,783	117,594
213,377	3,713	226,769	117,342
214,392	3,584	226,599	117,145
215,407	3,801	226,392	117,193
216,421	3,778	226,355	117,146
217,436	3,754	226,054	116,961
218,450	3,464	225,887	116,644
219,465	3,588	225,808	116,687
220,480	3,551	225,691	116,588
221,494	3,427	225,596	116,435
222,509	3,839	225,323	116,596
223,523	3,796	225,312	116,547
224,538	3,485	225,137	116,211
225,553	3,330	225,009	116,017
226,567	3,952	224,720	116,328
227,582	4,158	224,695	116,461
228,596	4,118	224,634	116,388
229,611	3,889	224,453	116,111
230,626	3,716	224,155	115,816
231,640	3,553	224,095	115,652
232,655	3,841	224,073	115,847
233,669	4,377	224,010	116,208
234,684	4,272	223,763	115,991
235,699	4,170	223,621	115,830
236,713	3,940	223,376	115,520
237,728	3,753	223,192	115,274
238,742	3,753	223,084	115,208
239,757	3,867	222,867	115,171
240,772	3,555	222,725	114,854
241,786	3,587	222,559	114,782
242,801	3,796	222,592	114,945
243,815	3,775	222,584	114,915
244,830	4,245	222,277	115,097
245,844	3,839	222,095	114,690
246,859	3,909	221,988	114,677
247,874	4,090	221,809	114,709
248,888	4,046	221,786	114,654
249,903	3,900	221,484	114,379
250,917	3,809	221,322	114,217
251,932	3,703	221,226	114,079
252,947	3,543	221,032	113,850
253,961	3,714	220,935	113,917
254,976	3,652	220,675	113,727
255,990	3,785	220,751	113,854
257,005	4,030	220,571	113,933
258,020	3,921	220,517	113,814
259,034	4,082	220,354	113,839
260,049	4,156	220,169	113,788
261,063	4,029	219,938	113,564
262,078	4,014	219,826	113,485
263,093	4,195	219,744	113,567
264,107	4,271	219,487	113,480
265,122	4,179	219,497	113,407
266,136	4,148	219,394	113,320
267,151	4,226	219,202	113,268
268,166	3,850	218,991	112,873
269,180	3,597	218,690	112,522
270,195	3,701	218,512	112,497
271,209	3,550	218,538	112,390
272,224	3,669	218,341	112,366
273,239	3,816	218,300	112,442
274,253	3,824	217,971	112,269
275,268	3,503	217,904	111,990
276,282	3,540	217,803	111,955
277,297	3,480	217,601	111,797
278,312	3,708	217,410	111,855
279,326	3,753	217,305	111,824
280,341	3,851	217,214	111,838
281,355	3,885	217,126	111,808
282,370	4,164	216,804	111,834
283,384	3,758	216,616	111,433
284,399	3,473	216,477	111,145
285,414	3,442	216,527	111,138
286,428	3,580	216,443	111,185
287,443	3,939	216,303	111,364
288,457	3,842	216,182	111,221
289,472	3,802	215,971	111,073
290,487	3,530	215,767	110,763
291,501	3,478	215,619	110,639
292,516	3,490	215,480	110,566
293,530	3,514	215,240	110,450
294,545	3,492	215,126	110,367
295,560	3,464	215,230	110,390
296,574	4,049	215,068	110,717
297,589	3,877	215,055	110,577
298,603	3,896	214,808	110,454
299,618	3,820	214,726	110,348
300,633	3,763	214,547	110,205
301,647	3,964	214,482	110,306
302,662	4,130	214,358	110,351
303,676	4,003	214,127	110,132
304,691	3,979	213,983	110,030
305,706	4,226	213,925	110,167
306,720	4,155	213,660	109,971
307,735	3,830	213,501	109,647
308,749	3,602	213,294	109,368
309,764	3,685	213,256	109,398
310,779	3,915	213,279	109,564
311,793	3,820	212,953	109,319
312,808	3,706	212,878	109,190
313,822	4,003	212,638	109,268
314,837	3,904	212,540	109,138
315,852	3,657	212,396	108,879
316,866	3,666	212,379	108,867
317,881	3,786	212,344	108,925
318,895	3,955	212,105	108,912
319,910	3,858	211,848	108,702
320,925	3,619	211,758	108,477
321,939	3,605	211,314	108,230
322,954	3,570	211,171	108,122
323,968	3,453	211,366	108,130
324,983	3,836	211,241	108,327
325,997	4,107	211,173	108,472
327,012	3,978	211,047	108,307
328,027	4,077	210,821	108,252
329,041	4,124	210,844	108,286
330,056	4,096	210,639	108,152
331,070	3,583	210,576	107,750
332,085	3,523	210,322	107,568
333,100	3,769	210,064	107,599
334,114	3,886	209,905	107,590
335,129	3,705	209,911	107,456
336,143	3,690	209,776	107,367
337,158	3,415	209,646	107,099
338,173	3,721	209,380	107,166
339,187	3,732	209,180	107,062
340,202	3,560	209,011	106,847
341,216	3,319	208,886	106,606
342,231	3,229	208,874	106,528
343,246	3,499	208,767	106,652
344,260	3,601	208,629	106,642
345,275	3,549	208,518	106,540
346,289	3,773	208,512	106,683
347,304	4,026	208,354	106,768
348,319	3,834	208,217	106,555
349,333	3,859	207,970	106,436
350,348	3,986	207,779	106,417
351,362	3,718	207,885	106,277
352,377	3,940	207,658	106,304
353,392	3,743	207,609	106,133
354,406	3,694	207,405	105,986
355,421	194,582	1344,675	1434,172
356,435	155,256	1483,325	1434,280
