DTS Sentinel unit serial number:	SN410029Multiplexer serial number:	ORYXHardware model number:	OX2-SRSoftware version number:	ORYX F/W v4,00 Oryx Data Collector v3.7.2.0data status	okinstallation	B6 Nyhavnadifferential loss correction	single-endedforward channel	channel 2reverse channel	N/Adate	2023/12/10time	07:50:08forward acquisition time	300,00reverse acquisition time	0,00gamma	499,1914k internal	0,3123k external	0,3123temperature offset calibration	1,0000default loss term (dB/km)	0,3820temperature slope calibration	1,0000multiplexer offset coefficient	1,0000multiplexer slope coefficient	1,0000fibre end	0,00T internal ref (°C)	22,58T ext. ref 1 (°C)	6,34T ext. ref 2 (°C)	6,35length (m)	temperature (°C)	Stokes	anti-Stokes-744,400	-200,000	-0,008	-0,083
-743,385	168,151	-0,248	0,263
-742,371	4,475	0,071	0,039
-741,356	212,510	-0,063	0,074
-740,342	-200,000	0,006	-0,194
-739,327	800,000	-0,130	0,309
-738,312	502,357	0,050	0,086
-737,298	-24,383	-0,319	0,141
-736,283	-200,000	-0,024	-0,172
-735,269	-60,261	-0,203	0,064
-734,254	800,000	-0,015	0,031
-733,239	-16,384	-0,310	-0,146
-732,225	236,784	0,082	0,101
-731,210	-200,000	-0,015	0,099
-730,196	-200,000	-0,006	-0,078
-729,181	633,393	0,035	0,067
-728,167	-98,918	-0,015	0,003
-727,152	-64,332	-0,096	0,029
-726,137	-99,896	-0,100	-0,018
-725,123	-200,000	-0,005	0,025
-724,108	97,420	-0,095	-0,081
-723,094	-20,949	-0,151	-0,069
-722,079	-200,000	0,001	-0,191
-721,064	-38,191	-0,060	0,024
-720,050	-200,000	0,017	-0,081
-719,035	449,524	0,074	0,122
-718,021	-119,858	-0,021	-0,003
-717,006	187,509	-0,085	-0,094
-715,991	-200,000	0,004	-0,159
-714,977	-200,000	0,002	0,064
-713,962	-100,067	-0,059	0,011
-712,948	536,060	-0,046	0,082
-711,933	-200,000	0,022	0,110
-710,918	-167,504	0,144	0,004
-709,904	-200,000	-0,013	-0,082
-708,889	-15,737	-0,171	-0,081
-707,875	308,818	-0,082	-0,115
-706,860	401,856	-0,023	0,037
-705,845	212,833	-0,036	0,042
-704,831	-200,000	0,015	-0,088
-703,816	105,478	-0,040	0,035
-702,802	-200,000	0,001	-0,007
-701,787	-127,358	-0,032	0,003
-700,772	249,837	0,044	-0,056
-699,758	57,045	0,051	-0,037
-698,743	-200,000	0,012	0,042
-697,729	23,128	0,101	0,062
-696,714	-200,000	-0,013	0,089
-695,699	34,772	-0,088	-0,057
-694,685	84,509	0,091	-0,074
-693,670	-38,959	-0,093	-0,036
-692,656	-200,000	0,020	0,138
-691,641	-90,845	-0,180	-0,038
-690,627	21,849	0,246	0,149
-689,612	-23,163	0,016	0,007
-688,597	800,000	0,029	-0,062
-687,583	-200,000	0,014	-0,104
-686,568	-200,000	-0,012	0,091
-685,554	-200,000	0,012	-0,113
-684,539	12,337	0,063	-0,036
-683,524	60,816	-0,036	-0,027
-682,510	-73,452	-0,151	0,041
-681,495	191,748	0,040	-0,045
-680,481	-152,856	0,090	-0,005
-679,466	35,540	-0,111	-0,072
-678,451	-200,000	-0,025	-0,103
-677,437	800,000	-0,034	-0,111
-676,422	-200,000	-0,026	0,103
-675,408	261,346	0,021	-0,027
-674,393	277,892	-0,013	-0,017
-673,378	-136,525	-0,219	-0,019
-672,364	-200,000	0,005	-0,078
-671,349	410,558	0,011	0,017
-670,335	800,000	0,037	0,085
-669,320	-16,507	-0,082	-0,038
-668,305	-200,000	-0,003	0,022
-667,291	-63,611	-0,140	0,042
-666,276	140,833	-0,048	0,047
-665,262	-200,000	-0,025	-0,108
-664,247	658,554	0,052	-0,100
-663,232	-119,397	-0,034	-0,004
-662,218	-200,000	-0,004	0,073
-661,203	-54,055	0,137	-0,046
-660,189	488,749	-0,039	-0,066
-659,174	397,397	0,075	-0,117
-658,159	-46,726	-0,121	-0,044
-657,145	48,326	0,029	0,020
-656,130	-200,000	-0,022	-0,072
-655,116	-92,385	-0,050	0,010
-654,101	3,284	0,091	0,049
-653,086	-71,635	-0,034	-0,009
-652,072	-200,000	0,002	-0,100
-651,057	-148,251	0,042	-0,003
-650,043	-200,000	-0,010	-0,079
-649,028	800,000	-0,004	-0,010
-648,014	31,290	0,078	0,050
-646,999	-200,000	0,017	0,128
-645,984	333,283	-0,043	0,062
-644,970	712,145	-0,036	0,071
-643,955	630,374	0,057	-0,107
-642,941	78,768	-0,030	-0,024
-641,926	-200,000	-0,025	-0,091
-640,911	-200,000	-0,013	0,067
-639,897	800,000	-0,008	-0,022
-638,882	76,256	0,087	0,068
-637,868	21,728	-0,046	0,028
-636,853	42,416	-0,103	-0,070
-635,838	800,000	-0,046	-0,138
-634,824	800,000	0,037	-0,095
-633,809	349,092	0,053	0,078
-632,795	-200,000	-0,022	0,093
-631,780	-59,216	0,053	-0,017
-630,765	7,526	-0,023	-0,013
-629,751	-11,272	-0,023	-0,011
-628,736	209,003	-0,038	-0,045
-627,722	439,174	-0,052	-0,085
-626,707	22,761	-0,054	0,033
-625,692	232,777	0,028	0,034
-624,678	126,685	-0,023	-0,022
-623,663	-51,602	-0,111	-0,038
-622,649	27,039	-0,138	-0,086
-621,634	-55,121	-0,023	0,008
-620,619	-71,164	-0,254	-0,070
-619,605	-200,000	-0,009	0,086
-618,590	-76,930	0,119	0,031
-617,576	-200,000	-0,011	0,091
-616,561	800,000	-0,030	0,086
-615,546	-200,000	-0,012	-0,056
-614,532	38,913	-0,037	-0,024
-613,517	-114,653	-0,044	-0,006
-612,503	-2,026	0,059	-0,031
-611,488	-114,517	0,057	-0,008
-610,474	23,449	0,097	-0,059
-609,459	32,599	0,047	0,030
-608,444	15,764	0,066	-0,039
-607,430	-73,622	-0,132	0,035
-606,415	-77,987	-0,051	-0,013
-605,401	268,063	-0,064	-0,083
-604,386	800,000	0,083	0,199
-603,371	-200,000	-0,031	0,125
-602,357	-160,694	-0,103	0,004
-601,342	-200,000	0,019	-0,122
-600,328	131,843	0,021	-0,020
-599,313	-36,884	-0,139	0,055
-598,298	-70,975	-0,065	0,018
-597,284	-200,000	-0,004	0,027
-596,269	-68,705	-0,055	0,016
-595,255	-200,000	-0,009	-0,112
-594,240	800,000	0,025	0,059
-593,225	140,720	-0,061	-0,060
-592,211	84,381	-0,076	0,062
-591,196	-129,912	-0,047	-0,005
-590,182	94,020	0,117	-0,098
-589,167	229,333	0,087	0,105
-588,152	92,857	0,122	-0,102
-587,138	-159,252	-0,100	0,004
-586,123	-55,918	0,126	-0,041
-585,109	800,000	0,008	-0,025
-584,094	-74,757	-0,055	-0,014
-583,079	-200,000	-0,006	0,101
-582,065	-105,262	0,023	0,004
-581,050	-200,000	-0,005	-0,028
-580,036	121,949	-0,035	-0,033
-579,021	-148,787	-0,103	-0,006
-578,006	-62,726	-0,054	0,017
-576,992	-200,000	0,031	-0,220
-575,977	800,000	0,034	-0,075
-574,963	-200,000	0,005	0,050
-573,948	632,416	0,054	0,102
-572,934	-13,266	-0,005	0,002
-571,919	-200,000	-0,033	-0,152
-570,904	-200,000	-0,041	-0,157
-569,890	800,000	0,027	-0,073
-568,875	-124,363	0,067	0,008
-567,861	96,639	0,104	0,088
-566,846	-200,000	0,006	-0,042
-565,831	130,059	-0,064	-0,060
-564,817	-21,667	-0,074	-0,033
-563,802	-48,112	-0,018	0,007
-562,788	-2,013	0,081	-0,042
-561,773	187,108	-0,098	0,108
-560,758	326,794	0,071	-0,101
-559,744	800,000	0,038	0,101
-558,729	403,569	0,042	0,066
-557,715	19,160	-0,065	0,038
-556,700	755,530	-0,035	0,069
-555,685	3,293	-0,052	-0,028
-554,671	131,993	-0,018	0,017
-553,656	-16,799	0,017	0,008
-552,642	158,273	0,106	0,108
-551,627	84,332	0,101	0,082
-550,612	399,858	0,029	-0,045
-549,598	338,345	-0,047	-0,068
-548,583	428,513	-0,114	0,183
-547,569	-89,729	0,052	-0,011
-546,554	4,568	-0,089	0,048
-545,539	112,040	0,116	0,104
-544,525	-200,000	-0,021	-0,105
-543,510	-96,673	0,062	-0,012
-542,496	256,854	-0,146	0,186
-541,481	-200,000	-0,021	0,088
-540,466	-107,613	0,084	0,013
-539,452	245,960	0,067	-0,084
-538,437	-200,000	-0,021	0,164
-537,423	800,000	0,067	0,157
-536,408	-32,260	-0,010	0,004
-535,393	-96,191	-0,139	0,027
-534,379	-24,880	0,037	0,016
-533,364	800,000	-0,007	-0,015
-532,350	174,386	-0,011	0,012
-531,335	420,319	-0,037	-0,059
-530,321	-200,000	0,017	0,073
-529,306	-29,125	-0,077	-0,032
-528,291	37,361	-0,051	-0,033
-527,277	580,421	-0,092	-0,168
-526,262	-132,083	-0,101	-0,010
-525,248	-200,000	0,040	-0,151
-524,233	371,190	-0,012	0,018
-523,218	800,000	-0,061	0,138
-522,204	800,000	-0,066	-0,155
-521,189	-158,916	0,061	-0,003
-520,175	-74,554	-0,091	0,024
-519,160	63,942	-0,036	0,027
-518,145	800,000	-0,018	0,039
-517,131	-62,236	0,157	0,048
-516,116	44,867	0,094	0,064
-515,102	70,388	-0,066	0,050
-514,087	-48,681	-0,119	-0,042
-513,072	-200,000	-0,035	-0,149
-512,058	800,000	-0,027	-0,078
-511,043	-91,570	0,109	-0,023
-510,029	-200,000	-0,020	0,155
-509,014	-200,000	-0,025	-0,108
-507,999	5,087	0,090	0,049
-506,985	156,235	-0,116	-0,119
-505,970	667,313	-0,020	0,039
-504,956	65,490	0,043	-0,032
-503,941	113,092	0,043	0,038
-502,926	169,264	0,038	-0,040
-501,912	-200,000	-0,003	0,024
-500,897	-64,293	-0,084	0,025
-499,883	155,094	0,057	0,058
-498,868	800,000	0,039	0,103
-497,853	-38,822	-0,143	-0,055
-496,839	107,372	0,051	0,044
-495,824	329,232	-0,108	0,154
-494,810	-200,000	-0,011	0,108
-493,795	-63,174	-0,083	-0,025
-492,781	-200,000	-0,040	-0,000
-491,766	800,000	-0,027	-0,087
-490,751	29,565	0,004	-0,003
-489,737	-1,782	-0,073	0,038
-488,722	-1,164	-0,082	-0,043
-487,708	-200,000	0,009	-0,068
-486,693	-61,343	-0,099	0,030
-485,678	-200,000	0,007	0,040
-484,664	800,000	0,053	-0,121
-483,649	-166,101	0,042	-0,001
-482,635	18,563	0,002	-0,001
-481,620	800,000	-0,036	0,086
-480,605	-68,457	-0,070	0,020
-479,591	-18,120	-0,129	-0,059
-478,576	-200,000	0,007	0,042
-477,562	-23,906	-0,061	0,027
-476,547	-200,000	0,031	-0,103
-475,532	-200,000	0,036	-0,157
-474,518	-200,000	-0,007	0,032
-473,503	-154,708	0,128	0,006
-472,489	-200,000	0,020	0,183
-471,474	482,051	-0,034	-0,057
-470,459	-102,654	0,102	-0,018
-469,445	167,700	-0,057	0,060
-468,430	-13,127	0,090	-0,043
-467,416	-38,406	-0,033	0,013
-466,401	-200,000	-0,023	0,197
-465,386	-162,410	0,132	0,005
-464,372	-157,743	-0,110	0,005
-463,357	-200,000	0,129	0,000
-462,343	-19,577	-0,111	0,051
-461,328	-200,000	-0,012	-0,121
-460,313	800,000	0,030	-0,086
-459,299	171,788	0,105	0,112
-458,284	800,000	0,042	0,094
-457,270	-142,125	0,103	-0,007
-456,255	-200,000	-0,003	0,068
-455,241	125,430	-0,094	-0,087
-454,226	800,000	-0,034	0,084
-453,211	19,066	0,055	0,032
-452,197	100,888	-0,050	-0,042
-451,182	19,219	0,069	-0,041
-450,168	-200,000	-0,008	-0,041
-449,153	800,000	0,050	0,123
-448,138	-200,000	-0,040	-0,162
-447,124	85,850	-0,067	-0,054
-446,109	-138,349	-0,076	-0,006
-445,095	800,000	0,035	0,091
-444,080	-190,103	0,092	0,001
-443,065	109,141	0,083	0,073
-442,051	40,315	-0,033	0,022
-441,036	17,759	-0,099	0,058
-440,022	-200,000	-0,001	-0,047
-439,007	-156,791	-0,065	0,003
-437,992	360,897	0,031	0,046
-436,978	108,670	0,097	0,086
-435,963	164,744	0,067	0,069
-434,949	-194,699	0,056	0,000
-433,934	164,787	0,053	0,055
-432,919	-37,133	0,109	-0,043
-431,905	800,000	-0,038	0,105
-430,890	-64,832	0,231	-0,068
-429,876	135,268	-0,016	0,015
-428,861	20,167	0,047	0,028
-427,846	1,991	0,074	0,039
-426,832	-16,639	0,065	-0,030
-425,817	172,218	-0,034	0,036
-424,803	-31,743	0,019	0,008
-423,788	-34,153	0,208	0,084
-422,773	133,344	0,109	0,104
-421,759	37,855	-0,096	0,062
-420,744	-102,838	0,161	0,028
-419,730	800,000	0,034	-0,094
-418,715	7,944	-0,028	-0,016
-417,701	800,000	-0,046	-0,111
-416,686	320,491	0,078	0,109
-415,671	800,000	-0,023	-0,065
-414,657	47,760	-0,003	0,002
-413,642	1,640	0,136	-0,072
-412,628	800,000	0,030	-0,065
-411,613	800,000	-0,042	-0,088
-410,598	22,122	-0,086	-0,051
-409,584	800,000	-0,050	-0,148
-408,569	-123,000	0,089	0,010
-407,555	-200,000	0,007	0,056
-406,540	-200,000	-0,004	0,022
-405,525	-200,000	-0,030	-0,175
-404,511	563,431	-0,055	-0,099
-403,496	118,305	-0,090	-0,081
-402,482	-40,000	-0,132	-0,050
-401,467	152,388	-0,040	0,041
-400,452	-200,000	0,004	0,132
-399,438	-17,057	0,093	-0,043
-398,423	261,927	-0,029	-0,037
-397,409	143,009	-0,125	-0,122
-396,394	128,104	0,036	-0,033
-395,379	-25,964	-0,154	0,066
-394,365	-165,588	0,073	-0,002
-393,350	395,060	0,098	0,151
-392,336	579,675	-0,031	0,056
-391,321	-200,000	0,015	-0,134
-390,306	65,435	0,058	-0,043
-389,292	107,605	-0,059	-0,051
-388,277	185,853	0,040	-0,044
-387,263	-22,034	0,100	-0,045
-386,248	300,785	-0,033	-0,045
-385,233	38,977	0,022	0,014
-384,219	51,442	0,092	-0,064
-383,204	13,191	-0,090	-0,051
-382,190	800,000	0,060	-0,135
-381,175	-35,758	-0,023	-0,009
-380,160	800,000	0,026	0,074
-379,146	800,000	-0,017	0,037
-378,131	800,000	-0,013	0,029
-377,117	118,904	0,059	-0,053
-376,102	-177,323	-0,177	-0,003
-375,088	-165,135	-0,099	-0,003
-374,073	800,000	0,031	-0,076
-373,058	229,187	0,063	-0,076
-372,044	12,100	0,074	-0,041
-371,029	800,000	0,037	-0,083
-370,015	-137,562	0,046	0,004
-369,000	-200,000	0,007	-0,111
-367,985	-200,000	0,003	-0,124
-366,971	614,591	0,044	-0,081
-365,956	120,193	0,002	0,002
-364,942	-59,797	-0,039	0,012
-363,927	29,447	-0,031	-0,019
-362,912	165,693	-0,014	-0,015
-361,898	249,381	0,033	0,041
-360,883	-195,262	-0,186	-0,001
-359,869	-81,831	0,128	-0,031
-358,854	-90,049	-0,067	0,014
-357,839	-61,340	0,197	0,061
-356,825	-200,000	0,041	0,135
-355,810	-200,000	-0,002	-0,039
-354,796	468,362	0,035	-0,057
-353,781	-200,000	0,016	0,084
-352,766	800,000	-0,021	-0,049
-351,752	-133,378	0,027	0,002
-350,737	260,538	0,033	-0,041
-349,723	31,194	0,086	-0,054
-348,708	-23,613	0,037	-0,016
-347,693	-99,189	-0,100	0,018
-346,679	136,551	-0,030	-0,029
-345,664	-109,949	-0,124	0,019
-344,650	8,765	-0,039	-0,022
-343,635	-200,000	-0,011	-0,047
-342,620	-125,773	0,040	-0,004
-341,606	259,865	-0,049	-0,062
-340,591	-41,387	-0,067	-0,025
-339,577	-112,918	0,071	0,010
-338,562	-200,000	-0,026	-0,088
-337,548	-8,575	-0,167	0,082
-336,533	740,614	-0,049	0,097
-335,518	50,722	0,151	0,105
-334,504	-79,832	-0,107	-0,026
-333,489	-200,000	-0,013	-0,114
-332,475	-153,545	-0,076	-0,004
-331,460	354,062	-0,043	-0,063
-330,445	375,954	0,069	-0,103
-329,431	-29,906	0,052	0,022
-328,416	-57,759	0,054	-0,017
-327,402	-36,110	-0,104	-0,041
-326,387	-53,868	0,169	-0,056
-325,372	800,000	-0,069	0,165
-324,358	800,000	0,027	-0,061
-323,343	-23,567	-0,113	0,050
-322,329	-200,000	-0,007	0,063
-321,314	-200,000	0,010	0,075
-320,299	41,035	0,055	0,036
-319,285	534,771	0,016	0,028
-318,270	800,000	0,058	-0,123
-317,256	-62,315	-0,196	-0,059
-316,241	-17,590	0,137	-0,063
-315,226	159,645	-0,042	0,043
-314,212	113,892	0,057	0,051
-313,197	138,077	0,034	-0,033
-312,183	372,705	0,033	0,049
-311,168	800,000	0,095	-0,202
-310,153	74,972	-0,169	-0,130
-309,139	108,366	0,090	0,079
-308,124	-200,000	-0,019	0,071
-307,110	29,209	0,068	-0,042
-306,095	-76,864	0,112	0,028
-305,080	722,552	-0,052	0,102
-304,066	173,474	0,044	0,047
-303,051	22,024	-0,066	-0,040
-302,037	75,363	0,017	-0,013
-301,022	-200,000	0,020	-0,086
-300,008	650,453	0,066	0,124
-298,993	800,000	-0,030	0,063
-297,978	-151,724	-0,106	0,006
-296,964	-200,000	-0,009	0,090
-295,949	-8,152	0,056	-0,028
-294,935	19,158	-0,084	-0,049
-293,920	-38,823	-0,113	0,044
-292,905	105,011	-0,033	0,029
-291,891	5,025	0,048	-0,026
-290,876	-200,000	0,012	0,089
-289,862	-148,924	0,090	-0,005
-288,847	-116,128	-0,030	0,004
-287,832	-96,527	0,115	-0,022
-286,818	-200,000	0,001	0,025
-285,803	-36,038	-0,108	-0,043
-284,789	-200,000	-0,022	0,129
-283,774	-200,000	0,019	0,190
-282,759	800,000	-0,057	0,180
-281,745	-67,634	-0,028	-0,008
-280,730	-184,273	-0,231	-0,003
-279,716	-200,000	-0,028	0,116
-278,701	-151,242	0,100	-0,005
-277,686	-81,807	0,061	-0,014
-276,672	154,208	-0,053	-0,053
-275,657	-11,669	0,119	0,057
-274,643	-36,056	0,034	0,013
-273,628	148,255	-0,044	-0,044
-272,613	17,410	-0,123	0,071
-271,599	-200,000	-0,021	0,067
-270,584	-33,507	-0,082	0,033
-269,570	126,458	0,096	0,089
-268,555	800,000	-0,101	-0,231
-267,540	800,000	-0,055	-0,117
-266,526	423,495	-0,072	-0,114
-265,511	-200,000	-0,031	0,194
-264,497	744,283	0,027	-0,054
-263,482	-125,189	0,032	-0,004
-262,467	-80,371	0,115	-0,028
-261,453	163,421	-0,109	0,113
-260,438	227,738	-0,046	-0,055
-259,424	624,285	0,044	-0,081
-258,409	-200,000	0,003	0,027
-257,395	596,401	-0,032	0,059
-256,380	644,537	-0,012	0,023
-255,365	-56,776	-0,123	0,040
-254,351	800,000	-0,009	0,026
-253,336	800,000	0,023	0,055
-252,322	-63,230	0,038	0,011
-251,307	-200,000	-0,005	-0,032
-250,292	-15,517	-0,059	-0,028
-249,278	-200,000	0,007	-0,131
-248,263	12,381	0,071	-0,040
-247,249	-200,000	-0,016	-0,113
-246,234	85,499	-0,152	-0,122
-245,219	800,000	0,029	-0,079
-244,205	800,000	0,037	0,086
-243,190	145,317	0,110	0,107
-242,176	-200,000	-0,048	0,169
-241,161	203,058	0,047	0,053
-240,146	-200,000	0,039	0,159
-239,132	-200,000	-0,013	-0,154
-238,117	-27,592	0,066	-0,028
-237,103	102,280	0,094	0,080
-236,088	800,000	0,063	-0,141
-235,073	-109,013	0,118	0,018
-234,059	-137,092	0,047	0,004
-233,044	-194,513	0,034	0,000
-232,030	91,843	-0,056	0,046
-231,015	62,188	0,160	0,117
-230,000	-200,000	0,011	-0,063
-228,986	800,000	0,011	0,028
-227,971	29,191	0,137	0,085
-226,957	-0,866	0,091	0,047
-225,942	166,186	-0,056	0,058
-224,927	199,671	0,053	0,059
-223,913	314,973	0,015	-0,021
-222,898	441,890	0,051	-0,081
-221,884	800,000	0,059	-0,165
-220,869	161,924	-0,063	0,064
-219,855	418,186	0,005	0,007
-218,840	193,619	-0,096	0,106
-217,825	574,444	0,005	-0,010
-216,811	375,819	-0,004	-0,007
-215,796	-200,000	-0,003	-0,144
-214,782	-129,090	-0,107	-0,011
-213,767	-200,000	-0,008	0,071
-212,752	-130,979	0,026	-0,003
-211,738	-58,995	0,070	0,022
-210,723	35,164	0,084	0,054
-209,709	45,413	-0,108	-0,073
-208,694	800,000	-0,041	-0,091
-207,679	-33,719	0,025	0,010
-206,665	-158,069	0,061	0,003
-205,650	-21,271	-0,062	0,027
-204,636	76,338	-0,072	0,056
-203,621	-127,763	0,088	0,009
-202,606	480,620	0,058	0,097
-201,592	-61,513	0,072	-0,022
-200,577	12,133	-0,028	0,015
-199,563	-200,000	-0,046	-0,161
-198,548	-70,801	0,179	0,049
-197,533	132,965	0,155	0,146
-196,519	-161,895	-0,101	0,004
-195,504	123,071	0,112	-0,102
-194,490	-99,486	-0,109	-0,020
-193,475	264,074	-0,030	-0,038
-192,460	-200,000	0,012	0,092
-191,446	-97,759	0,111	-0,021
-190,431	484,974	-0,079	0,132
-189,417	-200,000	0,006	0,060
-188,402	-200,000	-0,004	-0,021
-187,387	800,000	0,018	-0,041
-186,373	-94,692	-0,089	-0,018
-185,358	-200,000	0,014	0,075
-184,344	5,186	0,111	-0,059
-183,329	-22,286	-0,084	0,037
-182,315	-86,265	-0,051	0,011
-181,300	72,535	-0,020	-0,016
-180,285	-94,597	-0,019	0,004
-179,271	-200,000	-0,008	-0,065
-178,256	319,102	-0,032	0,044
-177,242	-46,290	0,139	-0,050
-176,227	74,133	0,163	-0,125
-175,212	800,000	0,051	0,115
-174,198	88,011	-0,067	-0,054
-173,183	-200,000	-0,147	0,000
-172,169	-106,242	-0,023	0,004
-171,154	-200,000	0,019	-0,104
-170,139	797,745	0,010	0,019
-169,125	299,091	0,094	-0,126
-168,110	89,450	-0,121	-0,099
-167,096	41,130	0,092	0,061
-166,081	26,600	-0,086	-0,052
-165,066	-121,607	-0,066	0,008
-164,052	45,758	0,107	-0,072
-163,037	-200,000	-0,017	-0,102
-162,023	57,328	0,055	-0,039
-161,008	800,000	0,018	-0,052
-159,993	-200,000	-0,009	0,136
-158,979	-200,000	-0,022	-0,139
-157,964	800,000	-0,009	0,022
-156,950	-58,064	0,104	0,033
-155,935	230,779	0,033	0,039
-154,920	722,651	-0,097	0,189
-153,906	15,097	-0,085	0,048
-152,891	-49,796	0,108	0,037
-151,877	135,667	-0,023	-0,021
-150,862	800,000	-0,012	-0,028
-149,847	241,472	0,060	-0,073
-148,833	800,000	-0,011	0,028
-147,818	-113,982	0,067	-0,009
-146,804	-120,757	0,146	-0,018
-145,789	800,000	0,031	0,063
-144,775	679,104	-0,045	0,086
-143,760	66,628	-0,095	0,070
-142,745	800,000	-0,072	-0,157
-141,731	800,000	0,005	-0,013
-140,716	447,862	-0,078	0,125
-139,702	121,086	0,034	-0,031
-138,687	-200,000	-0,030	0,194
-137,672	-119,322	0,033	-0,004
-136,658	-200,000	0,034	0,000
-135,643	-200,000	-0,003	0,027
-134,629	-200,000	-0,009	-0,127
-133,614	746,634	-0,035	-0,069
-132,599	-154,750	0,086	0,004
-131,585	-200,000	0,025	0,111
-130,570	800,000	-0,044	-0,126
-129,556	727,738	-0,046	-0,090
-128,541	633,248	0,017	0,032
-127,526	-200,000	0,008	-0,119
-126,512	64,641	-0,056	0,041
-125,497	-137,844	0,167	-0,013
-124,483	800,000	-0,027	0,076
-123,468	800,000	-0,029	0,067
-122,453	-200,000	0,009	0,070
-121,439	28,288	-0,054	-0,033
-120,424	81,979	-0,100	-0,079
-119,410	800,000	-0,014	-0,030
-118,395	-101,906	0,156	-0,027
-117,380	-200,000	0,016	0,133
-116,366	649,312	-0,060	0,112
-115,351	329,347	-0,081	-0,114
-114,337	800,000	-0,030	0,090
-113,322	7,338	0,069	0,038
-112,307	-200,000	0,035	0,125
-111,293	53,586	0,066	0,046
-110,278	498,546	0,034	0,057
-109,264	800,000	0,021	0,046
-108,249	-200,000	0,032	-0,173
-107,234	-58,142	-0,110	-0,035
-106,220	-200,000	0,037	0,150
-105,205	-200,000	0,006	0,102
-104,191	522,602	0,062	0,106
-103,176	800,000	-0,033	0,088
-102,162	176,326	0,099	0,105
-101,147	-200,000	0,043	0,197
-100,132	483,924	0,056	-0,094
-99,118	-200,000	0,020	-0,165
-98,103	-200,000	-0,015	0,104
-97,089	14,643	0,106	-0,060
-96,074	-200,000	0,015	-0,080
-95,059	-200,000	-0,018	0,059
-94,045	752,328	0,042	0,083
-93,030	-53,304	-0,130	-0,043
-92,016	16,894	-0,048	0,027
-91,001	-200,000	0,026	0,136
-89,986	169,140	0,084	0,088
-88,972	-48,572	0,067	0,023
-87,957	318,981	0,039	-0,054
-86,943	-47,968	0,050	0,017
-85,928	29,208	-0,059	0,037
-84,913	-86,713	0,098	-0,022
-83,899	-1,223	0,060	-0,031
-82,884	-163,213	0,152	-0,005
-81,870	-200,000	0,000	0,183
-80,855	-150,781	0,133	0,007
-79,840	66,140	-0,072	0,053
-78,826	-101,577	0,070	0,012
-77,811	-200,000	0,010	-0,062
-76,797	-200,000	-0,010	0,033
-75,782	-72,938	0,157	0,042
-74,767	-200,000	0,033	0,116
-73,753	-200,000	0,007	0,044
-72,738	-85,849	-0,124	0,028
-71,724	162,878	0,046	-0,047
-70,709	44,242	-0,031	-0,021
-69,694	262,353	-0,054	-0,068
-68,680	800,000	-0,031	-0,085
-67,665	176,225	0,120	0,126
-66,651	4,020	0,060	-0,032
-65,636	564,536	0,027	0,047
-64,622	800,000	0,035	0,083
-63,607	56,692	-0,107	0,075
-62,592	1,495	0,140	-0,073
-61,578	800,000	-0,007	-0,019
-60,563	-125,592	0,144	0,016
-59,549	800,000	-0,018	0,040
-58,534	-149,684	-1,347	-0,076
-57,519	557,526	-0,857	-1,507
-56,505	-200,000	-0,917	-4,500
-55,490	-0,179	0,671	-0,345
-54,476	800,000	4,981	11,819
-53,461	-200,000	13,495	253,054
-52,446	-200,000	689,143	2268,692
-51,432	595,341	1623,134	2926,624
-50,417	120,759	1636,341	1476,122
-49,403	73,527	1290,438	979,455
-48,388	38,439	1024,979	661,492
-47,373	24,551	982,596	588,448
-46,359	23,746	972,349	579,647
-45,344	22,845	967,981	574,073
-44,330	22,768	966,577	572,969
-43,315	22,612	965,202	571,619
-42,300	22,608	964,199	570,992
-41,286	22,628	963,175	570,428
-40,271	22,581	962,295	569,731
-39,257	22,533	961,356	568,996
-38,242	22,580	960,425	568,574
-37,227	22,599	959,603	568,127
-36,213	22,553	958,672	567,406
-35,198	22,506	958,021	566,845
-34,184	22,627	957,168	566,709
-33,169	22,506	956,375	565,824
-32,154	22,602	955,409	565,540
-31,140	22,595	954,510	564,965
-30,125	22,619	953,682	564,530
-29,111	22,648	952,842	564,102
-28,096	22,688	952,169	563,812
-27,082	22,645	951,469	563,238
-26,067	22,624	950,793	562,745
-25,052	22,641	950,059	562,344
-24,038	22,625	949,375	561,865
-23,023	22,667	948,814	561,644
-22,009	22,597	948,269	561,077
-20,994	22,659	947,390	560,732
-19,979	22,621	946,893	560,296
-18,965	22,603	946,390	559,917
-17,950	22,695	945,342	559,568
-16,936	22,550	945,073	558,925
-15,921	22,646	944,006	558,578
-14,906	22,495	943,591	557,828
-13,892	22,534	942,705	557,408
-12,877	22,505	942,186	556,984
-11,863	22,440	941,730	556,487
-10,848	22,472	941,159	556,228
-9,833	22,610	940,716	556,384
-8,819	22,578	940,021	555,848
-7,804	22,536	939,382	555,314
-6,790	22,484	938,815	554,794
-5,775	22,533	938,048	554,472
-4,760	22,539	937,405	554,092
-3,746	22,537	937,007	553,826
-2,731	22,358	936,364	552,859
-1,717	22,321	935,522	552,223
-0,702	22,281	934,812	551,657
0,313	22,141	934,317	551,755
1,327	25,165	932,325	560,045
2,342	34,720	796,524	503,930
3,356	32,769	451,885	282,924
4,371	1,863	293,842	153,136
5,386	-2,671	274,680	138,847
6,400	-4,247	268,863	134,433
7,415	-4,671	266,295	132,747
8,429	-4,142	265,112	132,630
9,444	-4,115	264,354	132,263
10,459	-4,207	263,714	131,847
11,473	-4,467	263,104	131,295
12,488	-4,403	262,403	130,991
13,502	-4,506	262,039	130,704
14,517	-4,530	261,602	130,454
15,531	-4,344	261,141	130,379
16,546	-4,323	260,786	130,209
17,561	-4,464	260,527	129,941
18,575	-4,306	260,106	129,862
19,590	-4,559	259,948	129,545
20,604	-4,363	259,599	129,535
21,619	-4,379	259,264	129,342
22,634	-4,440	258,928	129,108
23,648	-4,461	258,634	128,932
24,663	-4,357	258,174	128,782
25,677	-4,317	258,075	128,758
26,692	-4,368	257,797	128,562
27,707	-4,518	257,697	128,368
28,721	-4,401	257,231	128,228
29,736	-4,390	257,079	128,150
30,750	-4,429	256,725	127,928
31,765	-4,567	256,565	127,715
32,780	-4,457	256,192	127,615
33,794	-4,544	256,225	127,543
34,809	-4,519	255,940	127,412
35,823	-4,419	255,775	127,406
36,838	-4,420	255,348	127,182
37,853	-4,413	255,147	127,077
38,867	-4,691	255,185	126,840
39,882	-4,513	254,771	126,778
40,896	-4,432	254,651	126,779
41,911	-4,411	254,314	126,618
42,926	-4,614	254,006	126,276
43,940	-4,528	253,949	126,311
44,955	-4,654	253,708	126,070
45,969	-4,551	253,334	125,963
46,984	-4,775	253,115	125,648
47,999	-5,057	252,780	125,225
49,013	-4,887	252,592	125,268
50,028	-5,057	252,253	124,942
51,042	-5,314	252,333	124,747
52,057	-5,314	251,986	124,565
53,071	-5,245	251,758	124,501
54,086	-5,008	251,661	124,647
55,101	-5,104	251,357	124,401
56,115	-5,007	251,326	124,459
57,130	-4,495	251,130	124,793
58,144	-4,304	251,083	124,923
59,159	-4,226	250,779	124,828
60,174	-4,340	250,605	124,633
61,188	-4,559	250,519	124,390
62,203	-4,370	250,169	124,368
63,217	-4,444	250,129	124,273
64,232	-4,257	249,840	124,279
65,247	-4,247	249,485	124,100
66,261	-4,231	249,427	124,073
67,276	-4,631	249,110	123,562
68,290	-4,720	248,849	123,346
69,305	-4,646	248,595	123,272
70,320	-4,862	248,539	123,049
71,334	-4,468	248,333	123,272
72,349	-4,441	248,217	123,226
73,363	-4,387	248,118	123,212
74,378	-4,168	247,787	123,223
75,393	-4,332	247,460	122,910
76,407	-4,340	247,412	122,868
77,422	-4,447	247,289	122,706
78,436	-4,330	246,972	122,636
79,451	-4,273	246,732	122,555
80,466	-4,485	246,559	122,278
81,480	-4,389	246,235	122,188
82,495	-4,683	246,033	121,829
83,509	-4,518	246,022	121,952
84,524	-4,458	245,738	121,851
85,539	-4,764	245,508	121,469
86,553	-4,636	245,297	121,461
87,568	-4,741	245,179	121,303
88,582	-4,573	245,026	121,358
89,597	-4,720	244,859	121,141
90,611	-4,749	244,682	121,018
91,626	-4,518	244,612	121,166
92,641	-4,546	244,319	120,988
93,655	-4,644	244,140	120,806
94,670	-4,363	243,916	120,919
95,684	-4,552	243,797	120,691
96,699	-4,516	243,694	120,659
97,714	-4,576	243,374	120,441
98,728	-4,693	243,146	120,219
99,743	-4,830	242,953	119,999
100,757	-4,905	242,711	119,807
101,772	-4,795	242,484	119,775
102,787	-4,454	242,295	119,954
103,801	-4,716	242,262	119,710
104,816	-4,741	242,162	119,629
105,830	-4,589	242,046	119,686
106,845	-4,320	241,783	119,769
107,860	-4,303	241,509	119,637
108,874	-4,582	241,478	119,380
109,889	-4,574	241,228	119,252
110,903	-4,512	241,115	119,237
111,918	-4,805	240,805	118,832
112,933	-4,716	240,913	118,948
113,947	-4,316	240,449	119,037
114,962	-4,463	240,393	118,877
115,976	-4,601	240,084	118,601
116,991	-4,445	240,034	118,694
118,006	-4,383	239,852	118,644
119,020	-4,590	239,761	118,418
120,035	-4,266	239,418	118,504
121,049	-4,234	239,416	118,519
122,064	-4,638	239,369	118,154
123,079	-4,491	239,112	118,137
124,093	-4,586	238,814	117,901
125,108	-4,760	238,709	117,697
126,122	-4,798	238,344	117,476
127,137	-4,996	238,292	117,279
128,151	-4,897	238,069	117,239
129,166	-4,660	237,816	117,297
130,181	-4,725	237,630	117,141
131,195	-4,919	237,448	116,884
132,210	-4,724	237,360	116,989
133,224	-4,489	237,214	117,096
134,239	-4,472	237,086	117,037
135,254	-4,470	236,945	116,958
136,268	-4,700	236,696	116,639
137,283	-4,766	236,531	116,494
138,297	-4,999	236,301	116,183
139,312	-4,925	236,038	116,103
140,327	-4,654	235,935	116,259
141,341	-4,218	235,890	116,577
142,356	-4,235	235,829	116,524
143,370	-4,313	235,607	116,341
144,385	-4,201	235,449	116,342
145,400	-4,177	235,380	116,317
146,414	-4,026	234,944	116,212
147,429	-4,152	234,871	116,065
148,443	-4,234	234,719	115,914
149,458	-4,223	234,523	115,816
150,473	-4,220	234,458	115,775
151,487	-4,365	234,277	115,560
152,502	-4,251	234,127	115,567
153,516	-3,983	233,882	115,649
154,531	-4,047	233,735	115,515
155,546	-4,145	233,533	115,327
156,560	-4,459	233,504	115,053
157,575	-4,635	233,246	114,775
158,589	-4,295	232,881	114,855
159,604	-4,180	232,959	114,974
160,619	-4,223	232,806	114,855
161,633	-4,194	232,679	114,804
162,648	-3,988	232,395	114,817
163,662	-4,285	232,341	114,545
164,677	-4,380	232,240	114,410
165,692	-4,250	231,988	114,379
166,706	-4,173	231,942	114,406
167,721	-4,194	231,734	114,277
168,735	-4,139	231,723	114,305
169,750	-4,130	231,346	114,116
170,764	-4,300	231,338	113,968
171,779	-4,092	231,125	114,017
172,794	-3,995	230,934	113,989
173,808	-4,301	230,802	113,673
174,823	-4,641	230,307	113,152
175,837	-4,665	230,322	113,131
176,852	-4,518	230,170	113,162
177,867	-4,198	230,173	113,403
178,881	-4,063	230,057	113,441
179,896	-4,047	230,098	113,464
180,910	-4,107	229,622	113,172
181,925	-4,275	229,669	113,054
182,940	-4,090	229,373	113,042
183,954	-4,169	229,402	112,986
184,969	-3,874	229,152	113,082
185,983	-3,948	229,080	112,978
186,998	-3,913	228,821	112,868
188,013	-3,899	228,663	112,791
189,027	-3,886	228,369	112,646
190,042	-3,903	228,451	112,663
191,056	-3,851	228,123	112,531
192,071	-3,833	228,098	112,523
193,086	-3,834	227,836	112,383
194,100	-4,104	227,783	112,139
195,115	-4,124	227,315	111,882
196,129	-4,860	227,328	111,310
197,144	-2,084	228,209	113,882
198,159	1,930	229,002	117,380
199,173	3,931	229,497	119,174
200,188	4,133	229,479	119,311
201,202	3,992	229,384	119,142
202,217	4,319	229,244	119,311
203,232	4,626	229,215	119,523
204,246	4,668	229,143	119,507
205,261	4,697	228,936	119,411
206,275	4,762	228,702	119,328
207,290	4,891	228,661	119,395
208,304	4,933	228,492	119,330
209,319	4,843	228,210	119,102
210,334	4,731	228,033	118,913
211,348	4,417	227,837	118,559
212,363	4,064	227,678	118,194
213,377	3,902	227,362	117,896
214,392	4,015	227,374	117,978
215,407	3,904	227,314	117,852
216,421	4,143	226,979	117,850
217,436	3,864	226,879	117,575
218,450	3,843	226,731	117,471
219,465	3,485	226,555	117,096
220,480	3,684	226,313	117,112
221,494	3,741	226,227	117,101
222,509	3,978	226,110	117,211
223,523	3,947	225,899	117,067
224,538	3,842	225,767	116,908
225,553	3,819	225,628	116,808
226,567	3,685	225,634	116,699
227,582	4,282	225,574	117,111
228,596	4,028	225,454	116,846
229,611	4,061	224,993	116,622
230,626	3,851	224,752	116,327
231,640	3,842	224,688	116,277
232,655	4,318	224,601	116,581
233,669	4,562	224,613	116,761
234,684	4,545	224,484	116,671
235,699	4,374	224,270	116,420
236,713	4,245	224,111	116,230
237,728	3,870	223,912	115,834
238,742	3,836	223,672	115,674
239,757	4,088	223,443	115,735
240,772	4,077	223,350	115,669
241,786	3,971	223,312	115,559
242,801	4,005	223,393	115,615
243,815	4,470	223,095	115,800
244,830	4,310	223,082	115,663
245,844	3,909	222,738	115,174
246,859	4,042	222,689	115,238
247,874	4,252	222,383	115,226
248,888	4,112	222,460	115,151
249,903	4,007	222,238	114,948
250,917	3,988	222,081	114,842
251,932	4,011	221,810	114,709
252,947	3,847	221,742	114,541
253,961	3,886	221,484	114,427
254,976	3,765	221,341	114,253
255,990	4,096	221,282	114,458
257,005	4,181	221,191	114,464
258,020	4,202	221,105	114,424
259,034	4,563	220,989	114,623
260,049	4,381	220,728	114,342
261,063	4,135	220,510	114,037
262,078	4,270	220,429	114,085
263,093	4,287	220,473	114,110
264,107	4,201	220,197	113,893
265,122	4,440	220,081	114,000
266,136	4,340	219,975	113,861
267,151	4,302	219,923	113,796
268,166	3,922	219,684	113,382
269,180	3,880	219,393	113,190
270,195	3,821	219,249	113,063
271,209	3,999	219,051	113,081
272,224	3,873	218,991	112,948
273,239	3,845	219,071	112,958
274,253	3,933	218,780	112,863
275,268	3,715	218,544	112,571
276,282	3,584	218,398	112,390
277,297	3,838	218,061	112,392
278,312	3,817	218,044	112,358
279,326	3,949	217,905	112,373
280,341	3,690	218,036	112,241
281,355	3,912	217,818	112,281
282,370	3,962	217,625	112,208
283,384	3,904	217,368	112,023
284,399	3,666	217,238	111,773
285,414	3,604	217,076	111,634
286,428	3,979	216,991	111,854
287,443	4,196	217,048	112,030
288,457	3,917	216,893	111,738
289,472	3,966	216,593	111,609
290,487	3,358	216,350	111,033
291,501	3,142	216,338	110,861
292,516	3,611	216,127	111,082
293,530	3,489	216,151	110,996
294,545	3,629	215,842	110,928
295,560	3,886	215,631	110,996
296,574	3,654	215,572	110,788
297,589	3,615	215,471	110,698
298,603	3,818	215,370	110,783
299,618	3,965	215,304	110,845
300,633	3,968	215,101	110,733
301,647	4,145	215,058	110,828
302,662	4,388	214,815	110,868
303,676	4,252	214,804	110,754
304,691	3,938	214,666	110,448
305,706	4,186	214,549	110,556
306,720	4,117	214,337	110,388
307,735	3,897	214,155	110,126
308,749	3,766	213,944	109,914
309,764	3,984	213,978	110,078
310,779	4,182	213,833	110,135
311,793	4,225	213,655	110,064
312,808	4,025	213,538	109,851
313,822	4,146	213,343	109,827
314,837	4,040	213,078	109,605
315,852	3,720	212,956	109,306
316,866	3,710	212,895	109,257
317,881	4,200	212,849	109,572
318,895	4,150	212,765	109,484
319,910	3,916	212,479	109,161
320,925	3,662	212,271	108,864
321,939	3,444	212,181	108,654
322,954	3,669	212,048	108,735
323,968	3,978	211,915	108,876
324,983	4,315	211,698	108,993
325,997	4,238	211,834	108,999
327,012	3,949	211,559	108,643
328,027	3,973	211,452	108,596
329,041	4,333	211,395	108,811
330,056	4,585	211,288	108,924
331,070	3,969	211,087	108,377
332,085	3,783	210,786	108,081
333,100	4,066	210,676	108,214
334,114	3,957	210,653	108,116
335,129	3,946	210,402	107,970
336,143	3,879	210,339	107,881
337,158	3,665	210,217	107,659
338,173	3,647	210,153	107,604
339,187	3,563	209,871	107,391
340,202	3,553	209,735	107,305
341,216	3,655	209,588	107,291
342,231	3,812	209,473	107,333
343,246	3,661	209,323	107,141
344,260	3,885	209,189	107,219
345,275	3,878	209,144	107,182
346,289	3,942	209,157	107,223
347,304	4,106	208,789	107,139
348,319	4,120	208,747	107,118
349,333	3,827	208,700	106,880
350,348	3,865	208,531	106,811
351,362	4,079	208,359	106,862
352,377	4,077	208,320	106,830
353,392	3,835	208,155	106,569
354,406	4,001	208,041	106,616
355,421	193,398	1345,475	1432,384
356,435	154,278	1484,165	1432,509
