DTS Sentinel unit serial number:	SN410029Multiplexer serial number:	ORYXHardware model number:	OX2-SRSoftware version number:	ORYX F/W v4,00 Oryx Data Collector v3.7.2.0data status	okinstallation	B6 Nyhavnadifferential loss correction	single-endedforward channel	channel 2reverse channel	N/Adate	2023/12/11time	08:20:08forward acquisition time	300,00reverse acquisition time	0,00gamma	499,1914k internal	0,3129k external	0,3129temperature offset calibration	1,0000default loss term (dB/km)	0,3820temperature slope calibration	1,0000multiplexer offset coefficient	1,0000multiplexer slope coefficient	1,0000fibre end	0,00T internal ref (°C)	18,01T ext. ref 1 (°C)	0,27T ext. ref 2 (°C)	0,27length (m)	temperature (°C)	Stokes	anti-Stokes-744,400	-200,000	-0,005	-0,127
-743,385	-76,971	-0,298	0,077
-742,371	192,344	0,099	-0,111
-741,356	-85,407	-0,234	-0,054
-740,342	-54,748	0,090	0,030
-739,327	379,983	-0,091	0,139
-738,312	45,459	-0,048	0,033
-737,298	-7,514	-0,273	0,137
-736,283	-92,596	0,181	0,037
-735,269	-130,200	-0,262	0,026
-734,254	19,266	0,048	-0,029
-733,239	-103,775	-0,351	-0,060
-732,225	73,161	0,073	0,057
-731,210	22,305	0,110	0,067
-730,196	-200,000	-0,015	0,088
-729,181	-32,523	-0,204	0,084
-728,167	-200,000	-0,006	-0,115
-727,152	-105,299	0,112	-0,019
-726,137	-200,000	-0,009	-0,074
-725,123	800,000	0,012	0,033
-724,108	-64,204	-0,157	-0,047
-723,094	-136,531	0,123	0,010
-722,079	-200,000	-0,010	-0,094
-721,064	-120,685	0,089	0,011
-720,050	39,484	-0,056	0,037
-719,035	-47,946	-0,118	-0,042
-718,021	315,836	-0,082	0,115
-717,006	146,137	-0,159	-0,158
-715,991	-200,000	0,003	-0,150
-714,977	800,000	0,030	-0,075
-713,962	-34,060	-0,118	0,048
-712,948	-122,812	0,022	-0,003
-711,933	-200,000	-0,020	0,133
-710,918	26,628	-0,143	0,089
-709,904	-200,000	-0,021	-0,085
-708,889	2,508	-0,208	-0,111
-707,875	800,000	0,019	-0,058
-706,860	800,000	-0,030	0,086
-705,845	800,000	-0,019	0,046
-704,831	800,000	0,058	0,126
-703,816	-104,400	-0,154	0,026
-702,802	-200,000	0,022	-0,127
-701,787	-200,000	0,003	0,039
-700,772	92,578	-0,139	-0,117
-699,758	800,000	0,031	-0,087
-698,743	-132,063	0,207	0,020
-697,729	800,000	0,043	-0,094
-696,714	800,000	0,002	-0,006
-695,699	155,725	0,098	-0,100
-694,685	85,297	-0,143	-0,117
-693,670	-89,185	0,148	-0,032
-692,656	-125,908	-0,110	0,012
-691,641	-24,448	0,041	0,018
-690,627	99,334	0,062	-0,053
-689,612	-200,000	0,015	0,068
-688,597	57,686	-0,086	-0,062
-687,583	186,855	-0,141	-0,156
-686,568	800,000	-0,054	-0,145
-685,554	588,636	0,040	0,074
-684,539	-200,000	0,002	-0,115
-683,524	65,349	0,030	0,023
-682,510	800,000	-0,035	0,076
-681,495	186,730	-0,084	0,093
-680,481	-49,599	-0,305	-0,107
-679,466	-200,000	0,013	-0,105
-678,451	800,000	0,005	-0,014
-677,437	-99,652	-0,088	0,016
-676,422	-200,000	-0,025	0,115
-675,408	-26,233	-0,027	0,012
-674,393	800,000	0,031	0,091
-673,378	800,000	-0,022	0,046
-672,364	-8,819	-0,140	0,069
-671,349	51,633	0,041	0,029
-670,335	-184,656	0,145	0,002
-669,320	599,742	0,037	-0,069
-668,305	-46,885	0,060	0,022
-667,291	-200,000	0,026	0,091
-666,276	59,087	-0,039	-0,029
-665,262	-140,243	-0,135	-0,010
-664,247	288,660	-0,068	-0,092
-663,232	-200,000	-0,008	-0,041
-662,218	800,000	-0,076	0,235
-661,203	-200,000	-0,000	0,117
-660,189	522,375	-0,033	-0,058
-659,174	12,743	0,162	-0,092
-658,159	-179,496	-0,084	-0,001
-657,145	40,372	0,088	0,059
-656,130	738,712	-0,064	0,128
-655,116	25,204	-0,089	0,054
-654,101	795,048	0,052	0,108
-653,086	800,000	0,047	-0,104
-652,072	-200,000	0,016	-0,147
-651,057	30,542	-0,089	-0,057
-650,043	287,270	-0,157	-0,211
-649,028	800,000	0,024	-0,059
-648,014	-81,118	-0,040	0,010
-646,999	-92,795	0,084	-0,017
-645,984	-31,346	-0,047	0,019
-644,970	-149,837	-0,033	0,002
-643,955	-94,838	-0,079	0,016
-642,941	360,132	0,038	-0,057
-641,926	175,262	-0,030	-0,032
-640,911	203,347	-0,085	-0,098
-639,897	800,000	-0,018	-0,056
-638,882	800,000	-0,039	0,105
-637,868	-129,411	0,015	-0,002
-636,853	16,167	-0,113	-0,066
-635,838	270,798	-0,057	-0,075
-634,824	-200,000	0,012	-0,090
-633,809	-5,347	0,090	0,046
-632,795	-68,958	0,033	-0,009
-631,780	800,000	-0,031	0,073
-630,765	-200,000	-0,007	0,065
-629,751	17,340	0,073	-0,043
-628,736	253,263	-0,059	-0,075
-627,722	119,572	-0,108	-0,099
-626,707	-30,322	-0,076	0,032
-625,692	-200,000	0,006	-0,050
-624,678	-42,049	0,126	0,047
-623,663	-110,142	0,020	-0,003
-622,649	55,650	-0,086	0,062
-621,634	-200,000	0,013	-0,093
-620,619	92,648	-0,064	-0,054
-619,605	-93,993	0,069	0,014
-618,590	13,444	-0,029	0,016
-617,576	-173,026	-0,060	-0,001
-616,561	-200,000	-0,000	-0,050
-615,546	-200,000	0,001	-0,078
-614,532	-114,857	-0,055	0,008
-613,517	1,000	0,059	0,031
-612,503	800,000	0,038	0,112
-611,488	547,633	-0,036	0,065
-610,474	82,595	0,114	0,092
-609,459	280,114	-0,068	-0,090
-608,444	-134,785	-0,049	0,004
-607,430	306,816	-0,038	-0,052
-606,415	325,459	-0,110	-0,157
-605,401	-200,000	-0,014	0,057
-604,386	-72,352	0,164	0,045
-603,371	-30,334	0,075	0,031
-602,357	-93,468	-0,196	-0,040
-601,342	310,842	0,057	-0,080
-600,328	-45,957	-0,078	0,028
-599,313	-200,000	0,025	0,090
-598,298	488,725	0,021	-0,036
-597,284	-92,713	0,076	0,016
-596,269	41,514	-0,083	0,056
-595,255	469,870	-0,043	-0,072
-594,240	-101,342	-0,052	0,009
-593,225	-9,435	-0,040	-0,020
-592,211	800,000	0,036	0,091
-591,196	19,615	0,021	-0,012
-590,182	104,719	0,067	0,058
-589,167	-53,546	-0,089	0,030
-588,152	384,816	-0,054	0,082
-587,138	-139,451	-0,066	-0,005
-586,123	-200,000	-0,021	-0,085
-585,109	-13,744	-0,085	-0,041
-584,094	800,000	0,014	-0,034
-583,079	68,047	0,127	-0,096
-582,065	788,411	-0,007	0,014
-581,050	-200,000	-0,004	-0,015
-580,036	-200,000	-0,004	0,018
-579,021	-8,822	-0,061	-0,030
-578,006	-90,070	-0,147	0,031
-576,992	-200,000	-0,012	-0,046
-575,977	-37,540	-0,101	-0,040
-574,963	-153,865	0,194	-0,010
-573,948	-72,573	-0,022	-0,006
-572,934	-200,000	0,003	0,073
-571,919	-149,007	-0,125	-0,007
-570,904	-56,402	0,067	0,022
-569,890	800,000	0,040	-0,124
-568,875	-200,000	-0,015	-0,116
-567,861	-200,000	-0,005	-0,072
-566,846	86,816	0,093	-0,076
-565,831	576,108	0,075	-0,136
-564,817	800,000	-0,065	-0,153
-563,802	-95,799	-0,064	-0,012
-562,788	446,599	0,001	-0,001
-561,773	-0,104	-0,080	0,042
-560,758	-200,000	0,013	0,089
-559,744	-61,938	0,125	-0,038
-558,729	-200,000	0,037	0,128
-557,715	105,264	-0,065	0,057
-556,700	-200,000	-0,009	0,067
-555,685	-113,286	0,037	-0,005
-554,671	-200,000	-0,004	-0,098
-553,656	297,259	0,072	0,098
-552,642	42,807	-0,150	-0,101
-551,627	324,421	0,034	0,048
-550,612	654,729	-0,012	0,023
-549,598	-182,749	-0,113	-0,001
-548,583	117,622	0,086	0,078
-547,569	-200,000	0,021	-0,121
-546,554	251,550	-0,055	0,070
-545,539	-87,880	-0,088	0,019
-544,525	-200,000	0,034	0,113
-543,510	-200,000	-0,020	-0,076
-542,496	-66,976	-0,100	0,029
-541,481	-200,000	0,041	-0,210
-540,466	-200,000	0,006	-0,125
-539,452	188,419	0,054	-0,060
-538,437	4,078	-0,114	0,061
-537,423	-117,191	0,137	0,018
-536,408	113,753	-0,094	-0,085
-535,393	-116,451	-0,040	0,005
-534,379	503,158	-0,036	-0,061
-533,364	-144,625	0,133	-0,009
-532,350	508,044	-0,049	0,084
-531,335	-118,496	0,067	-0,009
-530,321	-44,918	-0,091	-0,033
-529,306	72,471	-0,036	0,027
-528,291	-106,629	-0,146	-0,024
-527,277	-159,798	0,043	-0,002
-526,262	-15,748	-0,124	0,058
-525,248	-28,545	0,061	-0,026
-524,233	-200,000	-0,023	-0,131
-523,218	63,410	0,074	0,054
-522,204	351,820	0,027	0,040
-521,189	197,567	-0,107	-0,121
-520,175	-126,916	-0,021	0,002
-519,160	-14,970	-0,060	0,028
-518,145	800,000	0,053	-0,116
-517,131	-142,972	0,089	-0,006
-516,116	-200,000	-0,018	0,158
-515,102	-200,000	0,005	0,142
-514,087	800,000	-0,051	-0,106
-513,072	707,048	0,012	0,023
-512,058	-200,000	0,007	-0,049
-511,043	222,370	0,050	-0,059
-510,029	-200,000	0,003	0,110
-509,014	31,819	0,111	-0,071
-507,999	-39,367	-0,129	0,050
-506,985	-57,066	0,056	-0,018
-505,970	209,615	0,079	0,092
-504,956	-122,335	-0,049	0,006
-503,941	190,948	-0,113	-0,125
-502,926	-32,240	0,189	0,077
-501,912	82,836	0,083	-0,066
-500,897	-81,847	-0,015	0,003
-499,883	-92,325	0,052	0,011
-498,868	149,255	-0,120	-0,120
-497,853	470,020	0,052	-0,086
-496,839	-200,000	-0,003	0,052
-495,824	-90,421	0,019	-0,004
-494,810	46,296	-0,022	0,015
-493,795	-200,000	0,022	-0,094
-492,781	225,853	0,074	-0,089
-491,766	-200,000	-0,024	-0,092
-490,751	-65,760	-0,102	-0,030
-489,737	199,880	0,016	-0,019
-488,722	800,000	0,006	-0,015
-487,708	-200,000	-0,021	0,129
-486,693	97,376	-0,089	-0,075
-485,678	-200,000	-0,013	0,116
-484,664	-200,000	0,018	-0,083
-483,649	-131,391	-0,064	-0,006
-482,635	-98,200	-0,151	0,028
-481,620	255,915	0,044	-0,056
-480,605	-200,000	-0,002	0,123
-479,591	-200,000	-0,003	0,150
-478,576	-200,000	-0,009	-0,083
-477,562	-58,125	0,099	-0,031
-476,547	-200,000	0,018	-0,061
-475,532	-200,000	-0,001	0,099
-474,518	800,000	-0,053	0,151
-473,503	-164,208	0,047	-0,002
-472,489	597,520	0,076	-0,139
-471,474	800,000	0,004	-0,009
-470,459	61,121	-0,105	-0,077
-469,445	-172,014	0,015	-0,000
-468,430	26,767	-0,058	0,036
-467,416	155,701	-0,037	0,037
-466,401	800,000	0,018	-0,050
-465,386	800,000	0,050	0,148
-464,372	-200,000	-0,004	0,109
-463,357	-95,985	-0,167	0,032
-462,343	-3,526	-0,068	0,034
-461,328	212,474	0,035	0,040
-460,313	-200,000	-0,019	0,235
-459,299	-55,157	0,193	-0,064
-458,284	800,000	-0,020	-0,060
-457,270	800,000	-0,007	0,017
-456,255	800,000	0,049	0,104
-455,241	-200,000	-0,001	0,066
-454,226	0,742	0,098	-0,052
-453,211	-200,000	-0,001	-0,169
-452,197	-200,000	0,001	-0,028
-451,182	574,084	0,028	0,050
-450,168	-35,373	-0,076	-0,030
-449,153	-13,926	0,156	0,074
-448,138	-35,715	-0,158	-0,063
-447,124	94,257	-0,072	0,060
-446,109	157,314	-0,094	-0,095
-445,095	48,632	0,044	0,030
-444,080	-200,000	0,009	0,185
-443,065	-64,648	0,102	-0,030
-442,051	-200,000	-0,004	-0,037
-441,036	-200,000	-0,014	0,063
-440,022	800,000	0,021	-0,057
-439,007	800,000	-0,018	-0,056
-437,992	-200,000	0,018	0,070
-436,978	-200,000	0,013	0,255
-435,963	-70,833	-0,010	0,003
-434,949	16,936	-0,106	-0,062
-433,934	42,660	-0,108	0,072
-432,919	800,000	-0,035	-0,104
-431,905	463,898	-0,045	0,074
-430,890	-0,899	0,082	-0,042
-429,876	-200,000	0,010	-0,050
-428,861	-200,000	0,043	0,175
-427,846	-87,120	-0,083	-0,018
-426,832	-90,837	-0,063	-0,013
-425,817	-200,000	0,034	-0,131
-424,803	282,727	-0,094	-0,124
-423,788	60,568	0,032	0,023
-422,773	-119,246	-0,005	0,001
-421,759	163,736	0,042	-0,044
-420,744	-144,311	0,193	0,013
-419,730	-200,000	-0,008	-0,026
-418,715	35,827	-0,169	0,109
-417,701	-200,000	0,016	-0,068
-416,686	-51,425	0,097	0,033
-415,671	178,465	0,098	-0,105
-414,657	-200,000	-0,014	0,070
-413,642	745,487	0,052	-0,103
-412,628	-64,226	0,127	-0,038
-411,613	-200,000	-0,004	-0,026
-410,598	-140,859	-0,100	0,007
-409,584	-58,219	0,070	-0,022
-408,569	-47,277	0,103	-0,037
-407,555	800,000	0,030	0,086
-406,540	-200,000	-0,018	0,120
-405,525	-140,196	-0,031	-0,002
-404,511	-200,000	-0,029	0,158
-403,496	800,000	0,034	-0,100
-402,482	-129,496	0,035	0,004
-401,467	-76,696	0,146	0,037
-400,452	-200,000	-0,018	-0,069
-399,438	43,999	-0,082	-0,055
-398,423	-200,000	0,011	-0,069
-397,409	128,873	-0,059	0,055
-396,394	-200,000	0,017	-0,078
-395,379	328,722	-0,020	-0,029
-394,365	-200,000	0,011	0,042
-393,350	-68,008	-0,032	-0,009
-392,336	129,738	0,105	0,098
-391,321	4,297	-0,082	0,044
-390,306	767,525	-0,047	0,094
-389,292	800,000	0,025	0,079
-388,277	123,699	-0,073	-0,067
-387,263	-113,361	0,156	0,022
-386,248	-68,975	0,105	-0,029
-385,233	645,308	0,050	0,094
-384,219	432,998	0,037	0,060
-383,204	-20,479	-0,065	-0,029
-382,190	75,802	0,070	-0,055
-381,175	229,630	-0,039	0,046
-380,160	-75,443	0,120	0,031
-379,146	800,000	0,030	0,065
-378,131	314,668	-0,070	0,097
-377,117	800,000	-0,022	-0,055
-376,102	-200,000	0,004	0,068
-375,088	-19,837	0,135	0,061
-374,073	350,167	-0,033	0,048
-373,058	235,970	-0,049	0,060
-372,044	453,076	0,106	0,173
-371,029	-98,954	0,121	0,022
-370,015	-100,738	-0,189	0,034
-369,000	621,806	-0,020	-0,037
-367,985	-107,991	-0,132	-0,021
-366,971	-182,479	0,085	0,001
-365,956	-9,830	0,042	-0,020
-364,942	800,000	-0,045	0,123
-363,927	2,687	0,124	-0,066
-362,912	-200,000	0,003	0,045
-361,898	-85,025	-0,061	0,014
-360,883	800,000	-0,048	0,099
-359,869	800,000	0,025	0,059
-358,854	116,967	0,058	0,052
-357,839	17,597	-0,028	0,016
-356,825	-200,000	0,025	0,091
-355,810	800,000	0,029	0,064
-354,796	-75,855	0,090	-0,023
-353,781	-114,284	-0,040	-0,006
-352,766	138,055	0,042	-0,041
-351,752	215,691	0,075	-0,088
-350,737	30,948	0,144	-0,090
-349,723	659,170	0,043	0,081
-348,708	-200,000	0,020	0,201
-347,693	-200,000	0,020	-0,076
-346,679	67,415	-0,072	0,054
-345,664	-67,304	-0,010	0,003
-344,650	-90,914	0,044	-0,009
-343,635	-116,965	-0,087	-0,011
-342,620	57,043	-0,035	-0,025
-341,606	-100,852	-0,114	-0,020
-340,591	172,165	-0,051	0,053
-339,577	-154,253	0,065	-0,003
-338,562	-188,223	-0,075	0,001
-337,548	511,993	-0,057	-0,098
-336,533	-200,000	0,043	0,183
-335,518	-200,000	0,016	-0,095
-334,504	659,836	-0,044	0,083
-333,489	188,781	-0,065	-0,072
-332,475	-55,157	0,042	-0,014
-331,460	225,908	0,056	0,066
-330,445	-103,104	-0,124	-0,021
-329,431	439,390	-0,024	-0,038
-328,416	-200,000	-0,013	0,049
-327,402	242,825	0,096	-0,118
-326,387	121,318	0,120	-0,110
-325,372	-191,359	-0,055	0,000
-324,358	-200,000	0,029	-0,128
-323,343	800,000	-0,028	0,067
-322,329	-115,789	-0,027	0,004
-321,314	-200,000	0,016	0,090
-320,299	-200,000	0,028	0,186
-319,285	-84,617	-0,085	0,020
-318,270	309,967	-0,138	-0,190
-317,256	145,160	0,093	0,091
-316,241	313,442	-0,115	0,159
-315,226	201,386	0,099	-0,112
-314,212	389,097	0,031	0,046
-313,197	800,000	0,040	0,085
-312,183	195,235	0,093	-0,103
-311,168	-200,000	-0,005	-0,043
-310,153	303,780	-0,027	-0,036
-309,139	-142,268	-0,032	-0,002
-308,124	-123,840	0,192	-0,022
-307,110	179,767	0,043	-0,046
-306,095	269,281	0,103	0,132
-305,080	-200,000	0,015	-0,050
-304,066	-14,751	-0,133	-0,062
-303,051	367,178	-0,051	-0,076
-302,037	-0,725	0,046	-0,024
-301,022	105,859	0,058	0,050
-300,008	800,000	0,025	-0,060
-298,993	-200,000	0,001	-0,044
-297,978	112,837	-0,057	-0,050
-296,964	-200,000	-0,005	0,182
-295,949	-49,019	-0,115	0,040
-294,935	-200,000	0,007	-0,072
-293,920	344,084	0,052	0,074
-292,905	214,396	-0,048	0,056
-291,891	-200,000	-0,001	-0,033
-290,876	367,507	0,061	0,090
-289,862	68,910	0,010	0,007
-288,847	-200,000	-0,046	-0,200
-287,832	-200,000	0,025	-0,093
-286,818	-200,000	0,007	-0,079
-285,803	-121,617	-0,047	-0,006
-284,789	800,000	0,032	0,082
-283,774	121,242	0,041	0,037
-282,759	12,319	-0,105	-0,059
-281,745	158,830	-0,060	-0,061
-280,730	-147,232	-0,049	0,003
-279,716	383,050	0,060	0,091
-278,701	-151,093	0,113	-0,006
-277,686	192,733	-0,063	0,070
-276,672	800,000	-0,039	0,082
-275,657	-125,463	-0,098	-0,011
-274,643	126,449	0,076	-0,070
-273,628	-20,704	0,030	-0,013
-272,613	-115,824	-0,156	0,021
-271,599	798,155	0,025	-0,051
-270,584	127,668	0,029	-0,026
-269,570	770,897	-0,017	-0,033
-268,555	-45,666	-0,136	0,049
-267,540	-50,000	-0,109	-0,038
-266,526	33,496	-0,010	0,006
-265,511	488,832	-0,015	0,025
-264,497	800,000	-0,059	0,135
-263,482	-57,613	0,085	0,027
-262,467	139,073	0,048	0,046
-261,453	497,013	-0,055	-0,093
-260,438	-200,000	0,009	-0,084
-259,424	19,286	-0,194	0,114
-258,409	-177,832	0,021	-0,000
-257,395	468,660	0,017	0,028
-256,380	643,302	0,019	0,036
-255,365	800,000	-0,066	-0,148
-254,351	-121,273	-0,115	-0,014
-253,336	-200,000	0,002	0,128
-252,322	-72,339	-0,055	0,015
-251,307	254,204	-0,011	-0,014
-250,292	306,054	-0,050	0,068
-249,278	-59,511	0,035	0,011
-248,263	1,508	-0,053	-0,028
-247,249	130,663	0,010	0,009
-246,234	158,438	-0,097	0,098
-245,219	41,699	-0,085	0,056
-244,205	256,698	0,136	-0,171
-243,190	7,188	-0,042	0,023
-242,176	-46,016	0,088	0,031
-241,161	-70,579	0,092	0,025
-240,146	-200,000	0,002	0,159
-239,132	305,087	-0,035	0,047
-238,117	800,000	-0,012	-0,030
-237,103	800,000	0,041	-0,111
-236,088	-41,770	0,128	-0,048
-235,073	-150,336	-0,031	-0,002
-234,059	-78,259	-0,101	-0,025
-233,044	493,784	-0,035	0,058
-232,030	290,157	-0,075	-0,100
-231,015	-200,000	-0,008	0,042
-230,000	-64,178	0,062	-0,018
-228,986	129,895	0,013	0,012
-227,971	800,000	0,042	-0,109
-226,957	-200,000	0,020	-0,086
-225,942	800,000	0,052	-0,110
-224,927	475,989	0,009	0,015
-223,913	148,642	0,060	-0,059
-222,898	800,000	0,044	-0,134
-221,884	295,440	0,046	-0,062
-220,869	-114,906	-0,130	-0,018
-219,855	-103,204	0,214	0,036
-218,840	-67,298	0,099	-0,028
-217,825	300,324	0,052	0,070
-216,811	-92,071	0,107	0,022
-215,796	-74,891	-0,099	-0,026
-214,782	-40,647	0,093	-0,035
-213,767	588,418	0,026	0,047
-212,752	-200,000	-0,003	0,054
-211,738	228,151	-0,101	0,120
-210,723	-50,918	0,132	0,045
-209,709	-177,255	-0,120	0,002
-208,694	11,818	0,096	-0,054
-207,679	-38,015	-0,078	-0,030
-206,665	6,150	0,071	0,038
-205,650	-200,000	-0,004	0,060
-204,636	-82,367	-0,056	-0,013
-203,621	-99,656	-0,077	0,014
-202,606	-200,000	-0,030	0,099
-201,592	800,000	-0,018	-0,043
-200,577	-73,661	0,095	0,025
-199,563	59,137	0,103	-0,073
-198,548	344,699	0,092	-0,132
-197,533	91,148	0,081	0,066
-196,519	41,224	-0,040	-0,027
-195,504	800,000	-0,052	-0,155
-194,490	-13,433	0,015	0,007
-193,475	-34,921	0,036	0,014
-192,460	-200,000	-0,010	0,057
-191,446	-200,000	0,049	0,245
-190,431	16,466	-0,069	0,039
-189,417	-200,000	-0,024	-0,087
-188,402	-200,000	0,007	0,114
-187,387	-200,000	0,017	-0,145
-186,373	800,000	-0,019	0,046
-185,358	-66,987	0,107	0,031
-184,344	498,157	0,058	0,098
-183,329	-101,596	-0,041	0,007
-182,315	19,713	-0,082	-0,048
-181,300	-200,000	0,008	0,042
-180,285	13,357	0,193	-0,109
-179,271	129,072	-0,152	-0,141
-178,256	187,023	0,023	0,025
-177,242	-133,692	0,125	-0,011
-176,227	-197,102	0,017	0,000
-175,212	-200,000	0,157	0,000
-174,198	113,764	-0,074	-0,065
-173,183	252,514	0,050	-0,062
-172,169	-128,444	-0,027	-0,003
-171,154	217,367	0,042	-0,049
-170,139	-200,000	0,011	0,048
-169,125	114,984	0,063	0,056
-168,110	243,586	0,037	-0,045
-167,096	796,333	-0,057	0,116
-166,081	23,279	0,072	-0,043
-165,066	-78,434	-0,061	0,015
-164,052	800,000	-0,027	-0,056
-163,037	601,563	-0,020	0,036
-162,023	447,956	0,040	0,064
-161,008	800,000	-0,067	0,167
-159,993	-14,777	0,041	0,019
-158,979	-200,000	0,017	-0,094
-157,964	85,820	0,047	0,037
-156,950	187,089	-0,052	-0,056
-155,935	-44,767	0,031	0,011
-154,920	138,614	0,084	-0,080
-153,906	800,000	-0,016	-0,039
-152,891	180,162	0,064	-0,069
-151,877	207,100	-0,039	-0,044
-150,862	-200,000	-0,001	0,060
-149,847	-45,318	0,016	-0,006
-148,833	24,352	-0,198	0,118
-147,818	-200,000	0,013	-0,082
-146,804	81,048	0,142	0,111
-145,789	-9,511	0,049	0,024
-144,775	301,547	-0,068	0,092
-143,760	-200,000	-0,042	0,152
-142,745	-98,022	-0,073	-0,014
-141,731	800,000	0,021	-0,044
-140,716	349,327	-0,028	-0,041
-139,702	234,616	-0,060	-0,072
-138,687	800,000	0,060	0,170
-137,672	121,625	-0,055	0,049
-136,658	147,660	-0,070	-0,069
-135,643	-200,000	0,011	-0,072
-134,629	291,360	-0,053	-0,070
-133,614	-200,000	0,011	0,090
-132,599	-124,297	-0,112	-0,013
-131,585	22,031	-0,015	0,009
-130,570	-200,000	0,004	-0,028
-129,556	-119,494	0,041	-0,005
-128,541	53,078	-0,079	0,055
-127,526	-200,000	0,010	0,089
-126,512	-200,000	0,008	-0,045
-125,497	-170,958	0,132	-0,003
-124,483	800,000	0,040	0,098
-123,468	-91,138	0,038	-0,008
-122,453	695,138	-0,031	0,060
-121,439	800,000	0,049	-0,130
-120,424	800,000	0,050	-0,156
-119,410	-133,319	0,072	0,007
-118,395	-120,551	0,057	0,007
-117,380	-200,000	-0,009	0,059
-116,366	-125,782	0,037	0,004
-115,351	144,071	0,067	-0,065
-114,337	800,000	-0,064	-0,136
-113,322	-104,351	0,110	-0,018
-112,307	274,248	-0,159	-0,205
-111,293	-116,961	0,097	0,013
-110,278	-200,000	-0,003	0,024
-109,264	256,057	-0,073	0,091
-108,249	-200,000	0,000	-0,155
-107,234	-200,000	0,002	0,022
-106,220	800,000	0,006	0,012
-105,205	-7,263	0,112	0,055
-104,191	104,805	0,021	-0,018
-103,176	-107,414	0,068	0,011
-102,162	-25,423	-0,045	0,019
-101,147	-116,288	0,179	-0,024
-100,132	286,889	-0,051	0,066
-99,118	412,979	-0,028	0,044
-98,103	-33,928	0,046	0,018
-97,089	553,562	0,017	0,030
-96,074	-109,008	-0,068	0,010
-95,059	0,818	0,098	0,051
-94,045	-25,946	-0,051	0,022
-93,030	-200,000	0,003	0,042
-92,016	5,315	-0,030	0,016
-91,001	247,192	0,045	-0,055
-89,986	131,730	0,048	0,045
-88,972	403,435	-0,076	0,117
-87,957	519,516	-0,051	-0,086
-86,943	-82,272	0,043	-0,010
-85,928	504,786	-0,052	-0,087
-84,913	3,332	-0,126	-0,066
-83,899	-200,000	0,008	0,059
-82,884	411,092	0,054	-0,083
-81,870	-200,000	-0,013	0,042
-80,855	800,000	0,051	0,164
-79,840	42,110	-0,098	0,065
-78,826	-200,000	-0,014	0,082
-77,811	109,208	-0,082	0,071
-76,797	-152,651	-0,040	-0,002
-75,782	289,307	-0,011	0,014
-74,767	5,752	0,166	0,089
-73,753	-200,000	-0,013	0,136
-72,738	3,800	0,128	-0,067
-71,724	9,882	-0,039	-0,021
-70,709	-15,370	-0,153	-0,071
-69,694	-200,000	0,002	0,048
-68,680	-46,300	-0,029	-0,010
-67,665	227,083	0,059	-0,070
-66,651	800,000	-0,049	0,113
-65,636	-200,000	-0,006	0,160
-64,622	134,555	-0,059	0,055
-63,607	74,606	0,016	0,012
-62,592	408,295	-0,065	0,099
-61,578	-200,000	-0,020	-0,096
-60,563	21,819	-0,020	-0,012
-59,549	-200,000	-0,024	0,176
-58,534	-46,532	-1,815	-0,641
-57,519	800,000	-0,473	-1,208
-56,505	-200,000	-1,203	-4,832
-55,490	-64,303	0,611	0,179
-54,476	800,000	5,211	12,204
-53,461	-200,000	16,231	275,021
-52,446	800,000	707,033	2242,289
-51,432	574,758	1619,321	2873,524
-50,417	121,962	1618,601	1462,823
-49,403	85,978	1280,055	1019,264
-48,388	36,933	1026,840	656,239
-47,373	21,413	989,252	580,780
-46,359	20,186	977,858	570,011
-45,344	18,319	973,809	561,476
-44,330	18,474	972,406	561,154
-43,315	18,111	970,655	558,929
-42,300	18,046	969,734	558,161
-41,286	18,079	968,811	557,718
-40,271	18,024	967,758	556,908
-39,257	18,047	966,844	556,436
-38,242	18,016	966,075	555,869
-37,227	18,071	965,351	555,612
-36,213	18,087	964,158	554,954
-35,198	18,028	963,461	554,339
-34,184	18,053	962,883	554,066
-33,169	18,009	961,899	553,333
-32,154	18,111	960,834	553,031
-31,140	18,044	959,908	552,260
-30,125	18,084	959,267	551,999
-29,111	18,082	958,439	551,492
-28,096	18,080	957,863	551,132
-27,082	18,066	957,076	550,612
-26,067	18,033	956,359	550,072
-25,052	18,064	955,477	549,644
-24,038	18,011	954,969	549,158
-23,023	18,045	954,298	548,861
-22,009	18,023	953,673	548,407
-20,994	18,057	952,977	548,096
-19,979	18,062	952,117	547,596
-18,965	18,014	951,599	547,122
-17,950	18,033	951,098	546,872
-16,936	17,945	950,420	546,179
-15,921	18,024	949,533	545,901
-14,906	17,956	948,807	545,242
-13,892	17,914	948,334	544,813
-12,877	17,890	947,713	544,360
-11,863	17,895	946,977	543,930
-10,848	17,918	946,455	543,684
-9,833	17,997	945,893	543,591
-8,819	17,963	945,479	543,223
-7,804	17,937	944,752	542,700
-6,790	17,891	944,239	542,238
-5,775	18,021	943,642	542,289
-4,760	17,934	942,980	541,610
-3,746	17,925	942,454	541,256
-2,731	17,817	941,625	540,413
-1,717	17,727	940,983	539,738
-0,702	17,734	940,203	539,292
0,313	17,568	939,750	539,319
1,327	20,689	938,125	548,244
2,342	30,171	794,857	489,812
3,356	26,677	447,865	270,719
4,371	-4,397	294,039	146,600
5,386	-8,866	275,607	133,150
6,400	-10,221	269,657	129,002
7,415	-10,252	267,365	127,865
8,429	-9,962	266,300	127,611
9,444	-9,908	265,525	127,278
10,459	-9,780	264,988	127,127
11,473	-9,760	264,227	126,768
12,488	-9,844	263,927	126,536
13,502	-9,761	263,231	126,267
14,517	-9,515	262,925	126,332
15,531	-9,264	262,686	126,434
16,546	-8,836	262,349	126,647
17,561	-9,002	261,988	126,311
18,575	-8,928	261,732	126,244
19,590	-9,056	261,476	125,993
20,604	-8,963	261,067	125,869
21,619	-9,168	260,936	125,610
22,634	-9,144	260,286	125,308
23,648	-8,916	260,070	125,397
24,663	-9,163	259,891	125,079
25,677	-8,921	259,617	125,152
26,692	-9,043	259,294	124,876
27,707	-8,995	259,168	124,847
28,721	-9,103	258,881	124,601
29,736	-9,099	258,575	124,446
30,750	-9,199	258,460	124,291
31,765	-9,086	258,167	124,239
32,780	-9,276	257,830	123,898
33,794	-9,207	257,782	123,925
34,809	-9,078	257,425	123,856
35,823	-9,099	257,153	123,696
36,838	-9,280	256,861	123,385
37,853	-9,001	256,618	123,503
38,867	-9,143	256,618	123,367
39,882	-9,226	256,426	123,190
40,896	-8,974	255,983	123,188
41,911	-8,970	255,820	123,103
42,926	-9,241	255,641	122,767
43,940	-9,312	255,327	122,542
44,955	-9,130	255,216	122,639
45,969	-9,369	254,861	122,247
46,984	-9,363	254,774	122,200
47,999	-9,269	254,476	122,128
49,013	-9,500	254,205	121,785
50,028	-9,616	254,022	121,585
51,042	-9,659	253,903	121,480
52,057	-9,612	253,642	121,385
53,071	-9,563	253,402	121,302
54,086	-9,711	253,331	121,129
55,101	-9,373	252,963	121,236
56,115	-9,413	252,791	121,108
57,130	-9,590	252,696	120,898
58,144	-8,859	252,267	121,316
59,159	-9,230	252,267	120,983
60,174	-9,309	251,977	120,765
61,188	-9,295	251,857	120,708
62,203	-9,299	251,716	120,627
63,217	-9,097	251,357	120,618
64,232	-9,205	251,211	120,445
65,247	-9,476	250,938	120,069
66,261	-9,255	250,671	120,121
67,276	-9,183	250,466	120,075
68,290	-9,513	250,315	119,707
69,305	-9,609	249,866	119,400
70,320	-9,407	249,876	119,567
71,334	-9,256	249,761	119,631
72,349	-9,259	249,458	119,473
73,363	-9,219	249,375	119,456
74,378	-9,210	249,050	119,298
75,393	-9,105	248,958	119,332
76,407	-9,032	248,644	119,234
77,422	-9,189	248,637	119,086
78,436	-9,239	248,244	118,845
79,451	-9,347	247,950	118,601
80,466	-9,476	247,825	118,421
81,480	-9,266	247,582	118,473
82,495	-9,367	247,494	118,334
83,509	-9,176	247,229	118,359
84,524	-9,215	247,090	118,249
85,539	-9,392	246,795	117,948
86,553	-9,463	246,767	117,863
87,568	-9,244	246,505	117,913
88,582	-9,429	246,380	117,687
89,597	-9,389	246,138	117,594
90,611	-9,419	246,049	117,516
91,626	-9,220	245,874	117,590
92,641	-9,128	245,677	117,563
93,655	-9,214	245,342	117,319
94,670	-9,395	245,131	117,056
95,684	-9,460	245,019	116,938
96,699	-9,334	244,663	116,862
97,714	-9,411	244,626	116,770
98,728	-9,207	244,281	116,766
99,743	-9,405	244,297	116,597
100,757	-9,487	244,098	116,423
101,772	-9,472	243,761	116,265
102,787	-9,362	243,575	116,258
103,801	-9,541	243,450	116,038
104,816	-9,416	243,366	116,091
105,830	-9,295	243,161	116,084
106,845	-9,372	242,901	115,886
107,860	-9,431	242,814	115,785
108,874	-9,486	242,531	115,594
109,889	-9,469	242,242	115,460
110,903	-9,481	242,090	115,367
111,918	-9,693	241,983	115,131
112,933	-9,673	241,821	115,060
113,947	-9,584	241,770	115,099
114,962	-9,468	241,443	115,029
115,976	-9,210	241,270	115,149
116,991	-9,301	241,171	115,017
118,006	-9,403	240,912	114,799
119,020	-9,506	241,019	114,754
120,035	-9,342	240,763	114,757
121,049	-9,123	240,484	114,795
122,064	-9,359	240,288	114,497
123,079	-9,532	240,290	114,345
124,093	-9,524	239,947	114,178
125,108	-9,496	239,729	114,087
126,122	-9,441	239,529	114,027
127,137	-9,543	239,358	113,852
128,151	-9,377	239,239	113,921
129,166	-9,421	239,037	113,779
130,181	-9,363	238,799	113,703
131,195	-9,386	238,610	113,584
132,210	-9,517	238,493	113,411
133,224	-9,426	238,211	113,341
134,239	-9,532	238,152	113,217
135,254	-9,331	237,910	113,255
136,268	-9,427	237,664	113,050
137,283	-9,676	237,677	112,844
138,297	-9,737	237,439	112,672
139,312	-9,589	237,145	112,642
140,327	-9,533	237,017	112,615
141,341	-9,159	236,996	112,898
142,356	-9,330	236,725	112,621
143,370	-9,189	236,621	112,675
144,385	-9,179	236,429	112,581
145,400	-9,235	236,363	112,496
146,414	-9,056	236,087	112,499
147,429	-9,261	235,886	112,227
148,443	-9,333	235,779	112,109
149,458	-9,094	235,472	112,144
150,473	-9,463	235,388	111,798
151,487	-9,492	235,276	111,712
152,502	-9,280	235,110	111,794
153,516	-9,146	234,959	111,818
154,531	-9,134	234,680	111,685
155,546	-9,257	234,501	111,492
156,560	-9,384	234,394	111,330
157,575	-9,524	234,148	111,091
158,589	-9,444	233,912	111,033
159,604	-9,286	233,904	111,145
160,619	-8,741	233,690	111,467
161,633	-8,988	233,746	111,288
162,648	-9,004	233,335	111,069
163,662	-9,369	233,264	110,736
164,677	-9,301	233,049	110,678
165,692	-9,363	232,876	110,537
166,706	-9,054	232,805	110,738
167,721	-8,967	232,659	110,727
168,735	-9,002	232,263	110,502
169,750	-9,067	232,424	110,517
170,764	-9,169	232,264	110,350
171,779	-9,312	232,150	110,173
172,794	-9,224	231,816	110,074
173,808	-9,164	231,680	110,047
174,823	-9,325	231,407	109,781
175,837	-9,654	231,352	109,486
176,852	-9,739	231,242	109,358
177,867	-9,370	230,897	109,475
178,881	-9,219	230,863	109,567
179,896	-9,150	230,673	109,521
180,910	-9,152	230,562	109,457
181,925	-9,131	230,369	109,372
182,940	-9,249	230,181	109,181
183,954	-9,136	230,116	109,228
184,969	-8,934	230,115	109,377
185,983	-8,962	229,877	109,232
186,998	-8,974	229,608	109,085
188,013	-8,917	229,470	109,054
189,027	-8,822	229,327	109,050
190,042	-9,113	229,309	108,805
191,056	-9,187	228,984	108,584
192,071	-9,196	228,660	108,414
193,086	-9,368	228,561	108,224
194,100	-9,963	228,157	107,561
195,115	-11,406	227,546	106,147
196,129	-11,345	227,543	106,184
197,144	-6,976	229,090	110,295
198,159	-1,520	230,640	115,293
199,173	1,766	231,342	118,203
200,188	2,517	231,438	118,828
201,202	3,124	231,573	119,360
202,217	3,208	231,539	119,398
203,232	3,385	231,377	119,441
204,246	3,403	231,325	119,418
205,261	3,571	231,107	119,425
206,275	3,896	230,885	119,553
207,290	3,477	230,798	119,172
208,304	3,624	230,639	119,193
209,319	3,572	230,456	119,047
210,334	3,352	230,222	118,745
211,348	3,038	230,043	118,399
212,363	2,748	229,585	117,929
213,377	2,358	229,434	117,539
214,392	2,262	229,257	117,364
215,407	2,323	228,939	117,237
216,421	1,979	228,871	116,927
217,436	1,839	228,847	116,796
218,450	1,880	228,574	116,678
219,465	1,973	228,356	116,628
220,480	2,075	228,239	116,636
221,494	1,987	228,164	116,520
222,509	2,106	228,133	116,585
223,523	2,183	227,964	116,547
224,538	2,313	227,715	116,509
225,553	2,103	227,547	116,252
226,567	2,064	227,474	116,175
227,582	2,172	227,236	116,125
228,596	2,088	227,130	115,996
229,611	2,389	226,945	116,122
230,626	2,417	226,825	116,072
231,640	2,221	226,713	115,854
232,655	2,115	226,569	115,689
233,669	2,317	226,398	115,746
234,684	2,321	226,112	115,592
235,699	2,185	226,097	115,471
236,713	2,340	225,954	115,505
237,728	2,613	225,797	115,622
238,742	2,263	225,643	115,267
239,757	2,517	225,411	115,331
240,772	2,538	225,484	115,373
241,786	2,545	225,320	115,284
242,801	2,913	225,274	115,530
243,815	2,700	225,167	115,303
244,830	2,594	225,026	115,141
245,844	2,702	224,735	115,063
246,859	2,567	224,651	114,908
247,874	2,474	224,363	114,681
248,888	2,517	224,170	114,604
249,903	2,346	224,077	114,417
250,917	2,285	223,912	114,277
251,932	2,418	223,901	114,361
252,947	2,952	223,570	114,583
253,961	2,522	223,608	114,269
254,976	2,260	223,377	113,945
255,990	2,627	223,219	114,128
257,005	2,439	223,174	113,955
258,020	2,705	223,084	114,098
259,034	2,745	222,863	114,005
260,049	2,821	222,855	114,047
261,063	2,620	222,615	113,763
262,078	2,654	222,487	113,714
263,093	2,687	222,384	113,675
264,107	2,596	222,065	113,435
265,122	2,794	221,970	113,523
266,136	2,589	221,823	113,286
267,151	2,829	221,647	113,364
268,166	2,435	221,584	113,029
269,180	2,490	221,378	112,955
270,195	2,409	221,249	112,819
271,209	2,498	220,950	112,722
272,224	2,274	220,985	112,563
273,239	2,435	220,736	112,546
274,253	2,422	220,640	112,478
275,268	2,358	220,456	112,327
276,282	2,251	220,291	112,153
277,297	2,569	220,030	112,245
278,312	2,285	219,801	111,909
279,326	2,535	219,931	112,149
280,341	2,335	219,740	111,895
281,355	2,542	219,626	111,979
282,370	2,132	219,591	111,650
283,384	2,320	219,304	111,632
284,399	2,085	219,300	111,448
285,414	2,359	219,016	111,494
286,428	2,594	219,048	111,673
287,443	2,519	218,832	111,498
288,457	2,581	218,739	111,486
289,472	2,541	218,513	111,331
290,487	2,314	218,374	111,085
291,501	2,587	218,111	111,141
292,516	2,428	218,083	111,000
293,530	2,484	218,048	111,013
294,545	2,312	217,919	110,812
295,560	2,461	217,733	110,816
296,574	2,759	217,671	110,992
297,589	2,892	217,440	110,961
298,603	2,837	217,427	110,904
299,618	2,635	217,166	110,615
300,633	2,596	217,023	110,503
301,647	2,740	216,973	110,572
302,662	2,713	216,928	110,520
303,676	2,855	216,651	110,472
304,691	2,650	216,551	110,263
305,706	2,816	216,304	110,247
306,720	2,691	216,209	110,099
307,735	2,644	216,130	110,015
308,749	2,477	215,943	109,789
309,764	2,515	215,855	109,762
310,779	2,547	215,793	109,744
311,793	2,533	215,484	109,567
312,808	2,785	215,203	109,595
313,822	2,552	215,199	109,416
314,837	2,522	214,952	109,259
315,852	2,356	214,907	109,108
316,866	2,517	214,820	109,169
317,881	2,633	214,722	109,193
318,895	2,322	214,576	108,885
319,910	2,562	214,212	108,863
320,925	2,516	214,182	108,805
321,939	2,199	214,039	108,496
322,954	2,324	213,751	108,430
323,968	2,106	213,926	108,353
324,983	2,455	213,677	108,466
325,997	2,410	213,540	108,356
327,012	2,534	213,160	108,241
328,027	2,618	213,148	108,285
329,041	2,372	213,138	108,096
330,056	2,521	212,979	108,111
331,070	2,423	212,948	108,016
332,085	2,510	212,675	107,929
333,100	2,452	212,644	107,863
334,114	2,667	212,371	107,867
335,129	2,555	212,330	107,757
336,143	2,550	212,123	107,639
337,158	2,299	212,048	107,414
338,173	2,289	211,910	107,328
339,187	2,396	211,691	107,283
340,202	2,443	211,579	107,249
341,216	2,229	211,595	107,097
342,231	2,349	211,391	107,069
343,246	2,402	211,225	107,012
344,260	2,442	211,195	107,016
345,275	2,401	211,014	106,885
346,289	2,441	210,977	106,886
347,304	2,519	210,750	106,816
348,319	2,501	210,487	106,660
349,333	2,582	210,245	106,585
350,348	2,614	210,183	106,567
351,362	2,513	210,183	106,486
352,377	2,661	209,973	106,473
353,392	2,403	209,864	106,229
354,406	2,348	209,803	106,150
355,421	193,116	1342,297	1425,215
356,435	154,108	1480,294	1425,249
