DTS Sentinel unit serial number:	SN410029Multiplexer serial number:	ORYXHardware model number:	OX2-SRSoftware version number:	ORYX F/W v4,00 Oryx Data Collector v3.7.2.0data status	okinstallation	B6 Nyhavnadifferential loss correction	single-endedforward channel	channel 2reverse channel	N/Adate	2023/12/08time	10:40:08forward acquisition time	300,00reverse acquisition time	0,00gamma	499,1914k internal	0,3162k external	0,3162temperature offset calibration	1,0000default loss term (dB/km)	0,3820temperature slope calibration	1,0000multiplexer offset coefficient	1,0000multiplexer slope coefficient	1,0000fibre end	0,00T internal ref (°C)	14,55T ext. ref 1 (°C)	-1,29T ext. ref 2 (°C)	-1,25length (m)	temperature (°C)	Stokes	anti-Stokes-744,400	-200,000	0,034	-0,127
-743,385	3,841	-0,277	-0,148
-742,371	-182,163	0,294	0,004
-741,356	-168,846	-0,372	-0,010
-740,342	-200,000	0,006	0,093
-739,327	-17,354	-0,326	0,151
-738,312	-65,360	0,088	0,026
-737,298	-71,714	-0,324	-0,088
-736,283	170,881	0,041	-0,044
-735,269	-112,295	-0,259	-0,038
-734,254	-200,000	-0,036	0,234
-733,239	-9,207	-0,381	-0,187
-732,225	-80,566	0,109	0,026
-731,210	246,185	-0,043	0,054
-730,196	-31,164	0,070	0,029
-729,181	185,957	-0,096	-0,105
-728,167	173,587	-0,077	0,082
-727,152	-38,953	-0,113	0,044
-726,137	63,814	-0,114	-0,084
-725,123	-11,779	-0,085	-0,041
-724,108	800,000	-0,059	-0,119
-723,094	11,301	-0,170	-0,096
-722,079	-144,537	0,113	-0,008
-721,064	278,184	0,041	-0,054
-720,050	800,000	0,002	0,005
-719,035	-142,650	-0,028	0,002
-718,021	800,000	-0,019	0,053
-717,006	-200,000	-0,019	-0,109
-715,991	-187,521	-0,094	-0,001
-714,977	-200,000	0,036	-0,155
-713,962	-142,956	-0,122	-0,009
-712,948	179,861	-0,060	0,065
-711,933	63,350	-0,124	-0,091
-710,918	-90,961	0,163	-0,034
-709,904	261,682	-0,156	-0,199
-708,889	-114,881	-0,116	0,016
-707,875	-200,000	-0,018	-0,083
-706,860	-24,120	-0,081	-0,035
-705,845	-54,458	0,047	0,015
-704,831	800,000	0,039	0,081
-703,816	125,977	-0,015	-0,014
-702,802	-200,000	0,005	0,071
-701,787	-54,064	-0,161	0,054
-700,772	-154,692	0,041	-0,002
-699,758	-15,568	0,011	0,005
-698,743	258,828	0,074	0,094
-697,729	-180,034	0,045	-0,001
-696,714	800,000	-0,024	-0,073
-695,699	48,317	0,054	-0,037
-694,685	124,735	-0,026	-0,024
-693,670	-19,117	0,082	0,037
-692,656	-200,000	-0,031	-0,144
-691,641	-194,897	-0,151	0,001
-690,627	707,255	0,082	-0,159
-689,612	16,887	-0,036	0,021
-688,597	178,756	0,054	0,058
-687,583	-200,000	-0,043	-0,141
-686,568	-200,000	0,034	-0,150
-685,554	122,696	0,142	-0,130
-684,539	630,190	-0,035	-0,066
-683,524	-200,000	-0,127	-0,000
-682,510	441,342	-0,041	-0,066
-681,495	301,544	-0,097	-0,131
-680,481	50,791	-0,112	-0,078
-679,466	800,000	-0,101	-0,212
-678,451	16,247	-0,060	0,035
-677,437	396,630	-0,029	0,045
-676,422	-200,000	0,015	0,114
-675,408	174,554	0,116	0,123
-674,393	-69,274	0,054	0,015
-673,378	205,528	0,040	-0,045
-672,364	14,600	0,080	-0,046
-671,349	800,000	0,013	-0,026
-670,335	285,701	-0,019	-0,026
-669,320	84,596	-0,082	-0,066
-668,305	3,417	0,046	-0,025
-667,291	57,909	0,130	-0,093
-666,276	-149,728	0,122	-0,007
-665,262	-38,355	-0,140	-0,054
-664,247	28,089	0,074	0,046
-663,232	-155,665	-0,024	-0,001
-662,218	-18,099	-0,013	0,006
-661,203	-200,000	0,000	0,023
-660,189	-56,421	0,012	-0,004
-659,174	-200,000	-0,033	-0,149
-658,159	-10,547	0,097	-0,047
-657,145	-106,576	-0,208	-0,034
-656,130	-200,000	-0,005	-0,093
-655,116	723,408	-0,016	0,032
-654,101	800,000	-0,030	0,096
-653,086	-200,000	-0,028	0,101
-652,072	40,352	-0,045	0,029
-651,057	-54,501	-0,095	-0,031
-650,043	-94,256	0,172	0,034
-649,028	-71,909	0,060	0,016
-648,014	200,009	0,074	0,083
-646,999	218,172	-0,061	0,072
-645,984	-2,583	-0,079	-0,040
-644,970	600,747	0,044	0,081
-643,955	52,760	0,020	0,014
-642,941	-168,837	0,013	-0,000
-641,926	-200,000	-0,004	-0,023
-640,911	-200,000	0,025	-0,088
-639,897	374,551	0,055	-0,082
-638,882	800,000	0,041	-0,099
-637,868	68,019	-0,110	-0,082
-636,853	-200,000	-0,003	-0,046
-635,838	-153,597	-0,081	-0,004
-634,824	-118,348	-0,027	0,003
-633,809	114,492	-0,044	0,040
-632,795	52,154	-0,080	-0,056
-631,780	277,042	0,024	-0,031
-630,765	-200,000	0,010	0,041
-629,751	-200,000	-0,000	0,078
-628,736	-176,445	0,043	-0,001
-627,722	179,154	0,088	0,094
-626,707	406,439	-0,088	0,136
-625,692	171,858	-0,017	-0,018
-624,678	88,749	0,018	0,014
-623,663	35,176	-0,092	-0,059
-622,649	521,924	-0,043	-0,075
-621,634	53,159	-0,039	0,027
-620,619	800,000	0,022	-0,060
-619,605	-200,000	0,015	0,084
-618,590	-200,000	0,022	0,077
-617,576	-21,590	0,137	0,061
-616,561	-7,202	-0,073	0,036
-615,546	42,447	0,040	0,026
-614,532	531,514	-0,091	-0,158
-613,517	-10,482	-0,055	-0,027
-612,503	-146,684	-0,106	-0,007
-611,488	-66,200	0,012	-0,003
-610,474	-147,896	-0,087	-0,005
-609,459	-200,000	-0,019	-0,157
-608,444	-200,000	0,015	-0,054
-607,430	91,000	-0,145	-0,119
-606,415	-126,818	-0,128	-0,014
-605,401	-173,674	-0,079	0,002
-604,386	241,934	0,059	0,072
-603,371	223,230	-0,092	0,108
-602,357	772,891	0,010	-0,019
-601,342	-165,213	-0,104	0,003
-600,328	-200,000	-0,005	0,047
-599,313	-200,000	-0,020	0,112
-598,298	-200,000	0,025	-0,172
-597,284	-144,458	-0,109	-0,007
-596,269	205,929	0,030	0,034
-595,255	-200,000	-0,013	-0,079
-594,240	-200,000	0,033	-0,116
-593,225	-161,190	-0,146	0,005
-592,211	98,963	-0,065	0,055
-591,196	800,000	-0,006	-0,018
-590,182	613,146	-0,034	-0,062
-589,167	-200,000	0,009	0,031
-588,152	237,942	-0,064	-0,078
-587,138	12,770	-0,062	-0,035
-586,123	-200,000	-0,032	0,116
-585,109	-40,620	0,026	0,010
-584,094	32,847	-0,071	-0,045
-583,079	184,479	0,031	0,033
-582,065	11,128	0,119	0,066
-581,050	47,873	0,091	0,062
-580,036	-200,000	-0,006	-0,103
-579,021	-200,000	-0,019	-0,114
-578,006	-200,000	-0,029	-0,110
-576,992	-171,520	-0,066	0,002
-575,977	146,786	0,015	0,014
-574,963	78,341	0,131	0,102
-573,948	-102,034	0,125	0,022
-572,934	-139,513	-0,156	-0,012
-571,919	119,594	0,043	-0,039
-570,904	167,408	-0,067	-0,070
-569,890	800,000	0,046	-0,106
-568,875	21,107	0,135	-0,080
-567,861	43,357	0,043	-0,028
-566,846	-114,380	-0,052	0,007
-565,831	326,363	-0,021	0,029
-564,817	66,536	-0,089	0,066
-563,802	43,327	-0,141	-0,094
-562,788	33,202	-0,096	-0,061
-561,773	-66,148	-0,137	-0,040
-560,758	-200,000	-0,010	0,058
-559,744	-200,000	-0,023	0,000
-558,729	319,108	-0,058	-0,080
-557,715	800,000	-0,052	0,125
-556,700	800,000	0,026	-0,082
-555,685	-99,810	-0,056	0,010
-554,671	-200,000	0,029	-0,166
-553,656	153,877	0,125	0,126
-552,642	-72,566	0,109	0,029
-551,627	78,094	-0,046	-0,036
-550,612	-200,000	0,024	-0,163
-549,598	124,349	0,106	-0,097
-548,583	-86,668	-0,128	-0,028
-547,569	-118,957	0,087	-0,011
-546,554	24,854	-0,142	-0,086
-545,539	36,150	0,145	0,093
-544,525	437,484	0,061	0,097
-543,510	188,976	-0,039	-0,043
-542,496	800,000	0,041	-0,124
-541,481	-109,238	0,058	0,009
-540,466	40,409	-0,011	-0,007
-539,452	-200,000	-0,026	0,094
-538,437	182,571	-0,067	0,073
-537,423	-200,000	-0,028	-0,100
-536,408	800,000	-0,026	0,060
-535,393	-200,000	0,015	-0,090
-534,379	800,000	0,056	-0,123
-533,364	51,822	-0,016	0,011
-532,350	-52,024	0,078	0,026
-531,335	-200,000	0,012	0,147
-530,321	475,337	-0,112	0,185
-529,306	61,718	-0,018	0,013
-528,291	-73,591	0,143	0,038
-527,277	204,415	-0,127	-0,144
-526,262	526,403	0,057	-0,098
-525,248	800,000	0,057	-0,117
-524,233	-157,153	-0,111	0,005
-523,218	-52,785	0,127	0,042
-522,204	-200,000	-0,010	0,045
-521,189	94,695	0,059	-0,049
-520,175	-44,979	-0,098	0,035
-519,160	-52,814	-0,068	0,023
-518,145	231,055	0,075	-0,090
-517,131	-22,636	-0,024	0,010
-516,116	-200,000	-0,022	0,127
-515,102	214,297	-0,014	0,016
-514,087	800,000	-0,047	0,117
-513,072	17,243	0,043	-0,025
-512,058	64,823	0,086	-0,063
-511,043	135,589	0,050	0,047
-510,029	-48,769	-0,034	0,012
-509,014	-200,000	0,003	0,016
-507,999	226,695	0,062	0,073
-506,985	-200,000	-0,003	0,044
-505,970	-200,000	0,000	0,153
-504,956	321,984	-0,025	0,035
-503,941	70,062	-0,046	0,034
-502,926	92,781	0,114	-0,094
-501,912	-200,000	0,006	0,032
-500,897	794,727	-0,056	-0,114
-499,883	291,524	-0,032	0,043
-498,868	-200,000	0,000	-0,027
-497,853	800,000	0,022	-0,045
-496,839	220,384	0,055	0,065
-495,824	141,930	-0,066	-0,064
-494,810	13,513	-0,099	-0,056
-493,795	-45,598	0,140	0,050
-492,781	-80,766	0,087	0,021
-491,766	-88,280	-0,127	-0,027
-490,751	194,452	-0,127	0,141
-489,737	98,474	-0,030	0,026
-488,722	-141,341	-0,095	-0,007
-487,708	-113,632	-0,085	0,012
-486,693	-39,702	0,069	0,026
-485,678	230,126	-0,103	-0,122
-484,664	4,109	-0,047	-0,025
-483,649	357,284	0,088	0,128
-482,635	-71,914	-0,065	-0,017
-481,620	466,379	0,128	0,210
-480,605	20,452	0,095	0,056
-479,591	276,977	-0,070	0,091
-478,576	129,855	0,030	-0,028
-477,562	-103,942	-0,075	0,013
-476,547	228,250	-0,032	-0,038
-475,532	90,104	-0,087	-0,071
-474,518	182,349	0,073	-0,078
-473,503	-200,000	-0,004	0,116
-472,489	256,261	0,032	0,041
-471,474	-200,000	-0,008	0,077
-470,459	-200,000	0,000	0,066
-469,445	566,525	-0,070	-0,124
-468,430	-129,934	-0,057	-0,006
-467,416	-200,000	0,009	0,140
-466,401	347,253	-0,048	0,069
-465,386	-192,184	0,118	-0,001
-464,372	38,187	0,135	0,087
-463,357	800,000	0,068	-0,143
-462,343	-200,000	-0,008	0,037
-461,328	-49,554	-0,064	-0,022
-460,313	-108,753	0,071	0,011
-459,299	209,456	0,148	0,169
-458,284	-200,000	0,007	0,119
-457,270	-133,206	0,069	-0,006
-456,255	-84,024	-0,079	-0,018
-455,241	800,000	-0,065	-0,193
-454,226	800,000	-0,042	-0,107
-453,211	760,400	-0,024	0,047
-452,197	-200,000	-0,001	0,008
-451,182	-200,000	0,003	0,038
-450,168	-106,976	0,083	0,013
-449,153	-200,000	-0,033	-0,155
-448,138	-200,000	-0,006	0,100
-447,124	318,847	0,007	-0,009
-446,109	566,081	0,032	-0,058
-445,095	129,511	-0,042	0,039
-444,080	-200,000	0,019	-0,119
-443,065	-83,474	0,204	0,047
-442,051	79,663	0,141	-0,110
-441,036	36,184	-0,043	-0,027
-440,022	15,200	-0,106	-0,060
-439,007	800,000	0,060	0,130
-437,992	145,778	0,072	0,070
-436,978	48,294	0,112	-0,076
-435,963	-200,000	0,007	0,118
-434,949	-200,000	0,007	0,035
-433,934	-105,413	-0,099	0,016
-432,919	-55,291	0,107	0,035
-431,905	358,302	-0,024	0,034
-430,890	800,000	0,034	0,072
-429,876	-58,162	-0,030	-0,009
-428,861	-81,390	-0,062	0,015
-427,846	-26,518	0,074	0,031
-426,832	389,300	-0,054	0,082
-425,817	-200,000	0,010	0,044
-424,803	630,960	0,034	0,063
-423,788	7,166	0,073	0,040
-422,773	-200,000	-0,025	0,109
-421,759	-26,226	0,042	-0,018
-420,744	-200,000	-0,006	0,131
-419,730	195,619	-0,092	0,102
-418,715	-200,000	-0,026	-0,176
-417,701	-200,000	0,039	-0,125
-416,686	-200,000	-0,045	-0,000
-415,671	-71,381	-0,090	0,024
-414,657	595,042	0,046	-0,083
-413,642	53,473	0,017	0,012
-412,628	618,659	0,045	-0,083
-411,613	-44,520	-0,094	-0,034
-410,598	-161,954	0,071	0,003
-409,584	678,322	0,032	0,061
-408,569	21,698	-0,042	-0,025
-407,555	22,581	-0,059	-0,035
-406,540	-200,000	-0,001	0,015
-405,525	800,000	0,037	-0,100
-404,511	-200,000	-0,039	-0,162
-403,496	44,837	0,059	0,040
-402,482	66,466	0,088	0,065
-401,467	-90,971	0,042	-0,009
-400,452	204,437	-0,025	-0,028
-399,438	-200,000	-0,048	-0,236
-398,423	209,638	0,035	-0,040
-397,409	-37,823	0,101	-0,039
-396,394	576,357	0,049	0,088
-395,379	-25,485	-0,111	0,047
-394,365	40,063	0,108	0,070
-393,350	-19,783	0,081	0,036
-392,336	132,647	0,032	-0,030
-391,321	83,226	0,039	-0,031
-390,306	288,485	-0,058	-0,076
-389,292	39,686	-0,029	-0,019
-388,277	-200,000	-0,001	0,059
-387,263	-23,853	0,048	0,021
-386,248	-23,096	0,168	0,073
-385,233	-44,303	0,138	0,050
-384,219	-200,000	0,024	0,099
-383,204	342,726	-0,077	-0,109
-382,190	-87,549	-0,144	-0,031
-381,175	-94,523	0,051	0,010
-380,160	-200,000	0,021	0,122
-379,146	-8,638	-0,005	-0,003
-378,131	150,959	-0,029	-0,028
-377,117	73,711	-0,063	-0,048
-376,102	800,000	-0,026	-0,068
-375,088	547,049	-0,032	0,056
-374,073	800,000	0,060	-0,139
-373,058	-200,000	-0,011	0,055
-372,044	-169,971	-0,100	-0,003
-371,029	476,769	0,052	0,086
-370,015	-86,980	0,025	-0,006
-369,000	-200,000	0,011	-0,157
-367,985	-103,835	0,114	-0,019
-366,971	-148,277	-0,217	-0,013
-365,956	63,521	0,069	-0,050
-364,942	800,000	0,049	0,152
-363,927	800,000	-0,054	-0,111
-362,912	-200,000	0,001	-0,032
-361,898	82,718	-0,128	-0,101
-360,883	800,000	-0,049	0,110
-359,869	103,417	-0,104	-0,089
-358,854	435,888	-0,006	0,009
-357,839	-200,000	-0,014	0,151
-356,825	-200,000	-0,015	0,107
-355,810	84,610	-0,075	0,060
-354,796	243,324	0,038	0,046
-353,781	-149,779	-0,088	0,005
-352,766	507,113	0,047	-0,080
-351,752	-95,423	0,071	0,014
-350,737	69,423	0,054	0,040
-349,723	-200,000	0,037	-0,120
-348,708	-200,000	-0,010	0,042
-347,693	-47,953	-0,048	-0,017
-346,679	779,994	-0,054	-0,108
-345,664	-200,000	0,006	-0,126
-344,650	-11,383	0,105	-0,050
-343,635	-95,467	0,123	-0,024
-342,620	-200,000	0,017	0,077
-341,606	-24,331	0,116	0,050
-340,591	-200,000	0,014	0,060
-339,577	-192,435	-0,088	-0,001
-338,562	-200,000	-0,003	-0,039
-337,548	800,000	-0,015	-0,037
-336,533	-200,000	0,001	-0,088
-335,518	208,400	0,065	0,074
-334,504	82,699	-0,037	0,029
-333,489	-200,000	0,001	-0,015
-332,475	-200,000	0,009	-0,090
-331,460	-200,000	-0,013	-0,090
-330,445	27,321	-0,169	-0,103
-329,431	-70,193	0,131	-0,036
-328,416	742,039	-0,068	-0,134
-327,402	407,448	-0,053	0,081
-326,387	-22,612	-0,172	0,075
-325,372	-60,227	-0,070	-0,021
-324,358	677,264	0,084	-0,158
-323,343	9,010	0,059	0,032
-322,329	-200,000	0,041	0,157
-321,314	-132,978	0,099	-0,009
-320,299	-200,000	0,001	0,031
-319,285	-200,000	0,012	-0,054
-318,270	800,000	0,088	-0,188
-317,256	-26,614	-0,106	0,045
-316,241	284,850	0,058	-0,075
-315,226	-200,000	-0,009	0,113
-314,212	72,259	0,045	-0,034
-313,197	800,000	0,023	0,062
-312,183	69,647	0,177	-0,132
-311,168	20,406	-0,036	-0,021
-310,153	-200,000	0,014	0,075
-309,139	589,910	-0,020	0,035
-308,124	297,705	-0,100	0,133
-307,110	-114,158	0,180	-0,025
-306,095	-44,241	0,018	-0,007
-305,080	800,000	0,013	0,027
-304,066	107,502	-0,073	-0,063
-303,051	177,476	-0,021	-0,022
-302,037	12,459	-0,123	0,068
-301,022	226,150	-0,054	-0,063
-300,008	-148,495	0,136	-0,008
-298,993	-200,000	0,010	0,161
-297,978	223,400	0,046	-0,053
-296,964	-136,597	0,065	-0,005
-295,949	800,000	-0,038	-0,118
-294,935	-114,708	0,055	-0,007
-293,920	-107,488	0,062	0,010
-292,905	548,495	-0,073	0,127
-291,891	294,065	-0,026	-0,035
-290,876	224,263	-0,039	-0,046
-289,862	442,199	0,022	0,034
-288,847	-127,368	0,050	0,005
-287,832	-42,081	-0,029	-0,011
-286,818	-65,408	0,108	0,031
-285,803	-200,000	-0,004	0,040
-284,789	522,064	-0,037	0,063
-283,774	-153,203	0,090	0,005
-282,759	177,449	-0,026	0,027
-281,745	110,971	0,043	-0,037
-280,730	-200,000	0,000	-0,169
-279,716	-200,000	0,007	-0,122
-278,701	-200,000	0,025	0,178
-277,686	-200,000	-0,045	0,146
-276,672	-200,000	0,019	-0,083
-275,657	547,038	-0,071	-0,123
-274,643	99,162	-0,096	-0,080
-273,628	-148,276	-0,128	-0,007
-272,613	-200,000	-0,009	-0,123
-271,599	-65,405	-0,087	0,025
-270,584	-79,829	0,142	0,034
-269,570	-143,139	-0,089	0,006
-268,555	412,062	0,086	0,132
-267,540	463,669	-0,035	-0,056
-266,526	165,426	-0,063	0,064
-265,511	691,836	-0,071	0,135
-264,497	403,137	0,079	0,120
-263,482	-83,635	-0,049	0,011
-262,467	319,757	-0,058	-0,080
-261,453	41,834	0,047	-0,031
-260,438	-200,000	0,022	-0,151
-259,424	800,000	-0,039	0,109
-258,409	-200,000	-0,014	0,101
-257,395	-14,172	0,110	0,051
-256,380	80,085	0,063	-0,049
-255,365	468,800	-0,066	0,108
-254,351	651,216	0,072	0,135
-253,336	78,616	-0,096	0,074
-252,322	-200,000	-0,015	0,048
-251,307	-200,000	0,022	-0,109
-250,292	-200,000	-0,007	0,174
-249,278	800,000	0,014	-0,043
-248,263	426,216	0,083	0,129
-247,249	223,247	0,128	0,149
-246,234	9,883	0,059	0,032
-245,219	-200,000	-0,019	-0,094
-244,205	419,741	0,082	0,127
-243,190	-200,000	-0,003	-0,045
-242,176	-200,000	0,004	-0,025
-241,161	-48,261	0,062	0,021
-240,146	-200,000	0,004	0,026
-239,132	178,025	0,028	0,029
-238,117	800,000	-0,029	-0,077
-237,103	35,598	-0,062	0,039
-236,088	-200,000	0,016	0,170
-235,073	-200,000	0,002	0,015
-234,059	800,000	0,040	0,103
-233,044	2,033	-0,068	0,035
-232,030	-200,000	0,017	-0,057
-231,015	70,958	0,054	-0,041
-230,000	328,198	-0,090	-0,125
-228,986	-200,000	0,002	-0,017
-227,971	-3,989	0,058	-0,029
-226,957	363,382	-0,085	0,123
-225,942	-200,000	-0,019	0,089
-224,927	138,036	0,084	0,080
-223,913	231,051	-0,035	0,042
-222,898	800,000	-0,022	-0,055
-221,884	-200,000	0,000	-0,038
-220,869	60,478	-0,027	0,019
-219,855	-200,000	-0,005	0,036
-218,840	-111,458	0,119	0,017
-217,825	315,420	-0,074	0,101
-216,811	114,343	0,055	-0,048
-215,796	-94,563	-0,122	-0,024
-214,782	-105,767	0,094	0,015
-213,767	239,582	-0,090	-0,108
-212,752	233,652	-0,028	0,033
-211,738	-85,284	0,031	0,007
-210,723	92,878	-0,138	-0,112
-209,709	-105,550	-0,047	-0,008
-208,694	48,744	-0,042	0,028
-207,679	-200,000	0,045	-0,266
-206,665	324,145	0,037	-0,052
-205,650	56,491	-0,050	0,035
-204,636	69,147	0,078	0,058
-203,621	-43,473	0,056	0,020
-202,606	-200,000	-0,032	0,160
-201,592	358,324	-0,005	-0,007
-200,577	288,994	-0,020	0,026
-199,563	527,080	0,096	-0,163
-198,548	-9,767	0,145	0,069
-197,533	196,870	-0,053	-0,058
-196,519	406,828	-0,070	0,107
-195,504	-200,000	-0,007	-0,189
-194,490	733,431	-0,033	-0,063
-193,475	-200,000	-0,056	-0,229
-192,460	-200,000	-0,013	0,048
-191,446	-58,073	0,062	0,020
-190,431	800,000	-0,015	-0,039
-189,417	177,313	0,039	-0,041
-188,402	800,000	0,026	0,068
-187,387	-200,000	-0,008	-0,070
-186,373	89,664	0,056	0,045
-185,358	-129,764	0,037	-0,004
-184,344	800,000	-0,057	0,151
-183,329	-89,686	0,150	0,031
-182,315	286,466	0,096	-0,126
-181,300	-200,000	-0,023	-0,102
-180,285	-67,074	-0,040	0,011
-179,271	45,495	-0,019	0,013
-178,256	800,000	0,028	0,084
-177,242	-25,370	-0,092	-0,039
-176,227	109,519	0,040	-0,034
-175,212	110,124	0,106	-0,091
-174,198	438,993	-0,106	0,167
-173,183	-167,877	-0,104	0,003
-172,169	165,697	-0,082	0,084
-171,154	12,792	-0,135	-0,075
-170,139	104,044	0,075	0,064
-169,125	-64,391	0,026	0,008
-168,110	-200,000	0,023	-0,089
-167,096	800,000	-0,030	0,082
-166,081	-200,000	-0,035	0,115
-165,066	-200,000	-0,020	-0,130
-164,052	800,000	-0,029	-0,079
-163,037	800,000	-0,016	0,033
-162,023	302,913	-0,069	0,092
-161,008	-200,000	0,019	-0,064
-159,993	-200,000	-0,001	-0,161
-158,979	21,375	0,058	0,034
-157,964	163,151	0,050	-0,050
-156,950	-137,641	0,166	-0,013
-155,935	80,714	0,040	0,031
-154,920	-200,000	0,018	0,109
-153,906	-136,257	0,160	0,013
-152,891	565,691	-0,010	0,017
-151,877	34,240	-0,050	0,031
-150,862	-90,660	-0,138	-0,028
-149,847	-82,700	0,113	-0,026
-148,833	-200,000	0,009	0,078
-147,818	10,388	0,105	-0,057
-146,804	-200,000	-0,008	0,130
-145,789	122,743	0,025	0,023
-144,775	-23,402	-0,034	-0,015
-143,760	202,502	-0,085	-0,095
-142,745	800,000	0,008	-0,022
-141,731	-5,411	-0,025	0,012
-140,716	210,894	-0,013	0,015
-139,702	-163,011	0,069	0,002
-138,687	82,980	0,098	0,077
-137,672	343,919	0,063	-0,088
-136,658	523,113	0,026	0,045
-135,643	427,824	0,019	0,029
-134,629	669,046	-0,025	-0,048
-133,614	-94,452	0,027	-0,005
-132,599	-106,177	0,050	0,008
-131,585	-121,522	0,133	-0,016
-130,570	-9,166	0,031	0,015
-129,556	800,000	-0,078	0,172
-128,541	-200,000	-0,022	-0,076
-127,526	-200,000	0,046	0,184
-126,512	800,000	-0,013	-0,028
-125,497	-143,733	0,157	-0,011
-124,483	-6,956	-0,105	0,051
-123,468	-200,000	0,007	-0,047
-122,453	-10,265	0,041	0,020
-121,439	461,393	-0,049	0,078
-120,424	-200,000	0,007	0,078
-119,410	-79,894	-0,043	0,010
-118,395	-200,000	-0,037	0,145
-117,380	-72,389	-0,118	0,031
-116,366	374,564	-0,051	0,075
-115,351	800,000	0,039	-0,078
-114,337	-93,753	0,077	-0,015
-113,322	-21,310	-0,098	-0,043
-112,307	39,358	0,095	-0,061
-111,293	2,508	0,113	-0,059
-110,278	800,000	0,043	0,093
-109,264	-200,000	-0,001	-0,013
-108,249	-105,437	0,045	0,007
-107,234	24,048	0,059	-0,035
-106,220	722,999	-0,026	-0,050
-105,205	-200,000	-0,008	-0,078
-104,191	129,774	-0,032	-0,030
-103,176	-200,000	-0,009	0,126
-102,162	-200,000	0,002	-0,055
-101,147	-200,000	-0,014	-0,059
-100,132	-200,000	0,001	0,013
-99,118	-200,000	-0,010	0,147
-98,103	95,903	0,112	0,092
-97,089	-200,000	0,024	0,117
-96,074	-65,893	0,102	0,029
-95,059	800,000	0,024	0,051
-94,045	-103,604	-0,082	-0,014
-93,030	184,256	-0,053	-0,056
-92,016	649,249	-0,108	-0,198
-91,001	-200,000	-0,007	-0,099
-89,986	-123,108	-0,040	-0,005
-88,972	-58,078	0,131	-0,041
-87,957	-77,637	-0,041	0,010
-86,943	137,317	0,042	-0,039
-85,928	800,000	-0,040	0,100
-84,913	-176,125	0,055	-0,001
-83,899	-200,000	0,025	-0,123
-82,884	188,236	0,057	0,061
-81,870	147,909	-0,007	0,007
-80,855	-16,888	0,121	-0,054
-79,840	800,000	-0,037	-0,097
-78,826	452,717	-0,006	-0,010
-77,811	-200,000	0,034	-0,118
-76,797	-20,674	-0,029	0,013
-75,782	25,695	0,115	-0,069
-74,767	121,820	0,106	-0,095
-73,753	298,516	0,090	0,118
-72,738	157,785	0,029	-0,029
-71,724	537,616	0,050	-0,085
-70,709	-138,812	-0,051	0,004
-69,694	17,434	-0,060	-0,034
-68,680	800,000	0,019	0,047
-67,665	-200,000	0,059	0,259
-66,651	-200,000	-0,046	-0,187
-65,636	3,166	0,041	0,021
-64,622	46,029	-0,123	-0,081
-63,607	-189,994	-0,105	0,001
-62,592	270,062	-0,039	0,049
-61,578	-200,000	0,016	-0,113
-60,563	40,473	0,148	0,095
-59,549	800,000	0,064	0,146
-58,534	22,145	-2,065	-1,205
-57,519	-200,000	-0,163	-0,883
-56,505	-200,000	-1,409	-5,008
-55,490	63,360	0,857	0,615
-54,476	800,000	5,443	12,042
-53,461	-200,000	18,135	291,394
-52,446	800,000	729,280	2221,414
-51,432	528,999	1642,070	2788,115
-50,417	108,173	1631,345	1393,736
-49,403	73,121	1283,597	960,493
-48,388	30,855	1025,086	627,718
-47,373	19,765	986,973	567,925
-46,359	17,861	974,670	554,606
-45,344	14,841	970,790	542,527
-44,330	15,073	969,280	542,421
-43,315	14,568	967,350	539,674
-42,300	14,557	966,250	539,002
-41,286	14,569	965,317	538,500
-40,271	14,489	964,505	537,768
-39,257	14,543	963,524	537,373
-38,242	14,573	962,543	536,904
-37,227	14,598	961,918	536,612
-36,213	14,581	961,070	536,064
-35,198	14,508	960,034	535,229
-34,184	14,577	959,337	535,042
-33,169	14,454	958,326	534,059
-32,154	14,597	957,411	533,990
-31,140	14,563	956,541	533,375
-30,125	14,636	955,607	533,066
-29,111	14,620	954,905	532,602
-28,096	14,600	954,373	532,221
-27,082	14,559	953,647	531,661
-26,067	14,663	952,657	531,423
-25,052	14,588	951,923	530,754
-24,038	14,567	951,438	530,395
-23,023	14,605	950,746	530,109
-22,009	14,689	950,115	530,003
-20,994	14,595	949,504	529,341
-19,979	14,559	948,972	528,910
-18,965	14,536	948,359	528,475
-17,950	14,564	947,752	528,202
-16,936	14,480	947,220	527,619
-15,921	14,518	946,331	527,223
-14,906	14,503	945,527	526,708
-13,892	14,507	944,918	526,360
-12,877	14,474	944,372	525,931
-11,863	14,438	943,848	525,502
-10,848	14,478	943,204	525,251
-9,833	14,587	942,583	525,229
-8,819	14,592	942,085	524,947
-7,804	14,510	941,571	524,380
-6,790	14,482	940,839	523,863
-5,775	14,501	940,357	523,632
-4,760	14,502	939,663	523,230
-3,746	14,450	939,024	522,688
-2,731	14,325	938,278	521,860
-1,717	14,300	937,634	521,401
-0,702	14,289	937,000	520,995
0,313	14,093	936,434	520,848
1,327	17,578	934,390	530,605
2,342	26,755	787,676	471,378
3,356	23,345	443,448	260,323
4,371	-5,714	295,450	144,432
5,386	-9,392	277,180	132,008
6,400	-10,986	271,760	127,934
7,415	-10,792	269,316	126,951
8,429	-11,044	267,871	126,028
9,444	-11,283	267,198	125,482
10,459	-11,142	266,614	125,325
11,473	-11,012	265,647	124,977
12,488	-11,402	265,363	124,478
13,502	-11,418	264,643	124,115
14,517	-11,358	264,259	123,979
15,531	-11,399	263,976	123,797
16,546	-11,405	263,416	123,518
17,561	-11,445	263,187	123,364
18,575	-11,566	262,860	123,091
19,590	-11,413	262,403	123,003
20,604	-11,317	262,312	123,035
21,619	-11,458	261,774	122,646
22,634	-11,653	261,482	122,325
23,648	-11,506	261,276	122,348
24,663	-11,656	260,898	122,027
25,677	-11,647	260,674	121,919
26,692	-11,571	260,340	121,820
27,707	-11,561	260,120	121,715
28,721	-11,484	259,727	121,588
29,736	-11,459	259,458	121,474
30,750	-11,717	259,354	121,186
31,765	-11,504	258,979	121,188
32,780	-11,550	258,838	121,071
33,794	-11,469	258,497	120,972
34,809	-11,735	258,416	120,688
35,823	-11,521	258,036	120,689
36,838	-11,626	257,918	120,530
37,853	-11,709	257,595	120,296
38,867	-11,589	257,327	120,265
39,882	-11,652	257,111	120,098
40,896	-11,807	256,891	119,849
41,911	-11,707	256,689	119,832
42,926	-11,631	256,396	119,751
43,940	-11,845	256,212	119,468
44,955	-12,025	256,081	119,238
45,969	-11,814	255,727	119,247
46,984	-11,992	255,503	118,976
47,999	-12,167	255,125	118,638
49,013	-12,289	254,898	118,415
50,028	-12,270	254,569	118,268
51,042	-12,578	254,349	117,889
52,057	-12,436	254,251	117,956
53,071	-12,351	253,968	117,888
54,086	-12,289	253,792	117,849
55,101	-12,252	253,653	117,806
56,115	-12,022	253,469	117,909
57,130	-11,647	253,537	118,253
58,144	-11,376	253,186	118,312
59,159	-11,084	253,029	118,480
60,174	-11,370	252,803	118,118
61,188	-11,479	252,808	118,016
62,203	-11,363	252,260	117,849
63,217	-11,526	252,375	117,752
64,232	-11,537	251,921	117,521
65,247	-11,238	251,832	117,725
66,261	-11,525	251,526	117,326
67,276	-11,673	251,129	117,003
68,290	-11,960	250,994	116,685
69,305	-11,982	250,610	116,478
70,320	-11,917	250,480	116,463
71,334	-11,747	250,561	116,634
72,349	-11,227	250,303	116,946
73,363	-11,158	250,178	116,936
74,378	-11,561	249,969	116,486
75,393	-11,602	249,759	116,343
76,407	-11,627	249,518	116,199
77,422	-11,467	249,289	116,218
78,436	-11,479	249,052	116,087
79,451	-11,427	248,956	116,075
80,466	-11,636	248,533	115,691
81,480	-11,900	248,291	115,346
82,495	-11,904	248,118	115,252
83,509	-11,759	248,064	115,338
84,524	-11,759	247,711	115,164
85,539	-12,139	247,723	114,839
86,553	-12,091	247,361	114,702
87,568	-11,960	247,223	114,737
88,582	-11,888	246,900	114,638
89,597	-11,825	246,931	114,694
90,611	-11,480	246,526	114,785
91,626	-11,523	246,533	114,742
92,641	-11,634	246,272	114,517
93,655	-11,821	246,095	114,269
94,670	-11,546	245,745	114,326
95,684	-11,829	245,693	114,055
96,699	-11,748	245,439	113,994
97,714	-11,838	245,221	113,808
98,728	-11,891	245,139	113,716
99,743	-11,950	244,681	113,444
100,757	-12,023	244,498	113,289
101,772	-11,839	244,382	113,377
102,787	-11,899	244,372	113,314
103,801	-11,682	244,076	113,346
104,816	-11,989	244,154	113,118
105,830	-11,583	243,818	113,288
106,845	-11,413	243,619	113,325
107,860	-11,661	243,580	113,093
108,874	-11,678	243,360	112,965
109,889	-11,617	243,083	112,878
110,903	-11,735	242,905	112,687
111,918	-11,786	242,587	112,488
112,933	-11,659	242,491	112,538
113,947	-11,653	242,289	112,439
114,962	-11,705	242,266	112,376
115,976	-11,595	242,012	112,338
116,991	-11,629	241,830	112,216
118,006	-11,627	241,767	112,178
119,020	-11,554	241,549	112,126
120,035	-11,809	241,480	111,876
121,049	-11,518	241,225	111,986
122,064	-11,451	240,997	111,925
123,079	-11,646	240,950	111,733
124,093	-11,716	240,662	111,533
125,108	-12,015	240,226	111,077
126,122	-12,007	240,097	111,015
127,137	-12,265	239,987	110,745
128,151	-12,100	239,834	110,798
129,166	-11,955	239,616	110,805
130,181	-12,055	239,391	110,610
131,195	-11,935	239,074	110,551
132,210	-11,748	239,044	110,678
133,224	-11,652	238,992	110,722
134,239	-11,534	238,815	110,725
135,254	-11,555	238,588	110,593
136,268	-11,618	238,322	110,409
137,283	-12,023	238,128	109,984
138,297	-12,082	237,927	109,833
139,312	-12,011	237,804	109,824
140,327	-11,711	237,757	110,034
141,341	-11,456	237,803	110,250
142,356	-11,221	237,542	110,308
143,370	-11,254	237,566	110,282
144,385	-11,317	237,278	110,089
145,400	-11,137	236,995	110,092
146,414	-11,426	236,876	109,795
147,429	-11,415	236,711	109,717
148,443	-11,384	236,489	109,630
149,458	-11,282	236,330	109,627
150,473	-11,303	236,077	109,484
151,487	-11,532	235,877	109,199
152,502	-11,289	235,770	109,333
153,516	-11,099	235,588	109,390
154,531	-11,480	235,456	109,016
155,546	-11,442	235,357	108,991
156,560	-11,208	235,084	109,040
157,575	-11,441	234,787	108,708
158,589	-11,498	234,779	108,650
159,604	-11,133	234,644	108,867
160,619	-11,150	234,475	108,765
161,633	-11,067	234,294	108,737
162,648	-11,086	234,261	108,697
163,662	-11,168	233,975	108,490
164,677	-11,420	233,860	108,228
165,692	-11,263	233,649	108,245
166,706	-11,170	233,491	108,235
167,721	-11,119	233,376	108,212
168,735	-11,275	233,471	108,123
169,750	-11,266	233,061	107,931
170,764	-11,188	232,929	107,922
171,779	-11,505	232,977	107,685
172,794	-11,191	232,696	107,792
173,808	-11,481	232,355	107,398
174,823	-12,022	232,136	106,863
175,837	-11,917	231,907	106,831
176,852	-11,406	231,795	107,168
177,867	-11,354	231,873	107,236
178,881	-11,119	231,519	107,246
179,896	-11,037	231,620	107,347
180,910	-11,168	231,289	107,082
181,925	-10,958	231,161	107,176
182,940	-10,887	230,915	107,108
183,954	-11,116	230,829	106,881
184,969	-11,098	230,904	106,920
185,983	-10,735	230,465	106,989
186,998	-11,090	230,445	106,694
188,013	-11,066	230,215	106,597
189,027	-11,092	230,055	106,493
190,042	-10,976	229,943	106,522
191,056	-10,931	229,895	106,525
192,071	-11,053	229,705	106,333
193,086	-11,324	229,723	106,122
194,100	-11,041	229,342	106,155
195,115	-11,091	228,880	105,893
196,129	-10,829	229,037	106,159
197,144	-6,216	230,691	110,490
198,159	-0,988	232,322	115,330
199,173	2,315	232,994	118,225
200,188	2,410	233,151	118,369
201,202	2,741	232,945	118,510
202,217	3,096	232,717	118,660
203,232	3,369	232,726	118,866
204,246	3,447	232,616	118,860
205,261	3,545	232,547	118,890
206,275	3,657	232,523	118,953
207,290	3,557	232,239	118,720
208,304	3,624	232,061	118,670
209,319	3,699	231,886	118,628
210,334	3,557	231,533	118,327
211,348	3,289	231,382	118,033
212,363	3,030	231,257	117,760
213,377	3,087	230,982	117,653
214,392	2,754	230,870	117,329
215,407	2,724	230,853	117,287
216,421	2,808	230,632	117,228
217,436	2,837	230,458	117,152
218,450	2,622	230,265	116,878
219,465	2,617	230,061	116,761
220,480	2,674	229,844	116,684
221,494	2,598	229,816	116,601
222,509	2,744	229,695	116,641
223,523	2,875	229,575	116,670
224,538	2,851	229,445	116,575
225,553	2,771	229,235	116,397
226,567	2,929	229,122	116,450
227,582	3,021	228,992	116,444
228,596	3,039	229,016	116,459
229,611	2,856	228,786	116,192
230,626	2,554	228,452	115,782
231,640	2,655	228,150	115,695
232,655	2,906	228,163	115,883
233,669	3,237	228,119	116,101
234,684	3,425	228,000	116,172
235,699	3,248	227,845	115,949
236,713	2,944	227,613	115,591
237,728	2,829	227,412	115,391
238,742	2,921	227,141	115,313
239,757	2,861	227,062	115,217
240,772	2,983	226,894	115,214
241,786	2,703	226,878	114,985
242,801	2,845	226,747	115,014
243,815	3,095	226,814	115,227
244,830	3,144	226,615	115,152
245,844	2,908	226,187	114,747
246,859	2,983	226,149	114,774
247,874	2,903	226,101	114,679
248,888	3,199	225,956	114,818
249,903	2,994	225,620	114,483
250,917	2,677	225,717	114,284
251,932	2,775	225,459	114,217
252,947	2,685	225,203	114,010
253,961	2,656	224,925	113,837
254,976	2,620	224,962	113,819
255,990	3,034	224,806	114,039
257,005	3,316	224,658	114,164
258,020	2,948	224,587	113,843
259,034	3,475	224,481	114,172
260,049	3,108	224,277	113,785
261,063	2,895	224,130	113,542
262,078	3,282	223,927	113,717
263,093	3,382	223,932	113,783
264,107	3,152	223,896	113,584
265,122	3,033	223,764	113,418
266,136	3,322	223,490	113,483
267,151	3,475	223,358	113,520
268,166	2,801	223,176	112,919
269,180	2,571	222,838	112,567
270,195	2,744	222,714	112,623
271,209	2,686	222,588	112,506
272,224	2,956	222,521	112,661
273,239	2,981	222,359	112,588
274,253	2,803	222,046	112,288
275,268	2,757	222,023	112,233
276,282	2,683	221,824	112,067
277,297	2,710	221,571	111,950
278,312	2,668	221,580	111,913
279,326	2,830	221,556	112,010
280,341	2,858	221,384	111,933
281,355	2,853	221,337	111,896
282,370	2,903	221,066	111,786
283,384	2,540	220,921	111,438
284,399	2,535	220,593	111,258
285,414	2,397	220,616	111,158
286,428	2,962	220,392	111,448
287,443	2,944	220,427	111,443
288,457	2,889	220,264	111,311
289,472	2,908	219,907	111,134
290,487	2,400	219,723	110,662
291,501	2,171	219,765	110,506
292,516	2,626	219,442	110,665
293,530	2,551	219,478	110,618
294,545	2,592	219,264	110,530
295,560	2,825	219,149	110,632
296,574	2,868	219,119	110,638
297,589	2,971	218,930	110,607
298,603	2,909	218,747	110,460
299,618	2,871	218,645	110,371
300,633	3,024	218,688	110,493
301,647	3,225	218,606	110,587
302,662	3,177	218,396	110,437
303,676	3,080	218,029	110,171
304,691	2,993	218,129	110,150
305,706	2,869	217,981	109,975
306,720	3,011	217,756	109,954
307,735	2,732	217,610	109,670
308,749	2,967	217,448	109,747
309,764	3,007	217,323	109,703
310,779	3,299	217,241	109,862
311,793	3,105	216,918	109,549
312,808	2,934	216,882	109,399
313,822	3,105	216,658	109,399
314,837	2,730	216,672	109,128
315,852	2,597	216,490	108,931
316,866	2,680	216,336	108,903
317,881	2,920	216,301	109,048
318,895	3,077	216,111	109,054
319,910	2,950	215,819	108,807
320,925	2,565	215,637	108,431
321,939	2,378	215,375	108,157
322,954	2,574	215,365	108,281
323,968	2,939	215,411	108,554
324,983	3,161	215,331	108,662
325,997	3,217	215,100	108,576
327,012	2,866	215,086	108,310
328,027	3,033	214,817	108,282
329,041	3,048	214,884	108,318
330,056	3,134	214,615	108,233
331,070	2,568	214,324	107,676
332,085	2,339	214,022	107,354
333,100	2,672	213,964	107,550
334,114	2,968	213,922	107,728
335,129	3,219	213,856	107,862
336,143	2,792	213,773	107,510
337,158	2,855	213,557	107,436
338,173	3,207	213,472	107,631
339,187	2,635	213,293	107,129
340,202	2,707	213,101	107,074
341,216	2,625	212,896	106,903
342,231	2,863	212,734	106,980
343,246	2,815	212,791	106,965
344,260	2,574	212,691	106,736
345,275	2,686	212,664	106,792
346,289	3,107	212,467	106,979
347,304	3,068	212,210	106,811
348,319	2,846	212,057	106,570
349,333	2,971	211,944	106,591
350,348	2,856	211,810	106,434
351,362	3,058	211,732	106,526
352,377	3,159	211,674	106,558
353,392	3,095	211,353	106,343
354,406	2,890	211,445	106,237
355,421	196,921	1338,102	1418,101
356,435	157,368	1475,330	1418,069
