DTS Sentinel unit serial number:	SN410029Multiplexer serial number:	ORYXHardware model number:	OX2-SRSoftware version number:	ORYX F/W v4,00 Oryx Data Collector v3.7.2.0data status	okinstallation	B6 Nyhavnadifferential loss correction	single-endedforward channel	channel 2reverse channel	N/Adate	2023/12/11time	00:30:08forward acquisition time	300,00reverse acquisition time	0,00gamma	499,1914k internal	0,3122k external	0,3122temperature offset calibration	1,0000default loss term (dB/km)	0,3820temperature slope calibration	1,0000multiplexer offset coefficient	1,0000multiplexer slope coefficient	1,0000fibre end	0,00T internal ref (°C)	22,32T ext. ref 1 (°C)	5,80T ext. ref 2 (°C)	5,84length (m)	temperature (°C)	Stokes	anti-Stokes-744,400	800,000	-0,014	0,032
-743,385	73,484	-0,197	0,153
-742,371	800,000	-0,040	-0,110
-741,356	-35,432	-0,194	0,078
-740,342	4,748	0,078	0,042
-739,327	-70,746	-0,151	0,042
-738,312	670,469	0,034	-0,066
-737,298	-51,061	-0,247	-0,086
-736,283	109,576	0,075	-0,067
-735,269	143,356	-0,222	0,220
-734,254	127,418	-0,123	-0,117
-733,239	-129,289	-0,411	-0,042
-732,225	68,252	0,086	-0,065
-731,210	800,000	0,058	0,149
-730,196	-92,956	0,050	0,010
-729,181	180,531	-0,076	-0,084
-728,167	-200,000	0,016	0,054
-727,152	-200,000	0,008	0,033
-726,137	-54,172	-0,081	0,027
-725,123	236,848	0,047	0,058
-724,108	800,000	0,058	-0,143
-723,094	-200,000	-0,017	-0,075
-722,079	0,194	-0,046	-0,025
-721,064	-71,802	-0,103	0,028
-720,050	183,205	0,089	0,098
-719,035	115,208	0,016	0,014
-718,021	10,361	0,019	-0,011
-717,006	-86,310	-0,082	0,019
-715,991	-85,336	-0,220	-0,051
-714,977	192,641	0,061	-0,069
-713,962	158,313	-0,020	0,021
-712,948	-127,798	-0,076	-0,008
-711,933	28,880	0,074	-0,046
-710,918	800,000	-0,032	0,092
-709,904	800,000	-0,012	-0,035
-708,889	333,640	-0,092	-0,133
-707,875	-200,000	-0,005	0,017
-706,860	3,497	-0,023	-0,012
-705,845	-61,983	0,120	-0,037
-704,831	-200,000	0,008	0,045
-703,816	171,004	-0,064	0,068
-702,802	767,309	0,055	-0,112
-701,787	481,401	-0,052	-0,088
-700,772	690,095	0,065	-0,126
-699,758	800,000	-0,042	-0,099
-698,743	-162,400	0,044	0,002
-697,729	-200,000	-0,007	-0,025
-696,714	-153,489	-0,050	0,003
-695,699	800,000	-0,004	0,009
-694,685	-82,099	-0,017	-0,004
-693,670	-91,544	-0,110	0,023
-692,656	-129,354	-0,119	0,012
-691,641	250,745	0,056	-0,071
-690,627	705,977	0,032	0,064
-689,612	-200,000	-0,002	-0,164
-688,597	131,135	-0,080	0,076
-687,583	-200,000	0,003	-0,087
-686,568	-20,884	-0,074	0,034
-685,554	-200,000	0,025	-0,087
-684,539	-200,000	-0,006	-0,029
-683,524	708,293	0,043	0,086
-682,510	-200,000	0,027	0,128
-681,495	-0,312	-0,163	0,086
-680,481	148,217	-0,122	-0,122
-679,466	-46,367	-0,194	-0,071
-678,451	-105,561	-0,124	0,021
-677,437	7,822	0,057	0,031
-676,422	-134,006	0,142	0,013
-675,408	800,000	-0,018	0,053
-674,393	260,674	-0,017	0,022
-673,378	-139,926	-0,106	-0,008
-672,364	800,000	-0,013	-0,038
-671,349	166,689	-0,084	-0,089
-670,335	-124,602	-0,090	0,010
-669,320	49,911	0,083	-0,058
-668,305	-124,566	-0,022	0,003
-667,291	-200,000	0,016	0,063
-666,276	800,000	-0,048	-0,108
-665,262	-54,035	0,064	-0,022
-664,247	266,856	-0,080	0,104
-663,232	-38,687	-0,098	0,038
-662,218	-106,697	0,114	-0,019
-661,203	80,073	0,052	-0,041
-660,189	-35,943	-0,143	0,057
-659,174	-200,000	0,001	-0,107
-658,159	-69,136	-0,018	-0,005
-657,145	0,987	0,027	0,014
-656,130	800,000	-0,036	0,105
-655,116	-200,000	0,005	-0,028
-654,101	-200,000	-0,010	-0,034
-653,086	-200,000	0,024	-0,136
-652,072	-22,955	0,063	-0,028
-651,057	245,875	-0,070	-0,088
-650,043	-200,000	0,050	-0,181
-649,028	-200,000	-0,037	-0,143
-648,014	515,567	0,041	0,071
-646,999	-20,266	0,130	-0,059
-645,984	-200,000	0,014	-0,093
-644,970	65,570	0,043	0,033
-643,955	800,000	-0,040	0,085
-642,941	92,498	-0,028	0,024
-641,926	-200,000	0,008	-0,033
-640,911	-35,814	0,191	-0,076
-639,897	-200,000	0,007	0,112
-638,882	92,430	0,072	0,060
-637,868	756,745	-0,005	-0,011
-636,853	-200,000	-0,012	-0,067
-635,838	-200,000	-0,007	-0,063
-634,824	584,958	-0,050	0,092
-633,809	800,000	0,028	-0,083
-632,795	175,611	0,030	-0,032
-631,780	398,393	-0,080	-0,124
-630,765	140,635	-0,096	-0,094
-629,751	-189,969	-0,031	-0,000
-628,736	800,000	0,056	0,124
-627,722	46,829	-0,060	0,041
-626,707	-109,602	-0,085	-0,013
-625,692	4,287	0,062	0,034
-624,678	-200,000	-0,027	-0,197
-623,663	-160,189	0,048	0,002
-622,649	-200,000	0,023	-0,086
-621,634	-200,000	-0,022	-0,075
-620,619	800,000	0,032	0,069
-619,605	15,476	-0,030	-0,017
-618,590	-29,678	0,155	0,065
-617,576	-200,000	-0,010	0,056
-616,561	499,120	0,057	-0,098
-615,546	-200,000	0,004	-0,087
-614,532	-200,000	-0,057	-0,202
-613,517	-138,281	-0,139	-0,011
-612,503	61,868	-0,159	-0,118
-611,488	664,625	0,031	0,060
-610,474	41,444	0,079	-0,053
-609,459	223,765	-0,043	0,052
-608,444	789,032	0,027	-0,056
-607,430	-9,900	-0,224	-0,110
-606,415	-121,884	0,008	-0,001
-605,401	-25,054	-0,064	0,028
-604,386	-200,000	0,005	0,021
-603,371	-51,488	0,085	0,029
-602,357	126,861	-0,034	0,032
-601,342	58,264	0,103	0,074
-600,328	-79,918	0,061	-0,015
-599,313	-200,000	-0,009	-0,215
-598,298	130,028	0,036	0,035
-597,284	124,077	0,067	-0,063
-596,269	-200,000	0,014	0,098
-595,255	-86,423	0,041	-0,009
-594,240	98,515	-0,086	-0,073
-593,225	-4,754	0,115	0,058
-592,211	139,146	0,063	-0,061
-591,196	-200,000	-0,027	-0,114
-590,182	87,144	0,034	-0,028
-589,167	-64,144	-0,137	0,041
-588,152	-91,691	-0,035	0,007
-587,138	800,000	-0,041	-0,104
-586,123	-192,658	-0,059	0,000
-585,109	277,239	0,048	0,064
-584,094	347,492	0,067	-0,098
-583,079	114,819	0,058	0,053
-582,065	157,008	0,085	0,087
-581,050	-54,546	0,027	0,009
-580,036	335,708	0,049	0,070
-579,021	306,023	-0,017	-0,024
-578,006	-0,715	0,087	-0,046
-576,992	540,593	0,052	-0,091
-575,977	-36,319	-0,072	0,029
-574,963	-186,229	0,035	-0,000
-573,948	132,666	0,076	0,073
-572,934	-161,508	0,117	0,004
-571,919	435,754	0,017	-0,028
-570,904	134,598	0,026	0,025
-569,890	416,549	0,084	0,134
-568,875	800,000	-0,030	0,072
-567,861	-135,554	-0,034	-0,003
-566,846	432,621	-0,042	0,068
-565,831	388,484	0,046	0,070
-564,817	276,208	0,022	0,029
-563,802	-154,793	-0,093	-0,004
-562,788	-200,000	-0,002	-0,090
-561,773	-38,147	-0,130	0,051
-560,758	-140,647	0,058	0,004
-559,744	-200,000	-0,009	0,059
-558,729	58,916	0,055	-0,040
-557,715	499,417	-0,029	-0,049
-556,700	42,576	-0,071	-0,048
-555,685	773,041	0,026	-0,053
-554,671	-43,428	-0,067	0,025
-553,656	-82,886	0,065	0,016
-552,642	377,869	-0,050	0,075
-551,627	-62,682	-0,103	0,031
-550,612	420,983	0,030	0,048
-549,598	104,143	0,026	-0,023
-548,583	268,526	-0,039	0,051
-547,569	453,451	0,088	-0,144
-546,554	800,000	0,046	0,129
-545,539	673,809	-0,082	0,157
-544,525	47,072	-0,076	0,052
-543,510	-158,416	0,076	0,003
-542,496	800,000	-0,045	0,111
-541,481	800,000	0,039	-0,122
-540,466	180,419	-0,076	0,083
-539,452	-0,252	-0,048	-0,025
-538,437	91,553	-0,009	0,008
-537,423	121,677	0,145	0,134
-536,408	21,427	0,049	0,029
-535,393	-90,944	-0,181	-0,038
-534,379	-200,000	0,015	-0,067
-533,364	-55,559	-0,163	-0,054
-532,350	-200,000	0,009	0,035
-531,335	-102,051	0,110	-0,019
-530,321	235,198	-0,042	-0,051
-529,306	431,044	0,036	-0,058
-528,291	232,652	-0,067	0,082
-527,277	800,000	-0,014	-0,031
-526,262	-200,000	-0,007	0,055
-525,248	-200,000	0,014	0,057
-524,233	-30,822	-0,100	0,042
-523,218	524,713	0,084	0,147
-522,204	631,216	-0,040	-0,076
-521,189	255,771	0,035	0,045
-520,175	-200,000	-0,006	0,206
-519,160	44,037	-0,093	0,063
-518,145	-200,000	-0,006	0,103
-517,131	-92,412	-0,041	-0,008
-516,116	-65,928	0,126	-0,037
-515,102	441,727	0,014	-0,022
-514,087	-106,789	-0,075	-0,012
-513,072	12,427	-0,068	-0,038
-512,058	379,188	0,052	-0,079
-511,043	2,827	0,051	0,027
-510,029	-171,995	0,071	-0,002
-509,014	-200,000	0,024	-0,137
-507,999	-93,938	-0,060	-0,012
-506,985	-200,000	-0,001	0,026
-505,970	264,608	-0,024	-0,031
-504,956	-200,000	0,012	0,050
-503,941	-56,394	0,028	-0,009
-502,926	39,253	0,170	0,112
-501,912	-79,934	0,082	-0,020
-500,897	41,814	0,110	-0,073
-499,883	-49,774	0,120	-0,042
-498,868	800,000	0,032	-0,084
-497,853	-200,000	-0,016	-0,061
-496,839	-119,748	-0,038	0,005
-495,824	-200,000	0,001	-0,036
-494,810	222,812	0,120	-0,143
-493,795	-81,995	-0,040	0,010
-492,781	140,167	-0,083	0,081
-491,766	31,273	-0,149	0,095
-490,751	333,627	-0,039	0,055
-489,737	-64,475	0,100	-0,030
-488,722	800,000	0,009	-0,025
-487,708	435,088	-0,027	0,043
-486,693	-200,000	-0,028	0,172
-485,678	118,295	0,026	0,023
-484,664	-200,000	-0,006	-0,121
-483,649	283,746	-0,029	-0,039
-482,635	186,168	-0,077	-0,085
-481,620	-200,000	-0,003	0,061
-480,605	-200,000	-0,030	0,146
-479,591	-200,000	-0,037	0,198
-478,576	73,451	0,045	0,034
-477,562	-200,000	-0,004	0,086
-476,547	-24,842	-0,041	-0,018
-475,532	800,000	0,035	-0,089
-474,518	205,936	-0,083	0,096
-473,503	331,373	0,021	0,031
-472,489	181,124	0,034	-0,036
-471,474	61,079	-0,037	-0,027
-470,459	800,000	-0,039	-0,108
-469,445	-68,214	-0,102	0,029
-468,430	236,820	0,036	0,044
-467,416	-200,000	0,003	-0,048
-466,401	-32,348	0,136	-0,056
-465,386	-200,000	0,013	0,072
-464,372	273,277	-0,095	0,124
-463,357	-59,069	-0,040	-0,013
-462,343	-200,000	-0,030	-0,134
-461,328	800,000	-0,027	-0,085
-460,313	800,000	0,026	-0,065
-459,299	-200,000	0,015	0,092
-458,284	434,417	-0,072	0,116
-457,270	172,304	0,041	-0,044
-456,255	-200,000	-0,002	-0,077
-455,241	-145,194	-0,074	-0,005
-454,226	147,192	0,047	0,047
-453,211	-134,133	-0,200	-0,018
-452,197	-91,197	0,083	0,017
-451,182	-11,253	0,057	-0,028
-450,168	-92,135	0,130	-0,027
-449,153	-1,645	0,073	-0,038
-448,138	126,769	-0,062	-0,058
-447,124	105,187	-0,116	0,101
-446,109	-19,683	0,121	0,055
-445,095	70,640	-0,120	0,092
-444,080	74,385	-0,123	0,095
-443,065	86,824	0,075	0,061
-442,051	15,276	-0,102	0,059
-441,036	-200,000	-0,007	0,051
-440,022	92,076	-0,046	-0,038
-439,007	-200,000	0,004	-0,021
-437,992	800,000	-0,024	-0,074
-436,978	237,862	0,098	0,120
-435,963	485,267	0,097	0,163
-434,949	-200,000	-0,006	0,097
-433,934	-118,776	-0,120	0,015
-432,919	800,000	0,015	0,031
-431,905	-36,669	0,006	-0,002
-430,890	-105,270	0,143	0,024
-429,876	583,693	0,019	0,034
-428,861	800,000	0,064	0,198
-427,846	45,824	-0,163	0,111
-426,832	-200,000	-0,000	0,041
-425,817	-151,568	0,130	0,007
-424,803	-200,000	0,031	-0,109
-423,788	38,392	-0,072	-0,047
-422,773	800,000	0,021	0,045
-421,759	800,000	-0,066	0,166
-420,744	-15,651	0,171	0,080
-419,730	-70,596	-0,164	-0,045
-418,715	800,000	-0,044	-0,139
-417,701	-15,943	0,137	-0,064
-416,686	74,613	-0,127	0,098
-415,671	800,000	-0,006	0,014
-414,657	800,000	-0,050	0,135
-413,642	-121,100	-0,027	-0,003
-412,628	-90,736	-0,168	-0,035
-411,613	92,293	-0,092	-0,076
-410,598	-200,000	0,000	-0,074
-409,584	294,937	0,028	0,038
-408,569	-200,000	0,015	0,071
-407,555	800,000	-0,015	0,042
-406,540	253,504	0,033	-0,041
-405,525	281,134	-0,014	0,019
-404,511	-101,198	-0,056	-0,010
-403,496	-90,556	0,004	-0,001
-402,482	469,912	0,062	0,102
-401,467	19,627	0,076	0,045
-400,452	49,599	-0,110	-0,076
-399,438	-125,006	-0,060	0,007
-398,423	-133,073	-0,136	-0,013
-397,409	-200,000	0,015	0,067
-396,394	-200,000	0,011	-0,069
-395,379	753,760	0,052	-0,104
-394,365	129,224	0,077	0,072
-393,350	-11,998	-0,060	0,029
-392,336	800,000	-0,027	0,064
-391,321	-62,177	0,165	-0,050
-390,306	198,029	-0,056	-0,063
-389,292	-82,156	-0,091	-0,022
-388,277	271,959	-0,053	-0,069
-387,263	-106,035	0,027	-0,004
-386,248	-65,614	0,152	-0,045
-385,233	-57,572	0,176	0,057
-384,219	-200,000	0,018	-0,059
-383,204	153,635	0,090	-0,090
-382,190	-133,991	-0,030	0,003
-381,175	-115,929	0,070	0,009
-380,160	142,649	-0,022	0,021
-379,146	-7,927	0,080	0,040
-378,131	-200,000	0,032	0,126
-377,117	-200,000	-0,033	0,195
-376,102	27,574	-0,083	0,051
-375,088	-174,792	-0,071	-0,001
-374,073	285,651	0,103	0,137
-373,058	-200,000	-0,013	0,140
-372,044	-160,817	0,080	-0,003
-371,029	-100,164	0,017	-0,003
-370,015	30,838	0,096	0,060
-369,000	800,000	-0,030	-0,065
-367,985	13,704	0,088	-0,050
-366,971	71,035	0,056	-0,042
-365,956	-200,000	0,012	0,050
-364,942	800,000	0,043	0,116
-363,927	74,228	0,070	0,054
-362,912	763,949	0,025	0,051
-361,898	21,916	-0,133	0,079
-360,883	-135,962	-0,151	-0,013
-359,869	756,443	0,041	0,081
-358,854	-125,280	0,233	0,026
-357,839	800,000	-0,049	0,106
-356,825	-76,757	0,121	-0,031
-355,810	800,000	0,045	-0,099
-354,796	-20,069	0,056	-0,025
-353,781	-88,990	-0,111	-0,024
-352,766	160,952	0,035	-0,036
-351,752	115,710	-0,135	-0,121
-350,737	-28,436	-0,061	0,026
-349,723	165,984	0,128	0,133
-348,708	-22,586	-0,098	-0,044
-347,693	800,000	0,059	0,136
-346,679	-200,000	0,009	0,050
-345,664	-146,256	-0,026	-0,002
-344,650	486,151	0,042	-0,071
-343,635	449,906	0,081	0,132
-342,620	322,354	-0,051	-0,071
-341,606	-200,000	0,024	0,176
-340,591	404,026	-0,043	0,067
-339,577	183,616	-0,033	-0,035
-338,562	-43,680	-0,048	0,018
-337,548	451,295	-0,016	0,027
-336,533	643,805	0,032	0,061
-335,518	-132,832	0,101	0,009
-334,504	562,916	0,023	0,042
-333,489	637,702	-0,015	-0,029
-332,475	-88,104	-0,036	-0,008
-331,460	-149,755	-0,033	-0,002
-330,445	366,702	-0,059	0,088
-329,431	-24,042	0,076	0,033
-328,416	299,241	0,087	0,118
-327,402	-90,835	-0,059	0,012
-326,387	-200,000	0,015	0,172
-325,372	800,000	0,038	-0,086
-324,358	24,253	-0,076	-0,046
-323,343	92,367	-0,088	-0,072
-322,329	152,229	-0,023	0,023
-321,314	-62,663	0,044	-0,013
-320,299	-77,524	-0,179	0,045
-319,285	415,475	0,084	-0,132
-318,270	340,610	-0,044	0,063
-317,256	30,580	0,070	-0,044
-316,241	-88,026	-0,065	-0,014
-315,226	141,215	0,097	-0,095
-314,212	366,747	-0,013	-0,020
-313,197	12,383	0,053	-0,030
-312,183	229,887	-0,063	0,075
-311,168	800,000	-0,049	0,156
-310,153	-96,306	-0,086	0,017
-309,139	411,625	-0,088	-0,137
-308,124	124,703	-0,121	-0,111
-307,110	54,345	0,135	0,095
-306,095	-33,350	-0,021	0,008
-305,080	800,000	0,049	0,140
-304,066	-30,168	-0,126	0,052
-303,051	-200,000	0,043	-0,141
-302,037	800,000	0,060	-0,127
-301,022	-158,026	0,088	0,004
-300,008	215,186	-0,072	-0,084
-298,993	-57,758	-0,055	-0,017
-297,978	-200,000	0,006	0,101
-296,964	178,888	0,015	0,016
-295,949	-31,339	-0,113	-0,046
-294,935	-200,000	0,009	-0,073
-293,920	591,446	-0,041	0,075
-292,905	-19,331	-0,052	-0,023
-291,891	-200,000	-0,003	0,070
-290,876	-79,727	0,060	0,015
-289,862	-200,000	0,008	0,063
-288,847	800,000	0,006	-0,018
-287,832	16,978	-0,141	-0,081
-286,818	-52,937	-0,052	0,017
-285,803	-200,000	-0,004	-0,020
-284,789	-96,129	0,144	-0,028
-283,774	800,000	0,016	-0,044
-282,759	52,017	-0,074	0,051
-281,745	250,132	0,045	-0,056
-280,730	800,000	-0,011	-0,033
-279,716	-41,420	-0,072	-0,027
-278,701	116,647	0,141	-0,126
-277,686	-200,000	0,002	-0,092
-276,672	79,213	0,022	-0,017
-275,657	-25,285	0,008	-0,003
-274,643	800,000	0,017	-0,042
-273,628	-54,950	-0,076	-0,025
-272,613	218,126	0,027	0,031
-271,599	-121,535	0,159	-0,019
-270,584	-200,000	0,005	0,114
-269,570	-20,266	0,052	-0,023
-268,555	523,365	-0,035	-0,061
-267,540	68,033	-0,018	-0,013
-266,526	-200,000	-0,006	-0,143
-265,511	-200,000	0,026	-0,099
-264,497	-76,231	-0,032	0,008
-263,482	243,891	0,043	0,054
-262,467	-200,000	0,024	0,125
-261,453	-200,000	0,015	0,119
-260,438	115,609	-0,089	0,079
-259,424	782,531	0,055	-0,110
-258,409	-200,000	-0,018	-0,080
-257,395	-60,153	0,083	0,026
-256,380	800,000	-0,063	-0,196
-255,365	800,000	0,031	0,073
-254,351	-39,477	0,039	0,015
-253,336	-200,000	0,019	-0,097
-252,322	-200,000	-0,001	-0,122
-251,307	-154,477	-0,102	-0,005
-250,292	79,154	0,032	0,025
-249,278	-146,770	-0,065	-0,004
-248,263	532,825	0,031	-0,053
-247,249	62,723	0,107	0,078
-246,234	-71,973	-0,050	-0,014
-245,219	-73,226	-0,102	-0,027
-244,205	-45,377	0,053	0,019
-243,190	-111,960	-0,033	-0,005
-242,176	244,405	0,009	-0,011
-241,161	-200,000	0,015	0,092
-240,146	-32,907	-0,081	0,033
-239,132	-65,321	-0,125	-0,036
-238,117	-126,216	-0,077	-0,008
-237,103	132,671	0,024	-0,022
-236,088	158,915	0,062	-0,063
-235,073	-11,558	0,057	0,027
-234,059	119,773	0,061	0,055
-233,044	800,000	-0,016	-0,050
-232,030	-39,938	0,094	-0,036
-231,015	48,044	-0,104	-0,071
-230,000	800,000	0,091	-0,209
-228,986	-105,878	-0,045	0,007
-227,971	37,803	0,094	-0,061
-226,957	-179,302	0,107	0,002
-225,942	369,146	0,049	0,073
-224,927	57,734	-0,141	0,101
-223,913	-200,000	0,001	-0,095
-222,898	45,932	0,058	0,039
-221,884	-200,000	-0,026	-0,176
-220,869	-200,000	-0,014	-0,105
-219,855	313,664	-0,045	-0,063
-218,840	-200,000	0,007	0,106
-217,825	-122,019	-0,049	0,006
-216,811	-77,521	-0,041	0,010
-215,796	800,000	-0,050	-0,109
-214,782	-200,000	-0,012	0,085
-213,767	15,237	0,048	-0,027
-212,752	-45,026	0,113	-0,041
-211,738	-200,000	-0,009	-0,087
-210,723	-113,063	-0,072	0,010
-209,709	-200,000	-0,026	-0,104
-208,694	94,549	0,010	0,008
-207,679	-98,902	-0,023	-0,004
-206,665	-200,000	-0,014	-0,163
-205,650	-200,000	0,022	0,099
-204,636	18,164	0,123	-0,072
-203,621	208,863	0,039	-0,045
-202,606	-149,073	-0,061	0,004
-201,592	800,000	-0,028	-0,072
-200,577	-200,000	-0,009	-0,064
-199,563	-200,000	-0,001	0,005
-198,548	476,487	-0,097	0,161
-197,533	-143,916	-0,083	-0,006
-196,519	-200,000	0,001	-0,077
-195,504	336,012	-0,104	-0,148
-194,490	-164,796	0,150	0,005
-193,475	-135,418	-0,156	-0,013
-192,460	-200,000	-0,001	-0,062
-191,446	800,000	0,050	0,109
-190,431	4,491	0,078	0,041
-189,417	589,259	0,030	-0,055
-188,402	800,000	0,041	-0,130
-187,387	48,207	-0,033	-0,023
-186,373	800,000	0,028	0,087
-185,358	-200,000	-0,006	-0,039
-184,344	255,460	0,052	0,065
-183,329	-45,671	-0,052	0,019
-182,315	-75,545	-0,029	0,008
-181,300	-13,829	-0,034	0,016
-180,285	31,673	-0,052	-0,033
-179,271	-158,049	-0,086	-0,004
-178,256	-104,063	0,093	0,016
-177,242	-138,277	0,043	0,003
-176,227	-73,960	0,112	0,029
-175,212	-160,174	-0,052	0,002
-174,198	-48,988	-0,037	0,013
-173,183	-164,061	0,138	-0,005
-172,169	62,281	-0,056	-0,041
-171,154	-160,026	0,114	-0,004
-170,139	-77,041	0,028	0,007
-169,125	-39,656	-0,031	0,012
-168,110	-200,000	-0,014	-0,058
-167,096	-142,897	-0,100	-0,007
-166,081	552,884	-0,062	-0,109
-165,066	-200,000	-0,005	-0,063
-164,052	-200,000	0,011	-0,055
-163,037	76,533	-0,109	-0,084
-162,023	800,000	0,033	-0,067
-161,008	146,584	0,054	0,053
-159,993	-200,000	-0,017	0,080
-158,979	-200,000	-0,026	-0,129
-157,964	199,162	0,051	0,057
-156,950	53,554	0,069	0,048
-155,935	-200,000	-0,015	-0,144
-154,920	-88,199	0,049	-0,011
-153,906	-51,582	-0,180	-0,061
-152,891	136,275	-0,048	-0,045
-151,877	200,116	0,056	-0,063
-150,862	-200,000	0,011	0,070
-149,847	-200,000	-0,005	-0,102
-148,833	-200,000	0,005	0,091
-147,818	-62,597	0,114	0,034
-146,804	-76,093	-0,016	-0,004
-145,789	-200,000	0,011	0,114
-144,775	-200,000	-0,012	-0,050
-143,760	-200,000	0,029	-0,109
-142,745	800,000	0,042	-0,107
-141,731	800,000	0,064	-0,132
-140,716	438,878	-0,025	0,039
-139,702	800,000	0,063	0,144
-138,687	-200,000	-0,013	0,150
-137,672	181,075	0,054	-0,058
-136,658	-120,087	-0,197	-0,024
-135,643	-200,000	-0,001	-0,124
-134,629	114,869	-0,134	-0,119
-133,614	-110,477	0,069	0,010
-132,599	800,000	-0,024	0,076
-131,585	501,501	-0,073	0,123
-130,570	-200,000	-0,005	0,017
-129,556	-91,044	-0,017	-0,003
-128,541	-148,858	0,042	0,002
-127,526	109,323	-0,091	-0,079
-126,512	800,000	0,031	-0,096
-125,497	-68,491	-0,108	0,030
-124,483	122,670	0,033	0,030
-123,468	535,735	0,065	-0,112
-122,453	525,109	0,032	-0,055
-121,439	40,354	-0,055	0,036
-120,424	520,546	-0,073	0,126
-119,410	275,367	-0,065	0,084
-118,395	-163,851	0,199	0,007
-117,380	-106,122	0,063	0,010
-116,366	-85,309	-0,107	0,024
-115,351	126,763	-0,091	-0,084
-114,337	-75,056	-0,102	-0,026
-113,322	106,640	0,047	0,040
-112,307	122,498	0,087	-0,079
-111,293	-200,000	-0,001	-0,041
-110,278	427,158	-0,065	0,103
-109,264	-86,327	0,104	-0,023
-108,249	258,579	-0,081	-0,102
-107,234	800,000	-0,015	0,035
-106,220	-124,196	-0,098	0,011
-105,205	42,950	0,075	0,050
-104,191	-127,919	0,076	-0,008
-103,176	800,000	-0,034	-0,107
-102,162	114,657	0,070	0,062
-101,147	-200,000	-0,007	-0,077
-100,132	55,104	-0,107	-0,075
-99,118	152,284	-0,057	0,057
-98,103	-200,000	0,015	0,153
-97,089	-16,330	-0,055	0,025
-96,074	504,965	0,064	0,108
-95,059	-200,000	-0,039	0,156
-94,045	442,940	0,070	0,113
-93,030	90,223	-0,098	0,079
-92,016	-114,947	0,105	0,014
-91,001	-11,180	-0,105	0,050
-89,986	-200,000	-0,016	0,109
-88,972	143,078	0,024	0,023
-87,957	800,000	-0,027	-0,074
-86,943	52,093	-0,046	-0,032
-85,928	800,000	-0,069	-0,143
-84,913	-54,357	-0,144	0,047
-83,899	800,000	-0,043	-0,107
-82,884	201,338	-0,101	0,113
-81,870	-56,559	0,128	-0,041
-80,855	-54,823	-0,075	-0,024
-79,840	75,650	0,045	0,035
-78,826	-121,650	-0,016	-0,002
-77,811	282,206	-0,074	0,097
-76,797	-142,303	0,128	0,009
-75,782	203,473	-0,082	-0,092
-74,767	-179,389	0,099	-0,002
-73,753	17,568	0,128	-0,074
-72,738	220,090	-0,043	0,050
-71,724	128,922	-0,143	-0,132
-70,709	-200,000	-0,013	-0,082
-69,694	-59,147	0,036	0,011
-68,680	-200,000	-0,007	0,134
-67,665	342,943	0,056	0,079
-66,651	-105,952	0,130	0,021
-65,636	682,714	-0,070	0,134
-64,622	-172,926	-0,047	0,001
-63,607	-200,000	0,002	0,019
-62,592	-200,000	-0,025	0,087
-61,578	-172,677	-0,103	-0,002
-60,563	-78,237	-0,042	0,010
-59,549	-200,000	-0,020	0,104
-58,534	-112,749	-1,431	-0,204
-57,519	800,000	-0,746	-1,563
-56,505	-200,000	-0,895	-4,379
-55,490	48,774	0,541	-0,368
-54,476	800,000	4,984	11,946
-53,461	-200,000	13,665	252,995
-52,446	-200,000	689,940	2258,418
-51,432	590,319	1622,300	2916,420
-50,417	119,102	1634,862	1467,446
-49,403	73,184	1288,747	977,131
-48,388	38,012	1024,116	659,724
-47,373	24,294	981,703	587,276
-46,359	23,557	971,227	578,568
-45,344	22,513	967,158	572,711
-44,330	22,414	965,797	571,559
-43,315	22,333	964,244	570,352
-42,300	22,406	963,066	569,871
-41,286	22,334	962,349	569,188
-40,271	22,302	961,282	568,430
-39,257	22,309	960,488	567,962
-38,242	22,344	959,444	567,435
-37,227	22,349	958,495	566,870
-36,213	22,336	957,587	566,267
-35,198	22,249	956,862	565,535
-34,184	22,333	956,240	565,415
-33,169	22,326	955,178	564,742
-32,154	22,362	954,332	564,335
-31,140	22,404	953,477	563,942
-30,125	22,355	952,538	563,206
-29,111	22,341	951,831	562,723
-28,096	22,331	951,234	562,313
-27,082	22,387	950,505	562,043
-26,067	22,319	949,840	561,407
-25,052	22,342	949,082	561,010
-24,038	22,347	948,539	560,684
-23,023	22,304	947,856	560,120
-22,009	22,385	947,141	559,934
-20,994	22,441	946,436	559,675
-19,979	22,374	945,893	559,117
-18,965	22,380	945,260	558,741
-17,950	22,363	944,536	558,235
-16,936	22,336	943,923	557,765
-15,921	22,294	943,287	557,233
-14,906	22,239	942,621	556,642
-13,892	22,281	942,006	556,390
-12,877	22,247	941,214	555,793
-11,863	22,163	940,780	555,248
-10,848	22,228	940,181	555,079
-9,833	22,344	939,637	555,104
-8,819	22,357	939,072	554,790
-7,804	22,291	938,510	554,226
-6,790	22,241	937,740	553,591
-5,775	22,290	937,187	553,398
-4,760	22,285	936,476	552,941
-3,746	22,230	935,887	552,397
-2,731	22,111	935,247	551,619
-1,717	22,034	934,639	550,997
-0,702	22,020	933,919	550,507
0,313	21,902	933,256	550,576
1,327	24,954	931,439	559,055
2,342	34,696	795,789	503,584
3,356	32,614	451,589	282,608
4,371	1,566	293,801	152,870
5,386	-2,984	274,706	138,615
6,400	-4,510	269,055	134,333
7,415	-5,076	266,611	132,580
8,429	-4,865	265,509	132,213
9,444	-4,614	264,597	131,977
10,459	-4,582	264,034	131,714
11,473	-4,795	263,443	131,213
12,488	-4,815	262,736	130,831
13,502	-4,808	262,205	130,561
14,517	-4,854	261,730	130,272
15,531	-4,837	261,454	130,138
16,546	-4,664	261,171	130,141
17,561	-4,638	260,702	129,920
18,575	-4,622	260,344	129,744
19,590	-4,833	260,077	129,410
20,604	-4,671	259,821	129,416
21,619	-4,809	259,338	129,041
22,634	-4,731	259,122	128,991
23,648	-4,784	258,978	128,861
24,663	-4,723	258,492	128,663
25,677	-4,723	258,414	128,612
26,692	-4,853	258,074	128,316
27,707	-4,768	257,849	128,268
28,721	-4,643	257,596	128,241
29,736	-4,812	257,238	127,902
30,750	-4,950	257,215	127,757
31,765	-4,748	256,920	127,778
32,780	-4,869	256,692	127,546
33,794	-4,623	256,312	127,563
34,809	-4,890	256,204	127,262
35,823	-4,802	255,894	127,175
36,838	-4,782	255,664	127,066
37,853	-4,737	255,316	126,922
38,867	-4,930	255,147	126,657
39,882	-4,881	254,972	126,602
40,896	-4,682	254,771	126,665
41,911	-4,769	254,521	126,454
42,926	-4,755	254,250	126,320
43,940	-4,880	254,067	126,108
44,955	-5,144	253,860	125,764
45,969	-4,997	253,637	125,770
46,984	-5,259	253,482	125,454
47,999	-5,284	252,970	125,167
49,013	-5,486	252,940	124,965
50,028	-5,600	252,519	124,647
51,042	-5,675	252,199	124,413
52,057	-5,751	252,061	124,267
53,071	-5,499	251,846	124,369
54,086	-5,685	251,713	124,132
55,101	-5,529	251,510	124,155
56,115	-5,388	251,522	124,272
57,130	-4,798	251,329	124,676
58,144	-4,581	251,174	124,775
59,159	-4,697	251,103	124,628
60,174	-4,804	250,934	124,441
61,188	-4,711	250,656	124,372
62,203	-4,698	250,345	124,218
63,217	-4,774	250,266	124,103
64,232	-4,792	249,989	123,939
65,247	-4,622	249,720	123,939
66,261	-4,724	249,648	123,806
67,276	-5,064	249,310	123,336
68,290	-5,221	248,933	123,004
69,305	-5,321	248,785	122,835
70,320	-5,327	248,647	122,750
71,334	-5,151	248,690	122,911
72,349	-4,704	248,344	123,110
73,363	-4,726	248,208	123,013
74,378	-4,668	248,020	122,958
75,393	-4,824	247,748	122,680
76,407	-4,899	247,635	122,549
77,422	-4,734	247,358	122,541
78,436	-4,588	247,170	122,561
79,451	-4,756	246,962	122,304
80,466	-5,031	246,797	121,979
81,480	-4,925	246,363	121,843
82,495	-4,982	246,302	121,754
83,509	-5,138	246,249	121,585
84,524	-4,935	246,015	121,630
85,539	-5,167	245,720	121,278
86,553	-5,252	245,535	121,104
87,568	-5,204	245,445	121,090
88,582	-5,097	245,221	121,058
89,597	-5,044	245,117	121,041
90,611	-5,037	244,785	120,872
91,626	-4,919	244,715	120,925
92,641	-4,872	244,444	120,820
93,655	-5,065	244,417	120,634
94,670	-4,984	244,133	120,551
95,684	-5,017	243,907	120,401
96,699	-4,890	243,741	120,414
97,714	-4,987	243,502	120,204
98,728	-5,037	243,303	120,054
99,743	-5,240	243,056	119,752
100,757	-5,173	242,806	119,674
101,772	-5,133	242,780	119,685
102,787	-5,122	242,695	119,640
103,801	-4,998	242,433	119,603
104,816	-5,162	242,282	119,382
105,830	-4,936	242,253	119,545
106,845	-4,573	241,931	119,677
107,860	-4,947	241,819	119,300
108,874	-4,996	241,537	119,110
109,889	-5,058	241,278	118,921
110,903	-5,098	241,208	118,842
111,918	-5,170	241,064	118,702
112,933	-5,228	240,931	118,577
113,947	-4,879	240,744	118,762
114,962	-5,031	240,634	118,572
115,976	-4,934	240,405	118,529
116,991	-4,708	240,011	118,509
118,006	-5,000	239,988	118,249
119,020	-5,097	240,031	118,179
120,035	-4,754	239,786	118,329
121,049	-4,766	239,616	118,225
122,064	-4,955	239,410	117,958
123,079	-4,953	239,208	117,850
124,093	-5,240	239,081	117,542
125,108	-5,231	238,756	117,379
126,122	-5,450	238,585	117,106
127,137	-5,410	238,319	116,997
128,151	-5,330	238,176	116,982
129,166	-5,049	238,033	117,130
130,181	-5,185	237,804	116,896
131,195	-5,229	237,797	116,847
132,210	-5,139	237,479	116,753
133,224	-4,983	237,387	116,824
134,239	-5,086	237,368	116,721
135,254	-5,015	236,994	116,583
136,268	-5,030	236,764	116,448
137,283	-5,386	236,646	116,092
138,297	-5,334	236,356	115,981
139,312	-5,616	236,208	115,671
140,327	-4,940	236,100	116,153
141,341	-4,570	236,139	116,459
142,356	-4,561	235,984	116,380
143,370	-4,559	235,928	116,344
144,385	-4,659	235,597	116,089
145,400	-4,497	235,552	116,187
146,414	-4,474	235,360	116,100
147,429	-4,797	235,093	115,699
148,443	-4,681	235,010	115,741
149,458	-4,554	234,747	115,703
150,473	-4,691	234,725	115,572
151,487	-4,600	234,311	115,431
152,502	-4,461	234,161	115,457
153,516	-4,727	234,183	115,246
154,531	-4,572	233,904	115,222
155,546	-4,712	233,846	115,072
156,560	-4,843	233,723	114,896
157,575	-4,767	233,482	114,829
158,589	-4,798	233,392	114,749
159,604	-4,551	233,096	114,789
160,619	-4,556	233,012	114,734
161,633	-4,460	232,935	114,762
162,648	-4,474	232,642	114,596
163,662	-4,517	232,540	114,501
164,677	-4,825	232,450	114,203
165,692	-4,673	232,250	114,215
166,706	-4,545	232,103	114,234
167,721	-4,503	231,982	114,197
168,735	-4,612	231,744	113,984
169,750	-4,396	231,597	114,072
170,764	-4,558	231,402	113,838
171,779	-4,432	231,340	113,896
172,794	-4,507	231,227	113,772
173,808	-4,592	231,032	113,599
174,823	-5,104	230,703	113,025
175,837	-5,197	230,492	112,839
176,852	-4,919	230,469	113,035
177,867	-4,378	230,363	113,397
178,881	-4,723	230,318	113,094
179,896	-4,433	230,090	113,199
180,910	-4,432	229,927	113,110
181,925	-4,500	229,777	112,973
182,940	-4,520	229,584	112,853
183,954	-4,227	229,457	113,008
184,969	-4,481	229,304	112,725
185,983	-4,384	229,330	112,803
186,998	-4,338	229,087	112,709
188,013	-4,367	228,911	112,590
189,027	-4,514	228,917	112,469
190,042	-4,493	228,640	112,339
191,056	-4,539	228,517	112,233
192,071	-4,586	228,315	112,087
193,086	-4,446	227,984	112,023
194,100	-4,486	227,851	111,917
195,115	-4,805	227,480	111,478
196,129	-5,686	227,174	110,638
197,144	-2,082	228,450	114,045
198,159	2,434	229,719	118,181
199,173	4,201	230,064	119,722
200,188	4,255	229,934	119,686
201,202	4,269	229,704	119,566
202,217	4,590	229,672	119,787
203,232	4,803	229,537	119,871
204,246	4,959	229,496	119,960
205,261	4,890	229,283	119,785
206,275	5,068	229,262	119,900
207,290	5,158	229,081	119,865
208,304	5,056	228,922	119,692
209,319	4,813	228,781	119,420
210,334	4,854	228,622	119,358
211,348	4,699	228,167	118,991
212,363	4,448	228,040	118,721
213,377	4,136	227,858	118,376
214,392	4,056	227,612	118,177
215,407	4,207	227,520	118,234
216,421	4,213	227,398	118,165
217,436	4,158	227,309	118,066
218,450	4,128	226,948	117,844
219,465	3,986	226,907	117,703
220,480	3,962	226,818	117,629
221,494	4,116	226,574	117,609
222,509	4,285	226,437	117,657
223,523	4,106	226,415	117,498
224,538	3,863	226,288	117,237
225,553	4,119	225,938	117,240
226,567	4,169	225,882	117,238
227,582	4,513	225,831	117,463
228,596	4,473	225,796	117,404
229,611	4,258	225,567	117,111
230,626	3,911	225,331	116,714
231,640	3,970	225,244	116,704
232,655	4,339	225,117	116,907
233,669	4,821	224,974	117,188
234,684	4,668	224,924	117,036
235,699	4,635	224,726	116,897
236,713	4,441	224,382	116,561
237,728	4,127	224,301	116,272
238,742	4,055	224,178	116,143
239,757	4,063	224,045	116,070
240,772	3,944	223,826	115,857
241,786	4,093	223,577	115,829
242,801	4,204	223,717	115,975
243,815	4,327	223,565	115,979
244,830	4,559	223,342	116,027
245,844	4,242	223,250	115,731
246,859	4,128	223,013	115,512
247,874	4,353	222,938	115,632
248,888	4,325	222,827	115,543
249,903	4,242	222,567	115,335
250,917	4,186	222,507	115,252
251,932	4,320	222,270	115,219
252,947	4,227	222,131	115,068
253,961	4,179	221,901	114,902
254,976	3,961	221,743	114,648
255,990	4,345	221,743	114,924
257,005	4,459	221,472	114,858
258,020	4,413	221,528	114,843
259,034	4,779	221,384	115,030
260,049	4,406	221,287	114,692
261,063	4,362	221,076	114,539
262,078	4,524	221,034	114,628
263,093	4,514	220,822	114,500
264,107	4,109	220,786	114,171
265,122	4,353	220,608	114,250
266,136	4,574	220,419	114,305
267,151	4,474	220,347	114,183
268,166	4,514	219,861	113,951
269,180	3,936	219,759	113,462
270,195	3,821	219,667	113,319
271,209	3,749	219,619	113,232
272,224	4,004	219,473	113,334
273,239	4,287	219,261	113,422
274,253	4,431	219,024	113,396
275,268	3,982	219,046	113,067
276,282	4,004	218,753	112,921
277,297	3,854	218,627	112,736
278,312	3,899	218,523	112,706
279,326	3,988	218,565	112,783
280,341	4,167	218,241	112,736
281,355	4,205	218,202	112,734
282,370	4,143	217,986	112,567
283,384	4,043	217,759	112,367
284,399	3,783	217,686	112,129
285,414	3,603	217,517	111,902
286,428	3,990	217,440	112,133
287,443	4,332	217,355	112,329
288,457	4,324	217,181	112,223
289,472	4,125	217,075	112,014
290,487	3,736	216,568	111,460
291,501	3,657	216,642	111,431
292,516	3,819	216,476	111,453
293,530	3,852	216,473	111,465
294,545	4,163	216,216	111,548
295,560	3,917	216,236	111,370
296,574	3,989	216,148	111,368
297,589	4,029	215,885	111,251
298,603	4,075	215,795	111,227
299,618	4,395	215,480	111,286
300,633	4,243	215,455	111,154
301,647	4,137	215,478	111,079
302,662	4,457	215,355	111,237
303,676	4,575	215,135	111,198
304,691	4,514	215,091	111,122
305,706	4,473	214,794	110,929
306,720	4,501	214,780	110,931
307,735	4,167	214,548	110,562
308,749	4,197	214,391	110,492
309,764	4,376	214,268	110,548
310,779	4,444	214,299	110,602
311,793	4,321	214,080	110,392
312,808	4,337	213,844	110,272
313,822	4,359	213,718	110,212
314,837	4,259	213,613	110,077
315,852	4,002	213,243	109,694
316,866	4,238	213,348	109,906
317,881	4,492	213,162	109,982
318,895	4,401	212,950	109,797
319,910	4,220	212,873	109,619
320,925	3,882	212,622	109,240
321,939	3,588	212,461	108,939
322,954	3,631	212,415	108,936
323,968	4,078	212,466	109,270
324,983	4,338	212,297	109,357
325,997	4,448	212,281	109,418
327,012	4,241	212,094	109,165
328,027	4,053	211,922	108,934
329,041	4,542	211,830	109,222
330,056	4,635	211,719	109,221
331,070	4,351	211,401	108,846
332,085	4,098	211,266	108,589
333,100	4,048	210,993	108,404
334,114	4,150	210,995	108,468
335,129	4,142	210,779	108,341
336,143	4,001	210,656	108,169
337,158	3,808	210,550	107,969
338,173	3,935	210,422	107,983
339,187	4,024	210,320	107,984
340,202	4,006	210,219	107,910
341,216	3,850	209,966	107,661
342,231	3,844	209,832	107,578
343,246	3,961	209,602	107,533
344,260	3,834	209,694	107,482
345,275	4,005	209,666	107,577
346,289	4,263	209,456	107,639
347,304	4,220	209,264	107,502
348,319	4,144	209,150	107,380
349,333	4,127	208,986	107,275
350,348	4,370	208,852	107,366
351,362	4,273	208,964	107,346
352,377	4,353	208,684	107,248
353,392	4,397	208,540	107,196
354,406	4,187	208,598	107,070
355,421	194,313	1344,662	1435,041
356,435	155,066	1483,181	1435,162
