DTS Sentinel unit serial number:	SN410029Multiplexer serial number:	ORYXHardware model number:	OX2-SRSoftware version number:	ORYX F/W v4,00 Oryx Data Collector v3.7.2.0data status	okinstallation	B6 Nyhavnadifferential loss correction	single-endedforward channel	channel 2reverse channel	N/Adate	2023/12/07time	20:55:08forward acquisition time	300,00reverse acquisition time	0,00gamma	499,1914k internal	0,3164k external	0,3164temperature offset calibration	1,0000default loss term (dB/km)	0,3820temperature slope calibration	1,0000multiplexer offset coefficient	1,0000multiplexer slope coefficient	1,0000fibre end	0,00T internal ref (°C)	13,75T ext. ref 1 (°C)	-3,12T ext. ref 2 (°C)	-3,14length (m)	temperature (°C)	Stokes	anti-Stokes-744,400	-200,000	-0,012	0,113
-743,385	-96,756	-0,291	0,056
-742,371	14,595	0,134	0,077
-741,356	-159,510	-0,142	-0,006
-740,342	67,417	0,156	0,117
-739,327	-128,922	-0,271	-0,028
-738,312	800,000	-0,027	-0,066
-737,298	-160,890	-0,312	0,012
-736,283	800,000	0,055	0,178
-735,269	-126,707	-0,217	0,023
-734,254	-147,825	0,163	-0,010
-733,239	0,828	-0,437	-0,229
-732,225	-82,268	0,170	0,040
-731,210	-200,000	-0,006	0,166
-730,196	201,055	-0,062	-0,070
-729,181	-200,000	-0,011	0,157
-728,167	654,562	-0,047	0,089
-727,152	49,796	-0,066	0,045
-726,137	-138,828	-0,130	-0,010
-725,123	-200,000	0,021	-0,075
-724,108	-200,000	-0,017	-0,145
-723,094	258,188	-0,030	-0,038
-722,079	-120,882	-0,117	0,014
-721,064	-200,000	-0,037	-0,130
-720,050	-200,000	0,009	0,115
-719,035	-157,291	-0,161	0,007
-718,021	-21,879	0,048	0,021
-717,006	-200,000	0,005	-0,035
-715,991	-9,947	-0,049	-0,024
-714,977	-48,076	-0,056	-0,020
-713,962	386,605	0,041	0,063
-712,948	-85,456	0,160	-0,036
-711,933	668,729	0,037	0,070
-710,918	216,559	-0,075	-0,087
-709,904	159,135	0,081	-0,083
-708,889	-54,530	0,030	-0,010
-707,875	800,000	0,030	-0,068
-706,860	-200,000	0,003	0,043
-705,845	-200,000	-0,003	-0,105
-704,831	-200,000	0,025	0,082
-703,816	212,562	0,048	-0,056
-702,802	-106,251	0,037	0,006
-701,787	32,151	-0,169	0,107
-700,772	105,531	0,016	0,014
-699,758	-65,414	-0,135	-0,040
-698,743	-39,627	0,028	0,011
-697,729	-200,000	-0,026	0,138
-696,714	266,844	-0,049	-0,063
-695,699	358,949	-0,029	-0,043
-694,685	-52,785	-0,110	-0,037
-693,670	-48,848	0,117	-0,041
-692,656	-117,356	-0,191	-0,025
-691,641	-200,000	0,001	-0,046
-690,627	-200,000	0,007	-0,059
-689,612	-200,000	0,028	0,102
-688,597	341,199	0,039	-0,056
-687,583	-200,000	-0,007	0,066
-686,568	800,000	0,058	0,126
-685,554	247,405	-0,045	-0,056
-684,539	-200,000	0,029	-0,109
-683,524	56,535	-0,051	0,036
-682,510	800,000	0,029	0,070
-681,495	111,749	-0,043	-0,038
-680,481	120,109	-0,054	0,049
-679,466	-169,411	0,074	0,002
-678,451	189,866	-0,059	0,065
-677,437	71,950	-0,042	-0,032
-676,422	178,538	-0,016	-0,017
-675,408	-65,556	-0,113	0,033
-674,393	-57,758	0,120	-0,038
-673,378	-200,000	0,005	-0,109
-672,364	-200,000	-0,011	0,075
-671,349	465,455	0,044	-0,073
-670,335	-125,226	-0,182	-0,020
-669,320	201,074	0,116	-0,131
-668,305	-42,595	0,094	0,035
-667,291	142,113	-0,052	0,051
-666,276	-78,538	-0,159	-0,040
-665,262	667,554	-0,072	-0,138
-664,247	331,953	-0,039	-0,055
-663,232	-0,165	-0,083	0,043
-662,218	221,115	0,036	0,042
-661,203	-200,000	0,017	0,160
-660,189	188,042	0,088	0,097
-659,174	276,573	-0,056	-0,073
-658,159	-191,108	0,029	-0,000
-657,145	800,000	-0,018	-0,052
-656,130	-158,343	0,119	0,005
-655,116	375,559	-0,072	0,108
-654,101	-200,000	0,004	0,050
-653,086	800,000	-0,032	0,082
-652,072	334,827	-0,051	0,073
-651,057	800,000	0,033	-0,095
-650,043	-125,389	-0,123	-0,014
-649,028	149,757	-0,106	-0,105
-648,014	375,526	0,061	0,092
-646,999	758,701	0,053	-0,105
-645,984	8,226	-0,149	-0,082
-644,970	-168,861	-0,160	-0,004
-643,955	239,907	0,078	-0,096
-642,941	17,498	-0,054	-0,032
-641,926	297,904	0,043	-0,058
-640,911	800,000	0,043	0,093
-639,897	-200,000	0,032	0,130
-638,882	-14,292	-0,085	-0,040
-637,868	-200,000	0,000	-0,072
-636,853	288,150	-0,048	0,063
-635,838	800,000	-0,029	-0,070
-634,824	266,154	0,031	-0,040
-633,809	-200,000	0,035	0,142
-632,795	478,186	0,037	0,062
-631,780	-200,000	-0,009	0,113
-630,765	-200,000	0,022	-0,130
-629,751	-200,000	-0,016	-0,080
-628,736	800,000	0,045	-0,123
-627,722	-98,832	-0,136	0,025
-626,707	106,177	-0,035	0,030
-625,692	64,732	0,039	-0,029
-624,678	-200,000	-0,018	0,116
-623,663	-200,000	0,013	0,134
-622,649	662,718	-0,030	-0,056
-621,634	-200,000	0,008	-0,149
-620,619	482,130	0,048	0,080
-619,605	24,460	0,046	-0,028
-618,590	-33,226	-0,052	-0,021
-617,576	222,139	-0,034	-0,040
-616,561	-99,771	-0,092	-0,017
-615,546	11,710	0,069	-0,039
-614,532	23,540	-0,145	-0,087
-613,517	144,830	0,036	-0,036
-612,503	-200,000	0,010	0,070
-611,488	26,309	0,171	0,105
-610,474	-200,000	-0,010	0,071
-609,459	17,305	0,045	0,026
-608,444	50,381	-0,007	-0,005
-607,430	800,000	-0,012	0,039
-606,415	800,000	0,077	-0,187
-605,401	-200,000	0,003	-0,029
-604,386	533,371	-0,106	0,185
-603,371	800,000	-0,043	0,091
-602,357	-97,579	0,064	-0,012
-601,342	-46,904	-0,156	-0,055
-600,328	-95,344	-0,148	-0,029
-599,313	800,000	-0,056	-0,116
-598,298	800,000	-0,035	0,110
-597,284	800,000	-0,062	-0,125
-596,269	-90,086	0,066	0,014
-595,255	15,838	-0,009	-0,005
-594,240	-200,000	0,003	0,056
-593,225	-200,000	-0,001	0,021
-592,211	800,000	0,029	-0,086
-591,196	626,315	-0,060	0,111
-590,182	-200,000	0,004	-0,046
-589,167	95,489	-0,019	0,016
-588,152	800,000	-0,052	0,159
-587,138	-199,453	0,060	0,000
-586,123	800,000	-0,037	-0,109
-585,109	71,721	-0,075	-0,057
-584,094	-200,000	0,002	0,142
-583,079	158,783	0,019	-0,020
-582,065	800,000	0,028	0,060
-581,050	34,542	0,048	0,030
-580,036	-34,447	-0,177	-0,071
-579,021	800,000	-0,008	-0,026
-578,006	-200,000	0,001	-0,150
-576,992	-200,000	0,032	0,209
-575,977	-200,000	0,016	0,061
-574,963	-200,000	0,000	-0,042
-573,948	112,126	0,016	-0,014
-572,934	293,089	0,010	-0,013
-571,919	88,821	-0,025	0,021
-570,904	-200,000	-0,032	-0,103
-569,890	171,685	-0,088	-0,093
-568,875	443,535	0,038	-0,061
-567,861	146,377	0,083	-0,082
-566,846	800,000	-0,018	0,051
-565,831	249,932	-0,023	-0,029
-564,817	800,000	-0,013	0,036
-563,802	-200,000	-0,018	0,127
-562,788	-96,326	0,055	-0,011
-561,773	-200,000	-0,008	0,195
-560,758	191,334	0,071	0,078
-559,744	-144,659	0,127	0,008
-558,729	800,000	0,060	0,143
-557,715	-200,000	-0,000	0,002
-556,700	-200,000	-0,020	-0,095
-555,685	-12,242	-0,085	-0,040
-554,671	-10,128	-0,049	-0,024
-553,656	-200,000	0,017	-0,103
-552,642	393,825	0,028	0,042
-551,627	-22,950	0,087	0,038
-550,612	673,863	-0,065	-0,123
-549,598	-200,000	-0,020	-0,105
-548,583	800,000	-0,031	-0,087
-547,569	94,698	0,072	-0,060
-546,554	109,204	0,096	-0,084
-545,539	800,000	0,028	0,077
-544,525	700,421	0,079	-0,153
-543,510	664,038	0,085	-0,160
-542,496	800,000	0,006	-0,013
-541,481	609,060	-0,031	-0,056
-540,466	-167,543	-0,099	0,003
-539,452	800,000	0,031	-0,072
-538,437	800,000	0,037	-0,081
-537,423	-85,535	0,032	-0,007
-536,408	-70,317	-0,115	0,032
-535,393	-190,414	0,057	-0,000
-534,379	-109,297	0,061	0,009
-533,364	-170,504	-0,043	0,001
-532,350	-112,566	0,065	0,009
-531,335	-200,000	0,015	-0,065
-530,321	800,000	0,035	0,109
-529,306	-200,000	-0,004	-0,052
-528,291	-200,000	0,034	-0,114
-527,277	-168,975	0,068	0,002
-526,262	-113,295	-0,101	0,014
-525,248	-200,000	0,018	0,102
-524,233	-123,868	-0,128	-0,015
-523,218	-200,000	0,006	-0,085
-522,204	800,000	-0,026	-0,081
-521,189	-200,000	-0,025	-0,115
-520,175	-200,000	0,008	-0,024
-519,160	-200,000	-0,012	-0,072
-518,145	-169,894	0,076	-0,002
-517,131	-98,288	-0,119	-0,022
-516,116	-200,000	0,062	-0,207
-515,102	-200,000	0,016	-0,078
-514,087	-172,013	-0,046	-0,001
-513,072	800,000	-0,065	-0,146
-512,058	41,840	0,022	-0,015
-511,043	-123,183	-0,022	-0,002
-510,029	800,000	0,020	-0,057
-509,014	44,351	-0,055	0,037
-507,999	116,384	0,070	-0,063
-506,985	800,000	-0,021	-0,053
-505,970	534,513	-0,087	-0,151
-504,956	-200,000	0,028	-0,103
-503,941	-135,417	0,082	0,007
-502,926	396,072	0,036	-0,054
-501,912	31,329	0,169	0,106
-500,897	431,340	-0,053	0,084
-499,883	96,362	-0,097	0,081
-498,868	327,690	-0,089	-0,124
-497,853	-200,000	-0,011	-0,085
-496,839	800,000	0,016	-0,039
-495,824	314,033	0,090	0,124
-494,810	-200,000	0,003	-0,018
-493,795	-200,000	0,044	0,153
-492,781	-116,539	0,172	0,023
-491,766	-200,000	-0,003	-0,132
-490,751	60,265	-0,084	0,061
-489,737	-172,685	0,111	0,002
-488,722	518,512	0,017	-0,029
-487,708	37,152	-0,061	0,039
-486,693	-200,000	0,007	-0,039
-485,678	-108,907	0,155	0,024
-484,664	-27,923	-0,124	-0,052
-483,649	534,941	0,049	-0,084
-482,635	-123,492	-0,171	-0,020
-481,620	-200,000	-0,028	-0,106
-480,605	-200,000	0,000	-0,056
-479,591	-96,811	0,121	-0,023
-478,576	535,037	-0,034	0,059
-477,562	-65,960	-0,113	-0,033
-476,547	800,000	-0,013	-0,028
-475,532	800,000	0,008	-0,017
-474,518	294,376	-0,048	0,064
-473,503	580,565	-0,056	0,101
-472,489	424,817	-0,027	0,042
-471,474	-170,932	0,169	0,004
-470,459	40,982	0,018	-0,012
-469,445	-200,000	-0,032	0,145
-468,430	196,613	0,037	-0,041
-467,416	314,646	0,117	-0,160
-466,401	-200,000	-0,019	0,079
-465,386	-200,000	0,042	0,191
-464,372	-0,466	0,052	0,027
-463,357	800,000	-0,029	-0,079
-462,343	-200,000	-0,039	-0,137
-461,328	-95,116	-0,051	0,010
-460,313	-44,490	0,071	0,026
-459,299	441,731	0,066	0,105
-458,284	123,940	0,107	0,098
-457,270	-6,155	0,067	0,033
-456,255	106,927	-0,123	0,106
-455,241	-200,000	-0,009	0,046
-454,226	59,241	0,118	0,084
-453,211	-67,079	-0,104	-0,030
-452,197	87,964	0,074	0,059
-451,182	183,894	0,028	0,030
-450,168	800,000	0,013	0,032
-449,153	-200,000	0,014	0,064
-448,138	108,365	0,036	-0,031
-447,124	437,423	0,029	0,047
-446,109	3,835	0,129	-0,068
-445,095	-200,000	0,004	0,059
-444,080	-8,793	0,085	0,041
-443,065	174,485	-0,014	0,015
-442,051	86,154	0,036	-0,029
-441,036	45,755	-0,081	-0,054
-440,022	800,000	-0,051	0,118
-439,007	123,911	-0,016	0,015
-437,992	800,000	-0,020	-0,046
-436,978	24,521	0,133	0,080
-435,963	-117,315	0,078	-0,010
-434,949	-124,208	-0,005	-0,001
-433,934	191,833	-0,060	-0,066
-432,919	449,724	0,026	-0,042
-431,905	-200,000	-0,029	-0,116
-430,890	355,421	0,070	-0,101
-429,876	-124,930	-0,168	-0,019
-428,861	-200,000	0,003	-0,095
-427,846	-66,790	0,110	0,032
-426,832	-200,000	-0,010	0,091
-425,817	21,085	-0,112	0,066
-424,803	-40,911	-0,132	0,049
-423,788	-76,559	-0,012	-0,003
-422,773	-200,000	0,009	0,129
-421,759	800,000	-0,049	0,099
-420,744	-60,870	0,031	0,009
-419,730	240,659	0,052	-0,063
-418,715	-20,339	-0,064	0,029
-417,701	-200,000	-0,028	-0,139
-416,686	177,919	0,045	0,047
-415,671	373,718	0,027	0,040
-414,657	800,000	0,055	0,171
-413,642	-200,000	-0,016	0,068
-412,628	202,945	0,029	-0,032
-411,613	-200,000	-0,015	-0,048
-410,598	13,781	-0,161	0,091
-409,584	-117,519	-0,093	-0,012
-408,569	253,158	0,089	0,111
-407,555	-56,195	0,078	0,025
-406,540	-137,395	0,007	-0,001
-405,525	-110,107	0,026	-0,004
-404,511	-200,000	-0,016	-0,073
-403,496	316,979	0,032	-0,045
-402,482	188,151	-0,158	-0,171
-401,467	629,802	-0,028	-0,052
-400,452	658,672	0,051	0,096
-399,438	504,450	-0,041	0,070
-398,423	-200,000	0,031	0,156
-397,409	267,650	-0,028	0,035
-396,394	-200,000	0,008	-0,044
-395,379	-26,591	0,101	-0,043
-394,365	-200,000	0,009	0,034
-393,350	-200,000	0,002	0,036
-392,336	-25,841	0,020	0,008
-391,321	36,839	-0,043	0,028
-390,306	159,599	0,098	-0,099
-389,292	145,985	0,038	-0,037
-388,277	58,761	0,036	-0,026
-387,263	210,052	0,061	-0,069
-386,248	800,000	0,053	0,119
-385,233	66,829	-0,084	-0,062
-384,219	-142,306	0,084	0,006
-383,204	-109,334	-0,081	-0,012
-382,190	-28,378	-0,093	0,039
-381,175	137,021	-0,083	-0,079
-380,160	43,648	0,102	0,068
-379,146	-18,639	0,108	-0,049
-378,131	800,000	-0,013	-0,033
-377,117	-68,893	0,024	0,007
-376,102	344,756	-0,037	-0,052
-375,088	392,157	0,055	-0,084
-374,073	-200,000	0,023	0,092
-373,058	188,973	-0,082	0,089
-372,044	-200,000	-0,016	0,077
-371,029	200,776	0,078	0,088
-370,015	-200,000	-0,005	0,042
-369,000	-1,412	-0,022	0,011
-367,985	369,653	-0,080	0,118
-366,971	114,994	-0,027	0,024
-365,956	-200,000	-0,011	0,129
-364,942	-200,000	-0,016	0,073
-363,927	266,679	0,032	0,041
-362,912	17,025	0,038	0,022
-361,898	-200,000	-0,026	-0,117
-360,883	480,180	-0,029	-0,048
-359,869	-200,000	0,007	0,056
-358,854	117,345	0,087	0,077
-357,839	-39,864	0,205	-0,077
-356,825	769,170	0,021	0,042
-355,810	-42,484	0,139	0,051
-354,796	800,000	0,031	-0,071
-353,781	-62,293	-0,039	-0,012
-352,766	800,000	-0,058	0,118
-351,752	180,676	-0,005	0,005
-350,737	-200,000	0,002	0,109
-349,723	-166,830	0,129	0,004
-348,708	336,940	-0,037	0,052
-347,693	109,617	-0,075	-0,065
-346,679	-97,322	-0,053	-0,010
-345,664	-200,000	-0,002	-0,176
-344,650	-200,000	0,006	0,181
-343,635	-130,538	0,055	-0,005
-342,620	-200,000	0,016	0,149
-341,606	800,000	0,060	-0,139
-340,591	325,808	-0,046	-0,064
-339,577	-134,705	-0,189	-0,016
-338,562	-36,795	0,097	-0,038
-337,548	-171,463	-0,069	0,002
-336,533	613,316	0,048	0,087
-335,518	174,633	-0,047	-0,049
-334,504	50,361	0,074	0,051
-333,489	-200,000	0,014	0,108
-332,475	-63,992	-0,058	-0,017
-331,460	327,851	0,066	-0,092
-330,445	201,177	0,056	-0,062
-329,431	-11,823	-0,111	0,052
-328,416	223,457	0,045	-0,053
-327,402	800,000	-0,018	-0,037
-326,387	-46,691	-0,089	-0,031
-325,372	-200,000	-0,043	-0,154
-324,358	35,580	-0,109	-0,069
-323,343	325,078	0,033	0,046
-322,329	-200,000	-0,013	-0,189
-321,314	-105,948	-0,042	-0,007
-320,299	-200,000	-0,017	-0,075
-319,285	-200,000	0,010	-0,070
-318,270	-55,277	-0,126	-0,041
-317,256	-132,512	0,049	0,005
-316,241	-200,000	0,008	0,071
-315,226	73,865	0,070	-0,053
-314,212	-61,152	0,133	0,040
-313,197	-6,131	-0,065	0,032
-312,183	-200,000	0,012	0,076
-311,168	-118,348	0,124	-0,016
-310,153	-200,000	-0,013	-0,142
-309,139	800,000	-0,099	-0,232
-308,124	-11,123	0,061	-0,029
-307,110	-113,209	-0,096	-0,013
-306,095	403,605	0,068	0,103
-305,080	800,000	0,011	-0,031
-304,066	-60,047	-0,043	-0,013
-303,051	29,327	-0,107	0,065
-302,037	38,682	-0,023	-0,015
-301,022	46,786	-0,063	0,042
-300,008	-200,000	0,032	0,122
-298,993	800,000	-0,019	0,060
-297,978	754,534	-0,020	0,039
-296,964	465,307	-0,027	-0,044
-295,949	-200,000	-0,020	0,102
-294,935	-149,818	-0,122	0,007
-293,920	-159,355	0,081	0,003
-292,905	-41,732	0,068	0,025
-291,891	-200,000	-0,004	0,134
-290,876	80,837	0,080	0,062
-289,862	179,824	0,073	-0,078
-288,847	800,000	-0,043	-0,096
-287,832	800,000	0,028	0,064
-286,818	-200,000	-0,008	0,025
-285,803	-106,632	0,031	-0,005
-284,789	211,672	0,036	0,041
-283,774	-200,000	-0,003	0,102
-282,759	-200,000	0,009	-0,042
-281,745	-200,000	-0,030	-0,122
-280,730	63,126	-0,194	-0,140
-279,716	-147,751	0,198	0,012
-278,701	-17,985	0,054	-0,024
-277,686	800,000	0,018	-0,047
-276,672	432,736	0,054	0,085
-275,657	-200,000	-0,021	-0,110
-274,643	-200,000	-0,011	0,037
-273,628	-187,022	0,022	0,000
-272,613	625,720	0,008	-0,014
-271,599	11,179	0,151	0,083
-270,584	359,539	0,071	0,102
-269,570	-88,647	0,029	0,006
-268,555	-200,000	-0,037	0,178
-267,540	-200,000	0,006	0,105
-266,526	-9,254	-0,088	-0,042
-265,511	74,184	0,104	0,079
-264,497	129,171	-0,052	0,048
-263,482	497,818	0,038	-0,064
-262,467	-200,000	0,006	-0,168
-261,453	113,582	-0,024	0,021
-260,438	25,359	0,055	-0,033
-259,424	11,393	-0,108	-0,060
-258,409	-200,000	0,001	-0,035
-257,395	-14,307	0,089	0,041
-256,380	114,629	-0,058	0,051
-255,365	-20,714	-0,027	0,012
-254,351	-23,107	-0,095	0,041
-253,336	-200,000	-0,011	-0,086
-252,322	383,799	-0,086	-0,129
-251,307	-200,000	0,004	0,037
-250,292	68,105	-0,118	0,087
-249,278	516,897	0,034	-0,058
-248,263	-200,000	0,030	-0,121
-247,249	252,983	0,070	0,086
-246,234	-15,234	-0,167	-0,077
-245,219	146,719	-0,046	-0,045
-244,205	-200,000	-0,024	-0,114
-243,190	-123,679	0,035	0,004
-242,176	-44,115	-0,028	-0,010
-241,161	57,087	-0,034	0,024
-240,146	800,000	0,020	-0,041
-239,132	800,000	-0,035	-0,077
-238,117	-144,363	-0,048	0,003
-237,103	258,362	-0,004	-0,005
-236,088	291,369	-0,038	0,050
-235,073	-200,000	0,021	0,077
-234,059	-159,542	0,132	-0,005
-233,044	130,828	0,137	0,126
-232,030	23,017	-0,116	0,069
-231,015	-46,847	-0,098	-0,034
-230,000	-55,674	0,029	-0,009
-228,986	-44,352	0,075	-0,027
-227,971	-183,330	0,036	0,000
-226,957	586,411	0,021	0,037
-225,942	-200,000	0,002	-0,049
-224,927	-50,329	-0,040	0,014
-223,913	683,090	-0,023	-0,044
-222,898	-200,000	-0,024	-0,207
-221,884	227,010	0,026	0,030
-220,869	-113,085	0,144	-0,020
-219,855	690,744	0,086	0,164
-218,840	-62,892	-0,075	0,022
-217,825	460,883	0,056	-0,091
-216,811	-74,647	-0,060	-0,015
-215,796	136,113	-0,145	-0,136
-214,782	800,000	-0,052	0,125
-213,767	77,834	0,123	0,094
-212,752	-200,000	-0,010	0,140
-211,738	800,000	0,070	0,156
-210,723	479,738	-0,044	0,071
-209,709	78,603	-0,085	-0,065
-208,694	-200,000	-0,012	-0,052
-207,679	763,550	-0,053	0,104
-206,665	-28,513	-0,065	0,027
-205,650	123,793	-0,033	0,030
-204,636	145,625	0,080	0,077
-203,621	499,091	0,024	-0,039
-202,606	-56,417	-0,208	-0,066
-201,592	187,365	0,081	0,087
-200,577	-200,000	-0,007	-0,033
-199,563	167,702	-0,034	-0,035
-198,548	800,000	-0,026	-0,056
-197,533	-200,000	0,001	0,021
-196,519	116,896	-0,035	0,031
-195,504	-90,261	-0,092	-0,019
-194,490	-58,143	0,225	-0,070
-193,475	-200,000	-0,002	0,062
-192,460	-118,862	0,063	0,008
-191,446	-200,000	0,002	0,014
-190,431	370,691	0,129	0,189
-189,417	-54,444	-0,112	0,036
-188,402	800,000	-0,037	0,093
-187,387	134,193	-0,068	0,063
-186,373	85,339	-0,055	0,044
-185,358	-200,000	0,034	0,118
-184,344	800,000	0,048	0,122
-183,329	229,749	-0,102	0,120
-182,315	-19,271	-0,039	-0,017
-181,300	433,686	0,076	-0,119
-180,285	482,838	-0,017	-0,028
-179,271	-200,000	0,028	-0,108
-178,256	165,646	0,051	-0,052
-177,242	459,406	0,063	-0,102
-176,227	-101,920	-0,049	0,008
-175,212	-200,000	0,013	0,066
-174,198	77,824	-0,131	0,100
-173,183	190,456	0,043	-0,047
-172,169	52,860	0,056	-0,038
-171,154	155,384	-0,035	0,035
-170,139	-23,021	0,014	0,006
-169,125	49,018	0,036	-0,024
-168,110	384,755	0,075	0,112
-167,096	-178,304	-0,040	0,001
-166,081	-200,000	-0,010	-0,039
-165,066	405,333	-0,072	-0,109
-164,052	-169,750	-0,021	0,001
-163,037	-200,000	-0,012	0,163
-162,023	99,726	0,077	0,064
-161,008	546,586	0,030	0,053
-159,993	198,066	0,068	-0,075
-158,979	71,350	-0,067	-0,050
-157,964	-109,144	-0,147	-0,022
-156,950	94,119	-0,053	0,043
-155,935	-26,636	0,039	-0,017
-154,920	499,607	0,038	0,063
-153,906	-200,000	0,002	-0,024
-152,891	375,973	0,041	-0,061
-151,877	-200,000	0,022	-0,083
-150,862	133,385	-0,066	0,061
-149,847	167,356	-0,060	-0,062
-148,833	-126,957	0,097	0,010
-147,818	-9,746	0,081	0,038
-146,804	-200,000	0,026	0,120
-145,789	-9,943	0,092	0,044
-144,775	46,188	0,071	0,047
-143,760	-200,000	0,002	-0,069
-142,745	432,222	-0,030	-0,048
-141,731	800,000	0,013	0,031
-140,716	-146,184	0,052	0,003
-139,702	800,000	-0,046	0,127
-138,687	447,432	0,039	0,062
-137,672	800,000	-0,058	0,152
-136,658	10,162	-0,045	0,024
-135,643	-61,013	0,101	0,031
-134,629	-200,000	0,026	0,105
-133,614	800,000	-0,020	0,057
-132,599	-200,000	-0,023	0,134
-131,585	-200,000	-0,029	0,152
-130,570	502,752	-0,075	0,126
-129,556	437,281	-0,091	-0,144
-128,541	-200,000	0,026	-0,083
-127,526	262,426	-0,021	0,026
-126,512	35,571	-0,132	-0,083
-125,497	-200,000	0,004	0,013
-124,483	-36,574	0,027	-0,010
-123,468	-99,233	-0,113	0,020
-122,453	-200,000	0,002	-0,132
-121,439	-52,080	0,124	0,041
-120,424	800,000	-0,075	0,204
-119,410	-103,283	0,086	0,014
-118,395	-200,000	-0,008	0,030
-117,380	330,759	-0,047	0,066
-116,366	-200,000	-0,023	0,131
-115,351	152,024	-0,095	-0,093
-114,337	592,979	-0,055	-0,098
-113,322	187,646	-0,039	0,042
-112,307	-200,000	0,006	0,165
-111,293	32,119	0,060	-0,037
-110,278	-83,502	-0,090	-0,020
-109,264	175,480	0,093	-0,097
-108,249	-126,236	0,032	0,003
-107,234	-18,571	-0,200	-0,089
-106,220	268,364	-0,071	0,089
-105,205	261,297	0,095	0,119
-104,191	800,000	0,060	0,157
-103,176	800,000	0,056	0,121
-102,162	324,863	-0,075	0,103
-101,147	-200,000	0,004	-0,124
-100,132	800,000	-0,014	-0,032
-99,118	270,379	0,054	0,068
-98,103	-35,815	-0,116	0,045
-97,089	269,371	0,068	0,086
-96,074	439,139	0,047	0,074
-95,059	179,856	0,088	0,093
-94,045	60,490	-0,115	0,081
-93,030	22,685	0,063	-0,037
-92,016	-89,434	0,043	0,009
-91,001	800,000	0,027	0,060
-89,986	96,636	-0,108	-0,089
-88,972	800,000	0,019	0,060
-87,957	-200,000	0,017	0,080
-86,943	47,563	0,061	-0,041
-85,928	-90,480	-0,097	-0,020
-84,913	205,775	0,118	-0,131
-83,899	-85,880	0,104	0,023
-82,884	-106,197	0,151	0,024
-81,870	800,000	-0,030	0,062
-80,855	86,875	0,076	0,060
-79,840	-70,525	-0,068	-0,018
-78,826	652,456	0,063	-0,117
-77,811	-200,000	-0,002	-0,073
-76,797	800,000	0,057	0,129
-75,782	-47,032	-0,143	0,050
-74,767	128,395	0,134	0,123
-73,753	111,883	-0,062	0,053
-72,738	-200,000	0,008	0,102
-71,724	198,488	-0,063	0,069
-70,709	361,067	0,038	-0,055
-69,694	421,472	0,032	-0,049
-68,680	272,836	0,097	-0,123
-67,665	787,950	0,018	0,036
-66,651	-200,000	0,008	0,029
-65,636	7,611	-0,045	0,024
-64,622	-200,000	-0,001	0,042
-63,607	-157,633	-0,100	-0,004
-62,592	-200,000	0,016	-0,054
-61,578	209,624	-0,028	0,031
-60,563	-200,000	-0,023	0,103
-59,549	-200,000	-0,013	0,055
-58,534	31,413	-2,121	-1,303
-57,519	-200,000	-0,147	-0,646
-56,505	-200,000	-1,449	-5,083
-55,490	107,891	0,896	0,765
-54,476	800,000	5,370	12,147
-53,461	-200,000	18,500	306,122
-52,446	800,000	737,813	2273,115
-51,432	535,744	1650,733	2815,765
-50,417	108,239	1635,716	1396,971
-49,403	71,970	1286,286	957,332
-48,388	29,785	1027,531	625,211
-47,373	19,765	989,954	569,309
-46,359	17,449	977,417	554,495
-45,344	14,094	973,784	541,437
-44,330	14,500	972,198	541,861
-43,315	13,885	970,172	538,703
-42,300	13,738	969,309	537,725
-41,286	13,749	968,249	537,151
-40,271	13,777	967,475	536,791
-39,257	13,782	966,450	536,219
-38,242	13,779	965,742	535,793
-37,227	13,756	964,905	535,233
-36,213	13,735	964,006	534,646
-35,198	13,729	963,086	534,095
-34,184	13,785	962,351	533,847
-33,169	13,759	961,348	533,185
-32,154	13,733	960,626	532,682
-31,140	13,768	959,623	532,216
-30,125	13,805	958,910	531,918
-29,111	13,752	958,108	531,283
-28,096	13,716	957,432	530,771
-27,082	13,783	956,689	530,554
-26,067	13,823	955,981	530,266
-25,052	13,768	955,250	529,666
-24,038	13,731	954,783	529,266
-23,023	13,823	953,741	528,961
-22,009	13,837	953,300	528,741
-20,994	13,806	952,722	528,302
-19,979	13,880	951,962	528,094
-18,965	13,856	951,305	527,633
-17,950	13,833	950,809	527,263
-16,936	13,760	950,269	526,710
-15,921	13,728	949,425	526,118
-14,906	13,628	948,864	525,468
-13,892	13,701	947,930	525,163
-12,877	13,698	947,478	524,881
-11,863	13,626	946,873	524,297
-10,848	13,643	946,244	523,981
-9,833	13,757	945,790	524,071
-8,819	13,776	945,020	523,683
-7,804	13,707	944,535	523,176
-6,790	13,712	943,899	522,819
-5,775	13,789	943,218	522,663
-4,760	13,744	942,743	522,240
-3,746	13,601	942,346	521,546
-2,731	13,554	941,550	520,936
-1,717	13,499	940,884	520,371
-0,702	13,498	940,181	519,959
0,313	13,400	939,556	520,089
1,327	16,756	937,193	529,302
2,342	25,830	788,629	469,250
3,356	21,946	443,472	258,117
4,371	-7,216	296,163	143,179
5,386	-11,395	277,906	130,375
6,400	-12,688	272,280	126,520
7,415	-12,651	270,092	125,526
8,429	-12,617	268,458	124,787
9,444	-12,753	267,644	124,274
10,459	-12,655	266,911	124,011
11,473	-12,818	266,286	123,561
12,488	-12,877	265,756	123,251
13,502	-13,189	265,272	122,733
14,517	-13,085	264,700	122,551
15,531	-13,067	264,538	122,482
16,546	-13,026	264,137	122,322
17,561	-12,753	263,564	122,291
18,575	-12,860	263,275	122,050
19,590	-13,133	262,981	121,658
20,604	-12,923	262,644	121,679
21,619	-12,784	262,083	121,534
22,634	-12,946	261,938	121,310
23,648	-13,179	261,567	120,919
24,663	-12,841	261,372	121,120
25,677	-13,132	261,054	120,703
26,692	-12,808	260,640	120,789
27,707	-12,978	260,498	120,561
28,721	-12,875	260,261	120,532
29,736	-13,176	259,954	120,112
30,750	-13,059	259,806	120,136
31,765	-13,099	259,417	119,911
32,780	-12,955	259,177	119,916
33,794	-13,158	258,964	119,628
34,809	-13,035	258,705	119,606
35,823	-13,007	258,470	119,511
36,838	-13,063	258,177	119,316
37,853	-12,977	257,963	119,282
38,867	-13,068	257,774	119,104
39,882	-13,018	257,538	119,029
40,896	-12,953	257,300	118,965
41,911	-12,971	257,077	118,835
42,926	-13,126	256,859	118,589
43,940	-13,160	256,561	118,410
44,955	-13,239	256,402	118,257
45,969	-13,252	256,127	118,108
46,984	-13,341	255,782	117,862
47,999	-13,539	255,577	117,584
49,013	-13,703	255,417	117,357
50,028	-13,600	255,002	117,245
51,042	-13,809	254,873	116,995
52,057	-13,742	254,559	116,898
53,071	-13,814	254,397	116,751
54,086	-13,884	254,303	116,637
55,101	-13,710	254,060	116,665
56,115	-13,287	253,924	116,958
57,130	-12,998	253,894	117,183
58,144	-12,794	253,592	117,209
59,159	-12,827	253,463	117,111
60,174	-13,180	253,228	116,688
61,188	-13,049	253,003	116,687
62,203	-12,843	252,764	116,743
63,217	-13,102	252,449	116,365
64,232	-12,803	252,257	116,523
65,247	-13,004	252,077	116,257
66,261	-13,077	251,855	116,081
67,276	-13,096	251,574	115,925
68,290	-13,226	251,437	115,741
69,305	-13,363	251,013	115,418
70,320	-13,392	250,939	115,349
71,334	-13,048	250,739	115,540
72,349	-12,939	250,622	115,569
73,363	-12,878	250,473	115,542
74,378	-12,828	250,154	115,427
75,393	-12,920	250,005	115,270
76,407	-12,814	249,706	115,212
77,422	-12,919	249,637	115,080
78,436	-12,940	249,271	114,883
79,451	-12,978	249,038	114,734
80,466	-12,850	248,836	114,739
81,480	-13,045	248,680	114,492
82,495	-13,202	248,295	114,172
83,509	-12,988	248,170	114,285
84,524	-13,022	247,933	114,137
85,539	-13,401	247,814	113,753
86,553	-13,502	247,750	113,628
87,568	-13,317	247,632	113,720
88,582	-13,029	247,273	113,786
89,597	-13,445	247,216	113,401
90,611	-13,045	246,845	113,556
91,626	-13,007	246,904	113,605
92,641	-13,058	246,583	113,404
93,655	-12,994	246,488	113,403
94,670	-13,147	246,186	113,127
95,684	-13,081	245,970	113,073
96,699	-13,180	245,835	112,918
97,714	-13,106	245,719	112,916
98,728	-13,243	245,375	112,634
99,743	-13,210	245,043	112,499
100,757	-13,266	244,945	112,398
101,772	-13,434	244,921	112,237
102,787	-13,466	244,689	112,094
103,801	-13,150	244,493	112,256
104,816	-13,082	244,351	112,237
105,830	-12,988	244,192	112,232
106,845	-12,786	243,871	112,241
107,860	-12,963	243,799	112,053
108,874	-13,014	243,440	111,835
109,889	-13,072	243,234	111,683
110,903	-13,056	243,137	111,642
111,918	-13,064	242,876	111,505
112,933	-12,981	242,750	111,506
113,947	-12,932	242,565	111,451
114,962	-12,893	242,449	111,420
115,976	-13,027	242,219	111,194
116,991	-13,011	241,996	111,095
118,006	-12,966	241,867	111,062
119,020	-13,015	241,752	110,960
120,035	-12,913	241,628	110,977
121,049	-12,949	241,528	110,891
122,064	-13,002	241,388	110,774
123,079	-12,908	241,106	110,711
124,093	-12,941	240,730	110,502
125,108	-13,252	240,564	110,162
126,122	-13,437	240,376	109,916
127,137	-13,485	240,227	109,799
128,151	-13,385	240,177	109,848
129,166	-13,292	239,892	109,784
130,181	-13,190	239,556	109,703
131,195	-13,205	239,386	109,602
132,210	-13,202	239,328	109,568
133,224	-13,041	239,158	109,611
134,239	-13,001	239,007	109,564
135,254	-12,914	238,794	109,528
136,268	-13,241	238,753	109,234
137,283	-13,330	238,336	108,962
138,297	-13,551	238,171	108,699
139,312	-13,515	237,894	108,592
140,327	-13,184	237,823	108,816
141,341	-12,643	237,775	109,219
142,356	-12,792	237,771	109,087
143,370	-12,674	237,515	109,056
144,385	-12,528	237,264	109,048
145,400	-12,699	237,093	108,822
146,414	-12,752	237,011	108,733
147,429	-13,002	236,808	108,430
148,443	-12,858	236,637	108,457
149,458	-12,744	236,463	108,458
150,473	-12,909	236,259	108,224
151,487	-12,906	236,104	108,145
152,502	-13,034	235,984	107,979
153,516	-12,827	235,717	108,012
154,531	-12,777	235,574	107,976
155,546	-13,022	235,392	107,688
156,560	-12,754	235,197	107,803
157,575	-12,856	234,996	107,619
158,589	-13,062	234,882	107,395
159,604	-12,714	234,787	107,617
160,619	-12,716	234,639	107,538
161,633	-12,621	234,331	107,463
162,648	-12,650	234,289	107,411
163,662	-12,750	234,144	107,256
164,677	-12,871	233,887	107,034
165,692	-12,728	233,790	107,092
166,706	-12,788	233,646	106,969
167,721	-12,515	233,432	107,077
168,735	-12,634	233,466	106,989
169,750	-12,713	233,148	106,771
170,764	-12,714	232,959	106,675
171,779	-12,826	232,967	106,581
172,794	-12,705	232,816	106,598
173,808	-13,027	232,570	106,223
174,823	-13,251	232,119	105,832
175,837	-13,393	232,093	105,700
176,852	-13,176	232,136	105,880
177,867	-12,692	231,775	106,083
178,881	-12,905	231,715	105,880
179,896	-12,753	231,653	105,961
180,910	-12,775	231,456	105,844
181,925	-12,619	231,266	105,870
182,940	-12,548	231,140	105,858
183,954	-12,680	231,133	105,742
184,969	-12,475	230,799	105,739
185,983	-12,358	230,581	105,721
186,998	-12,550	230,577	105,561
188,013	-12,362	230,315	105,577
189,027	-12,727	230,178	105,223
190,042	-12,715	230,100	105,187
191,056	-12,540	229,800	105,175
192,071	-12,512	229,744	105,162
193,086	-12,729	229,622	104,929
194,100	-12,585	229,440	104,947
195,115	-13,047	228,942	104,355
196,129	-13,343	229,141	104,208
197,144	-7,567	231,049	109,549
198,159	-1,628	232,645	114,926
199,173	1,740	233,579	118,005
200,188	2,309	233,483	118,390
201,202	2,244	233,444	118,308
202,217	2,245	233,226	118,189
203,232	2,445	233,170	118,304
204,246	2,542	233,002	118,284
205,261	2,648	232,885	118,296
206,275	2,973	232,679	118,433
207,290	2,868	232,610	118,306
208,304	2,929	232,364	118,218
209,319	2,854	232,196	118,064
210,334	2,616	232,043	117,791
211,348	2,295	231,788	117,404
212,363	2,067	231,539	117,092
213,377	1,740	231,454	116,786
214,392	2,003	231,173	116,837
215,407	1,992	231,122	116,791
216,421	2,078	231,026	116,799
217,436	2,044	230,713	116,604
218,450	1,624	230,583	116,205
219,465	1,853	230,531	116,344
220,480	1,907	230,266	116,242
221,494	1,984	230,187	116,251
222,509	2,124	230,255	116,382
223,523	2,208	229,934	116,274
224,538	2,248	229,696	116,173
225,553	2,153	229,597	116,040
226,567	2,059	229,567	115,943
227,582	2,332	229,389	116,051
228,596	2,377	229,268	116,014
229,611	2,170	229,053	115,737
230,626	1,976	228,568	115,334
231,640	1,817	228,723	115,281
232,655	2,220	228,519	115,474
233,669	2,393	228,498	115,585
234,684	2,626	228,440	115,722
235,699	2,508	228,247	115,525
236,713	2,171	228,115	115,192
237,728	2,079	227,738	114,921
238,742	1,743	227,735	114,655
239,757	1,869	227,606	114,675
240,772	1,946	227,323	114,581
241,786	1,804	227,273	114,438
242,801	2,219	227,053	114,630
243,815	2,736	227,057	115,012
244,830	2,416	226,998	114,731
245,844	2,095	226,538	114,247
246,859	2,021	226,572	114,198
247,874	2,204	226,528	114,303
248,888	2,422	226,233	114,308
249,903	2,177	225,982	113,987
250,917	2,039	225,907	113,835
251,932	2,111	225,675	113,762
252,947	1,910	225,598	113,563
253,961	1,803	225,458	113,402
254,976	2,066	225,187	113,452
255,990	2,275	225,369	113,690
257,005	2,335	225,110	113,594
258,020	2,368	224,900	113,503
259,034	2,259	224,995	113,459
260,049	2,423	224,594	113,369
261,063	2,024	224,658	113,094
262,078	2,300	224,618	113,269
263,093	2,600	224,379	113,362
264,107	2,314	224,121	113,009
265,122	2,323	223,980	112,934
266,136	2,584	223,958	113,107
267,151	2,472	223,697	112,882
268,166	2,232	223,446	112,567
269,180	1,983	223,243	112,271
270,195	1,972	223,145	112,203
271,209	1,863	222,914	111,996
272,224	1,954	222,988	112,091
273,239	2,127	222,796	112,112
274,253	2,291	222,555	112,103
275,268	1,995	222,457	111,825
276,282	1,773	222,410	111,627
277,297	1,960	221,959	111,529
278,312	1,925	221,973	111,500
279,326	2,245	221,853	111,665
280,341	2,083	221,767	111,493
281,355	2,180	221,685	111,512
282,370	2,142	221,477	111,370
283,384	1,927	221,279	111,103
284,399	1,886	221,078	110,962
285,414	1,700	220,870	110,712
286,428	2,006	220,877	110,929
287,443	2,255	220,750	111,037
288,457	2,256	220,704	111,006
289,472	2,186	220,301	110,742
290,487	1,691	220,125	110,283
291,501	1,719	219,963	110,212
292,516	1,562	219,857	110,036
293,530	1,890	219,817	110,244
294,545	1,888	219,714	110,181
295,560	2,025	219,635	110,231
296,574	2,066	219,452	110,159
297,589	1,866	219,338	109,947
298,603	2,028	219,367	110,069
299,618	2,250	219,015	110,044
300,633	2,294	218,996	110,056
301,647	2,334	218,952	110,053
302,662	2,432	218,674	109,974
303,676	2,287	218,568	109,807
304,691	2,343	218,349	109,728
305,706	2,259	218,238	109,601
306,720	2,392	218,092	109,614
307,735	2,147	217,711	109,236
308,749	2,156	217,633	109,194
309,764	2,287	217,579	109,251
310,779	2,432	217,494	109,303
311,793	2,220	217,418	109,103
312,808	2,302	217,273	109,079
313,822	2,027	217,141	108,806
314,837	2,183	216,934	108,804
315,852	1,989	216,781	108,578
316,866	2,046	216,714	108,576
317,881	2,325	216,565	108,692
318,895	2,245	216,390	108,537
319,910	2,015	216,065	108,200
320,925	1,748	215,975	107,955
321,939	1,645	215,757	107,763
322,954	1,737	215,753	107,817
323,968	1,983	215,805	108,008
324,983	2,165	215,621	108,037
325,997	2,603	215,502	108,279
327,012	2,592	215,435	108,228
328,027	2,383	215,227	107,965
329,041	2,527	215,090	107,989
330,056	2,576	215,037	107,987
331,070	2,174	214,660	107,504
332,085	1,953	214,552	107,283
333,100	2,288	214,587	107,529
334,114	2,129	214,341	107,283
335,129	2,469	214,232	107,459
336,143	2,077	214,075	107,094
337,158	2,151	213,951	107,075
338,173	2,012	213,809	106,897
339,187	1,857	213,551	106,649
340,202	1,604	213,312	106,342
341,216	1,739	213,305	106,424
342,231	2,033	213,423	106,680
343,246	2,195	213,187	106,666
344,260	2,403	212,913	106,666
345,275	2,328	212,880	106,587
346,289	2,587	212,757	106,697
347,304	2,046	212,682	106,272
348,319	2,136	212,459	106,214
349,333	2,479	212,137	106,283
350,348	2,464	212,039	106,213
351,362	2,413	212,115	106,207
352,377	2,287	212,009	106,056
353,392	2,261	211,800	105,924
354,406	2,168	211,571	105,736
355,421	196,677	1315,147	1392,194
356,435	157,280	1449,550	1392,147
