DTS Sentinel unit serial number:	SN410029Multiplexer serial number:	ORYXHardware model number:	OX2-SRSoftware version number:	ORYX F/W v4,00 Oryx Data Collector v3.7.2.0data status	okinstallation	B6 Nyhavnadifferential loss correction	single-endedforward channel	channel 2reverse channel	N/Adate	2023/12/10time	11:05:08forward acquisition time	300,00reverse acquisition time	0,00gamma	499,1914k internal	0,3123k external	0,3123temperature offset calibration	1,0000default loss term (dB/km)	0,3820temperature slope calibration	1,0000multiplexer offset coefficient	1,0000multiplexer slope coefficient	1,0000fibre end	0,00T internal ref (°C)	22,62T ext. ref 1 (°C)	6,51T ext. ref 2 (°C)	6,51length (m)	temperature (°C)	Stokes	anti-Stokes-744,400	74,669	0,088	0,069
-743,385	27,467	-0,157	0,098
-742,371	5,319	0,062	0,034
-741,356	98,226	-0,202	0,173
-740,342	-200,000	-0,012	-0,039
-739,327	-78,735	-0,315	0,080
-738,312	800,000	0,026	-0,055
-737,298	1,011	-0,254	0,135
-736,283	-200,000	0,059	-0,216
-735,269	6,000	-0,200	0,110
-734,254	-200,000	-0,006	0,025
-733,239	-191,663	-0,380	0,003
-732,225	138,682	0,080	-0,079
-731,210	-200,000	0,017	-0,060
-730,196	-65,255	0,063	-0,019
-729,181	-28,418	-0,036	0,015
-728,167	518,948	0,052	0,092
-727,152	86,737	-0,053	-0,043
-726,137	-200,000	-0,009	-0,106
-725,123	-179,834	-0,164	-0,003
-724,108	-63,558	-0,210	-0,064
-723,094	155,670	-0,065	-0,066
-722,079	800,000	-0,032	-0,071
-721,064	-200,000	-0,021	-0,223
-720,050	-200,000	-0,008	-0,098
-719,035	-9,026	0,050	-0,025
-718,021	-89,636	-0,127	-0,028
-717,006	246,133	0,017	0,021
-715,991	-32,318	-0,148	0,061
-714,977	169,309	-0,128	-0,137
-713,962	141,103	-0,051	-0,050
-712,948	333,503	0,041	-0,059
-711,933	234,692	-0,056	0,068
-710,918	11,908	-0,239	-0,137
-709,904	162,372	0,039	-0,041
-708,889	555,756	-0,064	-0,115
-707,875	278,702	-0,076	-0,100
-706,860	274,641	-0,020	-0,026
-705,845	-200,000	0,016	0,103
-704,831	-91,298	-0,060	-0,013
-703,816	800,000	0,085	-0,176
-702,802	61,141	-0,094	-0,069
-701,787	-200,000	-0,024	0,084
-700,772	-200,000	0,007	0,060
-699,758	-200,000	-0,005	0,074
-698,743	-171,253	-0,060	-0,001
-697,729	-200,000	-0,001	-0,044
-696,714	-87,621	-0,029	0,007
-695,699	-200,000	0,008	0,062
-694,685	-47,632	-0,143	-0,051
-693,670	-200,000	-0,034	-0,118
-692,656	-200,000	-0,001	-0,024
-691,641	46,130	0,050	0,034
-690,627	125,105	-0,054	0,051
-689,612	-32,152	-0,047	0,019
-688,597	-107,661	-0,079	-0,013
-687,583	94,384	-0,097	-0,082
-686,568	-3,139	0,143	-0,074
-685,554	-21,901	-0,099	-0,045
-684,539	494,159	0,037	-0,064
-683,524	122,227	-0,048	0,044
-682,510	228,908	0,076	0,093
-681,495	118,741	-0,118	-0,108
-680,481	178,703	0,042	0,045
-679,466	38,135	-0,123	-0,081
-678,451	39,254	-0,108	0,071
-677,437	-200,000	0,024	-0,078
-676,422	800,000	0,032	0,066
-675,408	582,184	-0,038	0,070
-674,393	206,306	-0,070	0,082
-673,378	173,988	-0,040	0,043
-672,364	190,903	0,084	-0,093
-671,349	800,000	-0,035	-0,101
-670,335	800,000	0,027	0,060
-669,320	332,806	0,054	0,078
-668,305	-13,921	-0,152	0,073
-667,291	686,572	-0,085	0,167
-666,276	-72,455	-0,084	-0,023
-665,262	800,000	-0,053	-0,119
-664,247	12,999	0,060	-0,035
-663,232	-108,727	0,141	0,022
-662,218	800,000	-0,028	-0,074
-661,203	463,124	-0,011	0,018
-660,189	349,683	-0,061	-0,089
-659,174	-200,000	0,004	-0,092
-658,159	-200,000	0,006	-0,060
-657,145	-200,000	0,040	-0,177
-656,130	-81,184	-0,046	-0,011
-655,116	354,207	0,123	0,182
-654,101	71,269	0,091	0,070
-653,086	142,068	-0,030	-0,029
-652,072	-25,965	-0,050	-0,022
-651,057	-180,246	-0,080	0,001
-650,043	-67,968	-0,100	0,029
-649,028	146,323	0,089	0,089
-648,014	-200,000	-0,013	0,047
-646,999	-200,000	0,001	-0,064
-645,984	163,594	0,117	-0,122
-644,970	365,532	-0,134	-0,200
-643,955	-200,000	-0,027	-0,213
-642,941	144,597	0,080	-0,080
-641,926	73,921	-0,028	-0,022
-640,911	800,000	-0,032	0,105
-639,897	-91,481	-0,040	-0,008
-638,882	571,126	-0,045	0,081
-637,868	-70,656	-0,023	-0,006
-636,853	-92,835	-0,113	-0,023
-635,838	86,968	0,041	-0,034
-634,824	-200,000	-0,007	-0,063
-633,809	234,083	-0,026	0,032
-632,795	-69,792	0,132	0,037
-631,780	-200,000	0,003	0,077
-630,765	652,730	0,002	-0,005
-629,751	48,766	0,009	0,006
-628,736	-85,144	-0,159	-0,037
-627,722	-200,000	0,001	-0,138
-626,707	-91,263	-0,258	-0,054
-625,692	-14,685	0,066	0,031
-624,678	-69,823	0,015	0,004
-623,663	100,064	0,023	0,020
-622,649	-54,661	-0,100	-0,033
-621,634	800,000	-0,040	-0,093
-620,619	-200,000	-0,026	0,087
-619,605	-200,000	-0,011	0,128
-618,590	-63,699	-0,111	-0,034
-617,576	161,317	-0,127	0,131
-616,561	-200,000	-0,030	0,109
-615,546	128,915	-0,023	0,022
-614,532	59,970	-0,138	-0,101
-613,517	-137,819	0,028	0,002
-612,503	-200,000	0,001	-0,036
-611,488	72,655	0,082	0,064
-610,474	-200,000	-0,011	0,080
-609,459	-78,571	-0,143	-0,036
-608,444	-200,000	-0,041	-0,135
-607,430	-200,000	0,008	-0,143
-606,415	-200,000	-0,001	-0,157
-605,401	-48,506	0,043	-0,015
-604,386	-176,855	0,063	-0,001
-603,371	-200,000	-0,009	0,099
-602,357	90,403	-0,101	0,084
-601,342	63,408	0,104	-0,077
-600,328	-120,224	0,023	0,003
-599,313	-200,000	0,010	-0,129
-598,298	-156,433	0,153	0,007
-597,284	-97,886	0,035	0,007
-596,269	30,460	-0,021	-0,013
-595,255	48,115	-0,052	0,036
-594,240	-200,000	-0,035	-0,177
-593,225	260,600	0,087	-0,111
-592,211	28,485	-0,061	0,038
-591,196	138,947	0,053	-0,052
-590,182	420,192	0,087	-0,139
-589,167	800,000	0,042	0,095
-588,152	379,791	-0,093	0,142
-587,138	118,355	0,038	0,034
-586,123	-200,000	0,035	-0,170
-585,109	105,509	0,100	-0,088
-584,094	-38,485	-0,086	-0,034
-583,079	511,518	0,054	-0,094
-582,065	-200,000	0,020	-0,100
-581,050	719,724	-0,033	-0,065
-580,036	717,997	-0,018	0,036
-579,021	-133,132	0,123	0,011
-578,006	-97,284	-0,175	-0,034
-576,992	-89,598	-0,042	0,009
-575,977	152,895	-0,071	0,072
-574,963	-158,051	0,142	0,006
-573,948	-200,000	0,002	0,051
-572,934	-108,127	-0,034	0,005
-571,919	267,284	-0,117	-0,152
-570,904	-147,513	-0,078	0,005
-569,890	-127,340	0,041	0,004
-568,875	-200,000	-0,021	-0,105
-567,861	-46,814	0,093	-0,034
-566,846	800,000	-0,035	0,087
-565,831	156,166	0,061	-0,062
-564,817	-36,313	-0,120	-0,048
-563,802	104,644	-0,105	-0,092
-562,788	-78,899	0,146	0,037
-561,773	800,000	0,053	0,119
-560,758	-99,282	-0,148	-0,027
-559,744	229,929	-0,041	0,049
-558,729	-200,000	0,027	0,100
-557,715	563,987	-0,086	-0,155
-556,700	-56,243	-0,079	-0,026
-555,685	-200,000	0,026	-0,148
-554,671	-200,000	-0,010	-0,108
-553,656	88,743	0,120	0,099
-552,642	-200,000	-0,003	-0,066
-551,627	757,379	0,009	-0,018
-550,612	107,562	0,043	0,038
-549,598	-113,695	-0,158	0,023
-548,583	155,003	-0,054	-0,055
-547,569	52,792	-0,085	-0,060
-546,554	19,894	-0,022	-0,013
-545,539	-98,827	-0,041	0,008
-544,525	-200,000	0,025	-0,159
-543,510	-1,828	-0,103	-0,053
-542,496	-44,996	0,042	0,015
-541,481	-200,000	-0,020	-0,074
-540,466	-127,767	0,067	-0,007
-539,452	800,000	-0,036	0,080
-538,437	-200,000	0,022	0,169
-537,423	135,234	-0,077	0,074
-536,408	-200,000	-0,025	0,090
-535,393	500,455	-0,070	0,120
-534,379	-200,000	-0,028	-0,128
-533,364	210,226	-0,071	-0,083
-532,350	428,768	0,056	-0,089
-531,335	-148,632	0,094	-0,006
-530,321	-200,000	0,006	0,044
-529,306	91,989	0,018	-0,015
-528,291	-85,561	0,116	-0,027
-527,277	800,000	-0,034	-0,106
-526,262	426,204	-0,051	-0,081
-525,248	90,160	0,031	0,026
-524,233	800,000	0,017	0,051
-523,218	800,000	-0,038	-0,112
-522,204	187,924	-0,063	0,070
-521,189	-200,000	0,007	0,081
-520,175	-200,000	0,007	-0,119
-519,160	-65,506	-0,117	0,035
-518,145	51,080	-0,012	0,008
-517,131	-27,598	0,070	-0,030
-516,116	217,761	0,060	0,071
-515,102	89,121	-0,046	-0,038
-514,087	669,604	0,033	0,064
-513,072	154,305	-0,097	-0,098
-512,058	-96,031	0,064	0,013
-511,043	-53,858	0,115	-0,039
-510,029	238,143	0,096	-0,117
-509,014	243,357	0,076	0,095
-507,999	77,764	0,052	0,041
-506,985	-56,966	0,040	-0,013
-505,970	-106,618	-0,155	0,025
-504,956	96,412	0,037	0,031
-503,941	277,488	-0,032	-0,042
-502,926	58,087	0,011	0,008
-501,912	67,935	0,118	-0,089
-500,897	165,691	-0,057	-0,060
-499,883	-166,413	0,012	0,000
-498,868	-182,590	-0,117	0,002
-497,853	-43,916	0,136	-0,050
-496,839	-74,127	0,062	-0,016
-495,824	9,462	0,109	-0,061
-494,810	119,726	0,038	0,035
-493,795	107,031	0,024	0,021
-492,781	232,034	0,071	-0,086
-491,766	-52,754	-0,116	0,039
-490,751	800,000	-0,046	0,111
-489,737	95,633	-0,136	0,114
-488,722	105,334	0,216	-0,188
-487,708	800,000	-0,020	0,060
-486,693	-200,000	-0,010	-0,099
-485,678	215,941	0,004	-0,005
-484,664	-109,266	0,164	-0,025
-483,649	519,153	-0,008	0,013
-482,635	800,000	-0,079	-0,176
-481,620	505,689	0,033	0,056
-480,605	279,825	-0,048	-0,063
-479,591	121,729	0,129	0,118
-478,576	-58,036	-0,085	0,027
-477,562	72,284	-0,085	-0,065
-476,547	-169,619	0,047	0,001
-475,532	437,415	-0,049	0,080
-474,518	85,223	-0,085	0,069
-473,503	-200,000	0,016	-0,057
-472,489	124,649	0,085	0,079
-471,474	258,271	-0,086	0,110
-470,459	-158,439	-0,029	0,001
-469,445	6,835	0,111	-0,061
-468,430	-200,000	-0,001	-0,078
-467,416	-116,614	0,063	-0,008
-466,401	11,927	-0,081	-0,046
-465,386	17,338	0,077	-0,045
-464,372	-200,000	0,022	0,176
-463,357	555,302	-0,033	-0,059
-462,343	-15,785	0,096	0,045
-461,328	-135,077	-0,130	-0,011
-460,313	-1,637	0,079	-0,041
-459,299	342,839	0,058	0,084
-458,284	-200,000	0,001	0,093
-457,270	-103,939	-0,017	-0,003
-456,255	-106,267	-0,083	0,014
-455,241	800,000	-0,066	-0,156
-454,226	239,777	0,041	-0,050
-453,211	-200,000	-0,040	0,144
-452,197	-21,062	-0,031	0,014
-451,182	800,000	0,033	0,103
-450,168	288,643	-0,041	-0,055
-449,153	408,122	-0,044	-0,070
-448,138	-62,457	-0,062	-0,019
-447,124	-121,204	0,053	0,007
-446,109	800,000	0,035	0,087
-445,095	800,000	-0,043	0,091
-444,080	15,584	0,112	0,065
-443,065	-200,000	0,011	0,099
-442,051	695,472	0,037	0,071
-441,036	114,740	-0,085	-0,076
-440,022	800,000	0,035	-0,074
-439,007	-63,478	0,144	0,043
-437,992	-200,000	-0,005	0,103
-436,978	800,000	0,031	0,082
-435,963	-66,424	0,064	0,018
-434,949	-200,000	0,002	-0,015
-433,934	634,115	0,030	-0,057
-432,919	222,781	-0,053	-0,063
-431,905	-89,463	0,064	0,014
-430,890	-200,000	-0,015	0,095
-429,876	122,009	0,073	-0,067
-428,861	409,504	-0,060	0,094
-427,846	-200,000	0,005	0,094
-426,832	-200,000	-0,020	-0,100
-425,817	80,035	-0,074	-0,059
-424,803	-42,874	0,060	-0,022
-423,788	-92,523	0,131	0,027
-422,773	-57,246	0,102	0,033
-421,759	-32,988	0,042	-0,017
-420,744	-137,809	-0,046	-0,004
-419,730	-48,496	-0,058	-0,020
-418,715	431,091	0,072	-0,115
-417,701	482,866	0,042	-0,070
-416,686	324,065	-0,035	-0,049
-415,671	145,208	-0,118	-0,116
-414,657	335,105	-0,111	0,158
-413,642	750,493	-0,037	-0,073
-412,628	-0,964	-0,016	-0,008
-411,613	-39,739	-0,086	-0,033
-410,598	229,275	-0,027	-0,032
-409,584	-200,000	0,028	-0,102
-408,569	-59,732	0,106	0,033
-407,555	13,689	0,016	-0,009
-406,540	-182,389	0,133	0,002
-405,525	70,917	0,029	0,022
-404,511	418,852	-0,081	-0,128
-403,496	0,082	0,038	-0,020
-402,482	-200,000	-0,007	0,055
-401,467	-200,000	-0,011	0,054
-400,452	-2,442	0,099	-0,051
-399,438	217,855	-0,113	-0,133
-398,423	-21,692	0,082	-0,037
-397,409	759,087	-0,019	-0,039
-396,394	-90,081	-0,081	0,017
-395,379	-73,571	0,121	-0,032
-394,365	626,297	0,044	-0,083
-393,350	800,000	-0,037	0,097
-392,336	-133,830	0,126	0,011
-391,321	-95,893	0,085	0,017
-390,306	-200,000	-0,034	-0,142
-389,292	-140,489	-0,078	-0,006
-388,277	17,668	0,078	0,045
-387,263	-200,000	-0,005	0,072
-386,248	203,203	0,026	-0,030
-385,233	-24,939	0,039	-0,017
-384,219	-108,460	-0,040	-0,006
-383,204	800,000	-0,078	-0,162
-382,190	-83,687	-0,107	-0,025
-381,175	-91,175	0,083	-0,017
-380,160	100,131	-0,113	-0,096
-379,146	100,629	0,066	0,056
-378,131	-200,000	0,016	-0,116
-377,117	27,347	-0,106	0,066
-376,102	-200,000	-0,040	0,155
-375,088	800,000	-0,016	0,040
-374,073	62,874	0,013	0,010
-373,058	-129,789	0,048	0,005
-372,044	-200,000	0,002	0,201
-371,029	124,847	0,080	0,074
-370,015	-60,361	0,183	0,057
-369,000	800,000	-0,061	0,196
-367,985	-4,346	-0,099	-0,050
-366,971	800,000	0,031	-0,066
-365,956	377,319	-0,017	0,025
-364,942	175,717	0,097	0,104
-363,927	10,789	-0,055	0,031
-362,912	20,133	0,077	-0,046
-361,898	-135,107	-0,203	-0,018
-360,883	-161,003	0,016	-0,001
-359,869	59,659	0,076	0,055
-358,854	72,161	0,064	-0,049
-357,839	-121,934	0,145	-0,017
-356,825	675,908	-0,028	0,054
-355,810	-200,000	-0,044	0,198
-354,796	800,000	0,020	-0,042
-353,781	-93,964	-0,064	-0,013
-352,766	43,426	0,051	-0,034
-351,752	-200,000	0,023	0,091
-350,737	733,441	0,109	0,215
-349,723	800,000	0,036	0,094
-348,708	-200,000	-0,005	0,095
-347,693	198,109	0,045	-0,050
-346,679	180,530	0,013	-0,014
-345,664	-200,000	0,012	-0,050
-344,650	34,835	-0,031	0,020
-343,635	-200,000	-0,035	0,158
-342,620	-200,000	0,008	-0,065
-341,606	290,008	-0,027	-0,036
-340,591	800,000	0,055	0,112
-339,577	-118,932	-0,052	-0,007
-338,562	-90,086	-0,094	-0,020
-337,548	-13,776	-0,072	-0,034
-336,533	161,549	0,049	-0,050
-335,518	107,721	-0,061	-0,053
-334,504	-128,367	0,045	0,005
-333,489	164,637	-0,063	0,065
-332,475	-200,000	-0,006	-0,142
-331,460	-200,000	0,008	0,070
-330,445	800,000	0,035	-0,106
-329,431	-119,946	-0,062	-0,008
-328,416	-34,687	0,162	0,064
-327,402	580,353	0,064	0,115
-326,387	190,237	-0,073	0,081
-325,372	-200,000	-0,004	-0,065
-324,358	-2,672	0,114	-0,058
-323,343	33,075	-0,098	-0,062
-322,329	341,503	0,013	-0,019
-321,314	800,000	-0,030	0,087
-320,299	-151,889	0,073	-0,004
-319,285	-59,996	-0,055	-0,017
-318,270	310,555	-0,042	0,058
-317,256	615,184	0,036	-0,067
-316,241	120,599	-0,124	-0,113
-315,226	-107,500	0,116	0,018
-314,212	-200,000	-0,036	0,166
-313,197	-200,000	0,032	0,140
-312,183	800,000	0,031	0,097
-311,168	231,458	0,099	-0,119
-310,153	-33,596	-0,025	-0,010
-309,139	41,637	-0,020	-0,013
-308,124	-172,951	0,047	-0,001
-307,110	589,265	0,043	-0,078
-306,095	-42,362	0,093	0,034
-305,080	-132,365	-0,142	0,013
-304,066	800,000	-0,030	0,065
-303,051	800,000	-0,030	-0,075
-302,037	800,000	0,025	-0,054
-301,022	800,000	-0,022	-0,069
-300,008	-100,422	0,034	-0,006
-298,993	-44,801	0,086	0,031
-297,978	-200,000	0,004	0,081
-296,964	-36,987	-0,168	0,066
-295,949	-200,000	0,000	-0,061
-294,935	264,943	-0,007	-0,009
-293,920	-116,284	0,065	-0,009
-292,905	388,900	0,087	0,133
-291,891	-154,466	-0,060	-0,003
-290,876	95,915	0,041	-0,035
-289,862	430,937	0,018	-0,029
-288,847	-200,000	0,015	-0,093
-287,832	-59,066	0,112	-0,035
-286,818	306,814	-0,050	0,069
-285,803	86,491	-0,161	0,130
-284,789	-200,000	0,011	-0,048
-283,774	-200,000	-0,028	0,102
-282,759	-111,183	0,073	-0,011
-281,745	21,735	-0,167	-0,099
-280,730	103,635	0,052	0,045
-279,716	-200,000	0,002	0,145
-278,701	120,408	0,040	0,037
-277,686	-0,008	-0,107	0,056
-276,672	-24,835	-0,094	0,041
-275,657	-200,000	0,007	-0,046
-274,643	398,605	0,012	-0,019
-273,628	-43,760	-0,035	0,013
-272,613	134,234	0,091	0,086
-271,599	-72,193	-0,108	0,029
-270,584	56,208	-0,059	-0,042
-269,570	-183,667	0,112	-0,001
-268,555	-200,000	-0,003	-0,013
-267,540	800,000	0,021	-0,058
-266,526	75,728	-0,064	0,050
-265,511	-66,485	0,122	0,035
-264,497	458,553	0,074	0,121
-263,482	-41,671	0,129	0,048
-262,467	57,044	0,112	-0,080
-261,453	-44,018	0,031	-0,011
-260,438	-119,775	-0,195	-0,024
-259,424	-104,931	0,039	-0,006
-258,409	-145,110	-0,165	0,011
-257,395	202,443	0,055	0,063
-256,380	285,962	-0,051	0,068
-255,365	-43,984	0,099	0,036
-254,351	62,262	-0,125	-0,091
-253,336	-45,670	-0,124	0,045
-252,322	-200,000	0,004	-0,144
-251,307	-1,883	-0,132	0,068
-250,292	645,084	0,019	0,036
-249,278	800,000	0,038	-0,088
-248,263	376,882	-0,038	-0,057
-247,249	39,281	-0,057	0,037
-246,234	104,335	0,041	0,035
-245,219	29,392	0,014	0,008
-244,205	-91,382	-0,109	-0,023
-243,190	-116,484	0,207	0,028
-242,176	27,426	-0,076	-0,047
-241,161	-200,000	0,019	0,064
-240,146	800,000	0,027	-0,069
-239,132	22,191	-0,020	0,012
-238,117	-157,570	-0,027	-0,001
-237,103	88,373	-0,165	0,134
-236,088	-21,653	0,089	-0,039
-235,073	-134,313	0,241	-0,021
-234,059	-70,954	0,150	-0,041
-233,044	-94,256	0,133	-0,026
-232,030	43,698	-0,072	0,048
-231,015	55,459	-0,098	-0,069
-230,000	-84,148	0,071	-0,016
-228,986	248,152	0,037	0,046
-227,971	800,000	0,047	0,140
-226,957	-109,647	0,114	0,017
-225,942	571,562	0,046	0,082
-224,927	-200,000	0,014	0,123
-223,913	10,355	-0,043	-0,024
-222,898	-60,328	-0,023	0,007
-221,884	-36,579	0,133	0,052
-220,869	-200,000	0,031	0,139
-219,855	-125,147	-0,034	-0,004
-218,840	-141,184	-0,110	-0,008
-217,825	-200,000	-0,005	0,027
-216,811	-200,000	-0,005	-0,025
-215,796	800,000	-0,037	-0,079
-214,782	-47,814	0,074	-0,026
-213,767	-200,000	-0,018	0,141
-212,752	308,860	-0,031	0,042
-211,738	43,859	-0,076	-0,050
-210,723	164,549	0,079	-0,082
-209,709	598,927	-0,058	0,106
-208,694	-200,000	0,004	0,027
-207,679	57,473	0,124	0,088
-206,665	-149,038	0,074	-0,004
-205,650	507,265	0,023	-0,039
-204,636	-94,903	0,051	0,010
-203,621	381,306	0,085	0,128
-202,606	-200,000	0,002	0,169
-201,592	748,368	-0,072	-0,143
-200,577	800,000	-0,026	0,071
-199,563	-98,386	-0,140	-0,026
-198,548	-155,055	0,024	0,001
-197,533	272,884	0,049	0,064
-196,519	-17,104	-0,119	-0,054
-195,504	-56,178	0,137	-0,044
-194,490	63,703	-0,043	0,031
-193,475	-34,416	0,089	0,035
-192,460	-200,000	0,013	0,105
-191,446	-10,376	-0,019	-0,009
-190,431	-147,456	0,132	0,008
-189,417	-200,000	-0,028	0,105
-188,402	507,362	0,018	-0,031
-187,387	190,035	0,048	-0,052
-186,373	130,083	0,009	-0,009
-185,358	140,232	-0,076	0,073
-184,344	-200,000	-0,111	0,000
-183,329	128,106	-0,067	-0,063
-182,315	-71,528	0,067	-0,018
-181,300	-65,455	-0,052	0,015
-180,285	800,000	-0,045	0,093
-179,271	163,118	0,027	-0,028
-178,256	26,625	-0,059	0,036
-177,242	800,000	0,038	0,079
-176,227	110,701	0,015	-0,014
-175,212	800,000	-0,029	-0,059
-174,198	-138,366	-0,082	0,007
-173,183	113,967	-0,158	0,140
-172,169	17,307	-0,004	0,002
-171,154	800,000	0,039	-0,108
-170,139	-200,000	-0,007	-0,071
-169,125	25,660	-0,093	-0,056
-168,110	-159,546	0,175	0,007
-167,096	165,844	0,054	0,055
-166,081	-132,814	-0,101	-0,009
-165,066	78,373	0,042	-0,032
-164,052	-75,094	-0,090	-0,023
-163,037	-56,320	-0,011	-0,004
-162,023	-54,800	0,087	-0,029
-161,008	443,126	-0,080	-0,128
-159,993	-55,444	0,056	-0,018
-158,979	-200,000	0,017	0,126
-157,964	800,000	-0,033	0,092
-156,950	800,000	-0,034	0,100
-155,935	558,253	-0,009	-0,017
-154,920	304,223	0,066	-0,090
-153,906	800,000	-0,016	0,045
-152,891	191,105	-0,157	-0,173
-151,877	87,859	-0,110	0,089
-150,862	-121,746	-0,025	0,003
-149,847	34,981	-0,111	0,071
-148,833	5,473	0,133	-0,072
-147,818	-164,951	0,089	0,003
-146,804	138,907	-0,117	0,112
-145,789	-200,000	-0,006	0,048
-144,775	-200,000	-0,014	0,048
-143,760	800,000	0,019	0,053
-142,745	60,231	0,152	0,109
-141,731	-7,192	-0,081	0,040
-140,716	395,538	0,042	0,064
-139,702	-0,517	0,125	-0,064
-138,687	68,665	0,154	0,115
-137,672	-78,686	-0,066	-0,016
-136,658	98,449	-0,082	-0,069
-135,643	-119,039	-0,150	-0,019
-134,629	55,202	0,095	0,067
-133,614	45,338	0,091	0,061
-132,599	-126,388	0,087	-0,009
-131,585	-126,565	-0,105	0,011
-130,570	37,304	-0,138	-0,089
-129,556	148,612	-0,053	-0,052
-128,541	-32,685	-0,093	-0,038
-127,526	-50,913	0,069	-0,024
-126,512	44,840	-0,073	-0,049
-125,497	-63,407	0,061	-0,018
-124,483	-73,259	0,079	0,021
-123,468	133,611	-0,083	-0,078
-122,453	800,000	-0,034	-0,069
-121,439	-68,709	0,027	-0,008
-120,424	323,248	-0,023	0,033
-119,410	800,000	0,048	-0,144
-118,395	800,000	-0,036	0,085
-117,380	83,653	0,073	0,058
-116,366	-200,000	-0,009	-0,078
-115,351	-52,188	0,098	0,033
-114,337	138,187	-0,034	0,032
-113,322	800,000	0,040	-0,081
-112,307	48,089	-0,067	0,045
-111,293	-138,115	0,131	0,010
-110,278	395,479	0,021	-0,031
-109,264	-200,000	0,023	0,138
-108,249	800,000	0,022	0,056
-107,234	800,000	-0,008	0,024
-106,220	11,526	-0,069	-0,039
-105,205	95,701	0,077	0,064
-104,191	-69,822	0,145	0,040
-103,176	326,474	0,055	0,076
-102,162	70,306	0,056	-0,042
-101,147	-200,000	-0,013	-0,138
-100,132	800,000	0,017	0,044
-99,118	-128,028	0,072	-0,007
-98,103	-200,000	0,012	0,060
-97,089	-27,061	0,083	0,035
-96,074	-60,698	0,049	0,015
-95,059	-200,000	0,009	-0,032
-94,045	-200,000	-0,034	0,133
-93,030	-40,929	0,079	-0,029
-92,016	-5,206	-0,053	0,026
-91,001	-200,000	0,001	0,044
-89,986	-16,852	0,092	0,042
-88,972	-200,000	-0,010	0,071
-87,957	-104,514	-0,099	-0,016
-86,943	-66,927	-0,036	-0,010
-85,928	368,576	-0,041	0,061
-84,913	382,475	-0,063	0,094
-83,899	330,339	-0,050	-0,070
-82,884	800,000	0,010	0,020
-81,870	-200,000	-0,028	-0,089
-80,855	-144,253	0,067	0,004
-79,840	-200,000	0,008	0,034
-78,826	800,000	0,052	0,122
-77,811	-89,512	-0,013	-0,003
-76,797	569,402	-0,028	0,049
-75,782	800,000	0,044	-0,109
-74,767	16,790	0,115	0,066
-73,753	-200,000	0,017	0,069
-72,738	-67,170	-0,068	0,019
-71,724	119,200	-0,117	-0,105
-70,709	-116,114	0,107	0,014
-69,694	-200,000	0,004	0,128
-68,680	800,000	-0,034	-0,096
-67,665	-117,749	0,050	0,007
-66,651	800,000	0,063	0,158
-65,636	-200,000	-0,003	-0,019
-64,622	196,536	-0,048	-0,054
-63,607	168,752	-0,112	-0,116
-62,592	-124,806	0,106	-0,012
-61,578	22,493	0,104	0,061
-60,563	783,254	0,017	0,034
-59,549	-200,000	0,007	0,026
-58,534	-119,532	-1,329	-0,165
-57,519	622,160	-0,796	-1,460
-56,505	-200,000	-0,833	-4,320
-55,490	71,754	0,600	-0,452
-54,476	800,000	4,909	11,864
-53,461	-200,000	13,317	253,979
-52,446	-200,000	689,083	2271,541
-51,432	596,748	1623,150	2929,164
-50,417	120,967	1636,526	1477,168
-49,403	73,658	1290,710	980,123
-48,388	38,428	1025,483	661,733
-47,373	24,602	982,716	588,646
-46,359	23,829	972,470	579,951
-45,344	22,829	968,299	574,169
-44,330	22,831	966,710	573,210
-43,315	22,660	965,616	571,982
-42,300	22,632	964,360	571,122
-41,286	22,645	963,348	570,543
-40,271	22,635	962,619	570,059
-39,257	22,638	961,610	569,447
-38,242	22,625	960,537	568,746
-37,227	22,598	959,780	568,186
-36,213	22,650	958,932	567,832
-35,198	22,616	958,041	567,172
-34,184	22,682	957,294	566,921
-33,169	22,617	956,477	566,204
-32,154	22,690	955,605	565,902
-31,140	22,687	954,677	565,320
-30,125	22,734	953,937	565,009
-29,111	22,673	953,184	564,346
-28,096	22,682	952,467	563,926
-27,082	22,710	951,807	563,603
-26,067	22,623	950,947	562,794
-25,052	22,668	950,193	562,470
-24,038	22,633	949,658	562,018
-23,023	22,613	949,021	561,556
-22,009	22,712	948,289	561,417
-20,994	22,718	947,650	561,034
-19,979	22,664	947,149	560,542
-18,965	22,643	946,503	560,072
-17,950	22,681	945,782	559,743
-16,936	22,650	945,166	559,259
-15,921	22,600	944,421	558,637
-14,906	22,586	943,599	558,081
-13,892	22,557	943,098	557,674
-12,877	22,572	942,435	557,307
-11,863	22,504	941,915	556,758
-10,848	22,526	941,371	556,487
-9,833	22,605	940,836	556,398
-8,819	22,626	940,224	556,082
-7,804	22,550	939,496	555,387
-6,790	22,552	938,876	555,006
-5,775	22,534	938,465	554,684
-4,760	22,536	937,745	554,241
-3,746	22,520	937,158	553,823
-2,731	22,401	936,390	552,972
-1,717	22,409	935,706	552,569
-0,702	22,385	935,007	552,058
0,313	22,181	934,429	551,909
1,327	25,262	932,379	560,341
2,342	34,854	796,724	504,377
3,356	32,813	452,106	283,108
4,371	2,012	293,960	153,337
5,386	-2,380	274,942	139,246
6,400	-3,916	269,039	134,818
7,415	-4,381	266,496	133,104
8,429	-3,993	265,363	132,882
9,444	-4,021	264,396	132,360
10,459	-4,000	263,769	132,054
11,473	-4,288	263,248	131,520
12,488	-4,209	262,704	131,308
13,502	-4,335	262,158	130,909
14,517	-4,397	261,682	130,604
15,531	-4,206	261,311	130,580
16,546	-4,119	260,808	130,395
17,561	-4,215	260,650	130,218
18,575	-4,220	260,428	130,091
19,590	-4,440	260,078	129,707
20,604	-4,187	259,668	129,717
21,619	-4,185	259,272	129,510
22,634	-4,180	259,054	129,394
23,648	-4,280	258,783	129,158
24,663	-4,492	258,525	128,828
25,677	-4,335	258,236	128,813
26,692	-4,202	258,041	128,822
27,707	-4,225	257,634	128,587
28,721	-4,381	257,562	128,401
29,736	-4,323	257,105	128,213
30,750	-4,311	256,910	128,116
31,765	-4,399	256,680	127,912
32,780	-4,396	256,552	127,839
33,794	-4,372	256,358	127,752
34,809	-4,359	255,924	127,536
35,823	-4,478	255,866	127,391
36,838	-4,666	255,647	127,104
37,853	-4,383	255,294	127,167
38,867	-4,497	255,110	126,964
39,882	-4,378	254,974	126,989
40,896	-4,409	254,641	126,785
41,911	-4,352	254,378	126,693
42,926	-4,412	254,266	126,573
43,940	-4,513	254,015	126,348
44,955	-4,537	253,746	126,182
45,969	-4,594	253,537	126,017
46,984	-4,713	253,286	125,778
47,999	-5,052	253,046	125,352
49,013	-5,230	252,761	125,045
50,028	-5,223	252,466	124,894
51,042	-5,278	252,322	124,764
52,057	-5,197	252,017	124,673
53,071	-5,139	251,891	124,650
54,086	-5,226	251,675	124,455
55,101	-5,042	251,598	124,566
56,115	-4,822	251,452	124,672
57,130	-4,353	251,359	125,020
58,144	-3,968	251,210	125,267
59,159	-4,068	250,860	124,995
60,174	-4,070	250,764	124,935
61,188	-4,219	250,507	124,668
62,203	-4,268	250,296	124,509
63,217	-4,415	250,186	124,317
64,232	-4,427	249,932	124,170
65,247	-4,264	249,810	124,237
66,261	-4,236	249,434	124,064
67,276	-4,700	249,296	123,586
68,290	-4,784	249,002	123,358
69,305	-4,830	248,773	123,194
70,320	-4,909	248,630	123,045
71,334	-4,476	248,355	123,267
72,349	-4,348	248,381	123,378
73,363	-4,151	248,196	123,443
74,378	-4,027	247,785	123,333
75,393	-4,163	247,730	123,179
76,407	-4,442	247,617	122,875
77,422	-4,167	247,384	122,982
78,436	-4,151	247,070	122,828
79,451	-4,315	246,906	122,597
80,466	-4,173	246,454	122,482
81,480	-4,489	246,262	122,108
82,495	-4,629	246,272	121,984
83,509	-4,640	246,070	121,864
84,524	-4,510	245,801	121,830
85,539	-4,785	245,741	121,557
86,553	-4,834	245,384	121,328
87,568	-4,617	245,316	121,466
88,582	-4,465	244,896	121,375
89,597	-4,669	244,984	121,237
90,611	-4,459	244,698	121,261
91,626	-4,305	244,755	121,407
92,641	-4,380	244,521	121,217
93,655	-4,370	244,292	121,102
94,670	-4,565	244,088	120,827
95,684	-4,419	243,856	120,823
96,699	-4,417	243,686	120,730
97,714	-4,511	243,456	120,527
98,728	-4,533	243,239	120,390
99,743	-4,846	243,070	120,035
100,757	-4,664	242,779	120,032
101,772	-4,797	242,766	119,904
102,787	-4,759	242,535	119,811
103,801	-4,708	242,294	119,724
104,816	-4,455	242,339	119,945
105,830	-4,456	242,154	119,842
106,845	-4,388	242,017	119,820
107,860	-4,424	241,693	119,619
108,874	-4,325	241,545	119,616
109,889	-4,488	241,289	119,345
110,903	-4,490	241,347	119,361
111,918	-4,515	241,108	119,212
112,933	-4,407	240,804	119,140
113,947	-4,412	240,512	118,980
114,962	-4,300	240,398	119,005
115,976	-4,323	240,370	118,963
116,991	-4,320	240,112	118,826
118,006	-4,499	239,927	118,577
119,020	-4,304	239,796	118,662
120,035	-4,349	239,706	118,570
121,049	-4,227	239,448	118,532
122,064	-4,346	239,354	118,377
123,079	-4,364	239,213	118,282
124,093	-4,468	238,826	117,996
125,108	-4,678	238,778	117,790
126,122	-4,762	238,441	117,544
127,137	-4,726	238,198	117,444
128,151	-4,770	238,193	117,395
129,166	-4,641	237,957	117,373
130,181	-4,773	237,884	117,219
131,195	-4,699	237,529	117,094
132,210	-4,423	237,367	117,227
133,224	-4,446	237,400	117,214
134,239	-4,330	237,165	117,182
135,254	-4,247	236,846	117,081
136,268	-4,456	236,881	116,919
137,283	-4,691	236,434	116,498
138,297	-4,983	236,313	116,192
139,312	-4,541	235,972	116,371
140,327	-4,676	236,258	116,393
141,341	-4,212	236,215	116,735
142,356	-4,141	236,033	116,691
143,370	-4,010	235,839	116,690
144,385	-3,891	235,500	116,608
145,400	-3,973	235,419	116,492
146,414	-3,960	235,261	116,413
147,429	-3,943	235,039	116,307
148,443	-4,216	234,831	115,975
149,458	-4,204	234,737	115,928
150,473	-4,043	234,509	115,933
151,487	-4,048	234,452	115,891
152,502	-4,181	234,233	115,666
153,516	-4,031	234,053	115,687
154,531	-4,118	233,815	115,489
155,546	-4,168	233,622	115,344
156,560	-4,133	233,467	115,285
157,575	-4,249	233,254	115,077
158,589	-4,318	233,161	114,967
159,604	-3,894	232,982	115,205
160,619	-3,937	232,867	115,103
161,633	-3,913	232,694	115,026
162,648	-4,024	232,536	114,851
163,662	-4,027	232,487	114,813
164,677	-4,032	232,254	114,684
165,692	-4,083	232,135	114,575
166,706	-3,958	232,013	114,603
167,721	-3,916	231,846	114,544
168,735	-4,069	231,674	114,328
169,750	-3,882	231,494	114,376
170,764	-4,087	231,389	114,153
171,779	-4,042	231,367	114,167
172,794	-3,897	231,063	114,121
173,808	-4,264	231,003	113,792
174,823	-4,786	230,591	113,170
175,837	-4,817	230,430	113,057
176,852	-4,210	230,235	113,426
177,867	-4,160	230,382	113,528
178,881	-4,061	230,157	113,484
179,896	-3,717	230,021	113,676
180,910	-3,845	229,855	113,483
181,925	-4,084	229,731	113,226
182,940	-3,874	229,508	113,269
183,954	-3,771	229,352	113,262
184,969	-3,966	229,411	113,130
185,983	-3,836	229,162	113,098
186,998	-3,873	228,958	112,959
188,013	-3,967	228,928	112,860
189,027	-3,896	228,681	112,783
190,042	-3,908	228,635	112,742
191,056	-3,763	228,304	112,680
192,071	-3,800	228,261	112,621
193,086	-3,962	227,989	112,351
194,100	-3,758	227,913	112,461
195,115	-4,171	227,448	111,903
196,129	-4,646	227,354	111,481
197,144	-1,258	228,418	114,617
198,159	2,964	229,428	118,391
199,173	4,088	229,829	119,460
200,188	4,234	229,486	119,384
201,202	4,281	229,370	119,349
202,217	4,214	229,542	119,376
203,232	4,425	229,428	119,469
204,246	4,670	229,178	119,518
205,261	4,616	229,003	119,375
206,275	4,871	228,916	119,516
207,290	4,694	228,798	119,307
208,304	4,802	228,569	119,260
209,319	4,841	228,425	119,204
210,334	4,685	228,373	119,046
211,348	4,558	227,992	118,739
212,363	4,153	227,666	118,248
213,377	3,865	227,507	117,934
214,392	3,939	227,353	117,900
215,407	4,106	227,305	117,993
216,421	4,169	227,082	117,915
217,436	4,050	226,919	117,729
218,450	3,827	226,665	117,417
219,465	3,919	226,428	117,353
220,480	3,692	226,443	117,177
221,494	3,719	226,299	117,113
222,509	3,942	226,193	117,217
223,523	3,955	226,135	117,187
224,538	3,709	225,941	116,888
225,553	3,802	225,772	116,861
226,567	4,206	225,709	117,126
227,582	4,189	225,745	117,120
228,596	4,280	225,508	117,057
229,611	4,096	225,262	116,779
230,626	3,963	225,018	116,542
231,640	3,898	224,964	116,454
232,655	4,236	224,855	116,643
233,669	4,638	224,741	116,877
234,684	4,670	224,718	116,879
235,699	4,390	224,392	116,488
236,713	4,254	224,131	116,239
237,728	4,158	223,957	116,066
238,742	3,941	223,887	115,856
239,757	3,932	223,527	115,653
240,772	4,068	223,482	115,722
241,786	4,049	223,497	115,705
242,801	4,212	223,385	115,759
243,815	4,434	223,223	115,831
244,830	4,375	223,059	115,691
245,844	4,076	222,818	115,333
246,859	3,988	222,684	115,187
247,874	4,051	222,751	115,258
248,888	4,155	222,597	115,246
249,903	4,074	222,321	115,032
250,917	3,894	222,054	114,749
251,932	4,049	221,983	114,819
252,947	4,092	221,731	114,710
253,961	3,867	221,652	114,491
254,976	4,032	221,462	114,505
255,990	4,094	221,527	114,575
257,005	4,096	221,355	114,478
258,020	4,051	221,104	114,304
259,034	4,464	221,051	114,573
260,049	4,281	220,835	114,315
261,063	4,192	220,700	114,169
262,078	4,437	220,679	114,329
263,093	4,469	220,607	114,306
264,107	4,365	220,401	114,112
265,122	4,296	220,139	113,915
266,136	4,533	220,211	114,117
267,151	4,456	219,954	113,917
268,166	4,061	219,695	113,482
269,180	3,826	219,501	113,198
270,195	3,898	219,511	113,246
271,209	3,837	219,249	113,056
272,224	4,022	219,204	113,159
273,239	3,884	219,032	112,959
274,253	4,123	218,822	113,016
275,268	3,807	218,740	112,732
276,282	3,834	218,399	112,566
277,297	3,730	218,379	112,469
278,312	3,932	218,227	112,529
279,326	3,947	218,201	112,516
280,341	4,134	217,942	112,509
281,355	4,277	217,740	112,499
282,370	3,990	217,632	112,224
283,384	3,657	217,528	111,917
284,399	3,736	217,263	111,828
285,414	3,894	217,148	111,874
286,428	3,986	217,104	111,909
287,443	4,355	216,992	112,110
288,457	4,191	216,905	111,935
289,472	4,251	216,637	111,831
290,487	3,648	216,507	111,316
291,501	3,543	216,271	111,109
292,516	3,753	216,262	111,246
293,530	3,998	216,037	111,298
294,545	3,598	215,903	110,930
295,560	3,826	215,808	111,036
296,574	3,963	215,671	111,055
297,589	4,135	215,619	111,142
298,603	3,979	215,515	110,966
299,618	4,067	215,328	110,923
300,633	4,079	215,222	110,867
301,647	4,340	215,129	110,997
302,662	4,555	215,155	111,155
303,676	4,333	214,848	110,827
304,691	4,352	214,746	110,778
305,706	4,101	214,706	110,568
306,720	4,181	214,446	110,481
307,735	4,018	214,182	110,218
308,749	3,758	214,117	109,989
309,764	4,125	213,914	110,137
310,779	4,365	213,930	110,308
311,793	4,155	213,768	110,064
312,808	4,295	213,643	110,090
313,822	4,279	213,371	109,928
314,837	3,819	213,260	109,534
315,852	3,721	213,215	109,431
316,866	3,907	213,066	109,477
317,881	4,234	213,023	109,678
318,895	4,254	212,871	109,604
319,910	4,128	212,456	109,291
320,925	3,568	212,334	108,822
321,939	3,385	212,207	108,618
322,954	3,832	211,993	108,815
323,968	4,153	212,132	109,103
324,983	4,371	212,091	109,227
325,997	4,183	212,026	109,051
327,012	3,984	211,702	108,734
328,027	4,107	211,593	108,755
329,041	4,460	211,484	108,938
330,056	4,695	211,356	109,029
331,070	3,922	211,256	108,422
332,085	3,851	210,997	108,230
333,100	3,901	210,886	108,198
334,114	4,175	210,560	108,213
335,129	3,999	210,523	108,062
336,143	3,745	210,429	107,826
337,158	3,777	210,278	107,761
338,173	3,783	210,032	107,630
339,187	3,562	209,910	107,403
340,202	3,540	209,842	107,342
341,216	3,519	209,580	107,185
342,231	3,945	209,528	107,446
343,246	3,959	209,241	107,299
344,260	4,000	209,260	107,328
345,275	3,740	209,277	107,146
346,289	3,959	209,121	107,209
347,304	4,047	209,004	107,201
348,319	4,040	208,969	107,168
349,333	3,824	208,817	106,931
350,348	4,073	208,610	106,988
351,362	4,161	208,429	106,947
352,377	4,232	208,374	106,958
353,392	3,990	208,335	106,761
354,406	3,881	208,135	106,573
355,421	192,728	1347,513	1432,247
356,435	153,708	1486,437	1432,366
