DTS Sentinel unit serial number:	SN410029Multiplexer serial number:	ORYXHardware model number:	OX2-SRSoftware version number:	ORYX F/W v4,00 Oryx Data Collector v3.7.2.0data status	okinstallation	B6 Nyhavnadifferential loss correction	single-endedforward channel	channel 2reverse channel	N/Adate	2023/12/10time	06:50:08forward acquisition time	300,00reverse acquisition time	0,00gamma	499,1914k internal	0,3124k external	0,3124temperature offset calibration	1,0000default loss term (dB/km)	0,3820temperature slope calibration	1,0000multiplexer offset coefficient	1,0000multiplexer slope coefficient	1,0000fibre end	0,00T internal ref (°C)	22,62T ext. ref 1 (°C)	6,43T ext. ref 2 (°C)	6,41length (m)	temperature (°C)	Stokes	anti-Stokes-744,400	-200,000	0,002	-0,141
-743,385	205,770	-0,129	0,149
-742,371	195,668	0,050	0,056
-741,356	-81,860	-0,247	0,060
-740,342	-21,785	0,093	-0,042
-739,327	-28,259	-0,289	0,124
-738,312	86,518	0,046	-0,037
-737,298	-97,503	-0,217	0,042
-736,283	715,737	0,010	-0,019
-735,269	66,700	-0,278	0,210
-734,254	-8,176	0,083	-0,041
-733,239	-148,400	-0,331	-0,020
-732,225	-85,517	0,029	0,007
-731,210	258,006	-0,051	-0,065
-730,196	-29,358	-0,062	-0,026
-729,181	-75,279	0,113	0,030
-728,167	-10,233	-0,060	-0,030
-727,152	-31,450	0,074	-0,031
-726,137	-200,000	-0,001	-0,104
-725,123	-193,121	-0,190	0,001
-724,108	560,509	-0,047	0,084
-723,094	800,000	0,066	-0,145
-722,079	-200,000	-0,049	-0,177
-721,064	-200,000	0,044	-0,148
-720,050	8,529	0,045	0,025
-719,035	-200,000	-0,002	-0,109
-718,021	-18,770	0,064	-0,030
-717,006	-200,000	-0,027	0,123
-715,991	-29,311	-0,114	0,048
-714,977	-28,305	-0,194	-0,083
-713,962	-200,000	0,002	-0,053
-712,948	17,325	-0,046	-0,027
-711,933	388,547	0,054	-0,083
-710,918	506,497	0,017	-0,030
-709,904	-106,271	-0,119	-0,020
-708,889	800,000	0,035	-0,088
-707,875	203,563	-0,128	-0,147
-706,860	-4,865	0,031	-0,016
-705,845	800,000	0,062	-0,141
-704,831	-200,000	0,013	0,054
-703,816	-96,487	0,048	-0,009
-702,802	-44,979	-0,090	0,033
-701,787	7,770	-0,052	0,029
-700,772	-200,000	-0,032	-0,152
-699,758	724,262	-0,024	-0,048
-698,743	800,000	-0,042	-0,102
-697,729	766,395	0,059	-0,121
-696,714	26,103	0,057	0,035
-695,699	95,931	-0,021	0,018
-694,685	33,898	-0,088	-0,057
-693,670	-200,000	-0,027	-0,134
-692,656	-137,456	0,046	0,004
-691,641	-58,850	0,042	0,014
-690,627	-69,760	0,115	0,033
-689,612	149,656	-0,083	0,084
-688,597	42,113	-0,068	0,046
-687,583	800,000	-0,062	-0,133
-686,568	672,781	-0,066	-0,127
-685,554	25,627	-0,057	-0,035
-684,539	181,869	-0,047	-0,051
-683,524	-87,798	-0,092	-0,020
-682,510	-200,000	0,026	0,137
-681,495	-200,000	0,003	0,031
-680,481	44,136	-0,049	0,033
-679,466	187,156	-0,027	0,030
-678,451	-200,000	0,010	0,059
-677,437	174,722	-0,034	-0,037
-676,422	-165,752	0,112	-0,004
-675,408	-200,000	-0,009	0,051
-674,393	552,060	0,071	-0,128
-673,378	139,290	0,082	-0,080
-672,364	118,793	-0,135	-0,124
-671,349	800,000	0,082	-0,175
-670,335	-60,617	-0,077	0,024
-669,320	800,000	0,034	-0,077
-668,305	-116,126	-0,127	0,017
-667,291	-200,000	-0,006	-0,021
-666,276	-36,719	0,003	0,001
-665,262	573,935	-0,009	0,017
-664,247	800,000	-0,020	0,048
-663,232	800,000	0,040	-0,112
-662,218	2,653	0,076	0,041
-661,203	-200,000	0,002	0,070
-660,189	25,463	-0,081	-0,050
-659,174	81,535	0,020	0,016
-658,159	579,414	-0,088	-0,160
-657,145	-10,276	-0,056	-0,028
-656,130	-200,000	-0,035	-0,135
-655,116	-137,317	0,086	-0,007
-654,101	110,765	0,037	-0,033
-653,086	800,000	-0,022	-0,064
-652,072	800,000	0,032	0,066
-651,057	56,666	-0,097	-0,070
-650,043	655,844	-0,035	-0,067
-649,028	23,589	0,117	0,072
-648,014	-151,068	-0,087	0,005
-646,999	521,991	-0,061	-0,107
-645,984	-200,000	-0,016	0,122
-644,970	-22,379	-0,131	0,059
-643,955	122,453	0,011	-0,010
-642,941	145,047	-0,046	-0,045
-641,926	93,511	0,056	0,047
-640,911	800,000	-0,039	-0,090
-639,897	-101,239	0,065	0,012
-638,882	-200,000	-0,002	-0,015
-637,868	-92,296	-0,121	-0,025
-636,853	89,517	0,072	-0,059
-635,838	-106,983	-0,060	0,010
-634,824	-200,000	0,002	-0,032
-633,809	-200,000	-0,020	0,073
-632,795	312,095	0,051	-0,072
-631,780	70,426	-0,035	0,027
-630,765	81,723	0,031	0,025
-629,751	31,178	0,116	-0,074
-628,736	-170,500	-0,084	0,002
-627,722	220,824	-0,029	0,035
-626,707	-157,470	-0,082	-0,004
-625,692	800,000	-0,032	0,086
-624,678	-52,579	0,095	-0,032
-623,663	-96,435	-0,089	-0,017
-622,649	689,348	-0,047	0,091
-621,634	-200,000	0,002	-0,060
-620,619	217,353	0,074	-0,087
-619,605	753,582	0,010	0,021
-618,590	54,203	0,058	0,041
-617,576	-27,780	-0,060	0,026
-616,561	-200,000	0,017	0,069
-615,546	44,295	-0,082	-0,055
-614,532	523,590	-0,056	-0,097
-613,517	492,694	0,054	0,092
-612,503	-103,284	0,119	0,021
-611,488	-102,232	-0,094	0,017
-610,474	190,838	-0,061	-0,068
-609,459	81,692	-0,054	-0,043
-608,444	-21,987	0,062	-0,028
-607,430	800,000	0,024	-0,066
-606,415	-179,632	0,065	-0,001
-605,401	-85,655	-0,006	0,001
-604,386	307,741	0,038	0,053
-603,371	800,000	-0,012	-0,030
-602,357	-200,000	0,015	0,069
-601,342	-200,000	0,007	0,026
-600,328	-111,000	-0,076	0,011
-599,313	-91,573	0,146	-0,031
-598,298	-200,000	-0,009	-0,041
-597,284	-200,000	-0,011	0,060
-596,269	-17,010	-0,075	-0,035
-595,255	-200,000	0,014	-0,050
-594,240	433,680	-0,080	-0,130
-593,225	731,770	-0,054	0,107
-592,211	-106,393	-0,023	0,004
-591,196	-200,000	-0,022	-0,103
-590,182	-200,000	-0,028	0,132
-589,167	-92,735	0,184	0,038
-588,152	-56,880	-0,102	-0,033
-587,138	60,410	-0,054	0,040
-586,123	-200,000	-0,009	-0,122
-585,109	189,936	-0,056	-0,062
-584,094	-130,934	0,067	0,007
-583,079	-200,000	-0,026	0,169
-582,065	466,710	0,097	0,161
-581,050	400,723	-0,026	-0,041
-580,036	492,913	-0,009	-0,015
-579,021	1,553	-0,082	-0,043
-578,006	388,334	-0,031	-0,048
-576,992	-200,000	-0,009	-0,037
-575,977	115,095	-0,066	-0,060
-574,963	800,000	-0,051	-0,131
-573,948	-200,000	-0,006	0,096
-572,934	79,013	0,054	-0,043
-571,919	800,000	0,010	-0,030
-570,904	-200,000	0,015	-0,110
-569,890	66,212	-0,042	-0,031
-568,875	32,372	0,122	0,078
-567,861	85,004	0,066	0,054
-566,846	-5,316	-0,082	-0,042
-565,831	98,736	-0,130	-0,111
-564,817	271,261	0,051	0,066
-563,802	113,213	-0,117	0,105
-562,788	-77,163	-0,072	-0,018
-561,773	-200,000	0,010	0,086
-560,758	40,471	-0,047	0,031
-559,744	163,869	0,124	0,129
-558,729	348,852	-0,034	-0,050
-557,715	-61,029	-0,052	-0,016
-556,700	-39,408	0,111	-0,043
-555,685	189,539	-0,080	-0,089
-554,671	-185,648	-0,083	0,001
-553,656	-46,612	0,140	0,050
-552,642	-11,250	0,013	0,006
-551,627	-200,000	-0,005	-0,030
-550,612	104,122	-0,062	-0,054
-549,598	800,000	-0,025	-0,058
-548,583	85,319	-0,150	0,122
-547,569	-41,221	0,092	-0,035
-546,554	406,892	-0,065	0,102
-545,539	285,709	0,043	-0,057
-544,525	-13,834	0,046	0,022
-543,510	-48,181	-0,208	-0,074
-542,496	138,640	0,062	-0,060
-541,481	298,764	-0,052	0,071
-540,466	800,000	0,051	0,117
-539,452	800,000	-0,051	0,139
-538,437	14,622	-0,052	0,030
-537,423	-200,000	0,011	-0,086
-536,408	-200,000	-0,006	-0,037
-535,393	-55,340	-0,130	0,043
-534,379	44,581	0,050	0,034
-533,364	160,168	0,103	0,106
-532,350	-145,313	0,139	-0,009
-531,335	-54,394	-0,070	0,023
-530,321	-55,769	0,101	0,033
-529,306	-200,000	-0,015	-0,097
-528,291	43,201	-0,032	-0,021
-527,277	46,402	-0,049	-0,034
-526,262	-200,000	-0,009	0,040
-525,248	800,000	0,009	-0,025
-524,233	57,063	-0,026	-0,019
-523,218	-110,597	-0,093	0,014
-522,204	67,857	0,056	-0,042
-521,189	-30,897	-0,054	-0,022
-520,175	800,000	0,074	-0,165
-519,160	-200,000	0,011	0,066
-518,145	-200,000	0,009	-0,046
-517,131	800,000	-0,034	0,080
-516,116	68,771	0,099	0,075
-515,102	-200,000	-0,006	0,093
-514,087	-200,000	0,006	0,025
-513,072	-51,685	-0,168	-0,058
-512,058	33,614	-0,075	0,048
-511,043	-137,214	-0,148	-0,012
-510,029	10,379	0,113	-0,064
-509,014	800,000	0,044	-0,121
-507,999	-70,837	0,061	-0,017
-506,985	642,464	0,022	-0,041
-505,970	-200,000	-0,020	0,095
-504,956	201,286	-0,085	0,097
-503,941	-200,000	-0,028	0,190
-502,926	-200,000	0,001	0,009
-501,912	-75,237	-0,056	0,015
-500,897	138,717	0,055	0,053
-499,883	-119,222	0,074	-0,009
-498,868	-200,000	0,006	-0,150
-497,853	35,206	-0,082	-0,053
-496,839	310,873	0,024	-0,033
-495,824	-97,458	-0,146	0,028
-494,810	800,000	-0,045	0,124
-493,795	174,625	0,044	0,048
-492,781	-200,000	0,003	-0,053
-491,766	-82,061	-0,055	-0,013
-490,751	156,648	-0,077	-0,079
-489,737	-60,403	0,039	0,012
-488,722	312,228	-0,055	0,077
-487,708	228,582	-0,060	0,072
-486,693	195,851	0,052	0,059
-485,678	54,050	-0,036	0,026
-484,664	427,382	0,031	0,050
-483,649	-184,402	0,077	0,001
-482,635	99,971	0,050	0,043
-481,620	18,462	0,013	0,008
-480,605	-200,000	0,009	0,081
-479,591	-45,859	0,100	0,036
-478,576	127,842	-0,025	0,024
-477,562	-200,000	-0,009	-0,034
-476,547	-52,370	0,058	0,020
-475,532	-200,000	-0,030	-0,102
-474,518	277,203	-0,073	0,095
-473,503	-60,756	0,107	0,033
-472,489	-24,912	-0,018	0,008
-471,474	59,197	-0,015	-0,011
-470,459	800,000	-0,023	-0,048
-469,445	-15,384	-0,063	-0,030
-468,430	-200,000	-0,002	-0,128
-467,416	800,000	0,004	-0,010
-466,401	800,000	-0,069	0,172
-465,386	189,761	0,043	-0,048
-464,372	213,458	-0,038	-0,045
-463,357	23,283	-0,014	0,008
-462,343	-200,000	0,001	-0,045
-461,328	-200,000	-0,000	-0,079
-460,313	-85,113	0,074	-0,017
-459,299	22,518	0,054	0,032
-458,284	281,099	-0,054	0,072
-457,270	-200,000	-0,022	-0,123
-456,255	-200,000	-0,021	-0,068
-455,241	418,644	-0,077	-0,121
-454,226	-200,000	-0,028	-0,100
-453,211	697,202	0,068	0,133
-452,197	135,433	-0,028	0,027
-451,182	-22,064	0,088	0,039
-450,168	641,613	0,012	-0,022
-449,153	-130,872	-0,210	0,020
-448,138	149,338	-0,093	-0,093
-447,124	428,687	-0,057	-0,092
-446,109	-121,014	-0,070	0,009
-445,095	82,105	-0,079	-0,063
-444,080	758,968	0,036	-0,072
-443,065	800,000	-0,018	-0,040
-442,051	800,000	-0,025	-0,050
-441,036	294,043	-0,075	0,101
-440,022	-36,250	-0,034	0,013
-439,007	-200,000	-0,006	0,076
-437,992	-65,462	0,069	0,020
-436,978	-200,000	-0,015	0,118
-435,963	-98,102	-0,057	-0,011
-434,949	282,389	0,034	0,045
-433,934	-130,764	-0,077	-0,007
-432,919	308,024	-0,041	-0,057
-431,905	-119,250	0,083	-0,011
-430,890	-68,589	-0,079	0,022
-429,876	-200,000	0,004	0,043
-428,861	-200,000	0,007	0,174
-427,846	800,000	-0,012	0,026
-426,832	483,083	-0,036	-0,061
-425,817	-200,000	0,004	-0,034
-424,803	2,139	-0,007	0,003
-423,788	-200,000	0,000	-0,041
-422,773	-93,906	-0,060	0,012
-421,759	-151,088	0,100	0,005
-420,744	415,145	-0,052	0,082
-419,730	66,802	-0,075	-0,056
-418,715	439,728	-0,054	-0,087
-417,701	-200,000	0,006	-0,053
-416,686	116,347	0,140	-0,126
-415,671	-200,000	-0,005	-0,112
-414,657	-200,000	0,027	0,111
-413,642	184,137	0,050	0,054
-412,628	341,989	-0,014	0,021
-411,613	-134,384	0,134	0,012
-410,598	556,333	-0,078	-0,139
-409,584	-200,000	0,013	-0,045
-408,569	-60,132	0,139	0,043
-407,555	37,915	0,084	0,055
-406,540	-148,841	-0,102	0,006
-405,525	-200,000	0,009	0,104
-404,511	-200,000	-0,032	-0,155
-403,496	800,000	-0,021	-0,053
-402,482	47,929	-0,039	-0,027
-401,467	198,030	-0,023	-0,025
-400,452	269,676	0,005	-0,006
-399,438	148,242	-0,055	0,055
-398,423	-200,000	-0,021	0,087
-397,409	92,026	0,023	0,019
-396,394	43,997	-0,144	0,097
-395,379	800,000	0,092	0,243
-394,365	800,000	0,055	-0,122
-393,350	180,028	0,064	-0,069
-392,336	186,441	0,064	0,070
-391,321	-15,022	-0,117	-0,055
-390,306	-84,861	-0,120	-0,027
-389,292	66,763	-0,047	-0,035
-388,277	249,011	-0,080	-0,099
-387,263	-200,000	0,045	0,178
-386,248	-79,708	-0,074	0,018
-385,233	800,000	0,002	-0,005
-384,219	-42,180	-0,070	-0,026
-383,204	-200,000	0,027	-0,130
-382,190	-200,000	-0,001	0,092
-381,175	-129,295	0,139	-0,014
-380,160	-139,834	-0,029	0,002
-379,146	-91,951	0,163	-0,034
-378,131	-159,227	0,044	-0,002
-377,117	57,440	-0,027	-0,020
-376,102	301,111	-0,054	-0,074
-375,088	800,000	0,036	-0,097
-374,073	74,886	0,071	-0,054
-373,058	800,000	0,034	0,089
-372,044	37,901	0,096	0,062
-371,029	-11,298	0,017	0,008
-370,015	-7,266	-0,064	-0,032
-369,000	-200,000	0,076	-0,000
-367,985	115,720	0,088	-0,079
-366,971	304,187	0,027	0,037
-365,956	201,498	0,136	-0,154
-364,942	-101,610	0,191	-0,034
-363,927	-200,000	0,016	0,063
-362,912	-200,000	-0,001	0,026
-361,898	-200,000	0,015	-0,130
-360,883	-200,000	-0,002	-0,019
-359,869	-200,000	-0,021	-0,083
-358,854	-198,682	0,125	0,000
-357,839	-23,979	-0,005	-0,002
-356,825	45,304	0,124	0,084
-355,810	-200,000	0,011	0,073
-354,796	406,217	-0,038	0,060
-353,781	-200,000	-0,012	-0,082
-352,766	-200,000	0,029	-0,152
-351,752	-98,541	-0,219	0,041
-350,737	348,901	0,032	0,047
-349,723	11,417	0,128	0,072
-348,708	-163,896	0,101	-0,003
-347,693	-200,000	0,025	0,099
-346,679	-98,472	0,092	0,017
-345,664	-57,736	-0,046	-0,015
-344,650	173,130	0,034	-0,036
-343,635	-14,727	0,097	-0,045
-342,620	-96,115	0,056	0,011
-341,606	225,312	-0,072	-0,086
-340,591	638,674	-0,024	0,044
-339,577	-30,129	-0,032	-0,013
-338,562	73,075	-0,035	0,027
-337,548	175,078	0,085	-0,090
-336,533	-200,000	-0,004	-0,029
-335,518	211,740	0,067	-0,078
-334,504	78,876	0,049	0,038
-333,489	-115,209	-0,044	0,006
-332,475	78,683	-0,129	-0,101
-331,460	172,126	0,062	-0,065
-330,445	-43,553	-0,096	0,035
-329,431	-200,000	0,012	0,087
-328,416	92,286	0,065	0,054
-327,402	-200,000	0,015	0,084
-326,387	-135,138	0,006	0,000
-325,372	70,260	-0,019	-0,015
-324,358	-11,334	0,009	-0,004
-323,343	117,361	0,026	-0,023
-322,329	-80,371	-0,025	-0,006
-321,314	-18,115	0,135	0,062
-320,299	87,782	0,060	0,049
-319,285	-41,805	0,039	-0,015
-318,270	130,609	-0,044	-0,042
-317,256	-200,000	-0,016	0,107
-316,241	90,120	0,109	0,089
-315,226	19,201	0,032	0,018
-314,212	13,774	0,084	0,047
-313,197	-200,000	0,019	0,138
-312,183	-200,000	0,015	-0,080
-311,168	219,467	-0,083	0,098
-310,153	126,835	-0,028	-0,026
-309,139	110,212	-0,024	-0,021
-308,124	-31,960	0,148	-0,061
-307,110	-31,667	0,156	0,064
-306,095	236,476	0,118	-0,143
-305,080	46,942	-0,143	0,097
-304,066	-99,141	0,059	0,011
-303,051	-200,000	0,007	0,128
-302,037	-10,985	-0,074	0,036
-301,022	101,280	0,030	0,025
-300,008	-200,000	-0,006	0,074
-298,993	-200,000	-0,015	-0,067
-297,978	301,602	-0,025	-0,035
-296,964	-161,023	-0,190	0,007
-295,949	62,480	-0,075	-0,055
-294,935	-200,000	0,044	0,000
-293,920	-200,000	0,048	-0,212
-292,905	-53,824	0,163	-0,054
-291,891	427,508	-0,110	0,174
-290,876	-62,631	0,104	-0,031
-289,862	301,912	0,023	-0,031
-288,847	-200,000	-0,012	0,072
-287,832	135,804	0,033	0,032
-286,818	800,000	0,044	-0,114
-285,803	-65,175	-0,043	0,013
-284,789	800,000	-0,041	0,116
-283,774	66,356	-0,068	0,051
-282,759	-200,000	0,005	0,030
-281,745	80,953	0,095	0,075
-280,730	-70,655	-0,032	-0,009
-279,716	-61,087	0,058	-0,018
-278,701	-142,019	0,218	-0,016
-277,686	800,000	0,017	-0,052
-276,672	188,888	0,121	0,133
-275,657	-200,000	0,010	0,059
-274,643	-106,577	-0,061	0,010
-273,628	-97,177	-0,144	-0,027
-272,613	-200,000	0,018	0,109
-271,599	94,774	0,102	0,084
-270,584	133,649	0,080	-0,076
-269,570	800,000	-0,055	0,127
-268,555	86,814	-0,010	-0,008
-267,540	-200,000	0,004	-0,039
-266,526	636,287	0,025	-0,047
-265,511	-200,000	0,019	-0,082
-264,497	-151,400	-0,050	-0,003
-263,482	55,522	0,080	0,057
-262,467	-42,086	0,160	0,060
-261,453	-59,303	-0,059	0,018
-260,438	-7,625	-0,153	-0,075
-259,424	-81,334	-0,085	0,020
-258,409	-10,512	-0,029	0,014
-257,395	13,376	-0,051	-0,029
-256,380	28,822	0,093	-0,058
-255,365	800,000	-0,021	0,057
-254,351	800,000	0,044	0,097
-253,336	-200,000	-0,001	-0,029
-252,322	25,410	-0,120	0,072
-251,307	-200,000	-0,012	-0,040
-250,292	800,000	-0,040	-0,100
-249,278	692,507	0,037	0,072
-248,263	167,446	-0,053	0,055
-247,249	-71,856	0,061	-0,016
-246,234	34,898	0,160	-0,102
-245,219	204,588	-0,078	-0,088
-244,205	800,000	0,024	-0,071
-243,190	-200,000	0,022	0,108
-242,176	-139,238	-0,066	0,005
-241,161	-180,441	-0,106	0,002
-240,146	375,676	0,087	0,130
-239,132	391,390	0,040	0,062
-238,117	-200,000	-0,002	-0,031
-237,103	-70,403	0,047	0,013
-236,088	-0,951	0,085	-0,044
-235,073	367,578	-0,022	0,033
-234,059	480,830	-0,036	0,061
-233,044	-200,000	-0,006	0,080
-232,030	800,000	0,061	-0,152
-231,015	-200,000	-0,010	-0,292
-230,000	-36,828	0,049	-0,019
-228,986	-104,210	0,119	0,020
-227,971	106,107	0,034	-0,029
-226,957	-7,340	0,199	0,098
-225,942	64,263	0,045	0,033
-224,927	467,663	0,054	0,089
-223,913	-99,914	-0,059	-0,011
-222,898	-78,498	-0,054	0,013
-221,884	800,000	0,055	0,133
-220,869	-200,000	-0,037	0,119
-219,855	-200,000	0,020	0,156
-218,840	704,753	0,015	-0,030
-217,825	18,901	-0,066	0,038
-216,811	94,950	0,051	-0,042
-215,796	-200,000	0,016	-0,124
-214,782	360,099	-0,024	0,035
-213,767	-196,302	0,140	0,001
-212,752	-80,005	-0,074	0,018
-211,738	238,205	-0,031	-0,038
-210,723	-161,918	-0,055	0,002
-209,709	22,312	0,096	-0,057
-208,694	10,752	-0,173	-0,096
-207,679	-200,000	0,010	-0,061
-206,665	-200,000	0,009	0,078
-205,650	-86,778	-0,111	-0,025
-204,636	51,676	0,080	0,055
-203,621	242,989	0,060	0,073
-202,606	-200,000	0,003	-0,013
-201,592	28,857	-0,064	-0,040
-200,577	157,820	0,052	-0,052
-199,563	-41,046	-0,120	0,045
-198,548	100,710	0,121	0,103
-197,533	-200,000	0,014	-0,072
-196,519	800,000	-0,016	0,047
-195,504	85,701	-0,043	0,034
-194,490	340,556	-0,060	-0,085
-193,475	800,000	0,045	-0,097
-192,460	-115,472	0,214	0,029
-191,446	-39,821	0,172	-0,065
-190,431	800,000	-0,011	0,035
-189,417	800,000	0,008	-0,019
-188,402	800,000	0,039	-0,108
-187,387	471,817	0,051	-0,083
-186,373	76,622	-0,050	-0,039
-185,358	9,541	-0,044	-0,024
-184,344	800,000	-0,041	-0,097
-183,329	55,830	0,064	0,045
-182,315	94,958	-0,034	-0,028
-181,300	-34,762	0,015	0,006
-180,285	216,652	-0,027	0,031
-179,271	800,000	-0,069	-0,177
-178,256	-200,000	0,015	-0,098
-177,242	529,627	0,047	0,081
-176,227	149,005	-0,044	0,044
-175,212	44,076	0,076	0,051
-174,198	-78,722	0,048	0,012
-173,183	-146,915	-0,085	-0,005
-172,169	-71,873	-0,108	-0,029
-171,154	-200,000	0,026	-0,096
-170,139	22,486	-0,070	0,041
-169,125	-200,000	0,016	0,070
-168,110	-200,000	0,027	-0,116
-167,096	586,227	-0,109	0,196
-166,081	-90,234	-0,146	0,031
-165,066	800,000	-0,073	-0,224
-164,052	18,865	-0,098	-0,057
-163,037	800,000	-0,018	-0,044
-162,023	-200,000	0,001	0,095
-161,008	179,474	-0,087	-0,093
-159,993	173,723	0,098	-0,103
-158,979	-9,503	-0,146	-0,071
-157,964	384,943	-0,032	0,049
-156,950	800,000	-0,002	-0,005
-155,935	31,128	-0,130	0,081
-154,920	63,158	0,053	0,039
-153,906	-3,278	0,065	-0,033
-152,891	800,000	0,019	0,058
-151,877	236,894	-0,065	-0,079
-150,862	-200,000	-0,011	-0,086
-149,847	-85,115	0,115	-0,026
-148,833	-58,264	0,073	-0,023
-147,818	133,444	0,099	0,093
-146,804	339,592	0,109	0,156
-145,789	-200,000	-0,010	0,096
-144,775	-200,000	0,013	0,073
-143,760	238,071	-0,067	-0,081
-142,745	67,323	-0,134	-0,099
-141,731	340,416	0,029	0,041
-140,716	-70,085	0,112	0,031
-139,702	800,000	0,039	0,093
-138,687	-200,000	-0,036	0,120
-137,672	60,295	-0,109	0,079
-136,658	-47,728	-0,072	-0,025
-135,643	62,713	0,080	0,058
-134,629	-200,000	-0,006	-0,039
-133,614	300,500	-0,074	-0,099
-132,599	406,872	0,073	0,112
-131,585	110,111	-0,075	-0,065
-130,570	-200,000	0,003	-0,025
-129,556	-200,000	0,022	0,082
-128,541	83,061	0,069	0,054
-127,526	-107,508	0,118	-0,019
-126,512	800,000	0,038	-0,082
-125,497	584,763	0,146	0,263
-124,483	401,108	0,080	-0,123
-123,468	-103,922	-0,067	0,011
-122,453	-200,000	-0,014	-0,080
-121,439	392,067	-0,051	-0,077
-120,424	800,000	-0,034	-0,098
-119,410	50,297	0,033	0,023
-118,395	282,758	-0,109	0,142
-117,380	163,126	-0,102	0,105
-116,366	-15,106	-0,082	-0,038
-115,351	800,000	-0,077	-0,158
-114,337	-200,000	0,004	0,017
-113,322	33,042	0,051	0,032
-112,307	-200,000	-0,029	-0,101
-111,293	-200,000	0,004	0,033
-110,278	-10,132	-0,121	0,058
-109,264	-200,000	0,022	0,191
-108,249	-153,412	-0,147	-0,007
-107,234	156,732	-0,049	-0,049
-106,220	475,561	-0,027	0,044
-105,205	800,000	-0,059	-0,135
-104,191	-200,000	0,007	-0,112
-103,176	44,154	0,121	0,081
-102,162	-200,000	0,020	-0,081
-101,147	-200,000	0,030	-0,115
-100,132	735,385	-0,023	-0,045
-99,118	-200,000	-0,031	-0,107
-98,103	-200,000	0,003	0,011
-97,089	134,256	-0,010	0,010
-96,074	-200,000	0,010	0,061
-95,059	90,430	0,128	-0,104
-94,045	-124,150	-0,093	0,011
-93,030	56,199	0,102	0,072
-92,016	86,397	-0,055	0,044
-91,001	800,000	0,045	0,094
-89,986	800,000	-0,032	0,073
-88,972	665,058	-0,013	0,024
-87,957	-200,000	0,013	0,108
-86,943	-8,561	-0,071	-0,035
-85,928	295,645	-0,034	-0,045
-84,913	-88,374	-0,071	-0,015
-83,899	0,644	0,097	-0,050
-82,884	650,481	-0,024	-0,046
-81,870	-21,375	0,041	-0,018
-80,855	225,098	0,139	-0,164
-79,840	125,554	-0,133	-0,122
-78,826	-200,000	-0,000	0,044
-77,811	1,995	0,131	-0,068
-76,797	152,492	0,076	-0,075
-75,782	414,441	-0,035	0,054
-74,767	11,606	0,054	0,030
-73,753	-200,000	0,028	0,091
-72,738	-60,193	0,094	-0,029
-71,724	119,743	-0,096	-0,086
-70,709	-200,000	-0,013	-0,149
-69,694	111,268	0,081	-0,071
-68,680	-3,906	0,124	0,062
-67,665	-46,288	0,103	0,037
-66,651	-200,000	-0,004	0,051
-65,636	-200,000	0,006	-0,056
-64,622	-200,000	-0,017	-0,069
-63,607	128,687	-0,010	0,009
-62,592	-200,000	0,021	0,110
-61,578	10,064	0,100	-0,055
-60,563	-200,000	0,022	0,101
-59,549	60,176	0,009	0,006
-58,534	-148,260	-1,439	-0,085
-57,519	577,045	-0,726	-1,293
-56,505	-200,000	-0,841	-4,527
-55,490	27,519	0,654	-0,398
-54,476	800,000	5,020	12,024
-53,461	-200,000	13,438	252,599
-52,446	-200,000	688,957	2268,863
-51,432	596,436	1622,974	2927,644
-50,417	120,900	1636,348	1476,390
-49,403	73,542	1290,575	979,350
-48,388	38,428	1025,161	661,389
-47,373	24,562	982,566	588,302
-46,359	23,758	972,433	579,576
-45,344	22,853	968,277	574,117
-44,330	22,823	966,670	573,043
-43,315	22,647	965,237	571,597
-42,300	22,645	964,334	571,034
-41,286	22,669	963,249	570,446
-40,271	22,609	962,530	569,804
-39,257	22,677	961,365	569,311
-38,242	22,620	960,469	568,574
-37,227	22,638	959,604	568,096
-36,213	22,616	958,819	567,540
-35,198	22,563	958,122	566,933
-34,184	22,695	957,336	566,870
-33,169	22,568	956,442	565,910
-32,154	22,653	955,432	565,564
-31,140	22,695	954,614	565,193
-30,125	22,680	953,798	564,639
-29,111	22,646	953,099	564,092
-28,096	22,642	952,364	563,623
-27,082	22,646	951,585	563,153
-26,067	22,676	950,836	562,782
-25,052	22,686	950,000	562,296
-24,038	22,677	949,451	561,921
-23,023	22,674	948,918	561,573
-22,009	22,776	948,003	561,338
-20,994	22,681	947,593	560,769
-19,979	22,676	946,962	560,355
-18,965	22,693	946,298	559,996
-17,950	22,635	945,744	559,460
-16,936	22,646	944,987	559,025
-15,921	22,568	944,415	558,416
-14,906	22,550	943,676	557,901
-13,892	22,480	943,117	557,324
-12,877	22,557	942,429	557,141
-11,863	22,539	941,756	556,663
-10,848	22,502	941,368	556,295
-9,833	22,634	940,818	556,365
-8,819	22,614	940,175	555,901
-7,804	22,595	939,398	555,359
-6,790	22,523	938,894	554,812
-5,775	22,588	938,136	554,547
-4,760	22,584	937,574	554,180
-3,746	22,520	937,184	553,723
-2,731	22,464	936,404	553,066
-1,717	22,388	935,534	552,289
-0,702	22,409	934,952	551,989
0,313	22,218	934,285	551,826
1,327	25,211	932,221	559,973
2,342	34,740	796,597	503,890
3,356	32,776	451,686	282,732
4,371	1,762	293,731	152,933
5,386	-2,914	274,522	138,499
6,400	-4,027	268,581	134,459
7,415	-4,487	266,328	132,896
8,429	-4,254	265,103	132,485
9,444	-4,066	264,231	132,209
10,459	-4,174	263,721	131,845
11,473	-4,293	263,050	131,389
12,488	-4,339	262,514	131,068
13,502	-4,270	262,038	130,881
14,517	-4,420	261,681	130,556
15,531	-4,255	261,264	130,485
16,546	-4,112	260,959	130,449
17,561	-4,335	260,420	129,968
18,575	-4,105	260,157	130,032
19,590	-4,233	259,880	129,767
20,604	-4,175	259,605	129,670
21,619	-4,284	259,130	129,324
22,634	-4,238	258,982	129,279
23,648	-4,292	258,599	129,029
24,663	-4,327	258,344	128,859
25,677	-4,262	258,143	128,805
26,692	-4,338	257,780	128,544
27,707	-4,222	257,666	128,580
28,721	-4,123	257,230	128,438
29,736	-4,406	257,148	128,135
30,750	-4,585	256,825	127,804
31,765	-4,286	256,561	127,926
32,780	-4,519	256,365	127,611
33,794	-4,477	256,119	127,514
34,809	-4,523	255,957	127,382
35,823	-4,345	255,626	127,362
36,838	-4,315	255,348	127,239
37,853	-4,476	255,242	127,033
38,867	-4,301	254,877	126,993
39,882	-4,359	254,765	126,876
40,896	-4,487	254,564	126,652
41,911	-4,205	254,228	126,720
42,926	-4,396	254,130	126,493
43,940	-4,543	253,938	126,258
44,955	-4,494	253,637	126,140
45,969	-4,614	253,450	125,931
46,984	-4,649	253,052	125,691
47,999	-4,804	252,897	125,468
49,013	-4,992	252,725	125,208
50,028	-4,980	252,426	125,060
51,042	-5,164	252,159	124,757
52,057	-5,167	251,796	124,563
53,071	-4,982	251,752	124,690
54,086	-5,119	251,598	124,485
55,101	-4,909	251,412	124,563
56,115	-4,638	251,286	124,724
57,130	-4,379	251,214	124,900
58,144	-3,963	251,129	125,206
59,159	-4,174	250,837	124,867
60,174	-4,388	250,633	124,571
61,188	-4,186	250,377	124,605
62,203	-4,421	250,199	124,304
63,217	-4,238	249,808	124,255
64,232	-4,324	249,779	124,156
65,247	-4,194	249,585	124,160
66,261	-4,192	249,223	123,971
67,276	-4,308	248,995	123,748
68,290	-4,691	248,902	123,363
69,305	-4,664	248,506	123,178
70,320	-4,704	248,379	123,071
71,334	-4,523	248,259	123,154
72,349	-4,438	248,189	123,181
73,363	-4,240	247,978	123,233
74,378	-4,314	247,900	123,122
75,393	-4,206	247,479	122,993
76,407	-4,282	247,176	122,767
77,422	-4,406	247,031	122,579
78,436	-4,349	247,159	122,679
79,451	-4,379	246,871	122,500
80,466	-4,366	246,495	122,314
81,480	-4,329	246,233	122,204
82,495	-4,662	246,132	121,862
83,509	-4,498	245,828	121,839
84,524	-4,662	245,811	121,681
85,539	-4,652	245,481	121,516
86,553	-4,751	245,280	121,322
87,568	-4,614	245,188	121,381
88,582	-4,259	244,970	121,560
89,597	-4,629	244,758	121,134
90,611	-4,448	244,619	121,206
91,626	-4,601	244,491	121,003
92,641	-4,303	244,254	121,125
93,655	-4,522	244,118	120,863
94,670	-4,340	243,887	120,890
95,684	-4,484	243,700	120,667
96,699	-4,526	243,507	120,525
97,714	-4,668	243,324	120,306
98,728	-4,658	243,198	120,241
99,743	-4,750	242,832	119,973
100,757	-4,896	242,679	119,766
101,772	-4,600	242,476	119,900
102,787	-4,592	242,328	119,823
103,801	-4,563	242,035	119,691
104,816	-4,436	242,135	119,835
105,830	-4,586	242,012	119,639
106,845	-4,260	241,727	119,757
107,860	-4,251	241,534	119,659
108,874	-4,354	241,364	119,478
109,889	-4,519	241,109	119,206
110,903	-4,356	240,915	119,233
111,918	-4,640	240,824	118,944
112,933	-4,384	240,580	119,024
113,947	-4,396	240,480	118,953
114,962	-4,355	240,332	118,903
115,976	-4,416	239,988	118,672
116,991	-4,432	239,930	118,619
118,006	-4,334	239,761	118,606
119,020	-4,438	239,664	118,463
120,035	-4,222	239,527	118,561
121,049	-4,151	239,343	118,518
122,064	-4,327	239,267	118,326
123,079	-4,584	239,044	117,995
124,093	-4,520	238,810	117,921
125,108	-4,483	238,486	117,781
126,122	-4,906	238,528	117,446
127,137	-5,062	238,182	117,139
128,151	-4,981	238,098	117,153
129,166	-4,732	237,965	117,279
130,181	-4,603	237,567	117,176
131,195	-4,581	237,367	117,086
132,210	-4,399	237,239	117,159
133,224	-4,404	237,263	117,157
134,239	-4,428	237,006	117,000
135,254	-4,390	236,866	116,951
136,268	-4,472	236,624	116,756
137,283	-4,476	236,352	116,608
138,297	-4,417	236,035	116,488
139,312	-4,722	235,856	116,144
140,327	-4,535	235,821	116,266
141,341	-4,201	235,884	116,557
142,356	-4,161	235,836	116,554
143,370	-4,049	235,550	116,493
144,385	-4,180	235,507	116,355
145,400	-4,226	235,342	116,227
146,414	-4,142	235,233	116,230
147,429	-4,133	235,027	116,125
148,443	-4,417	234,802	115,776
149,458	-4,254	234,626	115,810
150,473	-4,060	234,336	115,811
151,487	-4,183	234,253	115,661
152,502	-4,157	234,063	115,578
153,516	-4,150	233,955	115,520
154,531	-4,288	233,821	115,334
155,546	-4,121	233,554	115,325
156,560	-3,962	233,320	115,324
157,575	-4,191	233,168	115,058
158,589	-4,335	233,006	114,853
159,604	-4,167	232,829	114,888
160,619	-4,180	232,811	114,859
161,633	-4,043	232,801	114,952
162,648	-4,032	232,409	114,758
163,662	-4,101	232,326	114,652
164,677	-4,239	232,184	114,463
165,692	-3,970	231,870	114,510
166,706	-4,012	231,777	114,420
167,721	-3,865	231,587	114,432
168,735	-4,063	231,713	114,329
169,750	-3,984	231,426	114,239
170,764	-4,212	231,365	114,019
171,779	-3,911	230,973	114,052
172,794	-4,141	230,904	113,827
173,808	-4,254	230,737	113,646
174,823	-4,640	230,314	113,125
175,837	-4,662	230,210	113,047
176,852	-4,544	230,302	113,174
177,867	-3,951	230,194	113,575
178,881	-3,880	229,903	113,477
179,896	-3,922	229,814	113,390
180,910	-3,780	229,694	113,432
181,925	-3,977	229,517	113,181
182,940	-4,096	229,425	113,032
183,954	-3,760	229,098	113,122
184,969	-3,944	229,042	112,942
185,983	-3,790	228,884	112,973
186,998	-3,911	228,935	112,895
188,013	-3,789	228,740	112,883
189,027	-3,849	228,509	112,712
190,042	-4,023	228,298	112,464
191,056	-3,940	228,126	112,433
192,071	-3,877	227,958	112,389
193,086	-4,038	227,881	112,216
194,100	-3,823	227,743	112,304
195,115	-4,320	227,371	111,728
196,129	-4,564	227,146	111,419
197,144	-2,247	227,784	113,512
198,159	1,512	228,873	116,957
199,173	4,142	229,438	119,274
200,188	4,148	229,657	119,382
201,202	4,318	229,416	119,378
202,217	4,335	229,240	119,288
203,232	4,470	228,997	119,256
204,246	4,653	229,155	119,469
205,261	4,746	228,918	119,406
206,275	4,823	228,740	119,362
207,290	4,762	228,600	119,231
208,304	4,819	228,322	119,120
209,319	4,839	228,195	119,058
210,334	4,699	228,069	118,874
211,348	4,555	227,853	118,641
212,363	4,233	227,447	118,172
213,377	4,027	227,243	117,898
214,392	3,627	227,399	117,661
215,407	3,983	227,077	117,757
216,421	3,974	227,045	117,722
217,436	4,132	226,817	117,715
218,450	3,623	226,489	117,145
219,465	3,805	226,324	117,189
220,480	3,865	226,318	117,221
221,494	3,772	226,078	117,015
222,509	3,913	226,077	117,111
223,523	4,020	225,842	117,061
224,538	3,850	225,725	116,861
225,553	3,987	225,603	116,891
226,567	4,071	225,429	116,854
227,582	4,271	225,308	116,932
228,596	4,290	225,279	116,922
229,611	4,078	225,082	116,648
230,626	3,746	224,757	116,218
231,640	4,047	224,687	116,399
232,655	4,292	224,561	116,509
233,669	4,630	224,465	116,703
234,684	4,544	224,476	116,634
235,699	4,060	224,345	116,191
236,713	4,146	224,069	116,102
237,728	3,990	223,783	115,826
238,742	4,037	223,579	115,745
239,757	4,095	223,470	115,722
240,772	3,948	223,437	115,585
241,786	4,048	223,139	115,495
242,801	4,114	223,027	115,476
243,815	4,380	223,103	115,704
244,830	4,456	222,927	115,660
245,844	4,082	222,684	115,244
246,859	4,048	222,571	115,149
247,874	4,180	222,288	115,092
248,888	4,460	222,282	115,287
249,903	4,138	222,029	114,905
250,917	3,919	221,997	114,715
251,932	4,008	221,801	114,670
252,947	3,907	221,657	114,510
253,961	3,826	221,372	114,292
254,976	3,888	221,300	114,291
255,990	4,051	221,273	114,389
257,005	4,228	221,158	114,450
258,020	3,998	221,078	114,228
259,034	4,390	220,919	114,426
260,049	4,322	220,681	114,243
261,063	4,195	220,582	114,087
262,078	4,185	220,583	114,070
263,093	4,491	220,405	114,194
264,107	4,275	220,175	113,905
265,122	4,272	220,007	113,806
266,136	4,432	219,952	113,885
267,151	4,463	219,723	113,779
268,166	4,132	219,511	113,416
269,180	4,078	219,204	113,207
270,195	3,782	219,244	113,000
271,209	3,928	219,160	113,054
272,224	3,967	218,902	112,940
273,239	4,134	218,824	113,012
274,253	3,985	218,613	112,784
275,268	3,636	218,490	112,454
276,282	3,816	218,261	112,458
277,297	3,571	218,223	112,249
278,312	3,637	218,273	112,313
279,326	3,790	218,034	112,292
280,341	3,725	217,906	112,169
281,355	4,271	217,697	112,449
282,370	4,086	217,514	112,209
283,384	3,825	217,340	111,921
284,399	3,547	217,206	111,639
285,414	3,611	217,022	111,581
286,428	3,747	217,084	111,701
287,443	4,217	216,905	111,941
288,457	4,107	216,733	111,762
289,472	4,222	216,514	111,723
290,487	3,694	216,209	111,174
291,501	3,273	216,139	110,822
292,516	3,583	215,944	110,937
293,530	3,713	215,901	110,999
294,545	3,902	215,769	111,058
295,560	3,943	215,630	111,006
296,574	3,731	215,632	110,844
297,589	3,925	215,441	110,876
298,603	3,940	215,264	110,786
299,618	3,845	215,306	110,729
300,633	3,877	214,977	110,573
301,647	4,129	214,939	110,725
302,662	4,168	214,853	110,699
303,676	4,142	214,614	110,547
304,691	4,338	214,533	110,636
305,706	4,352	214,487	110,612
306,720	4,426	214,164	110,489
307,735	3,999	214,032	110,105
308,749	3,806	213,905	109,893
309,764	4,137	213,787	110,058
310,779	4,320	213,777	110,174
311,793	4,268	213,542	110,006
312,808	4,154	213,440	109,862
313,822	3,955	213,076	109,523
314,837	3,995	213,011	109,509
315,852	3,930	212,864	109,378
316,866	4,006	212,788	109,383
317,881	4,085	212,795	109,432
318,895	4,170	212,759	109,464
319,910	4,132	212,312	109,198
320,925	3,620	212,257	108,797
321,939	3,525	212,010	108,593
322,954	3,986	211,882	108,844
323,968	4,087	211,852	108,890
324,983	4,242	211,709	108,917
325,997	4,160	211,763	108,877
327,012	4,133	211,512	108,720
328,027	3,852	211,514	108,512
329,041	4,362	211,314	108,759
330,056	4,337	211,293	108,722
331,070	4,014	210,909	108,287
332,085	3,537	210,734	107,852
333,100	3,864	210,727	108,069
334,114	3,983	210,582	108,068
335,129	4,191	210,388	108,105
336,143	4,034	210,157	107,867
337,158	3,772	210,172	107,681
338,173	4,087	209,919	107,762
339,187	3,490	209,871	107,310
340,202	3,615	209,630	107,264
341,216	3,973	209,473	107,425
342,231	3,890	209,323	107,280
343,246	3,753	209,347	107,187
344,260	3,766	209,249	107,137
345,275	3,791	209,137	107,087
346,289	4,041	208,967	107,166
347,304	3,957	208,930	107,078
348,319	4,051	208,592	106,961
349,333	3,947	208,608	106,887
350,348	4,034	208,540	106,903
351,362	4,232	208,339	106,928
352,377	3,961	208,294	106,707
353,392	3,992	208,080	106,610
354,406	4,154	208,011	106,677
355,421	194,732	1345,527	1436,417
356,435	155,397	1484,225	1436,544
