DTS Sentinel unit serial number:	SN410029Multiplexer serial number:	ORYXHardware model number:	OX2-SRSoftware version number:	ORYX F/W v4,00 Oryx Data Collector v3.7.2.0data status	okinstallation	B6 Nyhavnadifferential loss correction	single-endedforward channel	channel 2reverse channel	N/Adate	2023/12/11time	07:35:08forward acquisition time	300,00reverse acquisition time	0,00gamma	499,1914k internal	0,3127k external	0,3127temperature offset calibration	1,0000default loss term (dB/km)	0,3820temperature slope calibration	1,0000multiplexer offset coefficient	1,0000multiplexer slope coefficient	1,0000fibre end	0,00T internal ref (°C)	18,90T ext. ref 1 (°C)	1,34T ext. ref 2 (°C)	1,37length (m)	temperature (°C)	Stokes	anti-Stokes-744,400	68,582	0,141	-0,108
-743,385	-163,897	-0,209	-0,007
-742,371	-200,000	0,002	-0,059
-741,356	-41,861	-0,313	0,119
-740,342	-145,063	0,179	0,012
-739,327	-11,885	-0,274	0,133
-738,312	314,229	0,111	-0,156
-737,298	-117,862	-0,228	-0,030
-736,283	-112,750	-0,045	-0,007
-735,269	-200,000	-0,230	-0,000
-734,254	-200,000	0,048	-0,170
-733,239	-41,195	-0,523	-0,200
-732,225	-7,910	0,100	0,050
-731,210	-200,000	0,013	0,219
-730,196	-200,000	-0,029	-0,127
-729,181	-53,045	-0,165	-0,056
-728,167	63,866	-0,024	0,018
-727,152	264,125	0,077	-0,100
-726,137	-113,386	-0,192	-0,028
-725,123	165,028	-0,038	-0,040
-724,108	38,164	-0,065	-0,043
-723,094	800,000	-0,029	-0,072
-722,079	38,336	-0,032	0,021
-721,064	-19,804	-0,109	-0,050
-720,050	-70,342	-0,033	0,009
-719,035	800,000	-0,020	-0,045
-718,021	-37,511	-0,122	-0,048
-717,006	55,836	0,011	-0,008
-715,991	800,000	-0,020	-0,053
-714,977	-200,000	0,022	-0,152
-713,962	-200,000	-0,010	-0,081
-712,948	-0,859	0,098	0,051
-711,933	255,424	-0,111	0,142
-710,918	-2,286	0,130	-0,067
-709,904	15,888	0,033	-0,019
-708,889	-72,708	0,026	-0,007
-707,875	800,000	-0,015	0,047
-706,860	61,384	-0,102	0,075
-705,845	360,880	0,077	-0,115
-704,831	49,727	-0,118	-0,083
-703,816	131,612	0,019	0,019
-702,802	800,000	0,032	0,092
-701,787	-139,011	-0,123	0,010
-700,772	146,994	-0,110	-0,110
-699,758	1,539	0,110	-0,059
-698,743	-92,384	-0,052	-0,011
-697,729	372,700	0,072	0,110
-696,714	-47,269	-0,030	-0,011
-695,699	100,106	0,190	-0,164
-694,685	-68,726	-0,107	-0,031
-693,670	-62,221	-0,118	0,036
-692,656	-200,000	0,006	0,120
-691,641	258,805	0,074	-0,095
-690,627	-173,537	0,055	0,001
-689,612	-200,000	0,026	0,211
-688,597	61,818	-0,051	0,038
-687,583	800,000	-0,036	-0,087
-686,568	70,979	-0,047	0,037
-685,554	-200,000	-0,007	-0,065
-684,539	-92,832	0,212	-0,044
-683,524	-200,000	-0,001	-0,019
-682,510	148,788	0,040	-0,040
-681,495	-97,126	0,150	0,029
-680,481	-14,767	-0,107	0,051
-679,466	471,182	-0,103	-0,173
-678,451	-200,000	0,023	0,137
-677,437	-22,686	0,061	-0,027
-676,422	800,000	-0,040	-0,103
-675,408	800,000	-0,008	-0,018
-674,393	153,923	-0,024	-0,025
-673,378	-200,000	0,003	-0,100
-672,364	800,000	-0,013	0,042
-671,349	-126,839	0,103	0,011
-670,335	800,000	0,054	0,132
-669,320	-200,000	-0,029	0,156
-668,305	-200,000	-0,011	0,067
-667,291	-62,018	-0,134	-0,041
-666,276	-12,765	-0,085	0,041
-665,262	-123,773	-0,177	-0,021
-664,247	-174,828	-0,101	0,002
-663,232	-51,718	0,045	0,015
-662,218	800,000	-0,066	-0,161
-661,203	-175,569	0,200	-0,004
-660,189	-200,000	0,042	-0,233
-659,174	35,319	-0,043	-0,028
-658,159	-200,000	-0,013	-0,156
-657,145	160,070	0,087	-0,090
-656,130	-2,752	0,071	-0,037
-655,116	15,050	0,074	-0,043
-654,101	36,284	-0,046	-0,030
-653,086	91,164	0,074	0,062
-652,072	800,000	-0,072	0,203
-651,057	-200,000	-0,007	0,037
-650,043	-165,222	-0,067	-0,002
-649,028	-200,000	-0,004	0,137
-648,014	15,079	0,088	0,051
-646,999	-159,217	0,086	0,004
-645,984	264,044	-0,066	0,086
-644,970	-200,000	-0,003	-0,173
-643,955	-139,579	-0,122	0,010
-642,941	364,140	-0,127	-0,190
-641,926	-200,000	-0,002	0,073
-640,911	-67,343	-0,087	-0,025
-639,897	172,529	0,057	0,061
-638,882	729,906	-0,018	-0,036
-637,868	37,663	-0,166	0,109
-636,853	62,881	0,073	-0,054
-635,838	117,019	-0,050	0,046
-634,824	800,000	0,015	0,034
-633,809	503,959	-0,060	0,103
-632,795	-200,000	0,000	0,042
-631,780	-193,146	0,069	0,000
-630,765	132,492	0,019	-0,019
-629,751	-200,000	-0,090	-0,000
-628,736	554,473	-0,058	-0,105
-627,722	800,000	0,024	0,079
-626,707	-200,000	-0,006	0,088
-625,692	194,133	0,037	0,042
-624,678	-200,000	-0,012	0,079
-623,663	-200,000	0,006	-0,030
-622,649	100,954	0,040	-0,034
-621,634	180,792	-0,095	0,103
-620,619	16,442	-0,173	-0,101
-619,605	207,513	0,104	-0,121
-618,590	-200,000	0,001	0,022
-617,576	745,589	-0,017	0,034
-616,561	74,955	0,106	0,082
-615,546	6,462	0,011	-0,006
-614,532	-200,000	-0,004	-0,039
-613,517	197,055	-0,080	-0,090
-612,503	-200,000	-0,010	-0,058
-611,488	-200,000	0,004	0,023
-610,474	-200,000	-0,014	0,157
-609,459	800,000	-0,061	-0,152
-608,444	515,002	-0,078	-0,136
-607,430	29,588	0,106	-0,066
-606,415	-83,274	-0,123	-0,029
-605,401	313,448	-0,084	-0,117
-604,386	110,279	0,045	-0,040
-603,371	330,250	-0,103	-0,147
-602,357	53,472	0,054	0,038
-601,342	151,348	-0,017	0,017
-600,328	40,470	0,094	-0,063
-599,313	-200,000	-0,021	-0,186
-598,298	-33,618	0,112	-0,046
-597,284	800,000	0,025	0,066
-596,269	-6,964	0,032	-0,016
-595,255	91,268	0,102	-0,084
-594,240	-200,000	-0,025	-0,132
-593,225	-200,000	0,031	0,195
-592,211	118,908	-0,072	-0,066
-591,196	93,553	0,057	-0,048
-590,182	-47,382	0,217	-0,078
-589,167	-200,000	-0,027	-0,106
-588,152	2,454	0,057	0,030
-587,138	-29,331	-0,159	-0,067
-586,123	-91,929	-0,027	-0,006
-585,109	-200,000	-0,018	-0,092
-584,094	-200,000	-0,000	0,047
-583,079	800,000	0,051	0,138
-582,065	-200,000	-0,010	0,054
-581,050	-141,354	0,095	-0,007
-580,036	-37,337	-0,025	0,010
-579,021	800,000	-0,031	-0,084
-578,006	-200,000	-0,002	-0,135
-576,992	4,370	-0,050	0,027
-575,977	16,214	0,100	-0,058
-574,963	-96,495	0,056	-0,011
-573,948	123,511	0,051	0,047
-572,934	246,397	0,081	-0,101
-571,919	-178,552	-0,139	-0,002
-570,904	91,160	-0,106	0,088
-569,890	-200,000	-0,002	-0,185
-568,875	-120,515	0,046	0,006
-567,861	-200,000	0,011	0,052
-566,846	39,535	-0,049	0,032
-565,831	443,452	0,063	-0,103
-564,817	-30,137	0,056	0,024
-563,802	-200,000	0,031	-0,143
-562,788	35,219	-0,072	0,047
-561,773	-200,000	-0,018	0,119
-560,758	-125,339	-0,123	0,014
-559,744	11,585	0,066	0,037
-558,729	-200,000	0,003	0,041
-557,715	-60,336	-0,165	-0,051
-556,700	-18,279	0,070	-0,032
-555,685	-163,445	-0,067	0,002
-554,671	-109,317	-0,130	0,020
-553,656	800,000	0,051	0,117
-552,642	143,939	-0,081	0,079
-551,627	6,525	-0,044	0,024
-550,612	800,000	0,014	-0,044
-549,598	-151,112	-0,064	-0,004
-548,583	800,000	-0,061	-0,172
-547,569	-46,284	-0,129	0,046
-546,554	800,000	0,065	0,147
-545,539	-200,000	-0,019	0,079
-544,525	-200,000	-0,037	0,162
-543,510	78,828	0,032	0,025
-542,496	216,943	-0,021	-0,025
-541,481	-15,836	-0,049	0,023
-540,466	-200,000	-0,014	0,079
-539,452	800,000	-0,043	0,102
-538,437	800,000	0,009	0,020
-537,423	32,926	-0,024	-0,015
-536,408	-200,000	0,004	0,157
-535,393	-200,000	-0,125	-0,000
-534,379	-39,169	-0,037	0,014
-533,364	161,300	0,004	0,004
-532,350	-200,000	0,013	0,043
-531,335	774,337	0,070	0,143
-530,321	177,933	0,037	0,040
-529,306	792,575	0,063	0,129
-528,291	297,110	-0,030	-0,041
-527,277	-32,398	-0,104	-0,043
-526,262	800,000	-0,048	0,114
-525,248	-200,000	-0,023	0,156
-524,233	15,605	0,063	0,037
-523,218	610,854	-0,035	0,065
-522,204	800,000	-0,028	0,070
-521,189	143,068	-0,097	0,095
-520,175	172,996	-0,160	-0,170
-519,160	254,299	-0,046	-0,059
-518,145	358,242	0,110	0,163
-517,131	96,817	-0,111	0,094
-516,116	800,000	0,022	0,065
-515,102	-200,000	0,015	-0,081
-514,087	-200,000	-0,050	-0,185
-513,072	-113,813	-0,072	-0,010
-512,058	-100,454	0,116	-0,021
-511,043	-19,938	0,117	-0,053
-510,029	567,289	-0,030	0,053
-509,014	-51,293	0,120	0,041
-507,999	100,173	0,084	0,072
-506,985	-200,000	0,019	-0,097
-505,970	800,000	-0,038	0,117
-504,956	800,000	0,027	0,069
-503,941	-200,000	0,016	0,072
-502,926	383,356	-0,020	0,031
-501,912	-8,062	0,154	-0,076
-500,897	756,068	0,063	-0,127
-499,883	285,846	0,025	-0,033
-498,868	335,730	-0,103	-0,148
-497,853	-200,000	-0,015	-0,083
-496,839	-140,911	0,137	0,010
-495,824	-94,824	-0,025	0,005
-494,810	800,000	-0,086	0,203
-493,795	286,375	0,062	-0,083
-492,781	-147,943	0,024	0,001
-491,766	-200,000	0,010	-0,053
-490,751	-88,744	0,058	-0,013
-489,737	56,623	-0,035	-0,025
-488,722	-37,072	0,058	-0,023
-487,708	-120,194	0,061	0,008
-486,693	800,000	0,031	-0,088
-485,678	-165,640	0,007	0,000
-484,664	61,962	-0,149	-0,109
-483,649	-77,065	-0,083	-0,021
-482,635	-64,639	-0,031	0,009
-481,620	800,000	-0,018	-0,055
-480,605	10,837	0,133	-0,074
-479,591	-156,956	-0,173	0,008
-478,576	128,974	-0,033	-0,031
-477,562	-74,846	-0,030	0,008
-476,547	-200,000	0,006	-0,077
-475,532	-200,000	-0,013	-0,163
-474,518	800,000	0,037	-0,089
-473,503	25,321	0,114	-0,070
-472,489	-77,695	0,144	-0,036
-471,474	-200,000	0,004	0,048
-470,459	-59,246	-0,062	0,019
-469,445	-127,187	0,074	-0,008
-468,430	-108,789	-0,040	0,006
-467,416	73,712	0,094	-0,072
-466,401	-131,583	0,182	0,017
-465,386	-111,695	-0,133	-0,020
-464,372	73,501	0,034	0,026
-463,357	-76,233	0,064	-0,017
-462,343	-88,400	0,119	-0,026
-461,328	84,044	-0,032	-0,026
-460,313	247,957	0,039	-0,049
-459,299	200,449	0,010	-0,012
-458,284	37,724	-0,108	-0,071
-457,270	800,000	0,014	-0,040
-456,255	334,101	-0,121	-0,173
-455,241	245,802	-0,055	-0,068
-454,226	35,657	-0,045	-0,029
-453,211	190,072	-0,109	0,121
-452,197	-200,000	0,002	0,192
-451,182	-200,000	0,019	0,118
-450,168	76,060	0,082	0,064
-449,153	-82,159	-0,122	-0,029
-448,138	162,374	-0,072	0,075
-447,124	-200,000	-0,014	-0,087
-446,109	474,910	-0,079	-0,132
-445,095	493,000	-0,015	-0,025
-444,080	-73,903	0,045	-0,012
-443,065	-110,900	-0,063	-0,009
-442,051	800,000	-0,024	-0,063
-441,036	-91,357	-0,073	-0,015
-440,022	45,694	-0,088	-0,060
-439,007	8,993	-0,043	0,024
-437,992	-94,580	0,106	-0,021
-436,978	200,188	0,036	0,041
-435,963	496,465	0,057	0,097
-434,949	-200,000	0,011	0,064
-433,934	318,598	-0,018	-0,025
-432,919	-155,088	0,064	-0,003
-431,905	82,058	-0,114	-0,091
-430,890	-2,134	0,004	0,002
-429,876	-1,454	0,081	-0,042
-428,861	-39,290	0,118	0,045
-427,846	-73,706	-0,119	-0,032
-426,832	800,000	-0,021	-0,061
-425,817	800,000	-0,019	0,039
-424,803	-140,185	-0,058	0,004
-423,788	-94,178	0,182	0,036
-422,773	44,955	0,078	0,053
-421,759	337,439	-0,099	0,142
-420,744	130,949	-0,051	-0,049
-419,730	-200,000	-0,039	-0,146
-418,715	677,437	0,029	-0,056
-417,701	379,742	0,034	0,051
-416,686	800,000	0,035	-0,093
-415,671	633,320	-0,052	-0,096
-414,657	228,683	0,061	-0,073
-413,642	800,000	0,034	0,072
-412,628	-74,530	0,136	-0,036
-411,613	34,529	-0,034	0,022
-410,598	256,647	-0,070	-0,089
-409,584	405,512	0,051	0,079
-408,569	-112,684	-0,027	0,004
-407,555	1,714	-0,007	0,004
-406,540	159,945	-0,036	-0,037
-405,525	-200,000	0,006	0,134
-404,511	800,000	0,009	-0,022
-403,496	116,581	0,065	0,059
-402,482	47,431	0,032	0,022
-401,467	32,851	0,074	0,047
-400,452	800,000	-0,075	0,174
-399,438	-200,000	0,001	0,032
-398,423	800,000	0,044	0,126
-397,409	-200,000	-0,002	0,031
-396,394	766,801	-0,027	0,053
-395,379	800,000	0,045	0,095
-394,365	-200,000	0,007	0,103
-393,350	-107,275	0,044	-0,007
-392,336	-102,475	0,114	0,020
-391,321	-39,816	0,044	0,017
-390,306	-200,000	-0,038	-0,178
-389,292	565,193	0,056	0,100
-388,277	-64,158	-0,031	0,009
-387,263	112,449	0,082	0,073
-386,248	230,330	0,068	0,081
-385,233	30,268	-0,004	-0,003
-384,219	220,320	-0,044	0,052
-383,204	800,000	-0,041	0,130
-382,190	37,600	0,096	0,062
-381,175	80,749	-0,053	-0,042
-380,160	-103,478	0,056	0,010
-379,146	601,328	-0,094	-0,172
-378,131	800,000	-0,010	-0,028
-377,117	-200,000	-0,021	0,099
-376,102	800,000	-0,048	-0,122
-375,088	40,790	0,091	-0,060
-374,073	-45,873	0,157	0,056
-373,058	-3,263	-0,031	-0,016
-372,044	156,852	0,071	-0,072
-371,029	-49,238	-0,040	-0,014
-370,015	22,082	0,024	0,015
-369,000	-24,163	-0,100	-0,044
-367,985	-200,000	0,012	-0,064
-366,971	-101,709	0,087	-0,015
-365,956	-140,029	0,062	-0,005
-364,942	103,616	0,058	-0,050
-363,927	82,821	0,076	-0,060
-362,912	-121,620	-0,107	-0,013
-361,898	-17,022	0,136	0,063
-360,883	-154,652	-0,028	0,001
-359,869	-200,000	-0,021	0,177
-358,854	-200,000	-0,013	0,057
-357,839	-200,000	-0,000	-0,049
-356,825	121,184	0,175	0,160
-355,810	7,250	-0,075	0,041
-354,796	800,000	-0,051	-0,156
-353,781	-56,087	-0,133	-0,043
-352,766	-200,000	0,002	-0,147
-351,752	-146,646	0,100	-0,006
-350,737	-46,088	0,135	0,049
-349,723	116,762	0,066	0,059
-348,708	215,263	-0,090	0,105
-347,693	-90,080	-0,097	0,021
-346,679	371,696	-0,082	-0,122
-345,664	-31,452	-0,082	0,034
-344,650	-200,000	0,016	0,059
-343,635	63,711	0,050	0,037
-342,620	-200,000	-0,034	0,136
-341,606	281,407	-0,101	0,133
-340,591	360,275	-0,151	-0,223
-339,577	-60,927	-0,072	-0,022
-338,562	63,144	0,012	0,009
-337,548	10,741	-0,063	0,035
-336,533	-200,000	-0,013	0,047
-335,518	-142,884	0,078	-0,005
-334,504	-76,516	0,033	-0,008
-333,489	-65,688	-0,093	-0,027
-332,475	-57,965	0,051	-0,016
-331,460	-133,308	0,085	-0,008
-330,445	-200,000	-0,034	-0,173
-329,431	127,067	0,022	0,020
-328,416	-14,883	0,040	-0,019
-327,402	-125,004	0,150	-0,017
-326,387	800,000	0,018	0,050
-325,372	-200,000	-0,031	0,130
-324,358	800,000	-0,050	0,127
-323,343	27,387	-0,066	0,041
-322,329	-172,210	-0,124	0,003
-321,314	-200,000	0,001	-0,048
-320,299	77,381	0,066	0,051
-319,285	219,093	-0,039	-0,046
-318,270	-24,485	-0,021	0,009
-317,256	-22,938	0,035	0,015
-316,241	2,061	-0,155	0,082
-315,226	-67,031	0,096	0,028
-314,212	-80,526	-0,183	-0,044
-313,197	-200,000	0,011	0,087
-312,183	-200,000	0,004	-0,054
-311,168	15,807	-0,028	-0,016
-310,153	-200,000	0,006	-0,088
-309,139	-200,000	-0,003	-0,059
-308,124	373,623	-0,047	-0,071
-307,110	-12,675	-0,097	-0,046
-306,095	135,648	-0,073	0,070
-305,080	-200,000	-0,011	0,047
-304,066	-74,582	0,030	-0,008
-303,051	628,801	-0,054	-0,099
-302,037	178,317	0,103	-0,110
-301,022	225,814	-0,050	-0,059
-300,008	220,492	0,036	0,043
-298,993	-171,696	0,179	0,004
-297,978	1,788	0,191	0,100
-296,964	475,227	-0,017	-0,028
-295,949	-200,000	0,016	-0,172
-294,935	467,662	-0,044	-0,073
-293,920	159,388	0,024	0,024
-292,905	-200,000	-0,012	0,070
-291,891	72,144	0,117	-0,089
-290,876	-44,482	-0,163	-0,059
-289,862	-106,373	-0,171	0,028
-288,847	-200,000	0,014	0,100
-287,832	327,996	0,034	0,048
-286,818	-29,440	0,098	-0,041
-285,803	-200,000	0,011	-0,086
-284,789	-200,000	-0,028	-0,180
-283,774	102,666	0,091	0,078
-282,759	-200,000	-0,014	0,056
-281,745	76,562	0,016	0,013
-280,730	502,595	0,067	-0,113
-279,716	-200,000	0,019	0,192
-278,701	-192,442	0,161	-0,001
-277,686	179,925	-0,094	0,101
-276,672	247,282	-0,025	0,031
-275,657	57,340	-0,041	0,029
-274,643	-200,000	-0,009	0,044
-273,628	535,417	0,071	0,123
-272,613	390,929	0,048	-0,072
-271,599	-200,000	0,017	-0,074
-270,584	20,808	-0,059	0,035
-269,570	-68,708	0,010	-0,003
-268,555	-49,691	-0,047	-0,016
-267,540	163,749	-0,052	-0,053
-266,526	-142,611	-0,176	-0,012
-265,511	-12,257	0,073	-0,035
-264,497	36,450	0,043	0,028
-263,482	800,000	0,046	0,111
-262,467	31,677	0,066	0,041
-261,453	186,797	-0,047	0,051
-260,438	-106,366	0,123	-0,020
-259,424	68,375	-0,094	0,070
-258,409	143,787	-0,074	-0,072
-257,395	-200,000	-0,015	-0,071
-256,380	-200,000	0,034	-0,114
-255,365	-48,389	-0,056	0,020
-254,351	-200,000	0,026	0,128
-253,336	106,193	-0,096	-0,083
-252,322	90,110	0,078	-0,064
-251,307	151,573	-0,118	0,118
-250,292	-72,155	0,118	0,032
-249,278	-200,000	-0,018	-0,060
-248,263	-8,203	-0,053	-0,026
-247,249	-59,984	-0,096	-0,030
-246,234	-200,000	-0,000	-0,074
-245,219	-200,000	-0,019	-0,132
-244,205	-200,000	-0,008	-0,127
-243,190	85,191	0,049	0,039
-242,176	-119,552	0,042	-0,005
-241,161	488,810	-0,013	0,021
-240,146	-63,175	0,076	0,023
-239,132	-200,000	0,003	0,045
-238,117	273,051	0,037	-0,048
-237,103	87,595	-0,026	0,021
-236,088	257,627	0,081	-0,102
-235,073	-31,451	-0,092	0,038
-234,059	-200,000	-0,003	0,166
-233,044	-124,693	-0,089	0,010
-232,030	110,078	-0,099	0,087
-231,015	-112,373	-0,077	0,011
-230,000	302,934	-0,066	-0,090
-228,986	800,000	0,046	0,108
-227,971	-160,937	-0,166	-0,006
-226,957	-200,000	0,027	0,113
-225,942	233,232	0,013	0,015
-224,927	413,161	-0,023	-0,036
-223,913	-108,514	-0,120	0,019
-222,898	-75,893	-0,048	0,012
-221,884	800,000	0,054	-0,170
-220,869	192,287	0,133	0,146
-219,855	49,355	0,069	0,047
-218,840	-200,000	-0,008	0,134
-217,825	800,000	-0,059	0,131
-216,811	757,414	0,055	-0,109
-215,796	-170,081	-0,072	-0,002
-214,782	-200,000	-0,036	-0,252
-213,767	-112,121	0,050	-0,007
-212,752	-200,000	-0,001	0,006
-211,738	-90,133	0,085	0,018
-210,723	-190,677	-0,093	-0,001
-209,709	-200,000	0,002	-0,146
-208,694	501,526	0,066	0,111
-207,679	171,038	-0,080	0,084
-206,665	800,000	0,096	-0,206
-205,650	-24,168	0,124	0,054
-204,636	-200,000	-0,029	0,146
-203,621	800,000	0,041	0,094
-202,606	784,056	0,042	-0,084
-201,592	49,045	-0,051	0,035
-200,577	90,977	-0,105	-0,086
-199,563	-200,000	-0,012	-0,078
-198,548	-200,000	-0,004	0,126
-197,533	800,000	-0,072	-0,150
-196,519	-47,828	-0,112	-0,039
-195,504	14,201	0,024	0,014
-194,490	45,785	0,152	0,102
-193,475	83,475	-0,098	-0,078
-192,460	800,000	-0,036	-0,102
-191,446	-179,488	0,063	0,001
-190,431	35,402	-0,022	-0,014
-189,417	-200,000	-0,024	0,178
-188,402	-131,744	0,119	-0,011
-187,387	800,000	-0,088	-0,216
-186,373	214,933	0,102	-0,118
-185,358	800,000	-0,030	0,065
-184,344	-200,000	0,019	0,150
-183,329	-91,779	-0,088	-0,018
-182,315	-161,782	0,183	0,007
-181,300	71,435	-0,052	0,040
-180,285	-139,747	-0,132	0,010
-179,271	85,050	-0,047	0,037
-178,256	77,136	0,105	-0,081
-177,242	45,274	0,057	0,038
-176,227	142,178	-0,068	0,065
-175,212	75,185	0,011	0,008
-174,198	-136,234	0,158	-0,013
-173,183	75,862	-0,009	0,007
-172,169	-121,952	0,007	-0,001
-171,154	-200,000	0,015	-0,098
-170,139	-114,079	0,181	0,025
-169,125	193,298	0,108	0,119
-168,110	800,000	0,021	-0,054
-167,096	787,276	0,022	-0,044
-166,081	-134,931	-0,043	-0,004
-165,066	-70,354	0,146	0,040
-164,052	212,034	0,064	0,074
-163,037	431,807	0,050	-0,080
-162,023	-3,157	0,109	-0,055
-161,008	800,000	0,012	-0,028
-159,993	324,540	-0,046	0,064
-158,979	89,209	0,153	0,124
-157,964	180,440	-0,111	-0,119
-156,950	144,189	-0,033	-0,032
-155,935	526,673	0,018	0,030
-154,920	-115,676	0,109	-0,015
-153,906	221,687	0,197	0,231
-152,891	348,631	-0,031	0,045
-151,877	800,000	0,014	-0,035
-150,862	-13,923	-0,194	0,091
-149,847	199,373	0,091	-0,101
-148,833	95,697	0,068	-0,056
-147,818	30,318	0,073	0,045
-146,804	228,863	-0,013	-0,015
-145,789	800,000	-0,021	-0,060
-144,775	-119,668	0,073	0,009
-143,760	-30,620	-0,033	0,014
-142,745	-53,036	0,097	-0,032
-141,731	-59,090	0,072	0,022
-140,716	532,397	0,084	0,145
-139,702	800,000	0,027	0,080
-138,687	800,000	0,032	0,083
-137,672	6,414	-0,030	0,016
-136,658	-200,000	-0,001	-0,025
-135,643	542,164	-0,027	0,047
-134,629	800,000	-0,026	0,065
-133,614	-200,000	-0,024	0,083
-132,599	117,829	-0,013	-0,012
-131,585	-200,000	-0,023	0,148
-130,570	32,646	0,096	0,060
-129,556	-99,830	-0,010	0,002
-128,541	160,524	0,106	-0,108
-127,526	-200,000	0,031	-0,135
-126,512	-200,000	0,002	0,049
-125,497	-200,000	0,015	-0,091
-124,483	-127,788	-0,081	-0,008
-123,468	112,635	-0,070	0,062
-122,453	-54,525	-0,123	0,040
-121,439	-200,000	-0,010	-0,123
-120,424	203,707	-0,055	-0,062
-119,410	71,970	0,046	0,035
-118,395	-76,721	0,074	0,019
-117,380	800,000	0,021	0,059
-116,366	-79,028	-0,024	0,006
-115,351	800,000	-0,029	0,064
-114,337	245,761	0,053	-0,066
-113,322	-7,515	-0,050	-0,025
-112,307	150,506	0,078	-0,077
-111,293	487,459	0,051	0,086
-110,278	44,275	0,075	-0,050
-109,264	-200,000	0,002	0,025
-108,249	800,000	-0,006	-0,015
-107,234	47,497	-0,029	0,019
-106,220	-121,423	0,015	0,002
-105,205	51,087	-0,101	-0,069
-104,191	-70,809	0,111	-0,030
-103,176	-113,206	0,062	-0,009
-102,162	-200,000	0,010	0,066
-101,147	-82,998	-0,078	-0,018
-100,132	-107,271	0,008	-0,001
-99,118	441,015	-0,051	-0,081
-98,103	284,980	-0,027	-0,036
-97,089	45,712	0,090	0,060
-96,074	-200,000	-0,019	-0,066
-95,059	-200,000	-0,030	0,099
-94,045	-47,731	0,077	-0,027
-93,030	341,301	0,037	0,052
-92,016	-40,533	-0,058	-0,022
-91,001	716,070	-0,018	0,034
-89,986	387,230	0,030	0,045
-88,972	47,782	0,156	-0,105
-87,957	425,271	0,024	0,037
-86,943	-200,000	-0,011	-0,154
-85,928	249,774	0,057	0,071
-84,913	-200,000	-0,018	-0,160
-83,899	-73,757	-0,117	-0,031
-82,884	-39,199	0,035	-0,013
-81,870	800,000	0,047	0,129
-80,855	311,148	0,085	0,116
-79,840	-152,772	0,072	-0,004
-78,826	-59,193	-0,182	0,057
-77,811	-158,100	0,153	0,006
-76,797	-200,000	0,030	-0,103
-75,782	450,360	-0,033	-0,053
-74,767	-39,582	0,072	-0,027
-73,753	17,859	-0,055	-0,032
-72,738	92,393	0,126	-0,103
-71,724	162,715	-0,059	-0,060
-70,709	-8,083	-0,073	0,035
-69,694	800,000	-0,034	0,092
-68,680	-14,194	0,087	0,041
-67,665	800,000	0,066	0,193
-66,651	-109,873	-0,071	-0,011
-65,636	800,000	-0,018	-0,054
-64,622	800,000	0,019	-0,040
-63,607	-200,000	-0,001	-0,065
-62,592	590,073	0,035	-0,064
-61,578	-6,019	0,053	0,026
-60,563	800,000	-0,044	0,105
-59,549	-200,000	0,009	-0,116
-58,534	-55,618	-1,674	-0,540
-57,519	800,000	-0,511	-1,199
-56,505	-200,000	-1,053	-4,673
-55,490	-89,152	0,606	0,129
-54,476	800,000	5,172	11,956
-53,461	-200,000	15,769	280,499
-52,446	-200,000	699,929	2277,632
-51,432	590,287	1616,168	2900,163
-50,417	124,004	1622,039	1476,354
-49,403	86,100	1282,296	1022,131
-48,388	37,808	1025,672	658,854
-47,373	21,933	987,486	581,820
-46,359	20,831	976,140	571,475
-45,344	19,232	971,965	563,751
-44,330	19,263	970,716	563,104
-43,315	18,977	968,930	561,106
-42,300	18,959	968,049	560,516
-41,286	18,923	967,080	559,816
-40,271	18,941	966,030	559,242
-39,257	18,967	965,084	558,760
-38,242	18,931	964,339	558,189
-37,227	18,950	963,658	557,834
-36,213	18,932	962,808	557,260
-35,198	18,925	961,886	556,683
-34,184	19,015	960,987	556,433
-33,169	18,898	960,193	555,571
-32,154	18,983	959,251	555,280
-31,140	18,993	958,397	554,797
-30,125	19,047	957,607	554,491
-29,111	18,978	956,871	553,818
-28,096	18,945	956,229	553,318
-27,082	18,931	955,737	552,968
-26,067	19,018	954,692	552,621
-25,052	18,966	954,010	552,035
-24,038	18,944	953,265	551,512
-23,023	18,940	952,617	551,103
-22,009	18,938	951,949	550,690
-20,994	18,968	951,280	550,375
-19,979	18,943	950,665	549,918
-18,965	18,890	950,073	549,383
-17,950	18,920	949,506	549,129
-16,936	18,879	948,800	548,568
-15,921	18,866	947,911	547,993
-14,906	18,817	947,568	547,615
-13,892	18,790	946,837	547,084
-12,877	18,770	946,056	546,547
-11,863	18,746	945,490	546,122
-10,848	18,772	945,108	545,960
-9,833	18,927	944,558	546,116
-8,819	18,881	943,901	545,568
-7,804	18,800	943,104	544,829
-6,790	18,801	942,636	544,538
-5,775	18,786	942,277	544,264
-4,760	18,866	941,373	543,974
-3,746	18,754	940,938	543,343
-2,731	18,663	940,081	542,538
-1,717	18,651	939,318	542,039
-0,702	18,699	938,654	541,785
0,313	18,460	938,243	541,609
1,327	21,420	936,443	549,900
2,342	30,399	794,614	490,556
3,356	27,014	448,037	271,490
4,371	-3,538	293,852	147,464
5,386	-7,534	275,207	134,301
6,400	-8,937	269,680	130,285
7,415	-9,612	267,453	128,575
8,429	-9,114	266,320	128,477
9,444	-8,706	265,522	128,454
10,459	-8,622	264,861	128,200
11,473	-8,611	264,403	127,977
12,488	-8,672	263,890	127,661
13,502	-8,882	263,270	127,159
14,517	-8,563	263,041	127,327
15,531	-8,172	262,725	127,517
16,546	-8,004	262,426	127,513
17,561	-8,252	262,125	127,131
18,575	-8,024	261,813	127,174
19,590	-8,096	261,504	126,947
20,604	-7,764	261,090	127,035
21,619	-8,139	260,845	126,567
22,634	-8,048	260,479	126,459
23,648	-8,172	260,299	126,249
24,663	-8,316	260,013	125,971
25,677	-8,030	259,639	126,034
26,692	-8,038	259,467	125,932
27,707	-7,981	259,124	125,805
28,721	-8,126	259,042	125,625
29,736	-8,159	258,828	125,480
30,750	-8,079	258,345	125,306
31,765	-8,047	258,124	125,216
32,780	-7,891	257,914	125,242
33,794	-8,048	257,713	124,994
34,809	-8,108	257,502	124,827
35,823	-8,014	257,283	124,793
36,838	-8,246	256,991	124,435
37,853	-8,221	256,851	124,378
38,867	-8,158	256,464	124,235
39,882	-8,317	256,342	124,025
40,896	-8,086	256,018	124,061
41,911	-7,902	255,792	124,102
42,926	-8,095	255,567	123,812
43,940	-8,183	255,392	123,639
44,955	-8,208	255,081	123,455
45,969	-8,213	254,854	123,331
46,984	-8,278	254,694	123,185
47,999	-8,518	254,530	122,884
49,013	-8,436	254,237	122,803
50,028	-8,686	253,983	122,451
51,042	-8,594	253,678	122,373
52,057	-8,844	253,565	122,091
53,071	-8,591	253,342	122,193
54,086	-8,690	253,279	122,065
55,101	-8,517	253,092	122,114
56,115	-8,455	252,783	122,008
57,130	-8,207	252,732	122,188
58,144	-8,165	252,414	122,060
59,159	-8,051	252,231	122,060
60,174	-8,059	251,869	121,867
61,188	-8,218	251,875	121,721
62,203	-8,204	251,732	121,653
63,217	-8,292	251,551	121,479
64,232	-8,307	251,240	121,305
65,247	-8,196	250,953	121,251
66,261	-8,321	250,751	121,035
67,276	-8,345	250,496	120,881
68,290	-8,470	250,250	120,644
69,305	-8,835	250,139	120,266
70,320	-8,627	249,811	120,276
71,334	-8,307	249,801	120,535
72,349	-8,269	249,581	120,450
73,363	-8,276	249,409	120,350
74,378	-8,106	249,121	120,346
75,393	-8,121	248,946	120,239
76,407	-8,184	248,808	120,107
77,422	-8,130	248,644	120,063
78,436	-8,285	248,435	119,819
79,451	-8,060	248,037	119,808
80,466	-8,229	247,902	119,589
81,480	-8,246	247,536	119,387
82,495	-8,329	247,508	119,292
83,509	-8,098	247,344	119,399
84,524	-8,186	247,255	119,271
85,539	-8,275	246,843	118,986
86,553	-8,285	246,673	118,884
87,568	-8,420	246,617	118,733
88,582	-8,302	246,352	118,694
89,597	-8,263	246,000	118,547
90,611	-8,387	246,039	118,451
91,626	-8,243	245,916	118,503
92,641	-8,415	245,732	118,259
93,655	-8,092	245,404	118,361
94,670	-8,308	245,311	118,125
95,684	-8,281	244,967	117,971
96,699	-8,285	244,898	117,924
97,714	-8,422	244,572	117,642
98,728	-8,560	244,633	117,545
99,743	-8,307	244,370	117,620
100,757	-8,379	244,080	117,410
101,772	-8,528	243,755	117,119
102,787	-8,498	243,573	117,046
103,801	-8,439	243,508	117,053
104,816	-8,365	243,365	117,036
105,830	-8,220	243,281	117,105
106,845	-8,501	243,055	116,752
107,860	-8,375	242,761	116,705
108,874	-8,550	242,677	116,510
109,889	-8,427	242,308	116,424
110,903	-8,692	242,196	116,140
111,918	-8,648	241,943	116,045
112,933	-8,636	241,907	116,027
113,947	-8,456	241,819	116,123
114,962	-8,503	241,465	115,904
115,976	-8,290	241,325	116,003
116,991	-8,292	241,177	115,919
118,006	-8,297	241,076	115,857
119,020	-8,214	240,880	115,820
120,035	-8,218	240,917	115,825
121,049	-8,256	240,693	115,676
122,064	-8,627	240,463	115,249
123,079	-8,221	240,153	115,424
124,093	-8,558	239,994	115,060
125,108	-8,626	239,887	114,943
126,122	-8,653	239,718	114,830
127,137	-8,445	239,523	114,896
128,151	-8,735	239,212	114,500
129,166	-8,529	238,996	114,554
130,181	-8,598	238,930	114,457
131,195	-8,676	238,625	114,237
132,210	-8,565	238,438	114,228
133,224	-8,413	238,326	114,288
134,239	-8,550	238,157	114,085
135,254	-8,339	237,849	114,098
136,268	-8,475	237,653	113,884
137,283	-8,804	237,652	113,606
138,297	-8,747	237,418	113,530
139,312	-8,774	237,012	113,304
140,327	-8,655	237,165	113,463
141,341	-8,200	237,173	113,825
142,356	-8,305	236,839	113,571
143,370	-8,335	236,689	113,464
144,385	-8,060	236,541	113,605
145,400	-8,022	236,387	113,552
146,414	-7,984	236,144	113,456
147,429	-8,070	236,064	113,338
148,443	-8,458	235,989	112,978
149,458	-8,257	235,698	112,991
150,473	-8,239	235,474	112,888
151,487	-8,493	235,338	112,609
152,502	-8,337	235,114	112,617
153,516	-7,915	235,051	112,915
154,531	-8,241	234,877	112,560
155,546	-8,339	234,719	112,396
156,560	-8,267	234,560	112,367
157,575	-8,415	234,178	112,056
158,589	-8,509	234,008	111,890
159,604	-8,192	233,993	112,125
160,619	-7,740	233,641	112,307
161,633	-7,714	233,686	112,339
162,648	-7,876	233,536	112,128
163,662	-8,229	233,258	111,704
164,677	-8,303	233,180	111,598
165,692	-7,840	232,825	111,785
166,706	-7,938	232,828	111,699
167,721	-7,721	232,777	111,836
168,735	-7,981	232,725	111,596
169,750	-8,063	232,335	111,334
170,764	-8,266	232,225	111,110
171,779	-8,323	232,099	110,995
172,794	-8,283	232,035	110,986
173,808	-8,380	231,722	110,750
174,823	-8,720	231,566	110,398
175,837	-8,579	231,221	110,335
176,852	-8,566	231,163	110,308
177,867	-8,296	231,061	110,461
178,881	-8,154	230,893	110,483
179,896	-8,179	230,821	110,418
180,910	-8,044	230,632	110,424
181,925	-8,286	230,634	110,226
182,940	-8,273	230,343	110,087
183,954	-8,260	230,278	110,056
184,969	-7,857	230,000	110,228
185,983	-7,909	230,026	110,190
186,998	-7,801	229,762	110,138
188,013	-7,917	229,628	109,974
189,027	-8,013	229,402	109,782
190,042	-7,838	229,247	109,833
191,056	-7,858	229,146	109,760
192,071	-8,042	228,925	109,501
193,086	-8,409	228,677	109,088
194,100	-9,016	228,300	108,426
195,115	-10,476	227,528	106,922
196,129	-10,767	227,499	106,674
197,144	-6,109	228,985	110,983
198,159	-0,803	230,626	115,914
199,173	2,572	231,412	118,937
200,188	3,317	231,558	119,585
201,202	3,623	231,635	119,852
202,217	4,036	231,346	120,014
203,232	4,231	231,230	120,095
204,246	4,291	231,197	120,113
205,261	4,188	230,930	119,884
206,275	4,154	230,902	119,833
207,290	4,246	230,554	119,713
208,304	3,936	230,538	119,453
209,319	4,227	230,254	119,521
210,334	3,979	230,241	119,311
211,348	3,837	229,886	119,007
212,363	3,328	229,466	118,385
213,377	3,191	229,394	118,232
214,392	3,062	229,165	118,004
215,407	2,888	228,938	117,742
216,421	2,786	228,859	117,612
217,436	2,731	228,675	117,465
218,450	2,742	228,455	117,349
219,465	2,687	228,252	117,193
220,480	2,610	228,202	117,097
221,494	2,762	228,117	117,160
222,509	2,812	228,041	117,149
223,523	2,867	227,967	117,143
224,538	2,790	227,648	116,909
225,553	2,732	227,589	116,824
226,567	2,961	227,389	116,887
227,582	3,017	227,171	116,807
228,596	3,002	227,126	116,762
229,611	2,800	227,009	116,537
230,626	2,739	226,834	116,390
231,640	2,652	226,622	116,205
232,655	2,987	226,394	116,333
233,669	3,097	226,361	116,389
234,684	3,132	226,136	116,289
235,699	3,069	226,136	116,232
236,713	3,071	225,967	116,135
237,728	3,376	225,629	116,182
238,742	3,075	225,742	116,002
239,757	3,156	225,515	115,937
240,772	3,272	225,370	115,940
241,786	3,414	225,232	115,966
242,801	3,435	225,207	115,958
243,815	3,577	225,097	115,999
244,830	3,585	224,919	115,903
245,844	3,295	224,684	115,553
246,859	3,347	224,558	115,517
247,874	3,329	224,312	115,366
248,888	3,656	224,033	115,458
249,903	3,155	224,046	115,078
250,917	3,051	223,912	114,921
251,932	3,119	223,931	114,971
252,947	3,245	223,568	114,869
253,961	3,157	223,349	114,681
254,976	3,217	223,330	114,705
255,990	3,295	223,210	114,692
257,005	3,066	223,158	114,484
258,020	3,247	222,979	114,517
259,034	3,382	222,824	114,528
260,049	3,376	222,697	114,448
261,063	3,219	222,534	114,236
262,078	3,368	222,383	114,260
263,093	3,459	222,170	114,209
264,107	3,215	222,040	113,950
265,122	3,321	222,053	114,025
266,136	3,128	221,875	113,780
267,151	3,462	221,683	113,920
268,166	3,475	221,437	113,792
269,180	3,185	221,231	113,462
270,195	3,134	221,257	113,427
271,209	3,245	220,827	113,279
272,224	2,991	220,908	113,122
273,239	3,024	220,667	113,012
274,253	2,990	220,595	112,941
275,268	3,062	220,331	112,849
276,282	3,054	220,163	112,747
277,297	2,981	219,979	112,589
278,312	3,002	219,867	112,537
279,326	3,029	219,936	112,582
280,341	2,991	219,845	112,497
281,355	3,217	219,646	112,552
282,370	2,892	219,430	112,192
283,384	2,938	219,320	112,160
284,399	3,082	219,046	112,116
285,414	2,976	219,069	112,039
286,428	3,228	218,986	112,172
287,443	3,252	218,846	112,107
288,457	3,143	218,634	111,909
289,472	3,094	218,457	111,773
290,487	2,880	218,361	111,557
291,501	2,856	218,131	111,412
292,516	2,986	217,978	111,419
293,530	3,136	217,851	111,453
294,545	3,098	217,784	111,382
295,560	3,128	217,739	111,371
296,574	3,335	217,502	111,390
297,589	3,249	217,495	111,314
298,603	3,352	217,224	111,240
299,618	3,432	216,990	111,169
300,633	3,411	216,917	111,105
301,647	3,527	216,927	111,185
302,662	3,626	216,785	111,174
303,676	3,495	216,537	110,942
304,691	3,633	216,257	110,889
305,706	3,298	216,353	110,686
306,720	3,202	216,239	110,548
307,735	3,299	216,018	110,495
308,749	3,295	215,847	110,395
309,764	3,308	215,824	110,382
310,779	3,130	215,620	110,140
311,793	3,266	215,299	110,065
312,808	3,273	215,272	110,046
313,822	3,269	215,193	109,993
314,837	3,035	215,059	109,746
315,852	2,891	214,878	109,541
316,866	3,250	214,732	109,714
317,881	3,233	214,535	109,592
318,895	3,298	214,412	109,566
319,910	2,899	214,396	109,262
320,925	3,086	213,941	109,154
321,939	2,904	213,972	109,030
322,954	2,949	213,880	109,005
323,968	3,078	213,775	109,034
324,983	3,356	213,632	109,150
325,997	3,187	213,519	108,962
327,012	2,950	213,348	108,696
328,027	3,075	213,158	108,679
329,041	3,062	213,026	108,593
330,056	3,279	212,941	108,694
331,070	3,160	212,685	108,469
332,085	3,044	212,541	108,304
333,100	2,944	212,564	108,235
334,114	3,218	212,339	108,304
335,129	3,078	212,241	108,146
336,143	2,856	212,158	107,937
337,158	3,082	211,825	107,917
338,173	2,964	211,960	107,893
339,187	2,916	211,734	107,735
340,202	3,006	211,446	107,642
341,216	2,897	211,217	107,439
342,231	3,169	211,304	107,665
343,246	3,006	211,132	107,453
344,260	3,260	210,887	107,498
345,275	3,201	210,927	107,467
346,289	3,182	210,851	107,405
347,304	3,214	210,697	107,339
348,319	3,001	210,594	107,128
349,333	2,956	210,370	106,973
350,348	3,221	210,289	107,108
351,362	3,077	210,085	106,894
352,377	3,415	209,932	107,043
353,392	3,255	209,883	106,897
354,406	3,040	209,672	106,629
355,421	193,793	1341,107	1427,003
356,435	154,676	1479,007	1427,059
