DTS Sentinel unit serial number:	SN410029Multiplexer serial number:	ORYXHardware model number:	OX2-SRSoftware version number:	ORYX F/W v4,00 Oryx Data Collector v3.7.2.0data status	okinstallation	B6 Nyhavnadifferential loss correction	single-endedforward channel	channel 2reverse channel	N/Adate	2023/12/09time	19:05:08forward acquisition time	300,00reverse acquisition time	0,00gamma	499,1914k internal	0,3130k external	0,3130temperature offset calibration	1,0000default loss term (dB/km)	0,3820temperature slope calibration	1,0000multiplexer offset coefficient	1,0000multiplexer slope coefficient	1,0000fibre end	0,00T internal ref (°C)	21,06T ext. ref 1 (°C)	4,80T ext. ref 2 (°C)	4,79length (m)	temperature (°C)	Stokes	anti-Stokes-744,400	516,142	0,071	-0,124
-743,385	-28,644	-0,178	0,076
-742,371	-48,557	0,076	0,027
-741,356	133,953	-0,144	0,139
-740,342	39,481	0,089	0,059
-739,327	-19,810	-0,296	0,136
-738,312	800,000	0,049	-0,130
-737,298	1,113	-0,176	-0,094
-736,283	292,084	-0,083	-0,113
-735,269	105,206	-0,213	0,187
-734,254	-32,094	0,099	0,041
-733,239	1,168	-0,333	-0,177
-732,225	510,690	0,094	-0,163
-731,210	-200,000	0,002	0,068
-730,196	-17,315	0,065	0,030
-729,181	210,969	-0,143	-0,168
-728,167	100,707	0,030	-0,026
-727,152	-28,282	-0,041	-0,017
-726,137	-200,000	0,002	-0,171
-725,123	800,000	0,044	-0,096
-724,108	3,138	-0,207	-0,111
-723,094	119,932	-0,022	-0,020
-722,079	-43,793	-0,062	-0,023
-721,064	113,460	-0,005	0,005
-720,050	-57,789	-0,116	0,037
-719,035	-200,000	-0,015	-0,068
-718,021	-119,640	-0,161	0,020
-717,006	90,268	-0,095	-0,079
-715,991	-200,000	0,018	-0,226
-714,977	294,992	0,056	-0,076
-713,962	306,566	-0,044	-0,062
-712,948	16,023	-0,092	-0,054
-711,933	-200,000	0,014	0,066
-710,918	-119,032	-0,021	0,003
-709,904	-200,000	-0,043	-0,243
-708,889	93,774	0,059	-0,050
-707,875	300,348	-0,121	-0,167
-706,860	-200,000	-0,052	-0,195
-705,845	-85,642	-0,162	-0,037
-704,831	-7,339	-0,044	0,022
-703,816	800,000	0,056	0,152
-702,802	-17,184	0,111	0,052
-701,787	199,760	-0,035	0,040
-700,772	-49,663	-0,048	0,017
-699,758	0,961	0,056	-0,030
-698,743	89,941	-0,059	-0,049
-697,729	-130,044	-0,067	0,007
-696,714	202,145	-0,099	0,113
-695,699	263,871	0,114	-0,148
-694,685	-131,309	-0,195	-0,019
-693,670	-84,250	-0,019	-0,004
-692,656	-200,000	0,014	0,077
-691,641	-32,647	0,168	0,069
-690,627	-52,301	0,087	0,030
-689,612	-115,717	0,040	-0,006
-688,597	688,388	-0,007	-0,015
-687,583	800,000	0,017	-0,041
-686,568	-200,000	0,033	-0,220
-685,554	136,844	-0,048	0,046
-684,539	800,000	-0,016	0,037
-683,524	104,101	-0,076	0,066
-682,510	-200,000	0,008	0,046
-681,495	-6,906	-0,057	-0,029
-680,481	142,409	-0,030	-0,030
-679,466	252,713	-0,012	-0,015
-678,451	-55,969	0,129	-0,042
-677,437	800,000	-0,077	-0,211
-676,422	-171,081	0,122	0,003
-675,408	-200,000	-0,005	0,056
-674,393	-200,000	-0,019	0,135
-673,378	-131,068	-0,089	0,009
-672,364	467,408	-0,030	-0,050
-671,349	788,735	0,036	-0,073
-670,335	257,268	-0,084	-0,107
-669,320	-165,523	0,059	-0,002
-668,305	143,040	-0,017	-0,017
-667,291	800,000	-0,006	-0,018
-666,276	-200,000	-0,009	0,105
-665,262	-200,000	-0,021	-0,145
-664,247	800,000	-0,071	-0,223
-663,232	77,353	-0,080	0,063
-662,218	-191,146	0,091	-0,001
-661,203	240,767	-0,083	-0,103
-660,189	174,539	-0,025	-0,027
-659,174	-200,000	0,013	-0,069
-658,159	-2,856	-0,127	-0,065
-657,145	-46,073	-0,113	0,041
-656,130	-141,819	-0,085	0,006
-655,116	311,326	0,045	0,062
-654,101	-125,182	0,068	-0,008
-653,086	-200,000	-0,027	0,099
-652,072	601,799	-0,081	-0,151
-651,057	272,373	-0,109	-0,143
-650,043	-200,000	-0,024	-0,118
-649,028	-200,000	0,003	0,012
-648,014	97,606	-0,009	-0,007
-646,999	-84,163	0,091	-0,021
-645,984	139,627	0,072	0,070
-644,970	-200,000	0,012	-0,105
-643,955	-200,000	-0,030	-0,100
-642,941	474,379	0,017	-0,028
-641,926	-70,475	0,062	-0,017
-640,911	-200,000	0,058	0,000
-639,897	-200,000	-0,003	0,072
-638,882	800,000	-0,020	-0,047
-637,868	-125,027	-0,196	-0,022
-636,853	-200,000	0,003	-0,088
-635,838	-3,752	-0,073	-0,038
-634,824	-72,005	0,036	-0,010
-633,809	-200,000	0,007	0,057
-632,795	-200,000	-0,017	0,175
-631,780	116,243	0,062	0,056
-630,765	-200,000	0,013	-0,066
-629,751	-200,000	-0,006	-0,047
-628,736	-200,000	0,003	-0,183
-627,722	-115,739	-0,118	-0,016
-626,707	450,111	-0,045	-0,074
-625,692	178,044	-0,066	-0,072
-624,678	-37,111	-0,056	-0,022
-623,663	-200,000	-0,010	0,095
-622,649	-21,737	0,034	0,015
-621,634	-200,000	-0,020	-0,095
-620,619	-42,878	-0,085	0,032
-619,605	463,893	-0,050	-0,084
-618,590	-57,840	-0,071	-0,023
-617,576	800,000	0,054	0,146
-616,561	-200,000	-0,078	-0,000
-615,546	800,000	0,034	-0,071
-614,532	-154,076	-0,061	0,003
-613,517	322,578	0,070	0,098
-612,503	-121,576	0,068	-0,008
-611,488	218,532	-0,101	0,120
-610,474	170,348	0,066	0,070
-609,459	163,103	-0,037	-0,039
-608,444	-200,000	0,000	0,009
-607,430	317,101	0,089	-0,125
-606,415	289,491	-0,043	0,058
-605,401	-70,885	-0,045	-0,012
-604,386	-112,409	0,094	-0,014
-603,371	-152,598	0,141	0,007
-602,357	800,000	0,027	-0,075
-601,342	334,030	0,020	0,029
-600,328	-200,000	0,009	-0,147
-599,313	-11,287	0,034	0,016
-598,298	800,000	0,016	0,043
-597,284	207,398	0,055	-0,063
-596,269	15,832	0,076	-0,044
-595,255	800,000	0,060	-0,130
-594,240	576,537	-0,098	-0,178
-593,225	800,000	-0,064	-0,153
-592,211	800,000	0,025	0,052
-591,196	800,000	-0,036	0,095
-590,182	103,494	-0,022	0,019
-589,167	434,746	0,038	-0,062
-588,152	159,552	-0,092	-0,094
-587,138	-113,312	-0,146	0,021
-586,123	252,326	-0,046	-0,058
-585,109	198,162	0,069	0,078
-584,094	499,630	-0,039	-0,067
-583,079	-200,000	0,031	0,159
-582,065	-22,809	0,090	-0,040
-581,050	195,780	0,067	0,076
-580,036	-200,000	0,011	0,099
-579,021	-165,991	-0,128	0,004
-578,006	397,467	-0,085	-0,132
-576,992	-200,000	-0,024	0,089
-575,977	-139,362	-0,085	-0,007
-574,963	120,492	0,116	0,106
-573,948	58,530	-0,062	-0,045
-572,934	-56,488	0,012	0,004
-571,919	-90,409	0,126	0,027
-570,904	800,000	-0,058	-0,135
-569,890	-134,852	0,072	0,006
-568,875	-200,000	-0,002	-0,067
-567,861	800,000	-0,019	0,052
-566,846	171,557	0,070	0,075
-565,831	-109,199	0,134	-0,021
-564,817	-42,899	-0,113	-0,042
-563,802	-200,000	-0,033	-0,125
-562,788	43,476	-0,045	-0,030
-561,773	-193,916	0,078	-0,000
-560,758	-200,000	0,017	0,189
-559,744	-29,324	0,102	0,043
-558,729	-99,043	0,040	-0,007
-557,715	-101,456	-0,096	-0,017
-556,700	243,036	-0,056	-0,069
-555,685	-41,548	-0,092	-0,035
-554,671	800,000	0,013	-0,037
-553,656	-200,000	-0,022	0,201
-552,642	315,899	0,091	0,127
-551,627	800,000	-0,037	-0,083
-550,612	210,536	0,062	-0,072
-549,598	-82,410	0,043	0,010
-548,583	-72,506	-0,101	-0,027
-547,569	-45,096	0,016	-0,006
-546,554	44,475	0,044	-0,030
-545,539	-200,000	0,002	0,082
-544,525	-60,296	-0,084	0,026
-543,510	-80,105	-0,064	-0,016
-542,496	14,193	-0,013	0,007
-541,481	-123,326	-0,133	-0,015
-540,466	287,823	-0,036	0,048
-539,452	-31,184	-0,066	0,027
-538,437	-200,000	-0,013	0,113
-537,423	800,000	-0,034	-0,077
-536,408	596,773	0,025	0,045
-535,393	123,803	-0,096	-0,089
-534,379	320,127	-0,096	-0,135
-533,364	80,356	0,038	-0,030
-532,350	306,640	0,059	-0,081
-531,335	16,021	0,095	-0,055
-530,321	544,228	-0,079	-0,140
-529,306	6,288	-0,024	0,013
-528,291	-34,342	-0,089	0,036
-527,277	-56,373	0,097	0,032
-526,262	-103,151	-0,059	0,010
-525,248	800,000	-0,029	0,061
-524,233	614,126	0,086	0,160
-523,218	800,000	-0,042	0,107
-522,204	800,000	0,056	0,118
-521,189	272,812	-0,119	-0,155
-520,175	28,956	-0,050	-0,031
-519,160	206,932	-0,073	-0,084
-518,145	-84,418	-0,096	-0,022
-517,131	-10,983	0,120	0,058
-516,116	-96,685	0,070	0,013
-515,102	-40,120	-0,133	-0,051
-514,087	677,188	0,047	-0,091
-513,072	800,000	-0,014	-0,039
-512,058	300,365	0,072	-0,098
-511,043	-200,000	-0,011	-0,080
-510,029	-200,000	-0,012	0,099
-509,014	-200,000	-0,011	-0,080
-507,999	285,680	0,032	0,043
-506,985	460,281	0,095	-0,157
-505,970	-200,000	0,014	-0,099
-504,956	-125,456	0,097	0,011
-503,941	40,480	0,054	-0,036
-502,926	-200,000	-0,016	-0,122
-501,912	-200,000	-0,022	0,123
-500,897	-200,000	0,006	-0,029
-499,883	196,950	0,049	-0,055
-498,868	779,851	-0,023	-0,046
-497,853	436,517	0,023	-0,037
-496,839	5,855	-0,054	-0,029
-495,824	186,523	0,075	0,082
-494,810	76,631	0,026	-0,020
-493,795	49,875	0,085	-0,059
-492,781	-200,000	0,020	-0,113
-491,766	44,840	-0,083	-0,056
-490,751	218,974	-0,017	0,020
-489,737	800,000	0,015	0,043
-488,722	-200,000	-0,027	-0,122
-487,708	-69,329	-0,036	0,010
-486,693	291,509	-0,089	0,119
-485,678	-46,701	0,044	-0,016
-484,664	800,000	0,066	-0,163
-483,649	723,081	-0,025	0,049
-482,635	-54,711	-0,068	0,023
-481,620	-67,078	-0,061	0,018
-480,605	-200,000	-0,006	-0,024
-479,591	85,801	0,012	0,010
-478,576	53,605	-0,068	0,048
-477,562	-4,869	0,057	-0,029
-476,547	-200,000	0,015	-0,186
-475,532	800,000	0,017	0,037
-474,518	-200,000	0,001	-0,044
-473,503	-19,737	-0,125	0,056
-472,489	-200,000	0,010	-0,117
-471,474	-84,612	-0,070	-0,016
-470,459	-200,000	0,014	0,061
-469,445	-200,000	0,006	-0,046
-468,430	521,112	0,048	-0,084
-467,416	134,444	-0,032	0,031
-466,401	-200,000	0,026	0,154
-465,386	-138,801	-0,067	0,005
-464,372	-137,917	0,036	-0,003
-463,357	800,000	0,029	0,075
-462,343	91,104	-0,007	-0,006
-461,328	-200,000	-0,013	0,067
-460,313	-200,000	-0,055	0,212
-459,299	122,463	0,104	-0,095
-458,284	240,326	-0,033	0,040
-457,270	-91,936	0,139	-0,029
-456,255	273,251	0,171	0,223
-455,241	427,165	-0,047	0,074
-454,226	358,933	0,036	0,054
-453,211	100,454	0,040	0,035
-452,197	4,829	0,106	0,057
-451,182	9,270	0,026	0,014
-450,168	800,000	-0,019	0,061
-449,153	-83,792	-0,048	-0,011
-448,138	23,119	-0,194	-0,117
-447,124	285,348	-0,065	-0,087
-446,109	800,000	-0,029	0,086
-445,095	63,311	0,033	-0,024
-444,080	-23,085	-0,151	-0,067
-443,065	-144,531	0,086	-0,006
-442,051	48,197	-0,051	-0,035
-441,036	143,832	0,035	-0,034
-440,022	498,018	-0,055	-0,093
-439,007	98,082	0,069	0,058
-437,992	-200,000	0,024	0,154
-436,978	-200,000	-0,011	0,055
-435,963	-200,000	0,011	0,086
-434,949	800,000	-0,023	-0,059
-433,934	-69,642	-0,101	-0,028
-432,919	-112,826	0,076	0,011
-431,905	-150,092	0,154	-0,009
-430,890	-200,000	0,001	0,026
-429,876	40,410	0,099	0,066
-428,861	-200,000	0,011	-0,064
-427,846	72,635	0,039	0,030
-426,832	-73,364	-0,063	0,017
-425,817	-67,275	0,152	-0,044
-424,803	71,042	0,044	0,033
-423,788	800,000	0,013	0,035
-422,773	-200,000	0,018	-0,075
-421,759	-23,355	0,013	-0,006
-420,744	791,753	0,050	0,101
-419,730	330,702	-0,041	-0,058
-418,715	538,405	0,109	0,190
-417,701	800,000	0,026	-0,066
-416,686	-200,000	-0,003	0,055
-415,671	343,417	-0,065	-0,093
-414,657	-200,000	0,013	0,063
-413,642	486,395	-0,061	0,102
-412,628	308,873	0,020	0,028
-411,613	115,992	-0,108	0,097
-410,598	344,145	0,013	0,019
-409,584	343,362	0,072	0,103
-408,569	-200,000	-0,072	0,000
-407,555	-78,219	-0,062	0,016
-406,540	-200,000	0,038	-0,139
-405,525	-87,672	-0,022	0,005
-404,511	24,342	-0,202	0,122
-403,496	800,000	0,020	0,043
-402,482	76,081	0,072	-0,056
-401,467	-17,504	-0,057	0,026
-400,452	-63,162	0,132	-0,040
-399,438	41,684	-0,060	0,039
-398,423	308,690	0,024	0,033
-397,409	433,050	-0,027	0,043
-396,394	-68,625	-0,030	-0,008
-395,379	9,668	0,136	0,075
-394,365	-200,000	0,029	0,129
-393,350	74,539	0,008	0,006
-392,336	-200,000	-0,011	-0,044
-391,321	39,083	-0,106	-0,070
-390,306	353,575	0,026	-0,039
-389,292	14,434	0,049	-0,028
-388,277	45,841	0,111	-0,075
-387,263	-53,871	0,081	-0,027
-386,248	236,853	-0,085	-0,103
-385,233	179,882	-0,053	-0,057
-384,219	-200,000	0,007	0,108
-383,204	-200,000	-0,014	-0,156
-382,190	-17,914	-0,134	-0,061
-381,175	15,597	-0,065	0,038
-380,160	-200,000	-0,018	0,081
-379,146	207,135	0,037	-0,043
-378,131	800,000	-0,058	-0,123
-377,117	-60,843	-0,061	-0,019
-376,102	82,858	-0,104	0,083
-375,088	-59,738	-0,015	0,005
-374,073	800,000	-0,047	-0,098
-373,058	145,313	0,079	0,077
-372,044	117,409	0,073	0,066
-371,029	800,000	0,030	0,095
-370,015	5,613	0,028	-0,015
-369,000	-200,000	0,010	-0,035
-367,985	800,000	-0,017	-0,046
-366,971	-125,033	-0,024	0,003
-365,956	-200,000	0,022	-0,075
-364,942	800,000	0,034	0,076
-363,927	135,486	0,053	0,051
-362,912	266,560	-0,042	-0,053
-361,898	0,493	-0,126	-0,066
-360,883	386,713	-0,057	0,087
-359,869	11,012	-0,124	-0,069
-358,854	63,288	0,091	0,067
-357,839	144,205	-0,092	0,090
-356,825	-119,173	0,221	-0,028
-355,810	800,000	0,041	-0,091
-354,796	49,594	-0,029	-0,020
-353,781	800,000	0,005	0,012
-352,766	11,796	0,103	0,058
-351,752	-200,000	0,016	-0,084
-350,737	-50,372	0,135	0,047
-349,723	181,822	0,051	-0,055
-348,708	-8,175	-0,079	-0,039
-347,693	-125,718	-0,130	-0,014
-346,679	800,000	-0,027	0,087
-345,664	800,000	0,015	-0,033
-344,650	-136,011	0,108	0,009
-343,635	800,000	0,037	0,098
-342,620	88,864	-0,063	0,051
-341,606	-5,429	0,051	-0,026
-340,591	110,455	0,052	-0,046
-339,577	-200,000	-0,006	-0,129
-338,562	-86,951	-0,114	0,025
-337,548	39,542	0,090	-0,059
-336,533	-181,080	0,055	-0,001
-335,518	-200,000	-0,016	0,062
-334,504	-14,949	0,056	0,026
-333,489	-200,000	-0,001	0,062
-332,475	396,445	0,035	0,053
-331,460	-64,641	0,110	-0,033
-330,445	645,461	-0,065	-0,123
-329,431	66,021	-0,003	-0,003
-328,416	-200,000	-0,015	0,128
-327,402	617,608	0,046	0,085
-326,387	-32,655	0,155	-0,063
-325,372	800,000	-0,031	0,087
-324,358	-107,398	0,102	0,016
-323,343	-200,000	-0,022	-0,072
-322,329	123,110	-0,107	-0,098
-321,314	-22,739	0,209	-0,092
-320,299	147,109	0,030	0,030
-319,285	223,583	-0,112	0,133
-318,270	800,000	-0,034	0,093
-317,256	110,069	-0,119	-0,105
-316,241	-200,000	0,006	0,085
-315,226	-4,332	-0,039	0,020
-314,212	30,054	0,186	-0,116
-313,197	56,907	-0,052	-0,037
-312,183	-200,000	0,041	-0,145
-311,168	-69,197	0,030	-0,008
-310,153	249,012	-0,083	-0,103
-309,139	-200,000	0,005	-0,110
-308,124	-200,000	-0,010	-0,049
-307,110	30,636	0,139	-0,087
-306,095	-112,062	-0,090	0,013
-305,080	-200,000	-0,009	-0,033
-304,066	800,000	0,011	-0,025
-303,051	33,856	-0,026	-0,017
-302,037	-200,000	0,010	-0,041
-301,022	-200,000	0,035	0,000
-300,008	-200,000	0,020	-0,066
-298,993	190,553	0,033	0,036
-297,978	357,883	-0,081	-0,119
-296,964	-23,500	-0,016	-0,007
-295,949	-76,336	0,110	-0,028
-294,935	800,000	-0,022	0,061
-293,920	443,039	-0,028	-0,045
-292,905	43,288	0,039	-0,026
-291,891	52,466	0,151	0,105
-290,876	-140,177	0,118	-0,009
-289,862	-200,000	0,042	-0,159
-288,847	-200,000	-0,001	-0,056
-287,832	54,971	0,047	-0,033
-286,818	60,215	0,050	0,036
-285,803	-200,000	-0,019	0,141
-284,789	-194,775	0,122	-0,001
-283,774	444,847	0,046	0,074
-282,759	109,440	-0,113	-0,099
-281,745	-200,000	-0,023	0,093
-280,730	-200,000	-0,008	0,140
-279,716	-140,727	0,043	-0,003
-278,701	612,119	0,031	-0,056
-277,686	-200,000	0,039	0,194
-276,672	-103,309	0,072	0,012
-275,657	800,000	0,045	0,124
-274,643	-90,977	-0,037	-0,008
-273,628	143,904	-0,085	0,082
-272,613	338,860	0,020	0,029
-271,599	-32,604	0,067	-0,027
-270,584	800,000	-0,016	0,044
-269,570	800,000	-0,027	0,072
-268,555	-200,000	0,004	-0,017
-267,540	44,922	-0,048	-0,033
-266,526	-200,000	-0,027	0,115
-265,511	-142,852	-0,055	-0,004
-264,497	-200,000	0,021	0,170
-263,482	-34,055	0,105	-0,042
-262,467	-200,000	0,012	-0,138
-261,453	27,226	-0,075	-0,046
-260,438	800,000	-0,030	0,083
-259,424	800,000	-0,031	0,071
-258,409	-75,778	-0,050	-0,013
-257,395	-108,618	0,145	0,023
-256,380	-200,000	-0,023	0,181
-255,365	-200,000	-0,030	0,114
-254,351	-200,000	0,022	0,218
-253,336	-155,636	0,020	0,001
-252,322	800,000	0,039	0,089
-251,307	-200,000	-0,008	-0,077
-250,292	-200,000	0,014	-0,126
-249,278	226,131	-0,064	-0,076
-248,263	-200,000	0,020	-0,079
-247,249	250,278	-0,106	0,132
-246,234	595,628	0,024	-0,044
-245,219	228,747	0,050	-0,059
-244,205	-59,864	0,046	0,014
-243,190	-200,000	-0,006	-0,039
-242,176	-70,631	0,153	0,042
-241,161	-94,747	0,082	0,016
-240,146	-72,527	-0,078	-0,021
-239,132	41,262	-0,038	0,025
-238,117	94,843	-0,094	-0,078
-237,103	366,516	-0,041	0,060
-236,088	40,336	-0,066	0,043
-235,073	544,572	-0,017	-0,030
-234,059	118,966	-0,042	0,038
-233,044	800,000	-0,108	0,265
-232,030	101,056	0,124	-0,105
-231,015	223,522	0,105	-0,124
-230,000	800,000	0,026	-0,072
-228,986	14,864	0,040	0,023
-227,971	44,217	0,132	-0,088
-226,957	-200,000	-0,002	0,034
-225,942	-200,000	-0,003	-0,033
-224,927	691,015	-0,031	-0,060
-223,913	-110,168	0,041	-0,006
-222,898	-200,000	0,002	-0,014
-221,884	363,926	0,054	0,080
-220,869	-200,000	0,026	0,102
-219,855	-6,593	0,110	0,054
-218,840	-57,380	0,074	0,023
-217,825	-200,000	0,008	-0,071
-216,811	205,645	-0,055	-0,062
-215,796	544,222	-0,068	-0,119
-214,782	-200,000	0,031	-0,105
-213,767	-5,583	0,106	-0,053
-212,752	514,030	0,046	0,078
-211,738	-200,000	-0,028	-0,097
-210,723	116,681	0,098	-0,088
-209,709	68,742	-0,094	-0,070
-208,694	-137,230	-0,041	-0,003
-207,679	-200,000	-0,009	-0,100
-206,665	-200,000	0,008	0,237
-205,650	-116,286	0,153	-0,020
-204,636	-200,000	0,024	0,151
-203,621	-105,253	0,098	0,016
-202,606	800,000	-0,024	0,051
-201,592	-84,471	-0,150	-0,034
-200,577	-200,000	-0,023	-0,127
-199,563	-200,000	-0,005	-0,070
-198,548	-41,622	-0,056	-0,021
-197,533	51,461	-0,020	-0,014
-196,519	-200,000	0,000	-0,100
-195,504	-179,113	-0,063	-0,001
-194,490	-154,479	-0,071	0,003
-193,475	476,554	0,007	0,012
-192,460	588,528	-0,008	0,014
-191,446	204,184	0,038	0,043
-190,431	86,569	0,091	0,073
-189,417	-59,570	-0,058	0,018
-188,402	-33,465	0,148	0,059
-187,387	295,949	0,069	-0,092
-186,373	223,056	0,062	0,072
-185,358	-200,000	0,006	-0,083
-184,344	-95,163	-0,119	0,023
-183,329	33,484	-0,129	0,081
-182,315	-111,033	-0,170	-0,025
-181,300	800,000	-0,025	-0,062
-180,285	-81,262	-0,105	-0,025
-179,271	-73,511	-0,172	0,045
-178,256	-200,000	-0,001	0,081
-177,242	-124,494	0,141	0,016
-176,227	78,150	-0,032	0,025
-175,212	-200,000	0,032	0,106
-174,198	-35,832	-0,135	0,053
-173,183	82,666	-0,057	-0,045
-172,169	-200,000	0,030	0,138
-171,154	-115,247	-0,173	0,024
-170,139	800,000	0,048	-0,142
-169,125	88,452	0,155	0,125
-168,110	-46,092	-0,132	0,047
-167,096	671,257	-0,030	-0,056
-166,081	93,827	0,052	0,043
-165,066	-95,920	-0,168	-0,032
-164,052	-200,000	-0,018	-0,097
-163,037	95,940	-0,088	0,073
-162,023	359,082	0,057	0,082
-161,008	800,000	-0,014	0,043
-159,993	223,251	-0,141	0,165
-158,979	800,000	-0,004	-0,010
-157,964	-187,207	0,053	0,001
-156,950	67,174	-0,159	0,118
-155,935	324,853	0,013	0,018
-154,920	93,836	-0,090	-0,074
-153,906	19,844	-0,028	0,016
-152,891	-200,000	-0,007	0,110
-151,877	-17,087	0,117	-0,053
-150,862	800,000	-0,034	0,097
-149,847	181,135	0,074	0,080
-148,833	800,000	0,016	-0,033
-147,818	19,738	0,032	-0,019
-146,804	800,000	-0,009	0,019
-145,789	-53,401	0,163	-0,054
-144,775	-200,000	0,031	0,112
-143,760	126,223	-0,060	-0,055
-142,745	154,301	0,112	-0,112
-141,731	800,000	0,026	0,056
-140,716	-200,000	-0,006	0,080
-139,702	800,000	-0,010	0,030
-138,687	-102,217	-0,044	-0,008
-137,672	477,799	-0,057	0,095
-136,658	-22,874	0,040	0,017
-135,643	-170,529	-0,095	0,002
-134,629	149,338	0,059	0,058
-133,614	403,739	0,036	-0,056
-132,599	625,796	-0,035	0,065
-131,585	-161,959	-0,073	-0,003
-130,570	-173,959	-0,100	-0,002
-129,556	-120,358	-0,113	0,014
-128,541	185,906	0,068	0,074
-127,526	180,263	-0,024	0,026
-126,512	800,000	0,036	0,082
-125,497	800,000	-0,055	0,126
-124,483	-129,539	0,117	0,012
-123,468	-138,430	-0,075	0,006
-122,453	292,973	-0,094	0,125
-121,439	-53,980	-0,191	-0,063
-120,424	-200,000	-0,004	-0,130
-119,410	281,745	0,085	0,111
-118,395	2,671	-0,038	0,020
-117,380	-200,000	-0,002	-0,047
-116,366	41,572	-0,042	0,028
-115,351	-52,329	0,136	0,046
-114,337	-140,308	0,086	-0,006
-113,322	800,000	0,031	-0,088
-112,307	122,431	-0,129	-0,117
-111,293	155,033	0,048	-0,048
-110,278	-30,328	0,162	-0,066
-109,264	214,269	-0,061	-0,070
-108,249	697,770	-0,021	-0,040
-107,234	800,000	0,031	-0,087
-106,220	800,000	0,009	0,021
-105,205	-179,948	-0,159	-0,002
-104,191	-200,000	0,016	0,118
-103,176	-62,834	0,188	-0,056
-102,162	-200,000	-0,009	0,053
-101,147	4,262	0,057	0,030
-100,132	-200,000	0,001	-0,065
-99,118	-200,000	-0,023	-0,091
-98,103	-55,491	0,074	-0,024
-97,089	187,323	-0,045	0,049
-96,074	313,667	0,044	0,060
-95,059	800,000	0,035	-0,077
-94,045	-32,438	-0,122	0,049
-93,030	800,000	0,034	-0,084
-92,016	800,000	0,005	0,012
-91,001	207,666	-0,041	-0,047
-89,986	-200,000	0,003	-0,041
-88,972	-197,494	0,082	-0,000
-87,957	92,355	-0,046	-0,038
-86,943	134,240	0,089	0,083
-85,928	-145,186	-0,094	-0,006
-84,913	-58,070	-0,177	0,056
-83,899	66,151	0,041	0,030
-82,884	380,764	0,060	-0,089
-81,870	402,634	-0,044	0,067
-80,855	-157,026	0,078	-0,003
-79,840	228,828	0,046	-0,054
-78,826	-200,000	-0,186	0,000
-77,811	26,607	0,141	-0,085
-76,797	34,147	-0,042	0,026
-75,782	-86,567	0,229	0,051
-74,767	-200,000	0,004	0,043
-73,753	222,495	-0,098	0,114
-72,738	-200,000	0,017	-0,079
-71,724	-141,715	-0,151	-0,011
-70,709	93,986	0,071	0,058
-69,694	800,000	0,033	-0,085
-68,680	-113,952	0,069	0,010
-67,665	-200,000	0,016	0,109
-66,651	179,881	-0,081	0,086
-65,636	-35,892	0,058	-0,023
-64,622	509,544	-0,023	0,039
-63,607	449,425	0,045	-0,071
-62,592	359,742	-0,067	-0,098
-61,578	-200,000	0,014	-0,077
-60,563	102,543	0,050	0,043
-59,549	143,193	0,030	0,029
-58,534	-80,743	-1,439	-0,344
-57,519	800,000	-0,677	-1,410
-56,505	-200,000	-0,789	-4,411
-55,490	-77,760	0,567	-0,141
-54,476	800,000	5,090	11,815
-53,461	-200,000	14,476	258,947
-52,446	-200,000	696,089	2235,604
-51,432	566,529	1622,481	2861,755
-50,417	117,700	1630,406	1452,919
-49,403	74,607	1284,382	976,986
-48,388	37,416	1022,514	654,926
-47,373	23,256	981,792	582,339
-46,359	22,458	971,130	573,379
-45,344	21,308	966,780	567,037
-44,330	21,301	965,244	566,092
-43,315	21,114	963,789	564,606
-42,300	21,148	962,718	564,067
-41,286	21,090	961,932	563,397
-40,271	21,130	960,630	562,741
-39,257	21,129	959,763	562,209
-38,242	21,136	958,945	561,729
-37,227	21,072	958,048	560,975
-36,213	21,044	957,129	560,323
-35,198	20,995	956,377	559,701
-34,184	21,115	955,697	559,670
-33,169	21,002	954,720	558,712
-32,154	21,143	953,771	558,586
-31,140	21,094	953,089	558,007
-30,125	21,139	952,181	557,600
-29,111	21,062	951,491	556,926
-28,096	21,091	950,799	556,590
-27,082	21,113	950,060	556,208
-26,067	21,124	949,221	555,730
-25,052	21,119	948,503	555,271
-24,038	21,117	947,835	554,853
-23,023	21,047	947,362	554,327
-22,009	21,126	946,667	554,154
-20,994	21,160	945,903	553,791
-19,979	21,102	945,488	553,341
-18,965	21,139	944,619	552,928
-17,950	21,123	944,096	552,550
-16,936	21,054	943,492	551,954
-15,921	20,980	942,804	551,296
-14,906	20,935	942,121	550,730
-13,892	20,986	941,530	550,527
-12,877	20,967	940,964	550,113
-11,863	20,998	940,146	549,710
-10,848	20,993	939,737	549,433
-9,833	21,117	939,324	549,564
-8,819	21,036	938,678	548,908
-7,804	21,009	938,029	548,419
-6,790	20,971	937,349	547,883
-5,775	21,035	936,835	547,761
-4,760	21,031	936,109	547,302
-3,746	20,975	935,561	546,784
-2,731	20,835	934,932	545,951
-1,717	20,779	934,201	545,328
-0,702	20,771	933,549	544,900
0,313	20,612	932,769	544,768
1,327	23,681	930,887	553,253
2,342	33,096	794,235	497,042
3,356	30,624	450,779	278,361
4,371	0,088	294,637	151,403
5,386	-4,378	275,787	137,468
6,400	-5,646	270,115	133,448
7,415	-5,837	267,670	132,052
8,429	-5,541	266,386	131,678
9,444	-5,586	265,608	131,241
10,459	-5,470	264,869	130,970
11,473	-5,705	264,387	130,506
12,488	-5,523	263,908	130,423
13,502	-5,884	263,395	129,830
14,517	-5,896	262,973	129,600
15,531	-5,685	262,530	129,561
16,546	-5,791	262,277	129,329
17,561	-5,778	261,935	129,161
18,575	-5,763	261,587	128,991
19,590	-5,736	261,106	128,767
20,604	-5,714	260,951	128,698
21,619	-5,788	260,700	128,497
22,634	-5,771	260,150	128,230
23,648	-5,860	259,893	128,012
24,663	-5,702	259,652	128,023
25,677	-5,645	259,304	127,890
26,692	-5,872	259,147	127,600
27,707	-5,741	258,928	127,597
28,721	-5,915	258,762	127,349
29,736	-5,801	258,356	127,239
30,750	-5,788	258,069	127,098
31,765	-5,760	257,853	127,004
32,780	-5,882	257,572	126,747
33,794	-5,929	257,416	126,617
34,809	-5,934	257,187	126,489
35,823	-5,920	256,899	126,348
36,838	-5,722	256,556	126,343
37,853	-5,924	256,398	126,076
38,867	-5,799	256,140	126,048
39,882	-5,922	255,901	125,811
40,896	-5,920	255,734	125,719
41,911	-5,778	255,528	125,731
42,926	-5,923	255,237	125,450
43,940	-5,807	255,073	125,460
44,955	-5,956	254,950	125,257
45,969	-6,133	254,656	124,947
46,984	-6,283	254,509	124,733
47,999	-6,405	254,191	124,459
49,013	-6,660	253,855	124,061
50,028	-6,560	253,699	124,061
51,042	-6,730	253,387	123,750
52,057	-6,580	253,284	123,819
53,071	-6,700	252,977	123,554
54,086	-6,542	252,858	123,621
55,101	-6,287	252,582	123,696
56,115	-6,313	252,617	123,680
57,130	-5,949	252,394	123,875
58,144	-5,688	252,222	124,006
59,159	-5,648	251,899	123,870
60,174	-5,529	251,742	123,885
61,188	-5,613	251,468	123,667
62,203	-5,675	251,355	123,546
63,217	-5,706	251,042	123,355
64,232	-5,771	251,032	123,284
65,247	-5,720	250,705	123,155
66,261	-5,786	250,483	122,979
67,276	-5,981	250,197	122,660
68,290	-5,929	250,001	122,598
69,305	-6,247	249,670	122,152
70,320	-6,155	249,488	122,131
71,334	-6,070	249,604	122,249
72,349	-5,607	249,435	122,552
73,363	-5,606	249,117	122,385
74,378	-5,812	249,081	122,181
75,393	-5,848	248,680	121,942
76,407	-5,967	248,512	121,749
77,422	-5,824	248,270	121,740
78,436	-5,688	248,012	121,718
79,451	-5,755	247,815	121,554
80,466	-5,817	247,668	121,418
81,480	-5,971	247,469	121,180
82,495	-6,030	247,193	120,984
83,509	-6,029	247,094	120,926
84,524	-6,162	246,933	120,723
85,539	-6,082	246,558	120,597
86,553	-6,078	246,281	120,453
87,568	-6,021	246,177	120,441
88,582	-6,066	246,130	120,369
89,597	-6,094	245,955	120,249
90,611	-6,005	245,770	120,222
91,626	-6,076	245,814	120,173
92,641	-5,755	245,424	120,242
93,655	-5,967	245,249	119,967
94,670	-6,058	244,984	119,751
95,684	-5,974	244,740	119,691
96,699	-6,135	244,886	119,617
97,714	-6,156	244,478	119,389
98,728	-6,250	244,329	119,228
99,743	-6,243	244,096	119,109
100,757	-6,183	243,800	119,004
101,772	-6,207	243,616	118,883
102,787	-6,055	243,466	118,926
103,801	-5,945	243,382	118,966
104,816	-6,003	243,233	118,834
105,830	-5,872	243,072	118,854
106,845	-5,778	242,801	118,789
107,860	-5,776	242,634	118,698
108,874	-5,694	242,326	118,605
109,889	-6,176	242,338	118,201
110,903	-5,738	241,951	118,364
111,918	-5,928	241,934	118,188
112,933	-5,798	241,720	118,180
113,947	-5,874	241,601	118,049
114,962	-5,985	241,402	117,850
115,976	-5,758	241,134	117,895
116,991	-5,883	241,006	117,720
118,006	-5,820	240,837	117,678
119,020	-5,910	240,755	117,554
120,035	-5,808	240,689	117,595
121,049	-5,679	240,524	117,609
122,064	-5,828	240,409	117,421
123,079	-5,869	240,132	117,241
124,093	-5,883	239,804	117,059
125,108	-6,116	239,595	116,756
126,122	-6,153	239,385	116,613
127,137	-6,290	239,272	116,436
128,151	-6,182	239,007	116,385
129,166	-6,053	238,892	116,424
130,181	-6,147	238,734	116,259
131,195	-6,063	238,349	116,130
132,210	-5,907	238,372	116,257
133,224	-5,838	238,184	116,211
134,239	-5,661	237,976	116,243
135,254	-5,795	237,900	116,087
136,268	-6,025	237,778	115,830
137,283	-5,993	237,364	115,644
138,297	-6,206	237,191	115,378
139,312	-6,186	236,970	115,276
140,327	-6,016	237,047	115,440
141,341	-5,649	237,095	115,750
142,356	-5,370	236,735	115,789
143,370	-5,601	236,623	115,538
144,385	-5,595	236,516	115,480
145,400	-5,534	236,273	115,400
146,414	-5,578	236,156	115,297
147,429	-5,588	235,947	115,177
148,443	-5,819	235,812	114,916
149,458	-5,573	235,721	115,059
150,473	-5,476	235,415	114,976
151,487	-5,609	235,306	114,806
152,502	-5,525	235,071	114,749
153,516	-5,628	234,949	114,597
154,531	-5,638	234,856	114,532
155,546	-5,590	234,605	114,438
156,560	-5,608	234,479	114,352
157,575	-5,757	234,181	114,079
158,589	-5,622	234,063	114,118
159,604	-5,672	233,873	113,976
160,619	-5,309	233,685	114,162
161,633	-5,586	233,672	113,925
162,648	-5,241	233,328	114,022
163,662	-5,731	233,350	113,633
164,677	-5,535	233,147	113,680
165,692	-5,783	233,096	113,449
166,706	-5,594	232,967	113,525
167,721	-5,398	232,700	113,539
168,735	-5,336	232,486	113,474
169,750	-5,283	232,297	113,413
170,764	-5,701	232,351	113,100
171,779	-5,647	232,123	113,021
172,794	-5,698	232,118	112,969
173,808	-5,459	231,558	112,874
174,823	-6,263	231,550	112,228
175,837	-6,043	231,211	112,227
176,852	-5,816	231,200	112,389
177,867	-5,481	231,166	112,625
178,881	-5,573	230,983	112,454
179,896	-5,700	230,930	112,319
180,910	-5,345	230,638	112,445
181,925	-5,556	230,623	112,262
182,940	-5,482	230,609	112,303
183,954	-5,361	230,241	112,208
184,969	-5,497	230,186	112,066
185,983	-5,426	229,947	111,994
186,998	-5,373	229,802	111,955
188,013	-5,470	229,612	111,777
189,027	-5,372	229,560	111,818
190,042	-5,293	229,286	111,736
191,056	-5,527	229,226	111,515
192,071	-5,360	229,030	111,540
193,086	-5,118	228,692	111,552
194,100	-5,286	228,588	111,361
195,115	-5,424	228,232	111,072
196,129	-5,901	228,129	110,643
197,144	-3,143	229,139	113,263
198,159	1,301	230,362	117,317
199,173	3,555	230,980	119,377
200,188	4,086	230,907	119,742
201,202	3,949	230,669	119,502
202,217	4,274	230,633	119,725
203,232	4,154	230,544	119,575
204,246	4,293	230,448	119,622
205,261	4,292	230,223	119,494
206,275	4,437	230,042	119,501
207,290	4,592	229,936	119,555
208,304	4,572	229,912	119,517
209,319	4,414	229,788	119,320
210,334	4,334	229,473	119,084
211,348	4,111	229,206	118,762
212,363	3,853	228,944	118,417
213,377	3,482	228,903	118,100
214,392	3,700	228,611	118,106
215,407	3,775	228,469	118,080
216,421	3,937	228,297	118,105
217,436	3,788	228,115	117,886
218,450	3,548	227,885	117,572
219,465	3,462	227,793	117,449
220,480	3,443	227,696	117,374
221,494	3,398	227,564	117,261
222,509	3,644	227,461	117,386
223,523	3,671	227,330	117,328
224,538	3,621	227,071	117,145
225,553	3,645	227,007	117,121
226,567	3,693	226,982	117,134
227,582	3,874	226,806	117,171
228,596	3,873	226,772	117,141
229,611	3,631	226,404	116,758
230,626	3,562	226,265	116,623
231,640	3,617	226,105	116,572
232,655	3,896	225,956	116,696
233,669	4,254	226,064	117,014
234,684	4,452	225,853	117,044
235,699	3,835	225,642	116,457
236,713	3,949	225,368	116,391
237,728	3,729	225,195	116,125
238,742	3,644	225,009	115,955
239,757	3,694	224,868	115,909
240,772	3,569	224,775	115,757
241,786	3,528	224,597	115,624
242,801	3,919	224,522	115,869
243,815	4,134	224,380	115,947
244,830	3,897	224,286	115,711
245,844	3,838	224,072	115,545
246,859	3,789	223,910	115,414
247,874	3,887	223,849	115,447
248,888	4,007	223,716	115,458
249,903	3,844	223,420	115,172
250,917	3,521	223,446	114,934
251,932	3,832	223,198	115,029
252,947	3,564	222,957	114,693
253,961	3,541	222,885	114,629
254,976	3,636	222,683	114,586
255,990	3,869	222,636	114,726
257,005	3,688	222,442	114,480
258,020	4,029	222,378	114,691
259,034	4,159	222,264	114,719
260,049	4,029	222,057	114,506
261,063	3,845	221,955	114,306
262,078	3,750	221,819	114,155
263,093	4,252	221,569	114,389
264,107	4,150	221,455	114,244
265,122	4,068	221,295	114,091
266,136	4,173	221,258	114,139
267,151	4,331	221,190	114,210
268,166	3,763	220,868	113,614
269,180	3,763	220,519	113,425
270,195	3,546	220,508	113,249
271,209	3,497	220,324	113,108
272,224	3,584	220,430	113,216
273,239	3,950	220,112	113,313
274,253	3,522	219,905	112,881
275,268	3,645	219,792	112,903
276,282	3,463	219,501	112,610
277,297	3,470	219,392	112,550
278,312	3,521	219,338	112,549
279,326	3,597	219,347	112,600
280,341	3,540	219,107	112,425
281,355	3,922	219,032	112,655
282,370	3,670	218,738	112,311
283,384	3,437	218,615	112,067
284,399	3,105	218,558	111,785
285,414	3,612	218,323	112,025
286,428	3,466	218,390	111,943
287,443	3,699	218,219	112,015
288,457	3,965	218,067	112,120
289,472	3,587	217,847	111,723
290,487	3,241	217,522	111,294
291,501	3,095	217,376	111,104
292,516	3,255	217,237	111,139
293,530	3,353	217,311	111,238
294,545	3,446	217,192	111,234
295,560	3,588	217,049	111,254
296,574	3,667	216,966	111,260
297,589	3,587	216,808	111,111
298,603	3,754	216,671	111,151
299,618	3,607	216,526	110,960
300,633	3,559	216,410	110,856
301,647	3,621	216,386	110,879
302,662	4,068	216,112	111,051
303,676	4,079	216,182	111,085
304,691	3,879	215,855	110,763
305,706	4,096	215,688	110,823
306,720	4,105	215,677	110,815
307,735	3,770	215,303	110,372
308,749	3,528	215,318	110,196
309,764	3,808	215,257	110,356
310,779	4,077	215,013	110,414
311,793	3,681	214,985	110,106
312,808	3,886	214,743	110,119
313,822	3,655	214,672	109,907
314,837	3,491	214,507	109,696
315,852	3,545	214,242	109,589
316,866	3,659	214,143	109,610
317,881	3,978	214,194	109,854
318,895	3,921	213,898	109,652
319,910	3,632	213,850	109,412
320,925	3,397	213,553	109,083
321,939	3,304	213,387	108,922
322,954	3,399	213,207	108,888
323,968	3,589	213,262	109,041
324,983	3,643	213,129	109,002
325,997	3,994	212,793	109,069
327,012	3,676	212,812	108,843
328,027	3,822	212,632	108,845
329,041	4,089	212,616	109,017
330,056	4,184	212,565	109,048
331,070	3,792	212,168	108,557
332,085	3,490	212,017	108,257
333,100	3,846	212,005	108,493
334,114	3,933	211,938	108,510
335,129	3,852	211,735	108,340
336,143	3,564	211,575	108,045
337,158	3,799	211,438	108,131
338,173	3,692	211,234	107,942
339,187	3,439	211,065	107,668
340,202	3,406	210,853	107,527
341,216	3,244	210,909	107,432
342,231	3,424	210,784	107,486
343,246	3,391	210,669	107,394
344,260	3,528	210,387	107,337
345,275	3,680	210,367	107,423
346,289	3,650	210,380	107,399
347,304	3,862	210,191	107,441
348,319	3,638	210,013	107,185
349,333	3,501	209,965	107,054
350,348	3,507	209,801	106,965
351,362	3,795	209,598	107,054
352,377	3,880	209,541	107,074
353,392	3,495	209,434	106,742
354,406	3,629	209,247	106,730
355,421	195,212	1344,396	1433,893
356,435	155,839	1482,781	1433,984
