DTS Sentinel unit serial number:	SN410029Multiplexer serial number:	ORYXHardware model number:	OX2-SRSoftware version number:	ORYX F/W v4,00 Oryx Data Collector v3.7.2.0data status	okinstallation	B6 Nyhavnadifferential loss correction	single-endedforward channel	channel 2reverse channel	N/Adate	2023/12/08time	01:40:08forward acquisition time	300,00reverse acquisition time	0,00gamma	499,1914k internal	0,3165k external	0,3165temperature offset calibration	1,0000default loss term (dB/km)	0,3820temperature slope calibration	1,0000multiplexer offset coefficient	1,0000multiplexer slope coefficient	1,0000fibre end	0,00T internal ref (°C)	13,24T ext. ref 1 (°C)	-3,63T ext. ref 2 (°C)	-3,62length (m)	temperature (°C)	Stokes	anti-Stokes-744,400	206,670	0,068	0,078
-743,385	-144,647	-0,229	-0,015
-742,371	-15,108	0,114	0,053
-741,356	-106,314	-0,191	-0,031
-740,342	617,725	0,075	0,139
-739,327	-46,138	-0,389	0,140
-738,312	240,799	0,089	-0,109
-737,298	-74,581	-0,516	-0,135
-736,283	-80,828	0,135	0,033
-735,269	-155,278	-0,374	-0,018
-734,254	606,298	0,121	0,223
-733,239	-12,625	-0,439	-0,210
-732,225	-80,178	0,322	0,079
-731,210	114,652	-0,050	-0,045
-730,196	-200,000	0,001	-0,054
-729,181	-82,207	-0,074	-0,018
-728,167	21,317	-0,069	-0,041
-727,152	-200,000	-0,004	-0,015
-726,137	77,210	-0,104	0,081
-725,123	38,183	0,063	0,041
-724,108	-13,423	-0,050	-0,024
-723,094	32,883	-0,091	-0,058
-722,079	139,405	-0,073	-0,071
-721,064	53,835	0,091	0,064
-720,050	800,000	0,044	-0,105
-719,035	228,567	0,124	-0,149
-718,021	-176,160	-0,191	0,004
-717,006	365,851	-0,056	-0,084
-715,991	-200,000	0,004	-0,108
-714,977	-42,236	-0,063	0,024
-713,962	-139,842	-0,126	0,010
-712,948	-122,142	0,121	0,014
-711,933	100,088	0,068	0,058
-710,918	-47,456	-0,071	-0,025
-709,904	-21,734	-0,006	-0,003
-708,889	256,353	-0,076	-0,096
-707,875	134,253	0,045	-0,043
-706,860	-95,841	-0,098	-0,019
-705,845	78,352	0,120	0,094
-704,831	800,000	-0,068	0,174
-703,816	-139,761	0,113	0,009
-702,802	-200,000	-0,013	0,042
-701,787	800,000	-0,042	-0,113
-700,772	-32,309	-0,106	0,043
-699,758	74,543	0,041	0,031
-698,743	-200,000	-0,002	-0,026
-697,729	516,292	0,005	-0,008
-696,714	-200,000	0,009	0,126
-695,699	-62,067	0,149	0,045
-694,685	46,253	-0,051	-0,035
-693,670	-200,000	0,001	-0,029
-692,656	-158,629	0,066	0,003
-691,641	-77,435	0,055	0,014
-690,627	800,000	0,006	-0,018
-689,612	-200,000	0,025	-0,085
-688,597	-108,012	0,154	0,024
-687,583	-33,463	-0,104	-0,042
-686,568	28,394	0,060	-0,037
-685,554	113,944	-0,024	-0,021
-684,539	-200,000	-0,004	0,021
-683,524	-200,000	0,014	-0,083
-682,510	-200,000	-0,011	0,068
-681,495	44,498	0,099	-0,066
-680,481	-200,000	-0,008	-0,040
-679,466	-122,974	-0,088	-0,010
-678,451	-200,000	0,000	-0,030
-677,437	800,000	-0,021	-0,064
-676,422	-200,000	0,014	-0,095
-675,408	800,000	0,028	0,080
-674,393	800,000	0,016	0,043
-673,378	-200,000	-0,019	-0,088
-672,364	20,449	-0,076	-0,045
-671,349	262,098	-0,079	-0,101
-670,335	-180,159	0,020	-0,000
-669,320	-70,423	0,074	0,020
-668,305	433,161	0,051	0,081
-667,291	102,751	-0,128	-0,110
-666,276	800,000	-0,026	-0,055
-665,262	53,440	0,057	-0,040
-664,247	52,560	0,122	-0,085
-663,232	-104,015	-0,116	0,020
-662,218	179,021	-0,041	-0,043
-661,203	800,000	-0,047	0,108
-660,189	-200,000	0,015	-0,083
-659,174	-65,303	-0,051	-0,015
-658,159	-106,857	0,138	0,022
-657,145	-66,051	-0,215	0,063
-656,130	-200,000	0,024	0,079
-655,116	-29,651	0,100	-0,042
-654,101	-25,245	-0,109	0,047
-653,086	-62,533	-0,010	0,003
-652,072	124,329	0,066	0,060
-651,057	-34,083	-0,050	0,020
-650,043	74,750	-0,145	-0,112
-649,028	95,094	-0,018	-0,015
-648,014	800,000	0,041	-0,106
-646,999	114,543	0,022	0,020
-645,984	45,095	-0,038	-0,026
-644,970	109,070	0,118	-0,103
-643,955	112,774	-0,137	-0,121
-642,941	698,028	-0,057	-0,111
-641,926	800,000	-0,034	-0,097
-640,911	-89,905	0,061	0,013
-639,897	-10,463	-0,072	0,035
-638,882	-76,782	-0,046	0,012
-637,868	8,870	-0,073	0,040
-636,853	-137,746	-0,050	0,004
-635,838	-85,802	0,068	-0,015
-634,824	-175,006	-0,166	-0,003
-633,809	-161,173	-0,060	-0,002
-632,795	-107,186	0,107	-0,017
-631,780	-200,000	0,017	0,089
-630,765	97,397	-0,071	0,060
-629,751	800,000	0,044	0,127
-628,736	607,084	0,010	-0,018
-627,722	-200,000	-0,016	0,053
-626,707	234,582	0,079	0,095
-625,692	800,000	-0,054	0,128
-624,678	-200,000	0,018	0,064
-623,663	800,000	-0,032	-0,083
-622,649	-65,916	-0,108	-0,031
-621,634	800,000	-0,012	-0,034
-620,619	-54,943	0,030	-0,010
-619,605	432,971	0,034	-0,054
-618,590	800,000	-0,021	-0,068
-617,576	626,582	-0,032	0,060
-616,561	-21,957	-0,093	0,041
-615,546	-200,000	0,040	-0,135
-614,532	-200,000	-0,004	-0,050
-613,517	-131,547	0,128	-0,012
-612,503	-200,000	0,011	-0,059
-611,488	-61,649	0,084	-0,026
-610,474	-0,036	0,076	0,039
-609,459	117,078	-0,166	-0,149
-608,444	800,000	0,004	-0,012
-607,430	-101,062	-0,044	-0,008
-606,415	-200,000	-0,003	-0,040
-605,401	353,020	0,042	0,061
-604,386	800,000	0,024	0,060
-603,371	-105,638	0,045	0,007
-602,357	-30,107	0,035	-0,014
-601,342	18,459	-0,136	-0,079
-600,328	86,976	0,056	0,045
-599,313	436,188	0,043	-0,068
-598,298	-11,654	-0,062	-0,029
-597,284	767,391	-0,030	0,060
-596,269	56,862	-0,054	0,038
-595,255	-30,902	0,070	0,029
-594,240	-128,295	-0,157	-0,016
-593,225	692,583	-0,087	-0,167
-592,211	800,000	-0,015	-0,033
-591,196	-200,000	-0,010	0,058
-590,182	-80,442	0,096	0,023
-589,167	-98,499	0,062	-0,012
-588,152	759,728	-0,019	-0,038
-587,138	632,170	0,039	-0,072
-586,123	380,949	0,095	-0,144
-585,109	800,000	-0,034	-0,108
-584,094	-121,710	-0,122	0,015
-583,079	249,899	0,102	0,127
-582,065	-200,000	0,006	0,125
-581,050	57,772	0,104	0,075
-580,036	-57,451	-0,174	0,056
-579,021	114,016	0,073	-0,065
-578,006	-65,400	-0,047	0,014
-576,992	32,899	-0,046	0,029
-575,977	800,000	0,041	0,099
-574,963	506,437	-0,035	0,060
-573,948	800,000	0,029	-0,079
-572,934	-200,000	-0,013	-0,081
-571,919	502,464	-0,064	-0,108
-570,904	620,053	-0,085	-0,157
-569,890	627,346	0,030	0,056
-568,875	-200,000	-0,007	-0,068
-567,861	800,000	0,038	-0,087
-566,846	229,501	-0,019	0,023
-565,831	12,972	-0,068	0,038
-564,817	32,962	-0,023	0,015
-563,802	-200,000	-0,015	-0,201
-562,788	-200,000	0,007	-0,089
-561,773	-200,000	0,084	-0,280
-560,758	800,000	0,014	0,041
-559,744	65,819	0,068	0,050
-558,729	160,536	-0,027	0,027
-557,715	3,507	-0,093	-0,049
-556,700	-200,000	-0,027	-0,174
-555,685	321,192	-0,006	-0,008
-554,671	654,172	0,033	-0,063
-553,656	-200,000	-0,010	-0,077
-552,642	800,000	0,028	-0,077
-551,627	668,450	0,055	0,104
-550,612	37,438	-0,047	-0,031
-549,598	-1,947	0,020	0,010
-548,583	81,916	-0,050	0,040
-547,569	-200,000	-0,012	0,051
-546,554	-200,000	-0,023	0,074
-545,539	-200,000	0,011	0,143
-544,525	746,274	-0,036	0,071
-543,510	287,760	0,023	0,030
-542,496	800,000	0,035	-0,079
-541,481	800,000	-0,043	0,110
-540,466	193,618	0,070	0,077
-539,452	332,909	-0,035	0,049
-538,437	172,628	0,104	0,109
-537,423	800,000	0,024	0,064
-536,408	-100,068	0,071	-0,013
-535,393	3,633	0,099	-0,052
-534,379	5,098	0,095	-0,051
-533,364	499,403	0,060	-0,100
-532,350	-200,000	0,015	0,072
-531,335	51,702	0,038	0,026
-530,321	430,420	-0,055	-0,087
-529,306	800,000	-0,031	-0,085
-528,291	-157,856	-0,141	0,006
-527,277	-85,848	0,214	-0,048
-526,262	-83,039	-0,027	-0,006
-525,248	-104,453	-0,016	0,003
-524,233	-164,151	0,101	-0,003
-523,218	23,915	-0,039	0,023
-522,204	-200,000	-0,004	0,115
-521,189	84,746	0,009	0,007
-520,175	-200,000	0,035	0,130
-519,160	800,000	-0,030	0,090
-518,145	100,784	0,097	-0,082
-517,131	-10,342	-0,063	-0,030
-516,116	-200,000	-0,013	-0,066
-515,102	-86,329	-0,139	0,031
-514,087	-102,798	-0,084	0,014
-513,072	-200,000	0,007	-0,073
-512,058	-112,021	-0,097	0,014
-511,043	19,913	-0,133	-0,078
-510,029	232,232	0,032	0,038
-509,014	116,913	-0,089	-0,080
-507,999	800,000	-0,044	0,102
-506,985	800,000	0,074	-0,168
-505,970	-200,000	0,001	-0,035
-504,956	129,401	-0,159	0,148
-503,941	79,485	0,097	0,076
-502,926	788,265	-0,025	-0,051
-501,912	-42,730	0,065	-0,024
-500,897	75,972	-0,015	-0,011
-499,883	800,000	0,023	-0,066
-498,868	-200,000	0,000	0,004
-497,853	-200,000	-0,036	-0,123
-496,839	281,012	-0,066	-0,086
-495,824	715,706	0,064	-0,124
-494,810	-200,000	0,042	0,147
-493,795	200,627	-0,084	0,095
-492,781	-152,322	0,072	-0,004
-491,766	4,512	-0,121	0,064
-490,751	525,767	0,049	0,085
-489,737	33,426	0,069	0,043
-488,722	-200,000	0,004	0,109
-487,708	14,488	0,059	0,034
-486,693	58,966	0,077	0,055
-485,678	-66,040	-0,124	0,036
-484,664	755,397	0,031	-0,061
-483,649	-30,248	-0,084	-0,034
-482,635	8,787	-0,085	-0,047
-481,620	279,298	0,028	-0,037
-480,605	-136,240	0,046	-0,004
-479,591	-200,000	-0,042	0,155
-478,576	-200,000	-0,018	-0,114
-477,562	69,740	0,076	0,057
-476,547	69,567	-0,083	-0,062
-475,532	63,081	-0,039	-0,028
-474,518	519,516	0,030	-0,051
-473,503	158,413	0,035	0,036
-472,489	125,159	0,038	0,035
-471,474	-13,808	-0,024	-0,011
-470,459	43,637	0,064	-0,043
-469,445	-35,510	-0,059	-0,023
-468,430	-138,231	-0,124	0,010
-467,416	-200,000	0,003	0,018
-466,401	-200,000	-0,023	0,099
-465,386	-200,000	-0,020	-0,067
-464,372	-160,776	-0,236	-0,009
-463,357	99,359	-0,092	-0,077
-462,343	683,072	0,058	-0,111
-461,328	-200,000	0,017	-0,134
-460,313	260,104	-0,069	-0,088
-459,299	-55,335	0,034	0,011
-458,284	-116,816	0,080	0,011
-457,270	277,387	0,084	-0,109
-456,255	-137,518	-0,044	0,004
-455,241	-2,432	0,025	0,013
-454,226	-200,000	0,017	-0,185
-453,211	45,895	-0,080	0,054
-452,197	-44,079	0,170	0,062
-451,182	71,617	0,104	-0,078
-450,168	16,287	-0,034	0,019
-449,153	362,838	-0,034	0,050
-448,138	-145,425	0,088	-0,006
-447,124	800,000	-0,035	0,082
-446,109	-97,913	-0,132	0,025
-445,095	-200,000	-0,007	0,091
-444,080	317,080	-0,091	0,126
-443,065	15,534	0,091	0,052
-442,051	-80,455	-0,040	-0,010
-441,036	-200,000	0,002	0,009
-440,022	-16,469	0,090	0,041
-439,007	-46,662	0,064	0,023
-437,992	800,000	0,018	0,050
-436,978	-137,712	0,105	0,008
-435,963	800,000	0,035	0,096
-434,949	468,986	-0,099	0,162
-433,934	-200,000	0,005	0,034
-432,919	287,181	-0,073	0,097
-431,905	-165,453	0,082	-0,003
-430,890	-200,000	-0,015	0,073
-429,876	-200,000	0,012	0,128
-428,861	696,932	-0,029	0,056
-427,846	32,558	0,029	-0,018
-426,832	-200,000	-0,028	-0,093
-425,817	-97,803	-0,064	-0,012
-424,803	85,990	0,135	0,108
-423,788	267,125	-0,009	-0,011
-422,773	-81,228	0,056	0,013
-421,759	-200,000	0,046	-0,152
-420,744	291,597	0,035	0,047
-419,730	-44,975	-0,112	-0,040
-418,715	-200,000	0,004	-0,022
-417,701	-85,305	0,116	-0,026
-416,686	800,000	-0,038	0,108
-415,671	-200,000	0,016	-0,054
-414,657	-39,989	-0,049	0,018
-413,642	119,285	-0,087	-0,078
-412,628	-85,660	0,118	0,026
-411,613	800,000	0,043	-0,105
-410,598	-137,208	0,085	0,007
-409,584	111,319	0,109	-0,095
-408,569	-98,942	0,063	0,011
-407,555	176,248	0,105	0,111
-406,540	236,269	-0,060	-0,072
-405,525	800,000	-0,069	-0,191
-404,511	34,631	-0,050	-0,032
-403,496	-62,360	-0,122	0,037
-402,482	159,243	-0,042	0,042
-401,467	-137,171	0,037	-0,003
-400,452	125,263	0,191	-0,175
-399,438	-200,000	-0,040	0,198
-398,423	-42,754	0,150	0,055
-397,409	-200,000	-0,006	-0,140
-396,394	800,000	0,024	0,052
-395,379	800,000	0,002	0,004
-394,365	-200,000	-0,002	-0,037
-393,350	37,193	0,028	-0,018
-392,336	-200,000	-0,036	0,125
-391,321	40,591	-0,026	-0,017
-390,306	-200,000	-0,019	-0,104
-389,292	-200,000	-0,033	-0,108
-388,277	128,594	0,072	0,067
-387,263	800,000	0,023	0,048
-386,248	-58,721	-0,085	-0,027
-385,233	-153,806	0,103	-0,005
-384,219	-65,370	0,156	-0,045
-383,204	-117,397	-0,179	-0,023
-382,190	-24,896	-0,067	0,029
-381,175	-200,000	0,015	0,082
-380,160	-200,000	-0,035	0,114
-379,146	-79,097	0,083	0,020
-378,131	394,380	0,053	0,080
-377,117	800,000	-0,091	0,194
-376,102	433,502	-0,026	-0,040
-375,088	-30,248	-0,133	0,054
-374,073	-56,889	-0,114	0,036
-373,058	133,927	0,133	0,125
-372,044	373,723	-0,104	0,154
-371,029	-200,000	-0,004	0,103
-370,015	656,607	-0,058	-0,109
-369,000	-65,006	0,062	0,018
-367,985	193,416	-0,093	-0,102
-366,971	-29,121	0,126	-0,052
-365,956	43,641	0,098	-0,065
-364,942	209,554	0,075	0,086
-363,927	-19,250	0,116	0,052
-362,912	19,022	-0,039	0,023
-361,898	344,487	-0,037	0,052
-360,883	321,701	0,045	-0,063
-359,869	-169,455	-0,078	-0,002
-358,854	67,851	-0,069	-0,051
-357,839	-130,822	-0,130	0,012
-356,825	-200,000	-0,013	-0,098
-355,810	155,935	-0,016	0,016
-354,796	227,880	-0,037	-0,044
-353,781	-73,753	0,070	0,018
-352,766	800,000	-0,066	-0,136
-351,752	-141,062	0,153	0,011
-350,737	433,812	-0,019	-0,030
-349,723	51,135	0,154	-0,106
-348,708	494,074	-0,016	0,027
-347,693	335,315	-0,050	-0,070
-346,679	-78,935	-0,052	0,013
-345,664	135,298	0,044	-0,042
-344,650	18,199	0,069	0,040
-343,635	384,639	0,043	-0,065
-342,620	-22,089	-0,179	0,078
-341,606	-51,838	0,080	0,027
-340,591	33,523	-0,089	-0,056
-339,577	-99,014	-0,076	-0,014
-338,562	22,698	0,220	-0,130
-337,548	-200,000	-0,003	-0,010
-336,533	175,034	0,075	-0,079
-335,518	-65,849	0,163	-0,047
-334,504	14,486	-0,117	0,066
-333,489	800,000	-0,060	-0,125
-332,475	-155,824	0,184	0,008
-331,460	-108,987	-0,121	-0,018
-330,445	663,588	0,071	0,132
-329,431	466,214	0,114	0,186
-328,416	174,591	-0,140	-0,147
-327,402	55,985	0,057	0,040
-326,387	-46,227	-0,193	0,068
-325,372	209,073	-0,069	-0,079
-324,358	140,313	-0,039	-0,037
-323,343	134,345	0,052	-0,049
-322,329	-156,973	0,141	-0,006
-321,314	3,086	-0,054	0,028
-320,299	-50,215	0,050	-0,017
-319,285	-121,767	-0,123	0,014
-318,270	-146,968	0,067	-0,004
-317,256	457,303	-0,049	-0,079
-316,241	110,903	-0,068	-0,059
-315,226	233,591	0,061	-0,073
-314,212	71,430	0,088	0,066
-313,197	-200,000	-0,021	0,106
-312,183	0,623	-0,061	-0,031
-311,168	-186,540	0,030	-0,000
-310,153	-200,000	-0,016	0,163
-309,139	42,556	-0,099	0,065
-308,124	800,000	0,054	0,114
-307,110	-200,000	-0,001	0,236
-306,095	-200,000	-0,006	-0,042
-305,080	-89,599	-0,091	0,019
-304,066	-105,204	-0,014	-0,002
-303,051	-72,997	0,082	0,022
-302,037	-200,000	-0,002	-0,063
-301,022	-101,588	0,156	-0,027
-300,008	-25,825	0,158	0,067
-298,993	384,296	0,057	0,086
-297,978	-99,705	-0,083	0,015
-296,964	-114,896	0,131	-0,018
-295,949	179,787	-0,047	-0,050
-294,935	800,000	0,039	-0,109
-293,920	429,680	0,034	0,053
-292,905	-140,147	0,107	-0,008
-291,891	-200,000	0,014	0,079
-290,876	-65,694	0,072	0,021
-289,862	303,950	-0,012	0,016
-288,847	71,662	0,035	-0,027
-287,832	-200,000	-0,003	-0,159
-286,818	-51,892	-0,099	0,033
-285,803	101,188	-0,039	-0,032
-284,789	255,559	0,016	-0,020
-283,774	-200,000	0,019	0,089
-282,759	-93,924	-0,023	0,004
-281,745	-62,485	-0,111	0,033
-280,730	-200,000	-0,014	-0,087
-279,716	163,280	0,016	-0,016
-278,701	800,000	0,073	-0,166
-277,686	130,013	0,038	-0,035
-276,672	288,306	-0,085	0,112
-275,657	-200,000	-0,014	0,052
-274,643	-83,972	-0,114	0,026
-273,628	252,861	-0,091	0,112
-272,613	800,000	0,035	-0,087
-271,599	209,484	-0,042	0,047
-270,584	189,367	0,014	0,015
-269,570	-200,000	0,011	0,125
-268,555	800,000	-0,010	0,026
-267,540	-155,505	-0,063	-0,003
-266,526	-52,453	-0,077	-0,026
-265,511	74,518	-0,011	0,008
-264,497	218,050	-0,029	0,033
-263,482	170,518	0,041	0,042
-262,467	186,480	0,123	0,133
-261,453	676,362	-0,088	0,166
-260,438	-49,395	0,039	0,014
-259,424	-21,888	-0,189	0,082
-258,409	-100,880	0,007	0,001
-257,395	-110,606	-0,068	0,010
-256,380	-200,000	0,038	0,192
-255,365	450,763	0,056	0,090
-254,351	800,000	-0,033	-0,071
-253,336	-200,000	-0,004	-0,192
-252,322	-53,162	-0,090	-0,030
-251,307	-200,000	-0,021	-0,132
-250,292	-18,538	0,033	0,015
-249,278	-37,425	0,138	-0,053
-248,263	800,000	-0,023	-0,066
-247,249	79,287	0,013	-0,010
-246,234	476,321	-0,104	-0,170
-245,219	50,195	-0,047	-0,032
-244,205	68,513	-0,069	-0,051
-243,190	244,961	-0,060	0,072
-242,176	-67,248	0,097	-0,027
-241,161	-200,000	-0,028	0,125
-240,146	60,917	0,044	0,031
-239,132	115,230	-0,070	0,062
-238,117	-200,000	-0,018	-0,169
-237,103	-200,000	-0,027	-0,098
-236,088	800,000	-0,039	-0,099
-235,073	-99,244	0,057	0,010
-234,059	75,849	0,081	0,062
-233,044	522,044	-0,075	-0,127
-232,030	96,569	0,097	0,080
-231,015	-200,000	0,017	-0,117
-230,000	182,984	-0,052	-0,055
-228,986	405,828	-0,013	-0,020
-227,971	276,664	0,062	-0,080
-226,957	-3,514	0,149	0,075
-225,942	609,992	-0,027	-0,049
-224,927	307,476	0,075	0,101
-223,913	-181,576	-0,033	0,000
-222,898	-200,000	0,010	0,037
-221,884	-54,332	-0,095	-0,031
-220,869	78,102	-0,022	-0,017
-219,855	145,793	-0,121	-0,117
-218,840	-151,344	0,056	0,003
-217,825	-200,000	-0,003	0,147
-216,811	-200,000	-0,004	-0,045
-215,796	101,328	-0,052	0,043
-214,782	800,000	-0,027	-0,085
-213,767	73,147	0,054	-0,041
-212,752	660,571	0,052	0,096
-211,738	27,811	0,123	0,075
-210,723	-200,000	0,029	-0,103
-209,709	-200,000	0,035	-0,128
-208,694	565,260	0,080	-0,141
-207,679	3,677	-0,084	-0,044
-206,665	370,117	0,088	0,129
-205,650	-200,000	-0,006	0,040
-204,636	-200,000	-0,001	0,055
-203,621	-200,000	0,010	0,070
-202,606	-200,000	0,027	-0,257
-201,592	195,987	-0,108	0,118
-200,577	-149,751	-0,078	0,004
-199,563	10,941	0,076	0,042
-198,548	-37,189	0,128	0,049
-197,533	-122,540	-0,116	-0,013
-196,519	-106,113	0,080	0,013
-195,504	21,027	-0,039	0,023
-194,490	-20,025	-0,004	0,002
-193,475	-200,000	0,026	-0,085
-192,460	-145,472	0,128	0,008
-191,446	-40,603	0,059	0,022
-190,431	8,958	0,088	-0,048
-189,417	-51,889	0,025	-0,008
-188,402	38,407	-0,109	0,070
-187,387	-121,321	0,089	0,011
-186,373	562,631	0,062	0,109
-185,358	14,590	-0,083	-0,047
-184,344	-132,183	0,102	-0,009
-183,329	357,842	0,031	0,044
-182,315	167,735	0,081	0,083
-181,300	708,010	-0,018	-0,034
-180,285	138,671	0,014	0,013
-179,271	-63,636	0,088	0,026
-178,256	-200,000	-0,015	-0,091
-177,242	-200,000	-0,013	0,057
-176,227	-200,000	-0,013	0,044
-175,212	-114,021	0,041	-0,006
-174,198	335,570	0,031	0,044
-173,183	452,427	-0,024	0,039
-172,169	-80,002	0,039	0,009
-171,154	160,750	-0,075	-0,075
-170,139	23,140	0,117	0,069
-169,125	51,592	-0,031	-0,021
-168,110	800,000	0,008	0,021
-167,096	-200,000	-0,027	0,155
-166,081	142,996	-0,075	-0,072
-165,066	41,528	-0,075	-0,049
-164,052	34,373	-0,023	-0,015
-163,037	-135,740	-0,080	-0,007
-162,023	-200,000	-0,051	0,163
-161,008	-200,000	-0,001	0,050
-159,993	-200,000	-0,014	0,073
-158,979	440,402	-0,094	0,148
-157,964	205,317	-0,088	-0,098
-156,950	21,444	-0,067	-0,039
-155,935	61,426	0,051	0,037
-154,920	-200,000	-0,000	0,086
-153,906	85,883	0,160	0,126
-152,891	-0,746	-0,086	-0,043
-151,877	800,000	0,017	0,053
-150,862	42,224	-0,082	-0,054
-149,847	342,543	0,014	-0,020
-148,833	-168,756	-0,044	-0,001
-147,818	203,419	0,088	0,098
-146,804	406,504	0,008	-0,013
-145,789	-40,292	0,072	-0,027
-144,775	-1,498	0,007	0,004
-143,760	-56,150	0,097	0,031
-142,745	-116,514	-0,063	-0,008
-141,731	389,439	0,043	0,065
-140,716	583,486	0,091	0,161
-139,702	-76,457	0,120	0,030
-138,687	800,000	-0,039	0,081
-137,672	33,347	-0,096	-0,060
-136,658	-200,000	0,032	-0,176
-135,643	800,000	-0,022	0,067
-134,629	153,896	-0,045	0,044
-133,614	257,548	0,086	0,106
-132,599	-51,407	0,067	0,022
-131,585	336,308	0,125	0,175
-130,570	113,259	-0,044	0,038
-129,556	230,443	-0,077	0,090
-128,541	800,000	0,013	0,038
-127,526	-5,799	0,074	0,036
-126,512	-0,551	0,109	-0,055
-125,497	-94,001	0,066	-0,013
-124,483	-60,856	-0,087	0,026
-123,468	52,314	0,062	-0,042
-122,453	-200,000	-0,028	0,110
-121,439	-200,000	0,014	-0,103
-120,424	-37,097	0,061	0,023
-119,410	43,699	0,104	-0,068
-118,395	271,607	0,029	-0,036
-117,380	647,200	-0,042	0,077
-116,366	-200,000	0,002	0,092
-115,351	-200,000	-0,043	0,158
-114,337	595,213	-0,050	-0,089
-113,322	-200,000	-0,027	-0,091
-112,307	-132,351	0,065	0,006
-111,293	-200,000	-0,036	-0,144
-110,278	800,000	0,013	0,032
-109,264	53,358	0,060	0,041
-108,249	800,000	0,009	0,027
-107,234	-53,583	0,061	-0,020
-106,220	77,188	-0,069	-0,052
-105,205	63,691	0,061	-0,044
-104,191	-30,732	0,208	0,084
-103,176	-82,262	0,019	0,004
-102,162	58,448	0,253	0,178
-101,147	-74,783	0,066	0,017
-100,132	-28,473	0,058	0,024
-99,118	-200,000	0,000	-0,080
-98,103	-200,000	-0,017	0,058
-97,089	-117,973	0,094	0,012
-96,074	227,526	0,091	0,106
-95,059	-120,891	-0,088	-0,011
-94,045	-200,000	0,005	-0,104
-93,030	-200,000	0,000	-0,067
-92,016	-200,000	-0,016	-0,083
-91,001	-100,175	0,118	0,021
-89,986	-158,351	0,123	-0,005
-88,972	-200,000	-0,026	0,091
-87,957	323,812	-0,060	0,082
-86,943	-82,489	-0,085	-0,020
-85,928	433,946	0,033	0,052
-84,913	38,155	-0,050	-0,032
-83,899	86,703	0,068	0,054
-82,884	199,633	-0,100	0,110
-81,870	284,233	-0,016	-0,021
-80,855	-200,000	0,014	-0,111
-79,840	66,919	0,033	-0,024
-78,826	800,000	-0,046	-0,130
-77,811	313,042	0,040	0,054
-76,797	33,157	-0,120	0,074
-75,782	-3,742	0,056	-0,028
-74,767	-200,000	0,053	0,250
-73,753	72,979	-0,059	-0,044
-72,738	-31,255	0,075	0,030
-71,724	250,600	-0,050	-0,061
-70,709	46,285	-0,050	-0,033
-69,694	47,170	0,147	0,098
-68,680	454,205	-0,011	-0,017
-67,665	-200,000	-0,014	0,097
-66,651	192,743	0,061	0,066
-65,636	-52,537	-0,023	0,008
-64,622	-200,000	-0,071	-0,000
-63,607	800,000	-0,010	-0,030
-62,592	364,890	-0,062	-0,089
-61,578	266,195	0,036	0,045
-60,563	-200,000	-0,002	-0,007
-59,549	-200,000	0,000	0,108
-58,534	45,053	-2,212	-1,457
-57,519	-200,000	0,040	-0,563
-56,505	-200,000	-1,477	-5,209
-55,490	160,206	0,872	0,871
-54,476	800,000	5,298	12,186
-53,461	-200,000	18,988	318,484
-52,446	800,000	740,857	2322,886
-51,432	549,788	1654,469	2851,126
-50,417	109,999	1637,594	1406,570
-49,403	73,611	1288,095	964,960
-48,388	29,679	1029,607	625,918
-47,373	19,628	992,579	570,186
-46,359	16,991	980,321	554,463
-45,344	13,662	976,159	541,171
-44,330	13,975	974,704	541,368
-43,315	13,316	972,792	538,128
-42,300	13,309	971,704	537,482
-41,286	13,200	971,091	536,767
-40,271	13,207	970,036	536,185
-39,257	13,250	969,135	535,804
-38,242	13,248	968,318	535,325
-37,227	13,240	967,468	534,808
-36,213	13,284	966,450	534,367
-35,198	13,186	965,597	533,557
-34,184	13,245	964,992	533,393
-33,169	13,281	963,746	532,799
-32,154	13,256	962,894	532,225
-31,140	13,292	962,099	531,882
-30,125	13,302	961,323	531,464
-29,111	13,236	960,661	530,865
-28,096	13,253	959,855	530,453
-27,082	13,301	959,049	530,140
-26,067	13,328	958,453	529,879
-25,052	13,254	957,741	529,224
-24,038	13,248	957,003	528,777
-23,023	13,222	956,506	528,396
-22,009	13,309	955,627	528,171
-20,994	13,259	955,191	527,748
-19,979	13,350	954,412	527,588
-18,965	13,285	953,893	527,073
-17,950	13,312	953,402	526,866
-16,936	13,274	952,696	526,333
-15,921	13,277	951,912	525,889
-14,906	13,220	951,285	525,338
-13,892	13,199	950,568	524,857
-12,877	13,141	949,892	524,277
-11,863	13,161	949,193	523,933
-10,848	13,149	948,810	523,663
-9,833	13,271	948,315	523,757
-8,819	13,178	947,658	523,077
-7,804	13,159	946,953	522,606
-6,790	13,163	946,480	522,339
-5,775	13,207	946,008	522,199
-4,760	13,188	945,182	521,661
-3,746	13,167	944,670	521,291
-2,731	13,030	943,927	520,424
-1,717	12,995	943,389	519,996
-0,702	12,972	942,632	519,487
0,313	12,778	941,908	519,258
1,327	16,253	939,802	529,024
2,342	25,344	790,590	468,994
3,356	21,443	444,939	258,143
4,371	-7,915	297,970	143,297
5,386	-11,637	279,821	131,001
6,400	-12,987	274,069	127,032
7,415	-13,055	271,635	125,829
8,429	-13,239	270,243	125,003
9,444	-13,264	269,388	124,574
10,459	-13,359	268,855	124,228
11,473	-13,298	267,985	123,871
12,488	-13,362	267,627	123,637
13,502	-13,539	266,968	123,159
14,517	-13,586	266,541	122,909
15,531	-13,393	266,217	122,923
16,546	-13,384	265,843	122,749
17,561	-13,049	265,342	122,810
18,575	-13,348	265,088	122,410
19,590	-13,239	264,567	122,257
20,604	-13,194	264,422	122,221
21,619	-13,307	264,102	121,960
22,634	-13,452	263,513	121,546
23,648	-13,375	263,273	121,494
24,663	-13,247	263,079	121,508
25,677	-13,258	262,857	121,385
26,692	-13,366	262,692	121,201
27,707	-13,473	262,427	120,972
28,721	-13,366	262,024	120,872
29,736	-13,389	261,574	120,633
30,750	-13,453	261,490	120,526
31,765	-13,321	261,175	120,488
32,780	-13,471	261,071	120,296
33,794	-13,278	260,739	120,303
34,809	-13,358	260,486	120,105
35,823	-13,387	260,219	119,945
36,838	-13,501	259,968	119,718
37,853	-13,533	259,784	119,595
38,867	-13,621	259,670	119,453
39,882	-13,392	259,260	119,456
40,896	-13,561	259,094	119,220
41,911	-13,633	258,869	119,042
42,926	-13,418	258,517	119,059
43,940	-13,653	258,364	118,771
44,955	-13,509	258,010	118,725
45,969	-13,818	257,958	118,419
46,984	-13,826	257,600	118,236
47,999	-14,020	257,228	117,885
49,013	-14,187	256,937	117,595
50,028	-14,218	256,776	117,484
51,042	-14,497	256,647	117,170
52,057	-14,419	256,210	117,028
53,071	-14,343	256,139	117,052
54,086	-14,359	255,946	116,939
55,101	-14,115	255,760	117,056
56,115	-13,912	255,682	117,187
57,130	-13,496	255,633	117,516
58,144	-13,242	255,449	117,641
59,159	-13,238	255,123	117,484
60,174	-13,345	254,881	117,270
61,188	-13,181	254,612	117,278
62,203	-13,287	254,501	117,124
63,217	-13,490	254,307	116,849
64,232	-13,338	253,966	116,814
65,247	-13,217	253,731	116,799
66,261	-13,343	253,527	116,586
67,276	-13,648	253,318	116,217
68,290	-13,808	252,959	115,904
69,305	-13,872	252,773	115,754
70,320	-13,827	252,505	115,659
71,334	-13,635	252,498	115,811
72,349	-13,230	252,315	116,064
73,363	-12,999	252,061	116,134
74,378	-13,439	252,078	115,755
75,393	-13,255	251,512	115,642
76,407	-13,311	251,369	115,518
77,422	-13,560	251,149	115,194
78,436	-13,312	250,938	115,298
79,451	-13,262	250,745	115,243
80,466	-13,265	250,424	115,082
81,480	-13,450	250,260	114,839
82,495	-13,573	250,012	114,611
83,509	-13,478	249,954	114,654
84,524	-13,478	249,604	114,483
85,539	-13,786	249,432	114,133
86,553	-13,896	249,309	113,974
87,568	-13,663	249,097	114,064
88,582	-13,811	248,857	113,819
89,597	-13,769	248,722	113,783
90,611	-13,408	248,542	113,994
91,626	-13,534	248,365	113,797
92,641	-13,440	248,297	113,835
93,655	-13,327	247,951	113,761
94,670	-13,690	247,757	113,357
95,684	-13,587	247,519	113,325
96,699	-13,546	247,350	113,271
97,714	-13,627	247,243	113,144
98,728	-13,809	247,113	112,922
99,743	-13,959	246,840	112,662
100,757	-13,809	246,506	112,625
101,772	-13,888	246,464	112,529
102,787	-13,594	246,153	112,623
103,801	-13,626	246,092	112,558
104,816	-13,569	245,828	112,475
105,830	-13,311	245,769	112,652
106,845	-13,238	245,537	112,597
107,860	-13,445	245,544	112,418
108,874	-13,686	245,277	112,085
109,889	-13,722	245,082	111,956
110,903	-13,687	244,732	111,815
111,918	-13,652	244,478	111,718
112,933	-13,687	244,484	111,682
113,947	-13,582	244,264	111,659
114,962	-13,458	244,008	111,634
115,976	-13,491	244,007	111,596
116,991	-13,499	243,763	111,468
118,006	-13,490	243,591	111,387
119,020	-13,391	243,402	111,372
120,035	-13,311	243,341	111,400
121,049	-13,425	243,233	111,247
122,064	-13,321	242,784	111,118
123,079	-13,361	242,608	110,994
124,093	-13,670	242,482	110,673
125,108	-13,779	242,175	110,434
126,122	-13,735	241,871	110,321
127,137	-13,969	241,701	110,043
128,151	-13,915	241,699	110,076
129,166	-13,919	241,462	109,955
130,181	-13,910	241,218	109,842
131,195	-13,719	240,961	109,870
132,210	-13,666	240,959	109,902
133,224	-13,481	240,793	109,968
134,239	-13,516	240,534	109,811
135,254	-13,435	240,391	109,802
136,268	-13,609	240,208	109,567
137,283	-13,807	239,863	109,239
138,297	-14,035	239,684	108,964
139,312	-14,104	239,531	108,828
140,327	-13,753	239,599	109,134
141,341	-13,246	239,359	109,425
142,356	-13,292	239,282	109,343
143,370	-13,044	239,080	109,441
144,385	-13,161	238,970	109,287
145,400	-13,080	238,622	109,183
146,414	-13,220	238,644	109,070
147,429	-13,240	238,362	108,916
148,443	-13,307	238,238	108,795
149,458	-12,989	238,002	108,934
150,473	-13,302	237,915	108,633
151,487	-13,270	237,732	108,565
152,502	-13,208	237,412	108,459
153,516	-13,055	237,214	108,481
154,531	-13,130	237,157	108,385
155,546	-13,270	237,064	108,221
156,560	-13,412	236,716	107,939
157,575	-13,538	236,569	107,762
158,589	-13,472	236,340	107,700
159,604	-13,280	236,368	107,857
160,619	-13,275	236,210	107,779
161,633	-12,967	236,117	107,973
162,648	-13,180	235,866	107,679
163,662	-13,362	235,779	107,485
164,677	-13,275	235,474	107,405
165,692	-13,144	235,323	107,431
166,706	-13,122	235,336	107,444
167,721	-12,988	235,119	107,442
168,735	-12,957	234,922	107,367
169,750	-13,268	234,787	107,050
170,764	-13,229	234,700	107,031
171,779	-13,172	234,532	106,990
172,794	-13,000	234,238	106,982
173,808	-13,172	233,940	106,701
174,823	-13,913	233,818	106,052
175,837	-13,887	233,593	105,961
176,852	-13,334	233,418	106,307
177,867	-13,071	233,377	106,486
178,881	-13,222	233,225	106,288
179,896	-12,939	233,076	106,433
180,910	-13,009	232,960	106,315
181,925	-13,102	232,923	106,216
182,940	-13,137	232,566	106,017
183,954	-13,004	232,471	106,068
184,969	-13,085	232,432	105,977
185,983	-12,961	232,227	105,971
186,998	-12,896	232,150	105,978
188,013	-13,134	231,944	105,688
189,027	-13,014	231,758	105,687
190,042	-13,015	231,641	105,624
191,056	-13,057	231,471	105,504
192,071	-12,833	231,174	105,534
193,086	-12,926	230,987	105,367
194,100	-12,972	230,939	105,299
195,115	-13,352	230,518	104,804
196,129	-13,511	230,519	104,671
197,144	-7,724	232,345	110,008
198,159	-2,220	234,065	115,127
199,173	1,860	235,238	118,900
200,188	2,644	235,424	119,599
201,202	2,622	235,225	119,470
202,217	2,890	234,978	119,544
203,232	2,796	234,918	119,429
204,246	2,919	234,777	119,443
205,261	3,110	234,649	119,517
206,275	3,146	234,511	119,464
207,290	3,279	234,414	119,508
208,304	3,221	234,289	119,388
209,319	3,094	234,143	119,204
210,334	3,113	233,843	119,056
211,348	2,842	233,638	118,729
212,363	2,561	233,349	118,354
213,377	2,553	233,112	118,217
214,392	2,428	232,969	118,037
215,407	2,473	232,938	118,045
216,421	2,756	232,671	118,119
217,436	2,420	232,657	117,841
218,450	2,179	232,460	117,544
219,465	2,377	232,249	117,580
220,480	2,218	232,016	117,329
221,494	2,231	231,860	117,250
222,509	2,571	231,855	117,499
223,523	2,661	231,667	117,462
224,538	2,311	231,616	117,156
225,553	2,192	231,436	116,964
226,567	2,455	231,169	117,020
227,582	2,744	231,193	117,244
228,596	2,767	231,088	117,198
229,611	2,501	230,813	116,844
230,626	2,329	230,540	116,564
231,640	2,302	230,427	116,475
232,655	2,697	230,389	116,748
233,669	2,868	230,263	116,805
234,684	3,176	230,202	116,999
235,699	2,642	230,046	116,501
236,713	2,264	229,891	116,124
237,728	2,356	229,582	116,027
238,742	2,206	229,371	115,796
239,757	2,372	229,264	115,858
240,772	2,171	229,036	115,580
241,786	2,366	228,890	115,643
242,801	2,478	228,838	115,693
243,815	2,802	228,891	115,956
244,830	2,908	228,694	115,926
245,844	2,566	228,403	115,509
246,859	2,470	228,287	115,366
247,874	2,704	228,176	115,477
248,888	2,702	227,967	115,360
249,903	2,720	227,789	115,273
250,917	2,504	227,639	115,024
251,932	2,408	227,496	114,869
252,947	2,328	227,305	114,702
253,961	2,333	227,061	114,573
254,976	2,376	227,062	114,595
255,990	2,439	226,904	114,553
257,005	2,447	226,791	114,491
258,020	2,530	226,767	114,531
259,034	2,758	226,463	114,538
260,049	2,842	226,289	114,503
261,063	2,714	226,290	114,398
262,078	2,696	226,285	114,371
263,093	2,978	225,958	114,408
264,107	2,829	225,921	114,267
265,122	2,740	225,721	114,089
266,136	3,056	225,608	114,258
267,151	2,825	225,376	113,958
268,166	2,395	225,250	113,562
269,180	2,221	224,840	113,216
270,195	2,489	224,839	113,406
271,209	2,398	224,612	113,213
272,224	2,308	224,522	113,090
273,239	2,462	224,499	113,184
274,253	2,473	224,098	112,980
275,268	1,979	224,064	112,586
276,282	1,988	223,980	112,540
277,297	2,142	223,727	112,517
278,312	2,360	223,676	112,642
279,326	2,448	223,580	112,649
280,341	2,568	223,511	112,694
281,355	2,419	223,288	112,461
282,370	2,542	223,166	112,480
283,384	2,159	222,926	112,067
284,399	2,248	222,643	111,980
285,414	2,211	222,715	111,979
286,428	2,307	222,672	112,018
287,443	2,524	222,573	112,118
288,457	2,542	222,286	111,977
289,472	2,240	222,088	111,645
290,487	1,886	221,830	111,246
291,501	1,943	221,779	111,252
292,516	2,036	221,579	111,210
293,530	2,030	221,458	111,135
294,545	2,218	221,340	111,203
295,560	2,287	221,334	111,241
296,574	2,479	221,103	111,255
297,589	2,090	221,018	110,918
298,603	2,575	220,855	111,181
299,618	2,473	220,698	111,017
300,633	2,650	220,459	111,016
301,647	2,510	220,570	110,960
302,662	2,431	220,488	110,851
303,676	2,521	220,275	110,800
304,691	2,838	220,140	110,952
305,706	2,717	219,973	110,771
306,720	2,557	219,734	110,524
307,735	2,523	219,467	110,355
308,749	2,216	219,483	110,132
309,764	2,589	219,351	110,325
310,779	2,737	219,159	110,326
311,793	2,608	218,945	110,115
312,808	2,606	218,962	110,113
313,822	2,625	218,788	110,029
314,837	2,354	218,619	109,739
315,852	2,153	218,424	109,486
316,866	2,485	218,270	109,638
317,881	2,768	218,062	109,727
318,895	2,602	218,055	109,595
319,910	2,386	217,833	109,318
320,925	1,770	217,636	108,767
321,939	1,638	217,603	108,646
322,954	1,874	217,465	108,737
323,968	2,297	217,369	108,982
324,983	2,430	217,349	109,058
325,997	2,619	217,201	109,110
327,012	2,643	217,096	109,065
328,027	2,695	216,738	108,912
329,041	2,718	216,838	108,969
330,056	2,667	216,756	108,881
331,070	2,571	216,409	108,629
332,085	2,297	216,183	108,311
333,100	2,259	216,212	108,288
334,114	2,477	215,984	108,320
335,129	2,428	215,986	108,276
336,143	2,476	215,641	108,128
337,158	2,425	215,514	108,018
338,173	2,232	215,346	107,787
339,187	1,958	215,261	107,541
340,202	2,205	215,003	107,578
341,216	2,468	214,968	107,736
342,231	2,477	215,115	107,807
343,246	2,372	214,865	107,597
344,260	2,796	214,498	107,704
345,275	2,526	214,685	107,597
346,289	2,685	214,537	107,626
347,304	2,632	214,270	107,445
348,319	2,315	214,067	107,110
349,333	2,498	213,867	107,130
350,348	2,625	213,885	107,218
351,362	2,693	213,804	107,216
352,377	2,925	213,566	107,250
353,392	2,555	213,337	106,866
354,406	2,591	213,330	106,878
355,421	196,998	1313,497	1391,022
356,435	157,615	1447,470	1390,969
