DTS Sentinel unit serial number:	SN410029Multiplexer serial number:	ORYXHardware model number:	OX2-SRSoftware version number:	ORYX F/W v4,00 Oryx Data Collector v3.7.2.0data status	okinstallation	B6 Nyhavnadifferential loss correction	single-endedforward channel	channel 2reverse channel	N/Adate	2023/12/09time	03:15:08forward acquisition time	300,00reverse acquisition time	0,00gamma	499,1914k internal	0,3154k external	0,3154temperature offset calibration	1,0000default loss term (dB/km)	0,3820temperature slope calibration	1,0000multiplexer offset coefficient	1,0000multiplexer slope coefficient	1,0000fibre end	0,00T internal ref (°C)	16,25T ext. ref 1 (°C)	0,17T ext. ref 2 (°C)	0,16length (m)	temperature (°C)	Stokes	anti-Stokes-744,400	-34,316	0,113	0,046
-743,385	-176,217	-0,400	-0,008
-742,371	40,748	0,049	0,032
-741,356	-164,223	-0,285	0,009
-740,342	-200,000	0,037	0,133
-739,327	-120,322	-0,472	0,059
-738,312	-14,724	0,115	-0,054
-737,298	-41,987	-0,413	-0,155
-736,283	-62,443	0,157	0,048
-735,269	-41,625	-0,305	0,115
-734,254	-103,824	-0,121	0,021
-733,239	60,060	-0,344	-0,250
-732,225	-76,695	0,227	-0,058
-731,210	-200,000	0,016	0,071
-730,196	496,598	0,061	-0,104
-729,181	20,589	0,077	0,046
-728,167	13,349	-0,092	0,052
-727,152	-200,000	-0,004	-0,056
-726,137	-123,827	-0,073	0,008
-725,123	800,000	0,022	0,051
-724,108	-20,217	-0,052	0,024
-723,094	531,876	0,016	-0,028
-722,079	181,361	-0,057	-0,062
-721,064	343,701	-0,019	-0,028
-720,050	419,683	0,017	0,028
-719,035	-200,000	-0,007	-0,154
-718,021	479,063	-0,036	-0,060
-717,006	65,103	-0,089	-0,067
-715,991	-200,000	0,017	-0,171
-714,977	-77,599	-0,216	0,055
-713,962	-59,741	0,202	-0,063
-712,948	21,330	-0,115	-0,069
-711,933	383,659	-0,060	-0,091
-710,918	-200,000	0,031	-0,132
-709,904	224,942	-0,072	-0,086
-708,889	16,832	-0,071	0,041
-707,875	86,005	-0,033	-0,027
-706,860	26,696	0,056	-0,035
-705,845	-5,894	0,087	0,044
-704,831	-4,393	-0,103	0,052
-703,816	345,018	-0,025	0,036
-702,802	-200,000	-0,005	-0,102
-701,787	-6,107	-0,040	0,020
-700,772	-190,391	-0,082	0,001
-699,758	102,708	-0,039	0,034
-698,743	719,665	0,056	-0,110
-697,729	133,064	0,098	-0,094
-696,714	800,000	0,028	-0,063
-695,699	17,377	-0,043	0,025
-694,685	800,000	-0,026	-0,072
-693,670	473,637	-0,075	-0,125
-692,656	29,621	0,134	0,084
-691,641	-200,000	0,000	0,015
-690,627	-200,000	0,031	0,135
-689,612	-200,000	0,007	-0,031
-688,597	253,524	-0,058	-0,073
-687,583	99,296	-0,044	-0,038
-686,568	-91,872	-0,138	-0,029
-685,554	-25,288	-0,044	-0,019
-684,539	-200,000	-0,003	0,175
-683,524	238,287	0,095	0,117
-682,510	-82,249	-0,114	0,027
-681,495	-107,107	-0,127	0,020
-680,481	-200,000	0,017	-0,104
-679,466	596,600	0,048	-0,089
-678,451	395,412	0,054	-0,084
-677,437	343,248	0,017	-0,024
-676,422	-180,224	0,179	-0,003
-675,408	-200,000	-0,011	0,053
-674,393	-200,000	-0,005	0,027
-673,378	208,407	-0,039	0,045
-672,364	99,069	0,082	-0,070
-671,349	800,000	-0,059	0,133
-670,335	-54,173	0,052	-0,017
-669,320	-29,153	-0,058	-0,024
-668,305	216,081	0,104	0,121
-667,291	-5,092	-0,053	-0,027
-666,276	8,426	0,043	0,024
-665,262	800,000	0,044	-0,122
-664,247	-176,138	-0,045	0,001
-663,232	-200,000	0,043	0,162
-662,218	-149,801	-0,070	-0,004
-661,203	-59,617	0,112	-0,035
-660,189	800,000	-0,071	0,151
-659,174	-200,000	-0,027	-0,138
-658,159	760,621	-0,042	-0,084
-657,145	315,065	-0,054	0,076
-656,130	-113,183	-0,123	0,018
-655,116	800,000	-0,034	0,110
-654,101	-19,303	-0,107	0,048
-653,086	-200,000	-0,025	0,142
-652,072	243,069	0,077	-0,095
-651,057	326,255	-0,085	-0,120
-650,043	-29,095	-0,104	-0,044
-649,028	-95,598	0,138	0,027
-648,014	112,778	0,039	-0,035
-646,999	-79,512	-0,099	-0,024
-645,984	9,045	-0,100	0,055
-644,970	-68,240	0,069	0,020
-643,955	22,846	-0,058	-0,035
-642,941	232,568	0,010	-0,012
-641,926	-200,000	-0,001	-0,042
-640,911	800,000	0,039	0,099
-639,897	546,672	-0,032	0,057
-638,882	800,000	-0,069	0,155
-637,868	-200,000	0,001	0,007
-636,853	156,577	-0,064	-0,065
-635,838	452,291	-0,102	-0,167
-634,824	-110,530	-0,141	0,021
-633,809	-147,023	-0,049	0,003
-632,795	276,503	-0,017	0,023
-631,780	36,092	0,030	-0,020
-630,765	445,621	0,031	0,050
-629,751	170,107	-0,133	0,140
-628,736	227,435	-0,033	0,039
-627,722	42,683	-0,079	-0,053
-626,707	800,000	-0,038	-0,088
-625,692	321,993	0,056	-0,079
-624,678	-200,000	0,022	0,104
-623,663	-41,472	-0,125	-0,047
-622,649	800,000	0,040	-0,099
-621,634	397,430	-0,141	-0,218
-620,619	800,000	-0,073	-0,165
-619,605	800,000	-0,010	-0,030
-618,590	350,664	-0,093	0,135
-617,576	82,041	0,065	0,051
-616,561	350,983	0,044	-0,064
-615,546	-200,000	0,009	0,030
-614,532	159,319	-0,026	-0,026
-613,517	-200,000	0,040	-0,149
-612,503	482,203	0,064	-0,107
-611,488	-119,518	-0,080	0,010
-610,474	-38,091	-0,100	0,039
-609,459	800,000	-0,026	0,058
-608,444	-98,354	-0,133	-0,025
-607,430	378,804	-0,093	-0,140
-606,415	-199,615	-0,069	-0,000
-605,401	-200,000	0,006	0,120
-604,386	356,771	0,076	0,112
-603,371	103,916	0,021	-0,018
-602,357	-200,000	-0,001	-0,028
-601,342	87,797	-0,098	0,080
-600,328	33,640	-0,094	-0,060
-599,313	-128,156	-0,068	0,007
-598,298	-88,869	-0,070	0,015
-597,284	385,967	-0,071	0,108
-596,269	8,775	0,067	0,037
-595,255	-200,000	0,010	0,095
-594,240	-94,417	-0,046	-0,009
-593,225	-200,000	-0,005	-0,093
-592,211	79,280	-0,107	-0,084
-591,196	800,000	0,066	-0,157
-590,182	35,374	0,030	-0,019
-589,167	346,926	-0,063	-0,091
-588,152	13,346	0,114	-0,065
-587,138	26,754	-0,071	-0,043
-586,123	-124,131	-0,112	-0,013
-585,109	78,719	-0,098	-0,077
-584,094	-200,000	0,016	-0,130
-583,079	106,646	0,129	0,112
-582,065	-44,141	-0,098	0,036
-581,050	196,086	-0,097	-0,108
-580,036	340,938	-0,003	-0,004
-579,021	-200,000	0,013	-0,091
-578,006	800,000	-0,034	0,075
-576,992	-161,107	0,078	-0,003
-575,977	-43,897	0,157	0,058
-574,963	26,848	-0,098	-0,060
-573,948	114,361	0,081	0,072
-572,934	800,000	0,022	-0,059
-571,919	800,000	-0,030	0,062
-570,904	-5,466	-0,042	0,021
-569,890	-200,000	-0,023	-0,075
-568,875	-109,995	0,076	0,012
-567,861	-128,513	0,125	-0,013
-566,846	-200,000	-0,053	0,199
-565,831	81,730	0,084	0,067
-564,817	136,074	0,037	-0,036
-563,802	-200,000	0,007	-0,033
-562,788	97,894	-0,086	-0,073
-561,773	401,393	-0,028	-0,043
-560,758	-200,000	-0,003	-0,158
-559,744	448,661	-0,019	-0,030
-558,729	800,000	-0,047	0,117
-557,715	-86,479	-0,103	-0,023
-556,700	-87,968	0,079	-0,017
-555,685	161,422	-0,112	0,115
-554,671	-63,161	0,067	-0,020
-553,656	-200,000	-0,035	0,119
-552,642	-22,027	0,064	-0,028
-551,627	0,730	-0,063	-0,033
-550,612	167,216	-0,119	0,123
-549,598	787,933	-0,056	0,112
-548,583	-170,518	-0,039	-0,001
-547,569	800,000	-0,011	0,030
-546,554	-200,000	0,010	0,183
-545,539	-45,970	0,122	0,044
-544,525	-32,381	-0,091	0,037
-543,510	192,620	-0,139	-0,154
-542,496	508,375	-0,053	-0,090
-541,481	171,100	0,018	0,019
-540,466	91,477	0,073	-0,060
-539,452	59,703	0,066	0,048
-538,437	-76,027	0,091	0,023
-537,423	-139,240	0,018	0,001
-536,408	14,119	-0,047	0,027
-535,393	582,922	0,031	-0,057
-534,379	32,695	-0,086	-0,055
-533,364	641,559	-0,070	-0,132
-532,350	-100,878	0,194	-0,035
-531,335	69,778	0,162	0,122
-530,321	368,521	-0,053	-0,079
-529,306	497,252	0,036	0,060
-528,291	-22,370	0,103	0,045
-527,277	392,080	-0,045	-0,069
-526,262	10,532	0,037	0,021
-525,248	-49,984	-0,150	-0,052
-524,233	11,620	0,069	0,039
-523,218	438,317	-0,058	0,094
-522,204	-130,373	-0,095	-0,009
-521,189	800,000	-0,015	-0,033
-520,175	71,440	-0,094	-0,072
-519,160	-200,000	0,011	0,047
-518,145	26,626	0,179	0,109
-517,131	-61,570	0,214	0,065
-516,116	800,000	-0,058	-0,125
-515,102	64,623	-0,040	-0,030
-514,087	-1,250	0,028	-0,014
-513,072	-5,918	-0,121	0,061
-512,058	-65,414	-0,168	-0,049
-511,043	104,422	-0,079	0,068
-510,029	-93,979	0,228	-0,045
-509,014	-83,010	0,073	-0,017
-507,999	319,349	-0,036	-0,050
-506,985	21,798	-0,087	0,052
-505,970	153,458	-0,013	0,013
-504,956	-165,246	-0,032	-0,001
-503,941	-33,500	0,106	-0,042
-502,926	-200,000	-0,014	0,055
-501,912	187,269	0,070	0,077
-500,897	-93,554	0,145	-0,029
-499,883	199,271	-0,141	-0,158
-498,868	459,727	-0,029	-0,048
-497,853	-43,606	0,044	-0,016
-496,839	82,936	-0,026	0,021
-495,824	75,461	0,096	0,074
-494,810	-200,000	-0,037	-0,191
-493,795	-200,000	-0,014	-0,139
-492,781	545,214	-0,047	-0,082
-491,766	-70,069	-0,132	-0,037
-490,751	485,389	-0,008	-0,014
-489,737	589,039	-0,041	0,074
-488,722	800,000	-0,012	-0,029
-487,708	665,769	0,058	-0,110
-486,693	229,038	0,069	0,083
-485,678	-71,277	-0,099	0,027
-484,664	-155,699	-0,192	0,009
-483,649	-200,000	-0,033	-0,116
-482,635	800,000	-0,056	-0,130
-481,620	-200,000	0,028	-0,137
-480,605	121,974	0,110	0,100
-479,591	-61,742	-0,101	0,031
-478,576	-200,000	0,000	-0,005
-477,562	-80,720	0,090	-0,022
-476,547	800,000	0,041	-0,110
-475,532	-58,285	-0,038	-0,012
-474,518	186,063	-0,030	-0,033
-473,503	-16,667	0,026	-0,012
-472,489	-38,651	0,189	0,073
-471,474	-191,760	-0,124	-0,001
-470,459	23,809	0,072	0,043
-469,445	-5,785	-0,089	-0,044
-468,430	-173,060	-0,090	-0,002
-467,416	-200,000	0,006	-0,082
-466,401	-73,538	0,146	-0,039
-465,386	-25,198	0,112	0,048
-464,372	-200,000	-0,002	0,025
-463,357	41,826	-0,014	-0,009
-462,343	349,174	-0,065	-0,093
-461,328	-200,000	-0,005	0,116
-460,313	-200,000	-0,001	0,125
-459,299	551,794	0,007	0,012
-458,284	-142,207	-0,016	-0,001
-457,270	601,150	-0,038	-0,070
-456,255	800,000	-0,058	-0,145
-455,241	800,000	-0,060	-0,156
-454,226	-107,855	0,084	0,013
-453,211	171,644	-0,082	0,086
-452,197	800,000	0,058	0,140
-451,182	420,251	-0,061	-0,095
-450,168	-44,748	0,141	-0,051
-449,153	800,000	0,025	-0,070
-448,138	120,254	-0,129	-0,117
-447,124	414,344	-0,050	0,077
-446,109	37,692	0,091	0,059
-445,095	75,640	0,066	0,051
-444,080	334,188	0,033	0,046
-443,065	150,258	-0,209	0,207
-442,051	44,687	-0,117	0,079
-441,036	82,913	0,083	-0,066
-440,022	32,213	-0,051	-0,032
-439,007	174,125	0,042	0,045
-437,992	-200,000	0,000	0,054
-436,978	43,111	-0,072	0,048
-435,963	115,146	0,056	0,049
-434,949	127,284	0,027	0,025
-433,934	-22,501	-0,022	-0,010
-432,919	173,671	-0,099	0,105
-431,905	-94,112	-0,165	-0,033
-430,890	3,335	-0,073	-0,038
-429,876	53,884	0,012	0,008
-428,861	-200,000	0,007	0,185
-427,846	33,720	-0,090	0,057
-426,832	800,000	-0,033	-0,082
-425,817	-200,000	-0,013	-0,070
-424,803	-79,969	-0,120	-0,029
-423,788	304,754	-0,009	0,013
-422,773	-22,208	0,086	-0,038
-421,759	800,000	0,045	-0,096
-420,744	-175,307	0,122	-0,002
-419,730	-200,000	-0,051	-0,170
-418,715	800,000	0,014	-0,035
-417,701	-200,000	-0,028	0,206
-416,686	-118,814	0,041	0,005
-415,671	-103,657	-0,134	0,023
-414,657	-200,000	-0,007	-0,070
-413,642	800,000	0,016	-0,050
-412,628	-36,091	0,099	0,039
-411,613	-42,501	0,026	0,010
-410,598	324,232	0,034	-0,047
-409,584	10,409	0,144	0,080
-408,569	21,004	0,080	0,047
-407,555	-147,692	-0,106	-0,006
-406,540	-200,000	0,004	0,149
-405,525	-200,000	-0,021	-0,076
-404,511	-76,532	-0,131	0,033
-403,496	764,999	-0,050	0,099
-402,482	2,023	0,080	-0,042
-401,467	-7,540	0,118	0,058
-400,452	-37,281	0,086	0,033
-399,438	38,217	0,017	0,011
-398,423	-200,000	0,023	-0,173
-397,409	-52,926	0,026	-0,009
-396,394	450,769	0,061	0,099
-395,379	-200,000	-0,006	0,074
-394,365	227,530	0,156	0,185
-393,350	-200,000	-0,002	0,033
-392,336	417,748	0,108	0,169
-391,321	-20,450	-0,092	0,041
-390,306	31,092	-0,105	0,066
-389,292	-96,887	0,126	0,024
-388,277	-3,108	-0,065	-0,033
-387,263	589,667	0,063	-0,113
-386,248	800,000	0,030	0,083
-385,233	131,435	0,127	0,119
-384,219	30,541	-0,055	0,034
-383,204	-22,247	-0,090	-0,039
-382,190	-200,000	0,006	0,034
-381,175	-200,000	-0,001	-0,148
-380,160	-86,463	0,087	-0,019
-379,146	81,870	0,027	-0,021
-378,131	91,673	0,034	-0,028
-377,117	46,370	0,078	-0,052
-376,102	-56,480	-0,026	0,008
-375,088	800,000	0,062	-0,138
-374,073	-200,000	-0,001	-0,016
-373,058	-45,885	0,078	-0,028
-372,044	112,516	0,146	0,128
-371,029	386,077	-0,071	0,107
-370,015	-200,000	-0,043	0,154
-369,000	-12,668	-0,129	0,061
-367,985	800,000	-0,029	-0,067
-366,971	-200,000	0,031	-0,113
-365,956	192,611	0,147	0,162
-364,942	800,000	0,046	0,116
-363,927	75,794	-0,012	0,009
-362,912	18,059	0,004	0,002
-361,898	197,274	-0,076	0,084
-360,883	88,754	-0,025	-0,020
-359,869	162,241	0,036	-0,037
-358,854	83,617	0,080	-0,064
-357,839	-67,302	-0,063	0,018
-356,825	800,000	0,031	0,100
-355,810	-200,000	0,011	0,138
-354,796	-200,000	0,018	-0,117
-353,781	79,187	-0,110	0,086
-352,766	328,355	-0,028	-0,039
-351,752	-132,322	0,051	-0,005
-350,737	96,102	0,007	0,005
-349,723	82,522	-0,046	0,036
-348,708	-200,000	-0,021	0,131
-347,693	-139,586	-0,033	-0,002
-346,679	-161,029	-0,115	0,004
-345,664	-85,327	0,083	0,019
-344,650	304,678	0,032	-0,043
-343,635	-68,266	0,132	0,037
-342,620	800,000	0,034	0,093
-341,606	263,476	-0,050	-0,063
-340,591	734,252	-0,028	-0,054
-339,577	-200,000	-0,012	-0,062
-338,562	236,480	0,017	-0,020
-337,548	38,482	0,048	0,031
-336,533	35,932	0,137	0,087
-335,518	-110,843	0,145	-0,021
-334,504	800,000	0,008	-0,020
-333,489	290,757	0,044	-0,058
-332,475	657,112	-0,060	-0,113
-331,460	-56,075	0,057	0,018
-330,445	438,312	0,015	0,023
-329,431	499,885	0,021	-0,036
-328,416	800,000	0,029	-0,082
-327,402	393,425	0,073	-0,111
-326,387	-200,000	0,020	0,133
-325,372	800,000	0,016	-0,040
-324,358	496,464	0,068	-0,114
-323,343	800,000	-0,022	-0,052
-322,329	393,596	0,050	0,076
-321,314	655,111	-0,078	-0,146
-320,299	-38,727	0,112	0,043
-319,285	753,279	-0,024	0,047
-318,270	304,048	0,052	-0,070
-317,256	52,888	0,032	-0,022
-316,241	-200,000	0,010	-0,083
-315,226	87,516	-0,028	0,022
-314,212	562,883	0,011	0,019
-313,197	-200,000	-0,015	-0,056
-312,183	-200,000	-0,002	-0,083
-311,168	-130,169	-0,182	0,018
-310,153	-200,000	0,008	-0,061
-309,139	800,000	0,030	-0,094
-308,124	800,000	-0,026	-0,060
-307,110	94,325	0,121	0,100
-306,095	714,439	0,079	0,153
-305,080	296,096	0,045	0,060
-304,066	772,657	-0,014	-0,029
-303,051	-200,000	0,005	0,098
-302,037	98,868	-0,019	0,016
-301,022	-200,000	0,030	-0,116
-300,008	-200,000	-0,191	-0,000
-298,993	50,363	0,125	0,085
-297,978	-200,000	0,076	-0,000
-296,964	-12,010	-0,049	0,023
-295,949	-59,523	-0,106	-0,033
-294,935	127,190	-0,135	-0,124
-293,920	-11,215	0,085	-0,040
-292,905	212,715	-0,037	0,043
-291,891	362,149	0,068	0,099
-290,876	38,580	-0,139	0,090
-289,862	103,333	-0,085	-0,072
-288,847	737,731	0,074	-0,145
-287,832	166,455	0,024	-0,025
-286,818	800,000	0,007	0,019
-285,803	-200,000	0,023	0,104
-284,789	60,124	0,127	0,091
-283,774	527,949	-0,057	0,098
-282,759	-200,000	0,030	0,123
-281,745	-200,000	-0,031	0,121
-280,730	-200,000	0,040	-0,184
-279,716	-200,000	0,001	-0,022
-278,701	147,648	0,092	0,090
-277,686	99,024	0,104	0,087
-276,672	800,000	-0,045	-0,104
-275,657	-176,366	0,110	0,002
-274,643	381,635	0,024	0,035
-273,628	-47,890	-0,136	-0,048
-272,613	24,121	-0,084	0,050
-271,599	349,310	0,038	0,054
-270,584	178,686	0,048	0,051
-269,570	54,002	0,104	-0,072
-268,555	800,000	0,033	0,077
-267,540	-200,000	-0,006	-0,128
-266,526	332,293	-0,094	-0,131
-265,511	-111,045	0,143	-0,021
-264,497	800,000	0,048	-0,101
-263,482	316,987	-0,021	0,029
-262,467	232,096	0,078	0,093
-261,453	-200,000	-0,011	-0,149
-260,438	-59,071	0,121	-0,037
-259,424	800,000	0,039	-0,117
-258,409	44,518	0,165	-0,110
-257,395	118,577	-0,016	-0,014
-256,380	-78,127	0,085	0,021
-255,365	800,000	-0,009	0,023
-254,351	-200,000	-0,005	-0,068
-253,336	93,184	-0,025	-0,021
-252,322	800,000	0,040	-0,082
-251,307	519,162	-0,034	-0,058
-250,292	-155,273	-0,105	0,005
-249,278	-68,325	0,053	-0,015
-248,263	203,342	0,107	0,120
-247,249	-194,633	-0,072	0,000
-246,234	108,006	-0,146	-0,126
-245,219	369,637	-0,073	-0,107
-244,205	14,366	0,065	-0,037
-243,190	-14,317	0,109	0,051
-242,176	-200,000	0,022	0,096
-241,161	800,000	-0,031	0,074
-240,146	-200,000	0,024	0,198
-239,132	-200,000	-0,007	0,027
-238,117	22,426	-0,086	-0,051
-237,103	-55,707	0,047	0,015
-236,088	800,000	0,022	0,046
-235,073	-200,000	-0,006	0,073
-234,059	142,766	0,049	0,048
-233,044	-200,000	0,033	0,188
-232,030	-135,229	0,029	-0,002
-231,015	-200,000	0,002	0,125
-230,000	314,628	0,058	-0,079
-228,986	-200,000	0,003	-0,052
-227,971	409,965	-0,073	0,113
-226,957	-57,518	0,111	0,035
-225,942	134,331	-0,075	0,070
-224,927	221,746	-0,106	-0,123
-223,913	203,996	0,018	0,021
-222,898	91,264	-0,075	-0,061
-221,884	194,427	-0,054	-0,060
-220,869	636,062	0,074	0,137
-219,855	800,000	-0,033	0,071
-218,840	800,000	0,063	0,130
-217,825	-200,000	0,010	0,073
-216,811	89,020	-0,101	0,081
-215,796	-200,000	-0,025	-0,089
-214,782	800,000	-0,013	0,037
-213,767	-182,204	0,164	-0,002
-212,752	420,198	0,054	-0,083
-211,738	23,752	0,091	-0,054
-210,723	-36,127	-0,012	0,005
-209,709	-200,000	0,001	0,142
-208,694	-136,711	0,032	0,003
-207,679	204,739	0,082	-0,092
-206,665	-26,725	0,182	-0,077
-205,650	-2,683	0,105	-0,053
-204,636	-200,000	0,002	0,013
-203,621	-164,165	0,099	0,003
-202,606	-200,000	-0,013	-0,117
-201,592	24,128	0,016	-0,010
-200,577	450,121	-0,074	0,118
-199,563	800,000	0,047	-0,117
-198,548	113,335	0,040	-0,035
-197,533	-45,191	-0,108	0,038
-196,519	315,826	0,063	0,086
-195,504	189,927	0,114	0,124
-194,490	187,518	0,053	-0,058
-193,475	800,000	-0,006	0,017
-192,460	-200,000	-0,002	-0,030
-191,446	-25,763	-0,125	-0,053
-190,431	524,120	0,023	0,040
-189,417	-98,410	-0,103	0,019
-188,402	158,800	-0,122	0,123
-187,387	-200,000	-0,001	-0,099
-186,373	420,670	-0,053	-0,082
-185,358	-56,662	0,168	0,054
-184,344	42,455	0,079	-0,052
-183,329	-200,000	-0,021	0,166
-182,315	89,671	-0,065	0,052
-181,300	500,447	-0,024	-0,039
-180,285	-29,484	-0,077	0,032
-179,271	-200,000	-0,031	-0,169
-178,256	76,432	0,078	0,059
-177,242	-85,451	-0,071	-0,016
-176,227	-77,514	-0,066	-0,016
-175,212	57,725	0,030	-0,021
-174,198	-36,448	-0,098	-0,038
-173,183	800,000	-0,018	0,055
-172,169	-135,046	0,010	-0,001
-171,154	-51,618	-0,053	0,018
-170,139	-200,000	-0,022	-0,083
-169,125	174,696	0,035	0,036
-168,110	-200,000	0,008	0,061
-167,096	-200,000	-0,013	0,076
-166,081	-18,358	-0,063	-0,028
-165,066	558,258	0,032	0,057
-164,052	-200,000	0,018	-0,124
-163,037	346,435	-0,019	0,027
-162,023	-159,378	0,075	-0,003
-161,008	-152,301	-0,091	0,005
-159,993	-200,000	-0,028	-0,174
-158,979	136,894	0,069	-0,065
-157,964	-200,000	-0,027	-0,101
-156,950	-54,019	-0,104	0,034
-155,935	145,593	0,080	0,077
-154,920	800,000	0,045	0,117
-153,906	-200,000	-0,002	-0,006
-152,891	-200,000	-0,087	-0,000
-151,877	-147,723	0,179	0,011
-150,862	-200,000	-0,003	-0,043
-149,847	74,733	0,111	-0,084
-148,833	98,551	0,089	0,074
-147,818	-183,487	0,166	0,002
-146,804	-154,968	0,114	-0,005
-145,789	172,265	-0,095	0,099
-144,775	151,015	0,030	-0,030
-143,760	210,220	-0,125	-0,142
-142,745	-69,452	-0,077	0,021
-141,731	345,022	0,091	0,130
-140,716	-200,000	0,026	-0,164
-139,702	189,883	0,046	-0,050
-138,687	-41,841	0,074	0,027
-137,672	-105,001	0,091	-0,015
-136,658	-104,680	-0,056	0,009
-135,643	-62,687	-0,095	-0,028
-134,629	-200,000	0,007	-0,164
-133,614	-200,000	0,002	-0,044
-132,599	-79,215	0,053	0,013
-131,585	-200,000	0,020	-0,110
-130,570	-200,000	-0,005	-0,075
-129,556	-200,000	-0,037	-0,119
-128,541	800,000	-0,086	-0,174
-127,526	488,818	0,071	-0,118
-126,512	800,000	-0,047	-0,114
-125,497	-94,947	0,161	-0,031
-124,483	-200,000	0,004	-0,099
-123,468	25,485	-0,096	-0,058
-122,453	-200,000	0,015	-0,118
-121,439	-200,000	0,007	0,072
-120,424	198,862	-0,014	-0,015
-119,410	248,465	-0,049	-0,060
-118,395	800,000	-0,047	0,136
-117,380	-44,896	0,160	0,057
-116,366	706,707	0,067	0,129
-115,351	263,494	-0,035	0,043
-114,337	-200,000	-0,005	0,095
-113,322	-22,620	0,014	0,006
-112,307	313,746	-0,062	-0,085
-111,293	-86,635	0,115	0,025
-110,278	-134,692	-0,044	-0,004
-109,264	-200,000	0,000	0,033
-108,249	534,145	0,041	0,071
-107,234	407,142	-0,061	-0,093
-106,220	-57,640	0,028	-0,009
-105,205	92,369	-0,060	0,049
-104,191	-13,531	0,071	0,033
-103,176	-36,672	0,098	0,038
-102,162	-28,099	0,118	0,049
-101,147	332,736	0,014	-0,019
-100,132	-200,000	-0,013	-0,136
-99,118	-200,000	-0,010	-0,059
-98,103	-119,751	0,105	0,013
-97,089	38,893	-0,095	0,061
-96,074	-200,000	0,014	-0,112
-95,059	60,319	0,141	0,101
-94,045	2,649	0,064	-0,033
-93,030	800,000	-0,050	-0,131
-92,016	513,622	-0,013	-0,023
-91,001	-200,000	-0,001	0,030
-89,986	79,130	0,144	0,111
-88,972	796,275	0,032	0,063
-87,957	255,793	-0,022	-0,027
-86,943	438,703	0,112	0,176
-85,928	-39,821	-0,097	0,036
-84,913	-108,362	-0,069	0,011
-83,899	-200,000	-0,018	-0,119
-82,884	-125,997	-0,103	-0,011
-81,870	798,130	0,042	0,083
-80,855	440,580	0,011	0,017
-79,840	800,000	0,067	0,166
-78,826	800,000	-0,016	-0,043
-77,811	-200,000	0,007	-0,182
-76,797	598,193	-0,035	-0,062
-75,782	-200,000	-0,013	0,113
-74,767	-200,000	-0,004	-0,047
-73,753	1,693	-0,034	0,017
-72,738	-200,000	0,007	0,044
-71,724	128,593	-0,040	0,036
-70,709	-200,000	-0,023	-0,148
-69,694	574,451	-0,069	-0,121
-68,680	-43,122	0,140	0,051
-67,665	-200,000	-0,013	0,048
-66,651	800,000	-0,007	0,015
-65,636	35,873	-0,034	-0,021
-64,622	-16,244	0,034	-0,015
-63,607	-71,209	0,177	0,047
-62,592	-200,000	0,011	-0,100
-61,578	142,948	-0,095	-0,091
-60,563	20,799	0,088	-0,051
-59,549	569,136	-0,012	0,021
-58,534	4,135	-1,903	-0,998
-57,519	-200,000	-0,210	-0,958
-56,505	-200,000	-1,279	-4,995
-55,490	-27,252	0,734	0,306
-54,476	800,000	5,393	12,254
-53,461	-200,000	17,303	276,254
-52,446	800,000	719,267	2189,536
-51,432	528,681	1632,719	2779,093
-50,417	111,957	1626,591	1411,493
-49,403	75,530	1286,407	974,878
-48,388	33,025	1031,837	640,987
-47,373	20,208	993,884	574,937
-46,359	18,784	982,094	563,398
-45,344	16,499	978,129	553,582
-44,330	16,686	976,774	553,407
-43,315	16,296	974,877	551,032
-42,300	16,277	973,915	550,404
-41,286	16,246	972,927	549,723
-40,271	16,288	971,843	549,224
-39,257	16,360	970,994	548,958
-38,242	16,270	970,239	548,218
-37,227	16,290	969,438	547,806
-36,213	16,294	968,372	547,195
-35,198	16,279	967,605	546,693
-34,184	16,336	966,886	546,450
-33,169	16,231	966,037	545,606
-32,154	16,321	964,982	545,282
-31,140	16,317	963,931	544,654
-30,125	16,265	963,373	544,149
-29,111	16,327	962,494	543,831
-28,096	16,301	961,874	543,375
-27,082	16,309	961,183	542,988
-26,067	16,308	960,567	542,616
-25,052	16,291	959,748	542,077
-24,038	16,312	958,915	541,651
-23,023	16,255	958,282	541,090
-22,009	16,318	957,551	540,859
-20,994	16,280	957,043	540,426
-19,979	16,343	956,540	540,324
-18,965	16,344	955,700	539,832
-17,950	16,253	955,299	539,293
-16,936	16,234	954,651	538,842
-15,921	16,190	953,782	538,190
-14,906	16,144	953,310	537,755
-13,892	16,121	952,666	537,298
-12,877	16,174	951,856	536,987
-11,863	16,119	951,193	536,418
-10,848	16,126	950,826	536,212
-9,833	16,257	950,216	536,264
-8,819	16,189	949,618	535,689
-7,804	16,204	948,781	535,243
-6,790	16,112	948,404	534,714
-5,775	16,180	947,772	534,553
-4,760	16,221	946,991	534,223
-3,746	16,172	946,505	533,772
-2,731	16,066	945,929	533,089
-1,717	16,004	945,179	532,448
-0,702	15,992	944,593	532,058
0,313	15,830	943,808	531,904
1,327	19,329	941,953	541,895
2,342	28,696	796,106	482,860
3,356	25,680	448,313	267,389
4,371	-4,179	296,667	146,979
5,386	-8,155	277,952	133,913
6,400	-9,248	272,414	130,214
7,415	-9,728	270,223	128,710
8,429	-9,633	268,637	128,031
9,444	-9,782	267,952	127,556
10,459	-9,803	267,275	127,203
11,473	-9,772	266,619	126,908
12,488	-9,968	266,164	126,502
13,502	-10,104	265,548	126,074
14,517	-10,255	265,035	125,682
15,531	-10,170	264,554	125,519
16,546	-10,119	264,208	125,390
17,561	-10,207	263,825	125,119
18,575	-10,113	263,447	125,013
19,590	-10,329	263,111	124,648
20,604	-10,239	262,988	124,660
21,619	-10,144	262,406	124,458
22,634	-10,180	262,128	124,283
23,648	-10,273	261,797	124,030
24,663	-10,254	261,583	123,935
25,677	-10,238	261,364	123,835
26,692	-10,256	261,128	123,696
27,707	-10,289	260,857	123,527
28,721	-10,408	260,654	123,314
29,736	-10,449	260,488	123,188
30,750	-10,314	259,863	123,001
31,765	-10,412	259,777	122,863
32,780	-10,453	259,597	122,730
33,794	-10,310	259,187	122,652
34,809	-10,397	259,059	122,503
35,823	-10,346	258,691	122,364
36,838	-10,382	258,580	122,268
37,853	-10,440	258,342	122,094
38,867	-10,405	258,132	122,014
39,882	-10,474	257,824	121,797
40,896	-10,617	257,786	121,642
41,911	-10,381	257,210	121,567
42,926	-10,508	257,268	121,473
43,940	-10,396	256,900	121,386
44,955	-10,448	256,664	121,218
45,969	-10,561	256,490	121,025
46,984	-10,704	256,140	120,725
47,999	-10,935	255,882	120,390
49,013	-11,120	255,628	120,099
50,028	-11,222	255,349	119,868
51,042	-11,293	255,110	119,683
52,057	-11,317	254,935	119,570
53,071	-11,340	254,660	119,410
54,086	-11,415	254,633	119,321
55,101	-11,044	254,447	119,546
56,115	-10,981	254,410	119,573
57,130	-10,307	254,325	120,107
58,144	-10,067	254,057	120,178
59,159	-10,084	253,756	120,010
60,174	-10,065	253,569	119,927
61,188	-10,080	253,366	119,808
62,203	-10,322	253,276	119,545
63,217	-10,283	252,955	119,417
64,232	-10,357	252,697	119,220
65,247	-10,207	252,619	119,302
66,261	-10,305	252,257	119,037
67,276	-10,380	252,025	118,851
68,290	-10,742	251,817	118,432
69,305	-10,759	251,488	118,253
70,320	-10,768	251,289	118,140
71,334	-10,536	251,244	118,308
72,349	-10,183	251,016	118,492
73,363	-10,191	250,960	118,448
74,378	-10,062	250,551	118,354
75,393	-10,245	250,368	118,101
76,407	-10,296	250,164	117,951
77,422	-10,328	249,891	117,785
78,436	-10,355	250,046	117,824
79,451	-10,216	249,503	117,676
80,466	-10,407	249,284	117,400
81,480	-10,740	249,057	117,000
82,495	-10,621	248,709	116,927
83,509	-10,575	248,613	116,911
84,524	-10,656	248,334	116,701
85,539	-10,799	248,178	116,496
86,553	-11,011	248,154	116,295
87,568	-10,701	247,945	116,448
88,582	-10,732	247,568	116,235
89,597	-10,736	247,612	116,242
90,611	-10,621	247,426	116,241
91,626	-10,171	247,140	116,475
92,641	-10,439	247,268	116,299
93,655	-10,471	246,843	116,062
94,670	-10,569	246,539	115,826
95,684	-10,554	246,403	115,765
96,699	-10,317	246,290	115,900
97,714	-10,477	245,915	115,579
98,728	-10,963	245,842	115,129
99,743	-10,940	245,591	115,020
100,757	-10,768	245,378	115,053
101,772	-10,758	245,270	115,001
102,787	-10,749	245,053	114,896
103,801	-10,648	244,921	114,908
104,816	-10,498	244,783	114,958
105,830	-10,404	244,671	114,973
106,845	-10,364	244,391	114,865
107,860	-10,393	244,362	114,816
108,874	-10,399	244,007	114,635
109,889	-10,515	243,871	114,464
110,903	-10,580	243,663	114,303
111,918	-10,506	243,432	114,245
112,933	-10,585	243,345	114,129
113,947	-10,555	243,053	114,007
114,962	-10,390	242,809	114,019
115,976	-10,515	242,947	113,969
116,991	-10,465	242,612	113,844
118,006	-10,674	242,530	113,623
119,020	-10,518	242,292	113,629
120,035	-10,346	242,130	113,685
121,049	-10,182	241,938	113,719
122,064	-10,387	241,829	113,490
123,079	-10,450	241,429	113,240
124,093	-10,627	241,383	113,064
125,108	-10,950	241,108	112,661
126,122	-10,778	240,760	112,628
127,137	-11,032	240,583	112,328
128,151	-10,791	240,612	112,529
129,166	-10,830	240,362	112,369
130,181	-10,877	240,133	112,215
131,195	-10,807	239,972	112,186
132,210	-10,578	239,965	112,359
133,224	-10,507	239,557	112,216
134,239	-10,489	239,559	112,221
135,254	-10,385	239,290	112,169
136,268	-10,729	239,135	111,808
137,283	-10,828	238,843	111,582
138,297	-11,092	238,739	111,309
139,312	-11,003	238,456	111,239
140,327	-10,568	238,447	111,577
141,341	-9,841	238,359	112,113
142,356	-10,151	238,383	111,864
143,370	-10,168	238,110	111,712
144,385	-9,962	237,916	111,776
145,400	-10,002	237,788	111,674
146,414	-9,958	237,600	111,612
147,429	-10,114	237,433	111,398
148,443	-10,162	237,259	111,268
149,458	-10,001	237,025	111,277
150,473	-9,983	237,016	111,278
151,487	-10,214	236,777	110,970
152,502	-10,030	236,513	110,984
153,516	-10,059	236,438	110,916
154,531	-10,054	236,236	110,815
155,546	-10,051	235,964	110,680
156,560	-10,392	235,852	110,345
157,575	-10,368	235,474	110,178
158,589	-10,304	235,477	110,220
159,604	-10,012	235,355	110,386
160,619	-9,740	235,282	110,558
161,633	-9,696	235,103	110,499
162,648	-9,897	234,794	110,184
163,662	-10,226	234,793	109,913
164,677	-10,155	234,497	109,821
165,692	-10,166	234,479	109,794
166,706	-9,726	234,176	109,991
167,721	-9,847	234,100	109,849
168,735	-9,829	234,102	109,854
169,750	-9,975	233,964	109,665
170,764	-10,073	233,837	109,518
171,779	-10,000	233,642	109,474
172,794	-9,848	233,518	109,527
173,808	-10,206	233,227	109,098
174,823	-10,704	232,729	108,464
175,837	-10,801	232,682	108,356
176,852	-10,381	232,664	108,668
177,867	-10,080	232,616	108,872
178,881	-10,015	232,446	108,834
179,896	-9,854	232,259	108,863
180,910	-9,981	232,156	108,706
181,925	-10,102	231,932	108,496
182,940	-9,906	231,857	108,605
183,954	-9,976	231,752	108,492
184,969	-9,585	231,510	108,674
185,983	-9,743	231,456	108,516
186,998	-9,836	231,290	108,355
188,013	-9,931	231,226	108,242
189,027	-9,814	230,869	108,156
190,042	-9,814	230,643	108,040
191,056	-9,680	230,565	108,098
192,071	-9,751	230,499	108,003
193,086	-9,718	230,254	107,904
194,100	-9,488	230,143	108,021
195,115	-9,458	229,705	107,829
196,129	-9,277	229,991	108,094
197,144	-4,612	231,582	112,468
198,159	0,179	233,085	116,936
199,173	3,197	233,764	119,629
200,188	3,717	233,791	120,039
201,202	3,635	233,578	119,855
202,217	3,591	233,552	119,796
203,232	4,108	233,349	120,084
204,246	4,164	233,172	120,026
205,261	4,233	233,027	119,995
206,275	4,054	233,028	119,845
207,290	4,339	232,833	119,956
208,304	4,015	232,720	119,635
209,319	4,171	232,492	119,628
210,334	4,161	232,293	119,508
211,348	3,801	232,147	119,143
212,363	3,613	231,859	118,838
213,377	3,266	231,671	118,463
214,392	3,422	231,411	118,440
215,407	3,455	231,293	118,395
216,421	3,454	231,194	118,333
217,436	3,374	230,962	118,142
218,450	3,206	230,691	117,863
219,465	3,346	230,569	117,898
220,480	3,423	230,360	117,840
221,494	3,190	230,376	117,658
222,509	3,433	230,279	117,785
223,523	3,349	230,117	117,627
224,538	3,292	229,911	117,468
225,553	3,429	229,742	117,476
226,567	3,446	229,595	117,403
227,582	3,641	229,536	117,512
228,596	3,670	229,547	117,529
229,611	3,301	229,317	117,119
230,626	3,202	228,991	116,866
231,640	3,271	228,814	116,818
232,655	3,759	228,764	117,155
233,669	3,928	228,820	117,302
234,684	4,015	228,703	117,298
235,699	3,727	228,370	116,897
236,713	3,575	228,233	116,701
237,728	3,548	227,911	116,505
238,742	3,196	227,799	116,170
239,757	3,337	227,697	116,215
240,772	3,505	227,442	116,202
241,786	3,236	227,425	115,979
242,801	3,458	227,320	116,083
243,815	3,618	227,282	116,175
244,830	3,674	227,212	116,171
245,844	3,407	226,778	115,737
246,859	3,408	226,682	115,679
247,874	3,777	226,584	115,897
248,888	3,595	226,499	115,705
249,903	3,397	226,264	115,426
250,917	3,632	226,135	115,527
251,932	3,404	226,029	115,291
252,947	3,344	225,874	115,156
253,961	3,318	225,494	114,933
254,976	3,298	225,477	114,899
255,990	3,505	225,488	115,050
257,005	3,570	225,249	114,966
258,020	3,532	225,175	114,890
259,034	3,732	225,028	114,954
260,049	3,657	224,914	114,829
261,063	3,519	224,575	114,543
262,078	3,379	224,645	114,464
263,093	3,741	224,434	114,616
264,107	3,739	224,307	114,540
265,122	3,640	224,205	114,403
266,136	3,945	223,962	114,497
267,151	3,903	223,852	114,399
268,166	3,539	223,784	114,083
269,180	3,233	223,376	113,638
270,195	3,236	223,361	113,622
271,209	3,229	223,152	113,501
272,224	3,419	223,188	113,650
273,239	3,533	223,016	113,636
274,253	3,301	222,829	113,360
275,268	3,034	222,606	113,039
276,282	3,202	222,324	113,009
277,297	3,084	222,207	112,852
278,312	3,292	222,268	113,027
279,326	3,307	222,047	112,916
280,341	3,362	221,904	112,873
281,355	3,391	221,850	112,857
282,370	3,371	221,685	112,749
283,384	3,266	221,331	112,481
284,399	2,844	221,306	112,148
285,414	3,212	221,066	112,287
286,428	3,166	221,093	112,257
287,443	3,399	221,071	112,407
288,457	3,432	220,756	112,260
289,472	3,216	220,593	112,009
290,487	2,991	220,264	111,668
291,501	2,604	220,324	111,406
292,516	2,888	220,251	111,566
293,530	3,286	219,895	111,666
294,545	2,812	219,962	111,344
295,560	3,141	219,776	111,480
296,574	3,145	219,608	111,388
297,589	3,199	219,407	111,315
298,603	3,486	219,400	111,510
299,618	3,189	219,257	111,212
300,633	3,525	219,064	111,348
301,647	3,642	218,959	111,370
302,662	3,421	219,053	111,247
303,676	3,518	218,724	111,141
304,691	3,571	218,602	111,107
305,706	3,524	218,552	111,038
306,720	3,627	218,317	110,983
307,735	3,433	218,026	110,685
308,749	3,180	217,957	110,458
309,764	3,434	217,825	110,564
310,779	3,428	217,817	110,546
311,793	3,369	217,592	110,379
312,808	3,366	217,438	110,289
313,822	3,436	217,290	110,254
314,837	3,430	217,029	110,108
315,852	3,299	217,000	109,990
316,866	3,528	216,847	110,067
317,881	3,380	216,801	109,927
318,895	3,538	216,608	109,932
319,910	3,230	216,344	109,568
320,925	3,104	216,247	109,419
321,939	3,115	215,985	109,285
322,954	3,233	216,040	109,387
323,968	3,622	216,048	109,660
324,983	3,762	215,923	109,687
325,997	3,551	215,677	109,401
327,012	3,504	215,470	109,253
328,027	3,540	215,333	109,199
329,041	3,686	215,331	109,292
330,056	3,691	215,276	109,258
331,070	3,429	214,935	108,889
332,085	3,161	214,663	108,552
333,100	3,267	214,604	108,588
334,114	3,435	214,511	108,649
335,129	3,602	214,357	108,680
336,143	3,153	214,378	108,363
337,158	3,708	214,113	108,612
338,173	3,380	213,937	108,281
339,187	3,104	213,877	108,046
340,202	3,000	213,655	107,851
341,216	3,117	213,429	107,810
342,231	3,009	213,359	107,689
343,246	3,208	213,132	107,704
344,260	3,255	213,096	107,710
345,275	3,233	213,058	107,666
346,289	3,609	212,904	107,842
347,304	3,580	212,781	107,751
348,319	3,364	212,706	107,551
349,333	3,389	212,541	107,476
350,348	3,552	212,373	107,495
351,362	3,582	212,401	107,521
352,377	3,457	212,229	107,337
353,392	3,140	212,013	106,996
354,406	3,286	211,943	107,053
355,421	195,816	1341,257	1421,751
356,435	156,438	1478,839	1421,734
