DTS Sentinel unit serial number:	SN410029Multiplexer serial number:	ORYXHardware model number:	OX2-SRSoftware version number:	ORYX F/W v4,00 Oryx Data Collector v3.7.2.0data status	okinstallation	B6 Nyhavnadifferential loss correction	single-endedforward channel	channel 2reverse channel	N/Adate	2023/12/09time	12:10:08forward acquisition time	300,00reverse acquisition time	0,00gamma	499,1914k internal	0,3139k external	0,3139temperature offset calibration	1,0000default loss term (dB/km)	0,3820temperature slope calibration	1,0000multiplexer offset coefficient	1,0000multiplexer slope coefficient	1,0000fibre end	0,00T internal ref (°C)	19,19T ext. ref 1 (°C)	3,61T ext. ref 2 (°C)	3,60length (m)	temperature (°C)	Stokes	anti-Stokes-744,400	163,956	0,103	-0,108
-743,385	-88,316	-0,232	0,051
-742,371	-56,377	0,118	0,039
-741,356	-107,984	-0,185	-0,029
-740,342	-200,000	0,024	0,184
-739,327	248,679	-0,211	0,265
-738,312	-200,000	0,004	0,102
-737,298	75,697	-0,174	0,136
-736,283	-128,822	0,191	0,020
-735,269	-150,240	-0,310	-0,017
-734,254	-85,005	0,097	-0,022
-733,239	-102,818	-0,541	-0,095
-732,225	71,056	0,077	0,059
-731,210	30,574	0,068	0,043
-730,196	-200,000	-0,017	-0,103
-729,181	147,464	0,066	0,066
-728,167	737,031	-0,024	-0,048
-727,152	-132,609	-0,082	-0,008
-726,137	-200,000	-0,008	-0,069
-725,123	-200,000	-0,014	0,127
-724,108	122,616	-0,043	-0,039
-723,094	3,090	-0,157	-0,084
-722,079	-90,837	-0,045	0,009
-721,064	-76,012	0,051	-0,013
-720,050	196,704	-0,051	-0,058
-719,035	687,836	0,033	-0,065
-718,021	-153,834	-0,061	-0,003
-717,006	800,000	0,016	-0,036
-715,991	-200,000	0,004	-0,036
-714,977	90,272	-0,103	-0,085
-713,962	-115,919	-0,048	0,007
-712,948	-200,000	0,005	0,028
-711,933	-200,000	0,009	0,046
-710,918	-200,000	-0,019	0,113
-709,904	730,152	0,055	-0,109
-708,889	-200,000	-0,025	-0,115
-707,875	76,326	-0,097	-0,076
-706,860	-98,093	0,088	0,017
-705,845	-200,000	0,008	0,114
-704,831	-55,216	-0,179	0,059
-703,816	20,420	0,125	-0,075
-702,802	300,920	-0,020	0,027
-701,787	491,518	0,024	-0,041
-700,772	54,504	-0,165	-0,117
-699,758	301,248	-0,006	0,009
-698,743	-200,000	0,034	0,158
-697,729	30,279	-0,035	0,022
-696,714	6,533	0,098	0,054
-695,699	-62,669	0,076	0,023
-694,685	42,135	-0,146	-0,098
-693,670	112,784	0,077	0,069
-692,656	-200,000	0,009	-0,080
-691,641	139,193	0,107	-0,104
-690,627	-200,000	0,009	0,040
-689,612	163,539	0,080	0,083
-688,597	-51,231	-0,104	-0,036
-687,583	-135,040	-0,176	-0,015
-686,568	184,730	-0,111	-0,122
-685,554	-200,000	0,009	-0,132
-684,539	9,977	0,065	-0,036
-683,524	-18,801	0,084	-0,038
-682,510	262,540	0,065	0,083
-681,495	21,657	0,021	-0,012
-680,481	-46,936	-0,108	-0,039
-679,466	80,728	0,045	-0,036
-678,451	146,882	0,061	0,061
-677,437	455,738	-0,090	-0,149
-676,422	182,611	-0,071	-0,078
-675,408	145,404	-0,081	-0,080
-674,393	-22,799	0,020	0,009
-673,378	-5,936	-0,043	-0,022
-672,364	58,008	-0,132	-0,095
-671,349	101,878	0,025	-0,022
-670,335	268,145	-0,041	0,053
-669,320	276,418	-0,095	-0,124
-668,305	15,738	-0,150	0,087
-667,291	333,466	-0,012	0,018
-666,276	-200,000	-0,019	-0,105
-665,262	242,017	-0,123	-0,152
-664,247	80,379	0,093	0,074
-663,232	-200,000	-0,011	0,087
-662,218	27,249	-0,145	-0,090
-661,203	-200,000	-0,003	-0,026
-660,189	-118,361	0,101	-0,013
-659,174	116,192	-0,042	0,038
-658,159	149,271	0,026	0,026
-657,145	800,000	-0,028	-0,077
-656,130	28,487	0,055	0,034
-655,116	22,721	0,046	0,028
-654,101	108,937	0,054	0,047
-653,086	-200,000	-0,001	0,033
-652,072	800,000	0,035	0,076
-651,057	-69,310	0,012	-0,003
-650,043	-200,000	-0,014	0,069
-649,028	-200,000	-0,043	0,170
-648,014	-100,719	-0,159	-0,029
-646,999	800,000	-0,074	0,178
-645,984	-200,000	0,008	0,113
-644,970	170,500	-0,053	0,056
-643,955	-200,000	-0,011	0,050
-642,941	7,082	-0,064	-0,035
-641,926	26,143	0,138	-0,085
-640,911	-78,995	-0,012	-0,003
-639,897	-200,000	0,027	0,114
-638,882	43,023	0,077	0,052
-637,868	-85,557	0,049	-0,011
-636,853	57,564	-0,172	-0,124
-635,838	-200,000	0,025	-0,130
-634,824	-62,949	0,076	-0,023
-633,809	-134,179	0,083	-0,007
-632,795	-7,750	-0,024	0,012
-631,780	31,033	0,055	-0,035
-630,765	648,994	0,037	0,070
-629,751	314,731	-0,108	0,151
-628,736	-200,000	-0,023	-0,107
-627,722	800,000	0,014	0,031
-626,707	40,614	0,160	0,106
-625,692	248,571	-0,042	0,053
-624,678	657,906	0,043	0,082
-623,663	-161,326	0,103	-0,004
-622,649	79,451	0,047	-0,037
-621,634	-200,000	-0,004	-0,039
-620,619	-83,413	0,053	-0,013
-619,605	-99,205	0,109	0,020
-618,590	-200,000	-0,005	0,024
-617,576	47,140	-0,066	0,045
-616,561	-142,502	0,118	-0,008
-615,546	-113,509	-0,141	0,020
-614,532	-200,000	-0,018	0,068
-613,517	86,202	-0,012	-0,010
-612,503	-200,000	0,040	-0,151
-611,488	95,526	0,109	0,092
-610,474	238,892	-0,061	-0,075
-609,459	712,506	-0,033	-0,066
-608,444	94,042	-0,065	-0,054
-607,430	489,258	-0,053	0,090
-606,415	-35,969	-0,048	0,019
-605,401	-8,180	0,051	0,025
-604,386	-91,819	0,188	0,039
-603,371	-200,000	0,012	-0,089
-602,357	57,065	0,048	-0,034
-601,342	-174,372	0,073	0,002
-600,328	149,631	-0,091	0,091
-599,313	671,171	-0,051	-0,099
-598,298	211,980	0,036	-0,042
-597,284	119,187	0,113	0,103
-596,269	317,497	-0,033	0,046
-595,255	800,000	-0,066	0,181
-594,240	140,817	-0,089	-0,087
-593,225	72,811	0,067	-0,052
-592,211	6,089	-0,222	-0,121
-591,196	800,000	-0,022	0,071
-590,182	96,266	-0,031	0,026
-589,167	800,000	0,047	0,148
-588,152	-200,000	-0,000	-0,039
-587,138	-200,000	0,022	-0,092
-586,123	116,299	-0,033	-0,030
-585,109	296,166	-0,059	0,080
-584,094	-55,692	-0,124	0,041
-583,079	41,824	0,172	0,115
-582,065	-200,000	-0,011	0,069
-581,050	-14,337	0,083	-0,039
-580,036	70,732	-0,089	0,068
-579,021	515,126	-0,047	-0,081
-578,006	60,978	0,104	0,076
-576,992	182,915	-0,029	-0,031
-575,977	379,401	0,032	-0,049
-574,963	-200,000	0,024	-0,125
-573,948	95,484	-0,028	0,024
-572,934	-200,000	0,009	0,113
-571,919	-1,693	-0,012	0,006
-570,904	180,854	0,033	0,036
-569,890	50,694	-0,167	0,117
-568,875	-85,328	-0,067	-0,015
-567,861	390,612	0,052	0,079
-566,846	402,952	-0,072	0,112
-565,831	786,244	-0,003	0,007
-564,817	-124,689	0,059	-0,007
-563,802	83,520	-0,110	-0,088
-562,788	379,886	-0,009	-0,013
-561,773	26,838	-0,086	-0,053
-560,758	150,725	-0,068	0,068
-559,744	210,388	0,062	0,072
-558,729	32,825	0,054	0,035
-557,715	88,609	-0,057	0,047
-556,700	-26,222	0,073	-0,031
-555,685	-200,000	-0,002	-0,042
-554,671	-200,000	-0,007	0,028
-553,656	-33,471	0,091	-0,037
-552,642	800,000	0,019	-0,041
-551,627	115,519	-0,050	0,045
-550,612	39,015	-0,109	0,072
-549,598	207,572	-0,047	-0,055
-548,583	800,000	-0,009	0,020
-547,569	-200,000	-0,003	0,048
-546,554	123,408	0,053	0,049
-545,539	-200,000	-0,007	0,043
-544,525	-200,000	-0,003	-0,024
-543,510	-200,000	0,019	-0,093
-542,496	-50,481	-0,105	-0,036
-541,481	408,156	-0,051	-0,080
-540,466	33,504	-0,052	-0,033
-539,452	-71,574	0,107	0,029
-538,437	-108,644	0,163	0,025
-537,423	-105,931	-0,099	-0,016
-536,408	18,624	-0,069	-0,041
-535,393	-200,000	-0,015	0,063
-534,379	87,581	-0,085	-0,069
-533,364	290,373	-0,071	-0,095
-532,350	800,000	-0,007	-0,017
-531,335	125,106	-0,051	0,047
-530,321	-200,000	0,004	0,089
-529,306	100,522	0,056	0,048
-528,291	800,000	-0,025	0,064
-527,277	-161,337	-0,078	0,003
-526,262	132,960	-0,123	-0,117
-525,248	-200,000	-0,007	-0,056
-524,233	-200,000	-0,002	-0,101
-523,218	-89,013	0,042	-0,009
-522,204	179,788	0,046	0,049
-521,189	-89,778	0,081	-0,017
-520,175	296,810	-0,102	-0,138
-519,160	113,391	0,062	-0,055
-518,145	164,456	-0,098	0,102
-517,131	-47,970	0,072	-0,025
-516,116	-163,093	-0,041	0,001
-515,102	527,352	0,038	-0,066
-514,087	-11,119	-0,055	-0,026
-513,072	-16,814	-0,063	-0,029
-512,058	44,723	-0,046	-0,031
-511,043	93,571	-0,057	0,048
-510,029	7,485	0,052	-0,028
-509,014	506,497	-0,093	-0,159
-507,999	-12,310	-0,069	-0,033
-506,985	800,000	0,018	-0,049
-505,970	82,303	-0,125	-0,099
-504,956	142,547	0,086	-0,084
-503,941	-127,218	0,098	-0,010
-502,926	-2,322	0,097	-0,050
-501,912	-86,214	0,067	-0,015
-500,897	-199,760	-0,115	0,000
-499,883	54,684	-0,169	0,120
-498,868	199,344	-0,107	-0,120
-497,853	26,434	-0,155	-0,095
-496,839	40,498	-0,150	0,099
-495,824	164,758	-0,060	-0,062
-494,810	68,420	0,084	0,063
-493,795	84,322	0,010	0,008
-492,781	-200,000	-0,023	0,160
-491,766	22,012	-0,078	-0,047
-490,751	-200,000	0,013	-0,109
-489,737	290,488	0,065	0,087
-488,722	19,330	-0,068	0,040
-487,708	-38,936	0,050	0,019
-486,693	-75,028	0,048	-0,013
-485,678	-119,460	0,083	-0,010
-484,664	420,730	-0,077	-0,122
-483,649	800,000	0,035	-0,074
-482,635	-24,738	-0,063	-0,027
-481,620	-200,000	-0,013	-0,069
-480,605	-200,000	-0,019	0,139
-479,591	800,000	-0,014	-0,030
-478,576	-27,488	0,038	0,016
-477,562	800,000	-0,041	0,110
-476,547	-17,431	-0,045	0,021
-475,532	-200,000	-0,025	0,112
-474,518	-200,000	0,001	-0,062
-473,503	460,559	-0,032	0,052
-472,489	-135,964	0,074	-0,006
-471,474	800,000	0,012	0,030
-470,459	-197,478	-0,118	0,001
-469,445	478,388	-0,005	0,009
-468,430	-94,107	-0,093	0,019
-467,416	257,178	-0,076	-0,096
-466,401	-67,129	0,075	-0,022
-465,386	-121,721	-0,084	0,010
-464,372	-200,000	-0,018	-0,146
-463,357	-200,000	0,093	-0,000
-462,343	800,000	-0,061	-0,137
-461,328	429,914	0,064	0,101
-460,313	-200,000	-0,017	0,085
-459,299	157,612	-0,078	0,080
-458,284	45,104	0,047	0,032
-457,270	77,052	-0,055	-0,043
-456,255	-106,434	-0,171	-0,028
-455,241	190,882	0,105	-0,116
-454,226	51,061	-0,044	-0,030
-453,211	-89,681	0,075	0,016
-452,197	-200,000	-0,028	-0,096
-451,182	-200,000	0,000	-0,088
-450,168	-88,456	-0,112	0,024
-449,153	179,755	0,092	-0,099
-448,138	800,000	0,022	-0,047
-447,124	212,487	0,132	-0,153
-446,109	-130,598	-0,023	-0,002
-445,095	696,296	-0,041	0,080
-444,080	-33,887	0,100	0,040
-443,065	139,188	0,060	0,058
-442,051	-48,657	0,095	0,033
-441,036	429,818	-0,021	-0,033
-440,022	271,459	0,032	-0,041
-439,007	-9,722	-0,064	0,031
-437,992	13,796	-0,079	0,045
-436,978	-153,327	0,149	0,007
-435,963	-200,000	-0,013	0,081
-434,949	255,281	-0,110	0,138
-433,934	24,359	-0,114	0,069
-432,919	-200,000	0,004	0,023
-431,905	-57,962	-0,078	0,025
-430,890	-24,091	0,157	-0,068
-429,876	-51,248	-0,035	0,012
-428,861	598,329	-0,029	0,053
-427,846	-106,372	-0,107	0,017
-426,832	264,862	-0,070	-0,089
-425,817	-41,693	-0,043	-0,016
-424,803	85,105	-0,066	0,053
-423,788	-23,863	0,165	0,072
-422,773	-200,000	0,050	0,176
-421,759	-157,738	-0,012	0,001
-420,744	-200,000	-0,024	-0,078
-419,730	623,569	-0,069	-0,128
-418,715	421,164	-0,032	-0,051
-417,701	800,000	0,024	0,056
-416,686	-109,435	-0,029	-0,004
-415,671	-80,427	-0,049	0,012
-414,657	-17,595	-0,037	-0,017
-413,642	800,000	-0,008	-0,026
-412,628	9,074	-0,080	-0,044
-411,613	343,799	-0,041	0,059
-410,598	-5,283	0,084	-0,042
-409,584	-25,614	-0,114	0,049
-408,569	278,764	0,083	0,108
-407,555	-200,000	0,039	0,130
-406,540	-115,848	-0,083	0,011
-405,525	-200,000	0,006	-0,081
-404,511	-200,000	0,011	-0,096
-403,496	-58,142	0,144	0,046
-402,482	800,000	-0,039	0,119
-401,467	-200,000	0,032	0,120
-400,452	-56,882	0,217	0,070
-399,438	800,000	0,049	-0,115
-398,423	-200,000	-0,015	0,077
-397,409	800,000	0,048	0,140
-396,394	716,628	-0,078	-0,152
-395,379	800,000	-0,087	-0,179
-394,365	68,754	0,096	-0,072
-393,350	800,000	0,052	0,105
-392,336	800,000	0,010	0,022
-391,321	-200,000	-0,010	0,034
-390,306	165,985	-0,077	0,080
-389,292	-160,290	-0,172	0,007
-388,277	407,859	0,020	0,030
-387,263	800,000	0,025	-0,061
-386,248	132,279	0,058	0,055
-385,233	-200,000	-0,035	0,149
-384,219	-99,318	0,083	0,015
-383,204	171,023	-0,067	0,071
-382,190	89,229	-0,043	0,035
-381,175	-78,175	0,038	0,009
-380,160	-18,373	0,092	0,042
-379,146	800,000	0,085	0,207
-378,131	-128,210	0,059	0,006
-377,117	800,000	-0,026	-0,083
-376,102	-17,876	-0,192	-0,088
-375,088	-200,000	0,010	-0,082
-374,073	19,724	-0,113	-0,066
-373,058	543,620	0,019	0,034
-372,044	-200,000	0,001	-0,055
-371,029	443,189	0,051	0,082
-370,015	-126,082	-0,132	-0,014
-369,000	-200,000	-0,019	-0,151
-367,985	-200,000	0,012	-0,166
-366,971	-165,120	-0,050	0,002
-365,956	445,410	-0,003	0,005
-364,942	-122,478	0,224	0,026
-363,927	-80,604	0,134	0,032
-362,912	-200,000	-0,015	0,118
-361,898	-7,881	0,060	0,030
-360,883	14,874	0,115	-0,066
-359,869	-123,854	0,042	0,005
-358,854	201,276	0,078	0,087
-357,839	64,709	-0,014	0,011
-356,825	41,806	0,119	-0,079
-355,810	-95,421	-0,188	-0,036
-354,796	-96,650	-0,079	-0,015
-353,781	145,939	-0,012	-0,012
-352,766	-39,152	0,088	-0,033
-351,752	16,085	-0,039	0,022
-350,737	799,494	0,030	0,060
-349,723	-76,453	0,139	-0,036
-348,708	189,578	-0,036	0,039
-347,693	425,520	-0,079	0,125
-346,679	642,649	0,043	-0,080
-345,664	31,529	0,024	0,015
-344,650	272,873	0,052	-0,067
-343,635	800,000	0,049	0,151
-342,620	-98,269	0,119	0,022
-341,606	179,380	0,033	-0,035
-340,591	-9,457	-0,027	0,013
-339,577	58,020	-0,071	0,050
-338,562	49,430	0,110	-0,075
-337,548	-50,647	-0,066	-0,022
-336,533	127,583	0,056	-0,052
-335,518	-171,413	-0,140	-0,003
-334,504	-200,000	0,002	0,057
-333,489	800,000	-0,004	0,010
-332,475	1,758	-0,134	-0,070
-331,460	-105,212	0,082	-0,014
-330,445	-75,538	-0,031	-0,008
-329,431	425,254	-0,043	0,067
-328,416	85,856	0,094	0,075
-327,402	-131,927	-0,066	0,006
-326,387	-200,000	-0,009	0,067
-325,372	254,561	-0,113	-0,141
-324,358	388,571	0,069	-0,105
-323,343	800,000	-0,018	0,048
-322,329	98,458	0,118	-0,100
-321,314	-124,411	0,097	0,011
-320,299	47,572	-0,068	0,046
-319,285	-200,000	0,052	-0,200
-318,270	264,863	0,108	-0,137
-317,256	-148,079	0,022	-0,001
-316,241	800,000	-0,022	-0,057
-315,226	43,269	0,034	-0,023
-314,212	541,500	0,056	0,098
-313,197	-5,810	0,106	0,053
-312,183	259,428	0,025	0,031
-311,168	-34,794	-0,125	0,049
-310,153	800,000	0,052	-0,129
-309,139	5,847	0,078	-0,042
-308,124	-200,000	-0,001	0,022
-307,110	-200,000	-0,007	-0,049
-306,095	-186,402	0,104	0,001
-305,080	-200,000	0,008	-0,073
-304,066	181,668	0,035	-0,038
-303,051	-18,232	0,009	0,004
-302,037	-82,349	-0,113	-0,027
-301,022	-2,567	0,139	0,071
-300,008	137,051	0,056	0,053
-298,993	-96,364	0,153	-0,029
-297,978	112,983	-0,095	0,084
-296,964	85,480	0,114	-0,091
-295,949	258,942	-0,134	-0,169
-294,935	-139,139	-0,102	-0,008
-293,920	392,430	-0,059	0,090
-292,905	800,000	0,045	0,143
-291,891	-200,000	-0,002	0,167
-290,876	425,761	-0,057	0,090
-289,862	-200,000	0,009	0,059
-288,847	800,000	-0,017	0,050
-287,832	-200,000	0,036	-0,135
-286,818	485,951	-0,036	-0,060
-285,803	-66,434	0,077	0,022
-284,789	215,326	0,082	-0,095
-283,774	19,393	0,074	-0,043
-282,759	75,099	0,141	0,108
-281,745	-200,000	-0,011	-0,039
-280,730	-130,790	-0,189	-0,018
-279,716	242,828	-0,098	-0,120
-278,701	507,766	0,027	0,045
-277,686	800,000	0,014	0,031
-276,672	472,995	-0,069	0,113
-275,657	14,865	-0,098	-0,056
-274,643	60,502	-0,028	-0,020
-273,628	-56,384	-0,089	-0,029
-272,613	694,785	-0,048	-0,091
-271,599	266,677	0,100	0,128
-270,584	469,852	-0,106	0,173
-269,570	-200,000	-0,019	-0,086
-268,555	50,364	0,151	-0,104
-267,540	-190,763	-0,113	0,001
-266,526	84,059	0,047	0,037
-265,511	559,837	-0,032	-0,057
-264,497	800,000	0,074	-0,177
-263,482	-200,000	0,022	0,082
-262,467	-200,000	0,010	0,120
-261,453	270,544	0,003	0,003
-260,438	132,792	-0,098	0,092
-259,424	349,781	-0,059	0,085
-258,409	800,000	0,008	0,017
-257,395	6,209	0,072	0,039
-256,380	12,213	-0,044	0,025
-255,365	800,000	-0,028	-0,089
-254,351	-200,000	-0,073	-0,000
-253,336	-187,169	-0,032	0,000
-252,322	-63,412	0,063	-0,019
-251,307	75,566	-0,067	0,051
-250,292	129,863	-0,078	0,073
-249,278	643,197	0,023	0,043
-248,263	70,868	-0,027	0,020
-247,249	247,181	0,044	0,054
-246,234	800,000	-0,016	0,036
-245,219	287,598	0,033	-0,043
-244,205	-39,223	0,099	-0,037
-243,190	140,942	0,083	0,079
-242,176	51,430	0,094	-0,065
-241,161	545,639	-0,014	0,024
-240,146	800,000	0,008	-0,018
-239,132	-200,000	-0,017	-0,095
-238,117	131,352	-0,106	0,099
-237,103	-168,465	0,181	0,005
-236,088	-200,000	-0,006	-0,101
-235,073	-111,135	0,054	0,008
-234,059	278,501	0,095	-0,123
-233,044	-15,283	0,107	-0,049
-232,030	-200,000	0,008	-0,079
-231,015	-200,000	0,020	0,146
-230,000	-200,000	-0,004	-0,132
-228,986	800,000	-0,046	0,112
-227,971	35,352	0,111	0,070
-226,957	800,000	-0,058	-0,146
-225,942	-13,202	0,065	-0,031
-224,927	800,000	-0,071	-0,161
-223,913	-125,075	0,111	0,012
-222,898	-88,887	0,055	0,012
-221,884	171,085	-0,100	-0,104
-220,869	-157,971	-0,100	0,004
-219,855	745,365	0,023	0,046
-218,840	-11,192	0,083	0,040
-217,825	-200,000	-0,022	-0,135
-216,811	-200,000	-0,014	0,060
-215,796	25,405	0,082	0,050
-214,782	-200,000	-0,008	-0,091
-213,767	17,282	-0,032	0,019
-212,752	-148,549	0,115	-0,007
-211,738	137,356	-0,110	-0,104
-210,723	-200,000	0,012	-0,064
-209,709	-200,000	0,012	0,074
-208,694	-48,816	0,031	0,011
-207,679	59,341	0,100	0,072
-206,665	-200,000	0,032	0,109
-205,650	800,000	0,060	0,131
-204,636	239,414	0,042	0,051
-203,621	-194,456	-0,039	0,000
-202,606	304,362	-0,063	-0,086
-201,592	799,358	-0,021	-0,043
-200,577	-200,000	-0,001	0,059
-199,563	-24,642	-0,102	0,044
-198,548	-82,210	0,010	0,002
-197,533	567,287	-0,039	-0,068
-196,519	770,195	0,057	0,114
-195,504	-4,978	-0,070	-0,035
-194,490	551,170	-0,013	0,023
-193,475	163,729	0,151	-0,154
-192,460	67,795	0,027	0,020
-191,446	800,000	-0,044	0,134
-190,431	-200,000	-0,006	0,062
-189,417	503,425	-0,055	-0,093
-188,402	-200,000	0,002	-0,092
-187,387	-100,491	-0,154	-0,027
-186,373	370,536	-0,054	-0,079
-185,358	51,435	0,104	-0,071
-184,344	605,997	-0,014	-0,025
-183,329	800,000	0,021	-0,068
-182,315	-200,000	0,005	-0,147
-181,300	-200,000	-0,037	-0,144
-180,285	-63,577	-0,097	-0,029
-179,271	-200,000	-0,017	-0,058
-178,256	-191,143	0,106	-0,001
-177,242	-200,000	-0,025	0,093
-176,227	188,110	0,042	-0,046
-175,212	-53,862	0,107	0,035
-174,198	-200,000	-0,000	-0,011
-173,183	554,279	-0,038	-0,067
-172,169	285,842	-0,034	-0,045
-171,154	-200,000	0,005	0,042
-170,139	98,909	0,152	0,128
-169,125	723,751	0,039	0,076
-168,110	414,858	0,014	-0,022
-167,096	800,000	0,008	-0,022
-166,081	164,082	0,020	-0,021
-165,066	800,000	0,039	-0,107
-164,052	-200,000	-0,004	0,018
-163,037	-83,609	0,016	0,004
-162,023	332,570	-0,022	-0,031
-161,008	43,264	-0,057	0,038
-159,993	638,021	0,114	0,210
-158,979	-60,624	0,062	-0,019
-157,964	-23,091	0,097	0,042
-156,950	-200,000	-0,002	-0,046
-155,935	800,000	0,042	-0,119
-154,920	-45,840	0,040	0,014
-153,906	-77,145	0,111	-0,028
-152,891	15,287	-0,086	0,049
-151,877	800,000	0,007	-0,017
-150,862	198,891	0,068	-0,076
-149,847	161,058	0,079	0,080
-148,833	260,604	-0,048	0,061
-147,818	584,441	0,053	0,096
-146,804	0,640	0,092	0,048
-145,789	656,149	-0,065	0,121
-144,775	800,000	-0,059	0,120
-143,760	436,535	0,040	-0,063
-142,745	800,000	0,035	-0,092
-141,731	800,000	-0,049	0,108
-140,716	418,697	-0,044	0,069
-139,702	800,000	-0,018	0,055
-138,687	800,000	0,012	-0,032
-137,672	-7,873	-0,089	0,043
-136,658	188,580	0,140	-0,152
-135,643	-66,970	-0,079	-0,022
-134,629	800,000	0,015	0,040
-133,614	123,749	-0,078	-0,071
-132,599	33,880	0,083	-0,052
-131,585	-93,067	-0,041	-0,008
-130,570	800,000	-0,052	0,167
-129,556	-56,291	-0,116	0,037
-128,541	-200,000	-0,004	-0,028
-127,526	-200,000	0,019	-0,080
-126,512	-91,577	0,019	-0,004
-125,497	-103,386	0,137	0,023
-124,483	355,611	-0,077	0,111
-123,468	144,781	-0,030	-0,029
-122,453	0,425	0,141	0,073
-121,439	-6,340	-0,131	0,065
-120,424	-200,000	0,029	-0,171
-119,410	-79,093	-0,142	0,035
-118,395	-200,000	-0,014	0,084
-117,380	12,964	-0,030	0,017
-116,366	47,776	-0,068	0,046
-115,351	800,000	-0,026	0,060
-114,337	232,375	-0,054	-0,064
-113,322	-200,000	0,006	-0,032
-112,307	170,805	0,098	0,102
-111,293	170,132	0,030	-0,032
-110,278	-166,930	-0,123	0,004
-109,264	299,383	0,067	-0,089
-108,249	245,831	0,050	0,060
-107,234	46,121	-0,077	-0,051
-106,220	-200,000	0,014	-0,067
-105,205	326,575	-0,078	0,109
-104,191	-152,023	-0,050	0,003
-103,176	800,000	0,039	0,109
-102,162	-200,000	-0,024	0,130
-101,147	-106,108	-0,160	0,026
-100,132	-24,585	-0,105	-0,045
-99,118	-89,620	0,062	-0,013
-98,103	-200,000	0,036	0,198
-97,089	800,000	0,053	-0,110
-96,074	293,188	0,065	0,086
-95,059	-200,000	0,006	-0,093
-94,045	-88,875	-0,062	-0,013
-93,030	165,469	0,015	-0,015
-92,016	364,338	-0,051	-0,074
-91,001	23,981	-0,186	-0,110
-89,986	6,470	-0,053	-0,028
-88,972	-187,135	0,043	0,000
-87,957	-49,388	-0,049	0,017
-86,943	800,000	0,022	0,045
-85,928	-200,000	-0,009	0,048
-84,913	800,000	0,048	-0,142
-83,899	31,607	0,081	0,050
-82,884	-136,033	-0,071	0,006
-81,870	-200,000	-0,002	0,016
-80,855	-44,013	0,021	-0,008
-79,840	-53,976	0,044	0,014
-78,826	42,345	0,071	0,046
-77,811	800,000	-0,056	-0,152
-76,797	-180,206	-0,067	-0,001
-75,782	-200,000	0,007	0,101
-74,767	-158,543	0,093	-0,004
-73,753	319,965	0,017	0,024
-72,738	800,000	-0,085	0,197
-71,724	459,112	0,016	-0,025
-70,709	302,636	0,075	-0,100
-69,694	22,227	0,079	0,046
-68,680	-124,407	0,173	0,019
-67,665	-200,000	-0,178	0,000
-66,651	-200,000	-0,020	-0,120
-65,636	-137,818	0,103	0,008
-64,622	206,844	0,053	-0,060
-63,607	786,465	0,042	-0,083
-62,592	491,509	-0,007	0,012
-61,578	-58,553	0,047	-0,015
-60,563	-179,488	0,022	-0,000
-59,549	-134,079	-0,085	-0,007
-58,534	-43,842	-1,694	-0,612
-57,519	800,000	-0,602	-1,285
-56,505	-200,000	-1,053	-4,666
-55,490	-58,750	0,727	-0,226
-54,476	800,000	5,219	12,154
-53,461	-200,000	15,238	267,704
-52,446	800,000	698,029	2209,904
-51,432	552,937	1617,243	2816,587
-50,417	119,315	1625,901	1452,333
-49,403	78,982	1284,559	991,830
-48,388	36,819	1026,381	653,478
-47,373	21,930	987,655	579,719
-46,359	21,015	976,253	569,997
-45,344	19,469	972,254	562,573
-44,330	19,486	971,046	561,909
-43,315	19,291	969,236	560,201
-42,300	19,210	968,184	559,306
-41,286	19,186	967,431	558,770
-40,271	19,200	966,404	558,201
-39,257	19,295	965,549	557,993
-38,242	19,267	964,692	557,385
-37,227	19,193	964,070	556,765
-36,213	19,181	963,300	556,260
-35,198	19,145	962,318	555,551
-34,184	19,311	961,202	555,425
-33,169	19,198	960,511	554,638
-32,154	19,256	959,565	554,256
-31,140	19,229	958,542	553,557
-30,125	19,220	957,985	553,184
-29,111	19,209	957,223	552,685
-28,096	19,232	956,495	552,317
-27,082	19,252	955,863	551,995
-26,067	19,237	955,010	551,434
-25,052	19,261	954,223	551,034
-24,038	19,273	953,593	550,686
-23,023	19,265	952,913	550,246
-22,009	19,271	952,129	549,791
-20,994	19,287	951,512	549,464
-19,979	19,280	951,041	549,148
-18,965	19,161	950,464	548,412
-17,950	19,173	949,802	548,045
-16,936	19,191	949,163	547,713
-15,921	19,092	948,654	547,082
-14,906	19,119	947,708	546,601
-13,892	19,089	947,174	546,176
-12,877	19,083	946,478	545,731
-11,863	19,065	945,908	545,326
-10,848	19,090	945,345	545,059
-9,833	19,176	944,760	544,974
-8,819	19,136	944,269	544,541
-7,804	19,121	943,643	544,110
-6,790	19,077	943,080	543,625
-5,775	19,084	942,515	543,299
-4,760	19,081	941,791	542,853
-3,746	19,107	941,183	542,563
-2,731	18,993	940,466	541,766
-1,717	18,924	939,750	541,114
-0,702	18,882	939,238	540,664
0,313	18,720	938,542	540,568
1,327	21,845	936,623	549,277
2,342	31,031	796,015	491,249
3,356	28,441	450,559	274,140
4,371	-0,953	296,069	150,643
5,386	-5,073	277,352	137,186
6,400	-6,291	271,602	133,192
7,415	-6,760	269,278	131,607
8,429	-6,759	268,055	130,998
9,444	-6,662	267,053	130,587
10,459	-6,582	266,347	130,303
11,473	-6,775	265,939	129,915
12,488	-6,886	265,348	129,513
13,502	-7,188	264,898	129,008
14,517	-7,045	264,270	128,820
15,531	-7,325	263,811	128,331
16,546	-7,202	263,487	128,273
17,561	-7,227	263,107	128,054
18,575	-7,206	262,801	127,913
19,590	-7,450	262,443	127,507
20,604	-7,216	262,114	127,547
21,619	-7,275	261,801	127,330
22,634	-7,302	261,477	127,137
23,648	-7,387	261,025	126,830
24,663	-7,471	260,865	126,665
25,677	-7,506	260,708	126,546
26,692	-7,497	260,460	126,423
27,707	-7,416	260,127	126,322
28,721	-7,333	259,803	126,227
29,736	-7,563	259,646	125,935
30,750	-7,656	259,329	125,687
31,765	-7,464	259,016	125,695
32,780	-7,653	258,903	125,461
33,794	-7,469	258,663	125,497
34,809	-7,655	258,405	125,196
35,823	-7,595	258,104	125,092
36,838	-7,660	257,829	124,890
37,853	-7,716	257,683	124,758
38,867	-7,486	257,390	124,809
39,882	-7,601	257,228	124,617
40,896	-7,618	256,948	124,455
41,911	-7,500	256,626	124,392
42,926	-7,667	256,533	124,189
43,940	-7,705	256,323	124,043
44,955	-7,619	255,896	123,901
45,969	-7,781	255,774	123,688
46,984	-8,058	255,579	123,341
47,999	-8,083	255,166	123,109
49,013	-8,362	255,046	122,796
50,028	-8,431	254,630	122,524
51,042	-8,619	254,557	122,314
52,057	-8,528	254,391	122,303
53,071	-8,386	254,031	122,242
54,086	-8,331	253,916	122,224
55,101	-8,108	253,677	122,292
56,115	-8,032	253,749	122,382
57,130	-7,544	253,550	122,699
58,144	-7,290	253,390	122,830
59,159	-7,053	253,246	122,955
60,174	-7,362	252,936	122,526
61,188	-7,145	252,861	122,667
62,203	-7,354	252,560	122,330
63,217	-7,404	252,316	122,157
64,232	-7,338	252,191	122,142
65,247	-7,386	252,069	122,031
66,261	-7,328	251,737	121,909
67,276	-7,698	251,472	121,452
68,290	-7,958	251,180	121,077
69,305	-8,054	251,018	120,906
70,320	-7,834	250,689	120,925
71,334	-7,511	250,507	121,103
72,349	-7,178	250,503	121,376
73,363	-7,268	250,316	121,198
74,378	-7,255	250,179	121,132
75,393	-7,366	249,879	120,881
76,407	-7,309	249,587	120,777
77,422	-7,470	249,366	120,522
78,436	-7,359	249,239	120,544
79,451	-7,269	249,052	120,520
80,466	-7,496	248,876	120,231
81,480	-7,788	248,469	119,775
82,495	-7,651	248,415	119,855
83,509	-7,862	248,334	119,627
84,524	-7,713	247,914	119,540
85,539	-7,949	247,881	119,313
86,553	-7,729	247,516	119,313
87,568	-7,792	247,350	119,169
88,582	-7,869	247,208	119,025
89,597	-7,717	247,066	119,074
90,611	-7,693	247,033	119,068
91,626	-7,524	246,787	119,081
92,641	-7,384	246,567	119,082
93,655	-7,480	246,360	118,891
94,670	-7,638	246,204	118,672
95,684	-7,645	246,030	118,572
96,699	-7,736	245,796	118,372
97,714	-7,636	245,575	118,339
98,728	-7,920	245,367	117,991
99,743	-8,015	245,198	117,819
100,757	-8,219	244,969	117,527
101,772	-8,123	244,879	117,555
102,787	-7,875	244,711	117,671
103,801	-7,533	244,469	117,829
104,816	-7,623	244,344	117,683
105,830	-7,467	244,221	117,743
106,845	-7,126	243,964	117,893
107,860	-7,591	243,878	117,454
108,874	-7,603	243,557	117,279
109,889	-7,540	243,273	117,183
110,903	-7,585	243,213	117,107
111,918	-7,661	243,086	116,972
112,933	-7,628	242,973	116,935
113,947	-7,324	242,634	117,013
114,962	-7,422	242,506	116,859
115,976	-7,459	242,412	116,774
116,991	-7,463	242,216	116,666
118,006	-7,495	241,993	116,521
119,020	-7,619	242,053	116,437
120,035	-7,637	241,875	116,327
121,049	-7,209	241,718	116,593
122,064	-7,375	241,543	116,361
123,079	-7,612	241,332	116,055
124,093	-7,598	241,027	115,910
125,108	-7,616	240,760	115,756
126,122	-8,054	240,513	115,268
127,137	-7,842	240,207	115,285
128,151	-7,709	240,144	115,352
129,166	-7,785	240,031	115,226
130,181	-7,759	239,808	115,130
131,195	-7,923	239,669	114,919
132,210	-7,569	239,339	115,039
133,224	-7,525	239,419	115,103
134,239	-7,442	239,250	115,079
135,254	-7,299	239,130	115,128
136,268	-7,618	238,856	114,726
137,283	-7,732	238,610	114,505
138,297	-7,959	238,337	114,180
139,312	-7,961	238,169	114,088
140,327	-7,464	237,954	114,376
141,341	-7,202	238,123	114,659
142,356	-7,341	238,069	114,511
143,370	-6,881	237,720	114,705
144,385	-7,206	237,578	114,363
145,400	-7,082	237,354	114,346
146,414	-7,117	237,161	114,214
147,429	-7,263	237,150	114,081
148,443	-7,284	236,974	113,969
149,458	-7,175	236,707	113,918
150,473	-7,210	236,606	113,831
151,487	-7,224	236,573	113,794
152,502	-7,122	236,225	113,698
153,516	-7,018	236,139	113,730
154,531	-7,174	235,997	113,526
155,546	-7,294	235,669	113,263
156,560	-7,286	235,493	113,175
157,575	-7,397	235,325	112,995
158,589	-7,178	235,085	113,045
159,604	-7,091	235,163	113,141
160,619	-7,097	234,908	113,003
161,633	-7,037	234,698	112,941
162,648	-6,807	234,631	113,081
163,662	-7,005	234,383	112,794
164,677	-7,216	234,367	112,608
165,692	-7,034	234,224	112,675
166,706	-7,178	234,093	112,487
167,721	-6,943	233,696	112,473
168,735	-6,897	233,655	112,479
169,750	-6,994	233,572	112,352
170,764	-7,093	233,423	112,192
171,779	-6,888	233,216	112,245
172,794	-6,674	233,014	112,307
173,808	-7,206	232,967	111,854
174,823	-7,904	232,679	111,155
175,837	-7,773	232,596	111,209
176,852	-7,339	232,390	111,442
177,867	-7,042	232,376	111,659
178,881	-7,060	232,210	111,556
179,896	-6,953	232,049	111,553
180,910	-6,858	231,875	111,533
181,925	-7,206	231,761	111,195
182,940	-6,993	231,538	111,245
183,954	-6,830	231,303	111,251
184,969	-6,871	231,305	111,209
185,983	-6,980	231,127	111,028
186,998	-6,786	230,877	111,050
188,013	-6,868	230,848	110,962
189,027	-7,058	230,712	110,739
190,042	-6,641	230,572	110,987
191,056	-6,888	230,428	110,715
192,071	-6,882	230,265	110,632
193,086	-6,930	230,075	110,493
194,100	-6,501	229,943	110,753
195,115	-6,497	229,772	110,665
196,129	-6,282	229,767	110,819
197,144	-2,357	231,136	114,533
198,159	2,201	232,361	118,697
199,173	3,464	232,663	119,828
200,188	3,618	232,522	119,866
201,202	3,604	232,401	119,782
202,217	3,919	232,210	119,918
203,232	4,065	231,982	119,903
204,246	4,170	231,938	119,952
205,261	4,403	231,926	120,117
206,275	4,354	231,899	120,054
207,290	4,408	231,525	119,891
208,304	4,422	231,540	119,899
209,319	4,327	231,337	119,710
210,334	4,211	231,123	119,498
211,348	4,032	230,772	119,167
212,363	3,715	230,526	118,784
213,377	3,633	230,430	118,661
214,392	3,582	230,265	118,526
215,407	3,662	230,170	118,528
216,421	3,736	230,064	118,520
217,436	3,722	229,698	118,311
218,450	3,116	229,633	117,800
219,465	3,178	229,402	117,718
220,480	3,297	229,336	117,766
221,494	3,207	229,215	117,624
222,509	3,402	229,213	117,762
223,523	3,617	228,860	117,735
224,538	3,340	228,696	117,428
225,553	3,398	228,612	117,419
226,567	3,623	228,506	117,526
227,582	3,897	228,408	117,675
228,596	4,030	228,311	117,716
229,611	3,602	228,161	117,301
230,626	3,162	227,981	116,862
231,640	3,675	227,608	117,052
232,655	3,672	227,760	117,117
233,669	3,994	227,657	117,300
234,684	4,123	227,535	117,324
235,699	4,059	227,250	117,118
236,713	3,706	227,105	116,765
237,728	3,456	227,018	116,519
238,742	3,523	226,650	116,370
239,757	3,535	226,570	116,328
240,772	3,641	226,361	116,292
241,786	3,573	226,286	116,191
242,801	3,735	226,309	116,314
243,815	3,813	226,088	116,249
244,830	3,923	226,015	116,285
245,844	3,781	225,581	115,945
246,859	3,682	225,463	115,798
247,874	3,818	225,566	115,944
248,888	3,871	225,574	115,978
249,903	3,762	225,154	115,669
250,917	3,752	225,016	115,581
251,932	3,569	224,813	115,328
252,947	3,405	224,703	115,139
253,961	3,181	224,532	114,873
254,976	3,451	224,376	114,985
255,990	3,611	224,453	115,134
257,005	3,915	224,169	115,206
258,020	3,713	224,177	115,048
259,034	3,831	223,985	115,028
260,049	3,927	223,814	115,002
261,063	3,856	223,589	114,823
262,078	3,826	223,381	114,683
263,093	3,984	223,354	114,777
264,107	3,976	223,165	114,664
265,122	3,691	223,165	114,441
266,136	4,062	222,877	114,559
267,151	4,308	222,703	114,643
268,166	3,781	222,469	114,121
269,180	3,594	222,275	113,872
270,195	3,510	222,182	113,752
271,209	3,485	222,017	113,639
272,224	3,502	221,869	113,566
273,239	3,689	221,791	113,654
274,253	3,512	221,595	113,413
275,268	3,578	221,412	113,358
276,282	3,428	221,276	113,167
277,297	3,347	221,174	113,045
278,312	3,508	220,957	113,043
279,326	3,446	221,001	113,010
280,341	3,926	220,712	113,205
281,355	3,702	220,769	113,059
282,370	3,619	220,494	112,847
283,384	3,268	220,306	112,483
284,399	3,406	220,083	112,461
285,414	3,286	219,932	112,285
286,428	3,426	220,029	112,428
287,443	3,541	219,908	112,440
288,457	3,635	219,799	112,443
289,472	3,394	219,475	112,091
290,487	3,094	219,254	111,749
291,501	3,396	219,013	111,837
292,516	3,314	219,027	111,774
293,530	3,252	218,894	111,651
294,545	3,329	218,782	111,640
295,560	3,361	218,561	111,540
296,574	3,476	218,524	111,596
297,589	3,489	218,399	111,530
298,603	3,657	218,139	111,511
299,618	3,557	218,140	111,428
300,633	3,503	218,124	111,371
301,647	3,724	217,978	111,446
302,662	3,859	217,812	111,450
303,676	3,819	217,574	111,289
304,691	3,607	217,537	111,106
305,706	3,805	217,411	111,175
306,720	3,755	217,388	111,118
307,735	3,433	217,072	110,714
308,749	3,258	216,809	110,443
309,764	3,392	216,846	110,549
310,779	3,789	216,744	110,773
311,793	3,683	216,519	110,572
312,808	3,839	216,318	110,572
313,822	3,723	216,095	110,365
314,837	3,622	216,039	110,254
315,852	3,408	215,960	110,050
316,866	3,672	215,775	110,136
317,881	3,811	215,697	110,186
318,895	3,481	215,697	109,939
319,910	3,554	215,326	109,792
320,925	3,294	215,236	109,551
321,939	3,276	214,950	109,382
322,954	3,263	214,925	109,351
323,968	3,440	214,892	109,450
324,983	3,932	214,743	109,716
325,997	3,827	214,677	109,597
327,012	3,797	214,535	109,494
328,027	3,737	214,226	109,284
329,041	4,104	214,331	109,588
330,056	4,060	214,124	109,442
331,070	3,736	213,858	109,067
332,085	3,488	213,707	108,804
333,100	3,418	213,560	108,670
334,114	3,747	213,475	108,849
335,129	3,398	213,406	108,557
336,143	3,229	213,243	108,345
337,158	3,551	213,024	108,452
338,173	3,462	212,871	108,302
339,187	3,239	212,652	108,023
340,202	3,243	212,581	107,980
341,216	3,321	212,377	107,921
342,231	3,506	212,480	108,094
343,246	3,105	212,333	107,728
344,260	3,364	212,062	107,763
345,275	3,411	212,047	107,779
346,289	3,844	211,869	107,983
347,304	3,604	211,750	107,744
348,319	3,611	211,552	107,639
349,333	3,722	211,304	107,581
350,348	3,572	211,285	107,456
351,362	3,553	211,366	107,475
352,377	3,820	211,014	107,473
353,392	3,625	210,878	107,258
354,406	3,624	210,825	107,221
355,421	196,068	1343,134	1431,187
356,435	156,612	1481,140	1431,248
