DTS Sentinel unit serial number:	SN410029Multiplexer serial number:	ORYXHardware model number:	OX2-SRSoftware version number:	ORYX F/W v4,00 Oryx Data Collector v3.7.2.0data status	okinstallation	B6 Nyhavnadifferential loss correction	single-endedforward channel	channel 2reverse channel	N/Adate	2023/12/10time	20:05:08forward acquisition time	300,00reverse acquisition time	0,00gamma	499,1914k internal	0,3122k external	0,3122temperature offset calibration	1,0000default loss term (dB/km)	0,3820temperature slope calibration	1,0000multiplexer offset coefficient	1,0000multiplexer slope coefficient	1,0000fibre end	0,00T internal ref (°C)	22,30T ext. ref 1 (°C)	5,93T ext. ref 2 (°C)	5,96length (m)	temperature (°C)	Stokes	anti-Stokes-744,400	-83,277	0,004	0,001
-743,385	-79,987	-0,330	0,082
-742,371	159,124	0,080	-0,083
-741,356	-140,267	-0,201	0,015
-740,342	129,256	0,048	-0,046
-739,327	-43,826	-0,258	0,096
-738,312	16,777	-0,067	-0,039
-737,298	-64,341	-0,245	0,074
-736,283	-165,369	-0,052	0,002
-735,269	357,293	-0,142	0,212
-734,254	-200,000	0,005	-0,016
-733,239	-200,000	-0,319	0,000
-732,225	-157,965	0,044	0,002
-731,210	-200,000	0,005	0,069
-730,196	237,507	-0,122	-0,151
-729,181	114,510	-0,083	-0,075
-728,167	-197,794	-0,111	-0,000
-727,152	-200,000	0,012	-0,055
-726,137	800,000	0,017	-0,037
-725,123	127,241	-0,063	-0,059
-724,108	-78,144	-0,075	0,019
-723,094	-177,764	-0,044	0,001
-722,079	-51,641	-0,126	0,044
-721,064	-197,810	-0,145	-0,001
-720,050	156,114	-0,071	0,073
-719,035	94,575	-0,007	-0,006
-718,021	-51,040	0,055	-0,019
-717,006	115,625	-0,050	0,045
-715,991	506,345	-0,034	-0,059
-714,977	-154,781	-0,065	0,003
-713,962	-83,600	0,195	-0,046
-712,948	13,081	0,036	0,021
-711,933	800,000	0,041	-0,100
-710,918	81,788	-0,071	-0,058
-709,904	201,704	-0,053	-0,061
-708,889	-200,000	-0,025	-0,137
-707,875	22,088	-0,018	-0,011
-706,860	-80,631	-0,112	-0,028
-705,845	-200,000	-0,003	0,027
-704,831	800,000	0,037	0,090
-703,816	40,003	0,115	0,077
-702,802	-75,055	0,088	0,023
-701,787	397,196	-0,038	-0,059
-700,772	279,293	-0,023	-0,031
-699,758	-200,000	-0,013	-0,072
-698,743	-80,637	0,141	0,035
-697,729	-165,310	-0,042	0,001
-696,714	-200,000	-0,041	0,166
-695,699	273,412	-0,067	-0,088
-694,685	-51,378	-0,077	-0,027
-693,670	189,079	-0,036	-0,040
-692,656	-200,000	0,015	-0,064
-691,641	18,315	0,091	-0,054
-690,627	800,000	-0,028	0,071
-689,612	124,061	0,118	-0,111
-688,597	800,000	-0,024	0,063
-687,583	-200,000	-0,002	-0,100
-686,568	-17,665	-0,068	0,031
-685,554	26,355	0,079	-0,049
-684,539	-28,944	-0,030	0,013
-683,524	-31,303	0,058	-0,024
-682,510	800,000	0,060	-0,125
-681,495	126,120	0,079	-0,074
-680,481	214,782	-0,049	-0,058
-679,466	-106,384	-0,166	-0,027
-678,451	-200,000	-0,014	0,062
-677,437	394,438	0,085	0,132
-676,422	-85,441	0,126	-0,029
-675,408	443,276	0,068	0,112
-674,393	-94,835	0,152	0,030
-673,378	26,898	-0,081	0,050
-672,364	-200,000	-0,027	-0,110
-671,349	800,000	0,030	-0,097
-670,335	-51,126	0,054	-0,019
-669,320	-101,110	-0,039	-0,007
-668,305	338,326	-0,029	-0,043
-667,291	-82,328	-0,132	-0,032
-666,276	57,100	-0,129	-0,094
-665,262	-109,972	-0,024	0,004
-664,247	-200,000	0,012	0,057
-663,232	-200,000	-0,015	-0,099
-662,218	256,461	0,023	0,030
-661,203	-200,000	0,003	-0,035
-660,189	-200,000	0,002	0,034
-659,174	-80,382	-0,281	0,069
-658,159	221,138	-0,055	-0,066
-657,145	-200,000	-0,058	-0,201
-656,130	-106,568	0,114	0,019
-655,116	144,113	0,070	0,069
-654,101	-101,669	0,108	0,019
-653,086	469,137	-0,037	0,061
-652,072	-176,447	-0,068	-0,001
-651,057	606,782	-0,058	-0,107
-650,043	22,585	-0,042	0,025
-649,028	-31,557	-0,072	-0,030
-648,014	-62,162	0,110	0,034
-646,999	119,915	-0,102	-0,094
-645,984	713,170	0,023	0,046
-644,970	-9,869	0,027	0,013
-643,955	155,403	-0,082	-0,083
-642,941	16,405	-0,017	-0,010
-641,926	800,000	-0,044	-0,105
-640,911	-200,000	-0,005	0,022
-639,897	-200,000	0,005	0,138
-638,882	-110,551	-0,075	-0,011
-637,868	386,660	0,019	0,029
-636,853	47,059	-0,052	-0,036
-635,838	800,000	-0,027	-0,076
-634,824	310,855	0,022	-0,030
-633,809	-200,000	0,000	-0,064
-632,795	-200,000	-0,007	-0,110
-631,780	-150,225	-0,125	0,007
-630,765	800,000	-0,009	0,027
-629,751	-200,000	-0,020	-0,094
-628,736	-200,000	-0,012	-0,174
-627,722	230,721	-0,076	-0,093
-626,707	266,781	-0,053	-0,069
-625,692	-200,000	0,034	0,126
-624,678	161,862	0,074	-0,077
-623,663	34,872	0,036	-0,023
-622,649	-50,911	-0,069	0,024
-621,634	398,523	-0,009	0,014
-620,619	5,283	-0,044	0,024
-619,605	644,537	-0,055	0,104
-618,590	-200,000	0,011	0,057
-617,576	149,300	0,057	0,057
-616,561	-106,293	-0,091	-0,015
-615,546	20,417	-0,094	-0,056
-614,532	-200,000	-0,010	-0,056
-613,517	-200,000	0,001	-0,095
-612,503	488,348	-0,017	-0,029
-611,488	551,038	-0,061	0,109
-610,474	-27,288	0,087	-0,037
-609,459	279,458	-0,098	-0,130
-608,444	191,432	-0,066	-0,074
-607,430	-200,000	0,044	0,185
-606,415	-94,395	0,056	-0,011
-605,401	61,255	-0,086	0,063
-604,386	538,030	-0,027	0,047
-603,371	551,774	0,026	0,047
-602,357	-176,297	-0,020	-0,000
-601,342	557,567	-0,023	0,041
-600,328	-116,571	0,015	-0,002
-599,313	120,619	-0,046	-0,043
-598,298	-159,698	0,071	0,003
-597,284	-200,000	0,003	0,044
-596,269	800,000	-0,040	0,102
-595,255	-95,738	-0,171	-0,034
-594,240	128,377	-0,084	-0,080
-593,225	-10,927	0,140	-0,068
-592,211	17,141	-0,140	-0,082
-591,196	-26,887	0,070	-0,030
-590,182	800,000	-0,011	0,035
-589,167	-200,000	0,011	-0,045
-588,152	481,997	0,019	-0,032
-587,138	362,269	-0,093	-0,138
-586,123	-200,000	0,016	-0,168
-585,109	90,327	-0,046	-0,038
-584,094	66,010	-0,083	-0,063
-583,079	-200,000	-0,017	-0,075
-582,065	211,089	-0,018	0,021
-581,050	-127,383	-0,028	-0,003
-580,036	340,221	0,064	-0,092
-579,021	38,094	-0,095	-0,063
-578,006	-31,265	0,120	0,050
-576,992	-200,000	-0,016	0,130
-575,977	-153,479	0,078	-0,004
-574,963	-63,766	-0,024	0,007
-573,948	-131,906	0,141	0,013
-572,934	-38,899	0,072	0,028
-571,919	-50,241	-0,106	-0,037
-570,904	326,993	0,016	0,022
-569,890	118,546	0,095	0,087
-568,875	-55,123	-0,223	0,074
-567,861	24,416	0,044	0,027
-566,846	325,779	0,067	0,095
-565,831	800,000	-0,021	-0,069
-564,817	800,000	-0,050	-0,138
-563,802	800,000	0,034	-0,076
-562,788	718,258	0,028	-0,055
-561,773	147,561	0,119	-0,119
-560,758	-109,693	0,048	-0,007
-559,744	-200,000	0,007	0,068
-558,729	71,899	-0,052	-0,040
-557,715	43,151	-0,025	0,017
-556,700	36,503	-0,110	-0,072
-555,685	-76,386	-0,047	-0,012
-554,671	-66,831	-0,050	0,014
-553,656	115,950	-0,064	-0,058
-552,642	800,000	0,043	-0,098
-551,627	5,623	0,048	0,026
-550,612	-130,567	-0,112	0,011
-549,598	-200,000	0,002	0,095
-548,583	800,000	0,025	0,060
-547,569	-200,000	0,032	-0,124
-546,554	84,262	-0,019	-0,016
-545,539	-105,166	0,119	0,020
-544,525	-200,000	0,016	-0,069
-543,510	800,000	0,015	-0,042
-542,496	800,000	0,039	-0,104
-541,481	-6,083	-0,212	0,107
-540,466	-54,991	0,127	0,042
-539,452	86,616	-0,169	0,138
-538,437	624,458	-0,054	0,101
-537,423	81,165	0,092	0,073
-536,408	117,081	0,065	-0,059
-535,393	800,000	-0,008	0,017
-534,379	800,000	0,018	0,057
-533,364	-46,331	0,092	-0,033
-532,350	-200,000	0,027	0,144
-531,335	-158,507	0,120	-0,005
-530,321	-200,000	-0,024	0,121
-529,306	-200,000	-0,026	-0,151
-528,291	78,033	0,142	0,112
-527,277	800,000	-0,023	-0,051
-526,262	800,000	0,010	0,030
-525,248	800,000	0,017	-0,046
-524,233	-71,584	-0,040	0,011
-523,218	-123,566	-0,028	0,003
-522,204	-37,029	0,124	0,049
-521,189	89,423	-0,016	-0,013
-520,175	800,000	0,021	-0,057
-519,160	800,000	0,033	-0,076
-518,145	2,983	0,112	0,060
-517,131	166,292	0,103	-0,108
-516,116	-93,617	0,062	-0,013
-515,102	201,093	0,020	0,023
-514,087	-200,000	0,002	-0,168
-513,072	-200,000	-0,004	-0,069
-512,058	-200,000	0,005	0,075
-511,043	348,785	-0,059	-0,086
-510,029	97,193	0,019	0,016
-509,014	-64,263	0,077	0,023
-507,999	-77,879	-0,026	-0,007
-506,985	-138,741	-0,111	0,009
-505,970	-200,000	-0,019	0,096
-504,956	-200,000	-0,010	-0,143
-503,941	-63,709	-0,111	-0,033
-502,926	282,923	-0,065	0,087
-501,912	519,205	-0,085	0,147
-500,897	800,000	0,061	0,128
-499,883	-29,159	-0,096	0,041
-498,868	98,107	-0,143	-0,121
-497,853	-200,000	-0,005	-0,116
-496,839	443,617	-0,042	0,069
-495,824	453,295	0,064	0,104
-494,810	-24,099	0,027	0,012
-493,795	-200,000	0,004	-0,101
-492,781	22,097	-0,169	0,101
-491,766	-118,263	-0,122	0,016
-490,751	171,717	-0,120	-0,128
-489,737	284,211	0,102	-0,136
-488,722	187,366	0,085	-0,094
-487,708	-36,621	0,048	0,019
-486,693	-200,000	0,014	0,135
-485,678	-200,000	0,020	0,092
-484,664	413,920	0,087	0,137
-483,649	78,829	0,086	0,068
-482,635	174,796	-0,015	-0,016
-481,620	-200,000	0,019	0,062
-480,605	800,000	0,025	0,077
-479,591	-200,000	0,010	0,083
-478,576	118,713	-0,051	-0,046
-477,562	42,165	-0,090	-0,060
-476,547	-200,000	0,025	-0,121
-475,532	-61,078	0,097	0,030
-474,518	-200,000	0,024	0,080
-473,503	-94,934	0,049	0,010
-472,489	619,691	0,028	0,053
-471,474	-200,000	-0,011	0,121
-470,459	-135,084	0,052	-0,005
-469,445	38,918	-0,075	0,049
-468,430	13,738	0,099	0,057
-467,416	-200,000	0,015	0,095
-466,401	-126,981	0,080	0,009
-465,386	253,875	0,052	0,066
-464,372	-200,000	0,026	0,099
-463,357	800,000	-0,022	-0,055
-462,343	-172,316	-0,054	-0,001
-461,328	-200,000	-0,009	0,032
-460,313	52,636	0,128	0,090
-459,299	55,198	0,130	-0,092
-458,284	-0,688	0,039	-0,020
-457,270	663,774	-0,005	-0,009
-456,255	-72,205	0,087	-0,024
-455,241	364,311	-0,046	-0,069
-454,226	116,216	0,080	-0,072
-453,211	176,154	0,047	-0,051
-452,197	5,285	0,079	-0,043
-451,182	-10,116	0,141	-0,069
-450,168	-115,001	-0,092	0,013
-449,153	-21,121	0,049	-0,022
-448,138	36,074	0,125	-0,081
-447,124	451,339	-0,048	-0,078
-446,109	-200,000	0,004	0,047
-445,095	214,778	-0,047	-0,055
-444,080	151,824	-0,049	-0,050
-443,065	-122,225	-0,020	-0,002
-442,051	240,733	-0,064	-0,079
-441,036	800,000	0,062	0,156
-440,022	319,584	-0,072	-0,101
-439,007	6,740	-0,082	0,045
-437,992	431,648	-0,081	0,129
-436,978	-21,450	0,032	-0,014
-435,963	-200,000	0,009	-0,125
-434,949	-200,000	-0,002	-0,070
-433,934	-139,522	-0,113	-0,009
-432,919	-79,285	-0,033	0,008
-431,905	800,000	0,087	0,203
-430,890	-200,000	-0,001	0,014
-429,876	-200,000	0,030	-0,109
-428,861	151,651	0,016	0,016
-427,846	344,455	0,035	-0,050
-426,832	455,035	0,019	-0,031
-425,817	-48,326	-0,120	0,042
-424,803	285,380	-0,060	0,079
-423,788	-35,507	0,194	0,077
-422,773	77,503	0,101	-0,079
-421,759	-195,654	0,114	-0,001
-420,744	96,984	0,054	0,045
-419,730	453,834	-0,021	-0,035
-418,715	800,000	0,015	-0,041
-417,701	-200,000	0,022	-0,104
-416,686	-200,000	0,008	-0,196
-415,671	-138,786	0,144	-0,011
-414,657	-200,000	0,015	0,135
-413,642	-200,000	-0,089	-0,000
-412,628	86,628	-0,028	0,023
-411,613	311,502	-0,041	-0,057
-410,598	-100,168	0,051	0,009
-409,584	233,122	0,038	0,046
-408,569	-92,602	0,043	0,009
-407,555	-37,193	0,003	-0,001
-406,540	-23,578	-0,117	-0,051
-405,525	207,600	-0,075	0,086
-404,511	-110,189	0,120	0,018
-403,496	800,000	-0,017	-0,041
-402,482	-199,878	0,207	-0,001
-401,467	-83,856	-0,043	-0,010
-400,452	-23,424	0,023	-0,010
-399,438	89,635	-0,002	0,002
-398,423	236,189	-0,105	0,128
-397,409	-100,211	-0,065	0,012
-396,394	643,116	0,042	0,078
-395,379	-184,338	-0,087	-0,001
-394,365	-3,592	0,156	0,079
-393,350	800,000	0,018	0,058
-392,336	-83,040	-0,101	0,024
-391,321	-200,000	-0,015	-0,068
-390,306	-68,381	0,089	-0,025
-389,292	-65,075	-0,104	0,031
-388,277	-200,000	0,015	0,075
-387,263	-200,000	-0,002	-0,025
-386,248	-73,472	-0,079	-0,021
-385,233	-200,000	-0,020	0,104
-384,219	-20,551	-0,130	-0,059
-383,204	800,000	0,014	0,032
-382,190	-103,767	0,008	-0,001
-381,175	330,890	-0,022	0,031
-380,160	-38,818	0,071	0,027
-379,146	800,000	-0,030	-0,072
-378,131	339,730	-0,040	-0,058
-377,117	167,824	-0,085	0,089
-376,102	-200,000	0,007	-0,132
-375,088	-1,875	-0,116	-0,060
-374,073	-36,490	-0,033	-0,013
-373,058	335,371	0,015	0,021
-372,044	-115,953	0,058	-0,008
-371,029	-200,000	0,015	0,075
-370,015	304,172	-0,094	0,129
-369,000	-112,218	0,050	0,007
-367,985	800,000	-0,008	0,025
-366,971	800,000	-0,080	0,176
-365,956	-161,293	0,092	-0,003
-364,942	-16,849	0,042	-0,019
-363,927	-130,573	-0,154	0,015
-362,912	-42,206	-0,055	0,021
-361,898	90,192	0,059	-0,048
-360,883	800,000	-0,057	-0,165
-359,869	-200,000	-0,023	-0,089
-358,854	4,950	-0,026	0,014
-357,839	-200,000	-0,026	-0,112
-356,825	612,511	0,059	0,109
-355,810	-200,000	-0,008	0,069
-354,796	59,064	0,059	-0,043
-353,781	800,000	-0,062	-0,131
-352,766	-200,000	0,010	-0,064
-351,752	-200,000	0,004	0,029
-350,737	-182,556	0,111	0,001
-349,723	402,237	0,035	-0,054
-348,708	-200,000	0,002	-0,077
-347,693	-115,655	-0,085	-0,012
-346,679	-200,000	0,000	0,097
-345,664	-45,723	-0,063	0,023
-344,650	320,829	0,056	-0,078
-343,635	-99,331	0,208	0,038
-342,620	489,200	0,077	0,129
-341,606	451,269	0,019	-0,031
-340,591	-200,000	-0,011	0,037
-339,577	800,000	0,009	-0,025
-338,562	800,000	-0,060	0,124
-337,548	-200,000	0,013	0,054
-336,533	-45,991	0,063	-0,023
-335,518	135,046	0,081	-0,077
-334,504	271,102	0,063	0,082
-333,489	-103,498	0,126	0,022
-332,475	800,000	-0,035	-0,081
-331,460	-200,000	0,040	-0,152
-330,445	300,336	-0,076	-0,103
-329,431	17,568	0,066	0,038
-328,416	800,000	-0,028	0,061
-327,402	212,830	0,025	-0,028
-326,387	267,644	-0,052	0,068
-325,372	-200,000	0,022	-0,075
-324,358	-150,782	-0,107	0,006
-323,343	-75,640	0,012	-0,003
-322,329	800,000	-0,028	0,067
-321,314	-151,405	-0,082	-0,004
-320,299	-200,000	0,007	0,029
-319,285	-200,000	0,011	0,050
-318,270	-44,315	-0,069	-0,025
-317,256	11,221	0,072	-0,040
-316,241	566,801	0,045	0,080
-315,226	-200,000	0,003	0,097
-314,212	204,835	0,090	0,102
-313,197	800,000	-0,025	0,059
-312,183	-200,000	0,002	0,031
-311,168	-58,692	-0,075	0,024
-310,153	-112,637	-0,087	0,013
-309,139	-200,000	0,003	-0,163
-308,124	-200,000	0,032	-0,111
-307,110	800,000	0,037	0,103
-306,095	-200,000	0,007	0,074
-305,080	-10,979	0,114	-0,055
-304,066	800,000	-0,042	-0,090
-303,051	623,103	0,095	0,175
-302,037	123,789	-0,067	0,062
-301,022	515,525	-0,027	0,046
-300,008	-43,839	-0,058	0,021
-298,993	-60,181	0,085	0,026
-297,978	-200,000	0,001	0,012
-296,964	-200,000	-0,010	-0,120
-295,949	249,275	0,062	-0,077
-294,935	152,807	0,070	-0,070
-293,920	177,433	-0,058	0,061
-292,905	-190,585	0,097	-0,001
-291,891	489,848	-0,041	-0,069
-290,876	8,127	-0,047	-0,026
-289,862	800,000	-0,022	0,045
-288,847	-36,392	-0,039	0,015
-287,832	-92,199	0,126	0,026
-286,818	26,981	-0,068	0,042
-285,803	-116,597	-0,016	-0,002
-284,789	-200,000	0,005	0,105
-283,774	-69,682	0,071	-0,020
-282,759	-183,870	0,109	0,001
-281,745	-200,000	-0,013	0,044
-280,730	-200,000	-0,040	-0,166
-279,716	390,848	-0,121	-0,185
-278,701	-174,826	-0,156	0,003
-277,686	778,335	-0,013	0,025
-276,672	-43,220	0,096	-0,035
-275,657	128,156	0,037	0,034
-274,643	753,439	-0,084	0,167
-273,628	-44,345	-0,101	0,037
-272,613	321,387	0,023	-0,032
-271,599	-58,067	0,093	0,029
-270,584	153,478	0,097	0,097
-269,570	800,000	0,046	0,097
-268,555	389,590	0,012	0,018
-267,540	459,160	0,028	0,045
-266,526	-64,187	-0,062	0,018
-265,511	-186,908	0,071	-0,001
-264,497	54,104	0,083	0,058
-263,482	-13,114	0,173	0,082
-262,467	647,033	-0,039	0,073
-261,453	666,544	0,008	-0,015
-260,438	-200,000	0,013	-0,157
-259,424	-200,000	-0,009	0,068
-258,409	-118,029	-0,049	0,006
-257,395	800,000	0,048	0,110
-256,380	-200,000	0,018	0,146
-255,365	410,759	-0,093	0,145
-254,351	-200,000	0,013	0,073
-253,336	308,480	-0,025	0,035
-252,322	134,548	-0,037	-0,036
-251,307	33,578	-0,131	-0,083
-250,292	800,000	-0,042	-0,102
-249,278	-200,000	-0,004	0,063
-248,263	519,175	0,098	0,168
-247,249	80,214	-0,077	-0,060
-246,234	266,226	-0,018	0,023
-245,219	-147,435	0,136	0,008
-244,205	-129,588	-0,080	-0,008
-243,190	-23,477	0,034	0,015
-242,176	55,583	0,055	0,039
-241,161	-50,120	0,068	0,023
-240,146	800,000	0,019	-0,043
-239,132	94,160	-0,085	0,071
-238,117	800,000	-0,028	-0,073
-237,103	-200,000	0,004	0,066
-236,088	48,737	0,058	-0,040
-235,073	743,253	-0,072	0,142
-234,059	-200,000	-0,023	0,089
-233,044	-200,000	-0,007	0,040
-232,030	287,936	-0,066	0,087
-231,015	-200,000	-0,024	-0,120
-230,000	66,537	-0,086	-0,064
-228,986	131,905	-0,021	0,020
-227,971	-71,049	0,166	-0,045
-226,957	294,183	-0,058	-0,077
-225,942	-8,459	0,123	0,060
-224,927	-16,535	0,137	-0,063
-223,913	78,222	-0,065	-0,051
-222,898	52,388	0,082	0,057
-221,884	242,229	-0,034	0,042
-220,869	470,782	0,030	-0,049
-219,855	800,000	-0,069	0,145
-218,840	-37,566	0,056	0,022
-217,825	290,468	-0,047	-0,062
-216,811	-18,869	-0,108	0,049
-215,796	-200,000	-0,008	-0,098
-214,782	-41,990	0,039	0,014
-213,767	264,386	-0,003	0,003
-212,752	13,328	0,055	0,031
-211,738	-200,000	-0,004	0,025
-210,723	668,606	0,046	0,086
-209,709	41,423	-0,087	-0,057
-208,694	746,202	0,054	-0,107
-207,679	-200,000	-0,001	-0,085
-206,665	-74,378	-0,102	0,027
-205,650	236,828	-0,004	0,005
-204,636	-200,000	-0,016	0,142
-203,621	127,276	-0,088	-0,081
-202,606	5,113	0,077	-0,041
-201,592	-200,000	-0,129	0,000
-200,577	-186,650	0,080	-0,001
-199,563	-141,925	-0,014	0,001
-198,548	-200,000	0,027	0,174
-197,533	16,622	0,038	0,022
-196,519	493,894	-0,023	0,038
-195,504	146,058	-0,103	-0,101
-194,490	-58,224	-0,100	-0,032
-193,475	445,183	-0,062	0,100
-192,460	-130,315	0,015	-0,001
-191,446	34,111	0,023	0,015
-190,431	28,449	0,123	0,075
-189,417	-42,353	-0,028	-0,010
-188,402	-86,104	-0,111	0,025
-187,387	322,980	-0,060	-0,083
-186,373	-39,746	-0,129	-0,049
-185,358	-157,091	0,080	0,003
-184,344	-9,739	0,067	0,033
-183,329	173,697	-0,052	0,054
-182,315	155,039	0,019	0,019
-181,300	-200,000	-0,004	-0,113
-180,285	-200,000	0,017	-0,055
-179,271	-45,997	-0,055	-0,020
-178,256	171,865	-0,049	-0,052
-177,242	406,146	-0,018	-0,027
-176,227	800,000	0,035	-0,087
-175,212	800,000	-0,011	0,032
-174,198	220,413	-0,042	-0,049
-173,183	166,765	-0,061	0,063
-172,169	-200,000	-0,006	-0,062
-171,154	319,560	-0,111	-0,154
-170,139	264,057	0,079	-0,101
-169,125	94,268	-0,060	-0,049
-168,110	-200,000	0,002	0,155
-167,096	43,727	0,145	-0,096
-166,081	376,341	0,032	-0,048
-165,066	4,372	0,033	0,017
-164,052	-68,809	-0,079	-0,022
-163,037	-200,000	0,003	-0,031
-162,023	172,256	0,105	-0,110
-161,008	221,481	-0,031	0,036
-159,993	-200,000	-0,020	-0,092
-158,979	234,235	0,048	0,057
-157,964	52,806	0,067	0,046
-156,950	-142,250	0,026	0,002
-155,935	-15,549	-0,021	-0,010
-154,920	-200,000	0,008	-0,046
-153,906	60,915	0,065	-0,047
-152,891	165,175	0,034	-0,035
-151,877	-161,100	-0,010	0,000
-150,862	-106,464	-0,018	0,003
-149,847	271,003	-0,099	0,128
-148,833	800,000	0,102	0,242
-147,818	-168,399	-0,290	-0,008
-146,804	-47,512	0,168	0,059
-145,789	51,776	0,037	-0,025
-144,775	800,000	0,023	-0,058
-143,760	-200,000	0,015	0,117
-142,745	-103,717	-0,204	-0,034
-141,731	-16,728	-0,029	0,013
-140,716	499,732	0,063	0,106
-139,702	180,690	0,079	0,085
-138,687	71,320	0,113	0,085
-137,672	-153,279	0,059	0,003
-136,658	75,252	-0,118	-0,091
-135,643	-200,000	0,013	-0,164
-134,629	-15,599	0,080	0,037
-133,614	-200,000	-0,010	-0,067
-132,599	16,226	-0,014	-0,008
-131,585	458,045	0,063	0,102
-130,570	-200,000	0,013	0,145
-129,556	52,210	0,098	-0,068
-128,541	-130,845	0,087	-0,008
-127,526	-170,011	-0,040	-0,001
-126,512	591,751	-0,031	-0,056
-125,497	210,113	0,112	0,128
-124,483	12,082	0,148	-0,083
-123,468	-53,895	-0,214	0,071
-122,453	800,000	-0,044	-0,095
-121,439	166,311	-0,086	-0,089
-120,424	-9,280	0,135	-0,065
-119,410	-200,000	-0,001	0,033
-118,395	34,913	-0,042	-0,027
-117,380	158,085	-0,062	0,062
-116,366	-66,054	-0,041	-0,012
-115,351	54,312	-0,068	0,048
-114,337	131,801	-0,094	-0,088
-113,322	800,000	0,041	-0,091
-112,307	155,321	0,038	0,038
-111,293	800,000	0,043	0,119
-110,278	409,332	-0,049	-0,076
-109,264	31,571	-0,097	-0,061
-108,249	83,959	-0,069	-0,055
-107,234	293,101	0,090	0,120
-106,220	-200,000	0,007	0,082
-105,205	281,553	0,049	0,064
-104,191	-200,000	0,023	-0,154
-103,176	-45,668	0,138	-0,049
-102,162	145,453	0,035	0,034
-101,147	-123,858	-0,120	-0,014
-100,132	800,000	-0,023	0,064
-99,118	294,467	-0,065	-0,087
-98,103	800,000	-0,036	0,083
-97,089	22,903	0,119	-0,071
-96,074	363,820	-0,079	0,116
-95,059	682,990	0,078	0,148
-94,045	800,000	-0,014	-0,034
-93,030	-155,779	-0,089	0,004
-92,016	58,800	0,077	-0,055
-91,001	-200,000	0,003	-0,127
-89,986	555,084	0,072	0,127
-88,972	-200,000	-0,003	-0,042
-87,957	297,361	-0,040	0,053
-86,943	16,073	-0,091	0,052
-85,928	-73,881	0,087	-0,023
-84,913	-126,089	-0,097	-0,010
-83,899	235,519	0,045	-0,054
-82,884	-160,819	0,056	-0,002
-81,870	-99,081	0,096	0,018
-80,855	172,970	0,058	0,061
-79,840	-200,000	0,003	-0,024
-78,826	-200,000	0,003	0,039
-77,811	-200,000	-0,013	-0,122
-76,797	-200,000	-0,005	-0,030
-75,782	-155,930	0,110	0,005
-74,767	-200,000	-0,008	0,033
-73,753	800,000	-0,057	0,134
-72,738	-200,000	-0,018	0,065
-71,724	582,535	-0,038	-0,068
-70,709	128,726	0,082	-0,076
-69,694	-152,132	-0,061	0,003
-68,680	-200,000	-0,002	0,089
-67,665	640,513	0,024	0,045
-66,651	-200,000	0,000	0,013
-65,636	-100,874	-0,076	-0,013
-64,622	-200,000	-0,012	-0,133
-63,607	670,512	-0,021	0,040
-62,592	478,558	-0,022	0,036
-61,578	-83,971	0,170	0,039
-60,563	594,075	0,059	-0,106
-59,549	33,575	-0,071	0,045
-58,534	-132,667	-1,266	-0,116
-57,519	556,172	-0,876	-1,538
-56,505	-200,000	-0,978	-4,484
-55,490	89,134	0,559	-0,452
-54,476	800,000	5,027	11,810
-53,461	-200,000	13,569	253,430
-52,446	-200,000	690,478	2257,388
-51,432	589,559	1622,305	2914,267
-50,417	118,938	1634,637	1466,127
-49,403	73,111	1288,617	976,509
-48,388	37,978	1024,108	659,447
-47,373	24,252	981,752	587,030
-46,359	23,563	971,378	578,545
-45,344	22,494	967,301	572,599
-44,330	22,464	965,605	571,476
-43,315	22,362	964,174	570,274
-42,300	22,380	963,185	569,724
-41,286	22,310	962,534	569,088
-40,271	22,256	961,464	568,257
-39,257	22,345	960,160	567,754
-38,242	22,279	959,512	567,133
-37,227	22,268	958,703	566,598
-36,213	22,248	957,713	565,926
-35,198	22,216	957,101	565,438
-34,184	22,331	956,248	565,283
-33,169	22,257	955,423	564,534
-32,154	22,367	954,545	564,345
-31,140	22,351	953,369	563,578
-30,125	22,346	952,851	563,233
-29,111	22,382	951,952	562,796
-28,096	22,344	951,458	562,360
-27,082	22,314	950,687	561,783
-26,067	22,339	949,860	561,355
-25,052	22,308	949,078	560,770
-24,038	22,347	948,377	560,458
-23,023	22,341	947,851	560,105
-22,009	22,417	947,017	559,834
-20,994	22,360	946,658	559,416
-19,979	22,372	945,983	559,033
-18,965	22,330	945,434	558,555
-17,950	22,389	944,608	558,232
-16,936	22,342	943,939	557,665
-15,921	22,333	943,352	557,268
-14,906	22,207	942,692	556,453
-13,892	22,223	941,938	556,039
-12,877	22,215	941,450	555,700
-11,863	22,254	940,716	555,369
-10,848	22,201	940,251	554,906
-9,833	22,333	939,760	555,014
-8,819	22,315	939,086	554,536
-7,804	22,249	938,346	553,868
-6,790	22,238	937,753	553,459
-5,775	22,300	937,101	553,249
-4,760	22,236	936,753	552,819
-3,746	22,142	936,110	552,120
-2,731	22,126	935,308	551,577
-1,717	22,052	934,570	550,886
-0,702	22,066	933,841	550,479
0,313	21,903	933,346	550,503
1,327	25,047	931,252	559,104
2,342	34,815	795,730	503,746
3,356	32,675	451,593	282,637
4,371	1,599	294,065	153,005
5,386	-2,840	274,918	138,826
6,400	-4,433	269,152	134,421
7,415	-5,055	266,821	132,673
8,429	-4,740	265,615	132,350
9,444	-4,460	264,531	132,054
10,459	-4,419	264,035	131,832
11,473	-4,748	263,489	131,249
12,488	-4,634	263,060	131,127
13,502	-4,858	262,434	130,600
14,517	-4,703	261,971	130,498
15,531	-4,630	261,589	130,362
16,546	-4,775	261,278	130,065
17,561	-4,744	260,889	129,887
18,575	-4,567	260,437	129,810
19,590	-4,796	260,227	129,488
20,604	-4,637	259,933	129,473
21,619	-4,649	259,507	129,238
22,634	-4,673	259,240	129,073
23,648	-4,770	258,917	128,813
24,663	-4,889	258,798	128,636
25,677	-4,692	258,606	128,706
26,692	-4,600	258,188	128,568
27,707	-4,825	257,977	128,251
28,721	-4,727	257,660	128,169
29,736	-4,812	257,394	127,950
30,750	-4,901	257,256	127,791
31,765	-4,788	256,970	127,738
32,780	-4,850	256,847	127,611
33,794	-4,757	256,568	127,543
34,809	-4,710	256,182	127,381
35,823	-4,703	255,935	127,253
36,838	-4,657	255,698	127,164
37,853	-4,661	255,492	127,047
38,867	-4,895	255,315	126,742
39,882	-4,840	255,066	126,655
40,896	-4,845	254,879	126,547
41,911	-4,877	254,630	126,383
42,926	-4,822	254,367	126,290
43,940	-4,814	254,189	126,197
44,955	-4,978	253,967	125,932
45,969	-4,991	253,734	125,794
46,984	-5,158	253,497	125,520
47,999	-5,353	253,219	125,202
49,013	-5,417	252,960	125,006
50,028	-5,615	252,656	124,673
51,042	-5,721	252,414	124,450
52,057	-5,855	252,257	124,245
53,071	-5,288	251,788	124,494
54,086	-5,521	251,961	124,367
55,101	-5,289	251,658	124,407
56,115	-5,262	251,725	124,452
57,130	-4,832	251,580	124,741
58,144	-4,544	251,197	124,790
59,159	-4,492	251,075	124,763
60,174	-4,643	251,052	124,609
61,188	-4,622	250,662	124,423
62,203	-4,528	250,465	124,395
63,217	-4,694	250,266	124,142
64,232	-4,549	250,157	124,202
65,247	-4,601	249,775	123,956
66,261	-4,770	249,661	123,744
67,276	-4,752	249,281	123,560
68,290	-5,062	249,136	123,212
69,305	-5,146	248,758	122,942
70,320	-5,263	248,776	122,840
71,334	-4,932	248,528	122,989
72,349	-4,582	248,601	123,313
73,363	-4,467	248,214	123,208
74,378	-4,638	248,007	122,948
75,393	-4,684	247,804	122,798
76,407	-4,870	247,791	122,622
77,422	-4,847	247,535	122,504
78,436	-4,577	247,285	122,599
79,451	-4,740	247,135	122,375
80,466	-4,850	246,789	122,100
81,480	-4,973	246,684	121,933
82,495	-5,163	246,435	121,639
83,509	-4,887	246,262	121,776
84,524	-4,812	245,993	121,695
85,539	-5,173	245,847	121,307
86,553	-5,258	245,555	121,081
87,568	-5,064	245,471	121,192
88,582	-4,933	245,282	121,198
89,597	-5,049	245,166	121,033
90,611	-4,909	244,911	121,013
91,626	-4,718	244,848	121,131
92,641	-4,721	244,654	121,022
93,655	-4,779	244,321	120,799
94,670	-4,849	244,144	120,641
95,684	-5,089	244,024	120,371
96,699	-4,917	243,756	120,371
97,714	-4,871	243,545	120,295
98,728	-4,924	243,396	120,166
99,743	-5,140	243,188	119,873
100,757	-5,103	242,946	119,774
101,772	-5,249	242,868	119,603
102,787	-4,944	242,641	119,734
103,801	-4,678	242,385	119,818
104,816	-4,842	242,427	119,692
105,830	-4,894	242,277	119,564
106,845	-4,687	242,072	119,624
107,860	-4,707	241,850	119,486
108,874	-4,862	241,663	119,256
109,889	-4,776	241,293	119,133
110,903	-4,860	241,274	119,044
111,918	-5,029	241,038	118,778
112,933	-5,071	240,925	118,677
113,947	-4,777	240,670	118,782
114,962	-4,733	240,557	118,752
115,976	-4,753	240,419	118,657
116,991	-4,896	240,327	118,483
118,006	-4,874	240,072	118,365
119,020	-5,020	239,981	118,190
120,035	-4,773	239,913	118,348
121,049	-4,485	239,742	118,490
122,064	-4,744	239,554	118,174
123,079	-4,943	239,305	117,878
124,093	-4,875	239,118	117,831
125,108	-4,962	238,799	117,592
126,122	-5,120	238,533	117,322
127,137	-5,426	238,354	116,975
128,151	-5,356	238,290	116,990
129,166	-5,309	238,151	116,949
130,181	-4,981	237,879	117,072
131,195	-5,099	237,615	116,835
132,210	-5,064	237,530	116,811
133,224	-4,789	237,443	116,982
134,239	-4,692	237,169	116,915
135,254	-4,861	237,135	116,751
136,268	-5,012	236,882	116,493
137,283	-5,151	236,706	116,284
138,297	-5,309	236,535	116,062
139,312	-5,322	236,122	115,838
140,327	-5,144	236,282	116,051
141,341	-4,618	236,181	116,415
142,356	-4,532	235,992	116,380
143,370	-4,535	235,899	116,322
144,385	-4,517	235,785	116,270
145,400	-4,308	235,432	116,253
146,414	-4,317	235,254	116,148
147,429	-4,610	235,154	115,853
148,443	-4,433	234,888	115,853
149,458	-4,665	234,739	115,583
150,473	-4,517	234,706	115,676
151,487	-4,545	234,459	115,521
152,502	-4,573	234,411	115,464
153,516	-4,654	234,347	115,358
154,531	-4,616	234,043	115,229
155,546	-4,496	233,772	115,181
156,560	-4,724	233,625	114,916
157,575	-4,586	233,467	114,938
158,589	-4,581	233,276	114,838
159,604	-4,534	233,288	114,870
160,619	-4,271	232,932	114,894
161,633	-4,270	232,879	114,858
162,648	-4,334	232,763	114,740
163,662	-4,383	232,539	114,580
164,677	-4,486	232,406	114,423
165,692	-4,483	232,266	114,347
166,706	-4,313	232,358	114,516
167,721	-4,277	231,973	114,345
168,735	-4,272	231,881	114,293
169,750	-4,389	231,707	114,105
170,764	-4,520	231,620	113,949
171,779	-4,405	231,394	113,918
172,794	-4,412	231,240	113,826
173,808	-4,640	231,068	113,552
174,823	-5,138	230,696	112,968
175,837	-5,163	230,627	112,905
176,852	-4,756	230,491	113,148
177,867	-4,485	230,375	113,293
178,881	-4,511	230,302	113,226
179,896	-4,362	230,081	113,224
180,910	-4,616	230,034	112,992
181,925	-4,456	229,815	112,999
182,940	-4,295	229,639	113,029
183,954	-4,426	229,507	112,851
184,969	-4,364	229,490	112,881
185,983	-4,241	229,306	112,877
186,998	-4,243	229,201	112,813
188,013	-4,346	229,015	112,632
189,027	-4,347	228,751	112,491
190,042	-4,562	228,678	112,278
191,056	-4,546	228,651	112,267
192,071	-4,371	228,372	112,256
193,086	-4,311	228,233	112,224
194,100	-4,111	227,930	112,220
195,115	-4,651	227,590	111,625
196,129	-5,318	227,426	111,020
197,144	-1,667	228,565	114,397
198,159	2,324	229,662	118,039
199,173	4,289	230,032	119,746
200,188	4,407	230,022	119,822
201,202	4,685	229,834	119,928
202,217	4,729	229,745	119,905
203,232	4,840	229,622	119,916
204,246	4,904	229,627	119,958
205,261	4,829	229,301	119,720
206,275	4,793	229,275	119,667
207,290	5,013	229,023	119,695
208,304	4,994	228,949	119,631
209,319	5,011	228,700	119,503
210,334	4,815	228,613	119,296
211,348	4,604	228,287	118,952
212,363	4,169	228,058	118,488
213,377	4,134	227,925	118,381
214,392	4,180	227,721	118,301
215,407	4,045	227,719	118,185
216,421	4,438	227,493	118,358
217,436	4,524	227,110	118,214
218,450	3,833	227,111	117,676
219,465	3,764	226,932	117,520
220,480	3,925	226,860	117,595
221,494	3,859	226,649	117,425
222,509	3,956	226,645	117,487
223,523	4,093	226,446	117,477
224,538	4,200	226,160	117,400
225,553	4,039	225,993	117,181
226,567	4,177	225,932	117,244
227,582	4,234	225,813	117,214
228,596	4,504	225,819	117,412
229,611	4,276	225,472	117,048
230,626	4,044	225,358	116,803
231,640	4,226	225,144	116,819
232,655	4,134	225,184	116,760
233,669	4,734	225,089	117,155
234,684	4,697	225,038	117,090
235,699	4,515	224,755	116,795
236,713	4,296	224,558	116,516
237,728	3,996	224,336	116,164
238,742	4,044	224,091	116,063
239,757	3,828	223,796	115,737
240,772	3,978	223,822	115,854
241,786	3,940	223,757	115,780
242,801	4,143	223,597	115,840
243,815	4,390	223,631	116,034
244,830	4,543	223,445	116,042
245,844	4,192	223,230	115,656
246,859	4,150	223,056	115,524
247,874	4,407	222,972	115,663
248,888	4,444	222,847	115,616
249,903	4,403	222,550	115,421
250,917	4,324	222,466	115,308
251,932	4,074	222,329	115,040
252,947	4,234	222,012	114,985
253,961	4,237	222,001	114,971
254,976	4,111	221,933	114,831
255,990	4,409	221,853	115,002
257,005	4,191	221,624	114,711
258,020	4,377	221,466	114,757
259,034	4,622	221,316	114,851
260,049	4,207	221,376	114,563
261,063	4,256	221,107	114,450
262,078	4,641	220,883	114,610
263,093	4,416	220,766	114,372
264,107	4,461	220,627	114,323
265,122	4,434	220,551	114,253
266,136	4,477	220,489	114,243
267,151	4,771	220,205	114,303
268,166	4,391	219,972	113,891
269,180	4,020	219,754	113,494
270,195	3,901	219,605	113,320
271,209	4,071	219,484	113,373
272,224	4,016	219,624	113,394
273,239	4,220	219,321	113,377
274,253	3,918	219,146	113,055
275,268	4,009	218,970	113,021
276,282	3,753	218,920	112,797
277,297	3,774	218,764	112,723
278,312	3,810	218,671	112,691
279,326	3,926	218,540	112,699
280,341	4,016	218,268	112,614
281,355	4,135	218,352	112,735
282,370	4,302	218,025	112,677
283,384	3,871	217,961	112,319
284,399	3,806	217,707	112,131
285,414	3,752	217,628	112,042
286,428	4,067	217,553	112,222
287,443	4,159	217,371	112,185
288,457	4,321	217,234	112,223
289,472	4,217	217,027	112,030
290,487	3,764	216,629	111,486
291,501	3,763	216,636	111,479
292,516	3,529	216,608	111,284
293,530	3,960	216,416	111,488
294,545	3,758	216,277	111,261
295,560	4,016	216,188	111,391
296,574	3,926	216,059	111,250
297,589	4,085	215,907	111,277
298,603	4,323	215,855	111,412
299,618	4,226	215,747	111,276
300,633	4,070	215,671	111,115
301,647	4,114	215,574	111,086
302,662	4,287	215,405	111,114
303,676	4,426	215,206	111,101
304,691	4,483	215,092	111,074
305,706	4,318	215,087	110,943
306,720	4,495	214,835	110,930
307,735	4,043	214,584	110,466
308,749	4,298	214,335	110,510
309,764	4,099	214,418	110,401
310,779	4,348	214,291	110,505
311,793	4,166	214,162	110,298
312,808	4,307	213,966	110,287
313,822	4,187	213,748	110,079
314,837	3,974	213,667	109,876
315,852	3,925	213,500	109,745
316,866	3,799	213,472	109,631
317,881	4,154	213,292	109,782
318,895	4,143	213,185	109,709
319,910	4,083	212,994	109,559
320,925	4,019	212,632	109,317
321,939	3,504	212,597	108,923
322,954	3,762	212,471	109,032
323,968	4,067	212,511	109,260
324,983	4,141	212,389	109,239
325,997	4,339	212,182	109,264
327,012	4,027	211,997	108,938
328,027	3,998	211,961	108,889
329,041	4,460	211,855	109,152
330,056	4,772	211,765	109,316
331,070	4,203	211,515	108,776
332,085	3,743	211,197	108,278
333,100	3,871	211,182	108,352
334,114	4,146	211,030	108,457
335,129	4,068	210,852	108,302
336,143	4,144	210,600	108,216
337,158	3,916	210,581	108,036
338,173	3,911	210,504	107,983
339,187	3,756	210,377	107,799
340,202	3,945	210,123	107,793
341,216	3,786	209,892	107,553
342,231	3,866	209,923	107,615
343,246	3,778	209,843	107,503
344,260	3,671	209,649	107,319
345,275	3,861	209,696	107,467
346,289	4,140	209,502	107,552
347,304	3,942	209,410	107,357
348,319	3,996	209,207	107,281
349,333	4,156	209,134	107,346
350,348	3,944	208,892	107,065
351,362	4,371	208,756	107,283
352,377	4,243	208,693	107,151
353,392	4,018	208,531	106,902
354,406	4,018	208,460	106,856
355,421	194,233	1343,906	1433,641
356,435	154,996	1482,353	1433,756
