DTS Sentinel unit serial number:	SN410029Multiplexer serial number:	ORYXHardware model number:	OX2-SRSoftware version number:	ORYX F/W v4,00 Oryx Data Collector v3.7.2.0data status	okinstallation	B6 Nyhavnadifferential loss correction	single-endedforward channel	channel 2reverse channel	N/Adate	2023/12/09time	04:35:08forward acquisition time	300,00reverse acquisition time	0,00gamma	499,1914k internal	0,3147k external	0,3147temperature offset calibration	1,0000default loss term (dB/km)	0,3820temperature slope calibration	1,0000multiplexer offset coefficient	1,0000multiplexer slope coefficient	1,0000fibre end	0,00T internal ref (°C)	17,16T ext. ref 1 (°C)	1,70T ext. ref 2 (°C)	1,73length (m)	temperature (°C)	Stokes	anti-Stokes-744,400	-124,392	0,098	0,011
-743,385	-68,983	-0,339	0,096
-742,371	119,710	0,060	0,055
-741,356	122,965	-0,203	0,188
-740,342	-178,917	0,133	0,002
-739,327	-151,859	-0,368	0,020
-738,312	-147,182	0,059	0,004
-737,298	-32,645	-0,307	-0,126
-736,283	-84,398	0,094	0,022
-735,269	-103,827	-0,331	-0,057
-734,254	10,965	0,091	0,051
-733,239	-66,938	-0,416	-0,121
-732,225	-32,985	0,315	0,129
-731,210	-200,000	0,003	0,078
-730,196	-99,801	-0,120	-0,022
-729,181	251,493	-0,098	-0,123
-728,167	-200,000	0,003	0,036
-727,152	77,151	0,093	0,073
-726,137	-69,677	-0,120	0,034
-725,123	113,725	-0,018	-0,016
-724,108	-61,029	-0,090	0,028
-723,094	-26,953	-0,068	0,029
-722,079	-90,847	-0,148	-0,031
-721,064	515,677	0,033	-0,057
-720,050	56,158	-0,050	0,036
-719,035	800,000	-0,026	0,057
-718,021	788,135	0,034	-0,070
-717,006	42,633	-0,159	-0,107
-715,991	-97,176	-0,097	0,018
-714,977	19,977	-0,031	0,018
-713,962	261,787	-0,087	-0,112
-712,948	44,623	-0,059	-0,040
-711,933	383,057	0,047	0,072
-710,918	-200,000	0,025	-0,132
-709,904	182,465	-0,048	0,052
-708,889	187,045	-0,070	-0,077
-707,875	543,473	-0,109	-0,193
-706,860	800,000	-0,029	0,069
-705,845	371,442	-0,102	0,153
-704,831	-34,513	-0,032	0,013
-703,816	-62,266	-0,118	0,036
-702,802	-7,919	-0,029	0,015
-701,787	205,345	-0,121	-0,139
-700,772	236,389	-0,115	-0,140
-699,758	73,411	0,077	-0,059
-698,743	-151,691	-0,053	-0,003
-697,729	311,464	-0,037	0,051
-696,714	-200,000	-0,001	0,109
-695,699	-101,103	0,070	-0,013
-694,685	-63,089	-0,079	0,024
-693,670	-200,000	0,001	-0,030
-692,656	-200,000	-0,007	-0,086
-691,641	72,360	0,034	-0,026
-690,627	-81,275	-0,080	-0,019
-689,612	800,000	0,010	-0,020
-688,597	-28,132	0,082	-0,035
-687,583	-94,513	-0,115	-0,023
-686,568	449,715	0,027	-0,044
-685,554	-116,082	-0,076	-0,010
-684,539	-99,968	0,105	-0,019
-683,524	-200,000	0,016	0,072
-682,510	118,875	-0,080	0,073
-681,495	-200,000	-0,007	0,045
-680,481	360,639	-0,035	-0,052
-679,466	-11,352	-0,093	0,045
-678,451	-81,303	0,040	-0,010
-677,437	105,915	-0,064	-0,056
-676,422	-113,265	-0,036	-0,005
-675,408	251,780	-0,045	0,056
-674,393	221,449	-0,071	0,085
-673,378	70,095	-0,178	-0,136
-672,364	-94,830	0,049	-0,010
-671,349	117,674	0,019	-0,017
-670,335	162,128	-0,054	-0,056
-669,320	619,274	-0,038	-0,071
-668,305	-200,000	0,033	0,162
-667,291	-12,062	-0,036	0,017
-666,276	454,366	-0,042	-0,069
-665,262	130,335	-0,119	0,113
-664,247	123,363	0,064	-0,059
-663,232	61,021	0,072	0,052
-662,218	31,473	-0,118	0,075
-661,203	165,634	0,098	0,103
-660,189	285,463	-0,050	0,067
-659,174	123,766	-0,070	-0,065
-658,159	24,174	0,079	0,048
-657,145	361,248	-0,072	-0,107
-656,130	2,347	0,120	0,064
-655,116	87,009	0,148	-0,120
-654,101	800,000	0,022	-0,046
-653,086	-74,576	0,141	0,037
-652,072	800,000	-0,025	0,057
-651,057	75,399	0,063	-0,049
-650,043	38,866	-0,085	0,056
-649,028	800,000	0,014	-0,030
-648,014	-200,000	-0,019	-0,111
-646,999	108,942	0,058	0,051
-645,984	800,000	0,015	-0,048
-644,970	490,697	-0,078	-0,131
-643,955	-21,376	0,039	-0,017
-642,941	800,000	-0,064	-0,168
-641,926	-200,000	0,004	-0,120
-640,911	0,393	-0,017	0,009
-639,897	262,221	0,061	0,078
-638,882	-200,000	-0,005	0,048
-637,868	800,000	-0,042	-0,113
-636,853	392,497	-0,075	-0,116
-635,838	-37,142	-0,051	0,020
-634,824	-112,773	-0,126	-0,018
-633,809	204,110	-0,068	-0,077
-632,795	-2,254	-0,032	-0,016
-631,780	171,366	-0,031	0,033
-630,765	800,000	0,020	0,056
-629,751	-51,547	-0,042	-0,015
-628,736	-200,000	-0,030	-0,174
-627,722	-200,000	0,018	-0,179
-626,707	-4,341	-0,046	0,023
-625,692	356,089	0,064	0,094
-624,678	-200,000	-0,016	0,061
-623,663	-79,786	0,124	0,031
-622,649	-93,447	-0,145	-0,029
-621,634	-66,072	-0,038	0,011
-620,619	800,000	0,023	0,061
-619,605	70,161	-0,206	-0,156
-618,590	-83,416	-0,099	-0,023
-617,576	212,519	-0,083	0,097
-616,561	-200,000	-0,004	-0,107
-615,546	-200,000	-0,003	-0,046
-614,532	-154,454	-0,076	0,004
-613,517	-200,000	0,018	0,095
-612,503	-94,331	-0,093	0,019
-611,488	163,880	-0,083	0,086
-610,474	561,608	0,040	0,072
-609,459	33,042	0,046	-0,029
-608,444	-200,000	0,007	-0,040
-607,430	71,749	0,064	0,049
-606,415	52,570	-0,066	-0,046
-605,401	426,888	0,027	0,043
-604,386	40,706	0,089	0,059
-603,371	800,000	0,030	0,064
-602,357	-200,000	0,005	-0,032
-601,342	-54,061	0,052	-0,017
-600,328	-200,000	0,023	-0,123
-599,313	-81,757	-0,110	-0,026
-598,298	203,357	0,088	0,100
-597,284	599,281	0,041	-0,075
-596,269	-67,899	0,064	-0,018
-595,255	-32,754	0,048	-0,020
-594,240	-127,729	0,053	-0,006
-593,225	800,000	-0,013	-0,037
-592,211	-200,000	0,029	0,104
-591,196	51,126	-0,154	-0,107
-590,182	-84,287	-0,019	-0,004
-589,167	-63,940	-0,058	0,017
-588,152	-70,259	0,098	-0,027
-587,138	-200,000	0,020	-0,084
-586,123	274,047	-0,096	-0,126
-585,109	-200,000	-0,018	-0,064
-584,094	-200,000	-0,016	-0,223
-583,079	-109,243	0,074	0,011
-582,065	41,130	-0,111	-0,074
-581,050	-200,000	0,025	-0,096
-580,036	800,000	-0,047	0,130
-579,021	469,745	0,030	-0,050
-578,006	800,000	-0,047	-0,107
-576,992	-6,488	0,049	0,024
-575,977	-30,257	0,087	-0,036
-574,963	372,000	0,072	-0,108
-573,948	-183,122	-0,160	-0,002
-572,934	163,987	-0,037	-0,038
-571,919	37,075	-0,130	-0,084
-570,904	-200,000	0,034	0,156
-569,890	-106,799	-0,058	0,009
-568,875	709,970	0,044	-0,087
-567,861	-120,658	0,016	-0,002
-566,846	-29,657	-0,194	0,081
-565,831	272,116	-0,025	-0,032
-564,817	-200,000	-0,013	-0,059
-563,802	-48,161	-0,053	-0,019
-562,788	-119,304	0,105	-0,013
-561,773	429,434	0,037	-0,059
-560,758	-81,745	0,025	-0,006
-559,744	131,032	0,175	0,165
-558,729	-44,120	-0,127	0,047
-557,715	554,948	0,073	0,130
-556,700	301,156	-0,108	-0,146
-555,685	-68,902	-0,153	-0,043
-554,671	32,177	0,036	-0,023
-553,656	800,000	0,021	0,051
-552,642	-91,029	-0,037	-0,008
-551,627	0,558	0,010	0,005
-550,612	421,143	0,101	-0,159
-549,598	112,280	-0,068	-0,061
-548,583	800,000	-0,037	-0,082
-547,569	-200,000	0,005	0,087
-546,554	-10,249	-0,018	0,009
-545,539	57,783	0,153	0,110
-544,525	-115,945	-0,082	-0,011
-543,510	-200,000	0,000	-0,045
-542,496	800,000	0,034	-0,084
-541,481	-200,000	-0,020	-0,107
-540,466	-16,168	-0,068	-0,031
-539,452	200,756	-0,045	-0,051
-538,437	-78,456	0,080	-0,020
-537,423	-61,970	0,092	-0,028
-536,408	800,000	-0,021	-0,048
-535,393	-103,502	-0,112	-0,019
-534,379	-108,983	-0,152	-0,024
-533,364	-98,272	-0,050	0,009
-532,350	-38,243	0,105	0,041
-531,335	-200,000	-0,021	0,090
-530,321	-200,000	-0,002	0,016
-529,306	-96,204	-0,153	-0,030
-528,291	-200,000	0,008	0,092
-527,277	136,465	-0,058	0,055
-526,262	-200,000	-0,028	-0,092
-525,248	-57,876	0,152	0,048
-524,233	-200,000	0,003	0,017
-523,218	800,000	-0,032	0,102
-522,204	-20,111	-0,202	0,091
-521,189	-1,745	-0,128	-0,066
-520,175	800,000	0,046	0,099
-519,160	800,000	0,050	0,112
-518,145	-88,193	-0,057	-0,012
-517,131	-200,000	0,009	-0,100
-516,116	800,000	-0,029	0,067
-515,102	-155,381	-0,046	-0,002
-514,087	-200,000	0,003	-0,136
-513,072	-200,000	0,038	-0,148
-512,058	244,860	0,026	0,032
-511,043	259,948	-0,042	0,053
-510,029	-57,806	-0,091	-0,029
-509,014	-138,385	0,062	-0,005
-507,999	184,168	-0,054	0,059
-506,985	-89,974	-0,118	0,025
-505,970	152,203	-0,065	0,065
-504,956	800,000	-0,027	0,084
-503,941	-110,496	0,127	-0,019
-502,926	800,000	-0,005	0,013
-501,912	-200,000	-0,007	0,032
-500,897	55,183	0,156	-0,111
-499,883	-200,000	-0,031	-0,150
-498,868	800,000	-0,095	-0,200
-497,853	-129,430	0,028	-0,003
-496,839	800,000	-0,019	-0,059
-495,824	-200,000	-0,001	-0,104
-494,810	5,928	-0,079	0,043
-493,795	24,480	-0,060	0,037
-492,781	800,000	0,012	0,028
-491,766	397,516	-0,039	-0,060
-490,751	397,741	-0,098	-0,151
-489,737	90,509	0,054	0,044
-488,722	328,890	0,029	0,041
-487,708	378,281	0,061	0,091
-486,693	-200,000	0,009	0,129
-485,678	183,016	-0,083	0,090
-484,664	146,008	-0,031	-0,031
-483,649	53,493	-0,065	0,046
-482,635	50,786	0,045	-0,031
-481,620	-200,000	0,000	0,050
-480,605	186,812	0,014	-0,015
-479,591	20,861	-0,052	-0,030
-478,576	-151,797	0,069	-0,004
-477,562	408,018	-0,069	-0,107
-476,547	32,740	0,071	-0,045
-475,532	800,000	-0,045	-0,093
-474,518	800,000	0,047	-0,106
-473,503	89,151	0,026	0,022
-472,489	-152,868	-0,111	0,006
-471,474	800,000	-0,080	0,174
-470,459	112,330	0,040	-0,035
-469,445	633,803	-0,032	-0,059
-468,430	-200,000	-0,016	0,094
-467,416	78,211	-0,086	-0,067
-466,401	-123,418	-0,031	0,004
-465,386	-169,057	0,062	-0,002
-464,372	-57,627	-0,075	-0,024
-463,357	800,000	-0,043	-0,130
-462,343	-200,000	0,036	-0,127
-461,328	-100,411	-0,096	-0,017
-460,313	293,663	-0,014	0,019
-459,299	95,075	0,162	0,135
-458,284	576,257	-0,019	0,033
-457,270	266,952	-0,103	0,131
-456,255	800,000	-0,054	-0,143
-455,241	-11,521	-0,151	0,072
-454,226	-200,000	-0,018	-0,069
-453,211	-106,105	0,075	-0,012
-452,197	800,000	-0,030	-0,077
-451,182	269,512	-0,039	0,050
-450,168	800,000	-0,049	-0,113
-449,153	35,772	0,047	-0,030
-448,138	800,000	0,015	0,039
-447,124	-66,218	0,019	0,005
-446,109	214,897	0,050	0,058
-445,095	-78,714	-0,079	-0,020
-444,080	-200,000	-0,014	0,047
-443,065	800,000	0,029	0,063
-442,051	259,534	-0,067	-0,084
-441,036	562,406	0,036	0,064
-440,022	25,129	0,005	0,003
-439,007	-38,639	-0,127	0,049
-437,992	0,247	-0,029	-0,015
-436,978	788,011	0,083	0,168
-435,963	800,000	0,023	-0,056
-434,949	192,872	0,148	-0,164
-433,934	411,493	-0,056	-0,088
-432,919	609,180	-0,095	-0,175
-431,905	30,267	-0,040	0,025
-430,890	-78,433	0,102	0,025
-429,876	539,298	-0,012	0,021
-428,861	-200,000	0,003	-0,037
-427,846	-50,118	0,024	-0,008
-426,832	429,557	-0,023	0,037
-425,817	53,400	-0,127	-0,089
-424,803	-84,042	0,084	0,019
-423,788	-21,546	0,035	0,016
-422,773	470,629	-0,072	0,118
-421,759	-200,000	0,012	0,151
-420,744	109,750	-0,025	-0,022
-419,730	-130,892	0,052	0,005
-418,715	221,407	0,029	0,034
-417,701	-200,000	0,005	0,088
-416,686	-200,000	0,003	-0,110
-415,671	11,593	0,079	-0,044
-414,657	-59,315	0,047	0,015
-413,642	158,998	0,047	0,048
-412,628	-200,000	-0,054	-0,206
-411,613	800,000	-0,028	-0,090
-410,598	-93,657	0,122	-0,024
-409,584	800,000	-0,006	0,017
-408,569	-135,148	-0,068	-0,006
-407,555	-200,000	-0,022	0,088
-406,540	438,896	0,047	-0,075
-405,525	-200,000	-0,001	-0,115
-404,511	-127,320	0,151	-0,016
-403,496	515,491	0,069	0,118
-402,482	800,000	0,056	0,174
-401,467	-101,668	0,074	-0,013
-400,452	-200,000	0,004	0,083
-399,438	195,034	0,048	0,053
-398,423	43,073	-0,133	-0,088
-397,409	-200,000	-0,016	-0,124
-396,394	4,419	0,079	-0,042
-395,379	-73,560	-0,079	-0,021
-394,365	355,100	0,091	0,133
-393,350	-67,483	-0,031	0,009
-392,336	73,897	-0,045	0,034
-391,321	153,658	-0,010	-0,010
-390,306	-53,751	0,126	-0,042
-389,292	-26,510	0,063	-0,027
-388,277	24,603	0,071	0,043
-387,263	341,376	0,051	0,073
-386,248	-159,935	0,109	0,004
-385,233	-98,794	0,109	0,020
-384,219	-68,866	0,101	-0,028
-383,204	21,344	0,022	0,013
-382,190	726,851	-0,052	-0,102
-381,175	-200,000	0,024	-0,096
-380,160	-20,880	0,044	0,020
-379,146	382,312	0,054	0,081
-378,131	47,576	-0,068	0,047
-377,117	-200,000	-0,017	0,174
-376,102	48,305	0,109	0,074
-375,088	800,000	-0,038	-0,118
-374,073	249,689	0,023	0,029
-373,058	160,727	-0,034	-0,035
-372,044	800,000	-0,085	-0,175
-371,029	526,499	0,015	0,025
-370,015	800,000	0,011	0,030
-369,000	95,071	0,088	0,073
-367,985	800,000	0,037	0,117
-366,971	111,710	0,041	0,036
-365,956	-60,025	0,021	0,007
-364,942	-162,941	0,146	-0,005
-363,927	229,222	-0,057	0,068
-362,912	122,927	0,085	0,078
-361,898	222,080	-0,068	-0,080
-360,883	-200,000	-0,001	0,010
-359,869	-66,647	0,087	-0,025
-358,854	-31,299	-0,046	0,019
-357,839	148,293	0,126	0,124
-356,825	67,326	0,118	0,088
-355,810	148,029	0,050	-0,049
-354,796	-200,000	-0,014	0,070
-353,781	207,224	-0,014	0,016
-352,766	-62,501	-0,069	0,021
-351,752	287,232	0,048	0,064
-350,737	-44,656	0,163	0,059
-349,723	-200,000	0,023	0,110
-348,708	-200,000	-0,004	0,095
-347,693	-112,564	0,109	-0,016
-346,679	133,781	-0,042	-0,039
-345,664	-43,567	0,059	0,022
-344,650	-23,366	-0,137	-0,060
-343,635	-16,053	-0,084	0,039
-342,620	-26,025	-0,067	-0,029
-341,606	-200,000	0,017	0,056
-340,591	800,000	0,024	0,059
-339,577	-54,249	0,048	0,016
-338,562	-16,627	-0,108	-0,049
-337,548	-128,543	-0,076	0,008
-336,533	25,132	-0,031	0,018
-335,518	-111,465	0,087	0,013
-334,504	25,617	0,063	-0,038
-333,489	-200,000	0,007	-0,076
-332,475	287,259	-0,065	-0,086
-331,460	-200,000	-0,006	-0,090
-330,445	512,741	0,039	0,066
-329,431	30,838	-0,073	-0,045
-328,416	9,774	0,059	0,032
-327,402	170,295	0,067	0,070
-326,387	606,000	0,011	0,020
-325,372	634,151	0,036	0,067
-324,358	-167,626	0,050	0,001
-323,343	-200,000	0,032	-0,166
-322,329	800,000	0,011	0,024
-321,314	-200,000	0,004	0,131
-320,299	-200,000	0,024	0,095
-319,285	-119,628	0,066	0,008
-318,270	-12,656	-0,082	-0,039
-317,256	-106,151	-0,057	-0,009
-316,241	284,250	0,033	0,043
-315,226	-200,000	0,006	-0,041
-314,212	313,980	0,029	0,040
-313,197	-200,000	-0,002	0,012
-312,183	-11,963	-0,053	0,025
-311,168	53,344	-0,094	-0,065
-310,153	2,257	0,098	0,051
-309,139	-54,164	-0,086	0,028
-308,124	-95,981	0,061	-0,012
-307,110	655,735	-0,050	0,094
-306,095	800,000	0,093	0,216
-305,080	242,601	-0,089	-0,108
-304,066	149,945	-0,065	-0,064
-303,051	8,715	-0,106	-0,058
-302,037	-200,000	-0,042	-0,171
-301,022	175,302	-0,041	0,043
-300,008	-151,459	0,096	0,005
-298,993	-66,082	0,050	-0,014
-297,978	50,574	-0,023	0,016
-296,964	549,592	0,045	0,080
-295,949	450,876	-0,088	0,141
-294,935	-152,064	0,042	-0,002
-293,920	49,623	-0,081	-0,055
-292,905	122,644	0,019	0,018
-291,891	441,597	-0,037	-0,058
-290,876	-200,000	-0,028	0,106
-289,862	23,301	0,110	-0,066
-288,847	-65,258	0,057	-0,017
-287,832	-146,432	0,087	0,005
-286,818	-6,288	0,011	-0,005
-285,803	58,295	-0,105	-0,075
-284,789	800,000	0,042	0,111
-283,774	-200,000	0,016	0,084
-282,759	82,535	0,040	0,032
-281,745	-165,765	-0,031	-0,001
-280,730	-200,000	-0,006	-0,090
-279,716	461,850	-0,045	-0,074
-278,701	4,716	-0,087	-0,046
-277,686	-200,000	0,024	0,095
-276,672	-125,056	0,059	0,007
-275,657	90,284	-0,060	-0,049
-274,643	-135,314	0,106	-0,009
-273,628	-200,000	-0,032	-0,163
-272,613	800,000	0,022	-0,065
-271,599	-175,033	0,045	0,001
-270,584	774,275	-0,006	0,012
-269,570	461,818	0,032	-0,052
-268,555	-33,202	0,052	-0,021
-267,540	216,016	0,009	-0,010
-266,526	151,334	0,043	0,043
-265,511	51,804	0,110	0,076
-264,497	24,086	-0,032	0,019
-263,482	-108,950	0,135	0,021
-262,467	-200,000	0,006	-0,025
-261,453	6,858	-0,043	-0,023
-260,438	143,874	-0,153	-0,148
-259,424	0,384	-0,080	-0,041
-258,409	539,587	-0,048	0,084
-257,395	-122,874	0,037	0,004
-256,380	-200,000	0,022	-0,150
-255,365	-200,000	-0,004	0,026
-254,351	-200,000	-0,001	-0,100
-253,336	216,748	0,028	-0,032
-252,322	-37,316	0,060	0,023
-251,307	-30,439	-0,061	-0,025
-250,292	81,615	0,032	0,025
-249,278	499,395	0,033	-0,056
-248,263	99,513	0,036	0,030
-247,249	-200,000	0,004	-0,024
-246,234	102,990	-0,033	-0,028
-245,219	19,637	-0,042	-0,024
-244,205	-200,000	0,007	-0,030
-243,190	-200,000	0,010	-0,056
-242,176	340,613	0,019	0,027
-241,161	-200,000	0,018	-0,062
-240,146	-58,892	-0,085	-0,026
-239,132	92,110	0,112	0,091
-238,117	-200,000	0,015	-0,067
-237,103	51,863	-0,155	0,107
-236,088	-107,962	-0,038	-0,006
-235,073	-200,000	0,025	0,092
-234,059	278,029	-0,055	0,071
-233,044	208,373	0,084	0,095
-232,030	-15,438	-0,181	0,083
-231,015	-86,050	0,204	-0,045
-230,000	66,634	0,056	0,041
-228,986	57,388	-0,021	0,015
-227,971	72,535	-0,130	0,098
-226,957	6,090	0,167	-0,089
-225,942	800,000	0,062	0,168
-224,927	273,902	0,035	-0,045
-223,913	264,684	0,093	0,118
-222,898	800,000	0,050	-0,158
-221,884	-200,000	0,004	-0,063
-220,869	-200,000	0,003	0,116
-219,855	14,028	-0,037	0,021
-218,840	-94,291	0,125	-0,025
-217,825	631,918	-0,024	-0,044
-216,811	163,538	-0,140	0,143
-215,796	800,000	-0,035	0,105
-214,782	-200,000	0,003	0,053
-213,767	142,096	0,116	0,112
-212,752	-12,181	0,106	0,050
-211,738	61,857	0,016	-0,012
-210,723	22,152	0,042	-0,025
-209,709	-150,563	-0,076	-0,004
-208,694	290,592	-0,031	-0,041
-207,679	-57,841	0,044	-0,014
-206,665	52,607	0,126	0,087
-205,650	-116,306	0,049	0,007
-204,636	-59,079	-0,113	0,035
-203,621	800,000	-0,049	0,144
-202,606	-25,524	-0,026	0,011
-201,592	-200,000	0,040	-0,224
-200,577	-51,615	-0,092	0,031
-199,563	-65,503	0,069	0,020
-198,548	204,386	0,102	0,114
-197,533	377,819	-0,040	0,060
-196,519	683,025	0,038	0,072
-195,504	80,635	0,040	0,031
-194,490	-142,214	-0,094	0,007
-193,475	-200,000	-0,004	-0,112
-192,460	800,000	0,021	0,046
-191,446	203,762	0,149	0,167
-190,431	-200,000	0,007	0,181
-189,417	-136,231	0,064	-0,005
-188,402	52,605	-0,042	0,029
-187,387	-200,000	-0,002	0,008
-186,373	800,000	0,064	0,179
-185,358	-88,379	-0,070	0,015
-184,344	372,944	-0,050	0,073
-183,329	15,581	0,144	0,082
-182,315	306,080	0,160	0,216
-181,300	142,442	0,043	0,041
-180,285	-193,906	0,015	0,000
-179,271	378,422	-0,068	-0,100
-178,256	-114,480	-0,036	0,005
-177,242	-117,384	0,090	0,012
-176,227	800,000	0,040	0,127
-175,212	-200,000	0,001	-0,034
-174,198	-4,444	-0,122	0,061
-173,183	-188,683	0,033	0,000
-172,169	258,482	-0,084	-0,105
-171,154	-200,000	0,004	0,118
-170,139	-200,000	0,001	-0,112
-169,125	-52,226	0,061	-0,020
-168,110	401,105	0,059	0,091
-167,096	-200,000	-0,009	0,080
-166,081	-72,650	0,130	0,034
-165,066	-133,825	-0,173	-0,015
-164,052	89,275	0,019	0,016
-163,037	800,000	-0,013	-0,041
-162,023	-200,000	-0,017	-0,067
-161,008	153,851	0,031	0,031
-159,993	-200,000	-0,013	-0,083
-158,979	800,000	0,028	0,078
-157,964	167,686	-0,127	-0,131
-156,950	-200,000	-0,018	-0,090
-155,935	-118,848	0,138	-0,017
-154,920	-200,000	0,002	0,039
-153,906	-200,000	-0,000	0,025
-152,891	62,039	-0,052	0,037
-151,877	-200,000	0,023	-0,142
-150,862	-200,000	-0,052	-0,238
-149,847	159,809	0,023	-0,023
-148,833	18,182	-0,045	0,026
-147,818	356,756	-0,030	0,044
-146,804	-200,000	-0,003	-0,028
-145,789	494,782	0,022	-0,037
-144,775	-200,000	-0,021	0,069
-143,760	-69,918	-0,191	-0,052
-142,745	194,438	0,039	-0,043
-141,731	103,928	0,025	0,021
-140,716	199,227	0,096	-0,106
-139,702	-200,000	0,010	0,169
-138,687	300,463	-0,023	-0,031
-137,672	-200,000	0,006	-0,030
-136,658	-85,722	0,048	0,011
-135,643	-200,000	-0,036	0,168
-134,629	-200,000	-0,006	0,102
-133,614	-200,000	0,010	0,063
-132,599	311,889	-0,052	0,070
-131,585	268,657	-0,089	0,113
-130,570	-200,000	0,010	0,036
-129,556	-75,775	-0,024	0,006
-128,541	4,669	-0,187	-0,099
-127,526	-200,000	0,000	-0,013
-126,512	-200,000	0,006	-0,073
-125,497	356,982	-0,026	0,038
-124,483	8,258	0,135	-0,073
-123,468	-69,326	-0,062	-0,017
-122,453	-84,436	-0,083	0,019
-121,439	67,760	0,072	-0,053
-120,424	239,431	0,108	-0,130
-119,410	88,031	-0,039	0,031
-118,395	12,995	0,140	-0,078
-117,380	289,859	-0,048	0,064
-116,366	-149,649	-0,156	0,009
-115,351	107,222	-0,092	-0,079
-114,337	30,415	-0,130	0,080
-113,322	-200,000	0,060	-0,198
-112,307	116,762	-0,168	-0,149
-111,293	70,253	-0,099	-0,074
-110,278	-62,845	0,040	0,012
-109,264	92,426	-0,156	0,126
-108,249	303,325	-0,085	-0,115
-107,234	-15,317	0,082	0,037
-106,220	6,319	-0,088	-0,047
-105,205	426,985	-0,043	-0,067
-104,191	-79,089	-0,054	-0,013
-103,176	548,405	0,051	0,088
-102,162	-25,760	-0,030	0,013
-101,147	24,653	-0,076	-0,045
-100,132	800,000	-0,045	-0,110
-99,118	800,000	0,055	-0,144
-98,103	800,000	-0,012	-0,026
-97,089	-108,737	-0,106	0,016
-96,074	46,882	-0,105	-0,070
-95,059	-200,000	0,019	-0,087
-94,045	-135,816	-0,186	-0,016
-93,030	-77,865	-0,095	0,024
-92,016	-200,000	0,004	-0,029
-91,001	800,000	-0,046	0,134
-89,986	-9,309	0,110	0,053
-88,972	354,144	0,057	0,081
-87,957	-161,163	-0,163	0,006
-86,943	301,153	-0,052	-0,069
-85,928	528,047	-0,055	-0,093
-84,913	208,711	0,084	-0,095
-83,899	-56,195	-0,133	0,042
-82,884	-11,274	0,055	-0,026
-81,870	-0,067	-0,186	0,095
-80,855	430,660	-0,029	-0,045
-79,840	-139,588	-0,126	-0,010
-78,826	56,438	-0,024	-0,017
-77,811	-200,000	0,021	-0,178
-76,797	-142,738	-0,064	-0,004
-75,782	-200,000	0,006	0,137
-74,767	16,123	0,067	0,038
-73,753	12,617	0,092	-0,051
-72,738	198,292	-0,144	-0,159
-71,724	56,446	0,072	-0,050
-70,709	800,000	-0,020	-0,055
-69,694	4,510	-0,057	-0,030
-68,680	-200,000	-0,005	-0,242
-67,665	-200,000	0,038	0,121
-66,651	-200,000	-0,003	-0,101
-65,636	49,393	0,197	-0,133
-64,622	-52,056	-0,070	-0,023
-63,607	2,608	-0,055	-0,028
-62,592	-50,245	-0,097	-0,033
-61,578	-137,276	0,160	0,013
-60,563	341,605	0,019	0,026
-59,549	349,928	-0,058	0,083
-58,534	-27,695	-1,759	-0,732
-57,519	-200,000	-0,303	-0,986
-56,505	-200,000	-1,162	-4,773
-55,490	-96,712	0,775	0,146
-54,476	800,000	5,369	12,203
-53,461	-200,000	16,779	273,843
-52,446	800,000	713,120	2203,720
-51,432	540,566	1626,495	2800,157
-50,417	115,460	1622,228	1427,498
-49,403	77,361	1283,415	982,145
-48,388	34,465	1030,599	646,593
-47,373	20,623	993,445	577,377
-46,359	19,481	981,908	566,878
-45,344	17,447	977,584	557,663
-44,330	17,637	976,299	557,530
-43,315	17,223	974,812	555,301
-42,300	17,239	973,386	554,519
-41,286	17,225	972,575	553,987
-40,271	17,226	971,613	553,421
-39,257	17,171	970,675	552,685
-38,242	17,156	970,111	552,293
-37,227	17,198	969,073	551,815
-36,213	17,150	968,354	551,228
-35,198	17,172	967,486	550,785
-34,184	17,237	966,547	550,439
-33,169	17,186	965,820	549,839
-32,154	17,256	964,870	549,503
-31,140	17,281	963,757	548,928
-30,125	17,211	963,419	548,487
-29,111	17,189	962,199	547,698
-28,096	17,195	961,668	547,394
-27,082	17,216	961,111	547,123
-26,067	17,227	960,134	546,583
-25,052	17,194	959,419	546,046
-24,038	17,172	958,696	545,544
-23,023	17,131	958,153	545,080
-22,009	17,199	957,551	544,936
-20,994	17,254	956,768	544,646
-19,979	17,212	956,168	544,147
-18,965	17,200	955,558	543,739
-17,950	17,147	954,904	543,176
-16,936	17,192	954,278	542,940
-15,921	17,141	953,488	542,306
-14,906	17,060	952,794	541,629
-13,892	17,053	952,199	541,249
-12,877	17,043	951,572	540,840
-11,863	16,958	951,032	540,237
-10,848	17,111	950,339	540,314
-9,833	17,209	949,765	540,279
-8,819	17,152	949,095	539,692
-7,804	17,126	948,555	539,283
-6,790	17,047	948,112	538,755
-5,775	17,126	947,419	538,594
-4,760	17,132	946,766	538,221
-3,746	17,098	946,167	537,749
-2,731	16,993	945,448	536,985
-1,717	16,969	944,657	536,437
-0,702	16,961	944,009	536,022
0,313	16,725	943,495	535,792
1,327	19,993	941,785	545,138
2,342	29,146	797,581	486,051
3,356	26,342	448,921	269,354
4,371	-2,918	295,628	148,075
5,386	-6,741	276,986	135,096
6,400	-8,026	271,367	131,148
7,415	-8,200	268,855	129,761
8,429	-8,540	267,574	128,819
9,444	-8,504	266,550	128,348
10,459	-8,669	266,035	127,938
11,473	-8,777	265,287	127,468
12,488	-8,948	264,878	127,105
13,502	-9,128	264,324	126,664
14,517	-9,113	263,773	126,402
15,531	-9,285	263,322	126,020
16,546	-9,259	263,055	125,904
17,561	-9,439	262,637	125,531
18,575	-9,300	262,291	125,479
19,590	-9,329	261,987	125,296
20,604	-9,231	261,682	125,228
21,619	-9,261	261,240	124,978
22,634	-9,316	260,796	124,706
23,648	-9,342	260,603	124,579
24,663	-9,652	260,372	124,180
25,677	-9,459	260,201	124,260
26,692	-9,517	259,920	124,063
27,707	-9,615	259,675	123,848
28,721	-9,345	259,183	123,842
29,736	-9,615	259,055	123,530
30,750	-9,508	258,802	123,493
31,765	-9,533	258,735	123,428
32,780	-9,391	258,320	123,344
33,794	-9,548	258,036	123,059
34,809	-9,438	257,827	123,046
35,823	-9,520	257,686	122,895
36,838	-9,697	257,331	122,559
37,853	-9,664	257,109	122,472
38,867	-9,710	256,820	122,282
39,882	-9,807	256,711	122,134
40,896	-9,683	256,587	122,174
41,911	-9,718	256,250	121,972
42,926	-9,684	255,991	121,867
43,940	-9,702	255,781	121,740
44,955	-9,805	255,468	121,490
45,969	-9,633	255,240	121,521
46,984	-9,937	254,926	121,096
47,999	-10,415	254,827	120,621
49,013	-10,396	254,420	120,435
50,028	-10,586	254,089	120,102
51,042	-10,360	253,948	120,221
52,057	-10,540	253,576	119,878
53,071	-10,537	253,668	119,913
54,086	-10,336	253,293	119,899
55,101	-10,242	253,155	119,904
56,115	-9,984	252,976	120,033
57,130	-9,328	252,905	120,555
58,144	-9,184	252,816	120,627
59,159	-9,107	252,587	120,573
60,174	-9,257	252,455	120,370
61,188	-9,353	252,229	120,169
62,203	-9,375	251,830	119,949
63,217	-9,435	251,743	119,845
64,232	-9,055	251,469	120,031
65,247	-9,200	251,419	119,871
66,261	-9,370	251,118	119,572
67,276	-9,730	250,808	119,104
68,290	-10,232	250,760	118,641
69,305	-10,019	250,420	118,651
70,320	-9,792	249,951	118,613
71,334	-9,749	250,066	118,694
72,349	-9,354	249,870	118,927
73,363	-9,220	249,657	118,929
74,378	-9,295	249,586	118,821
75,393	-9,383	249,434	118,663
76,407	-9,464	249,226	118,485
77,422	-9,443	248,755	118,268
78,436	-9,401	248,692	118,263
79,451	-9,299	248,499	118,248
80,466	-9,620	248,186	117,816
81,480	-9,732	247,972	117,610
82,495	-9,885	247,760	117,368
83,509	-9,739	247,458	117,338
84,524	-9,900	247,512	117,218
85,539	-10,017	247,113	116,920
86,553	-10,083	246,959	116,781
87,568	-9,827	246,680	116,854
88,582	-9,947	246,668	116,736
89,597	-9,977	246,371	116,561
90,611	-9,753	246,151	116,634
91,626	-9,333	246,162	116,981
92,641	-9,454	246,110	116,845
93,655	-9,702	245,797	116,478
94,670	-9,812	245,458	116,215
95,684	-9,752	245,362	116,209
96,699	-9,795	245,233	116,102
97,714	-9,941	245,008	115,863
98,728	-9,877	244,728	115,774
99,743	-9,870	244,313	115,573
100,757	-9,965	244,272	115,464
101,772	-10,050	244,230	115,364
102,787	-9,911	243,948	115,336
103,801	-9,719	243,750	115,391
104,816	-9,589	243,680	115,455
105,830	-9,570	243,559	115,404
106,845	-9,536	243,411	115,351
107,860	-9,531	243,122	115,208
108,874	-9,570	242,933	115,076
109,889	-9,658	242,809	114,934
110,903	-9,538	242,546	114,898
111,918	-9,419	242,292	114,866
112,933	-9,633	242,256	114,663
113,947	-9,691	242,049	114,506
114,962	-9,576	241,927	114,533
115,976	-9,580	241,725	114,424
116,991	-9,575	241,575	114,346
118,006	-9,432	241,305	114,326
119,020	-9,620	241,364	114,189
120,035	-9,449	241,226	114,254
121,049	-9,399	241,061	114,207
122,064	-9,454	240,762	114,010
123,079	-9,774	240,581	113,652
124,093	-9,767	240,234	113,484
125,108	-9,871	240,126	113,338
126,122	-10,206	239,855	112,927
127,137	-10,150	239,639	112,861
128,151	-10,110	239,511	112,823
129,166	-9,885	239,427	112,957
130,181	-9,840	239,115	112,836
131,195	-9,807	238,784	112,697
132,210	-9,737	238,791	112,747
133,224	-9,463	238,816	112,971
134,239	-9,366	238,589	112,932
135,254	-9,456	238,397	112,757
136,268	-9,677	238,174	112,463
137,283	-10,187	237,750	111,841
138,297	-10,146	237,738	111,859
139,312	-10,131	237,498	111,748
140,327	-9,786	237,541	112,037
141,341	-9,207	237,485	112,467
142,356	-9,165	237,318	112,412
143,370	-9,073	237,144	112,394
144,385	-8,896	236,899	112,409
145,400	-9,129	236,795	112,163
146,414	-9,036	236,564	112,118
147,429	-9,169	236,403	111,925
148,443	-9,124	236,130	111,822
149,458	-9,313	236,144	111,667
150,473	-9,267	236,059	111,654
151,487	-9,153	235,755	111,592
152,502	-9,294	235,673	111,430
153,516	-9,150	235,480	111,444
154,531	-9,084	235,073	111,294
155,546	-9,166	234,974	111,171
156,560	-9,447	234,982	110,941
157,575	-9,429	234,671	110,799
158,589	-9,221	234,553	110,899
159,604	-8,941	234,329	111,005
160,619	-9,014	234,093	110,826
161,633	-8,990	234,051	110,815
162,648	-9,032	233,901	110,701
163,662	-9,231	233,791	110,481
164,677	-9,194	233,491	110,359
165,692	-8,988	233,482	110,507
166,706	-9,037	233,336	110,390
167,721	-9,033	233,317	110,374
168,735	-8,834	233,005	110,374
169,750	-8,900	232,994	110,307
170,764	-9,109	232,677	109,983
171,779	-9,040	232,562	109,973
172,794	-8,999	232,465	109,949
173,808	-9,126	232,116	109,674
174,823	-9,882	231,945	108,991
175,837	-9,944	231,717	108,825
176,852	-9,418	231,688	109,214
177,867	-8,978	231,527	109,473
178,881	-9,061	231,550	109,409
179,896	-9,060	231,423	109,340
180,910	-9,018	231,248	109,281
181,925	-8,861	230,974	109,264
182,940	-8,751	230,792	109,254
183,954	-8,978	230,729	109,037
184,969	-9,012	230,596	108,938
185,983	-8,840	230,577	109,053
186,998	-8,801	230,304	108,945
188,013	-8,662	230,096	108,945
189,027	-8,608	230,003	108,934
190,042	-8,640	229,876	108,839
191,056	-8,707	229,591	108,642
192,071	-8,804	229,427	108,480
193,086	-8,411	229,190	108,661
194,100	-8,543	229,286	108,595
195,115	-8,315	229,072	108,661
196,129	-7,896	229,203	109,038
197,144	-3,784	230,539	112,860
198,159	0,446	231,625	116,676
199,173	3,127	232,330	119,112
200,188	3,669	232,412	119,565
201,202	3,528	232,276	119,375
202,217	3,588	232,118	119,330
203,232	3,851	232,079	119,503
204,246	3,900	231,953	119,466
205,261	4,058	231,737	119,467
206,275	4,070	231,673	119,432
207,290	4,089	231,637	119,418
208,304	4,241	231,242	119,321
209,319	4,081	231,128	119,128
210,334	3,724	231,058	118,805
211,348	3,651	230,762	118,586
212,363	3,434	230,513	118,280
213,377	3,269	230,267	118,015
214,392	3,191	229,952	117,784
215,407	3,417	229,979	117,961
216,421	3,422	229,945	117,937
217,436	3,215	229,740	117,662
218,450	2,958	229,627	117,397
219,465	3,024	229,275	117,257
220,480	3,106	229,099	117,219
221,494	3,245	229,066	117,298
222,509	3,431	228,895	117,342
223,523	3,466	228,685	117,251
224,538	3,148	228,576	116,942
225,553	3,185	228,424	116,882
226,567	3,502	228,281	117,041
227,582	3,361	228,323	116,944
228,596	3,692	228,127	117,085
229,611	3,394	227,993	116,779
230,626	2,923	227,765	116,293
231,640	3,173	227,592	116,384
232,655	3,339	227,595	116,502
233,669	3,913	227,447	116,853
234,684	3,916	227,374	116,806
235,699	3,608	227,212	116,480
236,713	3,589	226,806	116,246
237,728	3,446	226,596	116,020
238,742	3,151	226,515	115,745
239,757	3,296	226,324	115,747
240,772	3,239	226,185	115,622
241,786	3,113	226,017	115,431
242,801	3,496	225,980	115,691
243,815	3,394	226,095	115,663
244,830	3,337	225,886	115,502
245,844	3,469	225,471	115,379
246,859	3,204	225,308	115,086
247,874	3,576	225,301	115,351
248,888	3,312	225,290	115,138
249,903	3,342	224,982	114,993
250,917	3,125	224,806	114,729
251,932	3,319	224,664	114,792
252,947	3,181	224,479	114,584
253,961	3,127	224,363	114,474
254,976	3,182	224,228	114,436
255,990	3,486	224,215	114,647
257,005	3,397	223,902	114,409
258,020	3,484	223,965	114,497
259,034	3,795	223,764	114,616
260,049	3,365	223,620	114,212
261,063	3,538	223,476	114,256
262,078	3,648	223,291	114,234
263,093	3,696	223,199	114,212
264,107	3,744	222,936	114,103
265,122	3,699	222,867	114,024
266,136	3,712	222,940	114,061
267,151	3,902	222,631	114,033
268,166	3,332	222,368	113,467
269,180	3,216	222,078	113,223
270,195	2,957	222,083	113,023
271,209	3,132	221,952	113,075
272,224	3,310	221,804	113,122
273,239	3,410	221,710	113,138
274,253	3,201	221,553	112,893
275,268	2,966	221,162	112,511
276,282	3,204	221,061	112,625
277,297	2,887	221,025	112,363
278,312	3,109	220,825	112,414
279,326	3,561	220,714	112,680
280,341	3,414	220,619	112,514
281,355	3,352	220,522	112,409
282,370	3,078	220,335	112,102
283,384	3,230	220,124	112,096
284,399	3,134	219,973	111,939
285,414	2,925	219,810	111,694
286,428	3,310	219,812	111,966
287,443	3,259	219,804	111,914
288,457	3,223	219,514	111,731
289,472	3,335	219,251	111,669
290,487	2,628	219,169	111,101
291,501	2,845	218,957	111,142
292,516	2,881	218,973	111,166
293,530	2,732	218,839	110,980
294,545	2,741	218,645	110,879
295,560	3,154	218,491	111,091
296,574	3,167	218,410	111,048
297,589	3,135	218,312	110,966
298,603	3,234	218,169	110,955
299,618	3,399	217,931	110,943
300,633	3,484	217,844	110,951
301,647	3,527	217,780	110,940
302,662	3,618	217,641	110,925
303,676	3,679	217,533	110,904
304,691	3,181	217,422	110,478
305,706	3,935	217,121	110,859
306,720	3,586	216,956	110,513
307,735	3,570	216,708	110,365
308,749	2,984	216,717	109,938
309,764	3,442	216,680	110,240
310,779	3,584	216,577	110,280
311,793	3,288	216,297	109,914
312,808	3,483	216,289	110,040
313,822	3,203	216,145	109,756
314,837	3,095	215,926	109,558
315,852	2,918	215,793	109,354
316,866	3,023	215,773	109,409
317,881	3,384	215,500	109,519
318,895	3,057	215,326	109,187
319,910	3,098	215,253	109,170
320,925	3,249	215,167	109,224
321,939	2,814	214,930	108,784
322,954	3,141	214,743	108,913
323,968	3,160	214,713	108,901
324,983	3,194	214,760	108,940
325,997	3,214	214,623	108,875
327,012	3,284	214,346	108,775
328,027	3,208	214,283	108,678
329,041	3,736	214,014	108,907
330,056	3,644	213,954	108,802
331,070	3,190	213,708	108,345
332,085	2,987	213,474	108,073
333,100	3,097	213,371	108,089
334,114	3,425	213,407	108,329
335,129	3,498	213,223	108,278
336,143	3,383	213,023	108,086
337,158	3,165	213,022	107,922
338,173	3,353	212,620	107,841
339,187	3,091	212,623	107,648
340,202	2,861	212,489	107,409
341,216	2,940	212,204	107,312
342,231	2,789	212,194	107,190
343,246	3,016	212,015	107,250
344,260	2,722	212,010	107,031
345,275	3,313	211,783	107,322
346,289	3,387	211,726	107,335
347,304	3,313	211,574	107,197
348,319	3,392	211,305	107,106
349,333	3,242	211,298	106,988
350,348	3,125	211,285	106,890
351,362	3,535	211,009	107,027
352,377	3,427	210,983	106,929
353,392	3,210	210,820	106,685
354,406	3,444	210,636	106,746
355,421	195,203	1340,830	1422,554
356,435	155,889	1478,537	1422,567
