DTS Sentinel unit serial number:	SN410029Multiplexer serial number:	ORYXHardware model number:	OX2-SRSoftware version number:	ORYX F/W v4,00 Oryx Data Collector v3.7.2.0data status	okinstallation	B6 Nyhavnadifferential loss correction	single-endedforward channel	channel 2reverse channel	N/Adate	2023/12/08time	06:25:08forward acquisition time	300,00reverse acquisition time	0,00gamma	499,1914k internal	0,3165k external	0,3165temperature offset calibration	1,0000default loss term (dB/km)	0,3820temperature slope calibration	1,0000multiplexer offset coefficient	1,0000multiplexer slope coefficient	1,0000fibre end	0,00T internal ref (°C)	13,00T ext. ref 1 (°C)	-3,72T ext. ref 2 (°C)	-3,74length (m)	temperature (°C)	Stokes	anti-Stokes-744,400	-200,000	0,035	0,129
-743,385	-149,562	-0,212	-0,012
-742,371	54,572	0,096	0,068
-741,356	18,618	-0,273	-0,160
-740,342	-38,958	0,177	0,068
-739,327	-63,945	-0,219	-0,065
-738,312	43,797	0,075	-0,051
-737,298	-104,962	-0,205	-0,034
-736,283	112,025	0,081	-0,072
-735,269	-89,942	-0,322	0,069
-734,254	-93,555	0,147	0,030
-733,239	-66,309	-0,515	-0,150
-732,225	-99,536	0,216	-0,039
-731,210	76,949	0,046	0,036
-730,196	160,008	0,046	-0,047
-729,181	-200,000	0,002	-0,130
-728,167	-200,000	-0,018	-0,081
-727,152	575,991	0,033	-0,059
-726,137	-140,163	-0,140	-0,011
-725,123	434,838	-0,069	-0,111
-724,108	63,383	-0,076	-0,056
-723,094	-55,761	-0,126	-0,041
-722,079	484,745	-0,055	-0,092
-721,064	-4,379	0,019	0,010
-720,050	90,736	0,074	0,061
-719,035	-57,872	-0,088	0,028
-718,021	302,925	-0,055	0,075
-717,006	800,000	-0,009	-0,022
-715,991	-71,132	-0,103	-0,028
-714,977	219,549	-0,069	-0,081
-713,962	45,396	0,026	-0,018
-712,948	800,000	-0,030	0,078
-711,933	262,527	-0,039	0,050
-710,918	800,000	0,021	-0,047
-709,904	52,828	-0,114	-0,080
-708,889	33,357	-0,051	-0,032
-707,875	414,502	-0,072	-0,113
-706,860	167,255	0,103	0,107
-705,845	-103,264	0,070	-0,012
-704,831	695,754	-0,055	0,106
-703,816	-136,934	-0,103	0,009
-702,802	800,000	-0,055	-0,124
-701,787	-53,823	-0,156	-0,052
-700,772	-200,000	0,018	-0,107
-699,758	800,000	-0,033	-0,085
-698,743	800,000	0,050	0,115
-697,729	-200,000	0,005	0,068
-696,714	291,598	-0,052	-0,069
-695,699	-156,117	-0,126	0,006
-694,685	800,000	-0,028	-0,059
-693,670	800,000	-0,039	-0,101
-692,656	109,897	0,063	-0,055
-691,641	800,000	0,009	-0,022
-690,627	47,353	-0,072	0,049
-689,612	-4,057	0,059	-0,030
-688,597	800,000	-0,054	-0,128
-687,583	-66,607	-0,049	0,014
-686,568	-200,000	0,020	-0,111
-685,554	199,925	-0,074	-0,084
-684,539	-157,947	0,100	-0,004
-683,524	164,127	-0,021	-0,022
-682,510	224,212	0,113	0,135
-681,495	-116,313	0,053	0,007
-680,481	7,133	-0,094	0,051
-679,466	-57,140	-0,064	-0,021
-678,451	-55,593	0,054	0,018
-677,437	68,476	0,102	0,077
-676,422	211,342	-0,079	0,092
-675,408	-94,014	-0,101	0,020
-674,393	800,000	0,041	0,126
-673,378	-200,000	-0,264	-0,001
-672,364	-200,000	0,003	-0,130
-671,349	415,322	0,089	0,140
-670,335	800,000	-0,050	0,133
-669,320	100,775	0,053	0,045
-668,305	27,269	0,069	-0,043
-667,291	-200,000	0,009	-0,031
-666,276	800,000	0,031	-0,075
-665,262	21,702	-0,147	-0,088
-664,247	8,132	-0,054	0,030
-663,232	180,775	-0,024	0,026
-662,218	-200,000	-0,015	-0,075
-661,203	93,837	-0,062	-0,051
-660,189	-200,000	-0,002	0,027
-659,174	-104,754	0,093	-0,016
-658,159	314,853	-0,048	0,067
-657,145	52,431	0,031	-0,022
-656,130	-60,385	-0,087	0,027
-655,116	-28,093	0,117	0,049
-654,101	-200,000	0,020	0,173
-653,086	4,799	-0,065	-0,035
-652,072	-81,164	-0,075	0,018
-651,057	437,416	0,071	-0,113
-650,043	402,993	-0,035	-0,054
-649,028	-75,625	0,020	-0,005
-648,014	682,264	0,029	-0,056
-646,999	-200,000	0,047	0,155
-645,984	-164,701	-0,191	-0,006
-644,970	-200,000	-0,106	0,000
-643,955	-200,000	0,013	-0,085
-642,941	-33,916	-0,178	-0,071
-641,926	-36,437	-0,085	-0,033
-640,911	-200,000	-0,011	0,060
-639,897	-47,758	-0,143	0,050
-638,882	-200,000	-0,015	0,146
-637,868	340,781	-0,064	0,092
-636,853	800,000	0,024	0,060
-635,838	-40,203	-0,123	0,047
-634,824	-2,829	-0,087	0,045
-633,809	800,000	0,060	-0,171
-632,795	-73,412	0,030	-0,008
-631,780	-200,000	-0,010	-0,076
-630,765	-3,728	0,050	0,026
-629,751	-200,000	0,019	-0,108
-628,736	710,310	-0,082	-0,161
-627,722	6,340	-0,168	0,091
-626,707	-139,099	0,104	0,008
-625,692	-136,890	-0,075	0,006
-624,678	800,000	-0,022	-0,064
-623,663	-200,000	-0,001	-0,009
-622,649	61,649	0,063	-0,046
-621,634	-200,000	-0,009	-0,158
-620,619	34,003	0,032	-0,020
-619,605	-200,000	0,029	0,120
-618,590	-103,985	0,049	0,008
-617,576	670,066	0,002	-0,004
-616,561	262,525	-0,125	-0,159
-615,546	-65,058	0,087	-0,026
-614,532	-98,766	-0,159	0,029
-613,517	158,754	-0,039	-0,040
-612,503	263,524	0,042	-0,054
-611,488	193,920	-0,068	-0,076
-610,474	24,317	0,060	-0,036
-609,459	800,000	-0,016	-0,046
-608,444	-19,073	-0,091	-0,041
-607,430	-200,000	-0,012	-0,148
-606,415	-47,205	-0,054	0,019
-605,401	800,000	-0,014	0,035
-604,386	-116,165	0,041	-0,005
-603,371	-35,583	0,111	0,044
-602,357	149,807	0,085	-0,085
-601,342	-200,000	0,002	0,109
-600,328	-36,689	-0,112	-0,044
-599,313	133,236	0,082	-0,077
-598,298	-86,205	-0,071	-0,016
-597,284	91,260	-0,106	0,087
-596,269	-200,000	-0,002	-0,095
-595,255	-105,834	-0,027	0,004
-594,240	-40,141	-0,130	-0,049
-593,225	-84,526	-0,118	-0,027
-592,211	24,534	-0,067	-0,040
-591,196	-200,000	-0,025	-0,086
-590,182	-37,872	0,103	-0,040
-589,167	235,984	-0,068	0,083
-588,152	-60,379	0,113	0,035
-587,138	368,993	-0,018	0,027
-586,123	253,059	-0,035	0,044
-585,109	-200,000	-0,018	0,116
-584,094	79,880	0,093	0,073
-583,079	-200,000	-0,064	0,272
-582,065	-23,611	0,086	-0,038
-581,050	159,955	-0,098	0,100
-580,036	-200,000	0,031	-0,135
-579,021	-160,063	-0,062	0,002
-578,006	-154,390	-0,114	-0,005
-576,992	43,299	0,075	0,050
-575,977	111,142	0,097	0,085
-574,963	34,601	-0,137	-0,087
-573,948	731,828	-0,017	0,033
-572,934	239,314	-0,076	0,092
-571,919	-200,000	0,024	0,099
-570,904	79,811	0,039	0,030
-569,890	222,343	0,032	-0,038
-568,875	265,285	0,014	-0,018
-567,861	-50,937	-0,072	0,025
-566,846	-20,719	0,079	0,035
-565,831	-136,057	0,064	0,005
-564,817	66,745	-0,082	-0,061
-563,802	-200,000	0,016	-0,071
-562,788	800,000	-0,011	0,032
-561,773	184,137	-0,097	-0,105
-560,758	-23,697	0,169	-0,074
-559,744	19,636	-0,107	0,063
-558,729	496,162	-0,050	-0,084
-557,715	-186,132	-0,164	-0,002
-556,700	800,000	0,009	0,018
-555,685	531,220	-0,112	-0,194
-554,671	-200,000	-0,024	-0,130
-553,656	374,460	0,040	-0,059
-552,642	-26,818	0,150	0,064
-551,627	-7,755	-0,097	0,048
-550,612	42,725	0,023	0,015
-549,598	129,959	-0,046	-0,043
-548,583	-200,000	0,018	-0,182
-547,569	-200,000	-0,033	-0,115
-546,554	-122,404	0,100	0,012
-545,539	-200,000	0,006	0,133
-544,525	800,000	0,015	0,038
-543,510	800,000	0,044	-0,096
-542,496	-150,376	0,030	-0,002
-541,481	800,000	0,010	-0,033
-540,466	800,000	-0,062	0,144
-539,452	800,000	-0,023	0,070
-538,437	439,223	0,029	-0,046
-537,423	741,052	0,067	-0,132
-536,408	-50,877	-0,087	0,030
-535,393	741,871	-0,044	-0,086
-534,379	198,990	-0,121	-0,135
-533,364	206,174	-0,044	0,050
-532,350	-200,000	0,027	-0,097
-531,335	337,756	0,049	0,070
-530,321	-50,553	-0,088	-0,030
-529,306	-44,794	-0,101	-0,037
-528,291	-41,849	-0,137	-0,051
-527,277	-200,000	0,001	-0,023
-526,262	-51,019	0,055	-0,019
-525,248	800,000	0,011	0,029
-524,233	-49,823	0,146	0,050
-523,218	157,597	-0,085	0,086
-522,204	-157,930	0,052	-0,002
-521,189	-200,000	0,005	0,060
-520,175	169,869	-0,053	0,056
-519,160	-1,355	-0,052	0,027
-518,145	-117,327	0,110	-0,014
-517,131	-17,667	-0,082	-0,037
-516,116	-147,672	0,031	-0,002
-515,102	530,565	-0,046	-0,080
-514,087	66,568	-0,061	-0,046
-513,072	800,000	-0,033	0,070
-512,058	325,617	-0,104	-0,146
-511,043	-32,442	0,043	-0,017
-510,029	-135,521	0,119	0,010
-509,014	-33,959	0,023	0,009
-507,999	113,644	-0,029	0,026
-506,985	-66,490	-0,114	-0,033
-505,970	-80,955	0,047	-0,011
-504,956	800,000	-0,032	0,080
-503,941	-200,000	-0,010	0,040
-502,926	210,750	0,084	0,096
-501,912	-143,175	-0,009	0,001
-500,897	800,000	0,051	-0,162
-499,883	800,000	-0,021	-0,043
-498,868	-82,060	-0,064	0,015
-497,853	6,133	0,182	0,098
-496,839	-35,856	-0,196	-0,077
-495,824	-200,000	0,035	0,149
-494,810	137,531	0,069	0,066
-493,795	514,878	0,067	0,114
-492,781	7,242	-0,043	0,023
-491,766	-200,000	0,001	0,109
-490,751	-200,000	0,034	0,135
-489,737	718,335	0,044	0,085
-488,722	92,301	-0,016	-0,013
-487,708	199,882	-0,063	-0,070
-486,693	800,000	-0,046	0,130
-485,678	530,539	-0,045	0,077
-484,664	410,179	-0,085	-0,132
-483,649	-200,000	-0,029	-0,132
-482,635	302,608	0,021	-0,029
-481,620	625,141	-0,031	-0,057
-480,605	40,807	0,129	0,085
-479,591	260,460	0,047	0,059
-478,576	104,384	-0,105	0,090
-477,562	134,307	-0,048	0,045
-476,547	-200,000	-0,022	-0,133
-475,532	538,115	-0,087	-0,152
-474,518	589,475	0,017	0,031
-473,503	0,328	-0,039	0,020
-472,489	-33,797	-0,156	0,062
-471,474	-63,422	-0,089	-0,026
-470,459	-161,495	-0,124	0,005
-469,445	152,440	-0,069	0,068
-468,430	-170,489	-0,016	-0,000
-467,416	337,158	-0,045	0,064
-466,401	59,666	0,118	0,085
-465,386	-84,869	0,166	0,038
-464,372	-59,094	0,072	-0,022
-463,357	-200,000	-0,009	-0,120
-462,343	-200,000	-0,018	-0,064
-461,328	50,841	0,101	-0,069
-460,313	800,000	0,058	0,133
-459,299	-18,039	-0,084	0,038
-458,284	656,379	-0,038	0,072
-457,270	-153,385	0,055	0,003
-456,255	-200,000	-0,009	-0,051
-455,241	239,128	-0,073	-0,088
-454,226	81,255	-0,074	-0,058
-453,211	284,868	0,019	-0,024
-452,197	-200,000	0,001	0,027
-451,182	-64,646	-0,103	0,030
-450,168	-200,000	-0,040	-0,159
-449,153	37,227	-0,111	-0,072
-448,138	-16,526	-0,075	-0,035
-447,124	-200,000	0,035	-0,123
-446,109	-200,000	0,015	-0,111
-445,095	-1,355	0,071	-0,036
-444,080	800,000	-0,019	-0,051
-443,065	800,000	-0,029	0,089
-442,051	563,427	-0,068	-0,120
-441,036	-51,786	-0,069	-0,023
-440,022	347,936	-0,047	0,068
-439,007	-145,197	0,056	-0,004
-437,992	577,611	0,018	-0,032
-436,978	345,708	0,059	0,085
-435,963	800,000	-0,049	0,137
-434,949	-200,000	-0,004	0,029
-433,934	63,144	0,095	-0,069
-432,919	796,366	-0,056	-0,112
-431,905	-137,512	0,065	-0,005
-430,890	-133,482	0,028	-0,003
-429,876	-200,000	-0,001	-0,071
-428,861	148,630	-0,108	-0,106
-427,846	800,000	0,027	-0,071
-426,832	-69,306	-0,008	-0,002
-425,817	-200,000	0,019	-0,145
-424,803	-103,795	-0,096	-0,016
-423,788	-200,000	-0,015	-0,101
-422,773	-200,000	0,019	0,112
-421,759	-144,559	0,058	0,004
-420,744	-200,000	-0,019	-0,095
-419,730	-200,000	-0,007	-0,119
-418,715	-39,130	0,059	-0,023
-417,701	-184,323	0,082	-0,001
-416,686	-126,690	0,120	0,013
-415,671	800,000	0,031	-0,063
-414,657	41,119	-0,088	-0,058
-413,642	164,705	0,100	0,102
-412,628	800,000	-0,039	-0,084
-411,613	713,716	-0,017	0,034
-410,598	-60,352	-0,102	-0,031
-409,584	66,951	0,069	0,051
-408,569	-200,000	0,003	0,080
-407,555	28,385	0,035	-0,022
-406,540	355,062	0,075	-0,108
-405,525	210,203	-0,143	-0,163
-404,511	-200,000	0,025	-0,192
-403,496	-158,914	-0,115	0,005
-402,482	800,000	0,027	-0,060
-401,467	-76,492	-0,163	0,041
-400,452	425,460	0,088	0,138
-399,438	181,433	0,041	0,044
-398,423	-200,000	0,005	-0,033
-397,409	90,404	-0,108	-0,088
-396,394	0,483	0,132	-0,068
-395,379	-37,304	-0,061	0,023
-394,365	-82,421	0,142	-0,033
-393,350	216,736	0,046	0,053
-392,336	345,648	-0,053	0,076
-391,321	-144,852	0,015	0,001
-390,306	-200,000	-0,011	-0,144
-389,292	131,418	-0,108	-0,100
-388,277	84,554	-0,058	0,046
-387,263	-116,158	0,198	-0,026
-386,248	205,318	0,093	-0,105
-385,233	-145,351	0,079	0,005
-384,219	92,526	-0,185	0,151
-383,204	413,222	-0,062	0,096
-382,190	703,725	0,065	0,126
-381,175	-200,000	0,005	0,084
-380,160	800,000	-0,015	-0,042
-379,146	-172,876	0,026	0,001
-378,131	343,401	0,073	-0,103
-377,117	-104,551	-0,066	-0,011
-376,102	518,680	-0,062	0,106
-375,088	800,000	0,043	-0,121
-374,073	-3,382	0,041	0,020
-373,058	800,000	-0,023	0,065
-372,044	376,812	0,026	0,038
-371,029	800,000	-0,034	0,079
-370,015	-160,201	0,021	0,001
-369,000	-200,000	0,035	-0,112
-367,985	161,771	-0,071	-0,072
-366,971	71,905	0,034	0,026
-365,956	-200,000	-0,003	-0,098
-364,942	63,951	0,094	0,068
-363,927	48,515	-0,065	0,044
-362,912	800,000	-0,040	0,109
-361,898	566,753	-0,043	-0,076
-360,883	-0,021	0,077	-0,040
-359,869	-200,000	-0,012	0,039
-358,854	800,000	0,063	0,156
-357,839	-84,196	0,026	0,006
-356,825	-189,637	0,197	-0,002
-355,810	220,657	-0,044	-0,052
-354,796	-71,056	-0,149	0,040
-353,781	-104,784	-0,175	0,029
-352,766	-200,000	-0,007	-0,112
-351,752	800,000	0,013	-0,030
-350,737	-200,000	0,025	0,093
-349,723	-122,934	0,161	-0,019
-348,708	-41,323	-0,073	0,027
-347,693	-48,186	0,186	0,065
-346,679	187,601	-0,035	-0,038
-345,664	-7,811	-0,048	-0,023
-344,650	-116,909	-0,106	0,014
-343,635	301,429	0,110	0,148
-342,620	40,835	0,029	-0,019
-341,606	568,370	-0,029	0,051
-340,591	-200,000	0,008	0,034
-339,577	160,452	-0,063	0,064
-338,562	732,931	-0,049	-0,095
-337,548	129,266	0,022	0,020
-336,533	262,274	0,054	-0,068
-335,518	800,000	0,050	-0,121
-334,504	-200,000	-0,019	-0,062
-333,489	-84,458	0,132	0,030
-332,475	30,820	0,070	-0,043
-331,460	-200,000	-0,037	-0,121
-330,445	-6,033	-0,067	0,033
-329,431	22,861	0,085	0,050
-328,416	-87,411	0,067	0,015
-327,402	-36,469	0,046	-0,018
-326,387	-200,000	-0,024	0,152
-325,372	108,260	0,038	-0,033
-324,358	-200,000	0,029	-0,170
-323,343	800,000	-0,045	-0,120
-322,329	-111,106	0,062	-0,009
-321,314	-11,909	-0,054	-0,025
-320,299	455,049	-0,014	0,023
-319,285	-30,598	0,080	0,033
-318,270	-72,893	-0,082	0,022
-317,256	56,320	0,023	0,016
-316,241	-40,678	-0,109	0,041
-315,226	800,000	0,047	0,101
-314,212	100,519	0,054	-0,045
-313,197	293,688	-0,072	-0,096
-312,183	-72,838	0,071	-0,019
-311,168	800,000	0,039	-0,104
-310,153	110,405	-0,120	-0,105
-309,139	800,000	0,014	-0,043
-308,124	-200,000	0,001	-0,099
-307,110	65,883	0,090	0,066
-306,095	156,459	-0,069	0,069
-305,080	-200,000	-0,035	0,177
-304,066	-189,871	-0,146	-0,001
-303,051	-49,708	-0,064	-0,022
-302,037	-165,805	0,105	-0,003
-301,022	-200,000	0,017	0,087
-300,008	-200,000	-0,010	0,243
-298,993	800,000	-0,042	0,088
-297,978	-200,000	0,004	0,023
-296,964	427,305	-0,091	0,143
-295,949	156,772	-0,033	-0,033
-294,935	800,000	0,032	0,070
-293,920	92,967	0,044	0,036
-292,905	-100,793	-0,097	-0,017
-291,891	381,990	0,092	0,137
-290,876	182,665	0,117	0,125
-289,862	-66,972	0,061	0,017
-288,847	-107,160	0,016	-0,003
-287,832	-152,551	0,081	0,004
-286,818	800,000	-0,012	-0,027
-285,803	44,319	0,090	-0,060
-284,789	548,747	-0,058	-0,102
-283,774	-200,000	0,002	0,028
-282,759	-178,574	-0,149	-0,002
-281,745	-176,158	-0,045	-0,001
-280,730	800,000	-0,014	0,041
-279,716	110,670	-0,084	-0,073
-278,701	-12,063	0,120	0,056
-277,686	-200,000	0,013	0,173
-276,672	-132,408	-0,119	-0,011
-275,657	370,838	0,066	-0,097
-274,643	-33,449	-0,033	-0,013
-273,628	161,789	-0,162	-0,164
-272,613	-26,782	0,098	0,041
-271,599	-73,911	0,077	-0,020
-270,584	-46,805	0,068	0,024
-269,570	430,680	-0,033	0,053
-268,555	-200,000	0,024	-0,119
-267,540	-137,099	0,086	-0,007
-266,526	-168,756	0,054	-0,001
-265,511	-200,000	0,011	0,095
-264,497	-200,000	0,015	0,097
-263,482	-141,069	0,068	-0,005
-262,467	108,260	0,068	-0,058
-261,453	-90,283	0,094	0,019
-260,438	186,412	0,055	-0,060
-259,424	-200,000	-0,025	-0,107
-258,409	-120,113	0,085	0,010
-257,395	-9,637	0,014	-0,007
-256,380	96,740	-0,047	-0,039
-255,365	-58,322	0,187	0,058
-254,351	-68,859	-0,058	0,016
-253,336	334,444	0,024	-0,034
-252,322	-189,957	-0,076	0,001
-251,307	151,288	-0,107	-0,105
-250,292	-200,000	0,002	0,026
-249,278	169,367	0,064	0,066
-248,263	-200,000	-0,004	0,051
-247,249	-200,000	0,028	-0,106
-246,234	129,047	-0,049	-0,045
-245,219	289,665	0,061	-0,080
-244,205	800,000	0,048	0,118
-243,190	800,000	0,047	0,137
-242,176	487,442	-0,014	-0,023
-241,161	338,860	0,049	0,069
-240,146	-36,206	0,069	0,027
-239,132	-200,000	-0,013	-0,077
-238,117	166,909	0,062	0,063
-237,103	-170,159	-0,161	0,004
-236,088	165,108	0,060	-0,061
-235,073	583,606	0,090	0,160
-234,059	800,000	-0,031	0,089
-233,044	0,377	0,227	0,117
-232,030	406,477	-0,096	-0,147
-231,015	-132,953	-0,034	0,003
-230,000	800,000	-0,021	-0,042
-228,986	-200,000	0,014	-0,099
-227,971	-200,000	0,001	0,060
-226,957	452,809	-0,049	0,079
-225,942	-130,586	0,195	-0,019
-224,927	-200,000	0,019	0,099
-223,913	26,480	-0,133	-0,080
-222,898	800,000	0,029	-0,079
-221,884	-116,984	-0,051	-0,007
-220,869	-200,000	0,012	-0,047
-219,855	-10,250	0,118	0,056
-218,840	-200,000	-0,024	0,143
-217,825	-200,000	-0,008	0,036
-216,811	-153,804	0,201	0,010
-215,796	-161,006	0,161	-0,006
-214,782	800,000	-0,034	0,083
-213,767	-200,000	0,015	0,078
-212,752	800,000	0,017	-0,048
-211,738	68,841	0,146	0,108
-210,723	-200,000	-0,027	0,133
-209,709	-59,161	-0,183	0,056
-208,694	-200,000	-0,038	-0,129
-207,679	1,147	-0,137	0,071
-206,665	-200,000	-0,030	-0,121
-205,650	-44,293	0,028	0,010
-204,636	321,523	0,041	-0,056
-203,621	800,000	0,039	-0,112
-202,606	-200,000	0,002	0,058
-201,592	-73,328	-0,115	0,030
-200,577	-114,623	0,032	-0,004
-199,563	800,000	-0,018	-0,047
-198,548	627,195	0,094	0,171
-197,533	135,704	0,097	0,091
-196,519	387,910	0,021	-0,031
-195,504	-45,058	-0,073	0,026
-194,490	38,274	-0,112	0,072
-193,475	547,601	0,022	-0,039
-192,460	-35,181	0,076	-0,030
-191,446	43,451	0,099	-0,065
-190,431	-97,880	0,157	0,029
-189,417	114,594	0,020	0,017
-188,402	462,048	0,040	-0,064
-187,387	59,722	0,019	0,013
-186,373	-200,000	0,011	-0,049
-185,358	-200,000	0,030	-0,114
-184,344	-200,000	-0,003	0,092
-183,329	-60,402	0,157	-0,048
-182,315	-139,757	0,046	0,003
-181,300	-103,280	0,036	-0,006
-180,285	60,615	-0,042	0,030
-179,271	-11,376	-0,140	-0,066
-178,256	-16,018	-0,003	0,001
-177,242	-129,119	0,089	-0,009
-176,227	386,521	0,102	0,152
-175,212	-14,578	0,108	0,050
-174,198	-200,000	0,007	0,030
-173,183	-130,411	-0,129	-0,012
-172,169	-200,000	0,000	-0,117
-171,154	49,584	-0,050	0,034
-170,139	317,839	-0,041	-0,056
-169,125	-69,769	0,114	0,031
-168,110	800,000	0,046	0,122
-167,096	-172,422	0,099	0,002
-166,081	102,332	-0,048	0,041
-165,066	249,269	-0,055	0,067
-164,052	-200,000	0,024	0,107
-163,037	-83,381	0,149	0,034
-162,023	-28,855	0,033	0,013
-161,008	-30,029	0,145	0,059
-159,993	146,895	0,150	0,145
-158,979	800,000	-0,069	0,141
-157,964	800,000	0,040	0,117
-156,950	-79,178	-0,032	-0,008
-155,935	-86,149	0,150	-0,033
-154,920	-161,587	-0,094	0,003
-153,906	339,360	0,020	0,027
-152,891	366,754	0,061	0,088
-151,877	-200,000	-0,137	0,000
-150,862	36,784	-0,037	0,023
-149,847	-13,673	0,136	-0,063
-148,833	86,413	0,122	-0,097
-147,818	4,234	-0,071	-0,037
-146,804	420,072	0,057	0,088
-145,789	-84,640	-0,128	-0,029
-144,775	800,000	0,024	-0,055
-143,760	-200,000	0,003	0,061
-142,745	800,000	-0,059	-0,119
-141,731	155,565	0,040	0,040
-140,716	52,860	-0,075	-0,051
-139,702	-200,000	0,024	-0,124
-138,687	-200,000	0,006	0,046
-137,672	-143,755	-0,066	-0,004
-136,658	-63,038	-0,107	0,031
-135,643	-99,156	0,087	-0,016
-134,629	-116,518	0,020	-0,003
-133,614	326,492	0,069	-0,095
-132,599	-200,000	0,001	0,112
-131,585	46,089	0,066	0,044
-130,570	-141,513	-0,173	-0,012
-129,556	172,242	-0,083	-0,086
-128,541	-85,389	-0,091	-0,020
-127,526	-200,000	-0,018	0,088
-126,512	-200,000	-0,004	-0,068
-125,497	116,946	0,092	-0,081
-124,483	-17,661	-0,126	0,056
-123,468	87,867	-0,117	0,093
-122,453	495,238	0,024	-0,039
-121,439	54,857	0,015	-0,010
-120,424	800,000	0,009	0,023
-119,410	-200,000	-0,009	0,046
-118,395	-200,000	0,006	-0,029
-117,380	-41,293	0,098	-0,036
-116,366	-200,000	-0,001	-0,046
-115,351	-200,000	-0,004	-0,017
-114,337	-48,975	-0,013	-0,005
-113,322	-200,000	-0,009	-0,088
-112,307	-200,000	-0,002	0,013
-111,293	706,262	0,020	0,038
-110,278	193,666	0,064	0,070
-109,264	800,000	0,048	0,110
-108,249	800,000	0,005	0,016
-107,234	470,102	0,045	-0,073
-106,220	242,311	-0,075	-0,090
-105,205	-4,318	0,265	0,131
-104,191	-200,000	0,056	0,216
-103,176	-200,000	-0,021	-0,100
-102,162	323,171	0,025	0,035
-101,147	63,771	0,050	-0,036
-100,132	-95,553	-0,147	0,028
-99,118	17,911	-0,043	0,024
-98,103	-140,628	0,098	0,007
-97,089	-123,360	0,069	-0,008
-96,074	-115,934	-0,002	0,000
-95,059	15,826	0,077	-0,043
-94,045	56,031	0,042	-0,029
-93,030	-200,000	-0,148	0,000
-92,016	-200,000	-0,000	-0,051
-91,001	-70,220	-0,076	0,021
-89,986	-200,000	0,030	0,116
-88,972	800,000	0,037	0,096
-87,957	44,739	0,068	0,045
-86,943	-63,281	0,128	-0,038
-85,928	-200,000	0,019	0,059
-84,913	11,794	0,106	0,058
-83,899	-200,000	0,009	-0,057
-82,884	-112,782	-0,048	-0,007
-81,870	21,046	-0,053	-0,031
-80,855	-90,659	-0,124	0,025
-79,840	-200,000	0,003	0,061
-78,826	525,302	-0,041	0,070
-77,811	448,732	-0,048	0,075
-76,797	-21,341	0,145	0,063
-75,782	299,292	-0,056	-0,074
-74,767	160,408	-0,076	0,076
-73,753	-64,850	-0,080	-0,023
-72,738	82,650	0,152	-0,118
-71,724	-200,000	-0,227	0,000
-70,709	430,287	0,026	-0,040
-69,694	800,000	-0,030	0,083
-68,680	-200,000	0,029	0,212
-67,665	114,662	0,096	0,084
-66,651	17,281	0,040	-0,023
-65,636	121,446	-0,111	-0,099
-64,622	800,000	-0,056	-0,141
-63,607	-200,000	-0,001	-0,003
-62,592	-37,167	-0,105	-0,040
-61,578	-26,258	0,144	0,060
-60,563	-200,000	-0,002	-0,019
-59,549	-200,000	-0,035	0,239
-58,534	44,255	-2,201	-1,444
-57,519	-200,000	0,036	-0,750
-56,505	-200,000	-1,409	-5,173
-55,490	142,999	0,892	0,850
-54,476	800,000	5,396	12,197
-53,461	-200,000	18,951	321,377
-52,446	800,000	742,194	2325,714
-51,432	548,112	1655,343	2848,932
-50,417	109,655	1637,936	1405,131
-49,403	73,151	1288,218	963,153
-48,388	29,365	1029,710	624,872
-47,373	19,620	992,805	570,254
-46,359	16,899	980,384	554,163
-45,344	13,410	976,682	540,601
-44,330	13,761	975,067	540,836
-43,315	13,073	973,343	537,606
-42,300	13,060	972,063	536,833
-41,286	13,010	971,341	536,251
-40,271	13,059	970,257	535,792
-39,257	13,003	969,534	535,189
-38,242	13,021	968,567	534,693
-37,227	13,028	967,574	534,144
-36,213	13,016	966,696	533,599
-35,198	12,993	965,789	533,005
-34,184	12,993	965,238	532,677
-33,169	12,998	964,299	532,155
-32,154	13,054	963,257	531,741
-31,140	13,081	962,427	531,348
-30,125	13,090	961,503	530,846
-29,111	13,006	960,752	530,141
-28,096	13,063	960,008	529,893
-27,082	12,998	959,524	529,393
-26,067	13,034	958,642	529,001
-25,052	13,018	958,057	528,608
-24,038	13,073	957,351	528,374
-23,023	13,017	956,720	527,822
-22,009	12,972	956,169	527,356
-20,994	13,073	955,354	527,207
-19,979	13,046	954,951	526,878
-18,965	13,035	954,342	526,484
-17,950	13,081	953,593	526,199
-16,936	12,999	952,856	525,508
-15,921	12,941	952,411	525,056
-14,906	12,962	951,426	524,560
-13,892	12,996	950,853	524,332
-12,877	12,941	950,309	523,837
-11,863	12,933	949,588	523,391
-10,848	12,925	949,132	523,096
-9,833	13,065	948,493	523,167
-8,819	12,956	947,990	522,524
-7,804	12,898	947,110	521,833
-6,790	12,924	946,667	521,648
-5,775	12,927	946,339	521,456
-4,760	12,978	945,562	521,171
-3,746	12,968	944,802	520,701
-2,731	12,830	944,093	519,850
-1,717	12,825	943,562	519,523
-0,702	12,789	942,924	519,036
0,313	12,586	942,289	518,826
1,327	16,099	940,078	528,662
2,342	25,451	790,585	469,244
3,356	21,523	445,242	258,421
4,371	-7,628	298,530	143,849
5,386	-11,593	280,564	131,383
6,400	-12,908	274,839	127,455
7,415	-12,752	272,515	126,511
8,429	-13,097	270,914	125,438
9,444	-13,118	269,998	124,983
10,459	-12,936	269,281	124,807
11,473	-13,246	268,795	124,286
12,488	-13,624	268,389	123,741
13,502	-13,330	267,569	123,620
14,517	-13,354	267,159	123,398
15,531	-13,463	266,920	123,177
16,546	-13,440	266,649	123,062
17,561	-13,241	265,861	122,868
18,575	-13,258	265,653	122,745
19,590	-13,381	265,438	122,524
20,604	-13,269	265,075	122,447
21,619	-13,450	264,767	122,130
22,634	-13,475	264,390	121,923
23,648	-13,495	264,047	121,735
24,663	-13,297	263,783	121,781
25,677	-13,515	263,688	121,531
26,692	-13,494	263,314	121,366
27,707	-13,223	262,975	121,442
28,721	-13,472	262,740	121,099
29,736	-13,548	262,484	120,902
30,750	-13,396	262,140	120,869
31,765	-13,551	261,939	120,627
32,780	-13,485	261,872	120,645
33,794	-13,384	261,413	120,513
34,809	-13,500	261,232	120,315
35,823	-13,619	260,924	120,056
36,838	-13,557	260,811	120,050
37,853	-13,698	260,558	119,797
38,867	-13,838	260,384	119,582
39,882	-13,371	259,885	119,756
40,896	-13,553	259,809	119,549
41,911	-13,409	259,392	119,474
42,926	-13,564	259,145	119,212
43,940	-13,611	258,983	119,086
44,955	-13,779	258,778	118,833
45,969	-13,551	258,552	118,919
46,984	-13,930	258,298	118,458
47,999	-14,214	258,009	118,066
49,013	-14,294	257,640	117,816
50,028	-14,460	257,435	117,566
51,042	-14,476	257,152	117,412
52,057	-14,453	256,986	117,346
53,071	-14,319	256,662	117,305
54,086	-14,228	256,631	117,360
55,101	-14,053	256,444	117,416
56,115	-13,806	256,288	117,550
57,130	-13,605	256,311	117,726
58,144	-13,320	256,193	117,909
59,159	-13,279	255,936	117,817
60,174	-13,536	255,676	117,463
61,188	-13,192	255,433	117,639
62,203	-13,360	255,290	117,417
63,217	-13,213	254,884	117,347
64,232	-13,426	254,697	117,066
65,247	-13,315	254,500	117,062
66,261	-13,348	254,260	116,912
67,276	-13,844	253,946	116,329
68,290	-13,914	253,713	116,152
69,305	-13,962	253,492	115,998
70,320	-13,851	253,358	116,023
71,334	-13,680	253,217	116,094
72,349	-13,270	253,147	116,405
73,363	-13,092	252,750	116,365
74,378	-13,331	252,674	116,114
75,393	-13,394	252,363	115,907
76,407	-13,378	252,219	115,844
77,422	-13,582	252,013	115,565
78,436	-13,354	251,740	115,624
79,451	-13,448	251,538	115,441
80,466	-13,603	251,308	115,193
81,480	-13,896	251,166	114,867
82,495	-13,724	250,737	114,808
83,509	-13,695	250,664	114,788
84,524	-13,912	250,537	114,535
85,539	-13,972	250,192	114,316
86,553	-13,744	249,977	114,402
87,568	-13,982	249,888	114,149
88,582	-13,736	249,606	114,218
89,597	-13,668	249,248	114,101
90,611	-13,736	249,373	114,091
91,626	-13,486	249,086	114,161
92,641	-13,598	249,080	114,054
93,655	-13,425	248,638	113,987
94,670	-13,618	248,455	113,730
95,684	-13,854	248,365	113,480
96,699	-13,566	248,113	113,597
97,714	-13,743	247,834	113,310
98,728	-14,018	247,699	113,007
99,743	-13,857	247,312	112,956
100,757	-13,952	247,319	112,869
101,772	-14,038	247,018	112,650
102,787	-13,811	246,981	112,813
103,801	-13,805	246,747	112,701
104,816	-13,813	246,739	112,681
105,830	-13,707	246,507	112,653
106,845	-13,325	246,285	112,860
107,860	-13,412	246,189	112,734
108,874	-13,684	245,926	112,377
109,889	-13,734	245,679	112,213
110,903	-13,673	245,369	112,111
111,918	-13,578	245,260	112,130
112,933	-13,566	245,130	112,071
113,947	-13,541	244,781	111,923
114,962	-13,697	244,758	111,773
115,976	-13,467	244,574	111,869
116,991	-13,547	244,407	111,716
118,006	-13,504	244,268	111,679
119,020	-13,564	244,191	111,583
120,035	-13,433	243,992	111,591
121,049	-13,359	243,806	111,557
122,064	-13,411	243,631	111,424
123,079	-13,462	243,339	111,238
124,093	-13,801	243,088	110,835
125,108	-13,640	242,895	110,870
126,122	-14,033	242,643	110,422
127,137	-14,067	242,544	110,339
128,151	-13,999	242,345	110,295
129,166	-14,045	242,283	110,219
130,181	-14,021	241,906	110,057
131,195	-13,992	241,838	110,040
132,210	-13,671	241,520	110,148
133,224	-13,394	241,424	110,321
134,239	-13,603	241,346	110,104
135,254	-13,505	241,146	110,083
136,268	-13,827	240,841	109,672
137,283	-14,050	240,584	109,364
138,297	-14,022	240,338	109,265
139,312	-14,111	240,148	109,097
140,327	-13,532	239,999	109,489
141,341	-13,053	240,091	109,910
142,356	-13,104	239,973	109,804
143,370	-13,339	239,895	109,569
144,385	-13,138	239,702	109,633
145,400	-13,208	239,420	109,438
146,414	-13,114	239,318	109,457
147,429	-13,291	239,110	109,209
148,443	-13,414	239,034	109,066
149,458	-13,244	238,752	109,064
150,473	-13,187	238,546	109,007
151,487	-13,481	238,394	108,691
152,502	-13,397	238,299	108,706
153,516	-13,221	238,121	108,756
154,531	-13,208	237,884	108,649
155,546	-13,230	237,581	108,483
156,560	-13,424	237,727	108,384
157,575	-13,540	237,352	108,111
158,589	-13,380	237,124	108,125
159,604	-13,018	237,049	108,371
160,619	-13,142	236,851	108,172
161,633	-13,169	236,654	108,050
162,648	-13,094	236,572	108,063
163,662	-13,491	236,417	107,666
164,677	-13,374	236,092	107,602
165,692	-13,391	236,139	107,600
166,706	-13,222	235,989	107,657
167,721	-13,270	235,878	107,558
168,735	-13,071	235,650	107,602
169,750	-13,094	235,524	107,517
170,764	-13,270	235,463	107,340
171,779	-13,162	235,187	107,291
172,794	-12,884	234,980	107,406
173,808	-13,247	234,858	107,054
174,823	-13,766	234,473	106,459
175,837	-13,841	234,281	106,303
176,852	-13,290	234,251	106,715
177,867	-13,093	234,038	106,763
178,881	-13,208	234,097	106,690
179,896	-12,932	233,854	106,787
180,910	-13,062	233,907	106,700
181,925	-13,114	233,539	106,481
182,940	-12,907	233,350	106,548
183,954	-12,996	233,120	106,364
184,969	-13,038	233,197	106,356
185,983	-13,004	232,894	106,235
186,998	-12,869	232,809	106,292
188,013	-13,245	232,700	105,939
189,027	-13,071	232,492	105,971
190,042	-12,986	232,436	106,003
191,056	-12,851	232,049	105,922
192,071	-13,074	231,929	105,684
193,086	-13,215	231,829	105,519
194,100	-12,842	231,549	105,673
195,115	-13,172	231,219	105,256
196,129	-12,790	231,453	105,650
197,144	-7,044	233,596	111,126
198,159	-0,523	235,190	117,009
199,173	2,671	236,188	120,013
200,188	3,100	236,075	120,282
201,202	3,055	236,050	120,223
202,217	2,943	236,208	120,205
203,232	3,306	235,770	120,255
204,246	3,324	235,642	120,194
205,261	3,379	235,568	120,189
206,275	3,746	235,434	120,398
207,290	3,468	235,328	120,115
208,304	3,348	235,211	119,950
209,319	3,440	235,007	119,908
210,334	3,376	234,669	119,674
211,348	3,254	234,496	119,480
212,363	2,938	234,176	119,060
213,377	2,579	234,070	118,716
214,392	2,425	233,877	118,487
215,407	2,915	233,721	118,779
216,421	2,846	233,609	118,658
217,436	2,970	233,267	118,570
218,450	2,707	233,090	118,265
219,465	2,633	233,096	118,200
220,480	2,394	232,946	117,929
221,494	2,468	232,737	117,870
222,509	2,843	232,863	118,213
223,523	2,881	232,552	118,074
224,538	2,888	232,406	117,995
225,553	2,802	232,070	117,747
226,567	2,879	232,184	117,854
227,582	2,950	232,144	117,879
228,596	3,137	231,919	117,898
229,611	2,991	231,650	117,638
230,626	2,563	231,336	117,139
231,640	2,812	231,185	117,244
232,655	2,946	231,302	117,396
233,669	3,044	231,154	117,385
234,684	3,317	231,167	117,591
235,699	3,228	230,856	117,354
236,713	2,805	230,579	116,878
237,728	2,666	230,386	116,664
238,742	2,535	230,213	116,465
239,757	2,562	230,246	116,493
240,772	2,753	229,833	116,420
241,786	2,588	229,755	116,243
242,801	3,011	229,683	116,519
243,815	3,045	229,733	116,560
244,830	3,276	229,493	116,604
245,844	2,825	229,239	116,121
246,859	2,598	229,209	115,923
247,874	2,991	229,035	116,123
248,888	3,256	228,766	116,178
249,903	2,922	228,654	115,857
250,917	2,742	228,415	115,589
251,932	2,985	228,453	115,782
252,947	2,727	228,089	115,393
253,961	2,646	227,913	115,231
254,976	2,707	227,805	115,213
255,990	2,843	227,801	115,303
257,005	3,017	227,650	115,349
258,020	3,054	227,615	115,348
259,034	3,346	227,412	115,455
260,049	2,880	227,215	114,994
261,063	2,974	227,029	114,960
262,078	3,148	226,985	115,058
263,093	3,189	226,949	115,061
264,107	3,104	226,709	114,865
265,122	3,344	226,614	114,987
266,136	3,277	226,441	114,839
267,151	3,178	226,282	114,673
268,166	2,917	225,973	114,311
269,180	2,527	225,832	113,938
270,195	2,831	225,566	114,021
271,209	2,913	225,478	114,028
272,224	2,870	225,386	113,938
273,239	3,103	225,280	114,049
274,253	2,764	225,113	113,701
275,268	2,555	224,922	113,439
276,282	2,647	224,687	113,379
277,297	2,611	224,616	113,306
278,312	2,766	224,429	113,317
279,326	2,720	224,465	113,290
280,341	2,812	224,215	113,223
281,355	2,987	224,134	113,302
282,370	2,911	223,914	113,124
283,384	2,491	223,644	112,666
284,399	2,447	223,694	112,649
285,414	2,586	223,474	112,631
286,428	2,715	223,450	112,704
287,443	3,050	223,314	112,873
288,457	2,938	223,115	112,680
289,472	2,662	222,846	112,331
290,487	2,481	222,596	112,061
291,501	2,235	222,597	111,870
292,516	2,477	222,402	111,940
293,530	2,638	222,268	111,981
294,545	2,507	222,148	111,815
295,560	2,609	222,159	111,885
296,574	2,911	221,893	111,963
297,589	2,773	221,836	111,823
298,603	2,753	221,855	111,808
299,618	2,908	221,558	111,762
300,633	2,942	221,391	111,693
301,647	3,233	221,308	111,853
302,662	3,203	221,324	111,829
303,676	2,857	220,892	111,349
304,691	2,956	220,887	111,409
305,706	3,019	220,814	111,408
306,720	3,255	220,657	111,491
307,735	2,804	220,359	111,002
308,749	2,648	220,298	110,847
309,764	2,981	220,322	111,092
310,779	2,912	220,105	110,923
311,793	3,066	219,949	110,946
312,808	2,939	219,916	110,827
313,822	2,891	219,525	110,586
314,837	2,573	219,530	110,348
315,852	2,464	219,383	110,185
316,866	2,868	219,113	110,332
317,881	3,328	218,963	110,578
318,895	2,950	218,827	110,227
319,910	2,823	218,605	110,014
320,925	2,620	218,376	109,742
321,939	2,403	218,274	109,525
322,954	2,371	218,190	109,450
323,968	2,856	218,217	109,803
324,983	3,043	218,078	109,858
325,997	3,107	217,914	109,811
327,012	3,091	217,767	109,716
328,027	3,048	217,567	109,575
329,041	3,307	217,592	109,764
330,056	3,272	217,378	109,621
331,070	2,680	217,220	109,108
332,085	2,572	217,058	108,939
333,100	2,808	216,905	109,021
334,114	2,488	216,702	108,681
335,129	2,559	216,585	108,664
336,143	2,942	216,476	108,872
337,158	2,883	216,329	108,746
338,173	3,156	216,227	108,879
339,187	2,802	216,068	108,538
340,202	2,692	215,909	108,370
341,216	2,616	215,853	108,279
342,231	2,629	215,614	108,159
343,246	2,936	215,500	108,310
344,260	2,821	215,394	108,165
345,275	2,909	215,291	108,166
346,289	2,959	215,146	108,119
347,304	3,001	215,174	108,153
348,319	2,628	214,913	107,748
349,333	2,799	214,735	107,770
350,348	2,646	214,633	107,601
351,362	3,191	214,505	107,913
352,377	3,071	214,412	107,771
353,392	2,842	214,199	107,493
354,406	2,887	214,209	107,520
355,421	198,067	1313,102	1393,871
356,435	158,537	1446,932	1393,813
