DTS Sentinel unit serial number:	SN410029Multiplexer serial number:	ORYXHardware model number:	OX2-SRSoftware version number:	ORYX F/W v4,00 Oryx Data Collector v3.7.2.0data status	okinstallation	B6 Nyhavnadifferential loss correction	single-endedforward channel	channel 2reverse channel	N/Adate	2023/12/08time	18:55:08forward acquisition time	300,00reverse acquisition time	0,00gamma	499,1914k internal	0,3158k external	0,3158temperature offset calibration	1,0000default loss term (dB/km)	0,3820temperature slope calibration	1,0000multiplexer offset coefficient	1,0000multiplexer slope coefficient	1,0000fibre end	0,00T internal ref (°C)	15,25T ext. ref 1 (°C)	-1,38T ext. ref 2 (°C)	-1,38length (m)	temperature (°C)	Stokes	anti-Stokes-744,400	800,000	0,016	-0,046
-743,385	-119,719	-0,306	0,038
-742,371	-104,394	0,298	0,050
-741,356	-14,905	-0,280	-0,132
-740,342	354,583	0,086	-0,126
-739,327	-98,432	-0,268	0,050
-738,312	-26,974	0,021	-0,009
-737,298	-117,876	-0,437	0,057
-736,283	43,292	0,126	0,085
-735,269	-138,536	-0,431	-0,034
-734,254	-200,000	0,002	0,143
-733,239	-21,421	-0,540	-0,242
-732,225	-200,000	0,034	-0,137
-731,210	685,518	0,057	0,111
-730,196	800,000	0,034	-0,104
-729,181	270,323	0,048	-0,062
-728,167	85,873	-0,094	0,076
-727,152	20,138	-0,094	0,056
-726,137	800,000	-0,062	-0,129
-725,123	-30,435	-0,095	0,040
-724,108	102,143	-0,094	-0,081
-723,094	-200,000	-0,021	-0,135
-722,079	-58,938	-0,151	-0,048
-721,064	232,177	-0,051	-0,061
-720,050	84,896	-0,018	0,014
-719,035	117,596	-0,115	-0,104
-718,021	-53,288	-0,026	-0,009
-717,006	8,602	-0,073	-0,041
-715,991	16,614	-0,059	0,034
-714,977	-9,668	-0,079	-0,038
-713,962	800,000	-0,028	-0,059
-712,948	328,120	0,053	0,076
-711,933	-25,093	-0,077	0,034
-710,918	-153,271	-0,049	-0,002
-709,904	139,214	0,042	-0,040
-708,889	-6,242	-0,233	-0,117
-707,875	-76,737	-0,060	-0,015
-706,860	-15,975	0,102	-0,047
-705,845	26,815	0,017	-0,010
-704,831	-61,706	-0,087	-0,027
-703,816	25,155	-0,054	-0,033
-702,802	-99,585	-0,092	0,017
-701,787	-200,000	0,121	-0,000
-700,772	-142,717	-0,070	-0,005
-699,758	135,179	-0,103	0,099
-698,743	-44,633	0,201	-0,074
-697,729	242,340	-0,014	0,018
-696,714	48,929	0,093	-0,064
-695,699	-82,417	-0,114	-0,027
-694,685	16,676	-0,105	-0,061
-693,670	106,660	-0,072	-0,063
-692,656	-94,856	-0,016	0,003
-691,641	-25,628	0,043	0,018
-690,627	-200,000	0,021	0,092
-689,612	-6,246	0,146	-0,073
-688,597	38,697	-0,194	-0,127
-687,583	-200,000	-0,015	-0,079
-686,568	-129,402	0,059	0,006
-685,554	-64,101	0,097	0,029
-684,539	-200,000	0,003	-0,039
-683,524	-0,304	-0,075	-0,039
-682,510	14,994	0,073	0,042
-681,495	-200,000	-0,012	0,043
-680,481	48,036	0,060	0,041
-679,466	167,139	-0,124	-0,130
-678,451	-64,612	-0,019	0,006
-677,437	-200,000	0,030	-0,221
-676,422	-102,333	0,105	0,018
-675,408	708,148	0,055	0,107
-674,393	800,000	-0,067	0,140
-673,378	800,000	-0,004	-0,011
-672,364	63,518	0,029	-0,021
-671,349	800,000	-0,050	-0,122
-670,335	-97,123	0,112	0,021
-669,320	800,000	-0,033	0,067
-668,305	-74,621	0,075	-0,020
-667,291	164,571	0,023	0,024
-666,276	-200,000	0,043	-0,178
-665,262	69,672	0,032	0,024
-664,247	3,379	-0,154	-0,082
-663,232	48,614	0,069	-0,047
-662,218	49,609	0,122	0,084
-661,203	411,408	-0,058	-0,090
-660,189	-200,000	0,009	-0,146
-659,174	-0,614	0,049	0,025
-658,159	70,108	-0,063	-0,048
-657,145	-200,000	-0,007	-0,051
-656,130	-200,000	0,002	0,122
-655,116	468,690	0,056	0,092
-654,101	-200,000	0,002	0,137
-653,086	-200,000	0,016	-0,135
-652,072	686,189	0,054	-0,104
-651,057	195,261	0,030	0,033
-650,043	-200,000	-0,030	-0,166
-649,028	132,374	0,100	0,095
-648,014	-200,000	0,015	-0,062
-646,999	132,882	0,098	0,093
-645,984	-37,219	0,037	-0,014
-644,970	-200,000	0,041	-0,138
-643,955	177,861	0,073	-0,078
-642,941	96,240	0,053	0,045
-641,926	-158,261	0,028	-0,001
-640,911	800,000	-0,057	0,169
-639,897	-15,503	-0,082	-0,038
-638,882	-151,986	0,161	-0,008
-637,868	313,393	0,062	0,086
-636,853	-200,000	-0,053	-0,172
-635,838	-143,573	-0,054	0,004
-634,824	130,640	0,018	0,017
-633,809	-200,000	-0,030	-0,136
-632,795	-23,371	0,077	0,034
-631,780	-50,955	-0,034	-0,012
-630,765	22,356	-0,148	-0,089
-629,751	8,005	-0,031	-0,017
-628,736	-96,265	-0,014	0,003
-627,722	80,445	0,073	-0,057
-626,707	-200,000	0,003	0,101
-625,692	-200,000	0,033	-0,119
-624,678	-45,804	0,050	0,018
-623,663	-200,000	0,022	-0,089
-622,649	800,000	-0,041	-0,092
-621,634	800,000	0,022	0,062
-620,619	577,902	-0,023	-0,042
-619,605	-90,640	0,037	0,008
-618,590	724,379	0,019	-0,038
-617,576	-200,000	-0,009	0,106
-616,561	23,529	0,079	-0,048
-615,546	-80,694	-0,124	-0,030
-614,532	87,591	-0,143	-0,116
-613,517	135,506	0,079	0,076
-612,503	-63,197	-0,043	-0,013
-611,488	-10,092	0,071	0,034
-610,474	-200,000	-0,038	-0,176
-609,459	-142,371	-0,041	-0,003
-608,444	188,000	-0,059	0,065
-607,430	-106,739	-0,085	0,014
-606,415	-9,162	-0,051	-0,025
-605,401	472,446	0,117	0,194
-604,386	-108,707	-0,083	0,013
-603,371	800,000	-0,018	-0,042
-602,357	98,603	0,095	-0,080
-601,342	-55,769	-0,096	0,031
-600,328	464,823	-0,028	0,046
-599,313	86,832	0,086	-0,070
-598,298	-40,822	0,021	0,008
-597,284	6,671	0,118	-0,064
-596,269	800,000	0,068	-0,160
-595,255	546,251	-0,087	0,153
-594,240	215,846	-0,047	0,055
-593,225	129,283	0,038	0,035
-592,211	-30,686	-0,029	0,012
-591,196	-200,000	-0,002	0,108
-590,182	800,000	-0,018	0,055
-589,167	800,000	-0,059	-0,147
-588,152	-101,042	0,048	-0,009
-587,138	800,000	0,069	-0,192
-586,123	61,061	0,007	0,005
-585,109	-99,130	-0,134	-0,025
-584,094	-200,000	0,009	-0,045
-583,079	14,081	-0,066	0,037
-582,065	-200,000	-0,009	-0,066
-581,050	-200,000	0,011	0,094
-580,036	-200,000	-0,046	0,156
-579,021	370,430	-0,036	-0,054
-578,006	-9,516	-0,065	-0,031
-576,992	298,959	0,089	-0,120
-575,977	-110,774	0,078	-0,012
-574,963	3,723	0,010	-0,005
-573,948	-188,076	-0,064	-0,001
-572,934	-37,267	0,081	0,031
-571,919	800,000	0,045	-0,093
-570,904	800,000	-0,047	-0,126
-569,890	-200,000	0,004	0,058
-568,875	150,645	-0,110	0,109
-567,861	-6,636	0,194	-0,097
-566,846	378,030	-0,125	-0,188
-565,831	576,341	0,052	-0,093
-564,817	-21,029	0,057	0,026
-563,802	-200,000	-0,009	0,037
-562,788	-139,192	-0,052	0,004
-561,773	800,000	0,020	-0,064
-560,758	96,927	0,118	0,099
-559,744	800,000	0,038	0,102
-558,729	800,000	0,020	-0,043
-557,715	103,933	0,054	0,046
-556,700	-82,317	0,037	0,009
-555,685	-200,000	0,013	0,047
-554,671	5,120	0,074	0,040
-553,656	-102,519	-0,059	0,010
-552,642	-23,947	0,084	0,037
-551,627	800,000	-0,024	0,061
-550,612	7,676	-0,081	0,045
-549,598	800,000	0,019	0,052
-548,583	168,486	0,062	0,065
-547,569	151,774	0,051	-0,051
-546,554	-200,000	0,003	-0,180
-545,539	-200,000	-0,020	0,068
-544,525	800,000	-0,045	0,104
-543,510	-154,929	0,197	-0,009
-542,496	680,069	0,044	0,085
-541,481	800,000	-0,029	0,088
-540,466	-113,768	0,072	0,010
-539,452	5,451	-0,105	0,057
-538,437	387,572	0,103	-0,156
-537,423	-70,507	0,122	0,034
-536,408	-122,314	0,121	0,014
-535,393	121,792	-0,108	0,099
-534,379	-200,000	-0,011	-0,100
-533,364	-200,000	0,006	-0,064
-532,350	-200,000	-0,002	0,055
-531,335	132,230	0,105	0,099
-530,321	201,878	0,141	0,159
-529,306	-200,000	0,003	0,018
-528,291	163,068	-0,029	0,030
-527,277	-200,000	0,016	-0,078
-526,262	-102,495	-0,070	-0,012
-525,248	-102,813	0,072	-0,012
-524,233	-200,000	0,019	0,189
-523,218	-200,000	0,000	-0,070
-522,204	-40,970	-0,094	0,035
-521,189	-58,969	0,068	-0,021
-520,175	134,632	-0,092	-0,088
-519,160	800,000	-0,040	-0,099
-518,145	-93,992	-0,071	-0,014
-517,131	-200,000	-0,007	-0,121
-516,116	-200,000	0,008	-0,077
-515,102	800,000	0,027	0,065
-514,087	-11,238	0,098	0,047
-513,072	34,305	-0,091	-0,058
-512,058	651,029	-0,062	0,117
-511,043	800,000	0,019	-0,059
-510,029	-94,159	0,068	-0,014
-509,014	800,000	-0,061	-0,129
-507,999	-200,000	0,000	-0,058
-506,985	681,202	0,073	-0,139
-505,970	-52,726	0,046	-0,015
-504,956	-200,000	-0,008	-0,284
-503,941	734,969	-0,077	-0,151
-502,926	800,000	0,037	0,099
-501,912	156,179	0,006	-0,006
-500,897	3,743	0,097	0,052
-499,883	-108,592	-0,083	0,013
-498,868	-200,000	-0,013	-0,070
-497,853	131,108	-0,128	-0,120
-496,839	-76,033	0,147	0,038
-495,824	800,000	0,035	0,093
-494,810	-200,000	-0,030	0,209
-493,795	43,300	0,046	-0,031
-492,781	-102,192	-0,205	-0,036
-491,766	554,612	0,055	-0,097
-490,751	146,855	-0,127	-0,125
-489,737	42,691	-0,044	0,029
-488,722	-200,000	0,004	0,015
-487,708	-200,000	0,007	0,035
-486,693	-35,723	0,050	-0,020
-485,678	-113,794	-0,019	-0,003
-484,664	800,000	0,009	-0,027
-483,649	407,975	-0,062	0,096
-482,635	750,883	-0,029	-0,058
-481,620	-14,581	-0,036	-0,017
-480,605	-6,658	0,069	0,034
-479,591	-30,998	-0,046	0,019
-478,576	-15,535	-0,088	-0,041
-477,562	-200,000	-0,025	-0,123
-476,547	800,000	0,008	-0,016
-475,532	204,176	-0,041	0,047
-474,518	120,929	0,016	0,015
-473,503	500,252	0,047	-0,080
-472,489	92,021	-0,092	0,076
-471,474	183,420	-0,151	-0,163
-470,459	164,141	-0,057	0,058
-469,445	227,230	-0,024	0,029
-468,430	-129,646	0,049	0,005
-467,416	65,967	-0,054	0,040
-466,401	-25,932	-0,140	-0,060
-465,386	109,295	0,067	-0,058
-464,372	800,000	-0,019	0,056
-463,357	-200,000	-0,007	-0,175
-462,343	-79,140	0,085	-0,021
-461,328	112,086	-0,094	0,083
-460,313	56,617	0,052	0,037
-459,299	485,980	0,047	0,079
-458,284	129,077	-0,017	0,016
-457,270	11,274	0,043	-0,024
-456,255	800,000	-0,027	-0,064
-455,241	470,857	0,069	-0,113
-454,226	-31,723	0,069	0,028
-453,211	15,369	0,155	0,089
-452,197	-200,000	-0,003	0,110
-451,182	800,000	0,011	-0,028
-450,168	-84,409	-0,108	-0,025
-449,153	18,427	0,126	-0,073
-448,138	-31,527	0,057	-0,023
-447,124	-200,000	-0,010	-0,047
-446,109	800,000	0,037	0,076
-445,095	-29,692	0,099	0,041
-444,080	278,927	-0,075	0,097
-443,065	10,607	-0,141	0,078
-442,051	16,365	0,090	0,052
-441,036	639,462	-0,042	-0,078
-440,022	-200,000	-0,023	0,166
-439,007	-200,000	-0,006	-0,027
-437,992	120,442	-0,034	-0,031
-436,978	493,564	0,023	0,038
-435,963	-104,768	0,112	-0,019
-434,949	63,346	0,026	-0,019
-433,934	-57,342	-0,162	0,052
-432,919	-200,000	0,034	0,136
-431,905	-9,744	-0,096	0,046
-430,890	800,000	0,025	0,068
-429,876	164,342	-0,059	0,061
-428,861	284,460	0,071	-0,093
-427,846	800,000	0,006	-0,014
-426,832	-93,480	-0,163	-0,032
-425,817	102,125	-0,018	-0,015
-424,803	800,000	-0,044	0,097
-423,788	-49,752	-0,099	-0,034
-422,773	81,432	-0,075	-0,059
-421,759	170,818	-0,029	-0,030
-420,744	394,622	0,069	0,105
-419,730	362,417	-0,067	-0,098
-418,715	127,770	0,118	-0,109
-417,701	-200,000	-0,008	-0,067
-416,686	226,774	0,112	0,133
-415,671	55,071	-0,064	0,045
-414,657	111,948	-0,088	-0,078
-413,642	800,000	-0,081	0,168
-412,628	-200,000	-0,029	-0,166
-411,613	6,069	0,046	-0,025
-410,598	192,028	0,097	0,107
-409,584	-147,620	-0,026	0,002
-408,569	228,594	-0,081	0,097
-407,555	69,288	-0,036	-0,027
-406,540	64,149	-0,028	-0,021
-405,525	369,479	0,085	-0,125
-404,511	23,012	-0,057	0,034
-403,496	-200,000	-0,020	-0,068
-402,482	-200,000	-0,005	-0,032
-401,467	-152,179	0,122	0,006
-400,452	268,411	-0,087	0,111
-399,438	-77,147	0,040	-0,010
-398,423	-200,000	0,005	-0,093
-397,409	-113,394	-0,142	0,020
-396,394	-14,737	0,076	-0,035
-395,379	-200,000	-0,002	0,049
-394,365	-57,713	-0,071	-0,022
-393,350	261,055	0,098	0,123
-392,336	800,000	0,072	0,190
-391,321	-167,860	0,033	-0,001
-390,306	138,261	-0,143	-0,137
-389,292	-200,000	0,034	-0,141
-388,277	684,349	-0,028	-0,054
-387,263	-52,197	0,041	0,014
-386,248	-72,648	0,047	0,013
-385,233	-62,080	0,028	-0,009
-384,219	800,000	0,091	-0,193
-383,204	800,000	-0,041	0,104
-382,190	72,881	-0,090	-0,068
-381,175	-4,612	0,130	-0,065
-380,160	404,145	0,026	-0,041
-379,146	-200,000	0,015	0,151
-378,131	209,975	0,029	0,033
-377,117	-112,107	-0,056	0,008
-376,102	800,000	-0,028	-0,077
-375,088	45,307	-0,102	-0,068
-374,073	-170,563	-0,044	0,001
-373,058	-128,744	0,028	-0,003
-372,044	19,211	-0,055	0,032
-371,029	-200,000	-0,024	0,114
-370,015	-19,587	-0,057	-0,026
-369,000	769,375	0,046	0,091
-367,985	800,000	-0,001	-0,003
-366,971	-200,000	-0,057	-0,216
-365,956	350,119	0,038	-0,055
-364,942	270,257	0,133	-0,170
-363,927	-85,418	0,138	0,031
-362,912	-52,920	-0,132	-0,044
-361,898	784,488	0,024	-0,047
-360,883	800,000	-0,017	0,055
-359,869	-200,000	0,003	0,046
-358,854	782,830	-0,059	-0,118
-357,839	-200,000	-0,011	-0,046
-356,825	394,524	-0,060	-0,091
-355,810	800,000	0,019	0,058
-354,796	8,153	-0,149	-0,081
-353,781	-79,540	-0,130	0,032
-352,766	97,058	0,122	0,102
-351,752	-102,494	0,103	-0,018
-350,737	467,008	0,052	0,085
-349,723	194,765	-0,025	-0,028
-348,708	-25,813	0,043	-0,018
-347,693	414,831	-0,023	-0,035
-346,679	-55,197	0,040	0,013
-345,664	800,000	-0,043	0,089
-344,650	-200,000	-0,012	-0,118
-343,635	-200,000	-0,006	0,067
-342,620	-146,489	-0,076	0,005
-341,606	277,316	0,050	0,065
-340,591	800,000	0,038	-0,121
-339,577	-69,802	-0,029	-0,008
-338,562	-200,000	-0,003	0,024
-337,548	-87,051	-0,042	0,009
-336,533	800,000	0,016	0,045
-335,518	95,936	0,088	0,073
-334,504	-59,262	-0,073	-0,023
-333,489	-200,000	0,019	-0,145
-332,475	133,109	0,104	-0,097
-331,460	547,800	-0,085	-0,149
-330,445	800,000	0,016	0,035
-329,431	59,663	0,063	-0,045
-328,416	-2,400	0,075	-0,038
-327,402	-200,000	-0,005	0,135
-326,387	-122,536	-0,055	-0,006
-325,372	-129,915	-0,067	-0,007
-324,358	445,636	-0,075	-0,120
-323,343	-94,321	-0,087	-0,017
-322,329	800,000	0,046	-0,093
-321,314	-98,577	0,072	0,013
-320,299	130,329	0,018	-0,017
-319,285	379,067	-0,054	0,080
-318,270	-58,766	-0,021	-0,006
-317,256	187,882	0,045	0,048
-316,241	-101,901	0,043	-0,007
-315,226	24,321	-0,076	-0,045
-314,212	-125,249	-0,057	-0,006
-313,197	800,000	-0,022	0,062
-312,183	224,877	0,090	-0,105
-311,168	466,279	-0,033	0,053
-310,153	206,823	0,055	-0,062
-309,139	-11,171	0,013	-0,006
-308,124	-51,714	-0,082	-0,028
-307,110	396,481	-0,080	0,121
-306,095	26,365	0,094	0,057
-305,080	674,666	0,032	0,060
-304,066	-14,203	-0,096	0,045
-303,051	800,000	0,028	0,089
-302,037	-56,611	0,069	-0,022
-301,022	79,982	-0,084	-0,066
-300,008	-111,530	0,219	0,032
-298,993	176,412	0,036	0,038
-297,978	800,000	0,048	0,135
-296,964	70,648	-0,105	0,078
-295,949	697,734	0,080	-0,153
-294,935	800,000	-0,030	-0,085
-293,920	66,216	0,212	-0,156
-292,905	-147,266	0,142	-0,009
-291,891	800,000	0,031	0,066
-290,876	494,845	0,092	-0,154
-289,862	-200,000	-0,038	-0,219
-288,847	-135,972	0,048	0,004
-287,832	-101,867	0,061	0,011
-286,818	-200,000	0,023	-0,105
-285,803	800,000	0,012	0,029
-284,789	570,237	0,072	0,128
-283,774	731,532	-0,011	-0,022
-282,759	51,339	0,061	-0,042
-281,745	-30,887	-0,094	0,038
-280,730	-200,000	0,008	0,062
-279,716	-200,000	-0,022	0,120
-278,701	-200,000	0,033	0,133
-277,686	154,084	0,050	0,049
-276,672	800,000	-0,041	0,105
-275,657	-13,790	0,081	0,038
-274,643	-66,692	-0,070	0,020
-273,628	-38,105	0,038	0,014
-272,613	-8,356	-0,153	-0,074
-271,599	221,493	-0,054	-0,062
-270,584	-200,000	0,000	0,053
-269,570	200,692	0,072	0,080
-268,555	800,000	0,022	0,051
-267,540	40,197	-0,084	-0,054
-266,526	-22,473	-0,022	-0,010
-265,511	-200,000	-0,023	0,104
-264,497	-200,000	0,002	0,060
-263,482	-200,000	0,045	0,159
-262,467	800,000	0,035	-0,072
-261,453	-48,549	0,139	0,048
-260,438	800,000	0,008	-0,022
-259,424	-200,000	0,007	-0,044
-258,409	505,256	0,030	0,050
-257,395	-130,050	0,125	0,012
-256,380	46,769	-0,027	0,018
-255,365	-200,000	0,006	0,057
-254,351	38,321	0,049	-0,032
-253,336	52,359	-0,038	0,026
-252,322	57,138	-0,013	0,009
-251,307	-200,000	0,014	0,076
-250,292	-82,113	0,108	0,025
-249,278	25,927	-0,054	0,033
-248,263	305,111	-0,021	0,029
-247,249	-87,411	0,132	-0,029
-246,234	219,964	-0,051	0,059
-245,219	-200,000	0,011	0,095
-244,205	-200,000	-0,001	-0,046
-243,190	800,000	0,027	0,081
-242,176	321,911	0,054	-0,075
-241,161	-200,000	0,006	0,093
-240,146	-103,042	-0,062	0,011
-239,132	165,876	-0,068	0,070
-238,117	8,559	0,089	0,048
-237,103	-73,653	0,105	-0,027
-236,088	-200,000	0,029	0,100
-235,073	800,000	-0,037	-0,093
-234,059	-200,000	-0,002	0,028
-233,044	-23,290	-0,166	0,072
-232,030	-122,547	0,079	-0,009
-231,015	3,019	-0,203	-0,106
-230,000	800,000	0,059	-0,140
-228,986	-2,695	-0,022	0,011
-227,971	-200,000	-0,005	-0,029
-226,957	-35,108	-0,180	0,071
-225,942	800,000	0,085	0,206
-224,927	-200,000	-0,000	0,082
-223,913	371,007	0,076	-0,111
-222,898	10,642	-0,065	0,036
-221,884	-35,610	-0,050	-0,020
-220,869	-200,000	0,004	0,032
-219,855	78,088	0,035	-0,027
-218,840	705,553	-0,050	0,096
-217,825	523,098	0,045	0,077
-216,811	40,300	-0,069	0,045
-215,796	-15,456	-0,070	0,032
-214,782	-200,000	-0,000	-0,091
-213,767	-31,471	-0,055	0,022
-212,752	-171,673	0,091	0,002
-211,738	-95,749	0,016	0,003
-210,723	800,000	0,055	0,119
-209,709	396,396	-0,033	-0,050
-208,694	-48,831	-0,116	-0,040
-207,679	-95,835	-0,020	-0,004
-206,665	473,476	-0,055	-0,089
-205,650	-200,000	-0,003	0,065
-204,636	-127,216	-0,110	0,012
-203,621	-66,976	-0,032	-0,009
-202,606	-200,000	0,002	-0,016
-201,592	-35,699	-0,076	-0,029
-200,577	-200,000	0,010	-0,039
-199,563	373,466	0,051	0,075
-198,548	-133,014	-0,031	0,003
-197,533	23,229	0,050	-0,029
-196,519	-119,632	0,121	-0,015
-195,504	150,321	-0,021	-0,020
-194,490	-7,040	-0,117	-0,057
-193,475	800,000	-0,072	-0,145
-192,460	-200,000	0,006	0,032
-191,446	-200,000	-0,004	0,050
-190,431	-136,353	-0,023	-0,002
-189,417	768,903	-0,038	-0,075
-188,402	249,963	-0,059	0,072
-187,387	148,455	-0,079	0,077
-186,373	800,000	-0,013	0,042
-185,358	-160,631	0,086	0,003
-184,344	-59,162	-0,098	-0,030
-183,329	800,000	-0,016	-0,051
-182,315	-171,947	0,143	-0,003
-181,300	800,000	-0,021	0,060
-180,285	-74,019	-0,082	-0,021
-179,271	216,927	0,027	0,031
-178,256	27,360	-0,025	-0,015
-177,242	-21,021	0,020	0,009
-176,227	800,000	-0,021	-0,050
-175,212	161,385	0,056	0,056
-174,198	-200,000	-0,034	0,160
-173,183	-178,528	-0,127	0,002
-172,169	800,000	-0,075	0,181
-171,154	-24,842	0,055	0,023
-170,139	-196,235	-0,099	-0,000
-169,125	-200,000	0,045	0,174
-168,110	-84,300	0,161	0,037
-167,096	-200,000	0,036	0,117
-166,081	148,627	0,025	-0,025
-165,066	517,893	-0,041	-0,069
-164,052	-61,520	0,015	-0,004
-163,037	-61,820	-0,076	0,023
-162,023	115,940	0,103	0,090
-161,008	-50,784	-0,075	0,025
-159,993	2,687	-0,087	0,045
-158,979	92,148	0,106	-0,086
-157,964	-200,000	0,009	0,032
-156,950	714,769	0,040	-0,077
-155,935	-118,189	-0,077	-0,010
-154,920	-22,627	-0,061	0,026
-153,906	-51,991	-0,017	-0,006
-152,891	38,031	-0,106	-0,068
-151,877	357,441	-0,081	-0,116
-150,862	800,000	-0,027	0,069
-149,847	-84,474	-0,073	0,016
-148,833	-200,000	0,023	-0,122
-147,818	-200,000	0,019	-0,085
-146,804	123,226	-0,040	0,037
-145,789	37,633	0,057	0,036
-144,775	668,763	0,016	-0,030
-143,760	-200,000	-0,019	-0,211
-142,745	800,000	0,053	-0,135
-141,731	-137,659	0,080	-0,006
-140,716	800,000	-0,036	0,088
-139,702	-200,000	0,002	0,010
-138,687	-55,481	-0,139	0,045
-137,672	-200,000	0,003	0,030
-136,658	-58,996	-0,176	0,054
-135,643	43,517	-0,086	-0,057
-134,629	-91,569	-0,111	-0,023
-133,614	333,179	-0,084	0,118
-132,599	-102,425	-0,032	-0,005
-131,585	465,141	-0,020	0,033
-130,570	-9,059	-0,092	-0,044
-129,556	104,438	-0,119	-0,101
-128,541	-200,000	-0,008	0,034
-127,526	110,734	0,092	0,079
-126,512	-45,004	0,013	0,005
-125,497	-200,000	0,014	-0,157
-124,483	53,736	-0,088	-0,061
-123,468	-67,455	-0,066	-0,019
-122,453	800,000	0,019	0,057
-121,439	-200,000	0,035	-0,129
-120,424	-151,276	-0,090	0,005
-119,410	-104,515	0,027	0,004
-118,395	757,911	0,027	0,052
-117,380	-10,343	0,025	0,012
-116,366	-200,000	0,008	-0,109
-115,351	800,000	0,007	0,014
-114,337	-200,000	-0,045	-0,170
-113,322	88,491	-0,069	-0,055
-112,307	-200,000	0,019	0,077
-111,293	248,709	-0,072	0,088
-110,278	-200,000	0,011	0,082
-109,264	-200,000	0,028	-0,103
-108,249	71,067	-0,013	-0,010
-107,234	-200,000	-0,011	-0,175
-106,220	-200,000	0,002	0,100
-105,205	800,000	0,057	-0,127
-104,191	-200,000	-0,002	0,056
-103,176	800,000	0,028	-0,088
-102,162	-21,122	-0,080	0,035
-101,147	-191,874	0,104	0,001
-100,132	-200,000	0,031	-0,171
-99,118	516,556	-0,026	-0,043
-98,103	800,000	-0,037	0,116
-97,089	-84,577	0,118	-0,027
-96,074	36,053	0,046	-0,029
-95,059	800,000	-0,046	-0,097
-94,045	-24,237	-0,244	-0,104
-93,030	-75,375	-0,183	-0,046
-92,016	110,260	0,027	-0,024
-91,001	20,102	0,036	-0,021
-89,986	800,000	0,019	0,048
-88,972	-200,000	0,021	0,072
-87,957	-20,240	-0,050	-0,022
-86,943	-167,146	0,112	0,003
-85,928	636,450	0,055	-0,102
-84,913	-200,000	-0,040	-0,130
-83,899	-58,930	0,142	-0,044
-82,884	231,857	0,054	-0,064
-81,870	-200,000	0,001	-0,077
-80,855	276,764	0,083	0,106
-79,840	800,000	-0,011	-0,033
-78,826	334,934	-0,053	-0,074
-77,811	-80,678	0,115	-0,027
-76,797	-117,919	-0,018	-0,002
-75,782	536,822	0,020	-0,035
-74,767	-117,377	0,066	0,008
-73,753	-200,000	0,001	-0,015
-72,738	-58,870	0,055	0,017
-71,724	-200,000	0,034	-0,108
-70,709	-200,000	0,024	-0,124
-69,694	-39,064	-0,102	0,038
-68,680	800,000	0,038	0,090
-67,665	-120,138	-0,075	-0,009
-66,651	-200,000	-0,010	0,065
-65,636	800,000	-0,024	-0,059
-64,622	-62,085	-0,079	-0,024
-63,607	800,000	0,011	0,026
-62,592	-9,882	-0,062	0,029
-61,578	387,750	0,058	-0,086
-60,563	30,717	0,137	0,084
-59,549	-52,523	-0,085	-0,028
-58,534	32,705	-1,948	-1,207
-57,519	-200,000	-0,167	-0,704
-56,505	-200,000	-1,267	-4,969
-55,490	76,977	0,903	0,687
-54,476	800,000	5,160	11,842
-53,461	-200,000	17,829	289,990
-52,446	800,000	726,354	2231,578
-51,432	537,417	1639,148	2805,449
-50,417	109,804	1629,159	1401,774
-49,403	73,463	1283,146	962,983
-48,388	31,613	1026,136	631,888
-47,373	19,932	988,330	570,124
-46,359	18,304	976,224	557,784
-45,344	15,629	972,294	546,772
-44,330	15,764	970,865	546,388
-43,315	15,363	969,082	544,055
-42,300	15,227	968,260	543,128
-41,286	15,267	967,048	542,557
-40,271	15,251	966,090	541,947
-39,257	15,334	964,996	541,581
-38,242	15,289	964,268	541,005
-37,227	15,317	963,280	540,520
-36,213	15,319	962,592	540,119
-35,198	15,219	961,876	539,374
-34,184	15,282	961,065	539,101
-33,169	15,195	960,200	538,313
-32,154	15,345	959,235	538,233
-31,140	15,304	958,418	537,623
-30,125	15,320	957,597	537,191
-29,111	15,304	956,747	536,643
-28,096	15,313	956,244	536,367
-27,082	15,342	955,252	535,883
-26,067	15,277	954,633	535,304
-25,052	15,297	953,959	534,971
-24,038	15,251	953,254	534,406
-23,023	15,244	952,675	534,040
-22,009	15,297	951,980	533,798
-20,994	15,267	951,466	533,392
-19,979	15,255	950,709	532,909
-18,965	15,340	949,940	532,728
-17,950	15,266	949,571	532,262
-16,936	15,231	948,831	531,715
-15,921	15,220	948,240	531,328
-14,906	15,198	947,365	530,745
-13,892	15,242	946,561	530,414
-12,877	15,148	946,206	529,896
-11,863	15,098	945,681	529,423
-10,848	15,126	944,929	529,069
-9,833	15,327	944,489	529,441
-8,819	15,198	944,069	528,773
-7,804	15,164	943,229	528,175
-6,790	15,144	942,862	527,886
-5,775	15,186	942,220	527,639
-4,760	15,239	941,623	527,451
-3,746	15,185	940,874	526,839
-2,731	15,042	940,299	526,043
-1,717	15,020	939,614	525,570
-0,702	15,034	938,775	525,123
0,313	14,823	938,244	524,954
1,327	18,249	936,216	534,557
2,342	27,458	789,686	475,144
3,356	23,910	444,220	262,009
4,371	-5,652	294,713	144,353
5,386	-9,676	276,322	131,530
6,400	-10,783	270,446	127,697
7,415	-11,260	268,332	126,249
8,429	-11,072	266,823	125,699
9,444	-11,020	265,971	125,334
10,459	-11,008	265,307	125,022
11,473	-11,206	264,692	124,541
12,488	-11,035	264,108	124,410
13,502	-11,265	263,566	123,936
14,517	-11,300	263,287	123,762
15,531	-11,142	262,964	123,741
16,546	-10,894	262,383	123,679
17,561	-11,142	262,043	123,286
18,575	-11,032	261,751	123,236
19,590	-11,305	261,501	122,863
20,604	-11,092	261,185	122,894
21,619	-11,139	260,770	122,646
22,634	-11,183	260,622	122,526
23,648	-11,304	259,943	122,089
24,663	-11,282	259,793	122,027
25,677	-11,183	259,663	122,042
26,692	-11,099	259,467	122,014
27,707	-11,212	259,240	121,796
28,721	-11,193	258,952	121,667
29,736	-11,402	258,655	121,332
30,750	-11,423	258,469	121,215
31,765	-11,238	258,121	121,205
32,780	-11,288	257,844	121,020
33,794	-11,288	257,656	120,920
34,809	-11,373	257,457	120,741
35,823	-11,256	257,072	120,653
36,838	-11,303	256,881	120,511
37,853	-11,412	256,599	120,272
38,867	-11,491	256,319	120,062
39,882	-11,503	256,228	119,998
40,896	-11,438	255,953	119,915
41,911	-11,422	255,574	119,741
42,926	-11,382	255,505	119,732
43,940	-11,436	255,246	119,553
44,955	-11,354	254,902	119,453
45,969	-11,402	254,694	119,304
46,984	-11,673	254,571	118,999
47,999	-11,924	254,286	118,638
49,013	-12,058	254,129	118,438
50,028	-12,090	253,619	118,162
51,042	-12,365	253,587	117,898
52,057	-12,169	253,133	117,846
53,071	-12,161	252,999	117,780
54,086	-11,953	252,873	117,891
55,101	-11,923	252,731	117,840
56,115	-11,845	252,617	117,844
57,130	-11,271	252,537	118,289
58,144	-11,024	252,411	118,433
59,159	-11,090	252,160	118,248
60,174	-11,176	251,952	118,066
61,188	-11,161	251,542	117,876
62,203	-11,110	251,518	117,897
63,217	-11,460	251,243	117,459
64,232	-11,220	251,062	117,569
65,247	-11,320	250,876	117,385
66,261	-11,229	250,698	117,370
67,276	-11,564	250,284	116,880
68,290	-11,675	250,143	116,709
69,305	-11,795	249,815	116,444
70,320	-11,674	249,611	116,441
71,334	-11,619	249,542	116,445
72,349	-11,159	249,435	116,775
73,363	-11,045	249,177	116,741
74,378	-11,112	248,920	116,553
75,393	-11,298	248,662	116,265
76,407	-11,271	248,489	116,196
77,422	-11,421	248,374	116,005
78,436	-11,219	248,207	116,088
79,451	-11,267	247,935	115,910
80,466	-11,320	247,555	115,677
81,480	-11,513	247,459	115,460
82,495	-11,537	247,317	115,363
83,509	-11,341	247,171	115,449
84,524	-11,589	246,894	115,101
85,539	-11,930	246,732	114,729
86,553	-11,715	246,470	114,777
87,568	-11,544	246,215	114,791
88,582	-11,438	246,095	114,814
89,597	-11,818	245,995	114,439
90,611	-11,281	245,707	114,744
91,626	-11,462	245,739	114,597
92,641	-11,338	245,548	114,601
93,655	-11,332	245,189	114,429
94,670	-11,570	245,005	114,135
95,684	-11,634	244,893	114,018
96,699	-11,516	244,632	113,985
97,714	-11,560	244,379	113,820
98,728	-11,717	244,173	113,584
99,743	-11,728	243,877	113,427
100,757	-11,766	243,782	113,341
101,772	-11,741	243,634	113,283
102,787	-11,593	243,380	113,277
103,801	-11,600	243,191	113,173
104,816	-11,459	243,117	113,246
105,830	-11,490	243,048	113,178
106,845	-11,281	242,874	113,259
107,860	-11,314	242,589	113,089
108,874	-11,360	242,393	112,949
109,889	-11,586	242,212	112,669
110,903	-11,446	241,938	112,647
111,918	-11,541	241,883	112,533
112,933	-11,488	241,722	112,492
113,947	-11,600	241,505	112,288
114,962	-11,433	241,348	112,343
115,976	-11,347	241,226	112,345
116,991	-11,324	240,883	112,195
118,006	-11,388	240,928	112,154
119,020	-11,128	240,636	112,220
120,035	-11,214	240,640	112,141
121,049	-11,428	240,411	111,851
122,064	-11,303	240,289	111,886
123,079	-11,166	239,935	111,822
124,093	-11,320	239,695	111,575
125,108	-11,772	239,690	111,196
126,122	-11,852	239,350	110,963
127,137	-11,966	239,113	110,751
128,151	-11,791	239,098	110,875
129,166	-11,532	238,813	110,943
130,181	-11,708	238,582	110,684
131,195	-11,815	238,427	110,516
132,210	-11,615	238,306	110,611
133,224	-11,286	238,146	110,792
134,239	-11,403	237,913	110,580
135,254	-11,300	237,832	110,615
136,268	-11,504	237,639	110,352
137,283	-11,806	237,372	109,975
138,297	-11,903	237,256	109,834
139,312	-11,748	236,765	109,721
140,327	-11,655	236,850	109,825
141,341	-11,188	236,841	110,186
142,356	-11,186	236,762	110,141
143,370	-11,081	236,633	110,155
144,385	-11,121	236,455	110,030
145,400	-11,022	236,139	109,952
146,414	-11,031	236,050	109,894
147,429	-10,810	235,705	109,899
148,443	-11,312	235,674	109,475
149,458	-11,147	235,549	109,539
150,473	-11,194	235,386	109,416
151,487	-11,050	235,070	109,373
152,502	-11,090	234,976	109,288
153,516	-10,947	234,856	109,336
154,531	-11,094	234,605	109,093
155,546	-11,128	234,496	109,006
156,560	-11,387	234,288	108,694
157,575	-11,319	233,920	108,568
158,589	-11,323	234,035	108,608
159,604	-11,003	233,787	108,736
160,619	-10,993	233,715	108,701
161,633	-10,878	233,501	108,683
162,648	-11,105	233,352	108,424
163,662	-11,059	233,200	108,380
164,677	-11,218	232,954	108,132
165,692	-11,188	232,874	108,108
166,706	-10,737	232,741	108,391
167,721	-11,021	232,724	108,150
168,735	-10,916	232,432	108,087
169,750	-11,058	232,323	107,915
170,764	-11,196	232,087	107,688
171,779	-10,882	232,034	107,900
172,794	-10,999	231,867	107,721
173,808	-11,209	231,665	107,454
174,823	-11,538	231,229	106,985
175,837	-11,757	231,163	106,774
176,852	-11,159	230,905	107,111
177,867	-10,993	231,047	107,297
178,881	-11,121	230,836	107,090
179,896	-11,077	230,756	107,077
180,910	-11,001	230,515	107,015
181,925	-10,781	230,354	107,102
182,940	-11,085	230,309	106,835
183,954	-10,853	230,015	106,869
184,969	-10,766	230,061	106,948
185,983	-10,658	229,783	106,893
186,998	-10,765	229,833	106,825
188,013	-10,780	229,447	106,624
189,027	-10,793	229,325	106,547
190,042	-10,884	229,240	106,428
191,056	-10,968	229,035	106,258
192,071	-10,951	228,898	106,199
193,086	-10,806	228,697	106,207
194,100	-10,822	228,430	106,062
195,115	-11,205	228,072	105,592
196,129	-11,357	228,285	105,564
197,144	-5,899	229,943	110,544
198,159	-0,024	231,644	115,916
199,173	2,939	232,366	118,571
200,188	3,273	232,515	118,895
201,202	3,420	232,296	118,887
202,217	3,454	232,186	118,847
203,232	3,813	231,941	118,988
204,246	3,930	231,873	119,033
205,261	3,886	231,761	118,931
206,275	4,099	231,640	119,023
207,290	3,967	231,519	118,849
208,304	3,903	231,360	118,707
209,319	4,022	231,123	118,666
210,334	3,858	231,041	118,488
211,348	3,741	230,741	118,232
212,363	3,577	230,380	117,911
213,377	3,018	230,171	117,365
214,392	3,279	230,058	117,497
215,407	3,302	230,020	117,484
216,421	3,288	229,931	117,418
217,436	3,029	229,663	117,072
218,450	2,810	229,409	116,765
219,465	2,951	229,323	116,818
220,480	2,805	229,319	116,694
221,494	2,721	229,101	116,509
222,509	3,283	228,973	116,863
223,523	3,378	228,723	116,796
224,538	3,050	228,532	116,439
225,553	2,974	228,616	116,413
226,567	3,082	228,405	116,378
227,582	3,490	228,287	116,617
228,596	3,571	228,324	116,688
229,611	3,164	228,014	116,210
230,626	2,996	227,683	115,903
231,640	3,220	227,531	115,985
232,655	3,328	227,595	116,089
233,669	3,567	227,483	116,203
234,684	3,860	227,494	116,420
235,699	3,275	227,157	115,795
236,713	3,269	226,896	115,647
237,728	3,067	226,706	115,388
238,742	2,862	226,629	115,183
239,757	3,005	226,522	115,227
240,772	3,144	226,275	115,195
241,786	3,114	226,097	115,072
242,801	3,358	225,951	115,170
243,815	3,427	225,996	115,235
244,830	3,484	225,801	115,168
245,844	3,314	225,534	114,894
246,859	3,122	225,501	114,723
247,874	3,404	225,322	114,833
248,888	3,604	225,168	114,894
249,903	3,216	225,116	114,567
250,917	3,167	224,929	114,425
251,932	2,936	224,652	114,101
252,947	2,906	224,499	113,991
253,961	2,942	224,226	113,869
254,976	2,987	224,316	113,938
255,990	3,214	224,239	114,058
257,005	3,130	224,046	113,887
258,020	3,213	223,973	113,902
259,034	3,455	223,823	113,995
260,049	3,305	223,631	113,776
261,063	3,452	223,481	113,799
262,078	3,564	223,488	113,876
263,093	3,395	223,193	113,590
264,107	3,476	223,126	113,606
265,122	3,582	222,861	113,539
266,136	3,604	222,850	113,539
267,151	3,528	222,607	113,349
268,166	3,218	222,333	112,971
269,180	3,026	222,126	112,714
270,195	3,145	221,841	112,646
271,209	3,016	221,796	112,519
272,224	2,979	221,792	112,480
273,239	3,412	221,730	112,757
274,253	3,330	221,387	112,512
275,268	3,118	221,196	112,249
276,282	2,817	221,119	111,979
277,297	2,807	221,036	111,920
278,312	2,961	220,883	111,945
279,326	3,223	220,795	112,083
280,341	3,240	220,666	112,020
281,355	3,161	220,485	111,860
282,370	3,255	220,452	111,902
283,384	2,744	220,173	111,377
284,399	3,025	219,943	111,456
285,414	2,961	219,806	111,330
286,428	2,992	219,871	111,375
287,443	3,360	219,799	111,597
288,457	3,135	219,709	111,378
289,472	3,054	219,361	111,132
290,487	2,778	219,120	110,800
291,501	2,744	218,880	110,644
292,516	2,776	218,806	110,620
293,530	2,776	218,833	110,624
294,545	2,935	218,622	110,622
295,560	3,059	218,475	110,628
296,574	3,305	218,387	110,751
297,589	3,319	218,145	110,629
298,603	3,422	218,068	110,655
299,618	3,280	217,899	110,456
300,633	3,144	217,918	110,358
301,647	3,534	217,753	110,546
302,662	3,517	217,653	110,473
303,676	3,215	217,542	110,189
304,691	3,171	217,341	110,046
305,706	3,435	217,194	110,152
306,720	3,209	217,212	109,988
307,735	3,145	216,922	109,786
308,749	3,035	216,839	109,655
309,764	3,330	216,538	109,704
310,779	3,296	216,599	109,702
311,793	3,310	216,383	109,592
312,808	3,193	216,178	109,395
313,822	3,209	216,049	109,331
314,837	2,978	215,997	109,130
315,852	2,872	215,824	108,957
316,866	3,131	215,660	109,049
317,881	3,282	215,512	109,072
318,895	3,364	215,447	109,088
319,910	3,061	215,212	108,744
320,925	2,885	214,951	108,477
321,939	2,555	214,770	108,142
322,954	2,746	214,756	108,261
323,968	3,310	214,778	108,663
324,983	3,080	214,585	108,392
325,997	3,479	214,440	108,592
327,012	3,076	214,341	108,247
328,027	3,209	214,121	108,220
329,041	3,412	213,982	108,284
330,056	3,484	213,899	108,283
331,070	3,216	213,698	107,982
332,085	3,069	213,444	107,741
333,100	3,190	213,441	107,815
334,114	3,487	213,371	107,979
335,129	3,335	213,182	107,767
336,143	3,179	213,056	107,584
337,158	3,127	212,991	107,505
338,173	3,240	212,802	107,480
339,187	3,113	212,500	107,228
340,202	2,921	212,396	107,032
341,216	2,991	212,300	107,023
342,231	2,913	212,298	106,957
343,246	3,055	212,026	106,910
344,260	2,858	211,917	106,708
345,275	3,460	211,719	107,019
346,289	3,474	211,659	106,989
347,304	3,074	211,639	106,690
348,319	3,432	211,327	106,773
349,333	3,067	211,269	106,480
350,348	3,391	211,176	106,650
351,362	3,308	211,115	106,552
352,377	3,366	210,897	106,472
353,392	3,217	210,695	106,257
354,406	3,059	210,680	106,130
355,421	196,283	1339,178	1419,346
356,435	156,807	1476,635	1419,326
