DTS Sentinel unit serial number:	SN410029Multiplexer serial number:	ORYXHardware model number:	OX2-SRSoftware version number:	ORYX F/W v4,00 Oryx Data Collector v3.7.2.0data status	okinstallation	B6 Nyhavnadifferential loss correction	single-endedforward channel	channel 2reverse channel	N/Adate	2023/12/10time	02:35:08forward acquisition time	300,00reverse acquisition time	0,00gamma	499,1914k internal	0,3125k external	0,3125temperature offset calibration	1,0000default loss term (dB/km)	0,3820temperature slope calibration	1,0000multiplexer offset coefficient	1,0000multiplexer slope coefficient	1,0000fibre end	0,00T internal ref (°C)	21,95T ext. ref 1 (°C)	5,79T ext. ref 2 (°C)	5,76length (m)	temperature (°C)	Stokes	anti-Stokes-744,400	70,993	0,092	-0,071
-743,385	-82,867	-0,271	0,065
-742,371	800,000	-0,012	-0,037
-741,356	-64,791	-0,281	0,084
-740,342	24,315	-0,067	-0,041
-739,327	-104,597	-0,200	0,034
-738,312	91,235	-0,050	-0,042
-737,298	93,452	-0,190	0,160
-736,283	-43,829	0,238	0,089
-735,269	-93,261	-0,182	-0,037
-734,254	-127,768	0,108	-0,011
-733,239	-119,965	-0,391	-0,049
-732,225	224,032	0,145	0,175
-731,210	-200,000	-0,050	0,206
-730,196	173,983	-0,075	-0,081
-729,181	-200,000	0,021	-0,143
-728,167	-55,066	0,121	0,040
-727,152	-112,805	0,039	0,006
-726,137	-114,433	-0,100	-0,014
-725,123	6,811	-0,084	-0,046
-724,108	200,069	-0,058	-0,066
-723,094	-147,144	-0,159	-0,010
-722,079	303,845	0,044	-0,061
-721,064	800,000	0,052	-0,134
-720,050	-96,720	-0,115	-0,022
-719,035	104,447	-0,079	-0,069
-718,021	187,752	0,018	0,020
-717,006	-89,839	-0,075	0,016
-715,991	141,545	-0,105	-0,104
-714,977	-200,000	0,026	-0,126
-713,962	67,846	0,057	0,043
-712,948	-200,000	-0,007	-0,034
-711,933	-200,000	0,011	0,039
-710,918	-200,000	-0,002	-0,037
-709,904	49,638	-0,043	0,030
-708,889	106,591	0,091	0,080
-707,875	231,731	-0,129	-0,158
-706,860	-200,000	-0,003	-0,031
-705,845	304,728	0,051	-0,071
-704,831	-200,000	0,002	0,040
-703,816	3,900	-0,082	0,044
-702,802	-121,272	0,136	0,017
-701,787	102,899	-0,118	0,102
-700,772	365,270	0,149	-0,224
-699,758	800,000	0,083	-0,203
-698,743	800,000	0,026	-0,070
-697,729	-135,036	0,079	-0,007
-696,714	-135,102	0,063	-0,006
-695,699	-135,554	-0,154	-0,013
-694,685	-49,177	-0,027	-0,010
-693,670	-148,569	0,052	0,003
-692,656	800,000	0,040	-0,092
-691,641	210,902	0,009	0,011
-690,627	-200,000	-0,001	0,085
-689,612	-78,718	0,038	0,010
-688,597	-147,867	-0,056	0,003
-687,583	-200,000	-0,054	-0,210
-686,568	-200,000	-0,024	-0,096
-685,554	-200,000	-0,001	-0,065
-684,539	-200,000	0,011	0,115
-683,524	800,000	0,029	0,070
-682,510	800,000	-0,020	0,063
-681,495	44,447	-0,097	-0,066
-680,481	190,864	-0,075	-0,084
-679,466	272,278	-0,125	-0,164
-678,451	350,087	0,040	-0,059
-677,437	57,695	0,073	0,053
-676,422	-200,000	0,007	-0,126
-675,408	-140,126	0,015	-0,001
-674,393	-200,000	0,006	0,111
-673,378	740,345	-0,038	-0,076
-672,364	800,000	-0,046	-0,142
-671,349	141,107	0,008	-0,008
-670,335	501,328	-0,054	0,093
-669,320	210,518	0,030	0,035
-668,305	320,206	0,028	0,040
-667,291	98,781	-0,065	-0,055
-666,276	-200,000	-0,040	-0,147
-665,262	-200,000	0,001	0,012
-664,247	-154,927	0,066	-0,003
-663,232	188,956	-0,039	-0,044
-662,218	-121,757	0,028	0,003
-661,203	-186,559	-0,053	-0,001
-660,189	-46,911	-0,060	0,022
-659,174	593,231	0,090	-0,165
-658,159	-200,000	0,004	-0,082
-657,145	800,000	-0,035	-0,083
-656,130	51,148	-0,111	0,078
-655,116	800,000	-0,007	0,021
-654,101	-33,709	0,045	-0,018
-653,086	-200,000	-0,006	0,082
-652,072	-200,000	-0,003	0,039
-651,057	-158,837	-0,130	-0,005
-650,043	7,718	0,105	0,058
-649,028	800,000	0,032	0,068
-648,014	-200,000	-0,001	0,084
-646,999	-128,748	-0,142	-0,015
-645,984	800,000	-0,055	-0,115
-644,970	100,005	0,048	-0,041
-643,955	35,132	-0,104	-0,068
-642,941	371,186	-0,054	-0,082
-641,926	800,000	0,080	-0,176
-640,911	800,000	0,060	-0,125
-639,897	800,000	0,008	-0,024
-638,882	286,885	0,079	-0,106
-637,868	-132,825	0,192	0,018
-636,853	-37,993	-0,067	0,026
-635,838	198,960	-0,050	-0,057
-634,824	-200,000	-0,042	0,140
-633,809	-96,621	0,060	0,012
-632,795	-200,000	0,006	-0,134
-631,780	800,000	0,034	-0,072
-630,765	-17,620	-0,128	-0,059
-629,751	-200,000	-0,003	-0,072
-628,736	-100,938	-0,033	0,006
-627,722	164,985	0,046	0,048
-626,707	9,220	0,025	-0,014
-625,692	-157,437	0,024	0,001
-624,678	-200,000	0,024	0,084
-623,663	308,078	-0,078	-0,109
-622,649	-122,072	0,118	0,014
-621,634	684,621	0,027	-0,052
-620,619	-200,000	0,007	-0,077
-619,605	73,934	0,047	-0,037
-618,590	-144,328	-0,089	-0,006
-617,576	129,196	0,039	-0,037
-616,561	91,260	0,014	-0,012
-615,546	-137,827	0,045	0,004
-614,532	236,766	0,093	0,114
-613,517	69,813	0,030	0,023
-612,503	-200,000	0,014	0,099
-611,488	-200,000	-0,015	-0,132
-610,474	-103,957	-0,068	0,012
-609,459	548,941	0,011	0,020
-608,444	-53,854	-0,132	-0,044
-607,430	-200,000	-0,022	-0,129
-606,415	419,023	0,017	0,027
-605,401	-76,729	-0,054	-0,014
-604,386	-166,761	0,036	-0,001
-603,371	-200,000	0,034	0,141
-602,357	-49,963	-0,115	-0,040
-601,342	-97,251	-0,054	0,010
-600,328	-0,901	-0,065	-0,034
-599,313	-200,000	0,029	-0,099
-598,298	14,953	-0,063	0,036
-597,284	-76,887	0,066	-0,017
-596,269	-56,089	0,063	0,021
-595,255	136,348	-0,079	0,076
-594,240	-72,989	-0,178	0,048
-593,225	800,000	0,036	0,078
-592,211	741,049	0,046	-0,092
-591,196	35,045	-0,097	-0,063
-590,182	476,100	0,007	0,012
-589,167	-11,696	0,112	-0,054
-588,152	-46,033	-0,071	-0,026
-587,138	-200,000	0,014	-0,069
-586,123	-107,095	-0,046	-0,007
-585,109	800,000	-0,064	-0,184
-584,094	-56,432	-0,073	-0,024
-583,079	800,000	-0,038	0,087
-582,065	-200,000	0,016	0,113
-581,050	-200,000	0,005	0,116
-580,036	-200,000	-0,023	-0,105
-579,021	-139,220	-0,135	-0,011
-578,006	800,000	-0,021	-0,052
-576,992	7,634	-0,068	0,038
-575,977	147,658	-0,035	-0,035
-574,963	-88,915	0,147	-0,032
-573,948	226,193	0,056	0,067
-572,934	104,092	-0,071	0,062
-571,919	-90,196	-0,086	-0,018
-570,904	728,495	-0,048	-0,095
-569,890	687,512	0,092	-0,179
-568,875	800,000	0,057	0,129
-567,861	438,603	0,017	-0,028
-566,846	133,339	-0,033	-0,032
-565,831	-200,000	-0,019	0,103
-564,817	209,635	0,100	-0,116
-563,802	48,418	-0,050	-0,035
-562,788	328,357	-0,035	0,049
-561,773	-138,767	-0,118	-0,009
-560,758	419,853	0,074	0,117
-559,744	-200,000	0,014	-0,064
-558,729	-148,069	-0,084	-0,005
-557,715	-120,825	-0,053	0,006
-556,700	-200,000	0,002	-0,100
-555,685	277,413	-0,024	0,032
-554,671	-46,870	-0,084	0,030
-553,656	-121,048	0,042	0,005
-552,642	320,350	-0,006	0,008
-551,627	-122,753	0,107	0,013
-550,612	-78,607	-0,154	0,039
-549,598	800,000	-0,061	-0,137
-548,583	157,665	-0,047	-0,048
-547,569	46,748	0,066	-0,045
-546,554	178,297	0,036	-0,039
-545,539	-200,000	0,014	0,057
-544,525	-117,760	-0,108	0,014
-543,510	1,822	-0,049	-0,026
-542,496	308,280	-0,090	-0,125
-541,481	113,290	0,071	0,064
-540,466	168,560	0,071	-0,075
-539,452	-97,333	0,106	-0,020
-538,437	361,656	0,086	0,128
-537,423	651,902	0,034	0,064
-536,408	-200,000	0,033	-0,140
-535,393	-103,995	-0,053	-0,009
-534,379	329,033	-0,057	0,081
-533,364	-54,462	-0,111	-0,037
-532,350	7,199	0,049	-0,027
-531,335	-53,691	-0,057	-0,019
-530,321	516,384	0,051	0,089
-529,306	-200,000	0,011	0,094
-528,291	-58,130	-0,076	0,024
-527,277	-200,000	0,004	-0,098
-526,262	-200,000	0,016	-0,053
-525,248	-200,000	-0,046	-0,164
-524,233	-2,913	0,109	-0,056
-523,218	507,094	0,013	0,022
-522,204	-200,000	0,016	-0,090
-521,189	76,027	-0,054	0,042
-520,175	-61,631	-0,116	-0,036
-519,160	-116,860	-0,057	-0,008
-518,145	-120,251	0,160	-0,020
-517,131	-120,174	-0,106	0,013
-516,116	-200,000	0,034	0,151
-515,102	426,737	-0,052	0,084
-514,087	800,000	-0,028	-0,059
-513,072	-21,776	-0,101	-0,045
-512,058	558,442	-0,058	-0,104
-511,043	385,266	-0,051	-0,079
-510,029	800,000	0,037	0,097
-509,014	259,200	0,111	-0,141
-507,999	645,740	-0,101	-0,191
-506,985	-200,000	0,018	0,077
-505,970	202,433	-0,070	-0,080
-504,956	182,829	-0,108	-0,118
-503,941	-200,000	-0,014	0,061
-502,926	-131,113	0,118	-0,011
-501,912	27,610	-0,113	0,070
-500,897	-117,436	0,066	0,009
-499,883	800,000	-0,044	-0,108
-498,868	107,477	-0,085	-0,074
-497,853	-200,000	0,051	-0,210
-496,839	-72,457	0,072	0,020
-495,824	-200,000	0,027	0,089
-494,810	-200,000	-0,014	0,065
-493,795	-200,000	-0,001	0,121
-492,781	36,422	-0,111	-0,072
-491,766	-60,272	-0,061	0,019
-490,751	468,556	0,017	0,028
-489,737	-155,381	-0,113	-0,005
-488,722	227,307	0,110	-0,132
-487,708	28,700	0,100	-0,063
-486,693	253,379	0,033	0,042
-485,678	-200,000	-0,017	-0,066
-484,664	-200,000	-0,025	-0,255
-483,649	430,323	-0,081	-0,130
-482,635	617,022	0,048	-0,089
-481,620	-73,524	0,147	0,039
-480,605	-111,709	-0,106	0,016
-479,591	-200,000	0,022	0,097
-478,576	214,647	0,084	-0,099
-477,562	-82,344	-0,114	0,027
-476,547	-66,136	-0,056	-0,016
-475,532	800,000	0,034	-0,085
-474,518	-200,000	0,007	-0,067
-473,503	-145,471	0,167	0,011
-472,489	-69,042	-0,043	-0,012
-471,474	110,595	-0,062	0,055
-470,459	-69,666	0,082	0,023
-469,445	88,332	-0,041	-0,034
-468,430	-62,752	0,081	-0,025
-467,416	484,081	-0,036	-0,060
-466,401	800,000	-0,033	-0,093
-465,386	-51,006	0,099	0,034
-464,372	188,598	-0,067	0,074
-463,357	-152,619	0,066	0,003
-462,343	99,026	0,070	0,059
-461,328	188,079	0,111	-0,122
-460,313	-91,824	0,031	0,006
-459,299	-200,000	-0,030	0,113
-458,284	345,391	0,086	0,125
-457,270	-126,956	-0,139	0,015
-456,255	8,638	-0,168	-0,093
-455,241	800,000	-0,038	-0,099
-454,226	203,694	0,026	-0,029
-453,211	181,651	0,049	-0,053
-452,197	800,000	0,008	0,017
-451,182	50,920	-0,082	0,057
-450,168	143,182	-0,032	0,031
-449,153	-31,712	-0,141	-0,058
-448,138	-181,426	-0,092	0,001
-447,124	-200,000	0,009	-0,114
-446,109	-200,000	-0,006	0,029
-445,095	-59,943	-0,087	0,027
-444,080	259,130	-0,060	0,076
-443,065	800,000	0,061	0,169
-442,051	199,640	-0,086	-0,097
-441,036	-173,117	0,043	0,001
-440,022	95,142	0,044	0,036
-439,007	800,000	-0,038	-0,087
-437,992	235,087	0,060	0,072
-436,978	-22,305	0,046	-0,020
-435,963	298,092	-0,074	0,100
-434,949	170,942	0,083	0,088
-433,934	-200,000	-0,003	-0,150
-432,919	-193,667	0,121	0,001
-431,905	5,916	0,107	0,058
-430,890	-48,705	0,054	-0,019
-429,876	-200,000	0,025	0,096
-428,861	-13,359	0,009	0,004
-427,846	97,674	-0,113	0,096
-426,832	321,149	-0,057	-0,079
-425,817	800,000	-0,053	-0,161
-424,803	-200,000	-0,016	0,104
-423,788	-159,221	0,042	0,002
-422,773	6,020	0,024	0,013
-421,759	103,852	0,074	-0,064
-420,744	5,475	-0,129	0,070
-419,730	212,649	-0,103	-0,120
-418,715	-144,191	-0,064	-0,004
-417,701	-200,000	-0,005	0,107
-416,686	-5,000	0,093	0,047
-415,671	-200,000	0,026	-0,090
-414,657	-69,414	-0,108	-0,030
-413,642	456,180	-0,070	0,115
-412,628	-200,000	-0,005	0,065
-411,613	-200,000	0,009	-0,042
-410,598	-104,218	-0,131	0,022
-409,584	433,576	0,029	0,047
-408,569	-97,811	0,069	0,013
-407,555	-4,240	0,088	0,044
-406,540	-75,559	0,100	-0,026
-405,525	-200,000	-0,009	0,072
-404,511	217,774	-0,053	-0,062
-403,496	-200,000	0,012	-0,124
-402,482	800,000	-0,016	0,049
-401,467	258,744	-0,016	-0,020
-400,452	800,000	0,033	0,070
-399,438	-200,000	-0,004	0,052
-398,423	-200,000	0,001	0,050
-397,409	135,821	0,084	-0,081
-396,394	-101,534	-0,179	-0,032
-395,379	41,441	0,044	-0,029
-394,365	-5,600	0,151	0,076
-393,350	-111,178	0,116	-0,017
-392,336	-155,896	0,080	0,004
-391,321	80,129	-0,019	0,015
-390,306	-200,000	0,007	0,075
-389,292	800,000	-0,032	-0,084
-388,277	-200,000	0,010	-0,035
-387,263	89,980	-0,052	-0,043
-386,248	-57,141	-0,028	-0,009
-385,233	199,263	-0,007	0,008
-384,219	-46,290	-0,060	-0,022
-383,204	105,048	0,093	0,081
-382,190	323,676	-0,058	-0,082
-381,175	121,763	0,099	-0,091
-380,160	1,424	0,116	-0,061
-379,146	101,900	0,073	0,062
-378,131	-59,333	-0,134	0,042
-377,117	-49,674	-0,081	-0,028
-376,102	-121,917	-0,044	-0,005
-375,088	-125,399	-0,041	0,005
-374,073	128,454	0,037	-0,035
-373,058	-93,610	-0,112	-0,022
-372,044	800,000	-0,012	-0,035
-371,029	744,423	0,089	0,177
-370,015	-105,796	0,120	0,020
-369,000	-119,500	-0,067	0,008
-367,985	135,533	0,035	-0,033
-366,971	-27,523	0,058	-0,025
-365,956	0,461	0,094	-0,049
-364,942	299,202	-0,050	0,068
-363,927	-152,091	0,179	-0,009
-362,912	-150,477	-0,113	-0,006
-361,898	-28,415	-0,061	-0,026
-360,883	364,469	-0,046	-0,068
-359,869	-20,249	-0,092	-0,041
-358,854	11,250	0,034	-0,019
-357,839	-200,000	-0,011	0,104
-356,825	-100,292	-0,055	0,010
-355,810	236,805	0,108	0,131
-354,796	800,000	0,024	-0,066
-353,781	-200,000	0,006	0,051
-352,766	800,000	0,019	0,045
-351,752	-142,429	0,120	0,009
-350,737	-200,000	0,025	-0,100
-349,723	167,875	-0,077	0,080
-348,708	1,041	0,178	-0,094
-347,693	800,000	0,054	-0,125
-346,679	619,752	-0,099	-0,183
-345,664	800,000	-0,057	-0,135
-344,650	-124,944	0,025	-0,003
-343,635	136,744	0,110	0,105
-342,620	359,726	0,030	0,044
-341,606	-200,000	-0,005	-0,025
-340,591	-100,695	-0,090	0,016
-339,577	-120,571	-0,030	0,004
-338,562	529,246	0,055	-0,096
-337,548	-89,240	-0,097	0,021
-336,533	-200,000	0,002	-0,051
-335,518	706,508	0,032	0,062
-334,504	101,994	0,037	0,032
-333,489	-200,000	-0,006	0,085
-332,475	800,000	-0,042	0,096
-331,460	-133,235	0,178	0,016
-330,445	-186,472	0,106	0,001
-329,431	413,724	-0,016	0,025
-328,416	368,029	-0,039	0,057
-327,402	-45,666	0,029	0,010
-326,387	736,453	-0,055	0,109
-325,372	-200,000	-0,025	-0,083
-324,358	-105,593	-0,147	0,024
-323,343	-200,000	0,002	-0,016
-322,329	-200,000	-0,013	-0,059
-321,314	-31,891	0,058	0,024
-320,299	-4,472	0,205	0,103
-319,285	-54,331	-0,025	-0,008
-318,270	182,187	-0,075	-0,081
-317,256	588,317	0,032	0,059
-316,241	373,015	-0,019	-0,028
-315,226	-200,000	-0,029	-0,154
-314,212	211,411	0,041	-0,047
-313,197	-158,544	0,070	0,003
-312,183	800,000	-0,008	0,018
-311,168	-20,050	0,053	0,024
-310,153	178,820	0,018	0,019
-309,139	800,000	0,038	-0,090
-308,124	518,444	0,040	-0,069
-307,110	-31,553	0,047	-0,019
-306,095	428,875	0,020	0,032
-305,080	-200,000	-0,026	0,098
-304,066	85,468	-0,025	-0,020
-303,051	368,410	0,023	-0,034
-302,037	-82,091	-0,066	-0,016
-301,022	-200,000	-0,006	0,043
-300,008	124,359	0,054	0,049
-298,993	613,236	-0,040	0,074
-297,978	-17,064	0,021	-0,010
-296,964	-200,000	0,016	-0,063
-295,949	-20,702	-0,034	-0,015
-294,935	800,000	-0,014	0,029
-293,920	800,000	0,040	-0,099
-292,905	-88,061	0,089	0,019
-291,891	800,000	-0,034	0,082
-290,876	-200,000	-0,016	0,117
-289,862	-15,340	-0,094	0,044
-288,847	-0,965	-0,104	0,054
-287,832	-200,000	-0,022	0,079
-286,818	800,000	0,017	0,052
-285,803	-33,435	0,101	0,040
-284,789	109,264	0,043	-0,038
-283,774	92,680	0,047	0,038
-282,759	142,561	0,106	-0,103
-281,745	680,947	-0,056	-0,107
-280,730	-117,306	0,040	-0,005
-279,716	-200,000	-0,013	0,076
-278,701	800,000	0,039	0,112
-277,686	-200,000	0,033	0,226
-276,672	122,801	-0,065	-0,060
-275,657	-174,421	-0,074	-0,002
-274,643	340,919	-0,073	0,105
-273,628	25,584	-0,062	-0,038
-272,613	-200,000	0,013	0,057
-271,599	800,000	-0,004	-0,010
-270,584	142,717	0,092	0,090
-269,570	446,218	0,016	-0,026
-268,555	45,524	-0,076	0,051
-267,540	-84,839	0,032	0,007
-266,526	-68,499	-0,102	0,029
-265,511	259,990	0,049	0,062
-264,497	131,028	-0,105	-0,098
-263,482	67,160	0,068	-0,050
-262,467	800,000	-0,042	0,120
-261,453	800,000	-0,011	0,032
-260,438	91,018	-0,067	0,055
-259,424	613,374	0,060	-0,110
-258,409	-200,000	-0,005	0,092
-257,395	-200,000	0,004	0,018
-256,380	-85,890	0,083	-0,019
-255,365	-83,118	0,073	-0,017
-254,351	-106,120	0,058	0,009
-253,336	-35,233	0,086	-0,034
-252,322	-42,917	0,028	-0,010
-251,307	-39,750	0,104	0,039
-250,292	426,536	0,027	-0,042
-249,278	-200,000	0,002	0,054
-248,263	-91,249	0,132	-0,027
-247,249	348,968	0,137	0,198
-246,234	-23,501	-0,096	-0,042
-245,219	-148,058	0,063	-0,004
-244,205	-81,888	-0,090	-0,021
-243,190	-200,000	-0,022	0,132
-242,176	-200,000	-0,025	0,123
-241,161	-1,401	0,218	0,112
-240,146	87,672	-0,115	0,093
-239,132	-2,902	0,087	0,044
-238,117	-200,000	-0,021	-0,153
-237,103	-40,439	0,166	-0,063
-236,088	-200,000	0,026	0,125
-235,073	350,605	-0,083	0,120
-234,059	-75,180	0,093	-0,024
-233,044	-200,000	0,013	-0,090
-232,030	-200,000	0,005	-0,022
-231,015	49,475	0,112	-0,077
-230,000	-31,148	0,106	0,044
-228,986	110,976	0,039	-0,034
-227,971	-200,000	-0,023	0,083
-226,957	-80,651	-0,087	0,021
-225,942	139,269	0,107	0,102
-224,927	-74,153	-0,055	0,014
-223,913	5,680	-0,151	0,081
-222,898	-76,565	-0,026	0,007
-221,884	163,413	-0,025	0,026
-220,869	73,792	-0,043	0,033
-219,855	395,656	-0,016	0,025
-218,840	-200,000	0,006	0,085
-217,825	-200,000	-0,001	0,147
-216,811	383,222	-0,025	0,037
-215,796	-121,300	-0,057	0,007
-214,782	26,485	-0,065	-0,040
-213,767	-62,484	-0,075	0,023
-212,752	202,447	0,021	0,024
-211,738	78,565	0,097	0,075
-210,723	704,212	0,025	0,048
-209,709	537,121	0,072	0,125
-208,694	-86,065	-0,120	0,027
-207,679	-200,000	-0,001	0,067
-206,665	-200,000	0,046	0,180
-205,650	-42,954	0,074	0,027
-204,636	-200,000	-0,004	-0,105
-203,621	-79,526	-0,118	0,029
-202,606	-200,000	0,035	-0,128
-201,592	800,000	-0,040	-0,086
-200,577	-200,000	-0,012	-0,090
-199,563	50,811	0,101	-0,069
-198,548	10,800	0,122	-0,068
-197,533	775,582	0,019	-0,039
-196,519	50,587	0,132	0,091
-195,504	800,000	-0,078	-0,163
-194,490	-30,300	-0,140	-0,058
-193,475	414,010	-0,084	-0,132
-192,460	-200,000	0,004	-0,049
-191,446	-200,000	0,006	-0,021
-190,431	-200,000	0,000	0,096
-189,417	198,733	-0,056	0,063
-188,402	-200,000	0,014	0,118
-187,387	63,476	0,096	-0,070
-186,373	800,000	-0,017	0,046
-185,358	75,937	-0,086	0,066
-184,344	800,000	0,033	0,088
-183,329	-200,000	0,006	-0,129
-182,315	549,690	0,032	0,056
-181,300	-92,021	-0,100	0,021
-180,285	672,451	0,042	0,079
-179,271	-200,000	0,002	-0,125
-178,256	14,184	-0,052	-0,030
-177,242	-54,729	0,125	0,041
-176,227	-200,000	-0,000	0,149
-175,212	-86,318	0,031	-0,007
-174,198	17,497	-0,078	-0,045
-173,183	780,731	-0,045	-0,091
-172,169	-144,607	0,055	0,004
-171,154	34,748	-0,132	0,084
-170,139	-200,000	0,004	-0,041
-169,125	-200,000	0,043	0,178
-168,110	-200,000	-0,019	0,124
-167,096	-200,000	-0,001	0,094
-166,081	800,000	0,041	0,104
-165,066	-200,000	0,012	-0,046
-164,052	137,112	0,028	-0,026
-163,037	-200,000	-0,017	-0,087
-162,023	24,667	-0,027	-0,016
-161,008	-16,831	-0,024	0,011
-159,993	580,993	0,070	0,125
-158,979	29,957	-0,088	-0,054
-157,964	-134,789	0,095	0,008
-156,950	800,000	-0,038	0,083
-155,935	113,991	0,045	0,040
-154,920	461,781	0,085	0,138
-153,906	6,628	-0,159	0,086
-152,891	26,900	0,094	0,057
-151,877	127,416	0,043	0,040
-150,862	-200,000	-0,005	-0,042
-149,847	161,251	-0,007	0,007
-148,833	-200,000	0,000	-0,050
-147,818	-200,000	-0,002	0,034
-146,804	-19,805	0,039	-0,017
-145,789	-44,163	-0,052	0,019
-144,775	-98,680	-0,076	0,014
-143,760	46,246	0,053	-0,035
-142,745	169,383	-0,063	0,066
-141,731	-200,000	-0,039	-0,149
-140,716	-200,000	0,015	0,079
-139,702	185,180	0,026	0,028
-138,687	111,666	-0,045	0,039
-137,672	166,589	-0,078	0,080
-136,658	-23,888	0,029	-0,013
-135,643	200,992	0,065	-0,073
-134,629	2,980	-0,082	-0,043
-133,614	18,233	0,093	-0,054
-132,599	-43,828	0,035	0,013
-131,585	-200,000	0,004	-0,027
-130,570	174,080	-0,079	-0,083
-129,556	-176,026	-0,195	0,004
-128,541	276,700	0,020	-0,025
-127,526	130,939	-0,058	0,054
-126,512	-200,000	0,021	0,127
-125,497	-200,000	-0,035	-0,139
-124,483	8,717	-0,041	0,022
-123,468	-92,341	0,062	0,013
-122,453	-16,855	-0,112	0,051
-121,439	98,774	-0,088	0,073
-120,424	-110,400	0,051	-0,008
-119,410	537,776	0,024	0,042
-118,395	800,000	0,073	0,168
-117,380	24,544	0,092	-0,055
-116,366	610,592	-0,095	-0,172
-115,351	-24,232	-0,095	-0,041
-114,337	-200,000	0,009	-0,118
-113,322	-200,000	0,000	-0,134
-112,307	-35,642	0,095	0,037
-111,293	149,679	0,099	0,097
-110,278	-37,474	0,133	0,051
-109,264	800,000	-0,030	0,064
-108,249	189,838	-0,099	-0,108
-107,234	363,309	0,004	0,006
-106,220	235,236	-0,018	0,022
-105,205	-200,000	-0,027	-0,181
-104,191	800,000	-0,066	0,146
-103,176	800,000	0,021	0,058
-102,162	306,193	0,019	0,025
-101,147	-144,560	0,088	-0,006
-100,132	800,000	-0,026	-0,053
-99,118	-55,524	0,016	0,005
-98,103	-200,000	0,013	0,106
-97,089	800,000	0,064	0,139
-96,074	-19,967	-0,033	-0,015
-95,059	-200,000	0,003	0,076
-94,045	111,546	-0,043	-0,038
-93,030	242,328	-0,055	-0,067
-92,016	-200,000	0,023	-0,080
-91,001	-123,228	-0,089	-0,010
-89,986	-200,000	0,001	0,038
-88,972	800,000	0,031	-0,085
-87,957	34,148	0,026	0,017
-86,943	-158,259	-0,065	-0,003
-85,928	-51,533	-0,098	-0,033
-84,913	-200,000	0,002	0,013
-83,899	-29,366	-0,042	0,017
-82,884	383,540	0,077	-0,116
-81,870	492,616	0,008	-0,013
-80,855	-200,000	0,001	-0,088
-79,840	-9,287	-0,091	-0,044
-78,826	65,665	-0,030	-0,022
-77,811	-84,513	-0,133	-0,030
-76,797	-17,594	0,170	0,077
-75,782	800,000	0,032	0,086
-74,767	800,000	0,047	-0,103
-73,753	-200,000	-0,011	0,052
-72,738	-155,076	0,062	0,003
-71,724	112,050	0,061	0,054
-70,709	-200,000	0,011	0,087
-69,694	-48,921	-0,139	-0,048
-68,680	8,324	0,075	0,041
-67,665	143,880	0,136	0,132
-66,651	-200,000	-0,001	-0,030
-65,636	-138,689	-0,089	-0,007
-64,622	38,127	-0,096	-0,062
-63,607	64,086	-0,058	0,042
-62,592	161,601	0,093	-0,095
-61,578	127,779	0,038	-0,035
-60,563	-119,834	-0,017	0,002
-59,549	-200,000	0,030	0,163
-58,534	-111,169	-1,502	-0,221
-57,519	613,263	-0,791	-1,443
-56,505	-200,000	-0,845	-4,427
-55,490	-48,871	0,629	-0,217
-54,476	800,000	4,955	11,833
-53,461	-200,000	14,036	253,140
-52,446	-200,000	692,791	2240,092
-51,432	575,456	1623,473	2886,054
-50,417	117,591	1632,978	1457,012
-49,403	72,276	1287,016	971,098
-48,388	37,494	1023,313	656,745
-47,373	23,900	981,257	585,081
-46,359	23,122	970,973	576,376
-45,344	22,177	966,477	570,601
-44,330	22,134	965,099	569,624
-43,315	21,983	963,632	568,243
-42,300	21,968	962,831	567,700
-41,286	21,955	961,674	566,954
-40,271	21,989	960,564	566,388
-39,257	21,994	959,657	565,845
-38,242	21,914	958,935	565,140
-37,227	21,999	957,925	564,795
-36,213	21,956	957,082	564,137
-35,198	21,886	956,278	563,414
-34,184	21,974	955,593	563,274
-33,169	21,968	954,710	562,711
-32,154	21,985	953,718	562,160
-31,140	21,959	952,871	561,553
-30,125	21,974	952,100	561,124
-29,111	21,924	951,454	560,562
-28,096	22,021	950,516	560,297
-27,082	21,954	950,029	559,774
-26,067	21,959	949,088	559,215
-25,052	21,951	948,409	558,765
-24,038	21,966	947,695	558,369
-23,023	22,019	947,113	558,175
-22,009	22,020	946,455	557,769
-20,994	21,988	945,802	557,258
-19,979	22,049	945,176	557,063
-18,965	22,002	944,528	556,508
-17,950	21,989	944,064	556,171
-16,936	21,990	943,056	555,560
-15,921	21,985	942,612	555,261
-14,906	21,929	941,792	554,576
-13,892	21,839	941,335	554,001
-12,877	21,887	940,666	553,735
-11,863	21,800	940,131	553,122
-10,848	21,897	939,454	553,010
-9,833	21,980	939,120	553,053
-8,819	21,957	938,329	552,495
-7,804	21,869	937,675	551,809
-6,790	21,874	937,177	551,511
-5,775	21,891	936,460	551,120
-4,760	21,811	936,038	550,597
-3,746	21,857	935,567	550,444
-2,731	21,699	934,713	549,420
-1,717	21,710	933,698	548,836
-0,702	21,708	933,169	548,496
0,313	21,475	932,705	548,318
1,327	24,590	930,677	556,863
2,342	34,101	794,919	500,926
3,356	31,892	450,969	280,832
4,371	1,116	294,006	152,359
5,386	-3,416	275,069	138,240
6,400	-4,805	269,421	134,099
7,415	-5,100	266,998	132,609
8,429	-4,982	265,788	132,105
9,444	-4,837	264,970	131,818
10,459	-4,798	264,326	131,522
11,473	-4,810	263,708	131,193
12,488	-4,801	263,170	130,921
13,502	-5,048	262,688	130,446
14,517	-4,983	262,260	130,281
15,531	-4,859	261,691	130,098
16,546	-4,971	261,476	129,879
17,561	-4,869	261,144	129,794
18,575	-4,963	260,904	129,578
19,590	-4,972	260,482	129,350
20,604	-5,011	260,279	129,202
21,619	-4,865	259,797	129,082
22,634	-4,636	259,322	129,038
23,648	-5,109	259,175	128,532
24,663	-5,013	258,915	128,477
25,677	-4,882	258,569	128,411
26,692	-4,908	258,498	128,341
27,707	-5,056	258,146	128,023
28,721	-5,083	257,908	127,870
29,736	-5,064	257,464	127,655
30,750	-4,867	257,294	127,734
31,765	-4,964	257,174	127,577
32,780	-4,981	256,868	127,399
33,794	-4,900	256,679	127,366
34,809	-5,036	256,454	127,122
35,823	-5,160	256,252	126,902
36,838	-5,004	255,925	126,865
37,853	-5,159	255,640	126,577
38,867	-5,122	255,430	126,494
39,882	-5,160	255,314	126,392
40,896	-5,162	255,044	126,245
41,911	-5,033	254,945	126,298
42,926	-5,106	254,688	126,096
43,940	-5,128	254,285	125,866
44,955	-5,038	254,185	125,883
45,969	-5,239	253,970	125,590
46,984	-5,509	253,849	125,283
47,999	-5,613	253,445	124,982
49,013	-5,518	253,231	124,948
50,028	-5,630	253,085	124,768
51,042	-5,889	252,697	124,340
52,057	-5,854	252,495	124,260
53,071	-5,851	252,322	124,166
54,086	-5,530	251,976	124,263
55,101	-5,543	251,901	124,204
56,115	-5,303	251,793	124,348
57,130	-5,067	251,794	124,541
58,144	-4,808	251,528	124,622
59,159	-4,833	251,399	124,525
60,174	-4,972	251,240	124,316
61,188	-5,075	251,093	124,143
62,203	-4,680	250,742	124,298
63,217	-4,964	250,499	123,922
64,232	-4,818	250,300	123,938
65,247	-4,699	250,035	123,898
66,261	-4,793	249,903	123,741
67,276	-4,945	249,561	123,431
68,290	-5,355	249,366	122,972
69,305	-5,414	249,168	122,813
70,320	-5,485	249,012	122,664
71,334	-5,281	248,853	122,750
72,349	-5,105	248,693	122,809
73,363	-4,705	248,462	123,025
74,378	-4,834	248,203	122,777
75,393	-4,809	248,078	122,725
76,407	-4,883	247,897	122,562
77,422	-4,839	247,585	122,434
78,436	-5,050	247,388	122,147
79,451	-5,089	247,356	122,087
80,466	-4,956	246,990	122,008
81,480	-5,313	246,813	121,608
82,495	-5,086	246,617	121,692
83,509	-4,989	246,428	121,670
84,524	-5,235	246,358	121,417
85,539	-5,165	245,920	121,249
86,553	-5,278	245,768	121,069
87,568	-5,204	245,611	121,043
88,582	-5,257	245,509	120,937
89,597	-5,115	245,307	120,946
90,611	-5,074	245,106	120,870
91,626	-4,865	245,000	120,983
92,641	-5,159	244,937	120,694
93,655	-5,217	244,610	120,474
94,670	-5,082	244,308	120,427
95,684	-4,885	244,203	120,529
96,699	-5,075	243,970	120,245
97,714	-4,912	243,808	120,290
98,728	-5,154	243,678	120,013
99,743	-5,239	243,323	119,757
100,757	-5,216	243,081	119,646
101,772	-5,160	242,888	119,588
102,787	-5,444	242,975	119,383
103,801	-5,265	242,683	119,378
104,816	-5,100	242,541	119,434
105,830	-5,030	242,460	119,442
106,845	-4,884	242,262	119,455
107,860	-5,020	242,025	119,215
108,874	-5,145	241,952	119,065
109,889	-5,217	241,585	118,814
110,903	-5,129	241,488	118,829
111,918	-5,172	241,226	118,654
112,933	-5,033	241,209	118,749
113,947	-5,348	240,989	118,371
114,962	-5,166	240,868	118,450
115,976	-5,225	240,806	118,361
116,991	-5,343	240,492	118,099
118,006	-5,216	240,208	118,053
119,020	-5,014	240,169	118,189
120,035	-5,093	239,996	118,029
121,049	-4,760	239,853	118,221
122,064	-4,784	239,612	118,072
123,079	-5,238	239,493	117,632
124,093	-5,087	239,186	117,593
125,108	-5,227	238,948	117,352
126,122	-5,431	238,850	117,126
127,137	-5,427	238,614	117,004
128,151	-5,314	238,465	117,012
129,166	-5,340	238,455	116,976
130,181	-5,443	238,239	116,775
131,195	-5,298	237,798	116,667
132,210	-5,153	237,770	116,760
133,224	-4,984	237,820	116,911
134,239	-5,097	237,463	116,634
135,254	-5,002	237,478	116,708
136,268	-5,089	237,291	116,535
137,283	-5,318	236,833	116,115
138,297	-5,410	236,639	115,935
139,312	-5,187	236,365	115,971
140,327	-4,946	236,413	116,178
141,341	-4,687	236,337	116,339
142,356	-4,739	236,304	116,271
143,370	-4,746	236,145	116,176
144,385	-4,730	235,805	116,012
145,400	-4,704	235,746	115,993
146,414	-4,724	235,429	115,811
147,429	-4,907	235,406	115,642
148,443	-4,782	235,323	115,692
149,458	-4,533	235,064	115,753
150,473	-4,811	234,955	115,466
151,487	-4,847	234,692	115,298
152,502	-4,888	234,604	115,212
153,516	-4,840	234,426	115,153
154,531	-4,830	234,193	115,036
155,546	-4,737	233,988	114,999
156,560	-4,830	233,762	114,804
157,575	-5,003	233,595	114,573
158,589	-4,876	233,542	114,638
159,604	-4,807	233,317	114,573
160,619	-4,593	233,067	114,609
161,633	-4,597	233,022	114,574
162,648	-4,690	232,939	114,450
163,662	-4,628	232,679	114,360
164,677	-4,695	232,624	114,270
165,692	-4,640	232,454	114,220
166,706	-4,790	232,457	114,093
167,721	-4,661	232,152	114,034
168,735	-4,561	231,965	114,012
169,750	-4,645	231,831	113,869
170,764	-4,695	231,663	113,737
171,779	-4,758	231,657	113,674
172,794	-4,402	231,339	113,788
173,808	-4,856	231,260	113,383
174,823	-5,229	230,930	112,918
175,837	-5,353	230,711	112,703
176,852	-5,054	230,758	112,950
177,867	-4,915	230,729	113,035
178,881	-4,668	230,400	113,057
179,896	-4,645	230,337	113,034
180,910	-4,692	230,064	112,854
181,925	-4,626	229,950	112,839
182,940	-4,570	229,895	112,846
183,954	-4,681	229,800	112,703
184,969	-4,472	229,498	112,707
185,983	-4,690	229,416	112,487
186,998	-4,393	229,284	112,643
188,013	-4,548	229,251	112,497
189,027	-4,659	228,939	112,247
190,042	-4,470	228,760	112,296
191,056	-4,475	228,606	112,207
192,071	-4,694	228,523	111,986
193,086	-4,453	228,273	112,040
194,100	-4,540	228,015	111,836
195,115	-4,719	227,776	111,571
196,129	-5,313	227,615	111,023
197,144	-3,135	228,358	113,063
198,159	0,791	229,374	116,605
199,173	3,705	230,253	119,307
200,188	4,112	230,115	119,541
201,202	4,125	229,934	119,447
202,217	4,183	229,859	119,442
203,232	4,417	229,910	119,639
204,246	4,402	229,733	119,525
205,261	4,596	229,425	119,504
206,275	4,559	229,438	119,472
207,290	4,800	229,278	119,564
208,304	4,702	229,129	119,400
209,319	4,665	228,917	119,250
210,334	4,503	228,792	119,049
211,348	4,268	228,519	118,716
212,363	3,975	228,284	118,358
213,377	3,715	228,049	118,026
214,392	3,758	227,875	117,958
215,407	3,923	227,681	117,974
216,421	3,906	227,631	117,925
217,436	3,778	227,461	117,727
218,450	3,500	227,284	117,412
219,465	3,598	227,024	117,343
220,480	3,711	226,948	117,379
221,494	3,533	226,788	117,150
222,509	3,784	226,625	117,247
223,523	3,654	226,591	117,119
224,538	3,630	226,445	117,015
225,553	3,821	226,172	117,010
226,567	4,051	225,987	117,078
227,582	4,166	226,114	117,221
228,596	4,027	226,087	117,091
229,611	3,788	225,663	116,680
230,626	3,700	225,564	116,551
231,640	3,661	225,389	116,421
232,655	3,797	225,342	116,489
233,669	4,403	225,221	116,875
234,684	4,323	225,124	116,754
235,699	4,174	224,910	116,520
236,713	3,988	224,593	116,205
237,728	3,927	224,522	116,111
238,742	3,731	224,381	115,880
239,757	3,790	224,111	115,775
240,772	3,697	224,162	115,721
241,786	3,619	223,940	115,537
242,801	3,930	223,820	115,699
243,815	4,000	223,729	115,695
244,830	3,972	223,594	115,594
245,844	3,861	223,452	115,427
246,859	3,869	223,247	115,316
247,874	4,075	223,122	115,396
248,888	4,027	222,926	115,248
249,903	3,818	222,784	115,008
250,917	3,804	222,565	114,874
251,932	3,845	222,460	114,840
252,947	3,625	222,380	114,625
253,961	3,712	222,055	114,511
254,976	3,913	222,021	114,634
255,990	4,234	221,790	114,744
257,005	4,075	221,705	114,571
258,020	3,898	221,759	114,457
259,034	4,390	221,558	114,709
260,049	3,942	221,405	114,286
261,063	3,861	221,248	114,134
262,078	4,191	221,095	114,291
263,093	4,358	221,055	114,383
264,107	4,134	220,929	114,142
265,122	4,068	220,709	113,970
266,136	4,067	220,577	113,890
267,151	4,438	220,356	114,040
268,166	4,099	220,000	113,596
269,180	3,702	219,901	113,242
270,195	3,661	219,837	113,169
271,209	3,529	219,630	112,954
272,224	3,654	219,560	113,001
273,239	3,906	219,429	113,109
274,253	3,615	219,186	112,759
275,268	3,620	219,148	112,734
276,282	3,505	218,808	112,464
277,297	3,571	218,715	112,455
278,312	3,742	218,564	112,493
279,326	3,668	218,666	112,481
280,341	3,592	218,497	112,328
281,355	3,865	218,335	112,435
282,370	4,037	218,081	112,419
283,384	3,708	217,941	112,096
284,399	3,264	217,742	111,660
285,414	3,411	217,671	111,722
286,428	3,864	217,606	112,008
287,443	3,902	217,370	111,904
288,457	3,871	217,310	111,841
289,472	3,805	217,127	111,689
290,487	3,085	216,815	110,996
291,501	3,339	216,756	111,140
292,516	3,332	216,709	111,101
293,530	3,272	216,498	110,939
294,545	3,313	216,324	110,870
295,560	3,865	216,240	111,216
296,574	3,798	216,243	111,159
297,589	3,866	216,077	111,113
298,603	3,914	216,005	111,102
299,618	4,029	215,795	111,066
300,633	3,941	215,624	110,905
301,647	4,093	215,670	111,028
302,662	4,043	215,625	110,960
303,676	3,964	215,333	110,742
304,691	4,135	215,154	110,763
305,706	4,194	215,058	110,746
306,720	4,088	214,931	110,595
307,735	3,755	214,755	110,255
308,749	3,536	214,655	110,037
309,764	3,902	214,502	110,212
310,779	4,105	214,345	110,266
311,793	3,986	214,295	110,145
312,808	3,904	214,011	109,931
313,822	3,989	213,920	109,935
314,837	3,651	213,840	109,643
315,852	3,560	213,654	109,473
316,866	3,930	213,563	109,680
317,881	3,822	213,463	109,542
318,895	4,124	213,312	109,670
319,910	3,793	213,006	109,267
320,925	3,533	212,946	109,042
321,939	3,338	212,640	108,737
322,954	3,543	212,447	108,774
323,968	4,004	212,448	109,092
324,983	4,020	212,442	109,090
325,997	3,922	212,409	108,994
327,012	3,965	212,131	108,872
328,027	3,677	212,142	108,664
329,041	4,176	212,008	108,939
330,056	4,295	211,745	108,878
331,070	4,118	211,525	108,631
332,085	3,601	211,345	108,164
333,100	3,948	211,199	108,324
334,114	3,764	211,197	108,184
335,129	3,676	211,000	108,011
336,143	3,792	210,747	107,954
337,158	3,746	210,879	107,979
338,173	3,752	210,595	107,829
339,187	3,649	210,376	107,635
340,202	3,681	210,218	107,567
341,216	3,256	210,143	107,221
342,231	3,709	209,978	107,444
343,246	3,683	209,939	107,396
344,260	3,366	209,905	107,148
345,275	3,578	209,749	107,206
346,289	3,966	209,574	107,378
347,304	3,851	209,408	107,204
348,319	3,715	209,248	107,018
349,333	3,695	209,309	107,026
350,348	3,830	209,208	107,058
351,362	3,990	209,047	107,078
352,377	4,078	208,862	107,034
353,392	3,977	208,759	106,902
354,406	3,794	208,684	106,727
355,421	193,432	1343,687	1429,590
356,435	154,331	1482,063	1429,689
