DTS Sentinel unit serial number:	SN410029Multiplexer serial number:	ORYXHardware model number:	OX2-SRSoftware version number:	ORYX F/W v4,00 Oryx Data Collector v3.7.2.0data status	okinstallation	B6 Nyhavnadifferential loss correction	single-endedforward channel	channel 2reverse channel	N/Adate	2023/12/08time	06:10:08forward acquisition time	300,00reverse acquisition time	0,00gamma	499,1914k internal	0,3165k external	0,3165temperature offset calibration	1,0000default loss term (dB/km)	0,3820temperature slope calibration	1,0000multiplexer offset coefficient	1,0000multiplexer slope coefficient	1,0000fibre end	0,00T internal ref (°C)	13,00T ext. ref 1 (°C)	-3,82T ext. ref 2 (°C)	-3,80length (m)	temperature (°C)	Stokes	anti-Stokes-744,400	-200,000	-0,005	0,135
-743,385	-135,366	-0,357	0,031
-742,371	-73,028	0,104	-0,028
-741,356	-86,739	-0,226	-0,050
-740,342	-200,000	0,017	0,135
-739,327	-184,246	-0,356	0,004
-738,312	315,230	-0,032	0,045
-737,298	-62,730	-0,293	-0,089
-736,283	84,001	0,175	0,140
-735,269	-115,049	-0,248	0,034
-734,254	237,359	0,107	0,131
-733,239	-103,177	-0,558	-0,096
-732,225	-14,975	0,236	0,111
-731,210	-200,000	0,002	0,149
-730,196	45,844	0,044	-0,030
-729,181	-0,186	0,039	-0,020
-728,167	-200,000	0,005	-0,067
-727,152	-151,945	0,055	0,003
-726,137	146,695	-0,084	-0,083
-725,123	61,580	-0,086	-0,063
-724,108	-200,000	-0,018	-0,099
-723,094	401,695	-0,079	-0,123
-722,079	315,888	-0,122	-0,170
-721,064	36,457	0,061	0,039
-720,050	385,778	0,108	0,165
-719,035	-75,281	-0,208	-0,054
-718,021	800,000	-0,029	-0,081
-717,006	-200,000	0,000	-0,034
-715,991	-200,000	-0,013	-0,089
-714,977	-21,280	-0,111	-0,049
-713,962	359,752	0,078	-0,115
-712,948	-110,028	0,112	0,017
-711,933	16,060	-0,114	0,066
-710,918	-111,849	0,117	0,017
-709,904	245,632	-0,083	-0,103
-708,889	-200,000	0,002	-0,158
-707,875	-200,000	-0,001	-0,035
-706,860	-95,158	-0,131	0,026
-705,845	-200,000	0,005	0,155
-704,831	-123,745	0,057	0,007
-703,816	-200,000	0,012	0,042
-702,802	-200,000	0,028	0,129
-701,787	-41,128	-0,071	-0,027
-700,772	800,000	-0,039	0,089
-699,758	800,000	-0,023	-0,060
-698,743	-200,000	0,024	0,095
-697,729	-200,000	0,023	0,108
-696,714	-119,857	-0,052	0,006
-695,699	-200,000	0,014	-0,145
-694,685	491,258	-0,071	-0,121
-693,670	-32,100	0,057	-0,023
-692,656	-200,000	-0,004	0,074
-691,641	-177,136	-0,066	0,001
-690,627	444,221	-0,011	0,018
-689,612	264,836	-0,113	0,145
-688,597	336,331	0,091	0,130
-687,583	5,095	0,043	0,023
-686,568	170,941	0,021	-0,022
-685,554	800,000	0,025	0,066
-684,539	-75,126	0,061	0,016
-683,524	96,619	0,067	-0,056
-682,510	-142,546	-0,120	0,009
-681,495	213,956	0,082	0,096
-680,481	23,730	-0,041	-0,025
-679,466	441,847	-0,072	-0,116
-678,451	101,062	-0,061	0,052
-677,437	-200,000	-0,009	-0,075
-676,422	437,694	0,030	0,048
-675,408	800,000	-0,016	0,039
-674,393	-151,953	-0,084	0,004
-673,378	-126,673	-0,094	-0,010
-672,364	800,000	0,058	-0,178
-671,349	-31,478	-0,074	0,031
-670,335	800,000	-0,009	0,028
-669,320	-200,000	0,032	-0,104
-668,305	800,000	-0,056	0,159
-667,291	800,000	-0,041	0,097
-666,276	-46,883	-0,060	-0,021
-665,262	-200,000	-0,014	-0,068
-664,247	49,296	-0,102	0,071
-663,232	574,065	-0,007	-0,013
-662,218	-44,278	0,041	0,015
-661,203	-200,000	0,024	-0,105
-660,189	148,561	0,066	-0,066
-659,174	800,000	-0,042	0,086
-658,159	200,311	-0,056	0,063
-657,145	-131,259	-0,189	0,018
-656,130	-60,612	-0,109	0,034
-655,116	-97,231	-0,049	0,009
-654,101	78,428	-0,056	0,044
-653,086	-200,000	-0,003	0,029
-652,072	-200,000	-0,009	-0,062
-651,057	800,000	-0,044	-0,118
-650,043	-96,987	0,092	0,017
-649,028	-142,345	-0,211	-0,015
-648,014	-97,634	0,102	0,019
-646,999	-200,000	-0,003	0,024
-645,984	296,089	0,025	-0,034
-644,970	-97,593	-0,116	-0,022
-643,955	-38,541	-0,079	0,031
-642,941	-33,393	0,077	-0,031
-641,926	-32,436	0,042	-0,017
-640,911	-136,488	0,059	-0,005
-639,897	180,674	0,056	0,060
-638,882	32,503	0,105	0,066
-637,868	-200,000	-0,011	-0,144
-636,853	-40,681	-0,060	-0,023
-635,838	-132,872	-0,069	-0,006
-634,824	271,009	0,087	-0,112
-633,809	-130,581	-0,037	0,004
-632,795	93,223	0,061	0,051
-631,780	-99,899	0,111	-0,020
-630,765	-200,000	0,004	0,186
-629,751	-63,153	-0,065	0,020
-628,736	560,375	-0,072	-0,127
-627,722	799,621	0,021	-0,043
-626,707	652,207	0,051	0,097
-625,692	-53,639	0,076	0,025
-624,678	84,347	0,066	-0,053
-623,663	-200,000	0,029	-0,109
-622,649	-80,157	-0,129	-0,031
-621,634	-89,182	-0,135	0,029
-620,619	-121,824	-0,109	-0,013
-619,605	30,250	0,094	0,058
-618,590	-200,000	0,019	0,079
-617,576	-98,586	-0,068	-0,013
-616,561	419,111	-0,053	-0,084
-615,546	800,000	-0,036	-0,089
-614,532	-200,000	-0,011	-0,085
-613,517	-200,000	0,013	-0,071
-612,503	-200,000	-0,010	0,110
-611,488	5,965	0,089	0,048
-610,474	-75,633	0,247	-0,064
-609,459	347,848	-0,085	-0,122
-608,444	121,701	-0,081	0,074
-607,430	584,310	-0,061	-0,110
-606,415	631,481	0,018	0,034
-605,401	-91,530	-0,107	0,022
-604,386	-200,000	0,003	0,077
-603,371	284,562	-0,032	-0,042
-602,357	-149,170	0,090	-0,005
-601,342	-200,000	0,002	-0,116
-600,328	371,464	-0,064	-0,096
-599,313	-5,045	0,045	-0,022
-598,298	52,999	-0,023	0,016
-597,284	-200,000	0,011	-0,072
-596,269	-129,808	-0,087	-0,009
-595,255	-150,331	-0,076	0,004
-594,240	-143,770	-0,051	0,003
-593,225	26,464	0,056	-0,034
-592,211	-200,000	0,015	-0,052
-591,196	-114,099	-0,103	0,014
-590,182	-56,076	-0,064	-0,021
-589,167	-118,720	0,139	0,018
-588,152	47,048	0,088	0,060
-587,138	164,630	-0,069	-0,071
-586,123	-200,000	0,031	-0,160
-585,109	-40,177	-0,016	-0,006
-584,094	-153,642	0,122	0,006
-583,079	-200,000	0,002	0,038
-582,065	-200,000	0,022	0,081
-581,050	-70,914	0,050	0,014
-580,036	21,083	-0,095	0,056
-579,021	-200,000	0,012	-0,071
-578,006	-200,000	-0,010	0,040
-576,992	35,008	0,150	-0,096
-575,977	-200,000	0,012	-0,107
-574,963	547,067	-0,027	-0,048
-573,948	-58,877	0,133	-0,042
-572,934	137,633	0,054	0,052
-571,919	800,000	-0,054	0,152
-570,904	-12,407	-0,069	0,033
-569,890	-111,936	0,176	-0,026
-568,875	-59,929	0,121	-0,038
-567,861	-158,514	0,029	-0,001
-566,846	-200,000	0,023	0,106
-565,831	800,000	-0,035	0,072
-564,817	244,081	-0,011	-0,013
-563,802	-81,613	0,109	0,026
-562,788	-200,000	0,002	-0,079
-561,773	72,593	0,032	-0,024
-560,758	173,428	-0,076	-0,081
-559,744	-16,664	0,020	-0,009
-558,729	9,246	-0,051	-0,028
-557,715	800,000	0,053	-0,145
-556,700	35,241	0,091	-0,058
-555,685	-200,000	0,014	0,081
-554,671	673,850	-0,021	0,040
-553,656	-95,919	-0,038	-0,007
-552,642	36,749	-0,084	-0,054
-551,627	800,000	-0,053	-0,118
-550,612	771,894	0,004	0,008
-549,598	-2,661	-0,071	-0,036
-548,583	-147,969	-0,045	0,003
-547,569	-60,286	-0,070	0,022
-546,554	-200,000	-0,010	0,106
-545,539	-200,000	0,016	-0,087
-544,525	-200,000	-0,006	0,063
-543,510	-77,302	0,065	-0,016
-542,496	91,132	-0,049	0,040
-541,481	-18,049	0,063	0,029
-540,466	-119,846	0,071	0,009
-539,452	62,205	-0,078	0,057
-538,437	-200,000	-0,018	-0,126
-537,423	-200,000	0,001	0,089
-536,408	-137,354	-0,177	-0,014
-535,393	-200,000	-0,053	-0,180
-534,379	-176,906	0,114	0,002
-533,364	800,000	-0,044	-0,139
-532,350	129,256	-0,032	0,030
-531,335	-200,000	-0,006	0,098
-530,321	-41,664	0,112	-0,042
-529,306	17,380	0,038	-0,022
-528,291	-88,368	-0,031	-0,007
-527,277	800,000	0,031	-0,089
-526,262	800,000	-0,030	-0,093
-525,248	252,900	-0,102	-0,128
-524,233	43,728	0,112	0,075
-523,218	273,184	-0,040	0,052
-522,204	-200,000	-0,003	-0,016
-521,189	-169,638	-0,059	-0,002
-520,175	-48,618	-0,120	-0,042
-519,160	-200,000	-0,008	0,035
-518,145	37,673	0,066	0,043
-517,131	130,292	0,122	-0,114
-516,116	227,485	-0,040	-0,048
-515,102	545,973	0,040	0,070
-514,087	800,000	-0,003	-0,008
-513,072	-200,000	0,023	0,076
-512,058	800,000	-0,057	0,169
-511,043	800,000	-0,042	0,109
-510,029	431,705	0,028	0,044
-509,014	800,000	0,057	0,120
-507,999	303,145	0,070	-0,095
-506,985	327,630	-0,105	-0,148
-505,970	-103,654	-0,115	-0,020
-504,956	78,541	-0,043	-0,033
-503,941	-200,000	-0,008	-0,039
-502,926	-200,000	-0,009	0,082
-501,912	-200,000	0,015	0,048
-500,897	230,408	0,127	-0,151
-499,883	-130,694	-0,117	0,011
-498,868	58,807	-0,087	0,062
-497,853	208,540	0,046	0,052
-496,839	188,198	-0,080	0,087
-495,824	-200,000	-0,019	0,064
-494,810	-200,000	-0,011	-0,037
-493,795	-74,725	-0,061	-0,016
-492,781	-97,131	0,018	0,003
-491,766	0,075	0,054	0,028
-490,751	-94,752	0,113	-0,022
-489,737	3,852	-0,150	0,080
-488,722	800,000	-0,105	0,231
-487,708	407,029	0,114	0,175
-486,693	800,000	-0,079	0,208
-485,678	314,594	0,040	0,054
-484,664	316,850	-0,064	-0,089
-483,649	-109,162	-0,107	0,016
-482,635	3,782	0,076	-0,040
-481,620	116,433	-0,133	-0,119
-480,605	-200,000	-0,043	0,145
-479,591	800,000	0,038	0,078
-478,576	23,372	-0,050	0,030
-477,562	89,397	-0,163	-0,132
-476,547	49,509	-0,108	0,074
-475,532	653,314	0,035	0,067
-474,518	-100,471	0,074	-0,013
-473,503	439,868	0,066	-0,105
-472,489	794,570	-0,014	-0,028
-471,474	-78,630	-0,125	-0,031
-470,459	-141,717	0,063	0,005
-469,445	-74,663	-0,111	0,029
-468,430	-91,371	-0,074	0,015
-467,416	68,120	0,085	-0,063
-466,401	-200,000	0,004	0,057
-465,386	-94,120	-0,032	0,006
-464,372	-200,000	0,019	0,119
-463,357	-146,630	-0,120	-0,007
-462,343	-200,000	0,009	0,059
-461,328	63,182	-0,024	-0,017
-460,313	-200,000	-0,003	-0,056
-459,299	-57,313	0,137	0,043
-458,284	-200,000	-0,043	0,168
-457,270	-169,420	0,124	0,003
-456,255	-116,687	0,038	-0,005
-455,241	-91,776	0,128	0,026
-454,226	-91,390	0,132	-0,027
-453,211	-91,018	-0,005	0,001
-452,197	-157,029	0,032	0,001
-451,182	127,499	-0,049	0,045
-450,168	298,760	-0,076	0,103
-449,153	173,015	0,052	-0,055
-448,138	-37,134	0,071	0,028
-447,124	592,667	-0,021	-0,039
-446,109	23,393	0,081	0,048
-445,095	446,205	0,063	0,101
-444,080	216,548	-0,091	0,106
-443,065	-200,000	-0,003	0,093
-442,051	-181,904	0,105	-0,001
-441,036	442,423	-0,071	0,114
-440,022	-175,732	0,074	-0,001
-439,007	800,000	-0,009	0,025
-437,992	-200,000	0,010	0,035
-436,978	800,000	-0,018	-0,039
-435,963	-105,047	-0,088	-0,014
-434,949	567,306	0,097	-0,173
-433,934	800,000	0,004	-0,013
-432,919	-200,000	0,025	-0,157
-431,905	449,512	-0,070	-0,112
-430,890	-71,850	0,092	0,025
-429,876	800,000	0,027	-0,055
-428,861	-200,000	-0,001	0,097
-427,846	42,498	-0,126	-0,083
-426,832	-114,611	0,087	0,012
-425,817	-200,000	0,020	-0,070
-424,803	31,029	0,114	0,071
-423,788	800,000	0,039	0,104
-422,773	197,652	0,093	0,103
-421,759	18,068	0,070	-0,041
-420,744	-19,369	0,081	0,037
-419,730	-80,074	-0,073	0,018
-418,715	172,162	-0,073	0,076
-417,701	295,324	0,115	0,153
-416,686	136,570	-0,024	0,023
-415,671	97,918	0,016	-0,013
-414,657	60,028	0,068	0,049
-413,642	-45,257	0,095	0,034
-412,628	800,000	-0,039	-0,122
-411,613	-96,010	0,046	-0,009
-410,598	216,846	-0,028	0,032
-409,584	-47,727	-0,040	0,014
-408,569	-100,051	0,104	-0,019
-407,555	-89,559	-0,037	0,008
-406,540	555,473	0,041	-0,073
-405,525	800,000	-0,034	-0,099
-404,511	-141,822	0,096	-0,007
-403,496	151,681	-0,137	-0,136
-402,482	-200,000	0,005	-0,053
-401,467	800,000	-0,028	0,084
-400,452	-200,000	-0,046	0,187
-399,438	473,097	0,044	-0,072
-398,423	-200,000	0,034	0,129
-397,409	-143,888	-0,125	0,008
-396,394	45,817	0,044	-0,029
-395,379	800,000	-0,034	-0,092
-394,365	572,988	0,022	-0,039
-393,350	800,000	0,067	-0,153
-392,336	800,000	-0,018	-0,047
-391,321	51,659	0,111	-0,077
-390,306	-200,000	-0,004	0,062
-389,292	-200,000	0,004	-0,035
-388,277	601,555	0,048	-0,086
-387,263	0,240	-0,016	0,008
-386,248	162,350	0,093	0,095
-385,233	800,000	0,013	0,029
-384,219	-200,000	-0,004	-0,096
-383,204	-29,572	0,059	0,024
-382,190	-90,661	-0,066	0,014
-381,175	-121,841	-0,060	-0,007
-380,160	-126,204	0,035	-0,004
-379,146	-72,650	-0,046	0,012
-378,131	366,635	0,135	0,198
-377,117	384,011	-0,034	-0,052
-376,102	224,329	0,065	-0,076
-375,088	672,366	-0,055	-0,104
-374,073	-200,000	-0,004	-0,058
-373,058	-200,000	0,005	0,095
-372,044	-179,562	0,112	0,002
-371,029	-140,343	-0,068	-0,005
-370,015	2,646	-0,047	0,024
-369,000	800,000	-0,056	-0,121
-367,985	282,300	0,084	-0,109
-366,971	-200,000	0,007	-0,030
-365,956	-200,000	-0,001	0,046
-364,942	-53,647	0,071	0,023
-363,927	-200,000	0,001	0,054
-362,912	124,886	0,036	-0,033
-361,898	450,526	-0,055	-0,088
-360,883	-200,000	0,026	-0,134
-359,869	183,894	-0,066	0,070
-358,854	529,566	0,018	-0,031
-357,839	800,000	0,017	0,039
-356,825	-28,864	-0,076	0,032
-355,810	-200,000	0,006	0,033
-354,796	-173,961	-0,130	-0,003
-353,781	581,032	-0,074	0,132
-352,766	800,000	-0,065	-0,140
-351,752	-163,456	0,051	-0,002
-350,737	-135,019	0,120	0,010
-349,723	30,638	-0,084	0,052
-348,708	-200,000	-0,020	0,088
-347,693	-200,000	-0,033	-0,121
-346,679	100,169	-0,075	0,063
-345,664	-18,605	0,086	0,039
-344,650	-200,000	0,002	-0,011
-343,635	-200,000	0,004	-0,048
-342,620	-151,700	0,173	0,009
-341,606	3,377	-0,064	0,034
-340,591	-61,874	-0,015	0,005
-339,577	-200,000	0,018	0,060
-338,562	29,820	-0,131	-0,080
-337,548	-200,000	0,021	0,136
-336,533	800,000	0,036	0,088
-335,518	-45,733	-0,096	0,034
-334,504	-200,000	0,044	-0,173
-333,489	1,638	0,090	0,047
-332,475	800,000	-0,028	-0,075
-331,460	114,908	-0,092	0,081
-330,445	-200,000	-0,024	-0,078
-329,431	20,133	0,076	0,044
-328,416	17,055	-0,065	-0,037
-327,402	-200,000	0,001	0,073
-326,387	800,000	0,046	0,109
-325,372	-148,204	-0,147	-0,009
-324,358	-103,856	0,018	-0,003
-323,343	-62,326	-0,024	-0,007
-322,329	800,000	0,021	0,061
-321,314	90,848	0,092	0,074
-320,299	307,353	0,030	0,041
-319,285	-41,611	-0,133	0,049
-318,270	-200,000	-0,027	-0,151
-317,256	-47,570	-0,053	0,018
-316,241	-200,000	0,000	0,073
-315,226	264,430	0,046	0,059
-314,212	263,717	0,078	0,098
-313,197	-134,799	0,102	0,009
-312,183	-200,000	-0,006	0,111
-311,168	-200,000	-0,030	-0,137
-310,153	-200,000	-0,021	-0,099
-309,139	277,940	-0,146	-0,188
-308,124	-200,000	0,027	-0,124
-307,110	-74,682	0,171	-0,044
-306,095	-149,983	0,064	-0,004
-305,080	217,582	-0,026	-0,029
-304,066	-54,750	-0,098	0,032
-303,051	-200,000	-0,009	-0,184
-302,037	-101,088	0,065	-0,011
-301,022	-200,000	-0,001	-0,005
-300,008	139,604	0,008	-0,008
-298,993	85,595	0,053	-0,042
-297,978	-69,655	0,062	-0,017
-296,964	18,425	-0,091	0,052
-295,949	-63,444	0,098	0,029
-294,935	-200,000	-0,025	-0,114
-293,920	25,443	0,054	-0,032
-292,905	-200,000	-0,031	0,114
-291,891	-20,230	-0,116	0,051
-290,876	-24,029	0,042	-0,018
-289,862	-200,000	0,007	0,050
-288,847	-151,345	-0,080	0,004
-287,832	800,000	0,045	0,103
-286,818	-200,000	-0,016	0,091
-285,803	110,674	0,045	0,039
-284,789	-191,270	0,226	0,002
-283,774	800,000	-0,039	0,081
-282,759	-84,869	-0,043	0,010
-281,745	272,812	-0,078	-0,099
-280,730	800,000	0,036	-0,085
-279,716	47,813	-0,045	0,030
-278,701	-50,287	0,055	0,019
-277,686	-200,000	0,041	0,155
-276,672	399,683	0,068	0,104
-275,657	-41,917	-0,054	0,020
-274,643	-132,925	-0,195	0,018
-273,628	522,231	-0,027	0,046
-272,613	800,000	-0,057	-0,128
-271,599	-200,000	-0,045	-0,164
-270,584	-200,000	0,008	0,106
-269,570	315,380	-0,069	-0,094
-268,555	183,154	-0,090	0,096
-267,540	72,592	-0,113	0,085
-266,526	800,000	0,042	0,131
-265,511	-200,000	0,006	0,160
-264,497	-150,736	0,102	0,006
-263,482	-74,008	0,114	0,030
-262,467	800,000	0,078	0,177
-261,453	85,517	-0,146	-0,115
-260,438	-98,984	-0,092	-0,017
-259,424	-200,000	-0,019	-0,098
-258,409	-101,561	-0,080	-0,014
-257,395	275,210	0,044	0,056
-256,380	-76,621	0,051	-0,013
-255,365	-200,000	-0,025	0,088
-254,351	0,667	-0,101	-0,052
-253,336	-200,000	0,012	-0,079
-252,322	-126,141	-0,068	0,007
-251,307	-92,992	-0,148	-0,029
-250,292	-175,394	-0,062	0,001
-249,278	800,000	0,057	-0,132
-248,263	800,000	0,008	-0,017
-247,249	-147,816	0,067	0,004
-246,234	-200,000	-0,020	0,085
-245,219	-43,621	0,057	-0,021
-244,205	330,982	0,099	-0,137
-243,190	65,472	0,063	0,046
-242,176	-200,000	0,005	0,068
-241,161	-200,000	0,007	0,097
-240,146	-200,000	0,009	0,073
-239,132	-116,223	-0,054	0,007
-238,117	194,661	-0,095	-0,104
-237,103	28,940	0,156	-0,095
-236,088	-40,681	0,007	-0,003
-235,073	-200,000	-0,013	0,155
-234,059	-33,895	-0,067	-0,027
-233,044	800,000	-0,005	0,015
-232,030	720,230	-0,063	-0,121
-231,015	-179,242	-0,008	-0,000
-230,000	128,290	-0,026	-0,024
-228,986	71,422	0,124	-0,092
-227,971	626,317	-0,024	0,044
-226,957	800,000	0,021	0,058
-225,942	146,880	-0,069	-0,067
-224,927	49,804	0,022	0,015
-223,913	-58,643	0,091	-0,028
-222,898	-26,172	-0,216	-0,091
-221,884	-200,000	-0,020	-0,086
-220,869	800,000	0,004	-0,011
-219,855	-46,839	0,087	0,030
-218,840	419,647	-0,023	-0,036
-217,825	49,420	0,136	-0,092
-216,811	800,000	0,008	-0,017
-215,796	-200,000	0,005	-0,168
-214,782	-92,801	0,207	-0,041
-213,767	-200,000	-0,000	-0,005
-212,752	0,261	0,058	-0,030
-211,738	242,473	-0,054	-0,065
-210,723	800,000	0,014	-0,035
-209,709	-87,995	0,033	-0,007
-208,694	-71,308	-0,109	-0,029
-207,679	-118,141	0,017	0,002
-206,665	182,621	-0,025	-0,027
-205,650	-200,000	0,000	-0,024
-204,636	-200,000	0,015	0,122
-203,621	531,174	-0,016	-0,027
-202,606	6,384	0,067	-0,036
-201,592	48,854	-0,126	0,085
-200,577	439,192	-0,031	-0,049
-199,563	-200,000	-0,001	0,087
-198,548	-121,568	-0,174	-0,021
-197,533	800,000	-0,014	0,037
-196,519	800,000	0,025	0,058
-195,504	800,000	-0,026	0,068
-194,490	-200,000	-0,004	-0,056
-193,475	24,576	-0,071	0,042
-192,460	0,869	-0,034	-0,018
-191,446	45,950	0,043	0,028
-190,431	-200,000	-0,016	0,105
-189,417	-200,000	-0,022	0,136
-188,402	88,366	0,088	-0,071
-187,387	12,734	-0,045	-0,025
-186,373	424,849	-0,033	0,051
-185,358	787,983	-0,036	0,071
-184,344	21,854	0,101	0,059
-183,329	-200,000	0,007	0,094
-182,315	700,581	-0,031	-0,060
-181,300	-68,982	-0,138	-0,038
-180,285	104,643	0,074	-0,063
-179,271	27,642	-0,068	-0,041
-178,256	251,654	-0,012	0,015
-177,242	51,321	0,054	0,037
-176,227	-62,269	0,094	0,028
-175,212	10,031	-0,057	-0,031
-174,198	-200,000	0,022	0,088
-173,183	-200,000	0,019	-0,136
-172,169	-117,702	-0,043	-0,006
-171,154	-101,297	0,190	0,033
-170,139	800,000	0,041	0,109
-169,125	800,000	0,042	0,086
-168,110	2,644	0,063	0,033
-167,096	236,791	-0,040	-0,048
-166,081	-200,000	0,006	0,139
-165,066	498,339	-0,089	-0,147
-164,052	-200,000	-0,023	0,094
-163,037	-168,219	0,119	0,003
-162,023	183,906	-0,043	-0,046
-161,008	561,558	-0,034	-0,059
-159,993	157,501	-0,056	-0,056
-158,979	-200,000	0,020	-0,155
-157,964	644,681	0,044	-0,082
-156,950	-150,161	-0,037	-0,002
-155,935	-45,396	-0,068	-0,024
-154,920	560,537	0,038	0,067
-153,906	524,162	0,034	-0,057
-152,891	261,650	0,108	0,135
-151,877	87,106	0,038	0,030
-150,862	-74,826	-0,167	-0,043
-149,847	515,177	0,035	-0,059
-148,833	-59,854	0,073	0,022
-147,818	69,152	0,049	0,036
-146,804	800,000	0,047	-0,139
-145,789	-200,000	0,000	0,034
-144,775	31,221	0,098	-0,060
-143,760	370,196	0,037	-0,054
-142,745	37,191	0,041	0,026
-141,731	202,158	0,036	0,039
-140,716	113,295	0,095	0,083
-139,702	10,534	-0,088	-0,048
-138,687	146,344	0,066	0,064
-137,672	-86,395	-0,206	-0,045
-136,658	197,685	-0,040	-0,044
-135,643	181,100	-0,087	-0,092
-134,629	33,221	-0,006	0,003
-133,614	800,000	0,041	0,090
-132,599	602,328	-0,032	-0,057
-131,585	-200,000	-0,020	-0,068
-130,570	-17,939	-0,025	0,011
-129,556	81,089	-0,088	-0,068
-128,541	-184,574	0,019	0,000
-127,526	98,162	0,088	-0,073
-126,512	-200,000	0,012	-0,042
-125,497	-200,000	0,005	0,091
-124,483	156,500	0,087	-0,086
-123,468	62,790	0,083	0,060
-122,453	225,683	-0,082	-0,096
-121,439	-97,180	-0,051	-0,010
-120,424	-64,217	0,028	0,008
-119,410	-103,717	0,159	0,026
-118,395	169,186	-0,054	0,055
-117,380	458,890	0,044	0,071
-116,366	-47,787	-0,024	-0,008
-115,351	-175,243	-0,034	-0,001
-114,337	242,788	-0,021	0,026
-113,322	-59,474	0,009	0,003
-112,307	104,305	0,129	-0,109
-111,293	-200,000	-0,007	0,092
-110,278	232,546	0,089	-0,106
-109,264	-154,609	-0,074	-0,003
-108,249	-200,000	0,023	0,111
-107,234	34,418	0,108	0,067
-106,220	-5,719	0,083	-0,041
-105,205	12,658	0,086	-0,048
-104,191	-70,377	-0,062	-0,017
-103,176	341,253	0,097	0,136
-102,162	582,840	0,027	0,047
-101,147	-70,289	0,068	-0,018
-100,132	-200,000	-0,025	-0,124
-99,118	800,000	-0,024	0,055
-98,103	800,000	-0,054	-0,117
-97,089	-117,250	0,153	0,020
-96,074	-200,000	-0,017	0,081
-95,059	557,038	-0,018	0,032
-94,045	-200,000	-0,016	0,068
-93,030	-48,981	-0,058	-0,020
-92,016	-200,000	-0,033	0,165
-91,001	6,768	0,040	0,021
-89,986	-21,831	-0,153	-0,067
-88,972	-68,615	0,152	-0,042
-87,957	-200,000	0,020	-0,086
-86,943	-37,996	0,107	0,041
-85,928	-200,000	0,030	0,171
-84,913	-21,282	-0,140	0,061
-83,899	-200,000	-0,001	0,083
-82,884	800,000	-0,003	0,008
-81,870	-200,000	-0,005	0,020
-80,855	800,000	-0,027	0,077
-79,840	-61,304	0,139	-0,042
-78,826	-200,000	0,002	-0,086
-77,811	800,000	-0,054	-0,119
-76,797	-73,456	-0,084	0,022
-75,782	-153,183	0,035	0,002
-74,767	-42,413	0,118	0,043
-73,753	-86,680	-0,069	-0,015
-72,738	800,000	0,013	-0,038
-71,724	596,629	-0,023	-0,041
-70,709	-106,017	0,059	0,009
-69,694	206,344	0,046	0,051
-68,680	-46,406	0,050	0,017
-67,665	-200,000	0,026	0,142
-66,651	528,919	-0,014	0,023
-65,636	-200,000	-0,019	0,064
-64,622	81,893	-0,059	-0,045
-63,607	800,000	0,050	-0,124
-62,592	-107,330	-0,154	0,024
-61,578	-200,000	-0,016	-0,061
-60,563	-65,416	-0,072	-0,021
-59,549	-49,121	-0,052	-0,018
-58,534	19,770	-2,191	-1,260
-57,519	-200,000	0,091	-0,576
-56,505	-200,000	-1,401	-5,116
-55,490	104,250	0,907	0,764
-54,476	800,000	5,345	12,131
-53,461	-200,000	18,950	321,334
-52,446	800,000	742,456	2324,820
-51,432	547,558	1655,083	2847,628
-50,417	109,541	1637,389	1404,274
-49,403	73,168	1287,723	962,957
-48,388	29,320	1029,448	624,629
-47,373	19,553	992,325	569,820
-46,359	16,805	980,126	553,768
-45,344	13,363	976,642	540,482
-44,330	13,670	974,852	540,479
-43,315	13,048	973,045	537,418
-42,300	13,053	971,892	536,777
-41,286	13,007	970,948	536,083
-40,271	13,035	970,214	535,748
-39,257	12,982	969,220	535,005
-38,242	13,039	968,305	534,666
-37,227	12,944	967,552	533,917
-36,213	13,010	966,739	533,664
-35,198	12,951	965,687	532,869
-34,184	13,062	964,966	532,809
-33,169	12,981	964,046	532,017
-32,154	13,060	962,895	531,619
-31,140	13,045	962,182	531,154
-30,125	13,057	961,431	530,758
-29,111	13,017	960,460	530,073
-28,096	13,038	959,891	529,804
-27,082	13,022	959,282	529,397
-26,067	13,086	958,483	529,140
-25,052	13,042	957,899	528,657
-24,038	13,004	957,197	528,124
-23,023	13,022	956,452	527,750
-22,009	13,043	955,907	527,497
-20,994	13,053	955,221	527,128
-19,979	13,096	954,600	526,904
-18,965	13,061	953,946	526,410
-17,950	13,068	953,457	526,140
-16,936	13,016	952,713	525,543
-15,921	12,975	952,165	525,089
-14,906	12,889	951,456	524,402
-13,892	12,948	950,696	524,150
-12,877	12,902	950,124	523,667
-11,863	12,925	949,378	523,309
-10,848	12,866	948,955	522,865
-9,833	13,046	948,463	523,149
-8,819	13,013	947,584	522,539
-7,804	12,935	946,963	521,925
-6,790	12,945	946,477	521,670
-5,775	13,016	945,780	521,490
-4,760	13,041	945,161	521,209
-3,746	12,955	944,513	520,555
-2,731	12,790	943,976	519,716
-1,717	12,744	943,338	519,199
-0,702	12,756	942,659	518,841
0,313	12,564	942,116	518,719
1,327	16,075	939,794	528,485
2,342	25,302	790,561	468,890
3,356	21,467	444,967	258,207
4,371	-7,870	298,532	143,620
5,386	-11,523	280,283	131,332
6,400	-13,059	274,806	127,312
7,415	-13,072	272,427	126,187
8,429	-13,157	270,745	125,317
9,444	-13,191	269,932	124,898
10,459	-13,191	269,277	124,584
11,473	-13,205	268,691	124,289
12,488	-13,355	268,041	123,840
13,502	-13,632	267,479	123,316
14,517	-13,476	267,138	123,291
15,531	-13,327	266,665	123,197
16,546	-13,399	266,353	122,976
17,561	-13,329	266,027	122,879
18,575	-13,354	265,742	122,713
19,590	-13,452	265,304	122,411
20,604	-13,274	265,045	122,442
21,619	-13,538	264,719	122,042
22,634	-13,314	264,267	122,025
23,648	-13,319	263,936	121,856
24,663	-13,400	263,721	121,674
25,677	-13,564	263,457	121,393
26,692	-13,500	263,206	121,325
27,707	-13,498	262,920	121,183
28,721	-13,607	262,647	120,949
29,736	-13,323	262,279	121,023
30,750	-13,597	261,974	120,627
31,765	-13,455	261,795	120,660
32,780	-13,351	261,714	120,705
33,794	-13,334	261,290	120,514
34,809	-13,481	261,206	120,334
35,823	-13,454	260,949	120,228
36,838	-13,582	260,604	119,945
37,853	-13,736	260,388	119,698
38,867	-13,578	260,226	119,753
39,882	-13,573	260,015	119,649
40,896	-13,671	259,601	119,362
41,911	-13,666	259,466	119,294
42,926	-13,746	259,189	119,085
43,940	-13,703	258,976	119,014
44,955	-13,731	258,760	118,880
45,969	-13,560	258,386	118,848
46,984	-13,973	258,126	118,354
47,999	-14,289	257,994	118,006
49,013	-14,269	257,667	117,863
50,028	-14,463	257,341	117,534
51,042	-14,542	257,076	117,332
52,057	-14,468	256,910	117,311
53,071	-14,323	256,714	117,338
54,086	-14,174	256,439	117,332
55,101	-14,233	256,340	117,224
56,115	-13,913	256,211	117,434
57,130	-13,613	256,149	117,657
58,144	-13,343	255,834	117,737
59,159	-13,324	255,808	117,731
60,174	-13,243	255,509	117,653
61,188	-13,326	255,210	117,433
62,203	-13,469	255,080	117,238
63,217	-13,361	254,906	117,242
64,232	-13,410	254,633	117,063
65,247	-13,277	254,520	117,116
66,261	-13,390	254,112	116,820
67,276	-13,651	253,777	116,431
68,290	-13,832	253,598	116,182
69,305	-14,026	253,383	115,907
70,320	-13,999	253,258	115,862
71,334	-13,493	253,191	116,257
72,349	-13,439	253,060	116,232
73,363	-13,267	252,801	116,251
74,378	-13,506	252,588	115,938
75,393	-13,331	252,336	115,962
76,407	-13,488	252,049	115,685
77,422	-13,522	251,903	115,579
78,436	-13,238	251,511	115,631
79,451	-13,269	251,359	115,524
80,466	-13,426	251,149	115,283
81,480	-13,733	250,988	114,938
82,495	-13,886	250,909	114,761
83,509	-13,767	250,667	114,741
84,524	-13,774	250,317	114,565
85,539	-13,981	250,174	114,313
86,553	-13,826	249,987	114,349
87,568	-13,715	249,702	114,303
88,582	-13,801	249,523	114,138
89,597	-13,809	249,385	114,057
90,611	-13,552	249,299	114,225
91,626	-13,508	248,989	114,111
92,641	-13,690	248,846	113,881
93,655	-13,822	248,701	113,693
94,670	-13,680	248,364	113,649
95,684	-13,463	248,223	113,757
96,699	-13,767	248,150	113,457
97,714	-13,787	247,855	113,296
98,728	-13,714	247,576	113,219
99,743	-13,957	247,414	112,931
100,757	-13,978	247,227	112,818
101,772	-13,910	246,990	112,757
102,787	-13,779	246,775	112,758
103,801	-13,716	246,672	112,753
104,816	-13,634	246,535	112,750
105,830	-13,566	246,306	112,692
106,845	-13,503	246,255	112,711
107,860	-13,494	246,099	112,637
108,874	-13,532	245,646	112,388
109,889	-13,750	245,630	112,189
110,903	-13,788	245,401	112,043
111,918	-13,950	245,215	111,813
112,933	-13,760	245,095	111,906
113,947	-13,628	244,913	111,923
114,962	-13,573	244,724	111,872
115,976	-13,587	244,557	111,774
116,991	-13,590	244,354	111,669
118,006	-13,555	244,091	111,568
119,020	-13,311	243,894	111,669
120,035	-13,789	244,014	111,320
121,049	-13,336	243,634	111,509
122,064	-13,509	243,537	111,312
123,079	-13,712	243,376	111,062
124,093	-13,653	243,017	110,937
125,108	-13,779	242,777	110,714
126,122	-14,033	242,619	110,424
127,137	-14,062	242,411	110,295
128,151	-13,993	242,286	110,285
129,166	-13,960	242,104	110,219
130,181	-13,946	241,795	110,081
131,195	-14,002	241,594	109,934
132,210	-13,722	241,417	110,071
133,224	-13,687	241,392	110,079
134,239	-13,516	241,146	110,096
135,254	-13,671	241,029	109,907
136,268	-13,584	240,710	109,822
137,283	-14,024	240,545	109,379
138,297	-13,989	240,236	109,257
139,312	-14,116	240,149	109,105
140,327	-13,722	240,054	109,372
141,341	-13,081	240,093	109,900
142,356	-13,228	239,824	109,648
143,370	-13,078	239,683	109,695
144,385	-13,194	239,617	109,562
145,400	-13,017	239,301	109,550
146,414	-13,349	239,368	109,302
147,429	-13,117	238,863	109,249
148,443	-13,251	238,923	109,159
149,458	-13,456	238,822	108,938
150,473	-13,216	238,497	108,973
151,487	-13,310	238,326	108,809
152,502	-13,363	238,147	108,675
153,516	-13,276	238,107	108,718
154,531	-13,264	237,825	108,588
155,546	-13,385	237,668	108,410
156,560	-13,254	237,436	108,399
157,575	-13,573	237,252	108,051
158,589	-13,592	237,139	107,975
159,604	-13,288	236,960	108,126
160,619	-13,249	236,742	108,048
161,633	-13,050	236,610	108,137
162,648	-13,048	236,605	108,127
163,662	-13,287	236,264	107,771
164,677	-13,280	236,215	107,744
165,692	-13,306	236,042	107,635
166,706	-13,038	235,812	107,733
167,721	-13,149	235,812	107,636
168,735	-13,028	235,568	107,611
169,750	-13,061	235,372	107,486
170,764	-13,178	235,154	107,284
171,779	-13,309	235,226	107,204
172,794	-13,142	235,020	107,232
173,808	-13,238	234,509	106,913
174,823	-13,813	234,325	106,367
175,837	-13,966	234,162	106,162
176,852	-13,394	234,104	106,578
177,867	-13,158	234,223	106,808
178,881	-12,974	233,905	106,799
179,896	-13,024	233,841	106,720
180,910	-12,942	233,555	106,645
181,925	-13,084	233,426	106,465
182,940	-12,981	233,252	106,457
183,954	-12,957	233,167	106,427
184,969	-13,173	233,058	106,199
185,983	-12,804	232,857	106,387
186,998	-12,915	232,658	106,200
188,013	-12,960	232,573	106,116
189,027	-13,017	232,476	106,018
190,042	-12,823	232,103	105,990
191,056	-12,741	232,020	106,006
192,071	-13,187	232,024	105,651
193,086	-13,075	231,801	105,627
194,100	-12,879	231,570	105,665
195,115	-13,445	231,231	105,061
196,129	-12,920	231,492	105,578
197,144	-7,224	233,377	110,893
198,159	-1,205	235,067	116,424
199,173	2,513	236,091	119,852
200,188	2,911	236,166	120,192
201,202	3,021	235,867	120,116
202,217	3,138	235,907	120,218
203,232	3,333	235,769	120,290
204,246	3,333	235,589	120,187
205,261	3,693	235,444	120,385
206,275	3,768	235,273	120,346
207,290	3,648	235,257	120,233
208,304	3,607	234,946	120,031
209,319	3,587	234,834	119,947
210,334	3,498	234,768	119,833
211,348	3,035	234,394	119,270
212,363	2,711	234,203	118,909
213,377	2,538	233,983	118,653
214,392	2,501	233,975	118,609
215,407	2,666	233,701	118,589
216,421	2,939	233,616	118,747
217,436	2,817	233,461	118,563
218,450	2,539	233,197	118,202
219,465	2,445	233,049	118,044
220,480	2,848	232,696	118,166
221,494	2,353	232,689	117,769
222,509	2,850	232,695	118,147
223,523	2,754	232,523	117,974
224,538	2,620	232,369	117,782
225,553	2,703	232,215	117,757
226,567	2,814	231,997	117,722
227,582	3,177	231,922	117,954
228,596	3,051	231,918	117,844
229,611	2,795	231,727	117,539
230,626	2,675	231,371	117,256
231,640	2,640	231,178	117,120
232,655	2,992	231,108	117,345
233,669	3,294	231,144	117,585
234,684	3,418	230,955	117,573
235,699	3,090	230,740	117,202
236,713	2,957	230,580	117,008
237,728	2,777	230,257	116,696
238,742	2,628	230,123	116,504
239,757	2,813	230,049	116,598
240,772	2,781	229,850	116,462
241,786	2,959	229,757	116,540
242,801	2,863	229,775	116,466
243,815	3,155	229,698	116,639
244,830	3,352	229,317	116,585
245,844	2,612	229,354	116,030
246,859	2,895	229,107	116,110
247,874	3,114	228,857	116,139
248,888	3,158	228,679	116,072
249,903	2,854	228,660	115,821
250,917	2,999	228,552	115,867
251,932	2,797	228,328	115,590
252,947	2,677	228,127	115,387
253,961	2,432	228,037	115,146
254,976	2,680	227,869	115,237
255,990	2,909	227,708	115,319
257,005	3,079	227,619	115,392
258,020	2,956	227,439	115,198
259,034	3,018	227,354	115,191
260,049	2,884	227,238	115,021
261,063	3,022	227,022	115,005
262,078	3,184	226,938	115,074
263,093	3,163	226,867	115,012
264,107	3,306	226,577	114,963
265,122	3,082	226,639	114,816
266,136	3,287	226,521	114,900
267,151	3,132	226,302	114,662
268,166	2,795	225,944	114,218
269,180	2,477	225,646	113,819
270,195	2,597	225,578	113,864
271,209	2,811	225,355	113,902
272,224	2,853	225,402	113,946
273,239	2,806	225,198	113,798
274,253	2,660	225,161	113,661
275,268	2,456	224,833	113,333
276,282	2,467	224,645	113,236
277,297	2,681	224,453	113,289
278,312	2,605	224,608	113,300
279,326	2,940	224,315	113,391
280,341	3,006	224,281	113,412
281,355	2,851	224,123	113,207
282,370	2,931	223,961	113,175
283,384	2,493	223,596	112,656
284,399	2,742	223,411	112,737
285,414	2,786	223,371	112,739
286,428	2,917	223,301	112,791
287,443	3,005	223,322	112,856
288,457	3,072	223,187	112,828
289,472	2,743	222,771	112,364
290,487	2,110	222,680	111,842
291,501	2,048	222,568	111,730
292,516	2,575	222,194	111,920
293,530	2,275	222,310	111,748
294,545	2,627	222,102	111,892
295,560	2,514	222,097	111,797
296,574	2,718	221,939	111,857
297,589	2,645	221,793	111,720
298,603	2,784	221,716	111,772
299,618	2,963	221,558	111,814
300,633	2,786	221,403	111,597
301,647	2,866	221,278	111,582
302,662	3,201	221,265	111,810
303,676	2,910	221,097	111,503
304,691	3,092	221,035	111,594
305,706	3,289	220,605	111,511
306,720	2,893	220,609	111,215
307,735	2,863	220,217	110,986
308,749	2,778	220,210	110,910
309,764	2,862	220,075	110,893
310,779	2,887	220,153	110,941
311,793	2,771	219,823	110,681
312,808	2,820	219,764	110,676
313,822	2,859	219,588	110,606
314,837	2,899	219,394	110,528
315,852	2,520	219,275	110,184
316,866	3,085	219,058	110,473
317,881	2,942	219,111	110,387
318,895	2,925	218,774	110,195
319,910	2,745	218,586	109,960
320,925	2,660	218,419	109,805
321,939	2,136	218,358	109,388
322,954	2,451	218,192	109,522
323,968	2,775	218,130	109,713
324,983	2,648	218,054	109,574
325,997	3,099	217,939	109,831
327,012	3,038	217,688	109,650
328,027	2,972	217,647	109,573
329,041	3,256	217,574	109,730
330,056	3,165	217,393	109,563
331,070	3,045	217,025	109,282
332,085	2,869	216,803	109,035
333,100	2,710	216,835	108,928
334,114	2,760	216,629	108,851
335,129	2,593	216,342	108,578
336,143	2,757	216,487	108,758
337,158	3,162	216,322	108,953
338,173	3,023	216,201	108,784
339,187	2,641	216,083	108,443
340,202	2,716	215,918	108,404
341,216	2,474	215,738	108,132
342,231	2,667	215,542	108,161
343,246	2,583	215,455	108,048
344,260	2,777	215,464	108,181
345,275	3,041	215,410	108,331
346,289	3,062	215,221	108,242
347,304	2,935	214,991	108,026
348,319	2,859	214,742	107,838
349,333	2,972	214,614	107,843
350,348	2,965	214,640	107,842
351,362	3,176	214,544	107,933
352,377	2,847	214,345	107,591
353,392	2,868	214,167	107,507
354,406	2,923	213,925	107,415
355,421	197,226	1314,037	1392,378
356,435	157,818	1448,008	1392,312
