DTS Sentinel unit serial number:	SN410029Multiplexer serial number:	ORYXHardware model number:	OX2-SRSoftware version number:	ORYX F/W v4,00 Oryx Data Collector v3.7.2.0data status	okinstallation	B6 Nyhavnadifferential loss correction	single-endedforward channel	channel 2reverse channel	N/Adate	2023/12/11time	03:10:08forward acquisition time	300,00reverse acquisition time	0,00gamma	499,1914k internal	0,3123k external	0,3123temperature offset calibration	1,0000default loss term (dB/km)	0,3820temperature slope calibration	1,0000multiplexer offset coefficient	1,0000multiplexer slope coefficient	1,0000fibre end	0,00T internal ref (°C)	21,35T ext. ref 1 (°C)	4,15T ext. ref 2 (°C)	4,18length (m)	temperature (°C)	Stokes	anti-Stokes-744,400	-200,000	0,028	-0,206
-743,385	-96,483	-0,263	0,051
-742,371	145,833	-0,016	-0,016
-741,356	136,316	-0,098	0,095
-740,342	-39,390	0,134	0,052
-739,327	-89,968	-0,199	0,043
-738,312	-112,740	-0,130	-0,019
-737,298	-22,578	-0,239	0,107
-736,283	-200,000	-0,007	0,068
-735,269	20,451	-0,284	0,171
-734,254	-117,086	0,165	-0,022
-733,239	-109,922	-0,312	0,048
-732,225	-109,478	0,130	0,020
-731,210	-200,000	0,001	0,035
-730,196	-121,815	-0,114	-0,014
-729,181	-43,083	-0,052	0,019
-728,167	794,491	0,044	-0,091
-727,152	708,786	-0,067	0,133
-726,137	800,000	-0,037	-0,082
-725,123	-200,000	-0,005	0,053
-724,108	-89,673	-0,281	-0,061
-723,094	-159,548	-0,057	0,002
-722,079	451,932	-0,027	-0,045
-721,064	-56,280	-0,025	-0,008
-720,050	172,397	0,072	0,077
-719,035	5,990	-0,134	-0,073
-718,021	-171,525	-0,174	0,004
-717,006	549,825	-0,014	-0,026
-715,991	372,994	-0,074	-0,112
-714,977	526,528	0,067	0,118
-713,962	15,900	-0,136	-0,079
-712,948	276,958	0,014	0,018
-711,933	800,000	-0,040	-0,106
-710,918	800,000	-0,017	-0,042
-709,904	266,614	-0,015	0,020
-708,889	354,096	-0,071	-0,106
-707,875	205,069	0,070	0,081
-706,860	-64,408	0,083	-0,025
-705,845	-200,000	-0,003	-0,022
-704,831	800,000	0,024	0,058
-703,816	800,000	-0,010	-0,031
-702,802	-29,751	0,005	0,002
-701,787	-6,833	-0,076	-0,038
-700,772	-111,606	-0,026	0,004
-699,758	800,000	0,039	0,089
-698,743	800,000	0,034	0,103
-697,729	258,883	-0,025	0,033
-696,714	-106,965	-0,055	0,009
-695,699	-200,000	-0,004	-0,064
-694,685	252,494	-0,090	-0,115
-693,670	-40,906	-0,097	-0,037
-692,656	330,017	0,014	0,020
-691,641	91,310	-0,029	0,025
-690,627	89,539	-0,073	0,061
-689,612	-200,000	-0,001	-0,127
-688,597	-200,000	-0,091	0,000
-687,583	611,372	-0,111	-0,207
-686,568	34,833	-0,084	-0,055
-685,554	800,000	-0,042	-0,098
-684,539	608,916	0,033	0,062
-683,524	30,741	0,074	0,047
-682,510	-200,000	-0,030	-0,114
-681,495	-200,000	-0,007	0,085
-680,481	-200,000	0,031	-0,176
-679,466	387,977	-0,126	-0,194
-678,451	51,615	-0,047	0,033
-677,437	-51,003	0,145	0,050
-676,422	0,622	0,028	-0,015
-675,408	-200,000	0,007	-0,112
-674,393	-200,000	0,010	0,059
-673,378	452,468	-0,095	-0,157
-672,364	96,343	-0,072	0,061
-671,349	-200,000	-0,043	0,146
-670,335	196,019	0,060	-0,068
-669,320	800,000	0,021	-0,068
-668,305	-3,571	0,098	0,051
-667,291	8,818	-0,128	0,071
-666,276	-200,000	-0,018	-0,100
-665,262	-137,946	-0,067	-0,006
-664,247	800,000	0,024	0,055
-663,232	312,108	0,054	-0,076
-662,218	774,131	-0,013	-0,027
-661,203	-200,000	0,001	0,123
-660,189	34,359	0,034	0,022
-659,174	-66,060	-0,107	-0,031
-658,159	-9,967	0,038	-0,019
-657,145	-74,614	-0,154	-0,041
-656,130	386,448	-0,059	-0,091
-655,116	154,530	-0,041	-0,042
-654,101	-46,966	-0,016	0,006
-653,086	-29,253	0,107	-0,045
-652,072	264,268	0,037	0,047
-651,057	484,328	0,061	-0,103
-650,043	147,189	-0,136	0,136
-649,028	33,709	-0,047	0,030
-648,014	-158,036	-0,218	-0,009
-646,999	53,286	-0,121	-0,086
-645,984	-200,000	-0,007	-0,027
-644,970	55,884	0,097	0,070
-643,955	800,000	0,022	0,047
-642,941	800,000	0,024	-0,059
-641,926	-120,253	-0,146	-0,018
-640,911	-8,246	-0,137	-0,068
-639,897	-38,367	-0,100	0,039
-638,882	-118,218	0,112	-0,015
-637,868	-200,000	0,005	-0,109
-636,853	-200,000	-0,015	-0,221
-635,838	369,461	0,086	-0,130
-634,824	-153,034	-0,055	-0,003
-633,809	-85,011	0,029	0,007
-632,795	149,833	0,014	-0,014
-631,780	383,293	0,062	-0,095
-630,765	-19,914	0,048	-0,022
-629,751	784,453	0,053	-0,108
-628,736	32,911	-0,142	-0,091
-627,722	84,374	0,074	-0,060
-626,707	706,808	0,018	-0,035
-625,692	-200,000	0,006	0,064
-624,678	477,016	0,021	0,035
-623,663	800,000	-0,014	0,035
-622,649	-200,000	0,004	-0,137
-621,634	62,998	0,015	0,011
-620,619	154,390	-0,040	-0,040
-619,605	296,524	0,060	-0,082
-618,590	730,835	-0,041	-0,081
-617,576	800,000	0,045	0,144
-616,561	-200,000	0,023	-0,114
-615,546	222,957	0,020	-0,024
-614,532	310,664	-0,120	-0,167
-613,517	-200,000	0,013	-0,136
-612,503	-198,731	0,133	-0,001
-611,488	163,069	0,015	-0,016
-610,474	381,490	0,033	-0,051
-609,459	-5,263	-0,038	-0,019
-608,444	-74,430	-0,037	0,010
-607,430	-200,000	0,023	-0,113
-606,415	-96,520	0,101	-0,020
-605,401	85,831	-0,047	-0,038
-604,386	-49,993	0,023	0,008
-603,371	734,948	0,096	0,191
-602,357	146,532	0,032	-0,032
-601,342	-200,000	0,007	0,032
-600,328	-8,099	0,075	-0,037
-599,313	800,000	-0,035	-0,073
-598,298	412,637	-0,044	0,070
-597,284	641,826	-0,034	0,064
-596,269	-20,218	-0,057	0,026
-595,255	-41,010	0,134	0,051
-594,240	-90,187	0,060	0,013
-593,225	-47,677	-0,159	0,057
-592,211	278,410	-0,103	-0,136
-591,196	-105,151	0,105	0,018
-590,182	-200,000	-0,018	0,086
-589,167	-200,000	-0,012	0,082
-588,152	711,463	0,033	0,064
-587,138	256,371	-0,059	0,076
-586,123	800,000	-0,006	0,015
-585,109	800,000	-0,024	-0,055
-584,094	331,765	-0,031	-0,044
-583,079	19,042	0,052	0,031
-582,065	449,336	-0,054	-0,089
-581,050	115,974	-0,075	-0,068
-580,036	216,374	-0,076	0,090
-579,021	626,062	0,022	-0,042
-578,006	159,686	-0,024	0,025
-576,992	191,310	0,064	-0,072
-575,977	-15,742	0,136	-0,064
-574,963	-105,362	0,042	0,007
-573,948	-167,533	0,100	-0,003
-572,934	-141,224	0,054	-0,004
-571,919	-200,000	-0,001	0,055
-570,904	228,225	-0,051	-0,061
-569,890	95,837	-0,069	-0,058
-568,875	-200,000	-0,003	0,060
-567,861	308,352	-0,029	0,040
-566,846	23,591	-0,044	-0,027
-565,831	-129,910	-0,079	-0,008
-564,817	438,267	-0,081	-0,131
-563,802	800,000	-0,038	-0,118
-562,788	663,904	0,050	-0,095
-561,773	214,691	-0,070	0,082
-560,758	28,862	-0,045	0,028
-559,744	-200,000	0,001	0,050
-558,729	294,221	-0,050	-0,067
-557,715	130,256	-0,077	0,073
-556,700	659,311	0,023	0,044
-555,685	210,312	0,071	0,083
-554,671	-200,000	0,016	0,056
-553,656	800,000	-0,051	0,168
-552,642	720,250	0,021	0,041
-551,627	-200,000	0,000	-0,068
-550,612	-62,601	-0,090	-0,028
-549,598	-166,683	-0,061	0,002
-548,583	-155,792	-0,069	0,003
-547,569	-200,000	0,030	0,114
-546,554	-200,000	0,005	0,052
-545,539	-19,332	0,048	0,022
-544,525	86,353	-0,087	0,071
-543,510	-200,000	-0,003	0,025
-542,496	189,254	-0,045	-0,050
-541,481	800,000	-0,060	-0,142
-540,466	800,000	-0,027	-0,070
-539,452	43,095	-0,067	-0,045
-538,437	-91,349	0,052	0,011
-537,423	-200,000	0,045	0,171
-536,408	-171,713	-0,111	0,003
-535,393	142,838	-0,058	-0,057
-534,379	800,000	-0,079	-0,188
-533,364	800,000	0,069	-0,207
-532,350	800,000	0,039	0,096
-531,335	264,662	0,112	0,144
-530,321	-200,000	-0,000	-0,017
-529,306	-106,270	0,088	-0,014
-528,291	-25,316	-0,005	0,002
-527,277	-129,954	0,058	0,006
-526,262	211,043	0,049	-0,058
-525,248	-111,615	0,112	-0,017
-524,233	134,373	-0,060	0,058
-523,218	55,281	-0,089	0,064
-522,204	306,017	0,090	0,124
-521,189	800,000	0,032	-0,083
-520,175	-200,000	0,010	-0,201
-519,160	-105,077	-0,115	0,019
-518,145	-117,976	-0,032	0,004
-517,131	800,000	-0,058	0,175
-516,116	-200,000	-0,015	0,144
-515,102	454,808	0,011	-0,018
-514,087	-200,000	0,004	0,083
-513,072	-150,210	0,086	-0,005
-512,058	-200,000	-0,002	-0,049
-511,043	181,512	-0,022	0,024
-510,029	-200,000	-0,009	-0,035
-509,014	-129,648	-0,078	-0,008
-507,999	205,399	0,054	-0,062
-506,985	50,773	-0,086	-0,060
-505,970	800,000	0,020	-0,045
-504,956	-133,588	-0,027	0,002
-503,941	-10,635	-0,089	-0,043
-502,926	-24,660	0,048	0,021
-501,912	198,628	0,035	0,040
-500,897	413,250	0,032	0,050
-499,883	149,369	-0,005	0,005
-498,868	-200,000	0,030	-0,135
-497,853	251,856	-0,063	-0,080
-496,839	800,000	-0,068	-0,163
-495,824	-110,708	0,079	-0,012
-494,810	-64,560	-0,106	-0,032
-493,795	-164,993	0,095	0,003
-492,781	533,783	0,058	0,102
-491,766	-106,374	-0,101	-0,016
-490,751	-134,034	0,112	0,010
-489,737	66,850	0,111	-0,083
-488,722	-52,406	0,062	-0,021
-487,708	234,126	-0,022	-0,027
-486,693	123,123	0,009	0,008
-485,678	477,441	0,016	0,027
-484,664	-200,000	-0,001	-0,121
-483,649	-26,550	-0,053	0,023
-482,635	-200,000	0,011	-0,084
-481,620	800,000	0,024	-0,057
-480,605	279,129	-0,050	0,067
-479,591	-200,000	-0,021	0,071
-478,576	-106,214	0,127	0,021
-477,562	362,519	-0,060	-0,089
-476,547	-147,585	-0,049	-0,003
-475,532	800,000	0,036	0,100
-474,518	217,701	0,081	-0,095
-473,503	-71,295	0,129	-0,035
-472,489	800,000	-0,029	0,090
-471,474	-132,459	-0,049	-0,005
-470,459	781,535	0,023	0,046
-469,445	-200,000	-0,002	-0,147
-468,430	308,102	0,086	-0,118
-467,416	-147,067	0,027	-0,002
-466,401	-200,000	0,001	0,051
-465,386	-140,937	0,105	-0,008
-464,372	-96,655	-0,084	-0,016
-463,357	15,617	0,138	0,080
-462,343	800,000	-0,027	-0,059
-461,328	82,878	-0,098	-0,079
-460,313	83,532	0,018	-0,015
-459,299	3,427	-0,051	0,027
-458,284	79,920	-0,036	-0,029
-457,270	216,165	0,146	0,172
-456,255	-48,688	0,082	-0,029
-455,241	-152,633	0,055	0,003
-454,226	800,000	-0,020	0,053
-453,211	-24,664	0,135	0,059
-452,197	83,210	0,015	0,012
-451,182	800,000	0,049	0,115
-450,168	11,403	0,111	0,062
-449,153	-137,011	0,125	0,010
-448,138	170,040	-0,118	0,125
-447,124	800,000	-0,047	-0,107
-446,109	493,225	0,018	0,031
-445,095	-18,150	-0,072	0,033
-444,080	178,231	0,041	0,044
-443,065	-166,538	-0,084	0,003
-442,051	-116,993	-0,067	-0,009
-441,036	217,870	0,131	-0,154
-440,022	45,552	0,080	-0,054
-439,007	758,793	-0,011	-0,023
-437,992	207,475	0,049	0,057
-436,978	-31,449	-0,114	0,047
-435,963	-85,348	0,041	0,009
-434,949	-200,000	0,031	-0,127
-433,934	-9,220	-0,063	-0,031
-432,919	26,687	-0,071	0,044
-431,905	800,000	-0,025	-0,063
-430,890	-71,538	0,078	0,021
-429,876	800,000	-0,019	-0,040
-428,861	185,420	-0,029	0,031
-427,846	190,461	-0,054	0,060
-426,832	-117,313	0,072	-0,009
-425,817	-111,512	0,092	-0,014
-424,803	-200,000	-0,018	0,062
-423,788	722,792	-0,045	0,088
-422,773	46,845	-0,036	-0,025
-421,759	-77,159	0,123	-0,031
-420,744	70,553	-0,060	-0,046
-419,730	-112,467	0,045	0,006
-418,715	-149,759	-0,071	0,004
-417,701	-12,760	-0,141	-0,067
-416,686	-71,629	-0,060	0,016
-415,671	-200,000	-0,006	0,052
-414,657	437,877	0,054	-0,087
-413,642	-43,803	-0,126	0,046
-412,628	550,558	0,045	-0,080
-411,613	-200,000	0,008	-0,049
-410,598	-104,640	-0,007	0,001
-409,584	96,149	-0,021	0,018
-408,569	800,000	0,024	0,051
-407,555	456,721	0,093	0,152
-406,540	-105,450	-0,103	-0,017
-405,525	328,374	0,032	0,045
-404,511	-155,657	0,029	0,001
-403,496	582,363	0,072	-0,131
-402,482	800,000	-0,054	0,147
-401,467	-164,744	0,030	-0,001
-400,452	-10,875	-0,049	-0,024
-399,438	-63,172	0,083	-0,025
-398,423	-117,229	0,161	0,021
-397,409	-154,386	0,093	-0,005
-396,394	-11,749	-0,126	-0,061
-395,379	-122,018	0,088	0,010
-394,365	-7,039	0,074	0,037
-393,350	800,000	-0,008	-0,022
-392,336	61,226	-0,086	0,063
-391,321	356,170	0,021	0,030
-390,306	331,635	-0,034	0,048
-389,292	-129,721	-0,081	0,008
-388,277	-200,000	0,004	0,081
-387,263	-22,386	0,106	0,047
-386,248	44,184	0,008	0,006
-385,233	-120,107	0,161	-0,020
-384,219	-107,746	0,107	-0,017
-383,204	-46,296	-0,166	-0,059
-382,190	-177,972	0,110	0,002
-381,175	125,286	0,022	0,021
-380,160	-57,611	0,074	0,024
-379,146	-13,385	0,043	0,020
-378,131	756,337	-0,024	-0,048
-377,117	-124,567	-0,018	-0,002
-376,102	214,421	-0,062	-0,072
-375,088	-86,345	0,089	-0,020
-374,073	340,087	-0,043	0,062
-373,058	171,893	0,042	0,044
-372,044	120,423	-0,137	0,125
-371,029	102,685	0,078	0,067
-370,015	-200,000	0,023	0,094
-369,000	-200,000	-0,039	-0,134
-367,985	-200,000	0,012	-0,090
-366,971	800,000	0,035	0,095
-365,956	100,667	0,078	0,066
-364,942	-200,000	0,005	-0,041
-363,927	6,460	-0,100	0,054
-362,912	-101,599	0,059	-0,010
-361,898	800,000	0,037	-0,098
-360,883	800,000	0,007	-0,021
-359,869	216,788	0,041	0,047
-358,854	254,102	-0,049	0,062
-357,839	-171,786	0,076	-0,002
-356,825	15,190	0,110	0,063
-355,810	414,451	-0,098	-0,154
-354,796	800,000	0,037	-0,101
-353,781	-200,000	-0,001	-0,209
-352,766	-200,000	-0,002	-0,089
-351,752	36,095	-0,043	-0,027
-350,737	66,969	-0,058	0,043
-349,723	-171,499	0,097	-0,002
-348,708	800,000	0,046	0,105
-347,693	78,127	-0,044	-0,034
-346,679	789,004	0,021	-0,042
-345,664	-169,537	-0,080	0,002
-344,650	-200,000	-0,010	-0,099
-343,635	-61,850	0,045	-0,014
-342,620	-98,452	0,156	0,029
-341,606	800,000	0,032	-0,072
-340,591	574,756	-0,063	0,112
-339,577	800,000	-0,017	-0,046
-338,562	-7,114	0,068	0,034
-337,548	-189,305	0,109	-0,001
-336,533	-200,000	0,031	0,116
-335,518	770,549	0,035	0,070
-334,504	424,176	-0,045	-0,071
-333,489	-97,648	0,048	0,009
-332,475	97,137	-0,139	-0,117
-331,460	800,000	-0,041	-0,089
-330,445	-200,000	-0,033	-0,245
-329,431	286,188	0,045	0,060
-328,416	52,939	-0,107	0,075
-327,402	-200,000	0,033	0,119
-326,387	16,113	-0,155	-0,089
-325,372	800,000	-0,015	0,045
-324,358	62,076	-0,109	0,080
-323,343	-98,957	0,048	-0,009
-322,329	64,910	0,075	-0,055
-321,314	491,351	0,037	0,063
-320,299	446,341	0,056	0,090
-319,285	419,636	0,078	-0,123
-318,270	-200,000	0,009	-0,078
-317,256	800,000	-0,032	-0,088
-316,241	-200,000	0,001	0,060
-315,226	29,526	0,062	-0,038
-314,212	800,000	0,033	0,104
-313,197	-200,000	-0,014	0,086
-312,183	-147,806	-0,099	0,006
-311,168	-200,000	-0,021	0,125
-310,153	311,217	0,050	-0,069
-309,139	-200,000	-0,004	-0,165
-308,124	-39,847	-0,050	0,019
-307,110	266,882	0,048	0,062
-306,095	133,013	-0,044	0,042
-305,080	725,112	0,041	0,081
-304,066	191,066	-0,012	0,013
-303,051	800,000	0,026	-0,065
-302,037	-123,051	-0,046	0,005
-301,022	800,000	0,030	0,097
-300,008	800,000	0,060	0,133
-298,993	-200,000	0,010	0,144
-297,978	-200,000	0,026	0,155
-296,964	28,206	-0,162	0,100
-295,949	800,000	0,035	0,100
-294,935	-200,000	0,023	-0,179
-293,920	-7,996	-0,088	0,043
-292,905	19,215	0,108	-0,063
-291,891	61,232	-0,023	-0,017
-290,876	-69,163	-0,069	-0,019
-289,862	247,511	-0,034	-0,042
-288,847	179,638	0,048	0,052
-287,832	39,882	0,066	-0,044
-286,818	-62,183	0,082	-0,025
-285,803	-200,000	-0,035	0,135
-284,789	-200,000	0,008	0,128
-283,774	-6,740	-0,075	-0,037
-282,759	-200,000	0,014	-0,076
-281,745	-141,834	-0,129	0,009
-280,730	127,956	-0,020	0,019
-279,716	136,060	-0,094	0,090
-278,701	-28,525	0,118	0,050
-277,686	27,618	0,084	0,052
-276,672	-75,048	0,020	0,005
-275,657	800,000	0,027	-0,067
-274,643	800,000	0,048	-0,099
-273,628	-39,072	-0,163	-0,062
-272,613	-56,590	0,157	0,050
-271,599	800,000	0,029	0,086
-270,584	335,919	0,072	0,103
-269,570	-200,000	0,007	-0,039
-268,555	262,899	0,011	0,014
-267,540	465,151	0,014	0,022
-266,526	9,323	-0,051	-0,028
-265,511	437,831	0,044	-0,071
-264,497	241,153	-0,073	0,090
-263,482	-77,612	-0,152	0,038
-262,467	316,989	0,088	0,121
-261,453	386,010	-0,016	0,024
-260,438	88,808	-0,075	-0,061
-259,424	193,099	0,079	-0,087
-258,409	800,000	-0,040	-0,102
-257,395	139,205	0,034	0,033
-256,380	800,000	-0,055	0,139
-255,365	529,757	0,024	0,041
-254,351	121,515	-0,002	-0,002
-253,336	124,335	-0,066	-0,061
-252,322	800,000	-0,046	-0,110
-251,307	50,323	0,072	-0,050
-250,292	2,528	0,073	-0,038
-249,278	-184,797	0,191	0,002
-248,263	-200,000	-0,037	0,129
-247,249	-200,000	-0,002	-0,018
-246,234	-71,848	0,050	0,013
-245,219	-59,890	-0,070	0,022
-244,205	800,000	-0,030	-0,081
-243,190	-200,000	0,012	0,110
-242,176	571,171	-0,028	-0,049
-241,161	330,890	0,015	-0,021
-240,146	-200,000	0,003	-0,039
-239,132	78,894	0,014	0,011
-238,117	86,583	-0,095	-0,077
-237,103	-200,000	0,014	-0,079
-236,088	-49,270	0,021	0,007
-235,073	-103,877	-0,087	0,015
-234,059	-200,000	0,024	0,093
-233,044	350,031	0,086	0,125
-232,030	800,000	-0,018	-0,045
-231,015	384,346	0,022	0,034
-230,000	191,129	-0,070	0,077
-228,986	-200,000	-0,003	-0,016
-227,971	115,433	0,104	0,092
-226,957	66,478	0,094	0,070
-225,942	18,338	-0,075	-0,044
-224,927	-179,232	-0,204	-0,003
-223,913	-200,000	-0,014	0,073
-222,898	317,493	-0,029	0,041
-221,884	224,795	-0,059	-0,070
-220,869	30,868	0,067	0,042
-219,855	-46,803	0,007	0,002
-218,840	800,000	0,043	0,090
-217,825	-102,300	-0,105	-0,018
-216,811	800,000	0,015	-0,036
-215,796	-123,236	-0,075	-0,009
-214,782	202,763	-0,033	-0,038
-213,767	-200,000	-0,010	0,132
-212,752	-110,415	0,079	0,012
-211,738	-200,000	-0,016	-0,058
-210,723	134,066	0,012	-0,012
-209,709	40,582	-0,044	0,029
-208,694	-41,325	0,027	-0,010
-207,679	-148,339	0,054	-0,003
-206,665	-8,277	-0,067	-0,033
-205,650	-200,000	0,005	-0,025
-204,636	507,702	-0,082	0,140
-203,621	86,733	-0,081	0,065
-202,606	-200,000	-0,030	-0,146
-201,592	-200,000	0,017	-0,118
-200,577	592,490	0,046	-0,083
-199,563	-200,000	0,043	0,170
-198,548	-160,710	0,119	-0,005
-197,533	39,161	0,132	0,086
-196,519	-73,694	-0,180	0,047
-195,504	800,000	-0,042	0,103
-194,490	554,163	-0,032	-0,056
-193,475	800,000	-0,032	-0,093
-192,460	7,477	0,164	0,089
-191,446	-200,000	0,023	0,239
-190,431	575,292	0,061	0,109
-189,417	-200,000	0,016	-0,086
-188,402	-163,231	-0,160	-0,006
-187,387	-200,000	-0,002	0,042
-186,373	70,074	-0,098	0,073
-185,358	-64,430	-0,116	0,034
-184,344	177,689	-0,024	0,025
-183,329	-60,201	-0,032	0,010
-182,315	-116,882	-0,063	-0,008
-181,300	-200,000	0,010	-0,057
-180,285	-200,000	-0,019	-0,192
-179,271	-200,000	-0,044	-0,189
-178,256	-200,000	-0,000	-0,006
-177,242	-52,735	-0,148	0,050
-176,227	-149,205	0,139	-0,008
-175,212	181,252	0,041	0,044
-174,198	-200,000	0,013	0,058
-173,183	-15,927	-0,195	-0,090
-172,169	508,181	-0,061	-0,104
-171,154	123,935	0,105	0,096
-170,139	-4,293	0,017	-0,009
-169,125	24,956	0,113	0,068
-168,110	162,581	0,064	-0,066
-167,096	25,524	0,022	0,013
-166,081	-76,316	-0,047	0,012
-165,066	38,632	-0,090	0,058
-164,052	57,113	0,056	0,040
-163,037	-200,000	-0,025	0,109
-162,023	-200,000	-0,002	0,149
-161,008	-51,415	-0,054	-0,018
-159,993	-24,755	0,067	0,029
-158,979	240,499	-0,066	0,081
-157,964	-154,611	-0,043	-0,002
-156,950	516,017	-0,057	-0,097
-155,935	-200,000	-0,013	-0,051
-154,920	-92,840	0,047	-0,009
-153,906	-25,701	-0,124	0,053
-152,891	-200,000	0,009	-0,046
-151,877	-200,000	0,005	0,020
-150,862	-49,589	-0,113	-0,039
-149,847	129,871	0,084	0,078
-148,833	42,303	-0,069	0,046
-147,818	-200,000	-0,010	-0,133
-146,804	45,427	-0,030	0,020
-145,789	-200,000	-0,049	-0,175
-144,775	-11,148	-0,088	0,042
-143,760	800,000	0,025	-0,081
-142,745	91,184	0,126	-0,103
-141,731	-200,000	0,008	-0,027
-140,716	43,550	0,096	0,064
-139,702	-95,086	0,053	0,010
-138,687	-58,650	-0,040	-0,013
-137,672	-200,000	-0,018	-0,059
-136,658	395,320	-0,029	0,045
-135,643	93,898	0,031	-0,025
-134,629	-200,000	0,013	-0,064
-133,614	800,000	0,034	0,083
-132,599	139,645	0,103	0,098
-131,585	-200,000	-0,016	0,108
-130,570	800,000	0,045	-0,096
-129,556	368,965	0,077	-0,114
-128,541	-75,923	0,021	-0,005
-127,526	-200,000	0,038	-0,124
-126,512	-67,144	0,156	-0,044
-125,497	-92,674	-0,034	0,007
-124,483	-200,000	-0,005	-0,088
-123,468	55,249	0,082	-0,058
-122,453	400,492	-0,027	-0,041
-121,439	650,121	-0,042	0,079
-120,424	136,993	-0,020	-0,019
-119,410	-0,288	-0,123	0,063
-118,395	613,725	0,025	-0,046
-117,380	65,062	0,017	-0,013
-116,366	219,491	-0,093	-0,109
-115,351	123,469	0,112	-0,102
-114,337	-68,574	-0,172	0,048
-113,322	633,246	0,015	-0,028
-112,307	143,683	-0,042	-0,041
-111,293	424,524	-0,042	0,066
-110,278	-36,598	0,035	0,014
-109,264	-200,000	-0,026	0,120
-108,249	-162,378	-0,075	0,003
-107,234	-20,820	-0,141	-0,063
-106,220	-37,457	-0,106	-0,041
-105,205	-200,000	0,016	-0,220
-104,191	-7,612	0,135	0,066
-103,176	-34,423	0,078	-0,031
-102,162	-200,000	-0,019	-0,101
-101,147	186,092	0,042	0,045
-100,132	278,690	0,015	0,020
-99,118	-200,000	-0,013	-0,048
-98,103	-161,267	0,048	0,002
-97,089	297,653	0,123	0,165
-96,074	107,579	0,121	0,105
-95,059	32,662	0,033	0,021
-94,045	-200,000	-0,022	0,099
-93,030	47,055	-0,139	-0,094
-92,016	412,665	-0,057	-0,089
-91,001	-200,000	0,038	-0,158
-89,986	62,923	-0,049	-0,035
-88,972	180,922	0,076	0,081
-87,957	56,042	0,106	0,075
-86,943	-100,450	-0,138	0,025
-85,928	-62,187	-0,061	-0,018
-84,913	800,000	-0,015	-0,046
-83,899	-110,741	-0,115	0,017
-82,884	-0,877	-0,025	-0,013
-81,870	-67,229	-0,076	-0,022
-80,855	-91,375	0,051	-0,010
-79,840	-200,000	0,005	-0,053
-78,826	-200,000	-0,009	-0,149
-77,811	55,920	0,064	-0,045
-76,797	-200,000	0,023	-0,081
-75,782	109,064	0,068	-0,059
-74,767	-152,764	-0,164	-0,008
-73,753	205,071	0,026	-0,029
-72,738	-45,234	0,083	0,030
-71,724	-200,000	-0,009	0,066
-70,709	60,647	0,067	0,048
-69,694	-200,000	0,042	0,197
-68,680	223,994	0,038	0,044
-67,665	33,007	-0,043	0,027
-66,651	263,380	0,027	0,034
-65,636	-161,568	0,090	0,003
-64,622	144,938	-0,052	-0,051
-63,607	-162,132	0,128	-0,005
-62,592	601,341	-0,068	-0,123
-61,578	-106,837	-0,040	-0,006
-60,563	-200,000	0,040	0,186
-59,549	-200,000	0,016	0,093
-58,534	-121,636	-1,340	-0,159
-57,519	698,163	-0,709	-1,359
-56,505	-200,000	-0,859	-4,480
-55,490	-103,421	0,690	-0,117
-54,476	800,000	5,025	11,744
-53,461	-200,000	14,398	260,649
-52,446	-200,000	695,664	2265,885
-51,432	585,806	1623,642	2908,624
-50,417	118,773	1632,921	1463,459
-49,403	75,601	1286,879	985,052
-48,388	37,760	1024,290	658,671
-47,373	23,515	983,112	585,261
-46,359	22,719	972,370	576,227
-45,344	21,589	968,149	570,006
-44,330	21,585	966,637	569,078
-43,315	21,393	965,114	567,532
-42,300	21,406	964,105	566,960
-41,286	21,400	963,241	566,409
-40,271	21,371	961,952	565,535
-39,257	21,376	961,088	565,019
-38,242	21,377	960,266	564,518
-37,227	21,418	959,326	564,076
-36,213	21,319	958,712	563,372
-35,198	21,314	957,505	562,623
-34,184	21,374	956,950	562,470
-33,169	21,345	956,090	561,846
-32,154	21,402	955,199	561,485
-31,140	21,424	954,148	560,918
-30,125	21,400	953,645	560,522
-29,111	21,373	952,789	559,907
-28,096	21,356	952,033	559,387
-27,082	21,430	951,342	559,198
-26,067	21,379	950,705	558,636
-25,052	21,408	949,902	558,237
-24,038	21,403	949,312	557,852
-23,023	21,411	948,604	557,438
-22,009	21,433	947,963	557,110
-20,994	21,420	947,379	556,703
-19,979	21,426	946,678	556,289
-18,965	21,427	946,080	555,920
-17,950	21,425	945,310	555,439
-16,936	21,335	944,782	554,816
-15,921	21,310	944,239	554,398
-14,906	21,241	943,460	553,698
-13,892	21,286	942,733	553,394
-12,877	21,195	942,223	552,781
-11,863	21,271	941,460	552,553
-10,848	21,297	941,020	552,356
-9,833	21,343	940,549	552,203
-8,819	21,333	939,886	551,761
-7,804	21,229	939,293	551,062
-6,790	21,273	938,730	550,847
-5,775	21,306	938,004	550,504
-4,760	21,278	937,499	550,097
-3,746	21,308	936,776	549,746
-2,731	21,124	936,200	548,804
-1,717	21,107	935,324	548,217
-0,702	21,166	934,602	547,958
0,313	20,897	934,184	547,690
1,327	24,038	932,144	556,338
2,342	33,440	795,486	499,828
3,356	30,815	452,060	280,052
4,371	-0,158	295,429	151,893
5,386	-4,373	276,495	138,127
6,400	-6,262	270,731	133,469
7,415	-6,576	268,292	131,964
8,429	-5,942	267,251	132,025
9,444	-6,019	266,377	131,511
10,459	-5,888	265,776	131,323
11,473	-5,799	264,935	130,977
12,488	-6,071	264,612	130,557
13,502	-6,134	264,083	130,227
14,517	-6,038	263,821	130,174
15,531	-5,870	263,394	130,104
16,546	-5,816	263,077	129,985
17,561	-5,588	262,702	129,995
18,575	-5,565	262,332	129,821
19,590	-5,764	262,078	129,504
20,604	-5,516	261,863	129,610
21,619	-5,669	261,368	129,215
22,634	-5,734	261,160	129,043
23,648	-5,620	260,686	128,900
24,663	-5,904	260,722	128,650
25,677	-5,773	260,291	128,543
26,692	-5,735	259,977	128,411
27,707	-5,622	259,638	128,333
28,721	-5,745	259,451	128,119
29,736	-5,666	259,193	128,051
30,750	-5,652	258,925	127,920
31,765	-5,784	258,746	127,703
32,780	-5,935	258,647	127,508
33,794	-5,610	258,189	127,560
34,809	-5,952	258,220	127,259
35,823	-5,745	257,903	127,276
36,838	-5,890	257,573	126,973
37,853	-5,719	257,356	127,006
38,867	-6,027	257,146	126,619
39,882	-5,798	256,817	126,648
40,896	-6,063	256,708	126,348
41,911	-5,824	256,415	126,403
42,926	-5,924	256,134	126,166
43,940	-5,968	256,199	126,148
44,955	-5,987	255,771	125,910
45,969	-5,807	255,475	125,910
46,984	-6,103	255,365	125,585
47,999	-6,393	254,994	125,136
49,013	-6,220	254,828	125,196
50,028	-6,290	254,458	124,942
51,042	-6,592	254,297	124,587
52,057	-6,565	253,926	124,417
53,071	-6,372	253,790	124,509
54,086	-6,324	253,666	124,478
55,101	-6,221	253,441	124,446
56,115	-6,181	253,426	124,463
57,130	-5,974	253,333	124,587
58,144	-5,654	253,090	124,734
59,159	-5,558	252,881	124,704
60,174	-5,841	252,708	124,362
61,188	-5,865	252,377	124,167
62,203	-5,736	252,197	124,179
63,217	-5,692	252,087	124,152
64,232	-5,656	251,939	124,099
65,247	-5,816	251,449	123,709
66,261	-5,762	251,453	123,747
67,276	-5,924	251,159	123,450
68,290	-6,101	250,916	123,167
69,305	-6,290	250,561	122,819
70,320	-6,102	250,588	122,984
71,334	-6,015	250,470	122,990
72,349	-5,735	250,351	123,161
73,363	-5,649	249,915	123,009
74,378	-5,765	249,858	122,871
75,393	-5,561	249,569	122,893
76,407	-5,932	249,429	122,495
77,422	-5,702	249,148	122,542
78,436	-5,742	248,971	122,411
79,451	-5,822	248,656	122,177
80,466	-5,852	248,484	122,055
81,480	-5,888	248,232	121,891
82,495	-5,851	248,207	121,898
83,509	-6,049	247,994	121,614
84,524	-6,076	247,789	121,481
85,539	-6,018	247,549	121,401
86,553	-6,070	247,285	121,217
87,568	-6,076	247,256	121,186
88,582	-5,936	247,045	121,191
89,597	-5,933	246,815	121,069
90,611	-5,840	246,574	121,019
91,626	-5,844	246,577	121,007
92,641	-5,932	246,311	120,792
93,655	-5,895	246,091	120,704
94,670	-5,799	245,887	120,674
95,684	-5,903	245,708	120,487
96,699	-5,820	245,531	120,460
97,714	-5,767	245,337	120,399
98,728	-6,045	245,146	120,061
99,743	-6,150	244,832	119,808
100,757	-6,223	244,747	119,694
101,772	-6,149	244,672	119,709
102,787	-6,069	244,467	119,665
103,801	-5,979	244,106	119,553
104,816	-6,008	244,131	119,531
105,830	-5,865	243,861	119,507
106,845	-5,688	243,834	119,631
107,860	-5,892	243,645	119,357
108,874	-5,803	243,284	119,243
109,889	-5,860	243,068	119,080
110,903	-6,224	243,038	118,752
111,918	-5,969	242,682	118,779
112,933	-6,010	242,628	118,708
113,947	-6,260	242,437	118,396
114,962	-5,936	242,318	118,596
115,976	-5,863	242,117	118,548
116,991	-5,921	241,886	118,376
118,006	-5,804	241,774	118,408
119,020	-5,702	241,567	118,379
120,035	-5,760	241,516	118,297
121,049	-5,818	241,374	118,169
122,064	-5,726	241,171	118,135
123,079	-5,944	240,911	117,817
124,093	-6,136	240,775	117,582
125,108	-5,988	240,425	117,523
126,122	-6,243	240,231	117,208
127,137	-6,199	240,124	117,181
128,151	-6,135	239,871	117,099
129,166	-6,325	239,797	116,897
130,181	-6,081	239,520	116,951
131,195	-5,903	239,339	116,999
132,210	-6,043	239,269	116,839
133,224	-6,128	239,244	116,747
134,239	-6,067	239,050	116,692
135,254	-5,991	238,814	116,629
136,268	-6,122	238,508	116,362
137,283	-6,205	238,255	116,161
138,297	-6,244	238,077	116,032
139,312	-6,380	237,940	115,844
140,327	-6,132	237,818	115,975
141,341	-5,522	237,787	116,445
142,356	-5,742	237,796	116,261
143,370	-5,755	237,475	116,083
144,385	-5,552	237,186	116,096
145,400	-5,474	237,151	116,131
146,414	-5,456	236,879	116,002
147,429	-5,646	236,918	115,857
148,443	-5,691	236,667	115,688
149,458	-5,613	236,310	115,566
150,473	-5,554	236,230	115,564
151,487	-5,711	236,116	115,372
152,502	-5,717	235,905	115,254
153,516	-5,694	235,851	115,235
154,531	-5,546	235,559	115,202
155,546	-5,819	235,455	114,921
156,560	-5,857	235,252	114,781
157,575	-5,790	234,895	114,650
158,589	-5,967	234,938	114,520
159,604	-5,555	234,730	114,737
160,619	-5,490	234,787	114,807
161,633	-5,423	234,501	114,711
162,648	-5,780	234,460	114,395
163,662	-5,712	234,248	114,336
164,677	-5,889	233,996	114,061
165,692	-5,607	233,982	114,269
166,706	-5,495	233,897	114,307
167,721	-5,477	233,629	114,180
168,735	-5,323	233,515	114,237
169,750	-5,474	233,182	113,943
170,764	-5,658	233,112	113,753
171,779	-5,761	233,078	113,644
172,794	-5,723	232,865	113,560
173,808	-5,641	232,613	113,492
174,823	-6,048	232,247	112,982
175,837	-6,155	232,149	112,840
176,852	-6,050	231,997	112,839
177,867	-5,791	231,979	113,024
178,881	-5,719	231,936	113,050
179,896	-5,647	231,710	112,987
180,910	-5,717	231,599	112,867
181,925	-5,592	231,340	112,830
182,940	-5,548	231,180	112,776
183,954	-5,677	231,126	112,638
184,969	-5,550	231,022	112,677
185,983	-5,367	230,843	112,724
186,998	-5,694	230,790	112,431
188,013	-5,428	230,555	112,515
189,027	-5,570	230,426	112,331
190,042	-5,293	230,024	112,341
191,056	-5,588	230,047	112,112
192,071	-5,375	229,765	112,131
193,086	-5,565	229,638	111,910
194,100	-5,530	229,242	111,735
195,115	-6,386	228,892	110,888
196,129	-7,368	228,601	109,975
197,144	-3,820	229,849	113,335
198,159	1,181	231,122	117,868
199,173	4,149	231,932	120,597
200,188	4,805	231,912	121,089
201,202	4,477	231,882	120,807
202,217	4,699	231,606	120,825
203,232	4,981	231,467	120,962
204,246	5,112	231,317	120,975
205,261	4,830	231,309	120,740
206,275	5,177	231,205	120,945
207,290	4,986	231,047	120,704
208,304	5,176	230,784	120,703
209,319	5,194	230,716	120,670
210,334	5,091	230,459	120,446
211,348	4,602	230,282	119,963
212,363	4,487	229,922	119,676
213,377	4,298	229,682	119,394
214,392	4,162	229,627	119,249
215,407	4,241	229,454	119,210
216,421	4,569	229,309	119,377
217,436	4,108	229,221	118,964
218,450	4,132	228,944	118,829
219,465	4,183	228,754	118,759
220,480	4,022	228,701	118,597
221,494	3,995	228,610	118,518
222,509	4,053	228,468	118,479
223,523	4,344	228,270	118,589
224,538	4,233	228,084	118,396
225,553	4,260	228,006	118,366
226,567	4,238	227,830	118,247
227,582	4,297	227,881	118,308
228,596	4,558	227,711	118,410
229,611	4,492	227,490	118,234
230,626	4,103	227,331	117,842
231,640	4,336	227,093	117,887
232,655	4,513	226,948	117,936
233,669	4,560	226,893	117,933
234,684	4,774	226,818	118,047
235,699	4,524	226,545	117,704
236,713	4,444	226,387	117,550
237,728	4,335	226,127	117,321
238,742	4,112	226,044	117,099
239,757	3,892	225,977	116,886
240,772	4,082	225,893	116,977
241,786	4,171	225,663	116,915
242,801	4,448	225,567	117,065
243,815	4,497	225,466	117,039
244,830	4,319	225,375	116,847
245,844	4,273	225,195	116,708
246,859	4,208	224,876	116,483
247,874	4,596	224,913	116,785
248,888	4,470	224,676	116,556
249,903	4,392	224,462	116,376
250,917	4,345	224,265	116,229
251,932	4,218	224,191	116,084
252,947	4,122	224,137	115,973
253,961	4,012	223,858	115,736
254,976	4,154	223,776	115,791
255,990	4,636	223,576	116,038
257,005	4,428	223,509	115,837
258,020	4,183	223,514	115,645
259,034	4,503	223,273	115,750
260,049	4,542	223,056	115,657
261,063	4,618	222,960	115,653
262,078	4,516	223,035	115,606
263,093	4,434	222,862	115,445
264,107	4,571	222,550	115,375
265,122	4,452	222,571	115,286
266,136	4,688	222,302	115,313
267,151	4,741	222,123	115,249
268,166	4,236	221,911	114,753
269,180	4,017	221,761	114,503
270,195	4,095	221,510	114,421
271,209	3,865	221,375	114,169
272,224	4,051	221,412	114,317
273,239	4,371	221,223	114,446
274,253	4,332	220,883	114,232
275,268	3,970	220,776	113,898
276,282	3,819	220,571	113,671
277,297	3,898	220,589	113,728
278,312	4,203	220,316	113,802
279,326	4,169	220,348	113,784
280,341	4,119	220,164	113,642
281,355	4,246	220,062	113,672
282,370	4,321	219,786	113,575
283,384	4,085	219,737	113,365
284,399	3,985	219,561	113,192
285,414	3,935	219,334	113,027
286,428	4,205	219,234	113,164
287,443	4,279	219,245	113,214
288,457	4,306	219,058	113,127
289,472	4,212	218,933	112,983
290,487	3,845	218,709	112,589
291,501	3,863	218,574	112,523
292,516	3,816	218,384	112,381
293,530	4,115	218,375	112,585
294,545	3,912	218,179	112,325
295,560	4,051	218,153	112,403
296,574	4,232	217,905	112,397
297,589	4,140	217,824	112,278
298,603	4,116	217,896	112,288
299,618	4,111	217,520	112,081
300,633	4,195	217,414	112,077
301,647	4,527	217,392	112,297
302,662	4,583	217,252	112,256
303,676	4,576	217,035	112,129
304,691	4,136	216,960	111,761
305,706	4,606	216,827	112,023
306,720	4,375	216,560	111,707
307,735	4,200	216,478	111,529
308,749	4,060	216,373	111,363
309,764	4,396	216,169	111,491
310,779	4,521	216,104	111,538
311,793	4,603	215,857	111,459
312,808	4,378	215,729	111,222
313,822	4,280	215,713	111,133
314,837	3,937	215,409	110,719
315,852	4,175	215,141	110,743
316,866	4,112	215,172	110,703
317,881	4,587	215,057	110,976
318,895	4,458	214,995	110,841
319,910	4,186	214,779	110,525
320,925	3,914	214,575	110,215
321,939	3,791	214,427	110,041
322,954	3,849	214,264	109,990
323,968	4,067	214,278	110,143
324,983	4,311	214,144	110,239
325,997	4,406	214,082	110,264
327,012	4,297	213,898	110,082
328,027	4,237	213,873	110,016
329,041	4,533	213,712	110,135
330,056	4,648	213,647	110,174
331,070	4,193	213,422	109,723
332,085	3,991	213,114	109,413
333,100	4,159	212,985	109,455
334,114	4,253	212,893	109,465
335,129	4,259	212,710	109,366
336,143	4,026	212,581	109,124
337,158	4,093	212,388	109,063
338,173	4,057	212,177	108,920
339,187	3,937	212,099	108,785
340,202	4,062	211,956	108,790
341,216	3,732	211,716	108,424
342,231	4,041	211,731	108,641
343,246	3,900	211,635	108,482
344,260	3,959	211,647	108,520
345,275	3,993	211,409	108,412
346,289	4,218	211,389	108,550
347,304	4,218	211,261	108,476
348,319	4,168	211,041	108,318
349,333	4,125	210,850	108,180
350,348	4,436	210,799	108,362
351,362	4,535	210,631	108,335
352,377	4,409	210,538	108,190
353,392	4,505	210,225	108,087
354,406	4,217	210,245	107,886
355,421	194,292	1343,555	1433,122
356,435	155,106	1481,721	1433,238
