DTS Sentinel unit serial number:	SN410029Multiplexer serial number:	ORYXHardware model number:	OX2-SRSoftware version number:	ORYX F/W v4,00 Oryx Data Collector v3.7.2.0data status	okinstallation	B6 Nyhavnadifferential loss correction	single-endedforward channel	channel 2reverse channel	N/Adate	2023/12/09time	13:40:08forward acquisition time	300,00reverse acquisition time	0,00gamma	499,1914k internal	0,3135k external	0,3135temperature offset calibration	1,0000default loss term (dB/km)	0,3820temperature slope calibration	1,0000multiplexer offset coefficient	1,0000multiplexer slope coefficient	1,0000fibre end	0,00T internal ref (°C)	20,29T ext. ref 1 (°C)	4,53T ext. ref 2 (°C)	4,53length (m)	temperature (°C)	Stokes	anti-Stokes-744,400	800,000	-0,027	-0,073
-743,385	151,742	-0,156	0,158
-742,371	-60,566	0,126	0,039
-741,356	136,097	-0,101	0,097
-740,342	319,123	-0,105	-0,149
-739,327	-50,574	-0,310	0,108
-738,312	344,872	0,069	-0,100
-737,298	59,394	-0,062	0,045
-736,283	-200,000	0,020	-0,086
-735,269	6,388	-0,223	0,123
-734,254	695,160	0,103	-0,202
-733,239	-63,995	-0,596	-0,180
-732,225	-34,361	0,134	0,054
-731,210	25,351	0,112	0,069
-730,196	800,000	0,089	-0,182
-729,181	339,132	-0,072	-0,105
-728,167	167,598	0,132	-0,140
-727,152	-200,000	-0,006	0,064
-726,137	109,576	-0,142	0,126
-725,123	-200,000	-0,007	-0,115
-724,108	430,375	0,031	0,050
-723,094	106,858	-0,126	-0,111
-722,079	-200,000	0,002	-0,098
-721,064	-200,000	0,026	-0,118
-720,050	85,722	-0,034	-0,028
-719,035	-137,140	0,033	0,003
-718,021	311,261	0,010	-0,014
-717,006	-51,271	-0,146	0,050
-715,991	-200,000	0,007	-0,093
-714,977	-98,441	-0,105	-0,020
-713,962	-14,283	-0,104	-0,049
-712,948	-128,841	0,031	-0,003
-711,933	144,283	-0,116	-0,115
-710,918	800,000	-0,023	-0,065
-709,904	-200,000	-0,010	-0,069
-708,889	-147,542	-0,032	-0,002
-707,875	-54,477	-0,072	0,024
-706,860	643,965	-0,019	-0,035
-705,845	47,480	0,067	-0,046
-704,831	100,765	-0,047	0,040
-703,816	-147,125	0,077	0,005
-702,802	-91,832	0,134	0,028
-701,787	271,493	-0,038	-0,050
-700,772	132,638	-0,049	-0,047
-699,758	195,398	-0,050	0,056
-698,743	-146,406	-0,098	0,006
-697,729	93,016	0,131	-0,110
-696,714	-200,000	0,012	0,140
-695,699	637,548	-0,041	0,077
-694,685	42,544	-0,045	0,030
-693,670	-153,483	0,099	-0,005
-692,656	197,200	-0,106	0,120
-691,641	698,322	-0,048	0,093
-690,627	-200,000	0,108	-0,000
-689,612	-46,144	0,035	0,013
-688,597	12,765	-0,085	-0,049
-687,583	117,638	0,020	0,019
-686,568	74,719	0,019	0,015
-685,554	-40,284	-0,017	0,007
-684,539	-200,000	0,012	0,120
-683,524	-1,094	0,127	0,066
-682,510	800,000	0,038	-0,106
-681,495	71,952	-0,067	-0,051
-680,481	182,899	-0,066	-0,073
-679,466	406,603	-0,046	-0,072
-678,451	-149,388	0,048	0,003
-677,437	-176,943	0,039	0,001
-676,422	-200,000	-0,001	0,135
-675,408	-200,000	-0,003	-0,073
-674,393	-200,000	-0,068	-0,257
-673,378	800,000	-0,024	-0,073
-672,364	-200,000	0,004	-0,015
-671,349	-200,000	0,010	-0,044
-670,335	129,801	0,051	0,048
-669,320	-53,323	0,157	-0,053
-668,305	190,491	0,113	0,126
-667,291	33,376	0,026	-0,017
-666,276	-200,000	-0,003	-0,023
-665,262	-65,528	-0,139	-0,041
-664,247	452,876	-0,045	-0,075
-663,232	800,000	0,031	-0,095
-662,218	441,039	-0,040	-0,065
-661,203	-200,000	-0,024	-0,128
-660,189	-200,000	0,042	0,140
-659,174	396,929	0,067	-0,105
-658,159	282,913	-0,082	-0,109
-657,145	246,445	0,059	-0,073
-656,130	136,791	0,098	-0,095
-655,116	-200,000	0,006	-0,100
-654,101	-200,000	-0,001	-0,102
-653,086	-172,123	0,085	-0,002
-652,072	-67,353	0,058	0,017
-651,057	229,054	-0,091	0,110
-650,043	-200,000	-0,024	-0,080
-649,028	800,000	0,059	-0,124
-648,014	191,197	0,050	0,056
-646,999	-81,166	0,054	-0,013
-645,984	647,157	0,056	0,107
-644,970	-75,163	-0,123	-0,032
-643,955	228,642	0,040	0,048
-642,941	-122,699	-0,034	-0,004
-641,926	-200,000	-0,021	-0,180
-640,911	337,535	0,120	0,173
-639,897	-200,000	0,004	0,014
-638,882	-81,562	0,033	0,008
-637,868	-200,000	0,027	-0,109
-636,853	-200,000	-0,007	0,062
-635,838	-47,954	0,023	-0,008
-634,824	204,057	-0,036	0,041
-633,809	-108,542	0,135	-0,021
-632,795	96,504	0,053	-0,045
-631,780	542,304	0,050	-0,088
-630,765	296,340	0,049	-0,066
-629,751	206,783	0,044	0,050
-628,736	-5,449	-0,062	0,031
-627,722	185,975	0,049	-0,054
-626,707	52,498	-0,036	-0,025
-625,692	94,315	0,141	0,119
-624,678	186,298	0,087	0,096
-623,663	-103,769	-0,192	-0,033
-622,649	38,537	-0,067	0,044
-621,634	89,945	-0,088	-0,073
-620,619	-200,000	-0,039	-0,160
-619,605	258,103	-0,037	0,048
-618,590	-200,000	-0,014	0,158
-617,576	339,163	-0,054	0,077
-616,561	64,589	0,056	-0,041
-615,546	22,162	0,026	0,016
-614,532	-69,415	0,025	-0,007
-613,517	-184,189	-0,121	-0,001
-612,503	-82,341	-0,051	0,012
-611,488	-200,000	-0,025	0,112
-610,474	-127,001	0,091	-0,010
-609,459	-200,000	0,008	-0,033
-608,444	430,397	0,032	-0,051
-607,430	-70,832	-0,124	-0,034
-606,415	-121,347	-0,069	-0,008
-605,401	-108,979	0,149	-0,023
-604,386	-126,111	0,065	0,007
-603,371	664,715	0,026	-0,051
-602,357	-200,000	0,048	0,164
-601,342	-191,835	-0,086	0,001
-600,328	800,000	0,035	-0,078
-599,313	157,514	-0,019	-0,020
-598,298	800,000	-0,027	0,058
-597,284	-200,000	0,018	0,112
-596,269	-115,332	-0,100	-0,014
-595,255	-95,075	0,086	0,017
-594,240	-47,195	-0,093	-0,033
-593,225	-18,007	-0,046	-0,021
-592,211	-200,000	0,007	-0,119
-591,196	800,000	0,037	-0,088
-590,182	800,000	0,059	0,183
-589,167	-93,529	0,134	-0,027
-588,152	165,733	0,099	-0,103
-587,138	-200,000	-0,007	-0,048
-586,123	-120,251	0,182	0,023
-585,109	6,766	-0,139	-0,076
-584,094	-200,000	-0,026	-0,107
-583,079	151,182	0,041	-0,042
-582,065	250,993	0,032	-0,041
-581,050	73,283	0,068	-0,052
-580,036	93,415	0,132	-0,110
-579,021	800,000	-0,028	-0,071
-578,006	180,326	-0,075	-0,081
-576,992	-34,716	0,090	-0,036
-575,977	-200,000	-0,012	0,060
-574,963	-200,000	-0,006	0,098
-573,948	515,599	-0,081	0,141
-572,934	-123,396	-0,105	-0,012
-571,919	800,000	0,029	-0,062
-570,904	-200,000	0,012	-0,084
-569,890	-114,603	0,023	-0,003
-568,875	-106,448	-0,147	0,024
-567,861	216,117	0,092	0,108
-566,846	-77,827	0,088	-0,022
-565,831	-200,000	-0,017	0,060
-564,817	-200,000	-0,004	0,158
-563,802	147,499	-0,092	-0,091
-562,788	-10,150	0,011	0,005
-561,773	-30,782	0,071	-0,029
-560,758	500,529	0,084	0,144
-559,744	141,662	-0,101	-0,098
-558,729	703,072	-0,050	-0,098
-557,715	-200,000	-0,024	-0,081
-556,700	-200,000	0,010	-0,044
-555,685	77,788	-0,050	-0,039
-554,671	13,014	0,059	-0,034
-553,656	103,364	-0,061	0,052
-552,642	800,000	0,039	-0,104
-551,627	130,854	0,144	0,137
-550,612	104,515	-0,059	0,051
-549,598	-200,000	-0,005	-0,074
-548,583	311,185	0,031	-0,043
-547,569	-119,089	-0,053	0,007
-546,554	-51,729	-0,044	-0,015
-545,539	-51,887	0,057	-0,019
-544,525	0,874	0,088	0,046
-543,510	-42,938	-0,068	0,025
-542,496	-112,319	0,061	-0,009
-541,481	-158,571	-0,104	-0,004
-540,466	-200,000	0,012	-0,045
-539,452	-94,585	0,071	-0,014
-538,437	-200,000	0,008	0,072
-537,423	420,690	-0,040	0,063
-536,408	309,668	0,054	-0,074
-535,393	-71,592	-0,130	-0,035
-534,379	-12,187	-0,107	-0,052
-533,364	-35,129	-0,052	-0,021
-532,350	41,223	0,097	-0,065
-531,335	87,828	0,053	0,043
-530,321	-200,000	-0,018	0,085
-529,306	254,818	0,040	0,051
-528,291	247,259	0,041	-0,051
-527,277	606,783	0,035	-0,065
-526,262	551,191	0,029	0,051
-525,248	800,000	0,045	0,106
-524,233	-200,000	-0,016	0,058
-523,218	-83,325	-0,054	0,013
-522,204	-15,622	0,100	-0,047
-521,189	-7,952	-0,021	-0,011
-520,175	800,000	0,031	0,078
-519,160	-200,000	-0,001	0,083
-518,145	-140,162	-0,106	-0,008
-517,131	5,260	0,197	-0,107
-516,116	-200,000	-0,002	-0,043
-515,102	-29,665	-0,058	0,024
-514,087	-200,000	0,038	-0,141
-513,072	-69,100	-0,124	-0,035
-512,058	800,000	0,043	0,119
-511,043	243,742	-0,029	0,036
-510,029	-200,000	0,024	-0,092
-509,014	-49,821	0,022	-0,008
-507,999	63,060	0,117	-0,086
-506,985	536,433	-0,066	-0,115
-505,970	-5,669	-0,141	-0,071
-504,956	-200,000	0,008	-0,094
-503,941	800,000	-0,003	-0,010
-502,926	777,645	0,029	0,058
-501,912	-15,368	-0,040	0,019
-500,897	-36,476	0,048	0,019
-499,883	57,078	-0,051	0,036
-498,868	-200,000	-0,031	-0,115
-497,853	-200,000	0,004	-0,027
-496,839	-73,961	0,115	0,030
-495,824	-117,150	0,176	-0,023
-494,810	-24,325	-0,221	0,097
-493,795	138,533	0,072	0,070
-492,781	-200,000	0,005	-0,075
-491,766	62,152	0,119	-0,087
-490,751	800,000	-0,040	0,120
-489,737	800,000	0,045	0,120
-488,722	-60,105	0,140	0,044
-487,708	0,455	0,021	-0,011
-486,693	-200,000	-0,006	0,145
-485,678	-200,000	-0,014	0,092
-484,664	-2,275	0,066	0,034
-483,649	-64,394	0,106	-0,032
-482,635	234,841	0,104	-0,126
-481,620	522,982	-0,015	0,026
-480,605	16,820	0,086	-0,050
-479,591	371,868	0,011	0,017
-478,576	-89,102	-0,033	0,007
-477,562	-200,000	0,014	-0,176
-476,547	800,000	-0,056	-0,162
-475,532	800,000	0,024	0,071
-474,518	336,558	-0,044	-0,063
-473,503	-96,085	-0,018	0,004
-472,489	204,218	0,083	0,094
-471,474	-200,000	-0,025	-0,085
-470,459	800,000	0,011	0,026
-469,445	213,084	0,048	0,056
-468,430	800,000	-0,039	-0,088
-467,416	-29,523	-0,058	0,024
-466,401	-57,832	-0,139	-0,045
-465,386	800,000	-0,028	0,078
-464,372	252,185	-0,097	0,122
-463,357	30,019	-0,140	0,087
-462,343	-200,000	-0,012	0,061
-461,328	470,324	0,043	-0,072
-460,313	-31,951	0,019	-0,008
-459,299	17,668	-0,055	-0,032
-458,284	-3,670	0,003	-0,002
-457,270	-87,500	-0,035	0,008
-456,255	-200,000	0,012	-0,050
-455,241	-72,952	0,123	-0,033
-454,226	-23,739	-0,078	-0,034
-453,211	-200,000	0,013	0,075
-452,197	-200,000	0,013	0,081
-451,182	-60,351	0,086	0,027
-450,168	-36,994	0,104	0,041
-449,153	800,000	-0,039	0,098
-448,138	257,636	0,069	-0,088
-447,124	-54,660	-0,033	-0,011
-446,109	201,528	0,009	-0,010
-445,095	800,000	-0,013	0,040
-444,080	-200,000	-0,011	-0,041
-443,065	-40,593	-0,110	0,042
-442,051	158,089	0,127	0,130
-441,036	-49,076	-0,202	-0,071
-440,022	-200,000	0,008	-0,140
-439,007	-200,000	-0,000	0,006
-437,992	-200,000	0,007	0,126
-436,978	56,322	-0,045	0,032
-435,963	-6,201	0,037	-0,018
-434,949	55,504	-0,154	0,109
-433,934	-46,824	-0,162	0,058
-432,919	-100,735	0,170	0,030
-431,905	800,000	-0,027	0,066
-430,890	-188,010	0,148	0,001
-429,876	6,907	0,036	-0,019
-428,861	28,646	0,090	0,056
-427,846	13,525	-0,059	-0,034
-426,832	-200,000	0,004	-0,075
-425,817	128,517	-0,045	-0,042
-424,803	-200,000	-0,014	0,100
-423,788	-200,000	0,001	-0,071
-422,773	-200,000	0,001	0,047
-421,759	-200,000	0,009	0,045
-420,744	-28,944	-0,083	-0,035
-419,730	472,142	-0,029	0,048
-418,715	186,738	-0,067	-0,073
-417,701	186,481	0,030	-0,033
-416,686	-7,196	-0,096	0,048
-415,671	-200,000	0,025	0,109
-414,657	-44,403	0,091	0,033
-413,642	800,000	0,015	0,041
-412,628	34,287	-0,028	0,018
-411,613	53,310	-0,048	0,034
-410,598	28,844	-0,064	-0,040
-409,584	-17,018	0,070	-0,032
-408,569	-200,000	0,012	0,077
-407,555	-200,000	0,020	0,100
-406,540	27,347	0,084	-0,052
-405,525	-200,000	-0,005	0,037
-404,511	193,852	-0,025	0,027
-403,496	102,674	-0,034	0,029
-402,482	-200,000	-0,007	0,028
-401,467	103,384	-0,014	-0,012
-400,452	-38,093	0,125	0,048
-399,438	800,000	-0,056	0,142
-398,423	50,950	-0,038	0,026
-397,409	768,158	0,038	-0,076
-396,394	-126,630	-0,199	0,021
-395,379	800,000	-0,037	-0,105
-394,365	221,022	-0,029	0,035
-393,350	800,000	0,023	0,065
-392,336	-70,276	0,142	-0,039
-391,321	-29,502	-0,040	-0,017
-390,306	128,285	-0,069	-0,064
-389,292	2,205	0,130	-0,069
-388,277	-127,769	0,093	0,010
-387,263	-200,000	0,012	0,111
-386,248	15,431	-0,022	0,013
-385,233	288,765	-0,011	0,015
-384,219	-104,772	-0,049	-0,008
-383,204	-200,000	-0,017	-0,132
-382,190	-87,819	-0,099	0,022
-381,175	-200,000	0,012	-0,068
-380,160	244,545	-0,080	-0,098
-379,146	-168,425	0,140	0,004
-378,131	800,000	-0,042	0,088
-377,117	84,537	-0,056	0,045
-376,102	-22,904	-0,099	-0,043
-375,088	-200,000	0,032	0,169
-374,073	-200,000	0,008	-0,077
-373,058	-200,000	0,017	0,059
-372,044	-200,000	-0,008	0,043
-371,029	-200,000	0,001	-0,056
-370,015	294,772	0,027	0,037
-369,000	95,441	0,062	-0,051
-367,985	350,000	0,054	0,078
-366,971	41,548	0,123	0,081
-365,956	322,447	-0,042	-0,058
-364,942	113,947	0,036	0,032
-363,927	9,603	-0,067	-0,037
-362,912	42,634	0,064	-0,042
-361,898	124,177	0,074	-0,068
-360,883	396,476	-0,012	-0,019
-359,869	131,341	-0,018	0,017
-358,854	-145,310	0,029	0,002
-357,839	800,000	0,024	0,078
-356,825	43,301	-0,097	0,065
-355,810	-93,752	0,082	0,016
-354,796	800,000	-0,041	-0,084
-353,781	43,693	-0,119	-0,080
-352,766	-41,718	-0,031	-0,011
-351,752	-16,890	-0,005	-0,002
-350,737	800,000	0,049	0,116
-349,723	216,118	0,055	-0,064
-348,708	248,014	-0,113	-0,140
-347,693	28,273	0,080	0,049
-346,679	299,101	0,048	0,064
-345,664	-200,000	-0,008	0,104
-344,650	800,000	0,024	-0,061
-343,635	136,745	0,096	-0,092
-342,620	418,769	-0,044	0,069
-341,606	-95,808	-0,041	0,008
-340,591	-200,000	0,028	0,104
-339,577	48,480	-0,055	-0,037
-338,562	0,852	-0,135	0,070
-337,548	-145,628	-0,041	-0,003
-336,533	-200,000	-0,054	0,177
-335,518	-41,232	0,084	-0,031
-334,504	-84,979	0,010	0,002
-333,489	-200,000	0,003	0,084
-332,475	321,884	0,048	-0,067
-331,460	42,098	-0,139	-0,092
-330,445	86,944	0,063	-0,051
-329,431	-166,984	0,153	-0,004
-328,416	-125,349	-0,043	-0,005
-327,402	-74,938	0,056	0,015
-326,387	-200,000	-0,013	-0,111
-325,372	800,000	-0,040	-0,109
-324,358	800,000	-0,029	-0,074
-323,343	-45,812	-0,073	-0,026
-322,329	452,008	-0,031	-0,050
-321,314	-200,000	-0,003	-0,026
-320,299	800,000	-0,053	-0,151
-319,285	428,306	0,092	-0,146
-318,270	-200,000	0,020	0,086
-317,256	800,000	0,039	0,122
-316,241	375,337	-0,005	-0,007
-315,226	-164,255	0,143	0,005
-314,212	800,000	-0,028	0,079
-313,197	10,788	-0,041	0,023
-312,183	83,953	-0,110	-0,087
-311,168	-200,000	-0,004	-0,014
-310,153	148,596	0,122	-0,121
-309,139	98,550	-0,101	0,085
-308,124	-102,678	-0,029	0,005
-307,110	-200,000	0,015	-0,078
-306,095	-80,686	0,017	-0,004
-305,080	104,593	0,052	0,045
-304,066	-47,606	0,177	0,062
-303,051	-108,499	-0,089	0,014
-302,037	660,519	-0,055	-0,104
-301,022	-200,000	-0,032	0,140
-300,008	87,913	0,114	-0,092
-298,993	-55,612	-0,059	-0,019
-297,978	-93,102	-0,142	-0,029
-296,964	-200,000	0,028	-0,123
-295,949	61,203	-0,115	-0,084
-294,935	-68,670	-0,165	-0,046
-293,920	-200,000	0,002	0,063
-292,905	-200,000	0,014	-0,047
-291,891	800,000	0,019	0,059
-290,876	800,000	-0,038	0,111
-289,862	-8,619	0,103	0,050
-288,847	-166,408	-0,149	-0,004
-287,832	800,000	0,018	-0,052
-286,818	-34,761	-0,071	0,028
-285,803	800,000	-0,029	-0,076
-284,789	-184,495	0,069	-0,001
-283,774	800,000	-0,067	0,142
-282,759	-200,000	-0,006	0,106
-281,745	-60,048	-0,165	0,051
-280,730	471,306	-0,107	-0,176
-279,716	800,000	0,005	0,014
-278,701	-140,176	-0,054	0,004
-277,686	-200,000	0,003	-0,048
-276,672	80,289	0,152	-0,119
-275,657	800,000	-0,051	0,128
-274,643	-184,490	0,043	0,000
-273,628	25,415	-0,094	-0,057
-272,613	83,053	-0,173	0,137
-271,599	138,380	-0,049	-0,046
-270,584	605,880	0,043	0,078
-269,570	-44,630	0,033	-0,012
-268,555	-200,000	0,002	-0,068
-267,540	-168,715	0,033	-0,001
-266,526	406,973	-0,059	-0,091
-265,511	-147,082	-0,038	0,002
-264,497	-49,623	-0,084	-0,029
-263,482	722,849	-0,030	-0,059
-262,467	94,265	0,119	0,098
-261,453	37,340	0,088	-0,057
-260,438	-94,331	-0,083	0,016
-259,424	800,000	0,022	-0,066
-258,409	199,863	0,104	-0,117
-257,395	47,716	0,147	-0,100
-256,380	-200,000	0,049	0,162
-255,365	-200,000	-0,007	0,085
-254,351	13,308	-0,063	0,036
-253,336	-200,000	0,025	-0,091
-252,322	-200,000	-0,042	-0,216
-251,307	-24,723	-0,037	0,016
-250,292	86,779	0,027	0,022
-249,278	451,335	0,054	-0,087
-248,263	8,104	0,197	0,107
-247,249	800,000	0,033	0,070
-246,234	-107,056	-0,087	0,014
-245,219	-57,484	-0,098	-0,031
-244,205	93,496	-0,134	-0,111
-243,190	800,000	0,038	0,084
-242,176	-55,999	0,057	0,018
-241,161	-86,177	-0,132	-0,029
-240,146	82,088	-0,058	0,045
-239,132	572,209	-0,048	0,086
-238,117	-33,990	-0,121	-0,048
-237,103	-111,422	0,132	0,019
-236,088	-69,439	-0,088	0,024
-235,073	-97,667	0,026	0,005
-234,059	-200,000	0,030	0,118
-233,044	-20,283	0,025	0,011
-232,030	-200,000	0,000	0,013
-231,015	-105,252	0,018	0,003
-230,000	-200,000	-0,013	-0,221
-228,986	-200,000	0,017	-0,066
-227,971	8,229	0,073	-0,040
-226,957	-25,611	0,119	-0,051
-225,942	-200,000	-0,018	0,130
-224,927	29,175	0,054	0,033
-223,913	54,159	-0,057	-0,040
-222,898	-200,000	-0,013	-0,047
-221,884	157,409	0,054	-0,054
-220,869	156,378	0,124	0,124
-219,855	-0,690	0,075	0,038
-218,840	-200,000	0,002	0,091
-217,825	-0,813	-0,031	0,016
-216,811	-200,000	0,001	-0,019
-215,796	94,921	-0,046	0,038
-214,782	800,000	0,032	0,084
-213,767	-68,317	-0,048	0,014
-212,752	-86,093	0,074	-0,016
-211,738	155,373	-0,080	0,080
-210,723	-66,185	-0,118	0,034
-209,709	-29,475	0,163	-0,067
-208,694	-126,251	-0,054	0,006
-207,679	-200,000	0,015	-0,077
-206,665	800,000	-0,082	0,176
-205,650	19,908	-0,084	0,049
-204,636	-200,000	0,034	0,136
-203,621	341,219	-0,024	-0,035
-202,606	39,980	-0,081	-0,053
-201,592	58,412	0,089	-0,064
-200,577	572,128	-0,033	-0,058
-199,563	562,252	0,039	0,070
-198,548	562,109	-0,044	0,078
-197,533	660,887	-0,002	-0,004
-196,519	-94,182	0,149	0,029
-195,504	-64,096	-0,075	-0,022
-194,490	85,444	-0,144	-0,115
-193,475	800,000	0,060	-0,179
-192,460	116,012	0,064	0,057
-191,446	280,598	0,024	0,032
-190,431	-200,000	-0,028	-0,122
-189,417	39,890	0,113	0,073
-188,402	69,691	-0,078	-0,058
-187,387	800,000	-0,011	0,023
-186,373	47,137	-0,093	-0,063
-185,358	-75,837	0,069	-0,018
-184,344	-46,177	0,046	0,016
-183,329	-200,000	-0,017	0,156
-182,315	109,993	-0,026	-0,022
-181,300	527,005	0,023	-0,039
-180,285	800,000	-0,040	-0,096
-179,271	417,608	-0,041	0,064
-178,256	800,000	0,047	-0,109
-177,242	653,470	0,048	-0,089
-176,227	35,813	-0,029	0,018
-175,212	-200,000	0,042	0,153
-174,198	34,684	0,063	-0,040
-173,183	-40,039	-0,091	-0,034
-172,169	114,461	0,052	-0,046
-171,154	-20,379	0,061	-0,027
-170,139	-200,000	0,003	0,068
-169,125	38,067	0,073	0,047
-168,110	-200,000	-0,017	0,147
-167,096	-200,000	0,031	0,135
-166,081	-200,000	-0,014	0,080
-165,066	59,741	-0,069	0,050
-164,052	469,070	0,052	-0,086
-163,037	-200,000	0,016	-0,100
-162,023	104,613	0,100	-0,085
-161,008	-200,000	0,023	0,204
-159,993	-74,539	-0,104	0,027
-158,979	-123,045	-0,113	-0,013
-157,964	40,350	-0,172	-0,112
-156,950	-64,600	-0,066	-0,019
-155,935	-200,000	-0,017	-0,059
-154,920	-125,218	0,041	-0,004
-153,906	-200,000	-0,047	0,153
-152,891	-200,000	-0,017	-0,065
-151,877	574,214	-0,052	-0,093
-150,862	-132,927	-0,208	0,019
-149,847	-81,242	0,093	0,022
-148,833	800,000	0,030	-0,062
-147,818	195,071	0,072	0,079
-146,804	-181,403	0,143	-0,002
-145,789	-200,000	0,010	-0,044
-144,775	-200,000	-0,026	-0,094
-143,760	-200,000	-0,001	-0,051
-142,745	800,000	-0,026	-0,064
-141,731	800,000	0,053	-0,108
-140,716	-61,282	-0,044	-0,013
-139,702	-200,000	0,031	0,108
-138,687	-16,113	-0,096	-0,044
-137,672	-75,043	0,015	0,004
-136,658	-23,623	-0,038	-0,016
-135,643	800,000	-0,031	-0,088
-134,629	800,000	0,047	0,095
-133,614	40,415	0,070	-0,045
-132,599	800,000	-0,028	0,088
-131,585	800,000	-0,013	0,039
-130,570	-200,000	-0,012	-0,056
-129,556	86,674	0,085	0,068
-128,541	-63,562	-0,107	-0,032
-127,526	518,744	0,033	0,056
-126,512	506,380	0,061	-0,103
-125,497	513,292	0,041	-0,070
-124,483	557,572	0,019	-0,034
-123,468	-200,000	-0,028	-0,133
-122,453	189,812	0,049	-0,053
-121,439	-200,000	0,010	-0,121
-120,424	800,000	0,028	-0,072
-119,410	-136,853	0,026	0,002
-118,395	29,906	0,094	-0,058
-117,380	-46,271	0,034	0,012
-116,366	-13,035	-0,047	-0,022
-115,351	-200,000	0,009	0,056
-114,337	594,671	-0,051	-0,092
-113,322	147,173	0,134	0,131
-112,307	-63,734	-0,064	0,019
-111,293	324,173	0,022	-0,031
-110,278	-70,555	0,089	-0,024
-109,264	-66,476	-0,023	0,006
-108,249	-200,000	0,005	0,035
-107,234	-200,000	-0,002	-0,134
-106,220	-200,000	-0,038	-0,144
-105,205	590,100	-0,043	-0,077
-104,191	336,651	0,052	-0,074
-103,176	-96,605	-0,133	-0,025
-102,162	800,000	0,007	0,019
-101,147	-200,000	-0,006	-0,073
-100,132	46,385	0,050	-0,033
-99,118	66,978	0,135	-0,099
-98,103	-76,139	0,101	0,026
-97,089	-200,000	-0,019	0,061
-96,074	249,422	-0,041	-0,051
-95,059	-200,000	-0,006	-0,052
-94,045	800,000	0,017	-0,037
-93,030	800,000	0,010	-0,028
-92,016	-71,549	-0,079	-0,021
-91,001	-59,747	0,073	0,023
-89,986	534,940	-0,035	-0,060
-88,972	135,440	-0,050	0,047
-87,957	800,000	-0,021	-0,044
-86,943	-200,000	-0,027	-0,119
-85,928	-200,000	-0,037	-0,132
-84,913	-200,000	-0,003	0,015
-83,899	-20,444	0,068	0,030
-82,884	800,000	-0,057	0,134
-81,870	429,036	0,136	0,213
-80,855	-200,000	0,006	0,124
-79,840	-91,575	-0,092	0,019
-78,826	-200,000	0,003	-0,115
-77,811	398,719	0,054	0,081
-76,797	109,386	0,060	0,052
-75,782	216,528	0,016	0,019
-74,767	15,811	0,046	-0,026
-73,753	232,483	-0,058	-0,069
-72,738	40,328	-0,048	0,031
-71,724	-105,949	-0,080	0,013
-70,709	-200,000	0,002	0,034
-69,694	40,271	0,033	-0,022
-68,680	-17,252	0,052	-0,024
-67,665	800,000	0,069	0,163
-66,651	-200,000	0,007	0,088
-65,636	-200,000	0,025	0,088
-64,622	130,755	-0,073	0,068
-63,607	703,100	-0,053	-0,102
-62,592	135,535	-0,072	0,067
-61,578	-100,238	0,134	0,024
-60,563	-96,288	0,070	0,013
-59,549	453,801	-0,031	0,050
-58,534	-79,953	-1,582	-0,381
-57,519	800,000	-0,559	-1,442
-56,505	-200,000	-1,000	-4,586
-55,490	-49,104	0,685	-0,236
-54,476	800,000	4,985	12,069
-53,461	-200,000	14,911	262,992
-52,446	-200,000	699,509	2233,454
-51,432	563,097	1622,897	2850,622
-50,417	119,601	1628,981	1458,153
-49,403	77,153	1283,255	984,679
-48,388	37,418	1022,540	653,827
-47,373	22,711	982,382	579,889
-46,359	21,816	971,640	570,600
-45,344	20,538	967,421	563,929
-44,330	20,575	965,993	563,193
-43,315	20,400	964,364	561,654
-42,300	20,362	963,414	560,955
-41,286	20,314	962,730	560,377
-40,271	20,325	961,537	559,696
-39,257	20,327	960,605	559,140
-38,242	20,317	959,830	558,633
-37,227	20,330	958,957	558,146
-36,213	20,224	958,064	557,260
-35,198	20,307	957,101	556,947
-34,184	20,386	956,284	556,704
-33,169	20,290	955,402	555,858
-32,154	20,420	954,409	555,677
-31,140	20,324	953,653	554,907
-30,125	20,383	952,973	554,677
-29,111	20,383	951,904	554,033
-28,096	20,335	951,313	553,513
-27,082	20,335	950,766	553,173
-26,067	20,362	949,805	552,679
-25,052	20,333	949,338	552,291
-24,038	20,321	948,496	551,744
-23,023	20,321	947,904	551,376
-22,009	20,346	947,409	551,146
-20,994	20,351	946,666	550,707
-19,979	20,322	946,176	550,309
-18,965	20,318	945,340	549,789
-17,950	20,330	944,739	549,455
-16,936	20,249	944,288	548,913
-15,921	20,274	943,394	548,451
-14,906	20,147	942,894	547,735
-13,892	20,238	942,183	547,590
-12,877	20,250	941,478	547,197
-11,863	20,182	940,977	546,666
-10,848	20,183	940,487	546,364
-9,833	20,333	939,930	546,494
-8,819	20,279	939,347	545,962
-7,804	20,188	938,745	545,303
-6,790	20,205	938,113	544,967
-5,775	20,249	937,515	544,736
-4,760	20,238	936,802	544,268
-3,746	20,193	936,325	543,827
-2,731	20,058	935,636	542,980
-1,717	20,110	934,793	542,631
-0,702	20,081	933,950	542,031
0,313	19,861	933,557	541,929
1,327	22,967	931,563	550,473
2,342	32,198	793,162	493,149
3,356	29,697	449,849	275,919
4,371	-0,350	294,747	150,757
5,386	-4,636	275,994	137,089
6,400	-5,751	270,174	133,151
7,415	-6,258	267,935	131,568
8,429	-6,163	266,828	131,100
9,444	-6,005	265,762	130,709
10,459	-6,067	265,180	130,355
11,473	-6,025	264,609	130,101
12,488	-6,068	263,950	129,726
13,502	-6,393	263,611	129,253
14,517	-6,345	263,091	129,031
15,531	-6,253	262,626	128,873
16,546	-6,192	262,317	128,765
17,561	-6,296	261,902	128,456
18,575	-6,068	261,558	128,482
19,590	-6,480	261,386	128,015
20,604	-5,970	260,855	128,201
21,619	-6,435	260,694	127,694
22,634	-6,377	260,417	127,599
23,648	-6,476	259,971	127,280
24,663	-6,304	259,704	127,292
25,677	-6,556	259,615	127,012
26,692	-6,467	259,306	126,929
27,707	-6,414	258,902	126,767
28,721	-6,598	258,716	126,501
29,736	-6,473	258,496	126,493
30,750	-6,399	258,183	126,395
31,765	-6,545	258,137	126,231
32,780	-6,538	257,843	126,083
33,794	-6,641	257,699	125,910
34,809	-6,446	257,217	125,835
35,823	-6,453	257,096	125,759
36,838	-6,552	256,710	125,471
37,853	-6,634	256,568	125,319
38,867	-6,774	256,516	125,159
39,882	-6,421	256,125	125,266
40,896	-6,663	255,908	124,937
41,911	-6,486	255,621	124,942
42,926	-6,464	255,420	124,851
43,940	-6,643	255,105	124,530
44,955	-6,666	254,941	124,419
45,969	-6,631	254,656	124,298
46,984	-6,626	254,391	124,162
47,999	-6,929	254,162	123,775
49,013	-7,160	253,949	123,459
50,028	-7,579	253,786	123,004
51,042	-7,570	253,354	122,792
52,057	-7,527	253,410	122,845
53,071	-7,396	253,023	122,760
54,086	-7,544	252,856	122,540
55,101	-7,090	252,753	122,873
56,115	-7,003	252,617	122,871
57,130	-6,409	252,402	123,269
58,144	-6,213	252,348	123,401
59,159	-6,228	252,178	123,294
60,174	-6,045	251,887	123,298
61,188	-6,157	251,686	123,093
62,203	-6,489	251,653	122,780
63,217	-6,474	251,362	122,640
64,232	-6,424	251,155	122,571
65,247	-6,233	250,775	122,539
66,261	-6,336	250,617	122,362
67,276	-6,453	250,137	122,016
68,290	-6,618	250,092	121,843
69,305	-6,761	249,796	121,565
70,320	-7,187	249,729	121,158
71,334	-6,522	249,551	121,628
72,349	-6,221	249,422	121,811
73,363	-6,140	249,243	121,782
74,378	-6,447	249,068	121,425
75,393	-6,278	248,808	121,431
76,407	-6,283	248,681	121,353
77,422	-6,462	248,331	121,019
78,436	-6,380	248,263	121,046
79,451	-6,241	247,861	120,957
80,466	-6,543	247,759	120,640
81,480	-6,599	247,396	120,405
82,495	-6,759	247,349	120,236
83,509	-6,643	247,211	120,256
84,524	-6,655	246,910	120,089
85,539	-6,771	246,585	119,823
86,553	-6,873	246,505	119,687
87,568	-6,692	246,302	119,730
88,582	-6,839	246,298	119,594
89,597	-6,567	245,768	119,555
90,611	-6,550	245,821	119,584
91,626	-6,650	245,709	119,435
92,641	-6,187	245,407	119,666
93,655	-6,481	245,271	119,342
94,670	-6,648	245,226	119,170
95,684	-6,495	244,920	119,138
96,699	-6,686	244,834	118,927
97,714	-6,690	244,567	118,783
98,728	-6,807	244,352	118,570
99,743	-7,063	244,161	118,253
100,757	-6,976	243,907	118,193
101,772	-6,635	243,624	118,328
102,787	-6,665	243,543	118,253
103,801	-6,530	243,342	118,257
104,816	-6,570	243,293	118,190
105,830	-6,353	243,137	118,284
106,845	-6,450	242,906	118,080
107,860	-6,474	242,706	117,952
108,874	-6,384	242,552	117,942
109,889	-6,639	242,193	117,546
110,903	-6,525	242,013	117,542
111,918	-6,562	241,919	117,455
112,933	-6,578	241,816	117,382
113,947	-6,515	241,656	117,345
114,962	-6,467	241,538	117,317
115,976	-6,542	241,346	117,152
116,991	-6,586	241,108	116,990
118,006	-6,488	240,820	116,920
119,020	-6,451	240,816	116,938
120,035	-6,426	240,790	116,935
121,049	-6,473	240,607	116,798
122,064	-6,403	240,333	116,712
123,079	-6,492	240,146	116,537
124,093	-6,454	239,923	116,450
125,108	-6,854	239,751	116,029
126,122	-6,957	239,411	115,771
127,137	-7,073	239,262	115,594
128,151	-7,121	239,154	115,492
129,166	-6,678	238,875	115,707
130,181	-6,702	238,714	115,599
131,195	-6,815	238,575	115,430
132,210	-6,643	238,445	115,496
133,224	-6,512	238,280	115,513
134,239	-6,644	238,226	115,369
135,254	-6,518	237,895	115,300
136,268	-6,514	237,615	115,158
137,283	-6,956	237,476	114,723
138,297	-6,927	237,222	114,613
139,312	-7,147	237,036	114,335
140,327	-6,644	237,036	114,731
141,341	-6,179	237,073	115,114
142,356	-5,983	236,840	115,148
143,370	-6,120	236,702	114,961
144,385	-5,901	236,565	115,060
145,400	-6,044	236,319	114,815
146,414	-6,009	236,280	114,814
147,429	-6,200	236,005	114,517
148,443	-6,314	235,988	114,407
149,458	-6,212	235,673	114,326
150,473	-6,263	235,487	114,185
151,487	-6,328	235,306	114,035
152,502	-6,179	235,123	114,055
153,516	-6,199	235,088	114,012
154,531	-6,145	234,785	113,897
155,546	-6,101	234,568	113,818
156,560	-6,375	234,462	113,538
157,575	-6,421	234,281	113,404
158,589	-6,429	234,085	113,292
159,604	-6,203	234,119	113,478
160,619	-5,991	233,856	113,509
161,633	-6,041	233,771	113,417
162,648	-5,988	233,557	113,345
163,662	-6,238	233,493	113,106
164,677	-6,413	233,342	112,884
165,692	-5,911	232,875	113,046
166,706	-6,088	232,989	112,951
167,721	-5,887	232,783	112,999
168,735	-5,887	232,747	112,972
169,750	-6,093	232,506	112,682
170,764	-6,071	232,479	112,676
171,779	-6,006	232,220	112,592
172,794	-5,972	231,970	112,488
173,808	-6,280	231,874	112,189
174,823	-6,688	231,518	111,686
175,837	-6,715	231,225	111,514
176,852	-6,552	231,492	111,761
177,867	-6,113	231,332	112,018
178,881	-6,205	231,109	111,828
179,896	-5,851	230,947	112,017
180,910	-6,099	230,812	111,747
181,925	-6,056	230,620	111,678
182,940	-6,003	230,460	111,632
183,954	-5,806	230,350	111,721
184,969	-5,784	230,212	111,662
185,983	-5,913	230,120	111,507
186,998	-5,761	230,010	111,562
188,013	-5,794	229,819	111,434
189,027	-5,870	229,654	111,285
190,042	-5,877	229,420	111,156
191,056	-5,861	229,327	111,113
192,071	-5,967	229,237	110,978
193,086	-5,849	228,959	110,925
194,100	-5,660	228,772	110,970
195,115	-5,916	228,380	110,572
196,129	-6,572	228,242	109,989
197,144	-3,315	229,499	113,113
198,159	1,378	230,813	117,406
199,173	3,637	231,168	119,333
200,188	3,951	230,907	119,433
201,202	3,747	230,949	119,284
202,217	3,889	230,873	119,345
203,232	4,252	230,756	119,556
204,246	4,209	230,686	119,475
205,261	4,415	230,502	119,529
206,275	4,482	230,365	119,499
207,290	4,669	230,241	119,569
208,304	4,456	229,957	119,246
209,319	4,330	229,892	119,104
210,334	4,298	229,692	118,966
211,348	4,217	229,427	118,755
212,363	3,834	229,288	118,377
213,377	3,644	228,977	118,061
214,392	3,683	228,848	118,013
215,407	3,755	228,830	118,049
216,421	3,796	228,601	117,952
217,436	3,657	228,359	117,710
218,450	3,618	228,100	117,536
219,465	3,580	227,949	117,418
220,480	3,431	227,943	117,291
221,494	3,561	227,795	117,303
222,509	3,525	227,771	117,253
223,523	3,639	227,462	117,171
224,538	3,505	227,434	117,044
225,553	3,575	227,251	116,993
226,567	3,728	227,100	117,021
227,582	4,117	226,975	117,242
228,596	4,130	226,901	117,204
229,611	3,757	226,617	116,763
230,626	3,273	226,428	116,287
231,640	3,360	226,294	116,274
232,655	3,796	226,265	116,580
233,669	4,278	226,155	116,878
234,684	4,211	226,055	116,765
235,699	4,122	225,702	116,505
236,713	3,921	225,647	116,315
237,728	3,626	225,488	115,999
238,742	3,440	225,325	115,764
239,757	3,485	225,099	115,672
240,772	3,571	224,986	115,669
241,786	3,531	224,902	115,585
242,801	3,707	224,768	115,638
243,815	4,047	224,734	115,866
244,830	4,032	224,590	115,770
245,844	3,738	224,303	115,391
246,859	3,872	224,216	115,437
247,874	3,841	224,013	115,299
248,888	4,096	223,856	115,399
249,903	3,830	223,661	115,089
250,917	3,685	223,553	114,915
251,932	3,572	223,303	114,691
252,947	3,347	223,252	114,487
253,961	3,311	223,123	114,384
254,976	3,752	222,849	114,562
255,990	3,770	222,848	114,564
257,005	3,891	222,771	114,605
258,020	3,873	222,685	114,537
259,034	3,811	222,413	114,341
260,049	3,965	222,423	114,450
261,063	3,811	222,178	114,199
262,078	3,954	222,152	114,282
263,093	3,926	221,863	114,102
264,107	4,073	221,755	114,146
265,122	3,928	221,775	114,038
266,136	4,021	221,576	113,995
267,151	3,871	221,392	113,779
268,166	3,788	221,052	113,533
269,180	3,606	220,968	113,345
270,195	3,545	220,761	113,184
271,209	3,471	220,752	113,114
272,224	3,638	220,521	113,109
273,239	3,799	220,361	113,136
274,253	3,503	220,312	112,882
275,268	3,507	219,988	112,709
276,282	3,464	219,942	112,644
277,297	3,379	219,840	112,519
278,312	3,614	219,698	112,609
279,326	3,537	219,566	112,475
280,341	3,531	219,367	112,358
281,355	3,624	219,282	112,373
282,370	3,796	219,185	112,439
283,384	3,672	218,797	112,140
284,399	3,105	218,854	111,744
285,414	3,396	218,572	111,802
286,428	3,750	218,579	112,055
287,443	3,922	218,475	112,117
288,457	3,813	218,308	111,941
289,472	3,740	218,024	111,733
290,487	3,306	217,824	111,305
291,501	3,059	217,690	111,047
292,516	3,507	217,643	111,338
293,530	3,493	217,475	111,233
294,545	3,207	217,505	111,031
295,560	3,634	217,305	111,228
296,574	3,479	217,169	111,037
297,589	3,316	217,111	110,878
298,603	3,553	216,843	110,903
299,618	3,850	216,614	110,991
300,633	3,720	216,718	110,940
301,647	3,832	216,541	110,921
302,662	4,060	216,422	111,014
303,676	3,960	216,326	110,883
304,691	3,895	216,258	110,792
305,706	3,988	215,950	110,691
306,720	4,015	215,667	110,555
307,735	3,475	215,556	110,100
308,749	3,693	215,510	110,223
309,764	3,875	215,464	110,321
310,779	3,863	215,448	110,294
311,793	3,713	215,224	110,063
312,808	3,714	214,983	109,930
313,822	3,714	214,818	109,836
314,837	3,646	214,748	109,742
315,852	3,371	214,487	109,403
316,866	3,573	214,362	109,472
317,881	3,736	214,309	109,552
318,895	3,883	214,286	109,635
319,910	3,755	213,995	109,385
320,925	3,199	213,770	108,865
321,939	3,240	213,424	108,709
322,954	3,308	213,480	108,775
323,968	3,574	213,501	108,966
324,983	3,656	213,452	108,989
325,997	3,644	213,316	108,901
327,012	3,742	213,176	108,890
328,027	3,578	212,970	108,659
329,041	3,900	212,872	108,827
330,056	4,277	212,781	109,038
331,070	3,705	212,636	108,549
332,085	3,310	212,380	108,130
333,100	3,732	212,145	108,298
334,114	3,704	212,131	108,262
335,129	3,826	211,963	108,252
336,143	3,860	211,776	108,171
337,158	3,583	211,761	107,959
338,173	3,662	211,660	107,953
339,187	3,480	211,415	107,691
340,202	3,254	211,114	107,369
341,216	3,433	211,093	107,474
342,231	3,573	210,989	107,510
343,246	3,255	210,951	107,258
344,260	3,525	210,712	107,316
345,275	3,555	210,516	107,228
346,289	3,572	210,557	107,251
347,304	3,640	210,436	107,227
348,319	3,737	210,348	107,240
349,333	3,684	210,205	107,121
350,348	3,707	210,038	107,042
351,362	3,782	209,878	107,004
352,377	4,014	209,754	107,092
353,392	3,587	209,652	106,734
354,406	3,740	209,526	106,766
355,421	194,920	1342,475	1428,441
356,435	155,614	1480,572	1428,523
