DTS Sentinel unit serial number:	SN410029Multiplexer serial number:	ORYXHardware model number:	OX2-SRSoftware version number:	ORYX F/W v4,00 Oryx Data Collector v3.7.2.0data status	okinstallation	B6 Nyhavnadifferential loss correction	single-endedforward channel	channel 2reverse channel	N/Adate	2023/12/09time	03:45:08forward acquisition time	300,00reverse acquisition time	0,00gamma	499,1914k internal	0,3152k external	0,3152temperature offset calibration	1,0000default loss term (dB/km)	0,3820temperature slope calibration	1,0000multiplexer offset coefficient	1,0000multiplexer slope coefficient	1,0000fibre end	0,00T internal ref (°C)	16,50T ext. ref 1 (°C)	0,72T ext. ref 2 (°C)	0,73length (m)	temperature (°C)	Stokes	anti-Stokes-744,400	138,855	0,130	0,126
-743,385	-26,948	-0,334	-0,143
-742,371	-128,033	0,130	-0,014
-741,356	30,403	-0,251	0,158
-740,342	458,424	0,083	0,136
-739,327	-89,924	-0,258	0,055
-738,312	195,957	0,064	0,072
-737,298	-177,658	-0,292	0,005
-736,283	256,372	0,031	0,040
-735,269	-1,544	-0,334	0,174
-734,254	-200,000	-0,030	0,099
-733,239	-26,875	-0,507	-0,218
-732,225	-200,000	0,034	0,197
-731,210	164,387	-0,004	-0,004
-730,196	721,694	0,039	-0,077
-729,181	130,334	0,017	0,016
-728,167	-200,000	-0,009	0,090
-727,152	60,577	0,084	0,061
-726,137	-200,000	-0,028	-0,117
-725,123	465,117	-0,085	-0,140
-724,108	12,916	0,036	-0,021
-723,094	180,758	0,063	-0,069
-722,079	167,873	-0,014	0,014
-721,064	-90,834	0,014	-0,003
-720,050	549,444	0,070	-0,124
-719,035	-27,809	-0,126	-0,054
-718,021	-200,000	-0,031	-0,123
-717,006	312,480	-0,155	-0,215
-715,991	259,321	-0,034	-0,043
-714,977	273,838	0,079	-0,103
-713,962	62,630	-0,081	-0,060
-712,948	-200,000	-0,000	-0,128
-711,933	-200,000	0,007	-0,084
-710,918	-200,000	0,001	-0,090
-709,904	-200,000	-0,019	-0,203
-708,889	-25,094	-0,141	0,062
-707,875	800,000	0,013	-0,031
-706,860	-42,301	0,162	-0,061
-705,845	-31,818	-0,104	-0,043
-704,831	-200,000	0,004	-0,034
-703,816	800,000	-0,020	0,044
-702,802	116,468	-0,052	0,047
-701,787	28,028	-0,050	-0,031
-700,772	-200,000	0,025	-0,114
-699,758	-200,000	-0,018	-0,092
-698,743	17,504	0,121	-0,071
-697,729	-79,259	0,101	-0,025
-696,714	35,347	0,114	-0,073
-695,699	-200,000	0,003	0,043
-694,685	493,447	-0,028	-0,047
-693,670	-200,000	-0,008	-0,100
-692,656	800,000	-0,033	-0,090
-691,641	-200,000	0,003	-0,068
-690,627	156,340	0,063	0,064
-689,612	123,047	0,024	0,022
-688,597	-140,252	-0,103	0,008
-687,583	-99,514	-0,081	0,015
-686,568	255,344	-0,088	0,111
-685,554	-200,000	0,003	0,081
-684,539	-79,460	0,085	-0,021
-683,524	-200,000	-0,032	-0,189
-682,510	337,543	-0,011	0,016
-681,495	-200,000	-0,012	-0,052
-680,481	800,000	-0,040	-0,087
-679,466	9,271	-0,071	0,039
-678,451	800,000	-0,073	-0,153
-677,437	-42,449	-0,016	0,006
-676,422	800,000	-0,043	0,128
-675,408	-200,000	0,024	0,091
-674,393	-88,302	-0,177	0,039
-673,378	562,054	0,046	0,083
-672,364	-200,000	0,005	-0,058
-671,349	-200,000	-0,001	-0,028
-670,335	23,746	0,070	0,042
-669,320	503,914	-0,071	0,121
-668,305	800,000	-0,033	0,098
-667,291	48,979	-0,048	-0,033
-666,276	-9,187	-0,067	-0,033
-665,262	-1,583	-0,104	-0,054
-664,247	800,000	0,061	-0,163
-663,232	-129,716	0,052	0,005
-662,218	-102,681	0,109	-0,019
-661,203	105,637	-0,184	0,160
-660,189	141,091	-0,049	0,048
-659,174	-164,693	-0,030	0,001
-658,159	-200,000	-0,001	-0,111
-657,145	395,581	0,027	-0,041
-656,130	52,381	0,072	-0,051
-655,116	-200,000	0,023	0,100
-654,101	800,000	0,020	0,051
-653,086	-61,252	0,084	0,026
-652,072	4,375	-0,138	0,074
-651,057	271,288	-0,087	-0,113
-650,043	112,647	-0,079	-0,070
-649,028	-200,000	0,011	-0,112
-648,014	65,262	-0,072	0,054
-646,999	-52,508	0,033	-0,011
-645,984	800,000	0,065	-0,144
-644,970	-52,044	-0,112	-0,038
-643,955	-200,000	0,016	-0,104
-642,941	13,778	0,033	-0,019
-641,926	160,506	0,015	-0,016
-640,911	800,000	0,054	-0,126
-639,897	800,000	-0,043	-0,089
-638,882	263,928	0,087	-0,112
-637,868	800,000	-0,041	-0,122
-636,853	-200,000	0,020	-0,077
-635,838	-200,000	-0,004	-0,061
-634,824	304,775	-0,032	-0,044
-633,809	800,000	-0,049	-0,106
-632,795	-200,000	-0,005	0,130
-631,780	126,564	0,017	-0,016
-630,765	-47,561	-0,136	0,048
-629,751	-2,272	0,113	-0,058
-628,736	-33,772	-0,076	0,031
-627,722	-200,000	0,035	0,132
-626,707	-164,664	-0,030	-0,001
-625,692	-3,464	0,014	0,007
-624,678	375,451	0,082	-0,123
-623,663	38,738	0,044	-0,029
-622,649	-43,135	-0,082	0,030
-621,634	335,718	0,023	-0,033
-620,619	-200,000	0,001	0,118
-619,605	142,756	0,114	-0,111
-618,590	-200,000	-0,013	0,042
-617,576	-200,000	-0,032	-0,105
-616,561	175,074	0,104	0,111
-615,546	-200,000	-0,000	0,072
-614,532	230,337	-0,081	-0,098
-613,517	245,216	-0,044	0,054
-612,503	265,947	-0,032	-0,041
-611,488	800,000	0,035	-0,088
-610,474	2,047	-0,104	0,055
-609,459	341,309	-0,037	0,054
-608,444	-79,455	-0,115	-0,028
-607,430	220,917	0,060	0,071
-606,415	-33,709	-0,047	-0,019
-605,401	-167,381	-0,051	-0,001
-604,386	526,137	0,088	0,153
-603,371	-16,503	-0,111	0,051
-602,357	-99,849	-0,125	-0,023
-601,342	84,880	0,093	-0,075
-600,328	600,063	-0,100	-0,183
-599,313	-200,000	-0,001	-0,106
-598,298	-96,874	0,114	-0,022
-597,284	66,907	-0,102	0,076
-596,269	-74,112	-0,026	0,007
-595,255	800,000	0,022	0,049
-594,240	235,813	-0,041	0,050
-593,225	717,033	0,090	-0,176
-592,211	-200,000	0,017	-0,072
-591,196	-200,000	0,033	-0,116
-590,182	-200,000	-0,023	-0,139
-589,167	800,000	0,021	0,044
-588,152	800,000	0,046	-0,106
-587,138	-200,000	-0,012	0,104
-586,123	800,000	-0,048	-0,140
-585,109	-200,000	-0,025	-0,099
-584,094	-83,614	0,070	-0,016
-583,079	-200,000	0,017	0,065
-582,065	-200,000	0,001	-0,012
-581,050	-9,856	-0,035	-0,017
-580,036	-51,482	-0,072	-0,025
-579,021	-200,000	-0,014	-0,087
-578,006	290,876	0,094	-0,126
-576,992	-130,948	-0,155	-0,015
-575,977	800,000	-0,041	-0,119
-574,963	80,735	0,023	0,018
-573,948	-173,691	0,065	-0,001
-572,934	-98,682	0,075	-0,014
-571,919	29,059	-0,054	-0,034
-570,904	-200,000	0,023	0,133
-569,890	-200,000	-0,014	-0,116
-568,875	120,904	-0,094	0,085
-567,861	-69,810	-0,036	0,010
-566,846	-106,028	0,100	-0,016
-565,831	-98,015	-0,068	-0,013
-564,817	-200,000	0,009	0,030
-563,802	-200,000	-0,016	-0,058
-562,788	-200,000	-0,006	0,033
-561,773	397,801	0,045	-0,069
-560,758	3,463	0,123	0,066
-559,744	-199,767	-0,032	0,000
-558,729	-200,000	0,010	0,092
-557,715	168,767	0,116	-0,122
-556,700	20,389	-0,103	0,061
-555,685	111,869	0,034	0,030
-554,671	-10,335	-0,033	-0,016
-553,656	-114,597	0,061	0,009
-552,642	-145,804	0,056	0,004
-551,627	-40,984	-0,094	0,035
-550,612	305,451	-0,024	0,032
-549,598	170,614	0,035	-0,037
-548,583	-109,788	0,023	-0,004
-547,569	343,089	-0,026	0,037
-546,554	126,296	0,074	0,068
-545,539	-200,000	-0,007	0,096
-544,525	800,000	0,032	0,087
-543,510	-16,794	0,103	0,047
-542,496	92,008	-0,113	0,093
-541,481	160,402	0,078	-0,080
-540,466	112,097	0,039	-0,034
-539,452	73,709	0,148	0,113
-538,437	-57,316	-0,037	0,012
-537,423	-178,565	-0,065	-0,001
-536,408	-200,000	-0,004	0,053
-535,393	379,795	-0,109	-0,164
-534,379	-200,000	0,034	-0,117
-533,364	-200,000	0,004	-0,026
-532,350	-200,000	-0,010	-0,078
-531,335	-53,362	0,101	0,034
-530,321	-79,209	0,084	0,021
-529,306	23,446	-0,085	0,051
-528,291	88,498	-0,129	0,105
-527,277	800,000	0,021	0,051
-526,262	-9,494	-0,056	-0,027
-525,248	101,646	0,050	0,043
-524,233	-66,732	-0,080	0,023
-523,218	682,869	0,037	0,072
-522,204	29,219	-0,084	0,052
-521,189	483,786	-0,041	0,068
-520,175	-200,000	0,002	-0,101
-519,160	-132,051	0,056	0,005
-518,145	-19,204	-0,030	0,014
-517,131	-119,056	0,091	-0,012
-516,116	444,778	0,046	0,073
-515,102	-200,000	-0,019	-0,140
-514,087	210,190	-0,075	-0,086
-513,072	66,769	-0,173	0,129
-512,058	-200,000	0,009	-0,031
-511,043	201,025	0,114	0,129
-510,029	800,000	-0,030	0,095
-509,014	-84,741	0,101	-0,023
-507,999	87,053	-0,041	-0,033
-506,985	800,000	-0,012	-0,035
-505,970	86,866	-0,036	-0,029
-504,956	-12,383	-0,082	-0,039
-503,941	193,977	-0,074	-0,082
-502,926	800,000	0,036	-0,103
-501,912	28,061	-0,048	-0,030
-500,897	-200,000	-0,032	-0,153
-499,883	333,853	-0,039	-0,056
-498,868	-200,000	-0,006	-0,057
-497,853	-200,000	-0,034	0,121
-496,839	430,784	0,025	-0,040
-495,824	-200,000	-0,006	0,038
-494,810	-200,000	-0,003	0,067
-493,795	-200,000	-0,026	0,122
-492,781	-200,000	-0,014	-0,072
-491,766	800,000	-0,059	0,121
-490,751	621,216	-0,062	0,114
-489,737	-200,000	0,006	0,049
-488,722	-58,041	0,066	0,021
-487,708	249,784	-0,073	0,091
-486,693	210,975	-0,075	0,087
-485,678	120,851	0,069	-0,063
-484,664	-28,383	-0,069	-0,029
-483,649	677,232	-0,028	-0,053
-482,635	485,273	0,066	-0,111
-481,620	286,503	0,074	0,098
-480,605	-200,000	-0,014	0,147
-479,591	-200,000	-0,009	0,055
-478,576	-200,000	0,002	0,014
-477,562	527,242	-0,049	0,084
-476,547	-200,000	0,047	-0,199
-475,532	1,553	-0,054	0,028
-474,518	800,000	-0,049	0,122
-473,503	-200,000	0,000	-0,052
-472,489	800,000	0,048	-0,125
-471,474	122,874	-0,078	0,072
-470,459	800,000	0,041	0,119
-469,445	-200,000	0,021	-0,097
-468,430	375,722	0,037	0,055
-467,416	-56,893	-0,221	0,071
-466,401	223,038	0,099	0,117
-465,386	800,000	-0,030	-0,078
-464,372	-35,401	-0,092	-0,036
-463,357	126,988	0,051	0,047
-462,343	-137,233	-0,102	0,008
-461,328	373,885	-0,035	0,052
-460,313	-82,927	0,037	0,009
-459,299	602,025	0,018	-0,032
-458,284	353,800	0,023	0,034
-457,270	-200,000	0,018	0,117
-456,255	-200,000	0,018	0,107
-455,241	-126,283	-0,097	-0,010
-454,226	-200,000	0,019	-0,132
-453,211	-122,270	0,072	-0,009
-452,197	-200,000	-0,008	0,062
-451,182	150,053	0,068	0,067
-450,168	-116,677	-0,085	-0,011
-449,153	-19,453	-0,084	0,038
-448,138	-51,811	-0,086	-0,029
-447,124	73,733	0,091	-0,069
-446,109	-72,250	-0,194	-0,052
-445,095	-130,407	0,064	0,006
-444,080	20,161	0,053	-0,031
-443,065	-200,000	-0,018	-0,132
-442,051	747,615	-0,070	0,138
-441,036	-26,690	-0,154	-0,066
-440,022	207,887	-0,096	0,109
-439,007	-53,776	-0,085	0,028
-437,992	21,213	0,161	0,095
-436,978	-54,191	0,165	0,054
-435,963	-71,224	-0,149	-0,040
-434,949	727,238	0,023	0,046
-433,934	325,066	0,092	0,129
-432,919	795,339	-0,014	-0,029
-431,905	-200,000	0,023	0,074
-430,890	163,696	0,017	0,018
-429,876	-47,038	0,089	-0,032
-428,861	-200,000	-0,022	-0,137
-427,846	490,088	0,086	0,144
-426,832	-93,734	0,118	0,024
-425,817	-200,000	-0,003	-0,049
-424,803	-200,000	0,019	-0,113
-423,788	45,377	0,106	-0,071
-422,773	-81,159	0,055	-0,013
-421,759	-200,000	-0,010	0,055
-420,744	-83,694	-0,057	-0,013
-419,730	-200,000	-0,016	-0,111
-418,715	251,567	0,064	-0,079
-417,701	800,000	-0,047	-0,105
-416,686	-87,926	-0,037	0,008
-415,671	123,636	0,137	0,126
-414,657	-95,319	0,208	-0,040
-413,642	100,740	0,060	-0,050
-412,628	-200,000	-0,005	-0,150
-411,613	550,899	-0,062	-0,109
-410,598	0,682	0,072	0,037
-409,584	800,000	-0,039	0,091
-408,569	800,000	0,020	-0,042
-407,555	-200,000	-0,010	-0,052
-406,540	800,000	-0,023	-0,053
-405,525	94,246	0,053	-0,044
-404,511	-200,000	-0,022	-0,172
-403,496	-200,000	0,007	-0,220
-402,482	-200,000	0,009	0,037
-401,467	161,605	0,046	0,047
-400,452	431,068	-0,063	0,099
-399,438	-9,796	0,037	-0,018
-398,423	565,689	0,055	-0,098
-397,409	-200,000	-0,004	-0,171
-396,394	191,441	-0,035	-0,038
-395,379	-200,000	0,012	-0,076
-394,365	-200,000	-0,043	0,186
-393,350	469,766	0,045	0,074
-392,336	800,000	0,028	-0,065
-391,321	-134,858	-0,091	0,008
-390,306	-200,000	-0,017	0,143
-389,292	134,545	-0,082	0,078
-388,277	-4,362	0,071	0,035
-387,263	10,256	0,062	-0,034
-386,248	51,227	0,118	0,082
-385,233	-163,179	-0,063	0,002
-384,219	-36,998	0,102	-0,039
-383,204	-200,000	-0,023	-0,081
-382,190	-200,000	0,003	0,056
-381,175	800,000	-0,049	0,101
-380,160	-200,000	0,007	-0,054
-379,146	-59,642	-0,104	0,032
-378,131	-200,000	0,007	0,074
-377,117	800,000	-0,023	0,066
-376,102	-77,261	-0,055	-0,014
-375,088	-200,000	-0,031	0,101
-374,073	800,000	-0,009	0,023
-373,058	407,579	-0,058	0,090
-372,044	136,291	0,091	0,087
-371,029	-13,110	-0,041	0,019
-370,015	179,753	-0,076	0,081
-369,000	591,480	-0,070	0,127
-367,985	-38,860	-0,116	-0,044
-366,971	-78,647	0,139	-0,034
-365,956	-95,238	-0,152	-0,029
-364,942	115,914	0,026	0,023
-363,927	64,399	0,128	0,094
-362,912	182,019	0,032	0,035
-361,898	-109,578	-0,121	0,018
-360,883	238,967	-0,097	0,118
-359,869	-99,035	-0,030	0,005
-358,854	-200,000	0,066	-0,000
-357,839	-128,971	0,128	-0,013
-356,825	-6,162	0,150	-0,074
-355,810	-200,000	-0,169	0,000
-354,796	-200,000	-0,001	0,035
-353,781	105,933	-0,078	-0,067
-352,766	800,000	0,042	0,106
-351,752	451,881	-0,064	-0,103
-350,737	89,171	-0,033	-0,027
-349,723	800,000	-0,026	0,070
-348,708	213,270	-0,099	0,114
-347,693	-65,605	0,109	-0,031
-346,679	-91,774	-0,081	-0,017
-345,664	-15,980	0,092	-0,042
-344,650	118,692	-0,045	-0,041
-343,635	-38,493	0,117	-0,045
-342,620	430,980	-0,034	-0,053
-341,606	70,609	-0,013	0,010
-340,591	101,036	0,024	-0,020
-339,577	-62,740	0,032	0,010
-338,562	-200,000	0,004	-0,072
-337,548	800,000	-0,067	0,153
-336,533	-200,000	-0,002	-0,051
-335,518	1,884	0,088	0,046
-334,504	-200,000	0,015	0,050
-333,489	-200,000	0,005	0,057
-332,475	-100,389	0,042	-0,007
-331,460	800,000	0,047	-0,142
-330,445	800,000	0,040	-0,109
-329,431	172,232	-0,092	0,096
-328,416	8,987	0,115	0,063
-327,402	-200,000	-0,024	-0,080
-326,387	800,000	0,038	0,077
-325,372	1,317	-0,086	-0,045
-324,358	-86,336	0,039	0,009
-323,343	-61,183	-0,050	-0,015
-322,329	68,267	-0,012	0,009
-321,314	-2,433	0,122	0,062
-320,299	145,370	-0,083	0,080
-319,285	52,706	-0,088	-0,061
-318,270	224,678	-0,066	-0,078
-317,256	232,808	-0,044	-0,053
-316,241	-109,131	0,164	0,025
-315,226	76,054	0,075	0,058
-314,212	-108,227	0,044	-0,007
-313,197	-200,000	0,015	0,074
-312,183	-96,282	-0,052	0,010
-311,168	800,000	0,032	-0,064
-310,153	-43,224	-0,190	0,069
-309,139	-200,000	0,010	-0,089
-308,124	361,637	0,049	-0,071
-307,110	-13,965	-0,183	-0,086
-306,095	-93,505	0,142	0,028
-305,080	-1,540	-0,109	0,055
-304,066	-91,695	-0,017	0,003
-303,051	81,972	0,035	-0,027
-302,037	800,000	-0,013	-0,040
-301,022	21,472	0,064	0,038
-300,008	-11,593	0,095	-0,045
-298,993	239,849	0,104	0,125
-297,978	401,081	0,048	0,074
-296,964	-91,428	0,074	-0,015
-295,949	18,256	0,050	0,029
-294,935	-172,975	-0,132	-0,003
-293,920	44,999	0,083	-0,055
-292,905	-71,300	0,007	0,002
-291,891	-200,000	-0,002	0,047
-290,876	29,825	0,103	0,064
-289,862	-28,643	-0,108	-0,045
-288,847	-200,000	-0,005	-0,077
-287,832	139,596	-0,087	-0,083
-286,818	-200,000	0,025	0,085
-285,803	800,000	-0,038	0,095
-284,789	-200,000	0,004	-0,039
-283,774	800,000	-0,010	0,023
-282,759	-200,000	-0,007	-0,034
-281,745	85,941	-0,057	0,045
-280,730	552,572	0,108	0,188
-279,716	338,205	-0,084	-0,119
-278,701	-31,005	0,120	0,049
-277,686	475,183	0,100	0,164
-276,672	-200,000	-0,015	0,075
-275,657	100,770	-0,023	-0,020
-274,643	-200,000	-0,012	-0,137
-273,628	56,167	-0,094	-0,066
-272,613	-200,000	-0,008	-0,044
-271,599	800,000	0,033	-0,081
-270,584	706,071	-0,043	-0,082
-269,570	458,621	-0,051	0,082
-268,555	-200,000	-0,026	-0,131
-267,540	48,505	-0,036	-0,024
-266,526	-1,549	-0,060	-0,031
-265,511	-200,000	-0,004	-0,047
-264,497	-15,963	0,083	0,038
-263,482	-21,124	0,145	0,064
-262,467	-200,000	-0,008	-0,089
-261,453	-69,601	0,105	-0,029
-260,438	-200,000	-0,014	0,110
-259,424	415,749	-0,036	-0,056
-258,409	800,000	0,011	-0,028
-257,395	-200,000	0,004	-0,046
-256,380	36,126	0,161	0,102
-255,365	230,949	-0,115	0,137
-254,351	-200,000	-0,007	0,037
-253,336	-51,575	-0,057	0,019
-252,322	-36,324	0,037	0,014
-251,307	800,000	-0,024	0,066
-250,292	254,373	-0,079	-0,098
-249,278	-111,228	0,142	-0,021
-248,263	657,627	0,010	0,018
-247,249	176,243	0,038	-0,040
-246,234	192,613	-0,086	-0,094
-245,219	-62,016	-0,045	0,013
-244,205	-62,874	-0,061	0,018
-243,190	-200,000	0,010	0,121
-242,176	433,857	-0,043	-0,068
-241,161	-6,954	0,127	0,062
-240,146	332,794	0,043	-0,061
-239,132	-29,720	-0,038	0,016
-238,117	-56,185	0,153	-0,049
-237,103	-136,973	-0,127	-0,010
-236,088	-200,000	-0,024	-0,099
-235,073	-60,099	-0,033	0,010
-234,059	495,593	-0,025	0,042
-233,044	-20,980	0,107	0,047
-232,030	-200,000	0,006	-0,022
-231,015	51,909	-0,071	-0,049
-230,000	238,030	0,072	0,086
-228,986	-93,907	-0,042	0,008
-227,971	246,416	0,076	0,093
-226,957	-200,000	-0,044	0,151
-225,942	-200,000	0,005	0,016
-224,927	175,794	0,059	0,062
-223,913	47,870	-0,031	-0,021
-222,898	-200,000	-0,014	-0,107
-221,884	800,000	0,050	-0,126
-220,869	-200,000	-0,029	-0,108
-219,855	129,111	0,029	0,027
-218,840	54,017	0,081	0,056
-217,825	-22,577	-0,101	-0,044
-216,811	-19,536	-0,165	-0,073
-215,796	-200,000	-0,063	-0,000
-214,782	-80,253	-0,052	-0,013
-213,767	-200,000	0,005	-0,049
-212,752	54,712	0,099	0,069
-211,738	314,422	-0,071	0,096
-210,723	800,000	-0,013	-0,027
-209,709	153,837	0,022	0,022
-208,694	-200,000	0,017	-0,266
-207,679	-127,497	-0,091	-0,009
-206,665	-200,000	-0,005	0,135
-205,650	121,939	0,101	0,092
-204,636	-158,122	-0,104	0,004
-203,621	48,016	-0,038	0,026
-202,606	279,335	-0,066	-0,085
-201,592	-103,712	0,062	0,010
-200,577	426,017	-0,069	-0,108
-199,563	18,052	0,150	-0,086
-198,548	-200,000	-0,001	0,131
-197,533	23,611	-0,027	0,016
-196,519	-200,000	0,009	-0,103
-195,504	334,983	0,061	-0,085
-194,490	506,018	-0,048	-0,081
-193,475	-200,000	-0,003	-0,054
-192,460	-200,000	-0,008	0,036
-191,446	800,000	-0,061	0,148
-190,431	-200,000	0,028	0,176
-189,417	-200,000	-0,020	0,082
-188,402	452,655	0,079	-0,127
-187,387	-200,000	0,024	-0,096
-186,373	56,417	-0,076	0,053
-185,358	181,608	0,032	-0,034
-184,344	-200,000	0,023	0,177
-183,329	106,755	-0,040	-0,034
-182,315	219,410	0,025	0,029
-181,300	-5,368	-0,065	0,032
-180,285	-98,504	0,106	-0,019
-179,271	148,353	0,063	-0,062
-178,256	-200,000	-0,007	-0,027
-177,242	-200,000	-0,025	0,108
-176,227	192,938	0,128	0,140
-175,212	167,995	-0,069	0,071
-174,198	28,926	0,037	-0,023
-173,183	-77,790	-0,164	0,041
-172,169	-200,000	-0,029	0,104
-171,154	74,151	0,171	0,130
-170,139	-107,757	0,088	0,014
-169,125	-200,000	0,005	0,082
-168,110	-200,000	-0,037	-0,120
-167,096	800,000	0,034	0,100
-166,081	387,137	0,045	0,067
-165,066	-200,000	-0,030	-0,145
-164,052	-134,045	0,211	0,019
-163,037	-156,899	0,034	-0,001
-162,023	80,223	-0,032	0,025
-161,008	102,015	0,047	-0,040
-159,993	-68,218	0,073	0,020
-158,979	-200,000	-0,017	-0,172
-157,964	-29,594	-0,099	0,041
-156,950	800,000	0,060	-0,138
-155,935	800,000	-0,016	0,041
-154,920	-200,000	0,012	0,139
-153,906	-100,078	0,107	0,019
-152,891	-200,000	0,014	0,067
-151,877	-89,911	-0,050	0,010
-150,862	-65,286	0,056	-0,016
-149,847	-200,000	-0,012	0,072
-148,833	-200,000	-0,014	0,100
-147,818	-200,000	-0,023	0,094
-146,804	144,221	0,040	0,039
-145,789	-147,346	0,109	-0,007
-144,775	-138,105	-0,101	-0,008
-143,760	279,531	-0,090	0,117
-142,745	-200,000	0,011	-0,113
-141,731	-95,639	0,061	-0,012
-140,716	-200,000	-0,015	0,098
-139,702	-200,000	0,007	-0,115
-138,687	670,547	0,039	0,073
-137,672	-162,132	-0,036	-0,001
-136,658	-93,552	-0,059	-0,012
-135,643	81,328	0,023	0,018
-134,629	800,000	0,034	-0,072
-133,614	85,289	0,054	0,043
-132,599	-50,349	0,089	-0,030
-131,585	756,878	-0,035	-0,068
-130,570	-145,904	-0,068	-0,004
-129,556	751,861	0,070	-0,138
-128,541	143,042	0,095	0,091
-127,526	110,286	-0,129	0,112
-126,512	52,329	-0,093	0,064
-125,497	-200,000	0,052	0,172
-124,483	-12,791	-0,090	0,042
-123,468	-20,234	-0,035	-0,016
-122,453	-200,000	0,005	0,032
-121,439	62,103	0,073	0,052
-120,424	-61,382	0,050	0,015
-119,410	3,233	0,231	-0,121
-118,395	-104,457	0,059	-0,010
-117,380	-200,000	0,006	0,226
-116,366	800,000	0,029	0,083
-115,351	282,008	0,037	-0,047
-114,337	-200,000	-0,016	-0,102
-113,322	-69,016	-0,070	-0,019
-112,307	-176,315	0,037	0,001
-111,293	21,728	0,074	0,043
-110,278	800,000	0,005	0,013
-109,264	800,000	0,054	0,167
-108,249	212,415	-0,051	-0,058
-107,234	247,609	-0,053	-0,065
-106,220	119,033	0,064	0,057
-105,205	639,606	-0,038	0,070
-104,191	-96,388	0,048	-0,009
-103,176	800,000	-0,036	-0,086
-102,162	59,649	0,041	0,029
-101,147	37,952	0,015	0,009
-100,132	261,765	-0,067	-0,084
-99,118	800,000	0,027	0,067
-98,103	-123,977	0,134	0,015
-97,089	-200,000	0,002	0,037
-96,074	-82,443	-0,033	0,008
-95,059	-178,075	-0,090	-0,002
-94,045	147,203	0,190	0,184
-93,030	22,544	-0,071	0,042
-92,016	24,942	-0,065	0,038
-91,001	692,848	0,055	0,105
-89,986	246,261	0,051	-0,063
-88,972	-200,000	0,001	0,014
-87,957	800,000	-0,035	0,107
-86,943	-47,348	0,128	-0,045
-85,928	526,829	-0,080	-0,137
-84,913	-112,033	-0,109	0,016
-83,899	57,639	-0,101	-0,071
-82,884	-168,307	-0,099	-0,003
-81,870	-119,270	0,076	-0,009
-80,855	55,879	-0,050	0,035
-79,840	-200,000	0,003	-0,051
-78,826	-143,775	-0,048	0,003
-77,811	158,330	-0,041	-0,041
-76,797	783,738	0,077	-0,153
-75,782	61,494	0,192	0,138
-74,767	800,000	-0,051	0,109
-73,753	800,000	-0,023	0,053
-72,738	800,000	-0,056	0,124
-71,724	567,695	-0,053	0,092
-70,709	11,077	-0,117	-0,064
-69,694	-200,000	-0,003	-0,047
-68,680	35,567	0,046	0,029
-67,665	-200,000	-0,004	0,051
-66,651	216,902	-0,063	-0,073
-65,636	66,226	-0,019	-0,014
-64,622	-55,191	-0,015	-0,005
-63,607	-61,436	0,019	-0,006
-62,592	-56,311	-0,156	-0,050
-61,578	5,627	0,105	0,055
-60,563	-200,000	-0,024	0,086
-59,549	-200,000	-0,005	-0,021
-58,534	11,430	-1,731	-0,951
-57,519	-200,000	-0,180	-0,953
-56,505	-200,000	-1,259	-4,806
-55,490	-9,671	0,713	0,340
-54,476	800,000	5,458	12,253
-53,461	-200,000	16,953	272,442
-52,446	800,000	717,841	2181,871
-51,432	529,369	1631,070	2779,006
-50,417	112,525	1626,087	1414,382
-49,403	76,150	1286,841	978,124
-48,388	33,363	1032,755	642,997
-47,373	20,240	994,991	575,939
-46,359	18,958	983,211	564,863
-45,344	16,804	979,187	555,433
-44,330	16,998	977,481	555,082
-43,315	16,580	976,015	552,854
-42,300	16,521	975,087	552,112
-41,286	16,556	973,890	551,529
-40,271	16,550	972,877	550,912
-39,257	16,558	972,186	550,526
-38,242	16,592	971,344	550,140
-37,227	16,537	970,571	549,499
-36,213	16,452	969,796	548,760
-35,198	16,553	968,710	548,454
-34,184	16,550	968,068	548,060
-33,169	16,502	967,109	547,340
-32,154	16,534	966,150	546,878
-31,140	16,591	965,133	546,464
-30,125	16,564	964,348	545,913
-29,111	16,601	963,651	545,617
-28,096	16,576	963,132	545,219
-27,082	16,508	962,380	544,550
-26,067	16,498	961,678	544,100
-25,052	16,563	960,807	543,798
-24,038	16,495	960,205	543,214
-23,023	16,518	959,460	542,845
-22,009	16,582	958,780	542,644
-20,994	16,532	958,187	542,125
-19,979	16,583	957,615	541,948
-18,965	16,523	956,934	541,348
-17,950	16,549	956,298	541,050
-16,936	16,523	955,704	540,606
-15,921	16,435	954,915	539,856
-14,906	16,420	954,272	539,424
-13,892	16,424	953,533	538,998
-12,877	16,391	952,909	538,519
-11,863	16,370	952,365	538,123
-10,848	16,387	951,814	537,842
-9,833	16,505	951,436	537,985
-8,819	16,478	950,674	537,446
-7,804	16,390	949,983	536,755
-6,790	16,400	949,380	536,423
-5,775	16,474	948,788	536,304
-4,760	16,430	948,304	535,868
-3,746	16,477	947,455	535,519
-2,731	16,204	946,879	534,301
-1,717	16,252	946,098	533,994
-0,702	16,275	945,445	533,676
0,313	16,028	944,814	533,341
1,327	19,445	942,888	543,043
2,342	28,558	797,634	483,636
3,356	25,631	449,699	268,262
4,371	-3,745	297,418	147,858
5,386	-7,583	278,807	134,932
6,400	-8,635	273,336	131,287
7,415	-9,195	271,030	129,647
8,429	-9,133	269,485	128,954
9,444	-9,327	268,615	128,348
10,459	-9,407	268,063	127,999
11,473	-9,470	267,325	127,578
12,488	-9,564	266,682	127,173
13,502	-9,752	266,130	126,727
14,517	-9,716	265,800	126,592
15,531	-9,913	265,367	126,195
16,546	-9,776	264,804	126,040
17,561	-9,749	264,572	125,943
18,575	-9,747	264,228	125,771
19,590	-9,780	263,821	125,536
20,604	-9,892	263,691	125,361
21,619	-9,947	263,319	125,123
22,634	-9,772	262,953	125,097
23,648	-10,117	262,529	124,573
24,663	-9,976	262,188	124,527
25,677	-10,172	262,198	124,345
26,692	-9,992	261,763	124,288
27,707	-9,934	261,622	124,263
28,721	-10,130	261,301	123,923
29,736	-10,127	261,048	123,795
30,750	-9,925	260,856	123,873
31,765	-10,239	260,514	123,420
32,780	-10,158	260,320	123,390
33,794	-9,950	259,978	123,401
34,809	-10,182	259,941	123,166
35,823	-10,247	259,558	122,916
36,838	-10,035	259,304	122,973
37,853	-10,238	258,859	122,571
38,867	-10,255	258,833	122,533
39,882	-10,202	258,588	122,453
40,896	-10,315	258,410	122,258
41,911	-10,159	258,121	122,248
42,926	-10,162	257,828	122,096
43,940	-10,126	257,541	121,981
44,955	-10,376	257,285	121,629
45,969	-10,384	257,143	121,544
46,984	-10,705	256,881	121,127
47,999	-10,848	256,539	120,830
49,013	-10,817	256,388	120,775
50,028	-11,055	256,029	120,387
51,042	-11,166	255,856	120,198
52,057	-11,211	255,733	120,090
53,071	-11,181	255,378	119,938
54,086	-11,073	255,231	119,953
55,101	-10,816	255,031	120,072
56,115	-10,570	255,044	120,282
57,130	-10,042	254,896	120,661
58,144	-9,807	254,786	120,802
59,159	-9,712	254,502	120,739
60,174	-9,677	254,323	120,674
61,188	-9,955	254,201	120,364
62,203	-9,960	253,956	120,233
63,217	-9,943	253,607	120,072
64,232	-10,056	253,481	119,904
65,247	-10,007	253,341	119,869
66,261	-9,857	253,042	119,847
67,276	-10,163	252,667	119,395
68,290	-10,512	252,390	118,953
69,305	-10,489	252,104	118,827
70,320	-10,560	252,003	118,708
71,334	-10,300	251,924	118,883
72,349	-9,958	251,701	119,062
73,363	-9,793	251,682	119,183
74,378	-9,857	251,404	118,986
75,393	-10,024	251,182	118,727
76,407	-9,960	250,878	118,628
77,422	-10,062	250,591	118,394
78,436	-9,962	250,418	118,388
79,451	-10,016	250,357	118,302
80,466	-10,154	249,909	117,962
81,480	-10,272	249,740	117,772
82,495	-10,318	249,470	117,595
83,509	-10,386	249,328	117,459
84,524	-10,249	249,172	117,492
85,539	-10,598	248,948	117,080
86,553	-10,632	248,754	116,949
87,568	-10,604	248,645	116,912
88,582	-10,394	248,355	116,942
89,597	-10,504	248,197	116,764
90,611	-10,328	248,155	116,883
91,626	-10,027	247,943	117,026
92,641	-10,025	247,674	116,891
93,655	-10,174	247,559	116,701
94,670	-10,326	247,420	116,496
95,684	-10,373	247,118	116,305
96,699	-10,403	246,963	116,196
97,714	-10,276	246,777	116,205
98,728	-10,517	246,545	115,883
99,743	-10,520	246,324	115,767
100,757	-10,582	246,022	115,562
101,772	-10,373	245,900	115,670
102,787	-10,375	245,702	115,565
103,801	-10,261	245,565	115,585
104,816	-10,208	245,446	115,563
105,830	-9,907	245,325	115,746
106,845	-10,091	245,167	115,509
107,860	-10,127	244,840	115,314
108,874	-10,249	244,825	115,195
109,889	-10,461	244,657	114,929
110,903	-10,059	244,158	115,019
111,918	-10,284	244,136	114,811
112,933	-10,252	243,992	114,759
113,947	-10,206	243,849	114,720
114,962	-10,092	243,543	114,661
115,976	-10,191	243,480	114,539
116,991	-10,192	243,383	114,483
118,006	-10,190	243,253	114,412
119,020	-10,152	242,996	114,312
120,035	-10,072	242,922	114,334
121,049	-10,094	242,847	114,270
122,064	-10,025	242,501	114,154
123,079	-10,158	242,485	114,026
124,093	-10,310	242,131	113,724
125,108	-10,425	241,791	113,461
126,122	-10,444	241,505	113,301
127,137	-10,817	241,383	112,928
128,151	-10,877	241,383	112,869
129,166	-10,450	241,112	113,081
130,181	-10,354	240,879	113,040
131,195	-10,442	240,620	112,838
132,210	-10,230	240,568	112,975
133,224	-10,031	240,382	113,040
134,239	-10,112	240,341	112,944
135,254	-10,223	240,079	112,722
136,268	-10,332	239,973	112,573
137,283	-10,543	239,600	112,217
138,297	-10,626	239,417	112,053
139,312	-10,577	239,107	111,938
140,327	-10,226	239,130	112,223
141,341	-9,760	239,233	112,640
142,356	-9,821	239,075	112,505
143,370	-9,709	238,725	112,421
144,385	-9,652	238,622	112,409
145,400	-9,522	238,460	112,428
146,414	-9,847	238,339	112,098
147,429	-9,871	238,082	111,948
148,443	-9,796	238,050	111,983
149,458	-9,817	237,837	111,856
150,473	-9,769	237,548	111,749
151,487	-9,814	237,398	111,632
152,502	-9,988	237,270	111,422
153,516	-9,705	237,203	111,608
154,531	-9,986	237,016	111,285
155,546	-9,691	236,779	111,400
156,560	-9,727	236,445	111,204
157,575	-10,147	236,222	110,754
158,589	-9,943	236,122	110,860
159,604	-9,612	236,072	111,090
160,619	-9,545	235,907	111,057
161,633	-9,837	235,933	110,826
162,648	-9,695	235,592	110,769
163,662	-9,796	235,619	110,692
164,677	-10,043	235,578	110,466
165,692	-9,867	235,255	110,445
166,706	-9,489	234,968	110,600
167,721	-9,389	234,962	110,667
168,735	-9,406	234,732	110,535
169,750	-9,561	234,543	110,313
170,764	-9,537	234,397	110,254
171,779	-9,512	234,144	110,145
172,794	-9,615	234,080	110,024
173,808	-9,872	233,833	109,694
174,823	-10,311	233,510	109,187
175,837	-10,590	233,310	108,863
176,852	-9,891	233,398	109,446
177,867	-9,455	233,290	109,729
178,881	-9,430	233,117	109,657
179,896	-9,627	233,017	109,446
180,910	-9,724	232,869	109,290
181,925	-9,711	232,690	109,207
182,940	-9,583	232,629	109,269
183,954	-9,454	232,358	109,234
184,969	-9,496	232,143	109,089
185,983	-9,334	232,069	109,172
186,998	-9,495	231,844	108,930
188,013	-9,139	231,660	109,112
189,027	-9,515	231,583	108,772
190,042	-9,454	231,317	108,685
191,056	-9,333	231,317	108,770
192,071	-9,429	231,157	108,610
193,086	-9,317	231,016	108,621
194,100	-9,245	231,010	108,665
195,115	-8,923	230,759	108,788
196,129	-9,145	230,689	108,572
197,144	-4,636	232,220	112,809
198,159	0,202	233,637	117,284
199,173	3,078	234,466	119,948
200,188	3,789	234,336	120,428
201,202	3,844	234,124	120,352
202,217	3,759	233,993	120,207
203,232	3,793	233,940	120,196
204,246	4,059	233,714	120,277
205,261	3,824	233,730	120,091
206,275	4,275	233,546	120,338
207,290	4,175	233,483	120,216
208,304	4,103	233,344	120,078
209,319	4,176	233,083	119,990
210,334	4,137	232,781	119,793
211,348	3,869	232,621	119,492
212,363	3,476	232,269	118,996
213,377	3,300	232,241	118,834
214,392	3,247	232,073	118,697
215,407	3,396	231,999	118,763
216,421	3,574	231,721	118,748
217,436	3,324	231,533	118,448
218,450	3,089	231,345	118,159
219,465	3,126	231,127	118,066
220,480	2,990	231,103	117,938
221,494	3,055	230,963	117,907
222,509	3,295	230,870	118,034
223,523	3,350	230,647	117,952
224,538	3,322	230,472	117,830
225,553	3,324	230,422	117,795
226,567	3,568	230,227	117,873
227,582	3,494	230,169	117,776
228,596	3,884	229,941	117,948
229,611	3,451	229,989	117,629
230,626	3,233	229,560	117,233
231,640	3,388	229,471	117,296
232,655	3,605	229,313	117,370
233,669	3,761	229,395	117,521
234,684	3,881	229,358	117,584
235,699	3,567	229,069	117,185
236,713	3,428	228,828	116,945
237,728	3,627	228,575	116,957
238,742	3,434	228,443	116,732
239,757	3,252	228,269	116,495
240,772	3,357	228,059	116,457
241,786	3,123	228,075	116,277
242,801	3,385	227,838	116,345
243,815	3,656	227,886	116,564
244,830	3,815	227,785	116,622
245,844	3,490	227,454	116,196
246,859	3,478	227,375	116,137
247,874	3,480	227,415	116,148
248,888	3,808	227,043	116,196
249,903	3,627	226,879	115,965
250,917	3,401	226,787	115,736
251,932	3,440	226,569	115,645
252,947	3,421	226,308	115,487
253,961	3,380	226,033	115,305
254,976	3,350	226,081	115,297
255,990	3,283	226,054	115,223
257,005	3,586	225,908	115,366
258,020	3,509	225,774	115,230
259,034	3,819	225,677	115,402
260,049	3,844	225,439	115,289
261,063	3,482	225,318	114,945
262,078	3,555	225,254	114,957
263,093	3,902	224,973	115,064
264,107	3,570	224,885	114,760
265,122	3,725	224,529	114,684
266,136	3,758	224,701	114,786
267,151	3,740	224,668	114,745
268,166	3,546	224,177	114,339
269,180	2,980	224,134	113,886
270,195	3,204	223,875	113,910
271,209	3,350	223,761	113,952
272,224	3,283	223,786	113,903
273,239	3,532	223,516	113,941
274,253	3,508	223,286	113,796
275,268	3,253	223,110	113,507
276,282	3,225	222,977	113,409
277,297	2,921	222,794	113,080
278,312	3,072	222,744	113,157
279,326	3,488	222,662	113,413
280,341	3,472	222,513	113,315
281,355	3,391	222,415	113,195
282,370	3,201	222,307	112,990
283,384	2,961	222,019	112,656
284,399	2,937	221,879	112,557
285,414	3,218	221,711	112,669
286,428	3,185	221,726	112,642
287,443	3,361	221,668	112,733
288,457	3,470	221,382	112,658
289,472	3,334	221,032	112,369
290,487	3,003	220,973	112,086
291,501	3,005	220,819	112,000
292,516	3,193	220,730	112,082
293,530	3,050	220,563	111,882
294,545	3,071	220,552	111,883
295,560	3,173	220,341	111,840
296,574	3,145	220,287	111,782
297,589	3,414	220,029	111,838
298,603	3,357	220,025	111,784
299,618	3,304	219,799	111,620
300,633	3,364	219,735	111,622
301,647	3,664	219,738	111,832
302,662	3,613	219,520	111,674
303,676	3,526	219,255	111,466
304,691	3,563	219,229	111,470
305,706	3,633	219,056	111,423
306,720	3,554	218,960	111,307
307,735	3,431	218,698	111,074
308,749	3,162	218,538	110,788
309,764	3,431	218,418	110,912
310,779	3,516	218,395	110,952
311,793	3,335	218,110	110,667
312,808	3,614	217,908	110,755
313,822	3,215	217,811	110,409
314,837	3,249	217,650	110,342
315,852	3,222	217,478	110,225
316,866	3,147	217,434	110,139
317,881	3,461	217,320	110,297
318,895	3,514	216,982	110,155
319,910	3,049	217,010	109,825
320,925	3,279	216,790	109,868
321,939	3,161	216,753	109,755
322,954	3,193	216,624	109,703
323,968	3,533	216,435	109,841
324,983	3,268	216,528	109,689
325,997	3,413	216,337	109,686
327,012	3,405	216,177	109,589
328,027	3,316	216,005	109,429
329,041	3,676	215,983	109,665
330,056	3,905	215,880	109,767
331,070	3,298	215,512	109,137
332,085	3,293	215,289	109,011
333,100	3,223	215,198	108,905
334,114	3,400	215,119	108,981
335,129	3,677	215,121	109,170
336,143	3,435	214,895	108,873
337,158	3,409	214,704	108,748
338,173	3,495	214,572	108,733
339,187	3,275	214,408	108,484
340,202	3,001	214,206	108,178
341,216	2,806	214,073	107,963
342,231	3,147	213,949	108,132
343,246	3,216	213,881	108,137
344,260	3,053	213,682	107,912
345,275	3,450	213,569	108,126
346,289	3,397	213,618	108,103
347,304	3,462	213,451	108,054
348,319	3,343	213,264	107,866
349,333	3,421	213,165	107,862
350,348	3,424	212,981	107,761
351,362	3,690	212,856	107,875
352,377	3,479	212,815	107,696
353,392	3,388	212,535	107,482
354,406	3,418	212,463	107,456
355,421	195,218	1343,377	1422,698
356,435	155,945	1481,159	1422,698
