DTS Sentinel unit serial number:	SN410029Multiplexer serial number:	ORYXHardware model number:	OX2-SRSoftware version number:	ORYX F/W v4,00 Oryx Data Collector v3.7.2.0data status	okinstallation	B6 Nyhavnadifferential loss correction	single-endedforward channel	channel 2reverse channel	N/Adate	2023/12/10time	07:15:08forward acquisition time	300,00reverse acquisition time	0,00gamma	499,1914k internal	0,3123k external	0,3123temperature offset calibration	1,0000default loss term (dB/km)	0,3820temperature slope calibration	1,0000multiplexer offset coefficient	1,0000multiplexer slope coefficient	1,0000fibre end	0,00T internal ref (°C)	22,62T ext. ref 1 (°C)	6,32T ext. ref 2 (°C)	6,31length (m)	temperature (°C)	Stokes	anti-Stokes-744,400	-176,314	-0,059	-0,001
-743,385	445,648	-0,119	0,196
-742,371	-66,633	0,114	0,033
-741,356	68,884	-0,222	0,170
-740,342	-35,148	0,094	-0,038
-739,327	-108,848	-0,307	0,048
-738,312	87,513	0,235	-0,193
-737,298	-92,658	-0,196	0,041
-736,283	472,577	0,031	-0,053
-735,269	417,745	-0,150	0,240
-734,254	294,585	0,090	-0,122
-733,239	-73,048	-0,325	-0,088
-732,225	-49,877	0,149	0,053
-731,210	-85,784	-0,030	-0,007
-730,196	-2,427	-0,086	-0,045
-729,181	-200,000	0,006	-0,025
-728,167	77,508	-0,114	-0,091
-727,152	-15,225	-0,050	-0,024
-726,137	800,000	-0,054	0,171
-725,123	800,000	-0,025	-0,083
-724,108	-77,931	-0,202	-0,052
-723,094	800,000	-0,023	0,073
-722,079	107,265	-0,056	0,050
-721,064	800,000	0,024	0,053
-720,050	83,349	-0,065	0,053
-719,035	656,988	-0,044	-0,084
-718,021	578,829	0,034	-0,062
-717,006	-200,000	-0,021	-0,074
-715,991	-88,324	-0,057	0,013
-714,977	98,478	-0,020	-0,017
-713,962	74,867	-0,075	-0,059
-712,948	-57,056	0,141	0,046
-711,933	-49,293	-0,033	0,012
-710,918	191,473	0,057	0,064
-709,904	118,204	-0,115	0,106
-708,889	-200,000	-0,003	-0,164
-707,875	302,407	-0,127	-0,176
-706,860	469,624	0,072	-0,121
-705,845	267,278	0,019	0,024
-704,831	188,635	0,094	0,105
-703,816	380,464	0,063	0,096
-702,802	-9,662	-0,069	-0,034
-701,787	-71,686	-0,155	0,043
-700,772	522,571	-0,009	-0,017
-699,758	-97,083	-0,156	-0,030
-698,743	-97,850	0,055	0,010
-697,729	152,332	0,105	0,107
-696,714	-200,000	0,006	-0,070
-695,699	-65,655	0,079	-0,023
-694,685	-104,258	-0,090	-0,015
-693,670	-67,311	-0,244	-0,071
-692,656	54,536	-0,075	0,054
-691,641	222,608	0,070	-0,083
-690,627	-1,868	0,074	0,039
-689,612	270,998	-0,040	0,052
-688,597	-200,000	-0,022	-0,096
-687,583	-58,335	-0,107	-0,034
-686,568	800,000	-0,057	-0,154
-685,554	-200,000	-0,004	-0,026
-684,539	-200,000	0,007	0,141
-683,524	593,123	-0,059	0,109
-682,510	800,000	0,031	-0,096
-681,495	173,700	-0,115	-0,123
-680,481	486,036	-0,064	-0,109
-679,466	280,585	-0,007	-0,010
-678,451	364,803	0,114	0,170
-677,437	-200,000	-0,001	-0,036
-676,422	127,567	0,021	-0,020
-675,408	19,076	0,099	-0,059
-674,393	111,164	-0,045	-0,040
-673,378	308,622	-0,088	-0,122
-672,364	69,500	-0,104	-0,079
-671,349	-77,002	-0,165	-0,043
-670,335	-49,684	0,157	0,055
-669,320	-47,275	-0,207	0,075
-668,305	270,383	0,032	-0,042
-667,291	354,357	-0,012	-0,018
-666,276	800,000	0,052	-0,140
-665,262	800,000	0,072	-0,159
-664,247	-200,000	-0,010	0,047
-663,232	-200,000	-0,039	0,149
-662,218	-24,397	0,040	-0,018
-661,203	-157,943	-0,079	0,003
-660,189	-17,886	-0,124	-0,058
-659,174	800,000	-0,041	-0,132
-658,159	-200,000	-0,008	-0,030
-657,145	-200,000	0,030	-0,145
-656,130	21,159	-0,107	-0,064
-655,116	-155,434	0,072	0,003
-654,101	-118,921	0,084	0,011
-653,086	-20,769	-0,105	0,048
-652,072	-200,000	-0,008	0,098
-651,057	-200,000	-0,004	-0,033
-650,043	7,914	-0,070	0,039
-649,028	-200,000	0,028	-0,098
-648,014	221,510	-0,047	0,056
-646,999	-200,000	0,013	-0,156
-645,984	617,382	-0,056	-0,105
-644,970	-200,000	-0,023	-0,113
-643,955	285,588	-0,126	-0,169
-642,941	-62,935	-0,156	0,047
-641,926	800,000	0,038	-0,079
-640,911	-199,064	0,073	0,000
-639,897	-115,512	0,136	0,019
-638,882	-200,000	0,020	0,165
-637,868	-200,000	-0,008	0,053
-636,853	-97,964	-0,137	-0,026
-635,838	13,786	0,043	-0,025
-634,824	800,000	-0,017	-0,049
-633,809	197,378	0,033	-0,037
-632,795	800,000	-0,005	0,011
-631,780	800,000	0,061	0,147
-630,765	-26,518	-0,091	-0,040
-629,751	-160,568	0,063	0,002
-628,736	-1,168	-0,176	0,092
-627,722	800,000	-0,056	-0,139
-626,707	-200,000	0,013	-0,054
-625,692	800,000	0,017	0,049
-624,678	-18,369	-0,048	0,022
-623,663	118,597	-0,057	-0,053
-622,649	112,409	0,048	-0,043
-621,634	207,273	-0,085	-0,098
-620,619	34,047	0,105	0,068
-619,605	-200,000	-0,039	0,134
-618,590	232,735	0,090	-0,110
-617,576	-118,940	0,105	0,013
-616,561	510,743	-0,065	-0,113
-615,546	778,607	0,044	-0,089
-614,532	800,000	-0,030	-0,065
-613,517	41,789	0,102	-0,068
-612,503	-89,213	-0,024	-0,005
-611,488	126,164	-0,031	-0,029
-610,474	-3,220	0,047	-0,024
-609,459	186,617	0,030	-0,033
-608,444	557,668	0,077	-0,138
-607,430	-158,732	-0,120	-0,005
-606,415	-200,000	-0,014	-0,063
-605,401	-17,658	0,100	0,046
-604,386	768,224	0,021	0,043
-603,371	157,582	0,070	0,072
-602,357	800,000	0,035	0,072
-601,342	37,700	-0,074	-0,049
-600,328	800,000	-0,070	-0,225
-599,313	-200,000	-0,009	-0,076
-598,298	800,000	0,062	-0,136
-597,284	116,657	0,015	-0,014
-596,269	800,000	0,013	-0,030
-595,255	800,000	-0,052	0,150
-594,240	-200,000	-0,019	0,128
-593,225	39,768	-0,002	-0,001
-592,211	-144,753	-0,125	-0,008
-591,196	410,171	0,059	0,092
-590,182	36,006	0,099	0,064
-589,167	-200,000	0,014	0,122
-588,152	-200,000	-0,001	0,143
-587,138	-83,100	-0,020	-0,005
-586,123	348,076	0,008	-0,012
-585,109	328,958	0,097	0,138
-584,094	-70,195	0,140	0,039
-583,079	-200,000	-0,012	-0,048
-582,065	-113,675	0,126	0,018
-581,050	-200,000	0,005	-0,087
-580,036	38,148	-0,089	0,058
-579,021	251,106	-0,028	-0,036
-578,006	-79,046	-0,119	0,030
-576,992	800,000	0,011	-0,026
-575,977	258,686	-0,051	0,066
-574,963	294,139	-0,071	0,096
-573,948	-200,000	0,003	-0,034
-572,934	-104,505	-0,114	-0,019
-571,919	-137,862	-0,020	-0,002
-570,904	513,151	-0,038	-0,065
-569,890	-52,645	0,019	-0,007
-568,875	-200,000	0,014	0,090
-567,861	-102,507	0,064	0,011
-566,846	800,000	-0,033	-0,095
-565,831	-37,849	0,064	-0,025
-564,817	666,126	-0,004	0,008
-563,802	342,180	-0,072	-0,105
-562,788	116,866	-0,082	-0,075
-561,773	298,631	-0,075	-0,103
-560,758	-54,034	-0,035	0,012
-559,744	-70,961	0,126	0,035
-558,729	-200,000	-0,023	0,148
-557,715	174,240	-0,064	-0,069
-556,700	-82,073	0,060	0,014
-555,685	539,507	-0,076	-0,134
-554,671	800,000	-0,022	-0,070
-553,656	-200,000	0,004	-0,074
-552,642	-100,170	0,131	0,024
-551,627	65,375	-0,072	0,054
-550,612	18,668	-0,028	-0,017
-549,598	-200,000	-0,011	0,084
-548,583	-13,290	-0,108	-0,052
-547,569	88,459	0,050	0,041
-546,554	-7,673	0,078	-0,039
-545,539	-200,000	-0,016	-0,139
-544,525	-101,237	0,136	-0,024
-543,510	-146,783	-0,109	-0,007
-542,496	58,988	0,025	0,018
-541,481	1,129	-0,020	0,011
-540,466	-99,812	-0,136	-0,025
-539,452	800,000	0,055	-0,129
-538,437	69,192	-0,102	-0,077
-537,423	-14,522	-0,058	0,027
-536,408	-10,344	-0,129	0,063
-535,393	493,838	-0,022	-0,037
-534,379	-200,000	-0,000	-0,060
-533,364	223,059	-0,118	-0,141
-532,350	760,313	-0,043	-0,087
-531,335	-27,374	0,028	0,012
-530,321	-122,225	-0,118	-0,014
-529,306	82,122	-0,050	-0,040
-528,291	-200,000	-0,006	-0,101
-527,277	3,302	-0,041	-0,022
-526,262	-200,000	0,025	-0,107
-525,248	156,853	0,039	0,040
-524,233	-74,412	0,053	0,014
-523,218	-150,248	0,043	0,002
-522,204	170,266	0,070	0,074
-521,189	-61,905	0,054	-0,017
-520,175	305,202	-0,082	0,113
-519,160	23,744	-0,024	-0,015
-518,145	-38,057	-0,040	0,015
-517,131	196,547	0,066	0,075
-516,116	-12,369	0,058	0,028
-515,102	390,842	-0,090	0,138
-514,087	-63,476	-0,028	0,008
-513,072	800,000	0,030	-0,080
-512,058	-200,000	-0,004	0,026
-511,043	96,736	-0,032	0,027
-510,029	714,923	0,060	-0,118
-509,014	-47,530	0,115	0,041
-507,999	-112,888	0,061	-0,009
-506,985	755,818	-0,015	0,029
-505,970	92,376	-0,048	-0,040
-504,956	201,208	-0,057	-0,065
-503,941	-176,766	-0,069	0,001
-502,926	389,655	0,022	0,033
-501,912	-27,492	0,118	0,050
-500,897	95,377	0,122	-0,103
-499,883	-200,000	-0,003	0,105
-498,868	-31,684	-0,098	-0,040
-497,853	-200,000	0,006	-0,046
-496,839	-200,000	0,012	0,149
-495,824	800,000	0,015	0,044
-494,810	-28,709	0,096	-0,041
-493,795	-25,649	-0,084	-0,037
-492,781	800,000	-0,057	-0,179
-491,766	-146,600	-0,215	0,014
-490,751	-200,000	-0,026	-0,140
-489,737	-200,000	-0,002	0,056
-488,722	280,469	0,070	0,092
-487,708	-76,656	0,078	-0,020
-486,693	321,768	-0,046	-0,065
-485,678	-200,000	-0,035	0,162
-484,664	316,348	-0,016	-0,023
-483,649	744,885	-0,035	-0,069
-482,635	598,495	0,071	-0,130
-481,620	-102,267	-0,059	0,010
-480,605	624,380	0,086	0,161
-479,591	-95,627	0,157	0,031
-478,576	141,773	0,041	-0,040
-477,562	260,837	-0,075	0,097
-476,547	-200,000	0,029	-0,122
-475,532	-200,000	-0,016	-0,188
-474,518	-81,255	-0,130	0,031
-473,503	-200,000	-0,011	0,047
-472,489	15,607	0,100	-0,058
-471,474	-42,583	0,089	0,033
-470,459	-200,000	-0,016	-0,055
-469,445	308,332	-0,104	-0,144
-468,430	330,652	-0,068	0,097
-467,416	-1,106	0,067	-0,035
-466,401	90,868	0,022	0,018
-465,386	391,897	0,050	0,077
-464,372	800,000	-0,032	0,092
-463,357	271,054	-0,076	-0,099
-462,343	-136,763	0,039	-0,003
-461,328	-157,500	-0,116	0,005
-460,313	-200,000	0,004	0,094
-459,299	3,899	0,069	-0,037
-458,284	38,476	0,012	0,008
-457,270	51,401	0,051	-0,035
-456,255	800,000	-0,021	0,053
-455,241	263,704	-0,035	0,044
-454,226	-200,000	0,008	-0,200
-453,211	29,628	-0,053	0,033
-452,197	170,858	-0,055	0,059
-451,182	-200,000	0,013	-0,046
-450,168	-200,000	0,050	0,199
-449,153	-200,000	-0,009	0,069
-448,138	-50,077	-0,096	-0,033
-447,124	382,566	0,042	-0,064
-446,109	800,000	-0,025	-0,060
-445,095	-200,000	-0,013	-0,068
-444,080	-200,000	0,022	0,130
-443,065	-200,000	-0,016	-0,069
-442,051	-60,970	0,087	0,027
-441,036	-200,000	-0,025	0,138
-440,022	-200,000	0,039	-0,193
-439,007	-200,000	-0,025	0,095
-437,992	800,000	0,032	0,099
-436,978	176,784	-0,044	-0,047
-435,963	-200,000	-0,006	-0,064
-434,949	-90,267	0,023	-0,005
-433,934	56,367	-0,101	-0,072
-432,919	-200,000	0,008	0,069
-431,905	800,000	-0,025	0,057
-430,890	54,339	0,115	-0,082
-429,876	455,530	-0,014	0,023
-428,861	121,648	0,068	-0,063
-427,846	-150,521	-0,077	0,004
-426,832	-69,909	-0,094	0,026
-425,817	-200,000	-0,006	-0,139
-424,803	40,555	-0,072	0,048
-423,788	-200,000	-0,008	0,092
-422,773	-200,000	0,032	0,161
-421,759	800,000	0,036	0,075
-420,744	-18,303	0,015	-0,007
-419,730	-26,723	0,167	-0,072
-418,715	376,488	-0,046	0,069
-417,701	706,668	-0,034	0,066
-416,686	521,122	-0,053	0,092
-415,671	-56,735	0,198	-0,064
-414,657	218,941	0,063	0,074
-413,642	46,314	0,092	0,063
-412,628	205,374	-0,099	0,114
-411,613	-142,507	-0,160	0,011
-410,598	-200,000	0,016	0,117
-409,584	-200,000	0,012	0,158
-408,569	129,379	-0,009	0,009
-407,555	-42,744	-0,113	0,042
-406,540	308,585	-0,057	0,078
-405,525	-133,125	0,051	0,005
-404,511	495,235	0,086	-0,146
-403,496	-200,000	0,010	0,069
-402,482	-200,000	-0,006	-0,068
-401,467	236,992	0,049	0,060
-400,452	57,186	0,041	-0,030
-399,438	800,000	0,023	-0,054
-398,423	433,436	0,024	-0,039
-397,409	-200,000	0,010	-0,043
-396,394	4,718	-0,048	-0,026
-395,379	27,475	0,029	0,018
-394,365	-134,728	0,148	-0,013
-393,350	-200,000	0,006	0,066
-392,336	383,240	-0,056	0,085
-391,321	285,796	-0,027	0,036
-390,306	48,203	-0,137	-0,094
-389,292	449,965	-0,044	-0,071
-388,277	-31,260	-0,054	0,022
-387,263	89,408	0,022	-0,018
-386,248	573,204	-0,036	0,065
-385,233	-86,994	0,132	0,029
-384,219	-200,000	0,017	-0,063
-383,204	-133,158	0,052	-0,005
-382,190	267,698	0,050	-0,064
-381,175	87,315	-0,050	-0,041
-380,160	11,732	0,064	-0,036
-379,146	-92,313	-0,061	0,012
-378,131	111,049	-0,065	0,057
-377,117	279,780	0,050	0,065
-376,102	411,093	-0,074	-0,116
-375,088	-200,000	-0,017	-0,115
-374,073	-200,000	0,014	0,060
-373,058	-4,054	0,069	0,035
-372,044	800,000	0,013	0,029
-371,029	81,983	-0,102	0,081
-370,015	5,505	0,108	0,058
-369,000	-200,000	0,007	-0,150
-367,985	-43,564	-0,101	-0,037
-366,971	-79,687	0,045	0,011
-365,956	198,995	-0,011	0,012
-364,942	60,352	-0,025	0,018
-363,927	191,667	0,037	-0,041
-362,912	800,000	0,048	0,101
-361,898	62,501	0,037	-0,027
-360,883	-130,955	-0,133	-0,013
-359,869	234,757	-0,025	0,031
-358,854	145,154	-0,114	-0,112
-357,839	-200,000	-0,016	0,076
-356,825	116,546	0,079	0,071
-355,810	-166,174	0,068	-0,002
-354,796	800,000	-0,023	0,049
-353,781	406,358	-0,024	-0,038
-352,766	-200,000	0,006	-0,127
-351,752	41,449	0,046	-0,030
-350,737	-17,277	0,069	-0,032
-349,723	19,878	0,080	0,047
-348,708	409,795	0,098	0,153
-347,693	-62,262	-0,140	0,042
-346,679	-200,000	0,010	-0,035
-345,664	-200,000	-0,001	-0,131
-344,650	-7,740	-0,064	0,031
-343,635	-200,000	-0,001	0,073
-342,620	-158,982	0,062	-0,003
-341,606	-98,876	-0,105	0,019
-340,591	86,716	-0,117	-0,094
-339,577	-36,778	0,060	-0,023
-338,562	-113,201	-0,102	-0,015
-337,548	248,136	-0,050	-0,063
-336,533	800,000	0,046	0,095
-335,518	114,552	-0,089	0,079
-334,504	580,325	-0,030	0,054
-333,489	145,331	-0,041	-0,040
-332,475	176,101	-0,043	0,046
-331,460	63,317	0,030	-0,022
-330,445	-200,000	0,016	-0,065
-329,431	-38,227	0,129	0,050
-328,416	-52,781	0,067	0,023
-327,402	1,558	-0,082	0,043
-326,387	88,809	-0,054	0,044
-325,372	67,384	-0,052	-0,039
-324,358	-47,112	-0,120	-0,043
-323,343	613,063	0,066	-0,122
-322,329	221,309	0,053	0,062
-321,314	66,708	0,047	-0,035
-320,299	-200,000	0,020	0,121
-319,285	61,987	-0,061	-0,045
-318,270	-200,000	-0,004	-0,050
-317,256	775,829	-0,029	0,059
-316,241	800,000	-0,035	-0,103
-315,226	800,000	-0,026	0,064
-314,212	-200,000	-0,010	0,123
-313,197	457,531	-0,035	0,056
-312,183	50,902	0,022	0,015
-311,168	9,025	0,123	-0,068
-310,153	-99,936	0,023	-0,004
-309,139	41,066	-0,085	-0,056
-308,124	452,013	-0,027	0,044
-307,110	-8,053	0,066	0,032
-306,095	97,887	0,084	0,071
-305,080	-50,213	0,052	-0,018
-304,066	35,781	-0,057	0,037
-303,051	218,455	-0,105	-0,123
-302,037	278,573	-0,090	-0,118
-301,022	-200,000	0,007	0,033
-300,008	-1,786	-0,095	-0,049
-298,993	386,993	0,027	0,041
-297,978	-122,512	-0,054	0,006
-296,964	-200,000	-0,015	-0,097
-295,949	-142,061	-0,136	-0,010
-294,935	-15,493	0,085	0,039
-293,920	-55,141	-0,028	0,009
-292,905	-200,000	0,018	0,123
-291,891	51,157	-0,090	-0,062
-290,876	800,000	0,006	-0,018
-289,862	432,224	0,103	0,164
-288,847	687,759	-0,079	0,151
-287,832	-4,731	0,104	0,052
-286,818	7,528	0,070	-0,038
-285,803	-200,000	0,006	0,156
-284,789	800,000	-0,067	0,140
-283,774	-35,272	0,062	0,024
-282,759	348,280	-0,013	-0,018
-281,745	208,820	-0,065	0,075
-280,730	-113,733	-0,065	-0,009
-279,716	-200,000	-0,007	-0,050
-278,701	30,903	0,066	0,041
-277,686	-96,722	-0,147	-0,028
-276,672	-88,848	0,176	0,038
-275,657	552,680	0,033	0,058
-274,643	690,412	0,050	-0,097
-273,628	12,538	-0,016	0,009
-272,613	66,669	-0,088	-0,066
-271,599	-200,000	-0,002	0,063
-270,584	56,660	-0,049	0,035
-269,570	-200,000	0,023	0,140
-268,555	390,448	-0,045	-0,068
-267,540	-178,245	0,150	-0,003
-266,526	42,499	-0,022	0,015
-265,511	-200,000	0,008	-0,077
-264,497	295,552	-0,077	-0,103
-263,482	-125,883	0,104	0,011
-262,467	753,333	-0,015	0,030
-261,453	173,479	0,050	0,053
-260,438	-31,494	0,021	-0,008
-259,424	-17,556	0,055	0,025
-258,409	-48,010	0,208	0,073
-257,395	180,728	0,043	-0,046
-256,380	-115,312	0,133	0,018
-255,365	800,000	-0,040	0,113
-254,351	800,000	0,102	0,323
-253,336	800,000	-0,024	0,078
-252,322	-17,210	-0,081	-0,037
-251,307	141,662	0,095	-0,092
-250,292	-69,074	0,068	-0,019
-249,278	400,364	0,115	-0,177
-248,263	158,908	-0,087	-0,088
-247,249	-200,000	-0,015	0,081
-246,234	800,000	0,025	-0,060
-245,219	-200,000	-0,002	0,163
-244,205	-200,000	0,012	-0,081
-243,190	800,000	0,037	0,076
-242,176	164,194	0,092	-0,095
-241,161	-56,331	0,132	0,043
-240,146	138,420	0,114	-0,110
-239,132	-200,000	-0,030	-0,105
-238,117	27,233	-0,102	0,062
-237,103	-132,871	0,074	-0,007
-236,088	-179,877	-0,037	-0,001
-235,073	358,667	0,105	0,154
-234,059	800,000	-0,025	0,056
-233,044	239,532	0,038	0,046
-232,030	88,392	-0,058	-0,047
-231,015	-200,000	-0,014	-0,129
-230,000	-79,294	0,074	0,018
-228,986	-74,426	-0,049	-0,013
-227,971	206,232	-0,002	0,003
-226,957	-200,000	-0,030	0,152
-225,942	-200,000	0,004	0,035
-224,927	-200,000	0,026	0,186
-223,913	-200,000	0,004	-0,098
-222,898	75,738	-0,040	0,031
-221,884	418,462	-0,054	0,085
-220,869	-115,199	0,093	-0,013
-219,855	-45,125	0,086	0,031
-218,840	-200,000	-0,002	-0,041
-217,825	800,000	0,035	-0,102
-216,811	-200,000	0,001	-0,072
-215,796	115,380	-0,118	-0,105
-214,782	-38,287	0,169	-0,065
-213,767	-143,721	0,117	0,008
-212,752	171,506	-0,104	-0,109
-211,738	57,282	0,062	-0,044
-210,723	-200,000	0,034	0,127
-209,709	86,537	-0,055	-0,044
-208,694	-12,270	-0,170	0,081
-207,679	3,758	0,091	0,048
-206,665	17,754	-0,140	-0,081
-205,650	179,145	0,105	0,112
-204,636	800,000	0,026	0,065
-203,621	-200,000	-0,005	0,035
-202,606	800,000	0,020	-0,050
-201,592	-70,078	-0,080	-0,022
-200,577	388,865	-0,058	-0,087
-199,563	-200,000	0,021	0,146
-198,548	185,330	-0,059	-0,064
-197,533	701,164	0,079	0,153
-196,519	-200,000	0,055	0,180
-195,504	800,000	0,018	0,056
-194,490	-200,000	0,005	0,036
-193,475	25,043	0,042	0,026
-192,460	-52,775	0,112	0,037
-191,446	-0,484	-0,008	-0,004
-190,431	314,231	-0,090	-0,124
-189,417	429,200	-0,041	-0,065
-188,402	326,195	0,010	-0,014
-187,387	-3,097	0,033	-0,017
-186,373	-200,000	0,018	-0,108
-185,358	199,741	0,097	0,109
-184,344	-200,000	0,001	0,012
-183,329	-200,000	0,033	0,150
-182,315	-104,045	-0,011	-0,002
-181,300	-200,000	-0,016	-0,055
-180,285	245,470	-0,108	-0,133
-179,271	-200,000	0,038	-0,164
-178,256	-89,349	-0,018	0,004
-177,242	-200,000	-0,002	-0,018
-176,227	136,460	0,136	0,129
-175,212	-34,549	0,080	-0,032
-174,198	217,431	-0,097	0,113
-173,183	-41,901	0,055	-0,020
-172,169	424,908	0,090	-0,142
-171,154	800,000	0,007	-0,023
-170,139	-200,000	0,004	-0,021
-169,125	31,636	-0,092	0,058
-168,110	800,000	0,030	-0,082
-167,096	-175,701	-0,114	-0,002
-166,081	323,753	-0,015	0,021
-165,066	-12,938	-0,055	0,026
-164,052	353,232	-0,054	-0,079
-163,037	-200,000	0,021	0,092
-162,023	208,548	0,079	0,090
-161,008	205,246	0,029	0,033
-159,993	-52,664	-0,030	-0,010
-158,979	-200,000	0,008	-0,079
-157,964	386,782	0,021	-0,031
-156,950	-200,000	0,040	-0,190
-155,935	61,528	-0,043	-0,031
-154,920	84,650	0,038	-0,030
-153,906	800,000	-0,009	0,022
-152,891	510,476	-0,024	0,041
-151,877	404,862	-0,079	0,121
-150,862	-200,000	-0,014	0,073
-149,847	308,157	0,056	-0,077
-148,833	-14,510	0,072	0,034
-147,818	-200,000	0,012	-0,075
-146,804	640,900	0,071	-0,133
-145,789	800,000	0,011	-0,031
-144,775	251,480	0,087	-0,108
-143,760	800,000	-0,026	0,063
-142,745	340,584	-0,030	-0,042
-141,731	629,643	-0,032	0,060
-140,716	800,000	0,066	0,134
-139,702	141,084	0,056	0,054
-138,687	-122,486	0,094	0,011
-137,672	132,532	0,050	-0,047
-136,658	-200,000	-0,007	0,041
-135,643	-200,000	-0,000	0,051
-134,629	121,084	0,048	-0,044
-133,614	-130,411	0,076	-0,007
-132,599	-200,000	0,018	-0,074
-131,585	-200,000	0,026	-0,116
-130,570	147,086	0,028	0,028
-129,556	54,496	-0,082	-0,057
-128,541	-141,802	-0,097	-0,007
-127,526	-200,000	0,010	-0,072
-126,512	20,866	-0,041	0,024
-125,497	29,431	0,066	-0,040
-124,483	-114,798	0,099	-0,014
-123,468	229,890	0,031	-0,037
-122,453	511,324	-0,033	0,057
-121,439	-53,744	-0,080	-0,026
-120,424	318,864	-0,024	-0,034
-119,410	163,379	-0,032	-0,033
-118,395	147,619	0,074	0,073
-117,380	-93,636	0,065	-0,013
-116,366	-126,350	0,042	0,005
-115,351	-87,976	0,061	-0,013
-114,337	-37,926	-0,050	0,019
-113,322	287,109	-0,153	-0,201
-112,307	-200,000	0,026	0,111
-111,293	-67,471	0,146	0,041
-110,278	-200,000	0,038	0,187
-109,264	-200,000	0,011	0,088
-108,249	60,724	-0,137	-0,099
-107,234	219,325	0,016	-0,019
-106,220	-33,943	0,040	-0,016
-105,205	-62,826	0,081	-0,024
-104,191	55,201	0,067	0,047
-103,176	151,191	-0,084	-0,083
-102,162	447,865	-0,043	-0,068
-101,147	-51,533	0,092	-0,031
-100,132	515,871	-0,053	-0,091
-99,118	523,838	0,016	0,027
-98,103	113,196	0,089	-0,079
-97,089	-73,275	0,073	0,019
-96,074	793,515	0,052	0,105
-95,059	68,042	0,025	0,018
-94,045	-200,000	-0,020	0,070
-93,030	-109,998	0,117	0,018
-92,016	800,000	-0,056	-0,128
-91,001	800,000	0,021	-0,043
-89,986	-200,000	0,002	0,085
-88,972	800,000	0,038	0,087
-87,957	-100,637	-0,042	0,008
-86,943	287,590	-0,021	0,027
-85,928	-200,000	0,008	-0,034
-84,913	-200,000	-0,026	0,090
-83,899	719,056	-0,022	-0,043
-82,884	-200,000	0,017	0,106
-81,870	-185,521	0,098	0,001
-80,855	-138,069	0,132	-0,011
-79,840	-17,462	-0,062	-0,028
-78,826	126,417	0,071	-0,066
-77,811	-34,606	-0,048	0,019
-76,797	800,000	-0,029	0,087
-75,782	308,846	-0,052	-0,070
-74,767	-80,645	0,156	0,037
-73,753	-82,930	-0,115	0,027
-72,738	-42,419	-0,037	-0,014
-71,724	451,952	0,102	-0,165
-70,709	336,012	-0,030	-0,043
-69,694	-96,629	-0,145	0,027
-68,680	58,172	0,148	-0,105
-67,665	-98,904	0,040	0,007
-66,651	-200,000	0,003	-0,039
-65,636	800,000	0,026	-0,066
-64,622	170,082	0,066	0,069
-63,607	440,447	0,073	-0,117
-62,592	-198,690	-0,093	-0,000
-61,578	21,552	-0,023	-0,013
-60,563	800,000	0,039	0,086
-59,549	177,296	0,100	0,106
-58,534	-128,808	-1,445	-0,146
-57,519	521,110	-0,859	-1,467
-56,505	-200,000	-0,930	-4,489
-55,490	13,534	0,549	-0,308
-54,476	800,000	5,016	11,823
-53,461	-200,000	13,478	253,821
-52,446	-200,000	689,369	2270,422
-51,432	595,849	1623,263	2927,417
-50,417	120,868	1636,208	1476,305
-49,403	73,535	1290,484	979,379
-48,388	38,391	1025,250	661,407
-47,373	24,580	982,606	588,464
-46,359	23,794	972,388	579,744
-45,344	22,827	968,329	574,137
-44,330	22,810	966,627	573,052
-43,315	22,680	965,348	571,847
-42,300	22,623	964,317	571,029
-41,286	22,646	963,196	570,417
-40,271	22,642	962,403	569,909
-39,257	22,655	961,555	569,430
-38,242	22,627	960,586	568,741
-37,227	22,631	959,720	568,218
-36,213	22,599	958,846	567,576
-35,198	22,638	957,827	567,075
-34,184	22,637	957,457	566,831
-33,169	22,593	956,513	566,108
-32,154	22,628	955,720	565,728
-31,140	22,665	954,905	565,343
-30,125	22,614	953,912	564,567
-29,111	22,674	953,022	564,213
-28,096	22,696	952,254	563,807
-27,082	22,703	951,794	563,534
-26,067	22,668	950,911	562,877
-25,052	22,637	950,111	562,279
-24,038	22,605	949,644	561,878
-23,023	22,628	949,011	561,556
-22,009	22,707	948,278	561,353
-20,994	22,675	947,640	560,851
-19,979	22,727	946,851	560,528
-18,965	22,689	946,320	560,068
-17,950	22,668	945,729	559,630
-16,936	22,602	945,199	559,085
-15,921	22,620	944,389	558,640
-14,906	22,529	943,600	557,861
-13,892	22,560	942,929	557,540
-12,877	22,509	942,475	557,088
-11,863	22,525	941,717	556,669
-10,848	22,554	941,297	556,490
-9,833	22,668	940,849	556,567
-8,819	22,637	940,160	556,037
-7,804	22,590	939,403	555,420
-6,790	22,601	938,837	555,098
-5,775	22,553	938,405	554,666
-4,760	22,614	937,639	554,386
-3,746	22,454	937,286	553,649
-2,731	22,451	936,485	553,145
-1,717	22,347	935,823	552,404
-0,702	22,336	935,116	551,929
0,313	22,151	934,459	551,791
1,327	25,221	932,200	560,064
2,342	34,709	796,710	503,946
3,356	32,619	451,829	282,622
4,371	1,802	293,685	152,971
5,386	-2,730	274,522	138,691
6,400	-4,162	268,664	134,392
7,415	-4,493	266,349	132,918
8,429	-4,114	265,225	132,693
9,444	-4,305	264,379	132,083
10,459	-4,435	263,694	131,611
11,473	-4,457	263,137	131,302
12,488	-4,386	262,521	131,046
13,502	-4,434	261,972	130,717
14,517	-4,487	261,625	130,485
15,531	-4,192	261,162	130,508
16,546	-4,163	260,866	130,374
17,561	-4,331	260,557	130,057
18,575	-4,316	260,265	129,914
19,590	-4,403	259,791	129,588
20,604	-4,341	259,505	129,489
21,619	-4,515	259,339	129,239
22,634	-4,273	258,926	129,237
23,648	-4,376	258,579	128,961
24,663	-4,428	258,370	128,799
25,677	-4,382	258,293	128,790
26,692	-4,448	257,876	128,512
27,707	-4,641	257,774	128,278
28,721	-4,490	257,451	128,239
29,736	-4,356	257,035	128,140
30,750	-4,338	256,769	128,012
31,765	-4,465	256,617	127,813
32,780	-4,380	256,297	127,717
33,794	-4,670	256,337	127,470
34,809	-4,387	255,854	127,467
35,823	-4,386	255,726	127,393
36,838	-4,549	255,411	127,081
37,853	-4,430	255,163	127,051
38,867	-4,402	254,927	126,947
39,882	-4,454	254,812	126,832
40,896	-4,444	254,576	126,712
41,911	-4,461	254,353	126,575
42,926	-4,573	254,008	126,295
43,940	-4,486	253,914	126,313
44,955	-4,737	253,764	126,007
45,969	-4,654	253,354	125,865
46,984	-4,918	253,195	125,545
47,999	-4,893	253,076	125,496
49,013	-4,930	252,692	125,263
50,028	-5,242	252,415	124,843
51,042	-5,064	252,094	124,828
52,057	-5,059	251,859	124,705
53,071	-5,209	251,791	124,530
54,086	-5,056	251,627	124,570
55,101	-4,845	251,414	124,636
56,115	-4,738	251,235	124,628
57,130	-4,515	251,256	124,821
58,144	-4,167	250,976	124,971
59,159	-4,242	250,774	124,794
60,174	-4,249	250,665	124,722
61,188	-4,449	250,492	124,453
62,203	-4,274	250,284	124,489
63,217	-4,204	249,871	124,333
64,232	-4,381	249,754	124,111
65,247	-4,452	249,569	123,947
66,261	-4,459	249,340	123,817
67,276	-4,469	249,070	123,663
68,290	-4,693	248,753	123,304
69,305	-4,858	248,617	123,084
70,320	-4,563	248,387	123,211
71,334	-4,444	248,343	123,279
72,349	-4,291	248,239	123,347
73,363	-4,165	247,863	123,257
74,378	-4,428	247,790	122,986
75,393	-4,341	247,574	122,941
76,407	-4,330	247,454	122,880
77,422	-4,315	247,138	122,725
78,436	-4,305	246,991	122,649
79,451	-4,324	246,668	122,462
80,466	-4,317	246,448	122,348
81,480	-4,660	246,231	121,939
82,495	-4,602	246,103	121,915
83,509	-4,608	246,017	121,856
84,524	-4,498	245,667	121,764
85,539	-4,751	245,462	121,439
86,553	-4,903	245,338	121,239
87,568	-4,721	245,119	121,273
88,582	-4,635	245,021	121,286
89,597	-4,679	244,786	121,122
90,611	-4,578	244,676	121,141
91,626	-4,432	244,518	121,174
92,641	-4,401	244,335	121,099
93,655	-4,638	244,251	120,849
94,670	-4,381	243,852	120,855
95,684	-4,564	243,676	120,604
96,699	-4,517	243,571	120,580
97,714	-4,590	243,342	120,396
98,728	-4,676	243,081	120,184
99,743	-4,635	242,839	120,088
100,757	-4,621	242,509	119,925
101,772	-4,700	242,488	119,839
102,787	-4,746	242,439	119,766
103,801	-4,691	242,346	119,755
104,816	-4,444	242,110	119,832
105,830	-4,590	242,118	119,705
106,845	-4,322	241,806	119,761
107,860	-4,333	241,701	119,690
108,874	-4,476	241,391	119,407
109,889	-4,362	241,105	119,349
110,903	-4,525	240,789	119,048
111,918	-4,584	240,930	119,058
112,933	-4,524	240,728	118,997
113,947	-4,421	240,687	119,051
114,962	-4,364	240,198	118,845
115,976	-4,500	240,260	118,754
116,991	-4,595	240,052	118,562
118,006	-4,487	239,778	118,505
119,020	-4,518	239,758	118,459
120,035	-4,388	239,786	118,569
121,049	-4,418	239,515	118,400
122,064	-4,285	239,236	118,361
123,079	-4,434	239,060	118,140
124,093	-4,634	238,781	117,829
125,108	-4,692	238,699	117,731
126,122	-4,797	238,369	117,472
127,137	-4,981	238,213	117,235
128,151	-4,684	237,948	117,336
129,166	-4,652	238,001	117,377
130,181	-4,797	237,675	117,088
131,195	-4,944	237,610	116,927
132,210	-4,523	237,345	117,127
133,224	-4,610	237,225	116,987
134,239	-4,400	237,147	117,108
135,254	-4,615	236,947	116,825
136,268	-4,516	236,621	116,734
137,283	-4,789	236,394	116,391
138,297	-4,841	236,176	116,231
139,312	-4,743	236,016	116,221
140,327	-4,678	235,995	116,252
141,341	-4,336	236,016	116,528
142,356	-4,033	235,710	116,610
143,370	-4,237	235,807	116,483
144,385	-4,069	235,404	116,410
145,400	-4,046	235,209	116,321
146,414	-4,130	235,212	116,244
147,429	-4,203	234,917	116,030
148,443	-3,941	234,622	116,083
149,458	-4,343	234,725	115,803
150,473	-4,338	234,503	115,687
151,487	-4,309	234,257	115,578
152,502	-4,246	234,202	115,591
153,516	-4,131	233,991	115,568
154,531	-4,167	233,759	115,414
155,546	-4,157	233,557	115,312
156,560	-4,207	233,478	115,223
157,575	-4,232	233,290	115,100
158,589	-4,216	233,025	114,972
159,604	-4,051	232,962	115,062
160,619	-4,069	232,841	114,978
161,633	-4,146	232,560	114,767
162,648	-4,016	232,362	114,762
163,662	-4,363	232,461	114,526
164,677	-4,201	232,233	114,532
165,692	-4,297	232,130	114,395
166,706	-3,948	231,796	114,496
167,721	-4,096	231,766	114,354
168,735	-4,068	231,682	114,324
169,750	-4,057	231,555	114,260
170,764	-4,272	231,317	113,963
171,779	-4,075	231,181	114,040
172,794	-4,064	231,190	114,044
173,808	-4,086	230,819	113,833
174,823	-4,786	230,454	113,095
175,837	-4,763	230,342	113,048
176,852	-4,281	230,198	113,344
177,867	-4,121	230,126	113,423
178,881	-4,189	230,170	113,382
179,896	-4,004	229,904	113,385
180,910	-4,022	229,532	113,178
181,925	-3,975	229,489	113,183
182,940	-4,046	229,399	113,073
183,954	-4,020	229,438	113,103
184,969	-4,051	229,189	112,946
185,983	-3,975	228,991	112,897
186,998	-3,903	228,741	112,820
188,013	-4,031	228,865	112,772
189,027	-4,239	228,526	112,433
190,042	-3,956	228,278	112,520
191,056	-3,961	228,247	112,491
192,071	-3,933	228,091	112,426
193,086	-3,894	227,763	112,284
194,100	-3,908	227,700	112,232
195,115	-4,257	227,159	111,687
196,129	-4,897	227,224	111,215
197,144	-2,125	227,823	113,641
198,159	1,517	229,044	117,064
199,173	4,034	229,571	119,275
200,188	4,135	229,546	119,330
201,202	4,217	229,464	119,340
202,217	4,411	229,292	119,390
203,232	4,343	229,133	119,244
204,246	4,722	229,006	119,460
205,261	4,535	229,047	119,326
206,275	4,820	228,777	119,395
207,290	4,673	228,745	119,254
208,304	4,832	228,506	119,242
209,319	4,875	228,378	119,197
210,334	4,548	228,059	118,769
211,348	4,598	227,768	118,645
212,363	4,209	227,598	118,247
213,377	3,972	227,368	117,936
214,392	3,933	227,276	117,847
215,407	4,050	227,279	117,928
216,421	4,149	226,996	117,846
217,436	3,914	226,737	117,522
218,450	3,728	226,707	117,354
219,465	3,668	226,530	117,206
220,480	3,624	226,334	117,060
221,494	3,714	226,248	117,074
222,509	3,934	226,080	117,144
223,523	3,882	225,983	117,044
224,538	3,947	225,736	116,955
225,553	3,885	225,626	116,840
226,567	3,837	225,556	116,757
227,582	4,172	225,489	116,966
228,596	4,055	225,399	116,821
229,611	3,984	225,174	116,640
230,626	3,922	224,783	116,380
231,640	3,608	224,875	116,179
232,655	3,965	224,748	116,373
233,669	4,496	224,657	116,718
234,684	4,655	224,478	116,734
235,699	4,246	224,248	116,296
236,713	3,974	224,165	116,037
237,728	4,035	223,878	115,925
238,742	3,862	223,520	115,599
239,757	3,908	223,420	115,571
240,772	3,922	223,315	115,517
241,786	3,731	223,247	115,328
242,801	4,151	223,192	115,605
243,815	4,284	223,116	115,655
244,830	4,479	222,918	115,688
245,844	4,065	222,773	115,292
246,859	4,053	222,582	115,174
247,874	4,325	222,514	115,332
248,888	4,533	222,341	115,388
249,903	4,189	222,187	115,040
250,917	4,100	222,086	114,912
251,932	4,123	221,808	114,774
252,947	3,768	221,737	114,463
253,961	3,843	221,408	114,339
254,976	4,061	221,352	114,462
255,990	4,411	221,336	114,704
257,005	4,043	221,242	114,371
258,020	4,042	221,117	114,296
259,034	4,324	220,989	114,429
260,049	4,255	220,852	114,296
261,063	4,419	220,524	114,238
262,078	4,225	220,505	114,074
263,093	4,519	220,346	114,199
264,107	4,238	220,090	113,849
265,122	4,320	220,200	113,956
266,136	4,360	220,077	113,912
267,151	4,223	219,879	113,698
268,166	4,132	219,628	113,491
269,180	3,639	219,301	112,949
270,195	3,863	219,206	113,055
271,209	3,828	219,115	112,972
272,224	4,004	219,045	113,055
273,239	4,208	218,862	113,100
274,253	3,992	218,622	112,808
275,268	3,960	218,398	112,659
276,282	3,822	218,167	112,428
277,297	3,715	218,316	112,418
278,312	3,866	218,107	112,410
279,326	3,893	218,018	112,374
280,341	3,899	217,939	112,328
281,355	4,019	217,650	112,256
282,370	3,988	217,580	112,188
283,384	3,802	217,467	111,983
284,399	3,571	217,184	111,660
285,414	3,760	217,015	111,700
286,428	3,768	217,099	111,739
287,443	3,944	216,930	111,770
288,457	3,814	216,933	111,668
289,472	4,012	216,533	111,595
290,487	3,397	216,435	111,089
291,501	3,211	216,276	110,863
292,516	3,874	216,128	111,257
293,530	3,865	215,944	111,146
294,545	3,443	215,888	110,802
295,560	3,673	215,666	110,844
296,574	3,934	215,605	110,991
297,589	4,043	215,495	111,003
298,603	3,951	215,385	110,870
299,618	3,936	215,247	110,779
300,633	3,777	215,205	110,632
301,647	4,224	215,119	110,901
302,662	4,182	215,019	110,809
303,676	4,144	214,818	110,668
304,691	4,202	214,653	110,615
305,706	4,254	214,529	110,578
306,720	4,270	214,327	110,476
307,735	3,804	214,254	110,094
308,749	3,686	214,070	109,906
309,764	4,022	213,903	110,050
310,779	4,214	213,784	110,116
311,793	4,175	213,664	110,017
312,808	4,097	213,570	109,904
313,822	4,181	213,416	109,874
314,837	3,875	213,162	109,516
315,852	3,727	213,014	109,324
316,866	3,786	212,893	109,295
317,881	3,996	212,874	109,424
318,895	4,133	212,718	109,432
319,910	4,079	212,491	109,267
320,925	3,968	212,158	109,007
321,939	3,786	212,134	108,856
322,954	3,586	212,009	108,640
323,968	4,050	212,027	108,969
324,983	3,948	211,970	108,857
325,997	4,484	211,768	109,123
327,012	4,148	211,605	108,792
328,027	3,886	211,555	108,571
329,041	4,360	211,571	108,905
330,056	4,450	211,409	108,875
331,070	3,987	211,026	108,343
332,085	3,655	210,916	108,042
333,100	4,162	210,554	108,204
334,114	4,098	210,616	108,181
335,129	3,854	210,517	107,949
336,143	3,884	210,279	107,838
337,158	3,835	210,211	107,759
338,173	4,008	210,107	107,818
339,187	3,643	209,860	107,426
340,202	3,575	209,707	107,290
341,216	3,673	209,554	107,271
342,231	3,866	209,523	107,381
343,246	3,475	209,327	106,998
344,260	3,779	209,272	107,172
345,275	3,489	209,184	106,915
346,289	3,909	209,166	107,189
347,304	3,904	208,979	107,080
348,319	3,856	208,740	106,915
349,333	3,823	208,663	106,843
350,348	4,153	208,545	107,003
351,362	4,019	208,516	106,885
352,377	4,110	208,330	106,844
353,392	3,995	208,047	106,608
354,406	4,052	207,990	106,610
355,421	194,173	1345,684	1434,945
356,435	154,926	1484,407	1435,071
