DTS Sentinel unit serial number:	SN410029Multiplexer serial number:	ORYXHardware model number:	OX2-SRSoftware version number:	ORYX F/W v4,00 Oryx Data Collector v3.7.2.0data status	okinstallation	B6 Nyhavnadifferential loss correction	single-endedforward channel	channel 2reverse channel	N/Adate	2023/12/10time	20:50:08forward acquisition time	300,00reverse acquisition time	0,00gamma	499,1914k internal	0,3122k external	0,3122temperature offset calibration	1,0000default loss term (dB/km)	0,3820temperature slope calibration	1,0000multiplexer offset coefficient	1,0000multiplexer slope coefficient	1,0000fibre end	0,00T internal ref (°C)	22,25T ext. ref 1 (°C)	5,85T ext. ref 2 (°C)	5,87length (m)	temperature (°C)	Stokes	anti-Stokes-744,400	423,494	-0,014	-0,023
-743,385	-174,505	-0,248	0,005
-742,371	-168,450	0,112	-0,003
-741,356	77,017	-0,163	0,129
-740,342	-200,000	-0,006	-0,156
-739,327	-18,648	-0,299	0,138
-738,312	-200,000	-0,009	-0,070
-737,298	52,219	-0,183	0,130
-736,283	536,421	0,101	-0,180
-735,269	-62,457	-0,264	-0,081
-734,254	-21,724	-0,083	0,037
-733,239	-73,945	-0,528	-0,142
-732,225	-122,292	0,122	0,015
-731,210	-126,882	0,126	-0,014
-730,196	6,328	-0,065	0,036
-729,181	0,654	-0,078	0,041
-728,167	800,000	-0,073	0,213
-727,152	800,000	0,034	-0,075
-726,137	225,232	-0,077	-0,094
-725,123	-13,480	0,058	-0,028
-724,108	168,118	-0,096	-0,101
-723,094	467,166	-0,108	-0,181
-722,079	-200,000	0,002	-0,086
-721,064	87,556	-0,133	-0,109
-720,050	800,000	-0,024	-0,078
-719,035	675,641	-0,043	-0,083
-718,021	-15,787	-0,196	-0,093
-717,006	597,142	0,044	0,081
-715,991	-54,275	-0,079	0,026
-714,977	-179,770	-0,048	0,001
-713,962	315,784	-0,036	0,050
-712,948	444,181	0,052	-0,086
-711,933	-69,267	-0,130	0,037
-710,918	-39,052	0,052	-0,020
-709,904	90,300	-0,124	-0,103
-708,889	-200,000	0,020	-0,141
-707,875	-27,787	-0,063	-0,027
-706,860	120,006	-0,048	0,044
-705,845	-97,770	0,068	-0,013
-704,831	-37,537	-0,063	0,025
-703,816	68,701	0,040	-0,030
-702,802	-106,687	-0,188	0,031
-701,787	-29,148	-0,125	-0,053
-700,772	223,748	0,064	-0,076
-699,758	-180,008	-0,070	0,001
-698,743	-72,357	0,145	-0,040
-697,729	800,000	-0,010	0,021
-696,714	70,856	0,103	-0,079
-695,699	798,280	-0,041	0,084
-694,685	-200,000	-0,006	-0,044
-693,670	800,000	-0,062	-0,138
-692,656	172,314	0,019	-0,021
-691,641	26,236	-0,037	-0,023
-690,627	45,932	-0,147	-0,101
-689,612	-133,851	0,092	0,008
-688,597	-133,643	-0,125	0,011
-687,583	-100,168	0,032	-0,006
-686,568	-170,926	-0,117	-0,003
-685,554	-109,206	-0,093	-0,015
-684,539	-110,628	-0,027	0,004
-683,524	-2,345	-0,112	-0,058
-682,510	-200,000	0,012	0,120
-681,495	372,199	-0,077	0,116
-680,481	-200,000	-0,014	0,099
-679,466	-200,000	0,016	-0,080
-678,451	568,544	-0,058	0,105
-677,437	152,080	-0,088	-0,089
-676,422	800,000	-0,054	0,126
-675,408	203,324	-0,066	-0,076
-674,393	348,635	-0,036	0,053
-673,378	25,659	0,016	-0,010
-672,364	-200,000	-0,006	0,111
-671,349	112,884	-0,163	-0,147
-670,335	77,790	0,051	-0,041
-669,320	-200,000	-0,006	-0,029
-668,305	-200,000	0,007	0,137
-667,291	-200,000	-0,007	0,139
-666,276	-60,844	-0,165	-0,051
-665,262	800,000	-0,029	0,062
-664,247	800,000	0,012	-0,034
-663,232	-15,642	0,194	0,091
-662,218	-200,000	-0,006	-0,078
-661,203	-94,092	-0,093	-0,019
-660,189	322,836	0,037	0,052
-659,174	-69,811	-0,020	-0,006
-658,159	-13,197	-0,143	-0,069
-657,145	-200,000	0,006	-0,119
-656,130	-143,636	0,068	0,005
-655,116	-96,638	0,023	0,005
-654,101	19,552	0,043	-0,026
-653,086	-200,000	-0,004	-0,050
-652,072	-33,293	0,108	0,044
-651,057	244,667	-0,062	0,077
-650,043	800,000	-0,022	-0,052
-649,028	-116,539	-0,211	-0,029
-648,014	77,319	0,055	-0,043
-646,999	69,095	0,041	-0,031
-645,984	66,233	-0,023	0,017
-644,970	681,976	0,030	-0,059
-643,955	800,000	-0,060	-0,187
-642,941	-200,000	-0,003	-0,011
-641,926	-200,000	0,002	-0,077
-640,911	800,000	-0,035	-0,101
-639,897	5,642	-0,075	0,041
-638,882	-200,000	-0,007	0,098
-637,868	163,989	-0,073	-0,076
-636,853	158,821	-0,011	-0,011
-635,838	2,498	0,094	-0,050
-634,824	800,000	0,037	0,111
-633,809	-200,000	0,003	0,148
-632,795	548,710	-0,039	0,070
-631,780	-22,067	-0,127	-0,057
-630,765	106,264	0,067	0,059
-629,751	-101,861	-0,020	0,004
-628,736	-200,000	0,024	-0,104
-627,722	800,000	0,003	0,007
-626,707	46,321	0,008	0,005
-625,692	411,018	0,045	0,071
-624,678	14,890	-0,079	0,046
-623,663	-6,661	0,122	-0,062
-622,649	106,721	-0,065	-0,057
-621,634	-200,000	0,013	0,069
-620,619	-173,842	0,201	-0,004
-619,605	-200,000	-0,002	0,112
-618,590	-200,000	0,012	0,165
-617,576	-83,086	-0,047	0,011
-616,561	101,853	-0,088	-0,076
-615,546	-113,792	0,163	0,023
-614,532	242,737	-0,012	-0,016
-613,517	-200,000	0,006	0,156
-612,503	-124,172	0,133	0,015
-611,488	78,289	-0,100	-0,079
-610,474	-200,000	-0,003	-0,095
-609,459	-200,000	-0,028	-0,125
-608,444	-200,000	0,028	-0,136
-607,430	800,000	-0,046	-0,145
-606,415	233,922	-0,061	0,075
-605,401	15,151	0,079	0,046
-604,386	43,688	-0,032	-0,022
-603,371	-200,000	-0,015	0,100
-602,357	314,355	-0,100	-0,140
-601,342	-2,194	-0,148	-0,077
-600,328	92,835	-0,030	0,025
-599,313	-2,536	-0,112	0,058
-598,298	48,056	-0,089	-0,062
-597,284	-1,330	0,077	0,040
-596,269	160,040	0,113	0,117
-595,255	458,720	-0,011	-0,019
-594,240	-60,994	0,140	-0,044
-593,225	107,734	-0,229	-0,202
-592,211	57,279	-0,043	0,031
-591,196	-175,086	-0,139	-0,003
-590,182	800,000	-0,039	-0,119
-589,167	27,216	-0,063	-0,039
-588,152	-23,731	0,100	-0,044
-587,138	-200,000	0,053	-0,229
-586,123	313,755	-0,032	0,044
-585,109	-158,451	-0,113	-0,005
-584,094	800,000	-0,046	-0,140
-583,079	-8,501	0,129	-0,064
-582,065	76,276	-0,024	-0,019
-581,050	99,708	-0,014	-0,012
-580,036	-200,000	-0,003	0,024
-579,021	-2,537	-0,016	-0,009
-578,006	183,068	0,047	-0,052
-576,992	-200,000	0,018	0,071
-575,977	-200,000	0,011	0,039
-574,963	222,464	0,041	0,049
-573,948	-133,220	0,050	0,005
-572,934	60,888	0,063	-0,046
-571,919	327,089	0,097	-0,137
-570,904	-200,000	-0,003	-0,034
-569,890	153,588	0,041	0,041
-568,875	73,784	0,087	-0,067
-567,861	-200,000	-0,003	-0,016
-566,846	800,000	0,024	0,068
-565,831	800,000	0,044	-0,139
-564,817	725,073	-0,047	0,092
-563,802	18,772	0,049	0,029
-562,788	89,712	0,105	0,087
-561,773	33,770	0,043	-0,027
-560,758	115,943	0,112	-0,101
-559,744	-136,438	0,079	0,007
-558,729	-115,525	0,076	-0,010
-557,715	-22,893	-0,085	-0,038
-556,700	-92,999	-0,115	0,023
-555,685	-200,000	0,009	0,086
-554,671	-200,000	-0,006	-0,088
-553,656	527,218	0,038	0,067
-552,642	-200,000	-0,020	0,139
-551,627	186,300	-0,081	0,090
-550,612	402,483	-0,046	0,072
-549,598	800,000	-0,031	0,096
-548,583	563,753	0,048	-0,087
-547,569	35,322	-0,151	0,098
-546,554	-94,695	0,138	0,028
-545,539	-52,663	0,058	-0,020
-544,525	414,693	-0,024	-0,038
-543,510	-73,903	-0,118	0,032
-542,496	-91,813	0,031	0,006
-541,481	-70,568	-0,075	0,021
-540,466	274,884	0,035	-0,046
-539,452	365,813	0,010	0,015
-538,437	800,000	0,045	0,127
-537,423	34,723	0,126	0,081
-536,408	800,000	0,055	0,117
-535,393	730,715	0,020	0,040
-534,379	800,000	0,036	0,110
-533,364	-171,617	0,068	-0,002
-532,350	-141,352	-0,104	-0,008
-531,335	-112,258	-0,072	0,011
-530,321	-45,001	0,040	0,015
-529,306	108,059	0,072	0,064
-528,291	-154,131	0,061	-0,003
-527,277	-115,373	-0,098	0,013
-526,262	800,000	-0,024	-0,061
-525,248	-200,000	0,006	-0,040
-524,233	800,000	0,029	0,081
-523,218	111,311	0,074	0,066
-522,204	376,179	0,046	-0,070
-521,189	170,458	-0,057	-0,060
-520,175	-64,207	-0,046	0,014
-519,160	-200,000	-0,018	-0,059
-518,145	107,286	0,062	0,054
-517,131	330,397	-0,036	0,052
-516,116	800,000	-0,018	0,042
-515,102	114,824	-0,073	-0,066
-514,087	52,452	-0,065	-0,045
-513,072	180,191	-0,044	-0,047
-512,058	-49,324	0,097	-0,034
-511,043	-200,000	0,006	-0,084
-510,029	-200,000	0,008	0,104
-509,014	800,000	-0,035	0,074
-507,999	-120,148	-0,111	-0,014
-506,985	-77,878	-0,039	-0,010
-505,970	-72,652	-0,031	0,008
-504,956	-200,000	-0,021	-0,115
-503,941	1,021	0,026	-0,014
-502,926	-200,000	-0,011	0,080
-501,912	170,548	0,040	-0,042
-500,897	114,196	-0,090	-0,081
-499,883	-53,098	0,068	-0,023
-498,868	800,000	-0,042	-0,089
-497,853	-200,000	0,016	-0,060
-496,839	-200,000	0,015	-0,075
-495,824	-200,000	-0,022	-0,186
-494,810	300,665	0,057	-0,078
-493,795	251,377	0,043	0,054
-492,781	325,659	0,088	0,125
-491,766	-47,169	-0,090	0,032
-490,751	-200,000	-0,032	-0,148
-489,737	162,815	-0,085	-0,088
-488,722	-92,798	0,088	-0,018
-487,708	67,765	0,053	0,040
-486,693	-20,076	0,041	0,019
-485,678	123,024	0,069	0,064
-484,664	800,000	0,041	-0,091
-483,649	602,183	-0,029	-0,054
-482,635	-200,000	-0,041	0,148
-481,620	169,786	0,092	0,098
-480,605	77,610	-0,074	0,058
-479,591	-200,000	0,029	0,131
-478,576	26,865	0,046	-0,028
-477,562	-200,000	0,012	0,055
-476,547	-200,000	0,003	-0,110
-475,532	800,000	0,007	0,019
-474,518	121,589	-0,036	-0,033
-473,503	-200,000	0,009	0,048
-472,489	-140,896	0,107	0,008
-471,474	-200,000	-0,038	0,143
-470,459	-200,000	-0,097	0,000
-469,445	26,281	-0,136	-0,084
-468,430	-13,204	-0,104	0,050
-467,416	75,888	0,042	-0,032
-466,401	-121,306	0,035	0,004
-465,386	800,000	0,020	-0,055
-464,372	-29,133	-0,097	0,041
-463,357	-200,000	-0,029	-0,178
-462,343	800,000	-0,028	-0,069
-461,328	415,661	-0,087	-0,137
-460,313	44,352	-0,049	0,033
-459,299	466,643	-0,036	0,060
-458,284	49,680	0,146	0,101
-457,270	282,103	-0,046	0,061
-456,255	-7,880	-0,047	-0,023
-455,241	169,983	-0,049	0,052
-454,226	-200,000	0,006	-0,101
-453,211	210,324	0,054	0,063
-452,197	459,535	0,028	0,046
-451,182	800,000	0,016	-0,036
-450,168	-130,227	0,051	0,005
-449,153	-20,985	-0,045	-0,020
-448,138	-200,000	0,007	0,058
-447,124	-21,453	0,129	0,058
-446,109	97,702	0,097	-0,082
-445,095	-200,000	0,000	0,075
-444,080	-110,675	0,097	-0,015
-443,065	-78,312	0,153	-0,038
-442,051	757,070	-0,013	0,025
-441,036	-188,657	0,061	-0,001
-440,022	-200,000	-0,017	-0,149
-439,007	511,619	0,022	0,038
-437,992	380,031	-0,025	-0,038
-436,978	-200,000	0,004	0,032
-435,963	-126,188	-0,034	0,004
-434,949	-200,000	-0,019	-0,117
-433,934	-49,625	-0,051	-0,018
-432,919	217,059	0,003	0,003
-431,905	-200,000	0,021	0,103
-430,890	800,000	-0,015	-0,034
-429,876	-200,000	-0,031	0,167
-428,861	176,029	-0,016	-0,017
-427,846	-21,920	-0,022	-0,010
-426,832	-74,393	-0,165	0,043
-425,817	800,000	-0,041	-0,091
-424,803	9,954	0,064	-0,035
-423,788	800,000	0,022	0,057
-422,773	-104,799	0,109	-0,018
-421,759	156,265	-0,086	0,087
-420,744	623,335	-0,074	-0,139
-419,730	-200,000	0,014	-0,052
-418,715	45,925	-0,117	-0,080
-417,701	800,000	0,007	0,022
-416,686	-200,000	-0,019	-0,117
-415,671	-104,250	0,175	0,030
-414,657	-120,190	0,082	0,010
-413,642	-51,185	0,100	0,034
-412,628	-77,483	-0,034	0,009
-411,613	-200,000	-0,011	-0,124
-410,598	35,697	0,089	0,057
-409,584	-94,522	0,227	-0,045
-408,569	-169,998	0,080	-0,002
-407,555	-82,270	0,066	-0,016
-406,540	-200,000	-0,048	-0,191
-405,525	149,286	-0,022	-0,022
-404,511	76,039	0,032	-0,025
-403,496	-200,000	-0,008	0,059
-402,482	800,000	0,039	-0,086
-401,467	-66,901	0,075	-0,022
-400,452	160,585	0,113	0,116
-399,438	155,745	-0,078	-0,079
-398,423	681,740	0,082	-0,158
-397,409	262,715	-0,076	0,097
-396,394	71,171	-0,112	-0,085
-395,379	-200,000	-0,004	-0,108
-394,365	156,116	-0,080	-0,082
-393,350	-200,000	0,030	0,109
-392,336	-79,199	-0,063	0,016
-391,321	190,547	-0,085	0,094
-390,306	-179,726	-0,195	-0,003
-389,292	-42,716	0,039	-0,014
-388,277	-110,612	0,098	0,015
-387,263	800,000	0,051	0,148
-386,248	-118,379	0,104	0,013
-385,233	800,000	0,043	0,128
-384,219	111,356	-0,102	0,091
-383,204	800,000	-0,029	-0,082
-382,190	200,819	-0,019	-0,021
-381,175	5,967	-0,047	0,025
-380,160	721,094	-0,032	0,063
-379,146	-200,000	-0,000	0,040
-378,131	800,000	0,030	0,066
-377,117	-73,261	-0,097	-0,026
-376,102	642,793	-0,056	-0,106
-375,088	395,666	-0,039	0,060
-374,073	-200,000	-0,010	0,039
-373,058	-200,000	0,015	-0,081
-372,044	-1,154	0,148	0,077
-371,029	112,114	0,049	0,044
-370,015	325,512	-0,041	-0,058
-369,000	34,484	-0,076	-0,048
-367,985	800,000	-0,065	-0,191
-366,971	-27,601	0,058	0,025
-365,956	110,856	0,090	0,079
-364,942	-74,082	0,146	-0,039
-363,927	800,000	0,075	0,179
-362,912	-35,446	0,150	0,060
-361,898	68,731	0,037	0,028
-360,883	159,683	0,040	0,041
-359,869	262,893	-0,041	0,052
-358,854	-78,713	-0,177	-0,044
-357,839	10,807	-0,062	-0,035
-356,825	292,966	0,053	0,072
-355,810	-142,580	-0,056	-0,004
-354,796	52,112	0,056	0,039
-353,781	-200,000	0,029	-0,121
-352,766	32,425	0,061	-0,039
-351,752	150,580	-0,041	0,041
-350,737	-46,351	0,147	-0,053
-349,723	343,080	-0,057	0,082
-348,708	-200,000	0,008	-0,074
-347,693	76,778	-0,127	-0,099
-346,679	-200,000	-0,018	-0,118
-345,664	-11,596	-0,050	-0,024
-344,650	-154,671	0,056	0,003
-343,635	800,000	-0,021	-0,045
-342,620	-200,000	0,007	0,111
-341,606	800,000	0,015	0,036
-340,591	-165,156	0,041	-0,001
-339,577	-69,396	-0,177	-0,049
-338,562	-200,000	-0,007	-0,135
-337,548	-162,950	-0,120	-0,004
-336,533	-31,662	0,088	-0,036
-335,518	-200,000	0,032	0,114
-334,504	-200,000	-0,025	0,088
-333,489	-96,811	0,060	0,012
-332,475	525,368	-0,027	-0,046
-331,460	-70,863	0,093	-0,025
-330,445	-200,000	0,014	0,082
-329,431	-200,000	0,000	-0,034
-328,416	193,988	-0,066	-0,074
-327,402	-200,000	-0,003	-0,100
-326,387	205,747	0,054	-0,061
-325,372	-122,401	-0,058	-0,007
-324,358	-200,000	-0,000	-0,044
-323,343	-67,675	-0,055	-0,016
-322,329	-200,000	-0,005	0,029
-321,314	-200,000	0,029	-0,116
-320,299	31,993	0,172	0,108
-319,285	-200,000	-0,002	0,116
-318,270	-200,000	-0,017	-0,136
-317,256	-200,000	-0,010	-0,174
-316,241	123,837	0,057	-0,053
-315,226	73,078	0,062	-0,048
-314,212	-200,000	0,008	0,139
-313,197	-200,000	0,016	0,058
-312,183	58,567	0,067	0,048
-311,168	284,889	-0,028	0,037
-310,153	-111,325	-0,053	0,008
-309,139	-200,000	0,001	-0,089
-308,124	573,550	-0,050	0,089
-307,110	-153,282	0,120	-0,006
-306,095	672,619	0,007	-0,012
-305,080	65,718	0,088	-0,065
-304,066	112,968	-0,062	0,055
-303,051	800,000	-0,018	-0,044
-302,037	-200,000	-0,015	0,135
-301,022	-109,867	0,171	0,026
-300,008	-200,000	-0,007	0,133
-298,993	-21,468	-0,036	0,016
-297,978	-200,000	0,007	-0,040
-296,964	800,000	-0,039	0,085
-295,949	137,866	-0,089	0,086
-294,935	42,949	-0,110	-0,073
-293,920	98,496	-0,060	-0,051
-292,905	800,000	0,032	-0,090
-291,891	56,055	-0,036	0,026
-290,876	546,010	-0,006	0,011
-289,862	-200,000	-0,011	0,173
-288,847	-200,000	0,010	-0,129
-287,832	-200,000	0,006	-0,062
-286,818	99,104	0,020	0,017
-285,803	396,492	-0,009	0,014
-284,789	545,725	0,125	0,219
-283,774	197,862	-0,092	0,103
-282,759	-200,000	-0,001	-0,027
-281,745	-200,000	0,028	-0,090
-280,730	285,877	0,042	-0,055
-279,716	-55,337	-0,014	-0,005
-278,701	623,178	-0,041	-0,075
-277,686	12,688	0,089	0,050
-276,672	-48,310	0,138	-0,048
-275,657	800,000	0,029	-0,080
-274,643	-200,000	-0,030	0,098
-273,628	800,000	-0,032	0,074
-272,613	-60,782	-0,041	-0,013
-271,599	-30,080	-0,106	0,044
-270,584	210,640	0,149	0,172
-269,570	57,313	0,115	-0,082
-268,555	-15,680	0,068	0,032
-267,540	-25,135	-0,054	-0,023
-266,526	108,857	-0,145	-0,126
-265,511	-200,000	0,002	0,144
-264,497	-200,000	0,081	0,286
-263,482	36,525	0,032	0,021
-262,467	-200,000	-0,007	0,072
-261,453	-200,000	0,018	-0,092
-260,438	-200,000	0,005	-0,139
-259,424	86,136	-0,086	-0,069
-258,409	110,108	0,070	0,062
-257,395	99,840	0,095	-0,080
-256,380	428,813	0,052	0,082
-255,365	-200,000	-0,021	0,178
-254,351	800,000	0,048	0,147
-253,336	-200,000	-0,003	-0,171
-252,322	24,745	-0,148	-0,090
-251,307	-71,218	-0,121	0,033
-250,292	-65,888	0,057	0,017
-249,278	727,306	-0,037	0,073
-248,263	-79,735	-0,057	-0,014
-247,249	-200,000	-0,006	0,118
-246,234	-21,234	-0,111	-0,049
-245,219	359,874	0,031	-0,045
-244,205	800,000	-0,045	-0,106
-243,190	-200,000	-0,021	-0,116
-242,176	363,308	-0,047	-0,070
-241,161	800,000	-0,012	-0,031
-240,146	-200,000	-0,027	0,095
-239,132	69,370	-0,035	-0,026
-238,117	624,873	-0,068	-0,126
-237,103	800,000	-0,108	-0,263
-236,088	-123,710	-0,065	0,007
-235,073	-161,666	0,091	0,003
-234,059	-66,177	0,044	-0,013
-233,044	178,532	-0,057	0,061
-232,030	56,381	-0,012	-0,009
-231,015	135,766	-0,051	0,049
-230,000	-200,000	0,001	0,068
-228,986	63,794	-0,067	0,049
-227,971	400,746	0,043	-0,066
-226,957	-18,506	0,182	0,083
-225,942	-200,000	-0,034	0,210
-224,927	255,831	0,056	0,070
-223,913	377,242	0,015	0,022
-222,898	24,309	0,075	0,045
-221,884	-200,000	0,019	-0,140
-220,869	800,000	0,017	-0,047
-219,855	28,956	0,156	0,096
-218,840	800,000	-0,041	0,098
-217,825	-30,189	0,125	0,052
-216,811	78,100	-0,093	-0,072
-215,796	-21,392	0,086	-0,038
-214,782	-200,000	0,014	-0,105
-213,767	487,478	0,069	0,115
-212,752	-200,000	0,021	0,078
-211,738	22,217	-0,115	0,068
-210,723	-191,650	0,123	-0,001
-209,709	125,021	-0,081	-0,074
-208,694	-200,000	0,011	-0,162
-207,679	800,000	0,038	-0,082
-206,665	-173,808	-0,036	-0,001
-205,650	327,947	0,119	0,167
-204,636	136,050	-0,131	-0,125
-203,621	-39,175	0,071	0,027
-202,606	138,458	-0,031	0,029
-201,592	-47,791	-0,077	0,027
-200,577	-32,612	0,061	-0,025
-199,563	277,977	0,057	-0,074
-198,548	54,075	0,098	-0,069
-197,533	-200,000	0,006	0,107
-196,519	-95,848	0,035	0,007
-195,504	-60,405	-0,050	0,015
-194,490	-83,787	-0,190	0,044
-193,475	759,619	0,063	-0,125
-192,460	-94,841	-0,111	-0,022
-191,446	-200,000	-0,019	-0,061
-190,431	800,000	0,065	0,192
-189,417	-200,000	0,002	-0,010
-188,402	64,806	-0,111	-0,082
-187,387	-10,194	-0,120	0,058
-186,373	1,373	-0,184	-0,096
-185,358	800,000	-0,039	0,088
-184,344	-79,587	0,163	0,040
-183,329	536,752	-0,085	0,148
-182,315	800,000	0,028	0,061
-181,300	-63,425	-0,086	0,026
-180,285	15,021	-0,037	0,021
-179,271	21,109	-0,057	-0,034
-178,256	155,451	-0,076	-0,076
-177,242	-47,163	0,074	0,026
-176,227	-200,000	-0,006	0,128
-175,212	175,961	-0,048	0,051
-174,198	164,200	-0,096	0,099
-173,183	-101,445	-0,030	0,005
-172,169	799,990	-0,023	-0,046
-171,154	153,147	0,074	-0,074
-170,139	-95,372	0,101	-0,020
-169,125	800,000	0,041	0,098
-168,110	26,952	-0,277	0,169
-167,096	66,117	0,046	0,034
-166,081	214,358	0,045	-0,052
-165,066	-33,356	-0,057	0,023
-164,052	212,022	0,044	-0,051
-163,037	-115,179	-0,039	-0,005
-162,023	49,232	0,117	-0,080
-161,008	-103,657	-0,080	0,013
-159,993	-200,000	0,006	-0,020
-158,979	-83,761	0,022	0,005
-157,964	-100,218	-0,094	-0,017
-156,950	17,467	0,036	0,021
-155,935	93,451	0,046	-0,038
-154,920	-200,000	-0,001	0,089
-153,906	-200,000	0,010	0,044
-152,891	800,000	-0,087	0,180
-151,877	-91,125	0,157	0,033
-150,862	800,000	-0,072	-0,157
-149,847	800,000	0,027	-0,075
-148,833	-84,146	0,105	-0,024
-147,818	245,250	0,040	0,049
-146,804	-200,000	-0,039	0,190
-145,789	-89,820	-0,080	-0,017
-144,775	800,000	-0,040	-0,103
-143,760	714,171	-0,067	0,130
-142,745	-200,000	-0,001	-0,025
-141,731	636,730	-0,048	-0,089
-140,716	-72,420	0,092	-0,025
-139,702	242,698	-0,093	0,114
-138,687	-89,062	-0,080	-0,017
-137,672	216,109	-0,063	-0,073
-136,658	-200,000	-0,012	-0,116
-135,643	106,632	0,081	-0,070
-134,629	183,158	-0,054	-0,058
-133,614	79,313	0,096	0,075
-132,599	-200,000	0,008	0,077
-131,585	800,000	-0,023	0,056
-130,570	-132,248	0,080	0,007
-129,556	-81,392	-0,122	-0,029
-128,541	12,040	-0,060	0,033
-127,526	-119,461	-0,031	-0,004
-126,512	419,108	0,068	0,107
-125,497	-132,451	0,076	-0,007
-124,483	116,820	-0,046	0,041
-123,468	-92,375	0,014	-0,003
-122,453	-43,154	-0,131	-0,048
-121,439	800,000	0,021	0,051
-120,424	-200,000	-0,030	-0,111
-119,410	-62,778	0,105	-0,032
-118,395	166,701	0,102	0,105
-117,380	-81,569	-0,010	0,002
-116,366	181,503	-0,114	-0,122
-115,351	36,996	-0,116	0,075
-114,337	94,474	-0,100	-0,082
-113,322	-19,521	0,049	-0,022
-112,307	72,772	-0,037	-0,028
-111,293	-70,853	0,099	-0,027
-110,278	164,618	0,019	-0,020
-109,264	133,243	0,067	0,063
-108,249	66,994	-0,069	-0,051
-107,234	-43,286	0,031	-0,011
-106,220	52,075	-0,089	0,062
-105,205	39,850	0,099	-0,064
-104,191	-136,623	-0,087	-0,007
-103,176	-88,538	0,080	0,017
-102,162	800,000	-0,017	-0,048
-101,147	125,515	-0,113	0,103
-100,132	767,723	-0,089	-0,177
-99,118	-200,000	-0,045	-0,207
-98,103	663,415	0,059	0,111
-97,089	-19,860	0,125	0,056
-96,074	-171,381	0,095	-0,002
-95,059	607,969	0,043	-0,079
-94,045	-20,664	0,097	-0,043
-93,030	-200,000	0,005	-0,040
-92,016	-200,000	-0,003	-0,017
-91,001	45,308	-0,101	0,068
-89,986	-7,210	0,056	0,027
-88,972	401,519	0,044	-0,067
-87,957	48,573	0,072	-0,049
-86,943	31,053	-0,089	0,055
-85,928	-75,817	-0,034	-0,009
-84,913	703,764	-0,041	0,079
-83,899	800,000	-0,032	-0,081
-82,884	-62,550	0,070	-0,021
-81,870	800,000	0,042	0,098
-80,855	226,591	0,021	-0,025
-79,840	-140,340	-0,068	0,005
-78,826	-200,000	-0,001	0,049
-77,811	201,274	-0,096	-0,107
-76,797	-42,277	0,078	-0,029
-75,782	800,000	0,032	-0,067
-74,767	-103,873	0,119	-0,020
-73,753	-200,000	0,012	-0,068
-72,738	156,694	-0,088	0,088
-71,724	-36,359	-0,034	-0,013
-70,709	84,974	0,131	-0,104
-69,694	74,958	0,038	-0,029
-68,680	-7,649	-0,053	-0,026
-67,665	-200,000	0,003	0,126
-66,651	195,695	0,142	0,157
-65,636	-200,000	-0,061	0,215
-64,622	-200,000	-0,022	-0,072
-63,607	-5,780	-0,022	-0,011
-62,592	2,580	-0,045	0,023
-61,578	142,155	-0,112	-0,108
-60,563	-20,967	0,098	-0,044
-59,549	444,337	-0,039	0,062
-58,534	-78,771	-1,474	-0,362
-57,519	622,121	-0,882	-1,619
-56,505	-200,000	-0,854	-4,719
-55,490	156,030	0,418	-0,418
-54,476	800,000	4,968	11,773
-53,461	-200,000	13,856	253,402
-52,446	-200,000	690,391	2256,316
-51,432	588,556	1622,583	2912,937
-50,417	118,839	1634,705	1465,781
-49,403	72,994	1288,700	976,142
-48,388	37,936	1024,225	659,411
-47,373	24,232	981,915	587,087
-46,359	23,494	971,462	578,395
-45,344	22,435	967,336	572,454
-44,330	22,411	965,931	571,521
-43,315	22,269	964,445	570,155
-42,300	22,307	963,365	569,617
-41,286	22,323	962,444	569,102
-40,271	22,285	961,339	568,303
-39,257	22,279	960,587	567,817
-38,242	22,282	959,517	567,172
-37,227	22,275	958,618	566,596
-36,213	22,255	957,737	565,988
-35,198	22,229	956,851	565,358
-34,184	22,283	956,294	565,181
-33,169	22,241	955,424	564,507
-32,154	22,342	954,428	564,221
-31,140	22,322	953,391	563,524
-30,125	22,304	952,807	563,096
-29,111	22,354	951,930	562,717
-28,096	22,260	951,400	562,080
-27,082	22,265	950,500	561,541
-26,067	22,269	949,911	561,185
-25,052	22,279	949,133	560,735
-24,038	22,274	948,493	560,318
-23,023	22,320	947,752	560,007
-22,009	22,348	947,112	559,694
-20,994	22,321	946,507	559,229
-19,979	22,326	945,950	558,895
-18,965	22,332	945,298	558,505
-17,950	22,314	944,671	558,055
-16,936	22,305	943,972	557,592
-15,921	22,274	943,208	557,019
-14,906	22,173	942,571	556,300
-13,892	22,166	941,916	555,867
-12,877	22,182	941,435	555,614
-11,863	22,110	940,793	554,984
-10,848	22,123	940,299	554,712
-9,833	22,242	939,864	554,810
-8,819	22,200	939,276	554,307
-7,804	22,175	938,471	553,730
-6,790	22,192	937,766	553,346
-5,775	22,157	937,395	552,994
-4,760	22,233	936,726	552,820
-3,746	22,183	935,985	552,202
-2,731	21,991	935,360	551,207
-1,717	21,940	934,714	550,642
-0,702	21,983	934,048	550,365
0,313	21,823	933,218	550,200
1,327	24,938	931,414	558,886
2,342	34,658	795,848	503,427
3,356	32,676	451,660	282,693
4,371	1,567	293,995	152,944
5,386	-2,950	275,048	138,793
6,400	-4,340	269,008	134,442
7,415	-5,018	266,703	132,654
8,429	-4,659	265,433	132,340
9,444	-4,515	264,558	132,024
10,459	-4,649	263,964	131,593
11,473	-4,534	263,351	131,380
12,488	-4,798	262,900	130,904
13,502	-4,979	262,280	130,420
14,517	-4,912	262,018	130,338
15,531	-4,812	261,580	130,200
16,546	-4,746	261,148	130,032
17,561	-4,766	260,778	129,818
18,575	-4,734	260,444	129,669
19,590	-4,765	260,191	129,504
20,604	-4,675	260,017	129,487
21,619	-4,582	259,575	129,338
22,634	-4,764	259,076	128,916
23,648	-4,667	258,940	128,923
24,663	-4,773	258,572	128,634
25,677	-4,696	258,395	128,603
26,692	-4,760	258,112	128,394
27,707	-4,704	257,856	128,304
28,721	-4,758	257,517	128,076
29,736	-4,906	257,344	127,847
30,750	-4,893	257,032	127,693
31,765	-4,915	257,051	127,671
32,780	-4,992	256,544	127,339
33,794	-4,945	256,487	127,342
34,809	-4,893	256,145	127,207
35,823	-4,836	255,937	127,142
36,838	-4,788	255,702	127,056
37,853	-4,866	255,404	126,828
38,867	-4,904	255,245	126,704
39,882	-4,772	254,878	126,627
40,896	-4,869	254,765	126,474
41,911	-4,720	254,557	126,490
42,926	-4,763	254,289	126,309
43,940	-4,846	254,091	126,127
44,955	-4,969	254,090	126,007
45,969	-5,014	253,601	125,714
46,984	-5,246	253,316	125,360
47,999	-5,432	253,229	125,143
49,013	-5,580	252,829	124,805
50,028	-5,575	252,485	124,629
51,042	-5,775	252,326	124,366
52,057	-5,624	252,158	124,403
53,071	-5,720	251,981	124,221
54,086	-5,636	251,825	124,206
55,101	-5,616	251,793	124,196
56,115	-5,311	251,583	124,345
57,130	-4,765	251,408	124,720
58,144	-4,768	251,468	124,736
59,159	-4,602	251,081	124,677
60,174	-4,691	250,861	124,479
61,188	-4,764	250,626	124,288
62,203	-4,560	250,419	124,350
63,217	-4,952	250,248	123,918
64,232	-4,813	249,955	123,880
65,247	-4,697	249,669	123,827
66,261	-4,867	249,663	123,667
67,276	-5,119	249,455	123,337
68,290	-5,257	249,039	123,002
69,305	-5,337	248,778	122,795
70,320	-5,230	248,686	122,829
71,334	-4,936	248,542	122,998
72,349	-4,703	248,232	123,032
73,363	-4,953	248,276	122,831
74,378	-4,598	248,004	122,987
75,393	-4,684	247,827	122,815
76,407	-4,818	247,587	122,571
77,422	-4,812	247,415	122,480
78,436	-4,722	247,213	122,446
79,451	-4,736	246,983	122,309
80,466	-4,845	246,739	122,085
81,480	-4,938	246,463	121,859
82,495	-5,154	246,388	121,628
83,509	-5,100	246,253	121,596
84,524	-4,962	245,971	121,563
85,539	-5,003	245,658	121,362
86,553	-5,134	245,587	121,207
87,568	-5,134	245,430	121,118
88,582	-5,076	245,287	121,085
89,597	-5,073	245,019	120,945
90,611	-5,115	244,956	120,868
91,626	-4,786	244,731	121,022
92,641	-4,838	244,609	120,907
93,655	-4,971	244,351	120,658
94,670	-4,984	244,119	120,522
95,684	-5,017	244,086	120,467
96,699	-4,801	243,814	120,503
97,714	-5,202	243,662	120,082
98,728	-5,046	243,385	120,065
99,743	-5,142	243,177	119,871
100,757	-5,258	242,902	119,628
101,772	-5,045	242,704	119,697
102,787	-5,085	242,640	119,621
103,801	-5,013	242,409	119,557
104,816	-4,900	242,309	119,591
105,830	-4,925	242,183	119,497
106,845	-4,884	242,089	119,474
107,860	-4,834	241,847	119,386
108,874	-5,059	241,666	119,100
109,889	-5,237	241,366	118,794
110,903	-5,127	241,143	118,764
111,918	-4,898	241,014	118,879
112,933	-4,941	240,834	118,744
113,947	-4,940	240,670	118,654
114,962	-4,824	240,593	118,701
115,976	-4,988	240,540	118,529
116,991	-5,083	240,294	118,320
118,006	-4,924	239,960	118,274
119,020	-4,932	239,869	118,212
120,035	-4,911	239,827	118,199
121,049	-4,863	239,657	118,143
122,064	-4,767	239,320	118,046
123,079	-4,895	239,198	117,870
124,093	-4,914	238,910	117,702
125,108	-5,200	238,823	117,415
126,122	-5,284	238,526	117,190
127,137	-5,227	238,421	117,175
128,151	-5,179	238,213	117,101
129,166	-5,065	238,076	117,116
130,181	-5,175	237,821	116,891
131,195	-5,294	237,708	116,729
132,210	-5,063	237,628	116,866
133,224	-4,942	237,385	116,834
134,239	-4,784	237,136	116,829
135,254	-4,914	237,105	116,698
136,268	-5,091	236,981	116,484
137,283	-5,133	236,536	116,221
138,297	-5,405	236,237	115,843
139,312	-5,336	236,206	115,874
140,327	-5,124	236,141	116,003
141,341	-4,625	236,117	116,382
142,356	-4,637	235,990	116,300
143,370	-4,353	235,956	116,502
144,385	-4,559	235,643	116,171
145,400	-4,480	235,493	116,150
146,414	-4,577	235,362	115,997
147,429	-4,498	235,038	115,891
148,443	-4,628	234,999	115,757
149,458	-4,736	234,859	115,591
150,473	-4,634	234,543	115,507
151,487	-4,754	234,365	115,313
152,502	-4,486	234,226	115,448
153,516	-4,561	234,227	115,379
154,531	-4,599	233,933	115,193
155,546	-4,720	233,868	115,054
156,560	-4,617	233,631	115,009
157,575	-4,740	233,414	114,795
158,589	-4,754	233,208	114,672
159,604	-4,554	233,256	114,844
160,619	-4,421	232,954	114,791
161,633	-4,501	232,833	114,657
162,648	-4,432	232,551	114,563
163,662	-4,560	232,560	114,456
164,677	-4,728	232,326	114,198
165,692	-4,518	232,164	114,273
166,706	-4,413	232,071	114,301
167,721	-4,570	231,971	114,118
168,735	-4,509	231,795	114,069
169,750	-4,497	231,603	113,973
170,764	-4,514	231,333	113,817
171,779	-4,564	231,381	113,792
172,794	-4,536	231,231	113,729
173,808	-4,494	231,019	113,648
174,823	-5,014	230,627	113,037
175,837	-5,098	230,530	112,913
176,852	-5,054	230,507	112,927
177,867	-4,521	230,346	113,256
178,881	-4,519	230,186	113,168
179,896	-4,628	230,090	113,025
180,910	-4,536	229,816	112,953
181,925	-4,362	229,674	113,009
182,940	-4,386	229,511	112,900
183,954	-4,260	229,450	112,958
184,969	-4,523	229,344	112,691
185,983	-4,345	229,201	112,749
186,998	-4,362	229,073	112,663
188,013	-4,311	228,770	112,543
189,027	-4,266	228,718	112,543
190,042	-4,442	228,523	112,300
191,056	-4,393	228,394	112,264
192,071	-4,247	228,216	112,280
193,086	-4,467	228,181	112,083
194,100	-4,626	227,881	111,802
195,115	-4,635	227,487	111,592
196,129	-5,080	227,348	111,171
197,144	-1,738	228,352	114,241
198,159	2,304	229,646	118,021
199,173	4,167	229,991	119,635
200,188	4,260	229,961	119,681
201,202	4,442	229,695	119,673
202,217	4,628	229,549	119,730
203,232	4,697	229,570	119,784
204,246	4,877	229,347	119,796
205,261	4,847	229,215	119,693
206,275	5,031	229,133	119,782
207,290	4,998	229,201	119,782
208,304	5,116	228,796	119,650
209,319	5,034	228,663	119,507
210,334	4,794	228,560	119,257
211,348	4,608	228,274	118,954
212,363	4,284	228,070	118,589
213,377	4,061	227,838	118,286
214,392	4,055	227,689	118,193
215,407	4,025	227,771	118,202
216,421	4,395	227,488	118,329
217,436	4,197	227,080	117,954
218,450	3,882	226,873	117,596
219,465	4,003	226,803	117,641
220,480	3,922	226,753	117,543
221,494	4,090	226,603	117,583
222,509	4,042	226,341	117,400
223,523	4,047	226,401	117,424
224,538	3,951	226,239	117,256
225,553	4,240	225,956	117,319
226,567	4,256	226,012	117,350
227,582	4,204	225,933	117,260
228,596	4,492	225,631	117,311
229,611	4,162	225,383	116,921
230,626	3,971	225,327	116,737
231,640	4,187	225,156	116,801
232,655	4,271	225,063	116,806
233,669	4,722	225,137	117,176
234,684	4,729	224,758	116,973
235,699	4,450	224,724	116,734
236,713	4,253	224,449	116,432
237,728	4,056	224,226	116,158
238,742	3,839	224,215	115,978
239,757	4,073	224,067	116,068
240,772	3,889	223,842	115,802
241,786	3,776	223,760	115,664
242,801	4,247	223,578	115,913
243,815	4,352	223,510	115,948
244,830	4,568	223,314	115,997
245,844	4,154	223,284	115,661
246,859	4,342	222,865	115,575
247,874	4,401	223,006	115,681
248,888	4,445	222,752	115,572
249,903	4,095	222,609	115,226
250,917	3,998	222,462	115,067
251,932	3,900	222,318	114,909
252,947	4,038	222,172	114,926
253,961	3,999	221,989	114,792
254,976	4,142	221,888	114,836
255,990	4,270	221,821	114,887
257,005	4,283	221,455	114,697
258,020	4,289	221,413	114,669
259,034	4,546	221,361	114,823
260,049	4,636	221,170	114,781
261,063	4,246	221,059	114,423
262,078	4,633	220,821	114,577
263,093	4,487	220,916	114,508
264,107	4,316	220,596	114,206
265,122	4,225	220,469	114,062
266,136	4,597	220,314	114,246
267,151	4,536	220,256	114,162
268,166	4,268	220,058	113,851
269,180	4,103	219,696	113,531
270,195	4,270	219,534	113,561
271,209	4,001	219,451	113,309
272,224	4,117	219,448	113,383
273,239	4,374	219,095	113,379
274,253	3,998	219,190	113,142
275,268	3,905	218,822	112,874
276,282	3,769	218,628	112,664
277,297	3,605	218,778	112,611
278,312	3,905	218,424	112,639
279,326	4,131	218,431	112,797
280,341	4,062	218,287	112,663
281,355	4,047	218,274	112,635
282,370	4,134	217,962	112,527
283,384	3,824	217,795	112,204
284,399	3,963	217,549	112,169
285,414	3,828	217,587	112,080
286,428	4,218	217,361	112,238
287,443	4,263	217,338	112,249
288,457	4,400	217,260	112,299
289,472	4,194	217,020	112,015
290,487	3,930	216,550	111,570
291,501	3,678	216,564	111,385
292,516	3,635	216,520	111,321
293,530	3,858	216,396	111,409
294,545	3,683	216,237	111,190
295,560	3,824	216,297	111,314
296,574	4,083	216,081	111,380
297,589	4,237	215,824	111,349
298,603	4,204	215,864	111,335
299,618	4,186	215,654	111,205
300,633	3,984	215,698	111,071
301,647	4,431	215,525	111,295
302,662	4,233	215,340	111,047
303,676	4,476	215,075	111,075
304,691	4,327	215,073	110,957
305,706	4,468	214,838	110,927
306,720	4,353	214,764	110,796
307,735	4,053	214,651	110,513
308,749	3,939	214,441	110,313
309,764	4,027	214,277	110,282
310,779	4,378	214,162	110,464
311,793	4,302	214,045	110,339
312,808	4,374	213,823	110,267
313,822	4,382	213,756	110,228
314,837	3,984	213,571	109,839
315,852	4,106	213,209	109,729
316,866	3,883	213,347	109,632
317,881	4,261	213,338	109,887
318,895	4,180	213,253	109,776
319,910	4,151	212,895	109,561
320,925	3,815	212,687	109,205
321,939	3,698	212,475	109,004
322,954	3,684	212,419	108,955
323,968	4,225	212,257	109,246
324,983	4,207	212,283	109,237
325,997	4,334	212,162	109,255
327,012	4,087	212,026	109,000
328,027	4,028	211,832	108,849
329,041	4,428	211,813	109,113
330,056	4,504	211,668	109,082
331,070	4,205	211,376	108,710
332,085	4,124	211,134	108,519
333,100	3,988	211,190	108,443
334,114	3,957	211,077	108,353
335,129	4,220	210,809	108,391
336,143	3,922	210,676	108,103
337,158	3,743	210,631	107,945
338,173	4,161	210,423	108,122
339,187	4,096	210,343	108,025
340,202	3,794	210,202	107,732
341,216	3,688	209,950	107,518
342,231	3,770	209,911	107,546
343,246	3,906	209,681	107,515
344,260	4,017	209,581	107,531
345,275	4,050	209,432	107,468
346,289	4,246	209,415	107,587
347,304	4,168	209,175	107,399
348,319	4,087	209,081	107,285
349,333	4,168	208,924	107,251
350,348	4,203	208,821	107,213
351,362	4,292	208,699	107,203
352,377	4,274	208,600	107,130
353,392	3,953	208,436	106,814
354,406	4,298	208,411	107,030
355,421	193,153	1345,545	1431,908
356,435	154,084	1484,191	1432,031
