DTS Sentinel unit serial number:	SN410029Multiplexer serial number:	ORYXHardware model number:	OX2-SRSoftware version number:	ORYX F/W v4,00 Oryx Data Collector v3.7.2.0data status	okinstallation	B6 Nyhavnadifferential loss correction	single-endedforward channel	channel 2reverse channel	N/Adate	2023/12/09time	17:35:08forward acquisition time	300,00reverse acquisition time	0,00gamma	499,1914k internal	0,3130k external	0,3130temperature offset calibration	1,0000default loss term (dB/km)	0,3820temperature slope calibration	1,0000multiplexer offset coefficient	1,0000multiplexer slope coefficient	1,0000fibre end	0,00T internal ref (°C)	21,00T ext. ref 1 (°C)	4,72T ext. ref 2 (°C)	4,74length (m)	temperature (°C)	Stokes	anti-Stokes-744,400	-156,795	0,030	0,001
-743,385	-33,382	-0,152	0,062
-742,371	-98,828	0,050	0,009
-741,356	-13,526	-0,126	0,061
-740,342	800,000	0,050	0,108
-739,327	214,757	-0,236	0,279
-738,312	93,297	0,004	-0,004
-737,298	-119,726	-0,303	0,038
-736,283	-76,334	0,145	-0,038
-735,269	-62,291	-0,143	0,044
-734,254	487,325	-0,055	-0,094
-733,239	-28,232	-0,524	-0,224
-732,225	-91,879	0,087	-0,018
-731,210	-181,701	0,128	0,002
-730,196	24,231	-0,039	0,024
-729,181	-2,813	-0,112	-0,058
-728,167	800,000	0,016	0,050
-727,152	34,118	0,059	-0,038
-726,137	-62,777	0,108	0,033
-725,123	-91,187	-0,126	0,027
-724,108	-57,124	-0,185	0,060
-723,094	78,861	-0,123	-0,098
-722,079	-115,018	0,085	-0,012
-721,064	48,684	0,096	0,067
-720,050	340,816	-0,031	-0,045
-719,035	-200,000	0,030	0,103
-718,021	-81,075	-0,031	-0,008
-717,006	800,000	-0,094	0,216
-715,991	-63,418	-0,045	-0,014
-714,977	800,000	0,042	0,094
-713,962	236,534	0,116	0,143
-712,948	92,668	-0,129	0,108
-711,933	-200,000	0,013	-0,046
-710,918	800,000	0,007	-0,016
-709,904	69,801	0,061	-0,047
-708,889	-10,215	-0,179	-0,088
-707,875	50,968	-0,074	-0,052
-706,860	678,915	-0,040	0,079
-705,845	-86,761	0,113	-0,026
-704,831	-135,636	0,148	-0,013
-703,816	81,536	0,138	0,111
-702,802	28,670	0,087	0,055
-701,787	-200,000	0,004	-0,183
-700,772	-200,000	0,005	-0,016
-699,758	800,000	0,018	-0,040
-698,743	442,137	0,019	-0,031
-697,729	-84,346	-0,114	0,027
-696,714	800,000	-0,016	-0,046
-695,699	-154,095	-0,073	0,004
-694,685	158,239	0,090	-0,092
-693,670	-40,420	-0,181	-0,069
-692,656	34,962	0,124	0,080
-691,641	-10,040	0,108	0,053
-690,627	188,656	-0,016	-0,018
-689,612	-120,550	-0,153	0,019
-688,597	-200,000	-0,011	0,157
-687,583	800,000	-0,035	0,090
-686,568	800,000	-0,023	-0,061
-685,554	404,904	-0,036	0,056
-684,539	-157,553	0,118	0,005
-683,524	290,571	-0,005	-0,007
-682,510	800,000	-0,034	0,103
-681,495	-191,508	-0,112	0,001
-680,481	-80,307	0,060	0,015
-679,466	-44,358	0,007	0,003
-678,451	-200,000	0,012	-0,042
-677,437	246,249	-0,078	-0,098
-676,422	-200,000	0,028	0,097
-675,408	167,156	-0,051	-0,054
-674,393	-200,000	0,004	-0,063
-673,378	113,103	-0,129	-0,116
-672,364	800,000	0,089	-0,195
-671,349	-200,000	-0,012	0,102
-670,335	39,132	0,064	-0,043
-669,320	-13,306	-0,116	0,056
-668,305	-200,000	0,014	0,151
-667,291	-68,442	0,078	-0,022
-666,276	-49,350	-0,045	-0,016
-665,262	155,140	-0,102	0,104
-664,247	-200,000	-0,016	-0,061
-663,232	-200,000	-0,011	-0,041
-662,218	-200,000	-0,003	-0,046
-661,203	-200,000	-0,022	0,089
-660,189	-38,933	-0,024	0,009
-659,174	-200,000	0,032	-0,119
-658,159	-152,471	-0,067	0,004
-657,145	-70,285	0,077	0,022
-656,130	-200,000	0,003	-0,020
-655,116	742,248	-0,101	-0,203
-654,101	54,377	0,043	-0,030
-653,086	346,574	0,044	-0,065
-652,072	-200,000	-0,007	-0,092
-651,057	-128,866	-0,065	0,007
-650,043	-153,367	-0,107	-0,005
-649,028	95,420	-0,094	0,079
-648,014	35,607	0,043	0,028
-646,999	-200,000	-0,025	-0,082
-645,984	-100,490	0,109	0,020
-644,970	-74,531	-0,105	-0,028
-643,955	115,889	-0,122	-0,111
-642,941	-200,000	-0,024	-0,088
-641,926	800,000	0,010	-0,030
-640,911	-200,000	-0,007	-0,023
-639,897	-200,000	-0,021	0,210
-638,882	137,046	0,040	-0,038
-637,868	165,993	-0,076	-0,079
-636,853	-13,285	-0,098	0,047
-635,838	-13,428	0,015	0,007
-634,824	-58,625	-0,151	-0,048
-633,809	-32,545	0,060	0,025
-632,795	-116,037	-0,044	-0,006
-631,780	-170,967	0,095	0,002
-630,765	-168,583	0,088	0,002
-629,751	-200,000	-0,008	-0,030
-628,736	93,389	-0,035	-0,029
-627,722	-200,000	-0,003	-0,020
-626,707	12,946	-0,156	0,089
-625,692	-63,670	-0,128	-0,039
-624,678	-200,000	0,014	0,052
-623,663	108,803	0,045	-0,040
-622,649	244,553	-0,084	-0,105
-621,634	-200,000	-0,004	-0,016
-620,619	-112,069	0,033	0,005
-619,605	81,905	-0,088	-0,071
-618,590	-200,000	0,003	-0,064
-617,576	800,000	-0,060	-0,124
-616,561	-200,000	0,052	-0,177
-615,546	-30,270	-0,068	-0,029
-614,532	23,805	0,071	0,043
-613,517	800,000	-0,016	0,048
-612,503	284,235	0,101	-0,135
-611,488	-200,000	0,003	0,054
-610,474	33,514	-0,094	0,060
-609,459	29,169	-0,056	0,035
-608,444	574,139	-0,019	-0,034
-607,430	-200,000	-0,033	0,130
-606,415	800,000	-0,047	-0,130
-605,401	-93,905	0,026	0,005
-604,386	-167,534	-0,189	0,005
-603,371	800,000	-0,045	-0,125
-602,357	800,000	-0,059	0,123
-601,342	-145,365	0,042	0,003
-600,328	800,000	-0,056	-0,134
-599,313	80,774	-0,045	-0,036
-598,298	10,453	-0,058	-0,032
-597,284	800,000	0,017	-0,042
-596,269	243,206	-0,019	-0,024
-595,255	-200,000	-0,041	0,279
-594,240	-10,926	-0,116	0,056
-593,225	450,911	0,087	-0,143
-592,211	-27,039	-0,180	-0,077
-591,196	-5,688	0,116	-0,058
-590,182	-200,000	0,001	0,031
-589,167	343,237	0,090	0,130
-588,152	36,589	0,070	-0,045
-587,138	360,242	-0,011	0,016
-586,123	234,522	-0,031	-0,037
-585,109	270,667	-0,075	-0,097
-584,094	196,339	-0,084	0,094
-583,079	465,049	0,055	0,091
-582,065	-105,494	-0,146	-0,024
-581,050	-63,653	-0,180	-0,054
-580,036	55,366	-0,069	0,049
-579,021	122,268	-0,122	-0,112
-578,006	454,295	-0,080	-0,132
-576,992	-62,146	0,087	-0,026
-575,977	-65,794	0,083	0,024
-574,963	35,615	0,016	-0,010
-573,948	61,648	0,064	-0,047
-572,934	-4,693	0,091	-0,046
-571,919	0,484	0,045	0,024
-570,904	428,578	-0,050	0,081
-569,890	-200,000	0,012	-0,069
-568,875	-25,625	-0,047	0,020
-567,861	575,330	-0,035	0,064
-566,846	-37,316	0,082	-0,032
-565,831	203,853	-0,005	0,006
-564,817	635,762	-0,052	0,097
-563,802	6,144	0,033	0,018
-562,788	-200,000	-0,002	-0,072
-561,773	55,119	0,149	-0,106
-560,758	77,348	0,083	0,065
-559,744	-200,000	0,007	0,123
-558,729	-200,000	0,018	0,108
-557,715	-62,837	-0,088	-0,027
-556,700	-200,000	-0,030	0,122
-555,685	-29,618	-0,144	0,060
-554,671	-8,298	-0,099	-0,049
-553,656	800,000	0,045	0,108
-552,642	159,692	0,118	-0,121
-551,627	800,000	0,053	0,145
-550,612	-63,863	0,038	-0,011
-549,598	-82,130	0,097	0,023
-548,583	-92,602	0,151	-0,031
-547,569	-200,000	-0,005	0,051
-546,554	248,160	-0,080	0,100
-545,539	93,354	0,081	0,068
-544,525	-63,058	0,085	0,026
-543,510	-200,000	0,002	0,011
-542,496	-200,000	-0,001	-0,138
-541,481	-122,865	-0,079	-0,009
-540,466	287,967	-0,034	-0,046
-539,452	149,754	0,079	0,079
-538,437	47,498	0,033	0,023
-537,423	309,404	-0,037	-0,051
-536,408	169,469	-0,083	0,087
-535,393	800,000	-0,012	-0,034
-534,379	124,602	-0,023	0,021
-533,364	589,871	0,017	-0,030
-532,350	800,000	0,037	-0,108
-531,335	389,028	0,032	0,048
-530,321	-80,074	0,116	0,028
-529,306	-200,000	-0,010	-0,144
-528,291	-20,697	-0,108	0,049
-527,277	-200,000	0,016	-0,083
-526,262	-86,064	0,062	-0,014
-525,248	-148,288	-0,093	0,006
-524,233	755,876	-0,023	0,046
-523,218	-132,111	0,045	0,004
-522,204	-200,000	0,000	-0,009
-521,189	-52,237	0,108	-0,037
-520,175	-161,962	-0,110	-0,004
-519,160	471,558	-0,035	-0,058
-518,145	-65,955	0,034	-0,010
-517,131	-200,000	0,018	0,195
-516,116	-200,000	-0,006	0,029
-515,102	-44,492	0,039	0,014
-514,087	-200,000	0,001	-0,079
-513,072	113,963	0,073	-0,066
-512,058	800,000	-0,047	-0,113
-511,043	18,472	0,062	-0,036
-510,029	-48,004	0,093	0,033
-509,014	-24,209	-0,016	0,007
-507,999	-200,000	-0,006	-0,069
-506,985	-14,487	-0,117	0,055
-505,970	792,289	-0,049	-0,101
-504,956	800,000	0,072	-0,150
-503,941	303,958	0,044	0,060
-502,926	-200,000	-0,004	0,033
-501,912	800,000	0,052	0,121
-500,897	800,000	-0,074	0,212
-499,883	781,510	0,067	0,136
-498,868	56,192	0,033	-0,023
-497,853	-109,346	-0,032	-0,005
-496,839	-200,000	-0,005	-0,030
-495,824	564,216	0,051	0,091
-494,810	800,000	0,025	0,057
-493,795	-134,727	0,084	0,007
-492,781	-200,000	-0,003	0,053
-491,766	30,501	-0,185	0,116
-490,751	7,539	-0,067	-0,037
-489,737	266,339	0,049	-0,063
-488,722	159,335	0,049	0,051
-487,708	384,525	-0,019	0,029
-486,693	-76,101	0,110	0,028
-485,678	16,841	-0,131	-0,076
-484,664	13,586	-0,026	0,015
-483,649	327,631	0,023	0,032
-482,635	-145,096	-0,022	0,001
-481,620	69,893	0,083	0,063
-480,605	-2,009	0,045	-0,023
-479,591	-30,860	0,022	-0,009
-478,576	186,664	-0,043	-0,047
-477,562	-151,258	0,041	0,002
-476,547	-200,000	-0,008	-0,065
-475,532	-200,000	0,004	-0,042
-474,518	255,573	-0,035	-0,044
-473,503	-200,000	0,027	0,172
-472,489	118,234	0,037	-0,033
-471,474	668,585	0,002	-0,005
-470,459	203,643	0,105	-0,120
-469,445	-200,000	-0,017	-0,069
-468,430	800,000	-0,014	0,032
-467,416	363,485	-0,054	-0,079
-466,401	-200,000	-0,012	0,091
-465,386	-2,998	-0,036	-0,018
-464,372	118,763	-0,042	0,038
-463,357	475,850	-0,047	0,078
-462,343	142,794	0,047	0,046
-461,328	-200,000	-0,004	0,047
-460,313	-50,154	-0,066	0,023
-459,299	62,640	-0,028	0,020
-458,284	125,582	-0,084	0,078
-457,270	152,933	0,090	-0,090
-456,255	800,000	0,047	-0,110
-455,241	493,766	-0,017	0,029
-454,226	-6,099	-0,135	-0,068
-453,211	-107,451	0,057	0,009
-452,197	131,501	-0,025	0,023
-451,182	-92,225	0,064	-0,013
-450,168	-200,000	-0,000	-0,048
-449,153	-19,623	0,105	-0,048
-448,138	-200,000	0,001	0,104
-447,124	-200,000	0,011	0,078
-446,109	800,000	0,050	-0,127
-445,095	-15,235	-0,026	-0,012
-444,080	-64,412	-0,014	-0,004
-443,065	-10,483	-0,075	0,036
-442,051	-200,000	-0,012	0,140
-441,036	150,687	-0,040	0,040
-440,022	-44,342	-0,135	-0,050
-439,007	800,000	-0,051	-0,107
-437,992	96,137	0,064	-0,054
-436,978	-200,000	-0,009	-0,051
-435,963	-200,000	0,014	-0,124
-434,949	29,268	-0,054	0,034
-433,934	800,000	-0,062	-0,174
-432,919	277,279	-0,054	-0,071
-431,905	-47,962	0,085	-0,030
-430,890	65,779	0,017	-0,013
-429,876	800,000	-0,037	-0,085
-428,861	-14,270	0,063	0,030
-427,846	800,000	0,026	-0,059
-426,832	-65,474	-0,124	-0,036
-425,817	342,395	-0,068	0,098
-424,803	-8,291	-0,109	-0,054
-423,788	800,000	-0,066	0,161
-422,773	32,980	0,058	0,037
-421,759	139,549	-0,045	-0,043
-420,744	-146,011	0,131	0,008
-419,730	120,054	-0,095	0,087
-418,715	153,009	0,054	0,054
-417,701	545,264	-0,028	0,049
-416,686	22,169	-0,095	-0,057
-415,671	26,605	0,006	0,004
-414,657	-99,346	-0,027	-0,005
-413,642	83,203	-0,025	-0,020
-412,628	-200,000	-0,006	-0,040
-411,613	800,000	0,039	-0,095
-410,598	396,411	0,001	0,002
-409,584	-27,982	0,092	-0,039
-408,569	-161,212	0,094	0,004
-407,555	243,560	-0,055	-0,068
-406,540	-76,067	-0,148	0,038
-405,525	-16,786	-0,057	0,027
-404,511	-34,602	0,019	0,008
-403,496	-24,033	0,021	0,009
-402,482	352,459	-0,030	-0,044
-401,467	-200,000	0,001	0,123
-400,452	290,699	0,106	0,142
-399,438	-200,000	0,029	-0,155
-398,423	-200,000	-0,003	0,119
-397,409	-200,000	0,020	0,103
-396,394	-200,000	-0,026	0,087
-395,379	50,773	0,072	0,050
-394,365	-200,000	-0,001	0,036
-393,350	523,341	0,025	0,044
-392,336	-163,341	0,033	0,001
-391,321	-115,439	0,119	0,016
-390,306	-90,033	0,042	-0,009
-389,292	697,504	-0,038	-0,074
-388,277	800,000	0,020	0,047
-387,263	-200,000	-0,007	0,040
-386,248	-51,682	-0,023	-0,008
-385,233	-200,000	0,017	0,090
-384,219	-66,631	0,087	0,025
-383,204	190,321	-0,131	-0,144
-382,190	-42,007	-0,087	-0,033
-381,175	-200,000	0,039	0,136
-380,160	-200,000	-0,015	0,093
-379,146	-156,003	0,169	0,008
-378,131	-153,717	0,067	0,003
-377,117	-200,000	-0,006	-0,061
-376,102	-76,026	0,109	-0,028
-375,088	247,541	0,024	-0,030
-374,073	219,537	-0,031	-0,036
-373,058	40,064	0,101	0,066
-372,044	-167,092	-0,157	0,005
-371,029	-140,716	0,105	-0,008
-370,015	267,448	-0,170	0,218
-369,000	692,298	-0,018	-0,034
-367,985	-32,354	-0,139	0,056
-366,971	-95,962	0,031	0,006
-365,956	-200,000	0,001	-0,044
-364,942	28,342	0,062	0,039
-363,927	118,831	0,036	-0,033
-362,912	-146,055	-0,159	0,010
-361,898	237,075	-0,119	0,144
-360,883	-3,867	0,151	-0,077
-359,869	332,074	-0,029	0,041
-358,854	-164,922	0,200	0,006
-357,839	800,000	0,027	-0,074
-356,825	800,000	-0,064	0,179
-355,810	-69,541	0,087	0,024
-354,796	-200,000	-0,013	0,059
-353,781	398,042	-0,020	0,031
-352,766	291,251	-0,044	0,059
-351,752	432,002	-0,041	-0,066
-350,737	-200,000	-0,001	0,078
-349,723	-200,000	0,023	0,106
-348,708	133,691	-0,055	0,052
-347,693	-200,000	-0,045	-0,166
-346,679	498,167	-0,106	-0,179
-345,664	513,522	-0,048	-0,082
-344,650	117,495	0,064	0,057
-343,635	169,495	0,075	0,079
-342,620	298,494	-0,103	0,139
-341,606	172,546	-0,049	0,052
-340,591	-31,678	-0,063	-0,026
-339,577	-57,562	-0,136	-0,043
-338,562	-65,397	0,031	0,009
-337,548	619,178	-0,041	-0,076
-336,533	60,849	-0,006	-0,005
-335,518	-200,000	-0,008	-0,084
-334,504	8,589	0,155	0,085
-333,489	64,366	0,061	-0,045
-332,475	183,495	-0,059	-0,064
-331,460	357,719	-0,068	-0,100
-330,445	-121,268	-0,083	0,010
-329,431	-26,768	0,072	-0,031
-328,416	-14,328	0,062	-0,029
-327,402	305,362	0,081	-0,111
-326,387	219,953	-0,045	0,053
-325,372	-200,000	-0,016	-0,145
-324,358	800,000	0,026	-0,076
-323,343	799,901	0,049	-0,100
-322,329	-30,449	0,094	0,039
-321,314	-200,000	0,005	0,134
-320,299	438,148	0,048	0,077
-319,285	403,823	-0,004	-0,006
-318,270	574,360	-0,058	-0,105
-317,256	154,207	0,056	-0,056
-316,241	451,258	-0,093	0,151
-315,226	722,556	0,029	0,056
-314,212	67,217	0,092	0,068
-313,197	-102,754	0,107	0,018
-312,183	-200,000	0,020	-0,099
-311,168	65,339	-0,029	-0,022
-310,153	343,538	0,021	0,030
-309,139	-43,314	0,170	0,063
-308,124	-200,000	-0,009	-0,049
-307,110	-89,895	0,166	-0,035
-306,095	-200,000	-0,015	-0,106
-305,080	-83,943	-0,127	0,029
-304,066	-192,831	-0,075	0,000
-303,051	-200,000	-0,096	0,000
-302,037	291,222	-0,025	0,033
-301,022	-39,024	-0,032	-0,012
-300,008	549,809	0,019	-0,034
-298,993	-200,000	-0,010	-0,075
-297,978	19,529	-0,010	0,006
-296,964	708,486	-0,030	-0,058
-295,949	642,166	-0,046	-0,086
-294,935	229,258	-0,078	-0,093
-293,920	800,000	0,043	-0,094
-292,905	-200,000	0,023	-0,145
-291,891	-174,033	0,095	0,002
-290,876	-200,000	0,000	0,090
-289,862	15,468	-0,117	0,067
-288,847	-165,709	-0,128	0,004
-287,832	800,000	0,042	-0,100
-286,818	-151,754	0,083	0,004
-285,803	-4,263	0,069	-0,035
-284,789	-200,000	-0,004	-0,033
-283,774	-200,000	-0,016	0,093
-282,759	96,034	-0,101	0,084
-281,745	800,000	0,033	-0,073
-280,730	-200,000	0,010	0,034
-279,716	-200,000	-0,010	-0,046
-278,701	-200,000	0,019	-0,166
-277,686	31,870	0,112	0,070
-276,672	11,613	-0,040	-0,022
-275,657	-200,000	0,012	-0,118
-274,643	800,000	-0,008	0,020
-273,628	-125,488	-0,064	-0,007
-272,613	-147,763	-0,188	0,011
-271,599	-122,950	-0,015	-0,002
-270,584	159,385	-0,031	0,032
-269,570	43,378	0,024	0,016
-268,555	74,531	-0,024	-0,018
-267,540	-132,835	-0,097	0,009
-266,526	-22,096	-0,004	-0,002
-265,511	319,922	0,080	-0,112
-264,497	-25,535	0,071	-0,031
-263,482	800,000	0,056	-0,126
-262,467	207,358	-0,080	-0,092
-261,453	800,000	-0,037	-0,092
-260,438	596,484	0,041	-0,074
-259,424	-200,000	-0,022	-0,108
-258,409	-19,543	-0,115	0,052
-257,395	108,619	0,069	0,060
-256,380	-151,162	0,215	-0,012
-255,365	746,406	-0,027	0,054
-254,351	103,819	-0,042	-0,036
-253,336	-200,000	-0,018	-0,091
-252,322	800,000	-0,026	0,074
-251,307	-200,000	0,024	0,125
-250,292	-76,863	0,061	0,016
-249,278	-98,968	0,105	0,019
-248,263	523,611	-0,064	0,109
-247,249	-127,979	-0,121	0,012
-246,234	-35,495	0,132	-0,052
-245,219	-200,000	0,002	-0,032
-244,205	26,079	0,105	-0,064
-243,190	-78,974	0,137	0,034
-242,176	-73,582	0,078	0,021
-241,161	800,000	-0,011	0,024
-240,146	-76,918	0,122	0,031
-239,132	-1,030	0,076	-0,039
-238,117	-111,734	-0,079	-0,012
-237,103	702,949	0,041	0,080
-236,088	6,134	0,075	0,040
-235,073	800,000	0,016	0,047
-234,059	138,777	-0,060	0,057
-233,044	-145,377	-0,086	0,006
-232,030	-22,049	0,092	-0,040
-231,015	195,854	0,041	-0,045
-230,000	7,385	-0,136	-0,074
-228,986	-29,527	0,125	0,052
-227,971	-28,819	-0,127	-0,053
-226,957	-97,897	-0,020	-0,004
-225,942	254,654	0,042	-0,053
-224,927	800,000	-0,045	-0,137
-223,913	-78,943	0,061	-0,015
-222,898	66,896	-0,189	-0,140
-221,884	162,356	0,050	0,051
-220,869	-186,987	0,204	0,002
-219,855	309,869	-0,068	-0,093
-218,840	759,576	-0,044	0,087
-217,825	-65,648	0,125	0,036
-216,811	800,000	-0,028	-0,073
-215,796	52,605	-0,115	0,080
-214,782	725,278	0,043	0,084
-213,767	97,830	0,133	0,111
-212,752	800,000	0,034	0,102
-211,738	800,000	-0,013	-0,036
-210,723	800,000	0,014	0,041
-209,709	-80,321	0,041	0,010
-208,694	135,980	0,067	-0,064
-207,679	14,503	0,025	-0,014
-206,665	-200,000	-0,008	0,146
-205,650	442,440	-0,048	0,077
-204,636	-200,000	-0,003	0,050
-203,621	-200,000	-0,018	0,071
-202,606	54,409	0,053	0,037
-201,592	-200,000	0,006	-0,109
-200,577	-200,000	-0,004	-0,059
-199,563	800,000	0,054	0,143
-198,548	-98,840	0,122	0,022
-197,533	-22,733	0,134	0,059
-196,519	216,880	0,080	0,093
-195,504	96,682	-0,086	0,071
-194,490	-200,000	-0,011	0,067
-193,475	-200,000	-0,025	-0,086
-192,460	-200,000	0,012	0,069
-191,446	800,000	-0,035	0,100
-190,431	-48,069	-0,017	0,006
-189,417	1,983	0,125	-0,065
-188,402	-200,000	0,013	0,131
-187,387	-139,943	-0,027	0,002
-186,373	-200,000	-0,020	0,078
-185,358	800,000	0,016	0,047
-184,344	48,451	0,035	0,024
-183,329	-98,815	0,042	0,008
-182,315	800,000	0,040	0,089
-181,300	113,317	-0,052	-0,046
-180,285	-49,203	0,060	0,021
-179,271	800,000	0,022	0,055
-178,256	-113,040	0,100	-0,014
-177,242	191,711	-0,009	0,009
-176,227	-200,000	0,002	0,063
-175,212	800,000	-0,032	-0,066
-174,198	-126,280	-0,105	0,011
-173,183	-200,000	-0,005	0,026
-172,169	449,633	-0,022	0,035
-171,154	133,741	0,094	-0,088
-170,139	98,501	0,112	-0,094
-169,125	153,604	0,086	0,086
-168,110	-200,000	-0,021	-0,068
-167,096	238,435	-0,030	-0,036
-166,081	-200,000	-0,002	0,135
-165,066	-99,345	-0,098	0,018
-164,052	63,746	-0,072	-0,053
-163,037	242,828	0,034	-0,042
-162,023	-52,812	-0,071	0,024
-161,008	47,094	-0,042	0,029
-159,993	-82,622	0,076	0,018
-158,979	800,000	0,025	-0,069
-157,964	120,650	-0,121	-0,110
-156,950	-200,000	0,006	0,092
-155,935	800,000	0,067	-0,151
-154,920	275,932	0,041	-0,053
-153,906	107,324	0,145	0,125
-152,891	370,252	0,035	-0,051
-151,877	-200,000	0,011	0,067
-150,862	76,690	0,077	-0,060
-149,847	800,000	-0,013	0,033
-148,833	-51,614	0,104	0,035
-147,818	-18,913	0,107	-0,048
-146,804	-200,000	0,003	-0,053
-145,789	194,333	-0,025	0,027
-144,775	800,000	-0,043	-0,104
-143,760	237,424	0,047	0,056
-142,745	780,499	-0,051	-0,101
-141,731	138,455	-0,088	0,084
-140,716	800,000	0,048	-0,119
-139,702	566,007	0,050	-0,089
-138,687	-200,000	-0,029	-0,136
-137,672	192,283	0,098	0,108
-136,658	-117,028	-0,107	-0,014
-135,643	1,433	0,010	0,005
-134,629	113,060	0,079	0,070
-133,614	-200,000	0,023	0,104
-132,599	221,830	0,094	-0,110
-131,585	-162,188	-0,020	-0,001
-130,570	-34,410	0,052	0,021
-129,556	-140,944	-0,045	-0,003
-128,541	-200,000	0,002	0,069
-127,526	5,276	-0,039	0,021
-126,512	-200,000	0,013	-0,086
-125,497	342,430	0,105	0,149
-124,483	-200,000	0,017	-0,061
-123,468	163,434	-0,093	-0,095
-122,453	-158,293	-0,089	-0,004
-121,439	517,181	-0,051	0,086
-120,424	-200,000	-0,033	-0,139
-119,410	-122,443	-0,012	-0,001
-118,395	46,934	0,044	0,030
-117,380	118,464	-0,054	0,049
-116,366	-84,494	-0,021	-0,005
-115,351	800,000	0,016	-0,046
-114,337	261,576	0,016	-0,020
-113,322	800,000	0,023	0,057
-112,307	-83,098	0,094	0,022
-111,293	-200,000	0,010	0,039
-110,278	-200,000	-0,004	-0,039
-109,264	-0,993	-0,097	0,050
-108,249	-103,668	0,077	0,013
-107,234	0,218	-0,085	0,044
-106,220	-86,005	0,021	0,005
-105,205	-61,025	0,158	0,048
-104,191	-200,000	0,019	0,066
-103,176	800,000	0,042	-0,096
-102,162	18,826	0,027	0,015
-101,147	800,000	0,012	0,028
-100,132	-17,610	-0,099	0,045
-99,118	110,051	0,035	-0,031
-98,103	44,661	-0,094	-0,062
-97,089	-45,778	0,152	0,054
-96,074	-37,620	0,159	0,061
-95,059	-200,000	0,002	0,026
-94,045	-108,449	-0,121	-0,019
-93,030	-200,000	-0,014	-0,059
-92,016	249,876	-0,031	0,038
-91,001	45,187	0,027	-0,018
-89,986	-200,000	0,055	0,188
-88,972	-46,369	0,035	-0,012
-87,957	21,353	-0,095	-0,056
-86,943	688,728	-0,028	-0,053
-85,928	30,739	0,076	-0,047
-84,913	-92,335	-0,040	-0,008
-83,899	109,068	0,045	-0,039
-82,884	-139,621	0,049	-0,004
-81,870	-116,579	0,147	-0,019
-80,855	-111,512	0,085	-0,012
-79,840	-136,348	0,070	0,006
-78,826	344,389	-0,083	-0,118
-77,811	45,673	-0,148	-0,099
-76,797	17,763	-0,011	0,006
-75,782	-200,000	0,023	0,105
-74,767	52,779	-0,125	-0,086
-73,753	128,127	-0,049	-0,045
-72,738	-156,911	0,036	-0,002
-71,724	800,000	0,041	-0,087
-70,709	30,236	-0,108	-0,067
-69,694	440,614	-0,052	-0,083
-68,680	37,980	-0,036	-0,023
-67,665	84,205	-0,032	0,025
-66,651	800,000	-0,047	-0,130
-65,636	126,514	0,095	-0,087
-64,622	346,133	-0,084	0,120
-63,607	-49,231	-0,155	-0,053
-62,592	171,783	0,111	-0,116
-61,578	-200,000	-0,018	0,129
-60,563	-133,303	0,167	0,015
-59,549	-44,051	0,063	0,023
-58,534	-63,138	-1,534	-0,455
-57,519	800,000	-0,584	-1,446
-56,505	-200,000	-1,111	-4,578
-55,490	-58,820	0,549	-0,171
-54,476	800,000	5,149	11,863
-53,461	-200,000	14,558	260,026
-52,446	-200,000	696,598	2235,187
-51,432	564,742	1622,486	2858,055
-50,417	117,581	1630,006	1451,959
-49,403	74,690	1284,050	977,041
-48,388	37,422	1022,249	654,757
-47,373	23,247	981,476	582,106
-46,359	22,331	971,058	572,905
-45,344	21,258	966,535	566,714
-44,330	21,224	965,222	565,812
-43,315	21,060	963,846	564,447
-42,300	21,060	962,803	563,816
-41,286	21,020	961,913	563,141
-40,271	21,021	960,486	562,288
-39,257	21,054	959,696	561,909
-38,242	21,026	958,859	561,306
-37,227	21,008	958,081	560,770
-36,213	20,977	956,978	560,001
-35,198	20,947	956,148	559,396
-34,184	20,985	955,647	559,205
-33,169	20,924	954,767	558,472
-32,154	21,046	953,763	558,255
-31,140	21,098	952,754	557,808
-30,125	21,056	952,288	557,380
-29,111	21,056	951,382	556,827
-28,096	21,023	950,784	556,347
-27,082	21,012	950,094	555,888
-26,067	21,087	948,957	555,440
-25,052	21,058	948,204	554,884
-24,038	21,032	947,765	554,524
-23,023	21,057	947,086	554,182
-22,009	21,102	946,462	553,940
-20,994	21,046	945,897	553,407
-19,979	21,090	945,246	553,147
-18,965	21,040	944,597	552,584
-17,950	21,037	944,226	552,335
-16,936	21,016	943,222	551,659
-15,921	20,975	942,612	551,152
-14,906	20,935	941,922	550,598
-13,892	20,916	941,436	550,232
-12,877	20,912	940,847	549,855
-11,863	20,884	940,029	549,265
-10,848	20,905	939,669	549,101
-9,833	21,011	939,239	549,163
-8,819	20,990	938,541	548,665
-7,804	20,933	937,972	548,131
-6,790	20,966	937,167	547,743
-5,775	20,964	936,795	547,499
-4,760	20,917	936,062	546,900
-3,746	20,956	935,494	546,667
-2,731	20,829	934,684	545,772
-1,717	20,763	933,920	545,099
-0,702	20,741	933,426	544,718
0,313	20,544	932,729	544,513
1,327	23,579	930,936	552,950
2,342	32,801	793,956	496,072
3,356	30,169	450,308	277,378
4,371	-0,035	294,019	150,957
5,386	-4,143	275,138	137,362
6,400	-5,489	269,403	133,238
7,415	-5,909	267,026	131,665
8,429	-5,851	265,904	131,152
9,444	-5,769	264,928	130,734
10,459	-5,689	264,333	130,502
11,473	-5,716	263,744	130,175
12,488	-5,487	263,112	130,059
13,502	-5,911	262,714	129,467
14,517	-6,030	262,363	129,175
15,531	-5,820	261,966	129,157
16,546	-5,673	261,529	129,063
17,561	-5,589	261,110	128,921
18,575	-5,584	260,804	128,762
19,590	-5,808	260,563	128,430
20,604	-5,798	260,295	128,295
21,619	-5,800	259,995	128,134
22,634	-5,657	259,497	128,006
23,648	-5,844	259,237	127,699
24,663	-5,702	258,936	127,666
25,677	-5,904	258,858	127,437
26,692	-5,867	258,521	127,292
27,707	-6,004	258,290	127,046
28,721	-5,893	257,977	126,979
29,736	-5,897	257,729	126,841
30,750	-6,042	257,532	126,604
31,765	-5,859	257,353	126,667
32,780	-5,902	257,119	126,502
33,794	-5,997	256,878	126,290
34,809	-5,727	256,484	126,322
35,823	-5,820	256,308	126,142
36,838	-6,183	256,076	125,697
37,853	-5,980	255,863	125,760
38,867	-5,914	255,643	125,699
39,882	-5,828	255,328	125,608
40,896	-5,822	255,203	125,540
41,911	-5,852	254,905	125,357
42,926	-6,134	254,716	125,006
43,940	-6,029	254,412	124,937
44,955	-5,942	254,271	124,933
45,969	-6,096	253,892	124,601
46,984	-6,209	253,730	124,412
47,999	-6,341	253,431	124,140
49,013	-6,537	253,089	123,790
50,028	-6,812	253,124	123,557
51,042	-6,758	252,649	123,361
52,057	-6,787	252,590	123,297
53,071	-6,578	252,238	123,295
54,086	-6,673	252,241	123,203
55,101	-6,646	251,968	123,082
56,115	-6,290	251,992	123,391
57,130	-5,920	251,724	123,568
58,144	-5,639	251,537	123,708
59,159	-5,871	251,457	123,457
60,174	-5,799	251,204	123,384
61,188	-5,812	250,958	123,241
62,203	-5,839	250,779	123,119
63,217	-5,818	250,452	122,966
64,232	-5,822	250,255	122,854
65,247	-5,782	250,101	122,802
66,261	-5,850	249,908	122,638
67,276	-5,978	249,581	122,357
68,290	-6,225	249,324	122,009
69,305	-6,280	249,245	121,913
70,320	-6,284	248,970	121,764
71,334	-6,187	248,920	121,811
72,349	-5,890	248,706	121,949
73,363	-5,588	248,568	122,127
74,378	-5,815	248,389	121,836
75,393	-5,984	248,182	121,579
76,407	-5,995	247,825	121,385
77,422	-6,014	247,721	121,307
78,436	-5,873	247,464	121,289
79,451	-6,001	247,267	121,074
80,466	-6,104	247,120	120,904
81,480	-6,115	246,691	120,674
82,495	-6,039	246,594	120,679
83,509	-6,047	246,404	120,569
84,524	-6,267	246,281	120,313
85,539	-6,158	246,143	120,326
86,553	-6,407	245,747	119,912
87,568	-6,000	245,530	120,138
88,582	-6,063	245,352	119,987
89,597	-6,234	245,308	119,811
90,611	-6,003	245,236	119,960
91,626	-5,671	244,971	120,098
92,641	-6,036	244,806	119,701
93,655	-6,022	244,650	119,625
94,670	-5,973	244,245	119,457
95,684	-6,056	244,066	119,290
96,699	-5,973	244,017	119,324
97,714	-6,229	243,823	119,005
98,728	-6,229	243,594	118,883
99,743	-6,176	243,320	118,783
100,757	-6,105	243,159	118,752
101,772	-6,109	242,828	118,577
102,787	-6,236	242,949	118,520
103,801	-6,009	242,653	118,554
104,816	-6,026	242,562	118,485
105,830	-5,935	242,435	118,487
106,845	-5,817	242,204	118,461
107,860	-5,845	242,068	118,362
108,874	-5,973	241,892	118,159
109,889	-5,935	241,573	118,024
110,903	-5,998	241,516	117,933
111,918	-6,096	241,266	117,720
112,933	-5,897	241,142	117,813
113,947	-6,085	240,926	117,542
114,962	-5,979	240,974	117,643
115,976	-5,788	240,637	117,624
116,991	-5,856	240,476	117,479
118,006	-6,072	240,313	117,212
119,020	-6,064	240,116	117,112
120,035	-5,916	239,868	117,101
121,049	-5,939	239,977	117,125
122,064	-5,838	239,578	117,003
123,079	-5,835	239,507	116,960
124,093	-5,915	239,071	116,672
125,108	-6,104	238,850	116,399
126,122	-6,337	238,668	116,111
127,137	-6,481	238,611	115,955
128,151	-6,347	238,303	115,904
129,166	-6,235	238,365	116,015
130,181	-6,324	238,030	115,769
131,195	-6,195	237,830	115,767
132,210	-6,111	237,754	115,787
133,224	-6,162	237,705	115,711
134,239	-6,013	237,459	115,702
135,254	-5,889	237,297	115,714
136,268	-6,002	237,137	115,534
137,283	-6,260	236,766	115,134
138,297	-6,269	236,610	115,042
139,312	-6,577	236,510	114,734
140,327	-6,013	236,217	115,035
141,341	-5,845	236,476	115,287
142,356	-5,596	236,149	115,317
143,370	-5,860	236,021	115,032
144,385	-5,705	235,808	115,043
145,400	-5,749	235,779	114,983
146,414	-5,434	235,421	115,050
147,429	-5,745	235,217	114,692
148,443	-5,694	235,118	114,674
149,458	-5,684	235,077	114,652
150,473	-5,684	234,933	114,571
151,487	-5,671	234,621	114,420
152,502	-5,445	234,338	114,451
153,516	-5,444	234,299	114,423
154,531	-5,624	234,106	114,175
155,546	-5,720	233,848	113,963
156,560	-5,762	233,731	113,862
157,575	-5,757	233,524	113,755
158,589	-5,891	233,395	113,575
159,604	-5,686	233,398	113,730
160,619	-5,486	233,158	113,761
161,633	-5,550	233,034	113,640
162,648	-5,485	232,832	113,583
163,662	-5,402	232,627	113,538
164,677	-5,770	232,496	113,173
165,692	-5,718	232,388	113,151
166,706	-5,620	232,189	113,122
167,721	-5,588	232,170	113,127
168,735	-5,368	231,947	113,182
169,750	-5,518	231,809	112,987
170,764	-5,725	231,675	112,749
171,779	-5,454	231,575	112,903
172,794	-5,488	231,241	112,703
173,808	-5,773	231,061	112,382
174,823	-6,159	230,793	111,939
175,837	-6,154	230,702	111,889
176,852	-5,953	230,597	111,985
177,867	-5,623	230,518	112,195
178,881	-5,636	230,329	112,083
179,896	-5,633	230,272	112,048
180,910	-5,463	230,070	112,073
181,925	-5,401	229,870	112,013
182,940	-5,481	229,778	111,896
183,954	-5,489	229,647	111,816
184,969	-5,361	229,559	111,863
185,983	-5,349	229,448	111,808
186,998	-5,382	229,114	111,610
188,013	-5,395	228,970	111,520
189,027	-5,417	228,934	111,475
190,042	-5,549	228,670	111,234
191,056	-5,417	228,585	111,285
192,071	-5,239	228,308	111,278
193,086	-5,527	228,169	110,978
194,100	-5,624	228,112	110,865
195,115	-5,711	227,829	110,651
196,129	-6,265	227,428	110,019
197,144	-3,587	228,390	112,547
198,159	0,863	229,754	116,665
199,173	3,574	230,217	118,994
200,188	4,201	230,306	119,516
201,202	4,014	230,164	119,287
202,217	3,999	229,918	119,137
203,232	4,252	229,996	119,363
204,246	4,232	229,758	119,214
205,261	4,530	229,716	119,412
206,275	4,453	229,464	119,210
207,290	4,417	229,487	119,184
208,304	4,437	229,298	119,090
209,319	4,619	229,013	119,071
210,334	4,308	228,955	118,792
211,348	4,148	228,773	118,563
212,363	3,641	228,428	117,984
213,377	3,647	228,325	117,925
214,392	3,535	228,116	117,721
215,407	3,675	227,850	117,680
216,421	3,699	227,920	117,724
217,436	3,777	227,565	117,590
218,450	3,566	227,286	117,274
219,465	3,269	227,175	116,979
220,480	3,473	227,145	117,109
221,494	3,612	226,784	117,019
222,509	3,655	226,985	117,145
223,523	3,549	226,670	116,892
224,538	3,399	226,475	116,666
225,553	3,505	226,398	116,696
226,567	3,787	226,202	116,800
227,582	3,970	226,142	116,897
228,596	3,948	226,181	116,891
229,611	3,639	225,875	116,487
230,626	3,392	225,647	116,173
231,640	3,569	225,514	116,227
232,655	3,814	225,546	116,419
233,669	4,204	225,383	116,620
234,684	4,350	225,240	116,646
235,699	3,943	224,966	116,186
236,713	3,843	224,816	116,023
237,728	3,594	224,712	115,771
238,742	3,624	224,402	115,624
239,757	3,682	224,308	115,608
240,772	3,662	224,134	115,493
241,786	3,657	223,964	115,391
242,801	3,846	223,816	115,447
243,815	4,000	223,929	115,611
244,830	3,913	223,677	115,405
245,844	3,790	223,410	115,164
246,859	3,746	223,377	115,105
247,874	3,801	223,201	115,044
248,888	3,745	223,168	114,975
249,903	3,776	222,998	114,901
250,917	3,561	222,886	114,672
251,932	3,496	222,682	114,509
252,947	3,555	222,334	114,364
253,961	3,709	222,214	114,406
254,976	3,404	222,147	114,134
255,990	3,667	222,086	114,289
257,005	3,731	221,984	114,273
258,020	3,794	221,792	114,211
259,034	3,983	221,703	114,296
260,049	4,124	221,662	114,369
261,063	3,725	221,380	113,918
262,078	3,994	221,195	114,011
263,093	4,019	221,203	114,024
264,107	3,942	221,035	113,870
265,122	3,807	220,913	113,697
266,136	4,234	220,691	113,888
267,151	4,112	220,603	113,743
268,166	3,634	220,338	113,244
269,180	3,302	220,158	112,896
270,195	3,523	220,027	112,981
271,209	3,381	219,744	112,721
272,224	3,533	219,737	112,820
273,239	3,783	219,553	112,899
274,253	3,631	219,430	112,714
275,268	3,649	219,271	112,636
276,282	3,624	218,959	112,447
277,297	3,158	218,977	112,104
278,312	3,295	218,875	112,142
279,326	3,785	218,663	112,383
280,341	3,760	218,520	112,281
281,355	3,761	218,489	112,256
282,370	3,715	218,225	112,077
283,384	3,242	218,163	111,690
284,399	3,301	217,887	111,581
285,414	3,432	217,792	111,618
286,428	3,469	217,626	111,550
287,443	3,998	217,663	111,944
288,457	3,834	217,461	111,710
289,472	3,745	217,297	111,552
290,487	3,132	217,010	110,950
291,501	3,060	216,894	110,829
292,516	3,304	216,919	111,009
293,530	3,350	216,756	110,948
294,545	3,430	216,695	110,965
295,560	3,427	216,477	110,842
296,574	3,757	216,233	110,945
297,589	3,639	216,126	110,795
298,603	3,668	216,054	110,769
299,618	3,658	216,002	110,726
300,633	3,685	215,735	110,598
301,647	3,967	215,650	110,748
302,662	3,851	215,663	110,661
303,676	3,659	215,490	110,424
304,691	3,872	215,343	110,492
305,706	4,039	215,286	110,574
306,720	4,038	215,080	110,456
307,735	3,812	214,827	110,155
308,749	3,619	214,663	109,923
309,764	3,602	214,570	109,853
310,779	3,876	214,560	110,034
311,793	3,627	214,364	109,746
312,808	3,833	214,270	109,835
313,822	3,773	214,012	109,650
314,837	3,671	213,866	109,493
315,852	3,508	213,731	109,298
316,866	3,633	213,572	109,296
317,881	3,723	213,557	109,343
318,895	3,689	213,424	109,240
319,910	3,585	213,213	109,049
320,925	3,425	212,949	108,791
321,939	3,115	212,847	108,509
322,954	3,371	212,775	108,644
323,968	3,744	212,781	108,902
324,983	3,712	212,602	108,778
325,997	3,716	212,569	108,754
327,012	3,745	212,284	108,620
328,027	3,544	212,094	108,370
329,041	4,053	212,155	108,752
330,056	4,171	212,026	108,759
331,070	3,653	211,818	108,277
332,085	3,435	211,513	107,958
333,100	3,754	211,365	108,097
334,114	3,931	211,240	108,148
335,129	3,742	211,153	107,961
336,143	3,718	211,053	107,883
337,158	3,624	210,908	107,734
338,173	3,719	210,791	107,731
339,187	3,586	210,599	107,530
340,202	3,422	210,463	107,336
341,216	3,288	210,232	107,115
342,231	3,518	210,266	107,284
343,246	3,464	209,943	107,072
344,260	3,399	210,033	107,063
345,275	3,656	209,863	107,146
346,289	3,881	209,649	107,185
347,304	3,714	209,602	107,034
348,319	3,485	209,513	106,819
349,333	3,525	209,352	106,756
350,348	3,629	209,185	106,733
351,362	4,087	209,030	106,963
352,377	3,748	208,896	106,650
353,392	3,415	208,788	106,354
354,406	3,950	208,540	106,589
355,421	194,934	1343,719	1432,223
356,435	155,587	1482,112	1432,313
