DTS Sentinel unit serial number:	SN410029Multiplexer serial number:	ORYXHardware model number:	OX2-SRSoftware version number:	ORYX F/W v4,00 Oryx Data Collector v3.7.2.0data status	okinstallation	B6 Nyhavnadifferential loss correction	single-endedforward channel	channel 2reverse channel	N/Adate	2023/12/11time	06:20:08forward acquisition time	300,00reverse acquisition time	0,00gamma	499,1914k internal	0,3126k external	0,3126temperature offset calibration	1,0000default loss term (dB/km)	0,3820temperature slope calibration	1,0000multiplexer offset coefficient	1,0000multiplexer slope coefficient	1,0000fibre end	0,00T internal ref (°C)	19,61T ext. ref 1 (°C)	2,71T ext. ref 2 (°C)	2,73length (m)	temperature (°C)	Stokes	anti-Stokes-744,400	-75,310	0,053	-0,014
-743,385	-45,749	-0,267	0,098
-742,371	-131,965	0,179	0,017
-741,356	168,241	-0,192	0,203
-740,342	-100,449	0,205	-0,037
-739,327	-1,253	-0,289	0,151
-738,312	-91,557	0,131	0,028
-737,298	-183,699	-0,325	0,004
-736,283	-200,000	0,009	-0,038
-735,269	229,488	-0,081	0,098
-734,254	-200,000	0,033	0,167
-733,239	1,441	-0,455	-0,243
-732,225	1,400	0,131	0,070
-731,210	800,000	-0,028	0,088
-730,196	20,673	-0,060	-0,036
-729,181	800,000	0,048	-0,154
-728,167	-200,000	0,010	-0,039
-727,152	62,412	-0,054	-0,040
-726,137	-39,656	-0,183	-0,071
-725,123	-200,000	-0,018	0,140
-724,108	-157,557	-0,100	0,004
-723,094	-200,000	-0,027	-0,137
-722,079	800,000	0,079	-0,200
-721,064	330,601	0,031	-0,045
-720,050	-200,000	-0,003	0,084
-719,035	-15,028	0,070	0,033
-718,021	-137,816	-0,147	0,012
-717,006	44,011	-0,064	-0,044
-715,991	-66,352	-0,063	-0,018
-714,977	5,904	0,030	-0,017
-713,962	800,000	-0,066	0,148
-712,948	-16,206	0,120	0,057
-711,933	148,023	-0,030	0,030
-710,918	-13,758	0,176	-0,084
-709,904	-200,000	-0,027	-0,093
-708,889	19,213	-0,036	-0,021
-707,875	-200,000	-0,074	-0,000
-706,860	178,016	0,071	0,077
-705,845	-200,000	-0,018	0,109
-704,831	800,000	0,037	0,096
-703,816	477,351	-0,015	-0,025
-702,802	-200,000	-0,033	0,119
-701,787	-125,463	-0,195	0,022
-700,772	-200,000	-0,002	0,051
-699,758	800,000	0,042	-0,116
-698,743	-20,613	0,041	0,019
-697,729	-200,000	0,014	0,093
-696,714	112,065	0,079	0,071
-695,699	-5,887	-0,094	-0,047
-694,685	-26,060	-0,181	-0,079
-693,670	-6,582	-0,168	0,085
-692,656	-71,296	-0,078	-0,021
-691,641	-200,000	-0,014	0,098
-690,627	8,665	-0,033	-0,018
-689,612	-68,837	-0,024	-0,007
-688,597	-200,000	-0,024	-0,079
-687,583	-200,000	-0,006	0,034
-686,568	-200,000	0,005	-0,123
-685,554	-11,916	-0,082	0,040
-684,539	800,000	-0,029	-0,064
-683,524	151,998	-0,044	-0,045
-682,510	-200,000	0,006	0,076
-681,495	-200,000	0,004	-0,141
-680,481	404,078	-0,034	-0,054
-679,466	344,446	0,029	-0,042
-678,451	-166,268	-0,149	0,005
-677,437	35,690	0,053	0,035
-676,422	257,786	0,083	-0,107
-675,408	-69,727	0,126	-0,036
-674,393	663,151	-0,063	-0,121
-673,378	-200,000	-0,011	-0,039
-672,364	379,712	-0,054	-0,082
-671,349	-69,327	0,107	-0,030
-670,335	280,671	0,049	0,065
-669,320	33,194	-0,120	0,077
-668,305	376,627	0,020	-0,030
-667,291	395,693	-0,034	-0,052
-666,276	139,980	0,048	-0,047
-665,262	-145,760	-0,219	-0,014
-664,247	282,083	-0,050	0,067
-663,232	-160,788	-0,047	0,002
-662,218	-200,000	0,010	-0,056
-661,203	-79,987	-0,068	0,017
-660,189	-200,000	-0,001	0,019
-659,174	800,000	-0,013	0,032
-658,159	-76,692	-0,134	-0,035
-657,145	-97,630	-0,107	-0,020
-656,130	503,318	-0,066	-0,114
-655,116	75,754	0,070	0,055
-654,101	172,260	-0,059	0,063
-653,086	77,947	0,160	0,126
-652,072	-154,623	-0,079	-0,004
-651,057	800,000	0,076	-0,183
-650,043	800,000	-0,013	0,034
-649,028	236,594	-0,092	-0,113
-648,014	-200,000	0,002	-0,141
-646,999	-200,000	0,013	0,181
-645,984	-60,987	0,066	0,021
-644,970	26,963	-0,024	-0,015
-643,955	15,045	0,039	0,023
-642,941	800,000	0,029	0,068
-641,926	376,095	0,058	-0,089
-640,911	26,884	0,036	-0,022
-639,897	-14,089	0,059	0,028
-638,882	204,244	-0,068	-0,078
-637,868	-93,856	0,024	0,005
-636,853	800,000	-0,062	-0,173
-635,838	800,000	0,021	-0,063
-634,824	-200,000	0,007	0,040
-633,809	800,000	0,052	-0,125
-632,795	800,000	0,078	-0,177
-631,780	800,000	-0,050	0,123
-630,765	-149,325	-0,115	0,007
-629,751	-94,171	-0,044	0,009
-628,736	115,403	-0,136	-0,123
-627,722	-200,000	-0,008	0,094
-626,707	-200,000	-0,009	-0,114
-625,692	-56,081	0,063	-0,021
-624,678	-200,000	-0,022	0,113
-623,663	138,134	-0,134	-0,130
-622,649	-200,000	-0,006	-0,068
-621,634	85,720	-0,041	-0,034
-620,619	119,818	0,066	-0,061
-619,605	-200,000	0,016	-0,087
-618,590	-87,337	0,002	-0,000
-617,576	-74,409	0,264	-0,070
-616,561	-58,602	0,035	-0,011
-615,546	370,237	0,014	-0,020
-614,532	-79,464	-0,054	0,013
-613,517	-69,743	-0,189	-0,053
-612,503	-82,309	0,033	-0,008
-611,488	-46,487	0,127	0,046
-610,474	340,248	-0,042	0,061
-609,459	262,357	0,079	-0,102
-608,444	-200,000	-0,034	-0,120
-607,430	337,901	0,005	0,007
-606,415	293,142	-0,151	-0,204
-605,401	-96,035	0,020	0,004
-604,386	19,153	0,101	0,060
-603,371	-20,350	0,100	0,045
-602,357	79,076	0,128	0,101
-601,342	-166,575	-0,045	-0,001
-600,328	137,373	-0,071	-0,069
-599,313	225,425	-0,105	-0,126
-598,298	-72,755	-0,017	0,005
-597,284	800,000	-0,021	0,066
-596,269	-200,000	0,024	0,089
-595,255	-200,000	0,007	-0,080
-594,240	216,330	-0,093	-0,110
-593,225	-200,000	0,003	0,028
-592,211	-200,000	-0,022	0,096
-591,196	130,309	-0,020	-0,019
-590,182	-200,000	-0,013	-0,068
-589,167	-200,000	-0,009	-0,049
-588,152	62,658	-0,031	-0,023
-587,138	-90,300	0,031	0,007
-586,123	-200,000	-0,023	-0,114
-585,109	-200,000	-0,022	-0,141
-584,094	800,000	-0,029	0,071
-583,079	-200,000	0,017	0,070
-582,065	-20,153	-0,081	-0,037
-581,050	301,463	-0,047	-0,065
-580,036	-71,880	0,053	0,015
-579,021	-200,000	0,031	-0,107
-578,006	5,537	-0,059	-0,032
-576,992	160,643	0,036	0,038
-575,977	800,000	-0,044	-0,104
-574,963	123,664	0,012	0,011
-573,948	615,269	0,015	0,028
-572,934	-200,000	0,021	0,072
-571,919	160,403	0,112	-0,116
-570,904	-200,000	0,031	-0,147
-569,890	-69,890	0,072	0,020
-568,875	-200,000	-0,049	0,230
-567,861	-42,843	0,139	0,052
-566,846	-200,000	0,013	0,168
-565,831	351,174	0,068	-0,100
-564,817	728,745	0,064	0,128
-563,802	292,870	-0,052	0,071
-562,788	151,060	-0,094	-0,095
-561,773	374,742	0,056	0,084
-560,758	16,177	0,074	-0,043
-559,744	144,343	-0,046	-0,045
-558,729	422,417	0,053	-0,085
-557,715	-200,000	0,000	0,009
-556,700	800,000	0,010	0,030
-555,685	84,123	-0,088	0,071
-554,671	-79,044	0,008	-0,002
-553,656	-200,000	0,018	-0,084
-552,642	-53,028	-0,149	0,050
-551,627	-42,936	-0,078	-0,029
-550,612	-15,165	0,044	-0,021
-549,598	-200,000	-0,045	-0,192
-548,583	-200,000	-0,005	-0,022
-547,569	-130,590	0,063	0,006
-546,554	107,290	-0,040	0,035
-545,539	-57,187	-0,056	0,018
-544,525	800,000	-0,017	-0,041
-543,510	800,000	0,028	0,064
-542,496	3,492	0,147	0,079
-541,481	800,000	-0,031	-0,071
-540,466	195,017	-0,047	-0,053
-539,452	94,809	-0,084	0,070
-538,437	364,504	0,085	0,127
-537,423	-46,427	0,095	0,034
-536,408	-1,805	-0,111	-0,058
-535,393	800,000	-0,023	-0,061
-534,379	-74,151	0,026	-0,007
-533,364	-200,000	0,010	0,049
-532,350	-111,958	-0,088	-0,013
-531,335	-17,378	0,154	0,071
-530,321	-146,177	-0,041	0,003
-529,306	-2,207	-0,147	-0,076
-528,291	-1,269	-0,110	0,057
-527,277	224,592	0,130	-0,156
-526,262	-29,436	-0,046	-0,019
-525,248	-200,000	0,033	-0,113
-524,233	387,707	-0,038	0,059
-523,218	-200,000	0,011	0,108
-522,204	-76,571	0,089	-0,023
-521,189	-200,000	0,008	0,066
-520,175	800,000	-0,045	-0,115
-519,160	82,183	0,012	0,009
-518,145	800,000	-0,033	0,075
-517,131	-200,000	-0,022	0,203
-516,116	-172,039	0,121	0,003
-515,102	-6,081	0,201	0,101
-514,087	800,000	-0,024	-0,068
-513,072	800,000	-0,017	0,038
-512,058	800,000	0,032	-0,080
-511,043	-109,186	-0,112	0,017
-510,029	374,873	-0,104	0,157
-509,014	127,994	-0,052	-0,048
-507,999	800,000	0,007	-0,021
-506,985	40,769	-0,077	-0,051
-505,970	251,740	-0,032	0,040
-504,956	800,000	0,041	-0,097
-503,941	200,632	0,030	-0,034
-502,926	800,000	0,037	0,078
-501,912	120,442	0,113	-0,103
-500,897	-200,000	0,012	0,056
-499,883	82,336	0,025	0,020
-498,868	-200,000	-0,023	-0,130
-497,853	-200,000	0,037	-0,123
-496,839	5,231	-0,082	0,044
-495,824	-200,000	-0,030	-0,187
-494,810	118,062	0,085	0,077
-493,795	-200,000	0,035	0,142
-492,781	93,298	0,167	0,140
-491,766	-200,000	-0,006	-0,031
-490,751	204,510	-0,055	-0,063
-489,737	800,000	0,039	-0,117
-488,722	-97,760	0,079	0,015
-487,708	416,300	-0,048	0,076
-486,693	92,471	0,053	0,044
-485,678	-200,000	0,029	0,139
-484,664	356,489	-0,083	-0,122
-483,649	185,245	-0,097	-0,106
-482,635	644,567	0,024	-0,045
-481,620	-200,000	-0,007	0,085
-480,605	7,368	0,039	-0,021
-479,591	-200,000	0,013	0,059
-478,576	76,810	-0,120	-0,094
-477,562	226,311	-0,082	0,098
-476,547	390,762	-0,061	-0,094
-475,532	-30,735	0,035	-0,015
-474,518	258,070	0,033	0,042
-473,503	33,032	0,054	0,034
-472,489	-200,000	-0,005	0,052
-471,474	43,372	-0,088	-0,059
-470,459	-200,000	0,029	0,139
-469,445	-135,271	-0,111	-0,010
-468,430	177,229	-0,017	-0,018
-467,416	185,877	-0,060	-0,066
-466,401	291,590	-0,067	0,090
-465,386	110,909	0,101	-0,090
-464,372	-3,809	-0,084	-0,043
-463,357	-163,039	-0,171	0,006
-462,343	-97,702	0,062	-0,012
-461,328	574,969	-0,038	-0,069
-460,313	-200,000	-0,005	-0,155
-459,299	-51,197	0,037	0,013
-458,284	-200,000	-0,015	-0,082
-457,270	266,651	-0,086	-0,111
-456,255	-65,848	-0,015	0,004
-455,241	189,553	-0,050	-0,055
-454,226	800,000	0,013	-0,042
-453,211	-200,000	-0,012	0,131
-452,197	77,585	0,066	0,051
-451,182	-130,519	0,154	-0,015
-450,168	161,484	-0,056	0,058
-449,153	-61,132	-0,090	0,028
-448,138	6,268	-0,067	-0,036
-447,124	-200,000	-0,019	0,102
-446,109	800,000	0,008	-0,018
-445,095	-156,628	-0,213	0,010
-444,080	204,748	-0,080	0,091
-443,065	-200,000	-0,040	0,173
-442,051	4,579	0,070	-0,038
-441,036	-27,385	-0,086	0,037
-440,022	55,401	0,123	-0,088
-439,007	405,198	0,051	0,080
-437,992	-0,586	0,108	0,056
-436,978	222,476	-0,154	0,183
-435,963	645,673	0,021	-0,040
-434,949	-200,000	0,018	0,139
-433,934	-200,000	-0,023	-0,127
-432,919	-20,209	-0,046	0,021
-431,905	27,726	-0,031	-0,019
-430,890	-200,000	0,000	0,141
-429,876	-167,220	-0,064	-0,002
-428,861	-200,000	-0,013	0,076
-427,846	-200,000	-0,035	-0,155
-426,832	800,000	0,038	0,086
-425,817	-172,344	-0,036	0,001
-424,803	-200,000	0,016	-0,077
-423,788	115,630	0,044	-0,040
-422,773	800,000	0,058	0,175
-421,759	-200,000	0,011	0,080
-420,744	103,546	0,131	0,113
-419,730	800,000	0,026	-0,063
-418,715	800,000	0,016	-0,043
-417,701	-42,086	0,170	0,064
-416,686	137,956	0,046	-0,044
-415,671	326,249	0,096	-0,136
-414,657	54,659	0,087	-0,062
-413,642	-7,299	0,151	0,075
-412,628	169,980	-0,084	-0,089
-411,613	210,799	-0,101	-0,117
-410,598	161,602	0,061	-0,063
-409,584	800,000	0,045	-0,096
-408,569	-74,517	0,090	0,024
-407,555	786,094	0,057	-0,116
-406,540	-200,000	0,011	0,046
-405,525	-0,695	-0,042	-0,022
-404,511	276,479	-0,068	-0,089
-403,496	800,000	-0,045	0,116
-402,482	-115,437	0,093	0,013
-401,467	800,000	0,022	0,053
-400,452	113,822	-0,084	-0,075
-399,438	154,959	-0,011	0,011
-398,423	139,322	0,050	-0,048
-397,409	233,119	-0,072	-0,087
-396,394	538,472	-0,058	-0,101
-395,379	800,000	-0,050	-0,105
-394,365	605,740	0,033	-0,062
-393,350	-108,520	0,063	0,010
-392,336	606,165	0,037	0,068
-391,321	464,148	-0,027	0,044
-390,306	-78,198	-0,087	-0,022
-389,292	800,000	0,031	-0,065
-388,277	800,000	-0,014	-0,035
-387,263	-200,000	0,006	-0,041
-386,248	-200,000	-0,010	0,050
-385,233	-200,000	-0,009	0,145
-384,219	800,000	-0,081	0,191
-383,204	408,886	-0,093	0,145
-382,190	42,351	0,089	0,059
-381,175	-82,970	0,105	-0,025
-380,160	800,000	-0,066	-0,174
-379,146	-79,320	-0,061	-0,015
-378,131	232,482	-0,023	-0,028
-377,117	-111,172	0,090	-0,013
-376,102	-200,000	0,033	-0,131
-375,088	92,914	-0,028	0,023
-374,073	-29,099	0,044	0,018
-373,058	-32,291	-0,088	0,036
-372,044	-200,000	-0,011	-0,151
-371,029	-200,000	-0,005	0,044
-370,015	-200,000	-0,016	-0,066
-369,000	372,574	0,046	0,070
-367,985	-200,000	0,021	-0,127
-366,971	-200,000	-0,010	-0,077
-365,956	422,269	-0,028	-0,045
-364,942	62,478	0,071	-0,052
-363,927	-200,000	-0,026	0,136
-362,912	-158,048	0,021	-0,001
-361,898	-101,280	-0,064	-0,011
-360,883	528,133	0,049	-0,086
-359,869	-200,000	-0,029	-0,099
-358,854	800,000	-0,023	0,063
-357,839	-127,320	-0,050	-0,005
-356,825	-200,000	-0,007	-0,037
-355,810	800,000	0,038	-0,106
-354,796	23,605	-0,073	0,044
-353,781	800,000	-0,024	-0,068
-352,766	800,000	-0,026	-0,079
-351,752	481,568	-0,070	0,117
-350,737	-96,011	0,078	0,015
-349,723	-88,154	0,086	-0,019
-348,708	-40,967	0,065	0,025
-347,693	25,077	0,075	-0,045
-346,679	-147,870	-0,073	0,004
-345,664	-52,658	-0,104	-0,035
-344,650	-200,000	-0,020	-0,066
-343,635	-68,763	0,177	0,050
-342,620	310,351	-0,072	0,100
-341,606	1,382	-0,087	0,045
-340,591	-200,000	-0,028	-0,096
-339,577	111,518	-0,099	-0,088
-338,562	800,000	0,021	0,048
-337,548	-136,269	0,107	-0,009
-336,533	10,681	0,059	0,033
-335,518	-132,898	0,061	0,006
-334,504	609,195	-0,067	0,123
-333,489	-200,000	0,013	0,188
-332,475	-37,082	0,073	-0,028
-331,460	-200,000	-0,006	-0,065
-330,445	147,667	-0,083	-0,082
-329,431	-200,000	0,002	-0,059
-328,416	-34,239	0,052	-0,021
-327,402	233,095	0,047	0,057
-326,387	13,693	0,035	0,020
-325,372	680,535	-0,103	-0,197
-324,358	240,927	-0,036	-0,045
-323,343	571,897	-0,046	-0,082
-322,329	800,000	0,014	-0,038
-321,314	-79,279	0,211	0,052
-320,299	364,231	-0,115	0,170
-319,285	-200,000	0,010	0,089
-318,270	-200,000	0,004	-0,099
-317,256	288,943	0,022	-0,029
-316,241	800,000	-0,020	-0,047
-315,226	-37,669	-0,103	0,040
-314,212	800,000	0,021	0,058
-313,197	-34,507	0,038	-0,015
-312,183	800,000	0,051	-0,149
-311,168	-60,600	0,127	-0,039
-310,153	278,874	0,031	-0,041
-309,139	137,946	-0,079	-0,076
-308,124	-200,000	-0,020	0,115
-307,110	-200,000	0,041	0,186
-306,095	-200,000	0,010	0,046
-305,080	800,000	-0,015	-0,030
-304,066	-121,461	-0,104	-0,012
-303,051	114,439	0,068	-0,061
-302,037	221,504	-0,058	0,069
-301,022	-130,694	0,153	0,015
-300,008	-200,000	0,008	-0,059
-298,993	24,433	-0,083	-0,050
-297,978	-200,000	-0,027	-0,098
-296,964	594,899	-0,049	-0,090
-295,949	47,335	0,130	0,089
-294,935	-114,539	-0,099	0,014
-293,920	-200,000	0,002	0,018
-292,905	-200,000	0,003	-0,037
-291,891	-200,000	0,011	0,069
-290,876	79,080	-0,125	-0,098
-289,862	800,000	0,029	-0,080
-288,847	800,000	-0,024	-0,070
-287,832	47,931	0,044	-0,030
-286,818	-40,848	0,063	-0,024
-285,803	-163,946	0,098	-0,003
-284,789	0,329	-0,072	-0,038
-283,774	-200,000	-0,034	0,164
-282,759	-39,232	-0,128	0,049
-281,745	-200,000	0,011	-0,065
-280,730	-163,052	0,197	0,007
-279,716	-116,034	-0,071	0,010
-278,701	136,310	0,110	0,105
-277,686	-200,000	-0,001	0,051
-276,672	526,878	0,057	0,099
-275,657	-200,000	-0,010	0,037
-274,643	-200,000	-0,002	-0,106
-273,628	-154,473	-0,117	-0,006
-272,613	800,000	-0,080	0,199
-271,599	-21,498	-0,136	-0,060
-270,584	-200,000	-0,012	0,087
-269,570	37,607	0,092	-0,059
-268,555	-83,680	-0,117	0,027
-267,540	221,555	-0,085	-0,100
-266,526	800,000	-0,024	0,072
-265,511	800,000	-0,035	0,097
-264,497	-88,661	-0,143	-0,031
-263,482	120,654	0,149	0,136
-262,467	-200,000	0,020	0,103
-261,453	-107,472	0,068	-0,011
-260,438	-81,057	-0,045	0,011
-259,424	-63,967	-0,097	-0,029
-258,409	-104,190	-0,023	0,004
-257,395	127,773	-0,112	0,104
-256,380	-200,000	0,003	0,071
-255,365	214,887	-0,038	0,044
-254,351	-134,158	0,197	0,018
-253,336	-200,000	-0,004	0,117
-252,322	-69,808	0,112	0,031
-251,307	-112,629	-0,063	0,009
-250,292	717,013	0,043	0,084
-249,278	-200,000	-0,008	0,127
-248,263	-200,000	-0,034	-0,120
-247,249	-200,000	-0,025	0,113
-246,234	-141,840	-0,061	-0,004
-245,219	-153,853	-0,085	0,004
-244,205	-200,000	0,002	-0,010
-243,190	198,843	-0,008	-0,009
-242,176	-123,054	0,017	0,002
-241,161	-200,000	-0,037	0,154
-240,146	369,115	0,073	-0,108
-239,132	-87,056	-0,175	-0,039
-238,117	-200,000	-0,010	-0,113
-237,103	-99,905	-0,076	0,014
-236,088	409,065	0,023	-0,035
-235,073	22,106	0,059	-0,035
-234,059	237,004	0,052	0,063
-233,044	258,627	-0,040	0,050
-232,030	800,000	-0,035	0,094
-231,015	35,559	0,026	-0,017
-230,000	-6,254	-0,114	0,057
-228,986	254,506	-0,060	0,075
-227,971	83,938	0,077	-0,061
-226,957	332,013	-0,035	0,050
-225,942	72,973	0,072	0,055
-224,927	59,889	-0,148	-0,107
-223,913	-200,000	-0,036	-0,146
-222,898	-86,283	0,044	-0,010
-221,884	-200,000	-0,036	0,143
-220,869	320,005	0,026	-0,037
-219,855	-151,765	0,075	-0,004
-218,840	800,000	0,012	-0,025
-217,825	336,123	0,027	-0,039
-216,811	-160,251	0,111	0,004
-215,796	-25,616	0,034	0,014
-214,782	-146,104	0,054	0,003
-213,767	84,988	0,077	0,062
-212,752	-99,157	0,090	0,016
-211,738	-13,956	-0,055	0,026
-210,723	180,417	0,049	0,052
-209,709	260,284	-0,109	0,138
-208,694	380,244	-0,071	-0,107
-207,679	-54,753	-0,056	0,018
-206,665	197,945	0,016	0,018
-205,650	-74,418	0,054	0,014
-204,636	-200,000	0,028	0,215
-203,621	-68,471	0,047	0,013
-202,606	181,128	-0,093	-0,100
-201,592	0,701	-0,057	-0,030
-200,577	199,210	-0,072	-0,080
-199,563	7,170	0,020	-0,011
-198,548	-200,000	0,034	0,159
-197,533	-10,308	0,152	0,073
-196,519	-120,340	0,059	0,007
-195,504	510,380	-0,113	0,193
-194,490	-156,935	-0,098	0,004
-193,475	110,652	-0,164	-0,143
-192,460	-105,264	0,044	0,007
-191,446	-0,061	-0,079	-0,041
-190,431	273,741	0,012	0,015
-189,417	800,000	-0,034	0,074
-188,402	-131,248	0,180	-0,017
-187,387	-200,000	0,007	0,069
-186,373	105,834	-0,116	0,100
-185,358	-87,567	0,112	-0,024
-184,344	184,888	0,070	0,076
-183,329	77,715	-0,128	0,099
-182,315	-200,000	-0,012	0,185
-181,300	-200,000	0,007	-0,025
-180,285	6,830	-0,038	-0,021
-179,271	790,934	0,007	-0,014
-178,256	117,317	0,072	0,065
-177,242	800,000	0,062	0,127
-176,227	-94,086	0,126	0,025
-175,212	-200,000	0,053	-0,000
-174,198	388,728	-0,033	-0,051
-173,183	-31,083	-0,057	-0,023
-172,169	421,527	0,086	0,135
-171,154	-200,000	-0,005	-0,057
-170,139	-64,066	0,092	-0,027
-169,125	-200,000	0,001	-0,040
-168,110	-89,427	0,181	0,039
-167,096	-200,000	0,008	0,108
-166,081	-200,000	0,011	0,133
-165,066	8,379	-0,098	-0,054
-164,052	74,435	-0,041	0,031
-163,037	-142,529	0,077	0,005
-162,023	-200,000	0,001	-0,059
-161,008	800,000	-0,032	-0,102
-159,993	136,410	0,073	0,069
-158,979	52,436	0,090	-0,062
-157,964	-66,306	-0,056	-0,016
-156,950	75,063	0,152	0,116
-155,935	80,970	0,117	-0,092
-154,920	133,829	0,067	0,063
-153,906	800,000	0,039	0,079
-152,891	-200,000	0,006	-0,049
-151,877	-126,618	-0,095	0,010
-150,862	800,000	-0,059	-0,164
-149,847	-62,208	-0,166	0,050
-148,833	-47,331	0,107	0,038
-147,818	-129,761	0,051	0,005
-146,804	-200,000	-0,029	0,123
-145,789	800,000	0,034	0,090
-144,775	96,530	0,012	-0,010
-143,760	-95,004	0,122	0,024
-142,745	-200,000	0,020	0,069
-141,731	-59,122	0,061	0,019
-140,716	800,000	0,030	0,062
-139,702	511,047	0,041	0,070
-138,687	-200,000	-0,033	0,146
-137,672	-200,000	0,004	0,032
-136,658	635,430	-0,075	-0,140
-135,643	-40,106	-0,147	0,055
-134,629	800,000	0,029	-0,066
-133,614	800,000	-0,028	-0,081
-132,599	100,403	0,053	-0,044
-131,585	23,646	-0,070	-0,042
-130,570	-124,285	-0,134	0,015
-129,556	46,775	-0,075	0,050
-128,541	-14,208	-0,063	-0,029
-127,526	-200,000	0,017	0,112
-126,512	198,743	0,085	0,095
-125,497	800,000	-0,024	-0,050
-124,483	340,162	0,028	-0,040
-123,468	-114,111	-0,158	0,022
-122,453	-200,000	-0,025	-0,119
-121,439	-54,137	-0,049	0,016
-120,424	-200,000	0,001	-0,079
-119,410	-200,000	-0,020	-0,084
-118,395	800,000	0,026	-0,079
-117,380	597,094	-0,057	0,103
-116,366	94,095	0,042	-0,035
-115,351	18,877	0,055	-0,032
-114,337	-147,774	-0,112	0,007
-113,322	-200,000	-0,001	0,026
-112,307	0,044	0,049	-0,025
-111,293	800,000	0,014	-0,031
-110,278	5,001	0,125	-0,067
-109,264	250,907	-0,024	0,030
-108,249	157,013	-0,050	0,050
-107,234	-12,335	0,116	-0,055
-106,220	21,529	-0,158	-0,093
-105,205	214,024	0,124	-0,142
-104,191	-200,000	-0,008	0,107
-103,176	260,947	0,059	-0,074
-102,162	-80,700	-0,143	0,034
-101,147	21,599	0,034	0,020
-100,132	-131,670	-0,081	0,008
-99,118	365,104	0,041	-0,060
-98,103	800,000	-0,039	-0,105
-97,089	-116,040	0,128	-0,017
-96,074	256,003	0,063	0,078
-95,059	729,704	-0,031	-0,061
-94,045	-15,033	0,085	0,039
-93,030	-93,880	-0,137	-0,027
-92,016	-200,000	-0,014	-0,176
-91,001	-42,342	0,111	0,041
-89,986	552,147	-0,039	-0,068
-88,972	145,134	-0,053	0,052
-87,957	800,000	0,047	0,127
-86,943	117,442	-0,056	-0,050
-85,928	800,000	0,044	-0,124
-84,913	149,888	0,103	0,101
-83,899	4,551	-0,077	-0,041
-82,884	-51,720	-0,043	0,014
-81,870	-200,000	0,008	0,116
-80,855	-145,435	-0,080	0,005
-79,840	18,628	-0,088	-0,051
-78,826	345,526	0,030	0,044
-77,811	112,121	-0,025	-0,022
-76,797	263,211	-0,065	-0,082
-75,782	-70,071	0,172	0,047
-74,767	100,928	0,108	0,091
-73,753	-87,291	0,047	0,010
-72,738	-200,000	-0,018	-0,062
-71,724	347,706	0,034	-0,048
-70,709	-157,251	-0,154	0,007
-69,694	-27,636	-0,106	-0,044
-68,680	109,760	0,087	0,075
-67,665	-200,000	0,002	0,082
-66,651	-8,750	-0,032	-0,015
-65,636	-77,297	-0,153	-0,038
-64,622	56,816	-0,075	-0,053
-63,607	477,306	0,037	0,061
-62,592	800,000	0,006	0,018
-61,578	-62,717	0,084	0,025
-60,563	-200,000	0,003	-0,018
-59,549	-97,517	-0,115	0,022
-58,534	-72,907	-1,528	-0,404
-57,519	644,038	-0,700	-1,300
-56,505	-200,000	-0,995	-4,629
-55,490	-129,720	0,715	0,070
-54,476	800,000	5,095	12,122
-53,461	-200,000	15,059	268,379
-52,446	-200,000	694,572	2239,736
-51,432	577,091	1615,673	2874,336
-50,417	121,228	1626,550	1467,911
-49,403	81,990	1284,229	1007,678
-48,388	37,703	1024,449	657,931
-47,373	22,343	985,409	582,155
-46,359	21,403	974,070	572,339
-45,344	19,896	970,041	565,002
-44,330	19,949	968,730	564,391
-43,315	19,633	967,254	562,474
-42,300	19,673	966,072	561,895
-41,286	19,682	965,138	561,359
-40,271	19,651	964,319	560,758
-39,257	19,633	963,346	560,111
-38,242	19,665	962,500	559,703
-37,227	19,625	961,721	559,095
-36,213	19,642	960,613	558,487
-35,198	19,660	959,861	558,083
-34,184	19,698	959,155	557,775
-33,169	19,628	958,161	556,946
-32,154	19,737	957,202	556,721
-31,140	19,667	956,508	556,069
-30,125	19,685	955,847	555,721
-29,111	19,662	954,990	555,126
-28,096	19,662	954,189	554,639
-27,082	19,657	953,513	554,208
-26,067	19,686	952,754	553,838
-25,052	19,641	951,924	553,189
-24,038	19,681	951,381	552,981
-23,023	19,643	950,775	552,484
-22,009	19,661	949,836	551,975
-20,994	19,695	949,201	551,692
-19,979	19,624	948,736	551,171
-18,965	19,624	948,066	550,761
-17,950	19,609	947,412	550,312
-16,936	19,604	946,819	549,930
-15,921	19,600	946,105	549,480
-14,906	19,502	945,439	548,759
-13,892	19,497	944,856	548,381
-12,877	19,523	944,134	548,023
-11,863	19,485	943,675	547,614
-10,848	19,452	943,257	547,244
-9,833	19,590	942,713	547,347
-8,819	19,594	942,068	546,964
-7,804	19,586	941,417	546,539
-6,790	19,462	941,081	545,926
-5,775	19,496	940,486	545,668
-4,760	19,539	939,641	545,293
-3,746	19,555	938,920	544,904
-2,731	19,399	938,161	543,946
-1,717	19,300	937,678	543,331
-0,702	19,358	936,867	543,023
0,313	19,165	936,330	542,922
1,327	22,266	934,591	551,666
2,342	31,517	794,456	493,593
3,356	28,794	449,229	274,986
4,371	-1,754	294,245	149,518
5,386	-5,828	275,447	136,085
6,400	-7,343	269,782	131,864
7,415	-7,476	267,356	130,543
8,429	-7,181	266,310	130,292
9,444	-7,354	265,474	129,714
10,459	-7,126	264,763	129,563
11,473	-7,104	264,158	129,276
12,488	-7,498	263,711	128,687
13,502	-7,524	263,244	128,424
14,517	-7,303	262,930	128,459
15,531	-7,233	262,584	128,342
16,546	-7,067	262,164	128,275
17,561	-6,983	261,767	128,146
18,575	-6,884	261,454	128,070
19,590	-7,291	261,213	127,575
20,604	-7,151	260,867	127,520
21,619	-7,157	260,532	127,340
22,634	-7,080	260,109	127,190
23,648	-7,126	259,865	127,018
24,663	-7,184	259,573	126,812
25,677	-7,116	259,415	126,785
26,692	-7,214	259,248	126,604
27,707	-7,219	258,866	126,402
28,721	-7,246	258,642	126,257
29,736	-6,954	258,304	126,341
30,750	-7,170	258,079	126,028
31,765	-7,093	257,924	126,009
32,780	-7,152	257,614	125,794
33,794	-7,443	257,497	125,467
34,809	-7,033	257,183	125,666
35,823	-7,208	257,029	125,425
36,838	-7,084	256,558	125,294
37,853	-7,198	256,551	125,178
38,867	-7,204	256,270	125,024
39,882	-7,383	256,010	124,729
40,896	-7,201	255,910	124,830
41,911	-7,236	255,516	124,595
42,926	-7,034	255,178	124,597
43,940	-7,251	255,154	124,383
44,955	-7,345	254,930	124,181
45,969	-7,295	254,552	124,029
46,984	-7,384	254,334	123,835
47,999	-7,702	254,143	123,452
49,013	-7,674	253,830	123,314
50,028	-7,810	253,660	123,101
51,042	-8,001	253,472	122,833
52,057	-7,911	253,172	122,755
53,071	-8,017	253,155	122,643
54,086	-7,841	252,843	122,633
55,101	-7,761	252,787	122,665
56,115	-7,665	252,555	122,625
57,130	-7,187	252,320	122,915
58,144	-6,948	252,332	123,117
59,159	-6,948	252,163	123,023
60,174	-7,056	251,828	122,756
61,188	-7,269	251,658	122,477
62,203	-6,971	251,434	122,615
63,217	-7,162	251,179	122,315
64,232	-6,975	250,828	122,295
65,247	-7,273	250,893	122,059
66,261	-7,044	250,512	122,060
67,276	-7,252	250,355	121,793
68,290	-7,423	250,055	121,489
69,305	-7,625	249,775	121,169
70,320	-7,641	249,618	121,069
71,334	-7,293	249,460	121,280
72,349	-7,052	249,380	121,436
73,363	-7,051	249,212	121,344
74,378	-7,048	248,892	121,180
75,393	-7,126	248,883	121,098
76,407	-7,081	248,614	120,995
77,422	-7,196	248,440	120,801
78,436	-7,286	248,216	120,605
79,451	-7,250	247,990	120,515
80,466	-7,187	247,711	120,422
81,480	-7,494	247,564	120,080
82,495	-7,361	247,202	120,006
83,509	-7,202	247,185	120,121
84,524	-7,516	246,889	119,701
85,539	-7,596	246,677	119,520
86,553	-7,626	246,553	119,424
87,568	-7,485	246,388	119,453
88,582	-7,365	246,148	119,427
89,597	-7,528	245,992	119,203
90,611	-7,267	245,877	119,357
91,626	-7,196	245,745	119,342
92,641	-7,209	245,380	119,143
93,655	-7,178	245,253	119,097
94,670	-7,300	245,073	118,896
95,684	-7,391	244,943	118,746
96,699	-7,403	244,763	118,638
97,714	-7,462	244,606	118,502
98,728	-7,440	244,290	118,357
99,743	-7,492	244,308	118,311
100,757	-7,518	243,875	118,070
101,772	-7,503	243,712	117,993
102,787	-7,367	243,486	117,986
103,801	-7,418	243,320	117,852
104,816	-7,213	243,241	117,974
105,830	-7,188	243,163	117,947
106,845	-7,217	243,059	117,862
107,860	-7,267	242,904	117,734
108,874	-7,500	242,610	117,388
109,889	-7,326	242,383	117,413
110,903	-7,203	242,107	117,369
111,918	-7,492	241,990	117,063
112,933	-7,675	241,848	116,833
113,947	-7,504	241,762	116,922
114,962	-7,349	241,498	116,913
115,976	-7,163	241,221	116,922
116,991	-7,317	241,194	116,771
118,006	-7,291	240,970	116,673
119,020	-7,241	240,958	116,698
120,035	-7,342	240,784	116,521
121,049	-7,189	240,573	116,534
122,064	-7,181	240,457	116,473
123,079	-7,258	240,182	116,267
124,093	-7,151	239,919	116,217
125,108	-7,611	239,707	115,727
126,122	-7,599	239,570	115,661
127,137	-7,576	239,328	115,552
128,151	-7,482	239,193	115,554
129,166	-7,466	239,029	115,477
130,181	-7,365	238,855	115,466
131,195	-7,824	238,717	115,013
132,210	-7,752	238,572	114,992
133,224	-7,338	238,285	115,181
134,239	-7,256	238,122	115,159
135,254	-7,340	238,082	115,060
136,268	-7,479	237,723	114,764
137,283	-7,490	237,566	114,669
138,297	-7,764	237,419	114,366
139,312	-7,734	237,107	114,229
140,327	-7,558	237,074	114,346
141,341	-7,235	237,126	114,622
142,356	-7,106	236,932	114,623
143,370	-6,958	236,773	114,655
144,385	-6,950	236,538	114,537
145,400	-7,084	236,372	114,339
146,414	-6,953	236,098	114,302
147,429	-7,113	236,132	114,178
148,443	-6,952	235,819	114,147
149,458	-7,184	235,758	113,920
150,473	-6,972	235,400	113,907
151,487	-7,146	235,336	113,726
152,502	-7,176	235,259	113,655
153,516	-6,973	234,909	113,639
154,531	-6,945	234,979	113,684
155,546	-7,196	234,734	113,356
156,560	-7,084	234,572	113,356
157,575	-7,307	234,338	113,055
158,589	-7,353	234,093	112,890
159,604	-6,792	233,829	113,199
160,619	-7,009	233,912	113,057
161,633	-6,638	233,550	113,167
162,648	-6,821	233,573	113,022
163,662	-7,156	233,459	112,691
164,677	-7,008	233,171	112,660
165,692	-7,195	233,142	112,487
166,706	-6,802	232,870	112,657
167,721	-6,996	232,822	112,470
168,735	-7,050	232,778	112,396
169,750	-6,991	232,599	112,346
170,764	-6,866	232,362	112,321
171,779	-6,931	232,239	112,200
172,794	-6,743	231,933	112,190
173,808	-7,117	231,809	111,825
174,823	-7,602	231,451	111,260
175,837	-7,489	231,243	111,240
176,852	-7,338	231,181	111,319
177,867	-6,982	231,156	111,577
178,881	-7,002	230,935	111,444
179,896	-6,692	230,965	111,693
180,910	-6,834	230,736	111,460
181,925	-6,995	230,618	111,267
182,940	-6,906	230,443	111,243
183,954	-6,889	230,289	111,171
184,969	-7,065	230,063	110,915
185,983	-6,805	230,052	111,102
186,998	-6,909	229,822	110,901
188,013	-6,798	229,742	110,939
189,027	-6,759	229,463	110,825
190,042	-6,885	229,481	110,725
191,056	-6,918	229,181	110,545
192,071	-6,943	229,054	110,455
193,086	-6,897	228,955	110,432
194,100	-7,038	228,612	110,148
195,115	-7,783	228,249	109,386
196,129	-8,030	227,987	109,059
197,144	-4,183	229,248	112,645
198,159	0,555	230,732	117,066
199,173	4,058	231,629	120,250
200,188	4,512	231,534	120,545
201,202	4,409	231,498	120,435
202,217	4,495	231,379	120,430
203,232	4,739	231,370	120,604
204,246	4,972	231,067	120,617
205,261	4,988	230,944	120,554
206,275	4,981	230,766	120,445
207,290	5,211	230,577	120,514
208,304	4,813	230,557	120,184
209,319	5,102	230,344	120,287
210,334	4,918	230,189	120,052
211,348	4,618	230,051	119,737
212,363	4,343	229,635	119,297
213,377	4,085	229,334	118,931
214,392	4,028	229,256	118,836
215,407	4,241	229,115	118,916
216,421	4,417	229,162	119,066
217,436	4,212	228,813	118,716
218,450	3,910	228,533	118,328
219,465	3,909	228,535	118,317
220,480	3,819	228,466	118,202
221,494	4,073	228,230	118,265
222,509	4,221	228,076	118,288
223,523	3,913	227,946	117,974
224,538	3,974	227,699	117,882
225,553	4,121	227,608	117,937
226,567	4,243	227,684	118,059
227,582	4,359	227,479	118,031
228,596	4,347	227,466	118,005
229,611	4,272	227,155	117,776
230,626	3,848	227,012	117,368
231,640	3,902	226,828	117,303
232,655	4,438	226,708	117,639
233,669	4,703	226,700	117,827
234,684	4,639	226,647	117,740
235,699	4,451	226,431	117,474
236,713	4,356	226,092	117,215
237,728	4,061	225,867	116,865
238,742	3,949	225,822	116,746
239,757	4,271	225,609	116,869
240,772	4,119	225,353	116,611
241,786	4,002	225,392	116,532
242,801	4,516	225,211	116,817
243,815	4,753	225,125	116,941
244,830	4,647	224,926	116,747
245,844	4,276	224,843	116,414
246,859	4,200	224,675	116,259
247,874	4,504	224,522	116,399
248,888	4,248	224,438	116,152
249,903	4,263	224,146	116,001
250,917	4,292	223,911	115,891
251,932	4,218	223,805	115,770
252,947	4,130	223,717	115,649
253,961	4,109	223,462	115,491
254,976	4,012	223,399	115,376
255,990	4,225	223,332	115,490
257,005	4,512	223,219	115,636
258,020	4,184	223,113	115,325
259,034	4,736	223,017	115,678
260,049	4,509	222,800	115,385
261,063	4,311	222,598	115,123
262,078	4,666	222,451	115,302
263,093	4,608	222,428	115,236
264,107	4,585	222,202	115,092
265,122	4,385	222,070	114,864
266,136	4,404	222,076	114,872
267,151	4,609	221,869	114,907
268,166	4,349	221,532	114,528
269,180	3,894	221,372	114,098
270,195	4,087	221,217	114,151
271,209	3,953	221,155	114,010
272,224	4,198	220,845	114,021
273,239	4,196	220,898	114,037
274,253	4,016	220,782	113,834
275,268	4,010	220,475	113,661
276,282	3,912	220,429	113,555
277,297	3,896	220,254	113,443
278,312	3,976	220,111	113,418
279,326	3,807	219,916	113,182
280,341	3,999	219,774	113,241
281,355	4,168	219,818	113,378
282,370	4,231	219,455	113,226
283,384	3,795	219,388	112,862
284,399	3,677	219,284	112,711
285,414	3,854	219,032	112,702
286,428	3,916	219,136	112,791
287,443	4,010	219,065	112,813
288,457	4,272	218,768	112,842
289,472	4,289	218,547	112,730
290,487	3,717	218,439	112,246
291,501	3,729	218,238	112,142
292,516	3,880	218,199	112,222
293,530	3,782	217,906	111,990
294,545	3,839	217,766	111,950
295,560	3,931	217,738	111,992
296,574	4,061	217,576	111,993
297,589	4,321	217,398	112,081
298,603	4,397	217,291	112,070
299,618	4,127	217,211	111,823
300,633	4,259	217,116	111,860
301,647	4,256	217,058	111,818
302,662	4,496	216,851	111,876
303,676	4,297	216,746	111,667
304,691	4,347	216,457	111,545
305,706	4,336	216,404	111,499
306,720	4,454	216,222	111,481
307,735	4,082	216,076	111,127
308,749	3,847	216,033	110,925
309,764	4,181	215,943	111,110
310,779	4,408	215,748	111,164
311,793	4,106	215,571	110,845
312,808	4,257	215,354	110,832
313,822	4,346	215,164	110,788
314,837	4,288	215,087	110,698
315,852	4,084	214,922	110,456
316,866	4,177	214,907	110,506
317,881	4,335	214,818	110,563
318,895	4,269	214,573	110,380
319,910	4,102	214,338	110,129
320,925	3,759	214,143	109,775
321,939	3,645	214,046	109,634
322,954	3,705	213,962	109,623
323,968	4,262	213,980	110,021
324,983	4,315	213,759	109,935
325,997	4,299	213,673	109,870
327,012	4,128	213,634	109,718
328,027	4,287	213,482	109,743
329,041	4,613	213,407	109,927
330,056	4,356	213,127	109,590
331,070	4,465	212,940	109,561
332,085	3,994	212,784	109,138
333,100	4,015	212,637	109,067
334,114	4,164	212,508	109,097
335,129	4,116	212,402	108,999
336,143	3,805	212,306	108,720
337,158	3,997	211,985	108,681
338,173	4,065	212,021	108,739
339,187	3,781	211,931	108,482
340,202	3,722	211,574	108,248
341,216	3,745	211,350	108,140
342,231	3,941	211,446	108,317
343,246	3,785	211,243	108,094
344,260	3,963	211,168	108,171
345,275	4,199	210,991	108,236
346,289	4,013	210,994	108,098
347,304	4,272	210,714	108,126
348,319	4,068	210,596	107,913
349,333	4,035	210,571	107,867
350,348	4,079	210,406	107,804
351,362	4,303	210,303	107,899
352,377	4,286	210,223	107,836
353,392	4,071	209,981	107,552
354,406	4,032	209,892	107,470
355,421	192,830	1343,856	1427,248
356,435	153,861	1482,064	1427,305
