DTS Sentinel unit serial number:	SN410029Multiplexer serial number:	ORYXHardware model number:	OX2-SRSoftware version number:	ORYX F/W v4,00 Oryx Data Collector v3.7.2.0data status	okinstallation	B6 Nyhavnadifferential loss correction	single-endedforward channel	channel 2reverse channel	N/Adate	2023/12/11time	08:00:08forward acquisition time	300,00reverse acquisition time	0,00gamma	499,1914k internal	0,3128k external	0,3128temperature offset calibration	1,0000default loss term (dB/km)	0,3820temperature slope calibration	1,0000multiplexer offset coefficient	1,0000multiplexer slope coefficient	1,0000fibre end	0,00T internal ref (°C)	18,41T ext. ref 1 (°C)	0,70T ext. ref 2 (°C)	0,72length (m)	temperature (°C)	Stokes	anti-Stokes-744,400	-61,809	0,147	-0,046
-743,385	-8,448	-0,172	0,086
-742,371	607,640	0,073	-0,136
-741,356	-51,592	-0,186	0,064
-740,342	238,842	-0,032	0,039
-739,327	-139,458	-0,199	-0,016
-738,312	284,860	-0,028	-0,038
-737,298	-61,033	-0,194	-0,061
-736,283	-146,065	0,145	0,009
-735,269	159,099	-0,186	0,193
-734,254	510,627	0,012	-0,021
-733,239	-9,532	-0,421	-0,208
-732,225	-0,215	0,105	0,055
-731,210	-200,000	0,008	-0,033
-730,196	800,000	0,065	-0,178
-729,181	24,456	-0,056	-0,034
-728,167	558,343	0,022	0,039
-727,152	17,051	-0,071	0,042
-726,137	11,837	-0,100	0,057
-725,123	-118,687	-0,093	-0,012
-724,108	153,354	-0,013	-0,013
-723,094	-156,256	-0,121	0,006
-722,079	-56,178	0,117	0,039
-721,064	287,509	-0,025	-0,033
-720,050	115,973	-0,002	-0,002
-719,035	157,610	-0,039	0,040
-718,021	131,554	0,026	-0,025
-717,006	221,031	-0,015	-0,018
-715,991	31,341	-0,121	-0,077
-714,977	383,896	-0,071	-0,110
-713,962	69,065	0,040	-0,031
-712,948	84,096	0,083	0,067
-711,933	-200,000	0,004	-0,072
-710,918	413,753	-0,067	-0,107
-709,904	-87,736	0,089	0,020
-708,889	15,903	-0,122	0,071
-707,875	222,553	-0,056	-0,067
-706,860	266,906	0,049	-0,064
-705,845	-146,089	0,051	0,003
-704,831	6,426	0,172	0,095
-703,816	800,000	-0,033	-0,107
-702,802	-200,000	0,005	-0,064
-701,787	-200,000	0,040	-0,132
-700,772	800,000	0,032	-0,106
-699,758	1,762	-0,026	0,014
-698,743	65,861	0,018	-0,013
-697,729	-117,296	0,068	0,009
-696,714	53,675	-0,077	0,055
-695,699	728,089	-0,071	-0,141
-694,685	-200,000	0,058	-0,195
-693,670	-119,767	0,074	0,009
-692,656	-13,005	0,094	0,045
-691,641	490,947	-0,051	0,088
-690,627	-200,000	0,046	-0,182
-689,612	601,829	0,039	-0,073
-688,597	567,683	-0,029	-0,053
-687,583	84,055	0,088	-0,071
-686,568	238,618	-0,071	0,088
-685,554	-5,812	-0,117	-0,059
-684,539	792,571	-0,031	-0,064
-683,524	279,881	-0,056	0,074
-682,510	-194,456	-0,159	-0,001
-681,495	-126,005	0,016	-0,002
-680,481	-200,000	-0,004	-0,059
-679,466	-11,056	0,041	-0,020
-678,451	19,147	0,101	-0,060
-677,437	20,146	0,107	-0,064
-676,422	-57,589	-0,023	-0,007
-675,408	180,241	0,088	0,096
-674,393	800,000	0,031	0,076
-673,378	-200,000	-0,002	0,145
-672,364	-47,296	-0,291	0,104
-671,349	-200,000	0,014	-0,060
-670,335	45,744	0,027	-0,018
-669,320	11,609	0,082	0,046
-668,305	279,509	-0,040	-0,053
-667,291	110,115	0,004	-0,004
-666,276	800,000	-0,019	-0,049
-665,262	686,036	0,015	-0,029
-664,247	564,666	-0,050	-0,090
-663,232	-105,448	-0,082	0,014
-662,218	-3,750	0,066	0,034
-661,203	183,012	-0,037	-0,041
-660,189	-75,642	-0,077	-0,020
-659,174	800,000	-0,013	0,033
-658,159	168,969	-0,035	-0,037
-657,145	-200,000	-0,000	-0,002
-656,130	79,597	0,070	-0,055
-655,116	-95,899	0,149	0,029
-654,101	-200,000	-0,012	-0,047
-653,086	-137,207	0,121	-0,010
-652,072	332,757	-0,088	0,126
-651,057	-175,075	-0,132	0,003
-650,043	76,022	-0,065	0,051
-649,028	-64,776	-0,041	-0,012
-648,014	-56,800	-0,092	0,030
-646,999	175,703	0,094	-0,101
-645,984	-200,000	-0,010	-0,102
-644,970	800,000	0,051	-0,111
-643,955	800,000	-0,005	-0,014
-642,941	-0,571	-0,059	-0,031
-641,926	-200,000	0,014	-0,120
-640,911	-70,178	0,128	-0,036
-639,897	-200,000	0,008	0,113
-638,882	205,901	0,017	0,020
-637,868	-96,984	-0,101	-0,019
-636,853	-200,000	0,001	-0,038
-635,838	160,102	-0,146	-0,151
-634,824	413,039	-0,075	-0,119
-633,809	38,383	0,097	0,064
-632,795	223,642	-0,099	0,119
-631,780	800,000	0,052	0,151
-630,765	46,412	0,011	0,008
-629,751	233,491	0,071	0,087
-628,736	53,881	-0,045	0,032
-627,722	11,662	-0,079	0,045
-626,707	373,815	-0,025	0,038
-625,692	-200,000	-0,004	0,031
-624,678	103,640	0,042	0,036
-623,663	526,920	0,019	-0,032
-622,649	786,767	-0,036	-0,073
-621,634	142,510	0,034	0,033
-620,619	-42,601	-0,049	-0,018
-619,605	756,444	0,097	-0,195
-618,590	323,346	0,030	-0,043
-617,576	-200,000	0,003	0,071
-616,561	-200,000	-0,019	-0,118
-615,546	706,867	-0,024	-0,047
-614,532	167,075	0,030	0,032
-613,517	2,043	0,012	0,007
-612,503	261,214	-0,037	-0,047
-611,488	318,755	-0,021	0,029
-610,474	199,068	0,090	0,103
-609,459	800,000	0,042	0,090
-608,444	324,648	0,021	-0,030
-607,430	-83,008	-0,064	0,015
-606,415	240,425	-0,090	0,112
-605,401	-200,000	0,001	0,091
-604,386	-200,000	-0,014	0,048
-603,371	325,091	0,023	0,033
-602,357	219,092	-0,091	-0,108
-601,342	-200,000	0,013	-0,082
-600,328	68,887	0,017	-0,013
-599,313	-147,420	-0,064	-0,004
-598,298	138,705	-0,074	-0,072
-597,284	-200,000	-0,001	0,019
-596,269	595,286	0,028	0,051
-595,255	58,445	0,059	0,043
-594,240	642,706	0,019	-0,036
-593,225	-73,424	0,065	-0,018
-592,211	82,495	0,082	-0,066
-591,196	-91,196	-0,061	-0,013
-590,182	65,526	-0,046	0,034
-589,167	667,826	-0,060	-0,116
-588,152	800,000	-0,019	-0,060
-587,138	430,313	-0,026	0,042
-586,123	525,143	0,044	-0,077
-585,109	442,668	-0,086	-0,140
-584,094	800,000	-0,027	0,085
-583,079	800,000	0,039	0,114
-582,065	-200,000	0,012	0,050
-581,050	-109,987	0,152	-0,023
-580,036	-200,000	-0,012	-0,082
-579,021	-166,853	-0,183	0,005
-578,006	-117,151	0,084	-0,011
-576,992	147,585	-0,038	-0,038
-575,977	-200,000	-0,049	0,206
-574,963	187,304	-0,039	-0,043
-573,948	-200,000	0,009	-0,064
-572,934	215,767	-0,044	0,052
-571,919	-44,893	0,024	-0,009
-570,904	-200,000	0,013	-0,054
-569,890	59,330	0,054	0,039
-568,875	-172,804	0,093	0,002
-567,861	-200,000	0,024	-0,084
-566,846	800,000	0,014	0,046
-565,831	-200,000	0,019	0,072
-564,817	800,000	-0,039	-0,093
-563,802	-110,432	0,062	0,009
-562,788	-200,000	-0,000	-0,020
-561,773	-200,000	-0,026	-0,181
-560,758	-43,041	0,143	0,053
-559,744	-76,810	0,203	0,052
-558,729	189,195	-0,014	0,015
-557,715	-131,893	-0,098	0,009
-556,700	-179,694	-0,093	-0,001
-555,685	800,000	0,039	0,090
-554,671	238,668	-0,049	0,060
-553,656	2,013	0,031	0,017
-552,642	327,536	0,045	-0,063
-551,627	690,961	-0,047	0,092
-550,612	-101,792	-0,080	-0,014
-549,598	-83,065	0,145	-0,034
-548,583	34,325	0,041	-0,026
-547,569	-200,000	-0,001	0,029
-546,554	-86,056	0,147	0,033
-545,539	-37,704	-0,139	0,054
-544,525	-200,000	0,004	-0,024
-543,510	286,019	0,029	-0,038
-542,496	-73,996	0,047	0,012
-541,481	-200,000	-0,010	0,068
-540,466	-72,589	0,079	-0,021
-539,452	-88,690	0,127	-0,028
-538,437	171,652	0,021	-0,023
-537,423	524,199	-0,078	0,136
-536,408	-61,184	0,096	0,030
-535,393	257,190	-0,069	-0,088
-534,379	-200,000	-0,013	-0,147
-533,364	17,072	0,074	0,043
-532,350	-200,000	-0,009	-0,045
-531,335	-64,404	-0,076	-0,023
-530,321	-70,508	-0,080	0,022
-529,306	-99,132	-0,052	0,010
-528,291	327,493	-0,114	-0,162
-527,277	-86,856	-0,086	-0,019
-526,262	800,000	-0,021	-0,051
-525,248	-8,123	0,116	0,058
-524,233	307,606	0,091	0,126
-523,218	234,678	-0,037	0,045
-522,204	-33,283	0,064	-0,026
-521,189	-200,000	0,007	-0,189
-520,175	77,080	-0,023	0,018
-519,160	236,904	-0,047	-0,058
-518,145	205,589	0,076	0,088
-517,131	119,092	0,129	0,117
-516,116	-82,003	0,081	-0,019
-515,102	149,879	0,065	-0,065
-514,087	-41,049	0,061	-0,023
-513,072	-148,603	-0,123	-0,007
-512,058	-200,000	0,020	-0,078
-511,043	687,224	-0,030	0,058
-510,029	606,235	-0,022	0,041
-509,014	800,000	0,042	0,086
-507,999	0,449	-0,138	-0,072
-506,985	88,437	-0,088	-0,072
-505,970	-85,728	-0,074	0,017
-504,956	664,299	0,026	-0,050
-503,941	-200,000	-0,014	-0,081
-502,926	-112,825	0,009	-0,001
-501,912	-200,000	0,003	0,012
-500,897	87,194	-0,171	0,139
-499,883	-200,000	0,001	0,048
-498,868	682,669	-0,014	-0,027
-497,853	411,982	-0,022	0,034
-496,839	-5,674	-0,102	-0,051
-495,824	-200,000	0,021	0,091
-494,810	-49,265	-0,046	0,016
-493,795	-189,760	0,086	0,001
-492,781	800,000	-0,031	-0,092
-491,766	800,000	-0,039	-0,115
-490,751	-200,000	-0,003	-0,161
-489,737	800,000	-0,028	0,070
-488,722	-128,384	0,038	-0,004
-487,708	-79,084	0,148	0,037
-486,693	30,033	-0,069	-0,043
-485,678	800,000	0,035	0,073
-484,664	-200,000	-0,025	0,094
-483,649	8,873	-0,129	0,072
-482,635	485,861	0,054	-0,090
-481,620	-17,224	0,073	0,034
-480,605	800,000	0,024	0,049
-479,591	-43,219	-0,074	-0,028
-478,576	118,841	0,046	0,042
-477,562	184,922	-0,101	-0,111
-476,547	-200,000	-0,115	-0,000
-475,532	193,823	0,116	-0,129
-474,518	-200,000	0,020	0,148
-473,503	-200,000	0,015	-0,128
-472,489	107,180	0,032	0,028
-471,474	143,101	-0,093	-0,091
-470,459	-41,009	0,063	0,024
-469,445	27,480	-0,026	0,016
-468,430	57,040	0,089	-0,064
-467,416	800,000	0,019	0,043
-466,401	-48,992	-0,097	0,034
-465,386	551,813	0,037	0,065
-464,372	1,663	-0,079	0,042
-463,357	-25,302	0,101	-0,044
-462,343	112,591	-0,083	-0,074
-461,328	800,000	-0,027	-0,077
-460,313	-200,000	0,011	0,062
-459,299	-130,262	0,095	-0,009
-458,284	101,875	0,039	0,034
-457,270	-200,000	0,012	0,046
-456,255	-116,738	0,118	-0,016
-455,241	-200,000	-0,003	-0,038
-454,226	-200,000	-0,005	-0,091
-453,211	-54,520	0,035	-0,012
-452,197	234,020	0,046	0,056
-451,182	-135,985	-0,030	0,003
-450,168	800,000	-0,032	-0,087
-449,153	320,700	0,041	-0,058
-448,138	-200,000	-0,006	-0,078
-447,124	112,806	0,080	-0,072
-446,109	-200,000	0,008	-0,044
-445,095	44,649	-0,047	-0,032
-444,080	-200,000	-0,004	0,175
-443,065	800,000	0,072	0,150
-442,051	-200,000	-0,020	-0,109
-441,036	800,000	-0,024	-0,061
-440,022	-200,000	-0,046	0,164
-439,007	-12,411	0,080	0,038
-437,992	279,508	0,057	-0,075
-436,978	49,492	0,095	-0,065
-435,963	269,983	-0,071	0,092
-434,949	-126,925	-0,151	-0,016
-433,934	-103,931	-0,084	0,014
-432,919	-14,104	0,011	0,005
-431,905	-200,000	0,006	-0,041
-430,890	-97,938	-0,093	0,018
-429,876	-62,376	0,047	-0,014
-428,861	411,750	-0,053	0,083
-427,846	-56,060	0,080	0,026
-426,832	347,839	-0,041	0,060
-425,817	-129,228	-0,084	-0,008
-424,803	800,000	0,027	-0,080
-423,788	-185,529	-0,044	-0,000
-422,773	168,226	0,141	0,148
-421,759	800,000	0,011	0,035
-420,744	88,607	-0,130	0,106
-419,730	504,103	0,037	-0,063
-418,715	-200,000	0,000	-0,065
-417,701	191,219	0,092	0,102
-416,686	-104,114	-0,016	-0,003
-415,671	-165,715	0,179	0,006
-414,657	50,428	0,095	0,066
-413,642	72,053	-0,104	-0,080
-412,628	340,752	-0,077	-0,110
-411,613	-165,552	-0,036	-0,001
-410,598	17,482	0,072	-0,042
-409,584	-200,000	-0,003	-0,033
-408,569	380,401	-0,016	0,024
-407,555	400,701	-0,024	0,037
-406,540	2,630	-0,018	-0,010
-405,525	-200,000	-0,015	-0,060
-404,511	-200,000	-0,018	-0,084
-403,496	28,232	0,029	-0,018
-402,482	549,393	-0,044	0,079
-401,467	-158,117	0,093	-0,004
-400,452	-80,521	0,058	0,014
-399,438	670,454	0,028	0,053
-398,423	107,771	0,073	0,064
-397,409	800,000	-0,038	0,095
-396,394	-40,298	-0,075	-0,029
-395,379	800,000	0,010	-0,025
-394,365	-23,720	0,056	-0,025
-393,350	791,621	-0,042	-0,085
-392,336	603,167	0,007	-0,012
-391,321	-200,000	0,021	-0,088
-390,306	-200,000	0,017	-0,157
-389,292	800,000	0,051	-0,108
-388,277	131,000	0,052	0,049
-387,263	-50,599	-0,105	-0,036
-386,248	70,386	0,163	-0,123
-385,233	-20,880	-0,036	0,016
-384,219	800,000	0,013	-0,040
-383,204	-170,178	0,061	-0,002
-382,190	-15,763	0,115	-0,053
-381,175	-200,000	0,020	-0,080
-380,160	71,111	0,008	0,006
-379,146	-112,528	0,094	-0,014
-378,131	-106,830	-0,070	-0,011
-377,117	-15,307	0,063	0,029
-376,102	515,724	-0,060	0,103
-375,088	-28,496	0,185	-0,078
-374,073	25,048	-0,025	-0,015
-373,058	15,772	-0,121	0,070
-372,044	759,360	-0,027	0,054
-371,029	109,371	0,143	0,126
-370,015	-142,191	0,097	-0,007
-369,000	-78,203	0,097	-0,024
-367,985	763,991	-0,102	0,205
-366,971	76,076	-0,037	-0,029
-365,956	800,000	-0,007	0,017
-364,942	28,741	0,145	0,090
-363,927	800,000	0,011	-0,035
-362,912	800,000	0,040	-0,113
-361,898	800,000	0,069	-0,147
-360,883	218,545	-0,058	0,068
-359,869	-200,000	-0,033	0,130
-358,854	-200,000	-0,014	0,212
-357,839	142,611	-0,042	0,041
-356,825	-200,000	0,015	0,112
-355,810	36,311	-0,053	0,034
-354,796	800,000	-0,023	-0,069
-353,781	317,936	0,032	0,045
-352,766	-7,572	-0,045	0,022
-351,752	-39,593	-0,056	-0,021
-350,737	3,970	-0,113	0,061
-349,723	98,517	0,070	-0,059
-348,708	37,560	0,042	-0,027
-347,693	-96,383	-0,033	-0,006
-346,679	10,721	0,032	-0,018
-345,664	800,000	0,040	0,119
-344,650	-22,853	0,163	0,072
-343,635	-15,215	-0,177	0,083
-342,620	800,000	0,075	0,176
-341,606	482,444	-0,069	-0,116
-340,591	114,468	-0,102	-0,091
-339,577	552,706	-0,026	-0,046
-338,562	-200,000	-0,022	-0,126
-337,548	385,410	0,091	-0,138
-336,533	95,379	-0,036	0,030
-335,518	-90,723	0,030	0,006
-334,504	-200,000	-0,017	0,061
-333,489	15,644	0,038	0,022
-332,475	-56,987	-0,058	0,019
-331,460	16,682	-0,083	-0,048
-330,445	-200,000	-0,016	0,082
-329,431	104,589	0,089	0,077
-328,416	-200,000	0,004	-0,027
-327,402	-200,000	0,025	0,133
-326,387	800,000	0,030	-0,067
-325,372	331,166	0,041	-0,058
-324,358	-200,000	0,079	0,000
-323,343	-43,770	0,035	-0,013
-322,329	211,039	0,088	0,101
-321,314	454,024	-0,059	0,096
-320,299	302,622	0,101	0,137
-319,285	-42,271	0,061	-0,023
-318,270	-90,294	-0,064	-0,013
-317,256	-50,854	-0,138	-0,047
-316,241	-200,000	0,008	0,047
-315,226	-200,000	0,005	0,047
-314,212	-200,000	-0,007	0,147
-313,197	-62,268	0,105	0,032
-312,183	-200,000	-0,002	0,069
-311,168	199,727	0,024	-0,027
-310,153	-50,150	-0,100	-0,034
-309,139	618,659	0,026	-0,047
-308,124	-200,000	-0,020	0,070
-307,110	356,315	0,102	0,150
-306,095	800,000	0,088	-0,202
-305,080	-42,790	-0,101	0,037
-304,066	316,048	-0,028	-0,039
-303,051	-192,788	0,091	-0,001
-302,037	37,335	-0,115	0,075
-301,022	186,110	0,131	0,142
-300,008	-141,968	-0,053	0,004
-298,993	642,562	0,029	0,054
-297,978	172,074	0,024	0,025
-296,964	30,240	-0,139	-0,086
-295,949	-58,241	-0,172	0,054
-294,935	-146,357	-0,069	-0,004
-293,920	301,301	0,125	-0,169
-292,905	315,388	0,069	0,096
-291,891	-200,000	0,009	0,033
-290,876	-200,000	-0,008	-0,076
-289,862	800,000	0,026	0,062
-288,847	191,750	-0,068	0,075
-287,832	151,139	0,083	-0,083
-286,818	-200,000	0,029	0,096
-285,803	-200,000	0,049	0,178
-284,789	800,000	-0,049	0,140
-283,774	169,920	-0,153	0,160
-282,759	-35,984	-0,022	-0,009
-281,745	459,488	-0,035	-0,057
-280,730	-162,863	-0,128	-0,004
-279,716	-111,651	0,040	-0,006
-278,701	68,754	-0,089	0,067
-277,686	800,000	0,013	0,039
-276,672	186,167	-0,078	0,085
-275,657	69,165	-0,036	0,027
-274,643	-200,000	-0,020	-0,217
-273,628	625,053	-0,019	-0,036
-272,613	-164,889	-0,066	0,002
-271,599	-181,182	0,119	0,002
-270,584	-90,552	-0,034	0,007
-269,570	-200,000	0,008	-0,047
-268,555	800,000	0,009	-0,027
-267,540	-87,773	0,020	0,004
-266,526	800,000	-0,045	0,096
-265,511	-130,244	-0,069	0,007
-264,497	337,263	0,011	0,016
-263,482	-200,000	0,015	-0,060
-262,467	-47,946	0,121	0,043
-261,453	130,779	-0,032	-0,030
-260,438	-175,709	0,081	-0,002
-259,424	800,000	-0,029	-0,068
-258,409	30,510	0,045	-0,028
-257,395	727,460	-0,033	0,064
-256,380	800,000	0,012	-0,033
-255,365	-116,342	-0,087	0,012
-254,351	-90,811	-0,035	0,007
-253,336	800,000	-0,028	0,080
-252,322	257,600	0,040	0,050
-251,307	150,553	0,033	0,033
-250,292	74,650	-0,120	0,092
-249,278	108,871	-0,182	0,159
-248,263	283,241	-0,024	-0,032
-247,249	-200,000	-0,036	-0,135
-246,234	267,628	-0,041	0,052
-245,219	193,206	0,095	0,105
-244,205	-200,000	-0,001	-0,128
-243,190	800,000	0,071	-0,187
-242,176	156,707	-0,083	-0,084
-241,161	327,917	-0,043	0,061
-240,146	800,000	0,067	0,136
-239,132	50,847	-0,058	-0,040
-238,117	-200,000	0,002	-0,007
-237,103	-64,566	0,060	-0,018
-236,088	-99,195	-0,159	-0,029
-235,073	-138,453	0,160	-0,013
-234,059	109,923	0,099	0,087
-233,044	-200,000	-0,010	-0,048
-232,030	-42,614	0,122	-0,045
-231,015	12,446	0,091	0,051
-230,000	-200,000	-0,028	0,109
-228,986	-59,112	-0,033	-0,010
-227,971	-200,000	-0,002	-0,077
-226,957	-200,000	0,002	-0,075
-225,942	116,625	0,087	0,078
-224,927	-11,852	-0,163	-0,078
-223,913	800,000	-0,017	-0,046
-222,898	-140,770	-0,068	0,005
-221,884	178,413	0,072	0,077
-220,869	144,005	-0,058	0,057
-219,855	-90,258	0,051	-0,011
-218,840	-63,571	-0,027	0,008
-217,825	118,902	-0,039	-0,036
-216,811	646,922	-0,063	-0,118
-215,796	20,995	0,093	-0,055
-214,782	640,949	0,059	-0,109
-213,767	-200,000	-0,002	0,023
-212,752	-200,000	0,009	-0,080
-211,738	85,803	0,066	-0,053
-210,723	398,641	0,032	0,049
-209,709	-86,545	0,066	-0,015
-208,694	800,000	-0,015	-0,033
-207,679	130,165	-0,089	-0,084
-206,665	123,008	0,081	-0,074
-205,650	-13,514	0,056	-0,026
-204,636	259,708	0,027	0,034
-203,621	-35,186	0,053	-0,021
-202,606	335,005	0,056	0,080
-201,592	62,640	-0,124	-0,090
-200,577	-77,169	-0,072	0,018
-199,563	9,401	0,067	-0,037
-198,548	240,855	-0,041	-0,050
-197,533	-200,000	0,013	0,113
-196,519	-57,921	0,019	0,006
-195,504	-149,856	-0,138	0,008
-194,490	-17,752	-0,037	-0,017
-193,475	-164,088	-0,184	0,006
-192,460	-200,000	-0,009	0,126
-191,446	60,025	0,169	0,121
-190,431	-200,000	-0,015	0,069
-189,417	104,915	0,044	-0,038
-188,402	-200,000	0,028	0,110
-187,387	-200,000	0,029	-0,108
-186,373	800,000	-0,037	-0,091
-185,358	-200,000	0,007	-0,059
-184,344	206,513	-0,024	-0,027
-183,329	-200,000	-0,022	0,141
-182,315	-79,542	-0,093	-0,023
-181,300	-200,000	-0,019	-0,097
-180,285	-150,221	0,095	0,005
-179,271	-200,000	0,003	-0,072
-178,256	30,909	0,119	-0,074
-177,242	319,769	-0,013	-0,017
-176,227	-39,588	-0,064	-0,024
-175,212	-81,269	0,055	-0,013
-174,198	800,000	-0,009	-0,022
-173,183	160,590	-0,102	-0,104
-172,169	-24,573	-0,009	0,004
-171,154	131,894	-0,057	0,053
-170,139	277,702	-0,122	0,158
-169,125	109,857	0,026	-0,023
-168,110	-104,358	-0,090	0,015
-167,096	-97,585	-0,124	-0,023
-166,081	85,203	-0,037	0,030
-165,066	140,873	-0,086	-0,083
-164,052	506,485	0,097	-0,164
-163,037	-1,039	-0,043	0,022
-162,023	800,000	0,020	-0,063
-161,008	190,196	-0,072	0,079
-159,993	-50,665	-0,027	0,009
-158,979	-14,476	-0,067	-0,031
-157,964	285,252	0,069	-0,091
-156,950	84,579	0,071	0,056
-155,935	1,489	0,115	-0,060
-154,920	746,236	0,038	0,076
-153,906	30,235	-0,069	-0,043
-152,891	-174,006	-0,054	0,001
-151,877	-0,517	0,042	0,021
-150,862	-74,368	-0,032	0,008
-149,847	62,703	0,103	-0,075
-148,833	800,000	0,015	0,037
-147,818	16,820	0,073	0,042
-146,804	-67,856	0,045	0,013
-145,789	-200,000	0,002	0,024
-144,775	-107,037	-0,041	0,007
-143,760	-88,227	-0,075	-0,016
-142,745	-136,330	0,012	-0,001
-141,731	50,086	-0,144	-0,098
-140,716	-68,657	0,132	-0,037
-139,702	800,000	-0,056	0,121
-138,687	-124,683	0,084	-0,009
-137,672	-118,155	-0,092	0,012
-136,658	795,601	0,088	-0,177
-135,643	5,952	-0,028	0,015
-134,629	104,491	-0,088	-0,075
-133,614	-0,190	-0,081	0,042
-132,599	-200,000	0,008	0,080
-131,585	216,558	0,044	-0,051
-130,570	115,061	-0,036	0,032
-129,556	273,338	-0,044	0,057
-128,541	-109,108	-0,059	-0,009
-127,526	-164,991	0,029	-0,001
-126,512	-22,052	-0,047	0,021
-125,497	-61,354	0,144	0,044
-124,483	-200,000	-0,003	0,060
-123,468	-17,434	-0,010	-0,005
-122,453	800,000	-0,030	0,090
-121,439	-200,000	0,022	0,152
-120,424	635,196	-0,016	0,029
-119,410	209,538	0,071	0,081
-118,395	-76,698	-0,126	0,032
-117,380	314,985	0,026	0,036
-116,366	358,877	-0,050	-0,072
-115,351	-102,963	-0,185	-0,032
-114,337	-200,000	-0,016	-0,069
-113,322	-200,000	0,012	-0,079
-112,307	24,653	0,126	-0,076
-111,293	-104,352	0,085	0,014
-110,278	-124,934	0,071	0,008
-109,264	30,988	0,040	0,025
-108,249	-99,016	-0,037	-0,007
-107,234	33,599	0,055	0,034
-106,220	-106,466	0,044	0,007
-105,205	800,000	0,014	0,034
-104,191	-200,000	-0,018	-0,107
-103,176	85,175	-0,091	-0,073
-102,162	36,821	0,079	-0,050
-101,147	800,000	-0,037	0,081
-100,132	-200,000	-0,009	-0,061
-99,118	-49,910	-0,061	0,021
-98,103	800,000	-0,023	0,054
-97,089	122,545	0,053	-0,048
-96,074	16,564	0,090	-0,051
-95,059	-10,243	0,026	0,012
-94,045	-200,000	0,020	0,074
-93,030	35,432	0,055	0,035
-92,016	-200,000	-0,052	-0,183
-91,001	-0,980	-0,090	-0,046
-89,986	180,383	-0,062	0,066
-88,972	-128,225	0,014	0,001
-87,957	-90,422	-0,058	-0,012
-86,943	-108,632	0,019	-0,003
-85,928	152,806	-0,070	0,070
-84,913	800,000	-0,032	-0,090
-83,899	-88,574	-0,089	-0,019
-82,884	42,713	0,167	-0,110
-81,870	800,000	0,038	0,098
-80,855	362,505	0,015	-0,021
-79,840	-183,075	-0,099	-0,001
-78,826	-200,000	0,009	-0,064
-77,811	-200,000	0,004	-0,028
-76,797	-200,000	-0,003	-0,103
-75,782	32,197	0,045	-0,028
-74,767	-200,000	0,051	-0,222
-73,753	-200,000	-0,046	0,170
-72,738	113,382	-0,062	0,054
-71,724	255,826	0,101	-0,126
-70,709	-200,000	-0,040	-0,149
-69,694	146,569	-0,098	-0,095
-68,680	800,000	-0,014	0,042
-67,665	202,092	-0,028	0,031
-66,651	25,464	0,106	-0,064
-65,636	127,612	-0,019	-0,018
-64,622	-178,263	-0,062	0,001
-63,607	388,188	-0,063	-0,095
-62,592	37,917	-0,069	-0,044
-61,578	-87,619	-0,046	0,010
-60,563	-23,906	-0,036	0,016
-59,549	-57,184	-0,114	-0,036
-58,534	-42,998	-1,726	-0,631
-57,519	800,000	-0,545	-1,236
-56,505	-200,000	-1,223	-4,810
-55,490	-186,719	0,691	-0,007
-54,476	800,000	5,227	12,096
-53,461	-200,000	16,015	279,374
-52,446	-200,000	702,644	2267,453
-51,432	587,229	1616,113	2893,925
-50,417	125,613	1619,543	1481,483
-49,403	89,000	1280,857	1032,342
-48,388	38,060	1026,197	660,006
-47,373	21,699	988,565	581,636
-46,359	20,487	977,140	570,888
-45,344	18,700	973,091	562,611
-44,330	18,810	971,763	562,185
-43,315	18,503	970,020	560,146
-42,300	18,481	968,910	559,408
-41,286	18,472	967,930	558,791
-40,271	18,439	966,992	558,121
-39,257	18,449	966,224	557,685
-38,242	18,445	965,548	557,262
-37,227	18,453	964,836	556,854
-36,213	18,425	963,666	556,066
-35,198	18,476	962,659	555,630
-34,184	18,450	962,262	555,293
-33,169	18,452	961,051	554,580
-32,154	18,491	960,233	554,210
-31,140	18,485	959,517	553,758
-30,125	18,496	958,827	553,371
-29,111	18,459	958,039	552,777
-28,096	18,465	957,267	552,327
-27,082	18,457	956,503	551,839
-26,067	18,455	955,846	551,431
-25,052	18,486	955,057	551,053
-24,038	18,424	954,230	550,356
-23,023	18,438	953,521	549,971
-22,009	18,484	952,914	549,746
-20,994	18,495	952,247	549,375
-19,979	18,440	951,614	548,813
-18,965	18,441	951,072	548,479
-17,950	18,413	950,500	548,039
-16,936	18,395	949,845	547,580
-15,921	18,419	949,053	547,181
-14,906	18,346	948,307	546,492
-13,892	18,312	947,828	546,087
-12,877	18,280	947,286	545,649
-11,863	18,306	946,465	545,239
-10,848	18,308	946,116	545,022
-9,833	18,439	945,523	545,078
-8,819	18,380	944,848	544,478
-7,804	18,344	944,157	543,944
-6,790	18,231	943,883	543,404
-5,775	18,337	943,086	543,262
-4,760	18,318	942,485	542,835
-3,746	18,341	941,808	542,495
-2,731	18,252	941,005	541,729
-1,717	18,140	940,491	541,054
-0,702	18,191	939,667	540,719
0,313	17,929	939,145	540,402
1,327	21,114	937,232	549,357
2,342	30,496	794,455	490,684
3,356	27,091	448,175	271,672
4,371	-4,274	294,818	147,191
5,386	-8,149	276,053	134,118
6,400	-9,861	270,527	129,822
7,415	-10,085	268,146	128,461
8,429	-9,686	267,029	128,283
9,444	-9,634	266,263	127,951
10,459	-9,440	265,657	127,827
11,473	-9,502	265,132	127,506
12,488	-9,437	264,493	127,246
13,502	-9,512	264,017	126,937
14,517	-9,144	263,792	127,153
15,531	-8,769	263,429	127,308
16,546	-8,722	263,177	127,217
17,561	-8,674	262,712	127,025
18,575	-8,578	262,386	126,943
19,590	-8,635	262,104	126,744
20,604	-8,369	261,900	126,874
21,619	-8,573	261,558	126,513
22,634	-8,598	261,160	126,286
23,648	-8,548	260,874	126,182
24,663	-8,682	260,663	125,949
25,677	-8,545	260,239	125,855
26,692	-8,697	260,093	125,637
27,707	-8,617	259,843	125,577
28,721	-8,902	259,685	125,234
29,736	-8,766	259,382	125,198
30,750	-8,726	259,095	125,084
31,765	-8,624	258,859	125,050
32,780	-8,600	258,545	124,908
33,794	-8,639	258,410	124,797
34,809	-8,839	258,235	124,524
35,823	-8,692	257,947	124,505
36,838	-8,881	257,783	124,246
37,853	-8,868	257,457	124,090
38,867	-8,879	257,051	123,873
39,882	-8,937	257,133	123,851
40,896	-8,714	256,756	123,855
41,911	-8,912	256,714	123,648
42,926	-8,617	256,377	123,736
43,940	-8,685	256,075	123,519
44,955	-8,928	255,878	123,199
45,969	-8,751	255,606	123,212
46,984	-9,084	255,458	122,838
47,999	-9,189	255,314	122,665
49,013	-9,067	254,877	122,551
50,028	-9,040	254,841	122,547
51,042	-9,206	254,541	122,246
52,057	-9,142	254,250	122,151
53,071	-9,195	254,062	122,004
54,086	-9,209	253,841	121,874
55,101	-9,016	253,540	121,888
56,115	-8,944	253,552	121,945
57,130	-8,767	253,249	121,943
58,144	-8,809	253,131	121,839
59,159	-8,796	253,011	121,782
60,174	-8,896	252,801	121,582
61,188	-8,766	252,501	121,540
62,203	-8,694	252,186	121,440
63,217	-8,664	252,046	121,388
64,232	-8,664	251,917	121,315
65,247	-8,808	251,624	121,039
66,261	-8,925	251,526	120,879
67,276	-8,671	251,046	120,857
68,290	-9,140	251,006	120,423
69,305	-9,201	250,755	120,239
70,320	-8,978	250,556	120,325
71,334	-9,093	250,500	120,188
72,349	-8,610	250,326	120,509
73,363	-8,882	250,038	120,126
74,378	-8,776	249,768	120,076
75,393	-8,858	249,612	119,920
76,407	-8,822	249,485	119,880
77,422	-8,772	249,256	119,802
78,436	-8,738	248,908	119,653
79,451	-8,609	248,607	119,607
80,466	-8,754	248,494	119,419
81,480	-8,993	248,403	119,161
82,495	-8,849	248,056	119,107
83,509	-8,795	247,996	119,113
84,524	-8,968	247,797	118,860
85,539	-8,972	247,659	118,779
86,553	-8,953	247,475	118,697
87,568	-8,922	247,154	118,559
88,582	-9,133	247,091	118,339
89,597	-9,068	246,820	118,254
90,611	-9,131	246,832	118,195
91,626	-8,822	246,586	118,328
92,641	-8,936	246,398	118,131
93,655	-8,861	246,223	118,100
94,670	-8,955	245,928	117,869
95,684	-9,037	245,663	117,662
96,699	-9,126	245,618	117,556
97,714	-8,908	245,351	117,600
98,728	-8,934	245,244	117,517
99,743	-9,130	245,071	117,259
100,757	-9,086	244,818	117,164
101,772	-8,995	244,538	117,096
102,787	-9,030	244,345	116,963
103,801	-9,046	244,173	116,858
104,816	-9,039	244,106	116,821
105,830	-8,991	243,972	116,787
106,845	-8,820	243,620	116,750
107,860	-9,086	243,585	116,501
108,874	-9,032	243,273	116,386
109,889	-9,151	243,000	116,146
110,903	-9,256	242,858	115,981
111,918	-9,130	242,613	115,958
112,933	-9,239	242,705	115,902
113,947	-9,219	242,533	115,826
114,962	-9,058	242,123	115,752
115,976	-8,900	242,010	115,819
116,991	-9,081	241,870	115,592
118,006	-9,070	241,729	115,524
119,020	-9,083	241,570	115,426
120,035	-8,772	241,469	115,625
121,049	-9,027	241,318	115,332
122,064	-8,856	240,971	115,297
123,079	-8,899	240,847	115,192
124,093	-8,892	240,667	115,100
125,108	-9,007	240,497	114,915
126,122	-9,001	240,278	114,805
127,137	-9,313	240,271	114,535
128,151	-8,986	239,898	114,615
129,166	-9,193	239,725	114,353
130,181	-9,223	239,612	114,264
131,195	-9,199	239,423	114,184
132,210	-8,962	239,165	114,244
133,224	-9,127	238,934	113,988
134,239	-9,230	238,921	113,888
135,254	-9,075	238,636	113,869
136,268	-9,154	238,455	113,707
137,283	-9,147	238,275	113,618
138,297	-9,176	238,170	113,533
139,312	-9,105	237,723	113,368
140,327	-8,980	237,683	113,440
141,341	-8,804	237,660	113,562
142,356	-9,069	237,503	113,262
143,370	-8,906	237,321	113,297
144,385	-8,686	237,269	113,441
145,400	-8,527	237,045	113,452
146,414	-8,769	236,918	113,186
147,429	-8,584	236,736	113,238
148,443	-8,851	236,412	112,857
149,458	-8,700	236,325	112,927
150,473	-8,938	236,100	112,618
151,487	-9,055	235,913	112,425
152,502	-9,009	235,792	112,394
153,516	-8,697	235,663	112,573
154,531	-8,781	235,483	112,409
155,546	-8,785	235,277	112,298
156,560	-8,965	235,116	112,067
157,575	-9,158	234,862	111,782
158,589	-8,963	234,630	111,817
159,604	-8,677	234,625	112,033
160,619	-8,585	234,470	112,023
161,633	-8,550	234,306	111,963
162,648	-8,646	234,232	111,840
163,662	-8,689	234,045	111,707
164,677	-9,027	233,776	111,299
165,692	-9,098	233,717	111,205
166,706	-8,550	233,477	111,517
167,721	-8,680	233,422	111,377
168,735	-8,584	233,274	111,372
169,750	-8,711	233,085	111,172
170,764	-8,765	232,865	111,014
171,779	-8,805	232,699	110,893
172,794	-8,604	232,684	111,036
173,808	-8,965	232,425	110,616
174,823	-9,090	232,174	110,388
175,837	-9,144	231,933	110,221
176,852	-9,158	231,876	110,173
177,867	-9,216	231,907	110,133
178,881	-8,936	231,576	110,186
179,896	-8,740	231,519	110,304
180,910	-8,531	231,286	110,347
181,925	-8,795	231,168	110,073
182,940	-8,535	230,873	110,127
183,954	-8,711	230,749	109,920
184,969	-8,457	230,840	110,153
185,983	-8,258	230,511	110,142
186,998	-8,407	230,438	109,981
188,013	-8,575	230,209	109,730
189,027	-8,635	230,026	109,586
190,042	-8,401	229,868	109,684
191,056	-8,675	229,784	109,420
192,071	-8,572	229,470	109,341
193,086	-8,942	229,290	108,958
194,100	-9,660	228,956	108,231
195,115	-11,136	228,164	106,702
196,129	-11,329	228,194	106,556
197,144	-6,827	229,740	110,782
198,159	-1,333	231,266	115,813
199,173	1,962	232,191	118,852
200,188	2,991	232,247	119,677
201,202	3,395	232,190	119,953
202,217	3,548	232,100	120,015
203,232	3,670	232,061	120,080
204,246	3,848	231,835	120,092
205,261	3,896	231,685	120,040
206,275	3,840	231,456	119,868
207,290	3,921	231,483	119,934
208,304	3,685	231,185	119,585
209,319	3,882	231,118	119,693
210,334	3,836	230,798	119,481
211,348	3,498	230,556	119,083
212,363	2,914	230,213	118,442
213,377	2,773	230,006	118,215
214,392	2,365	229,835	117,801
215,407	2,391	229,790	117,787
216,421	2,410	229,502	117,644
217,436	2,316	229,366	117,492
218,450	2,293	229,152	117,354
219,465	2,340	229,034	117,318
220,480	2,287	228,943	117,221
221,494	2,343	228,685	117,121
222,509	2,525	228,803	117,312
223,523	2,578	228,573	117,224
224,538	2,566	228,400	117,116
225,553	2,504	228,231	116,971
226,567	2,396	228,173	116,848
227,582	2,427	227,830	116,686
228,596	2,486	227,859	116,735
229,611	2,287	227,761	116,522
230,626	2,362	227,504	116,438
231,640	2,517	227,245	116,413
232,655	2,394	227,171	116,271
233,669	2,505	226,953	116,234
234,684	2,503	226,957	116,224
235,699	2,533	226,856	116,184
236,713	2,483	226,783	116,099
237,728	2,614	226,448	116,017
238,742	2,581	226,332	115,922
239,757	2,661	226,230	115,920
240,772	2,592	226,308	115,897
241,786	2,831	225,958	115,889
242,801	3,009	225,806	115,936
243,815	3,118	225,661	115,934
244,830	2,957	225,601	115,771
245,844	2,921	225,333	115,595
246,859	2,939	225,156	115,508
247,874	2,949	225,040	115,446
248,888	2,812	224,960	115,291
249,903	2,681	224,683	115,040
250,917	2,591	224,635	114,937
251,932	2,707	224,567	114,979
252,947	2,856	224,246	114,917
253,961	2,785	224,160	114,809
254,976	2,714	223,998	114,663
255,990	2,923	224,004	114,813
257,005	2,809	223,785	114,605
258,020	2,972	223,586	114,615
259,034	3,022	223,553	114,625
260,049	2,910	223,328	114,416
261,063	2,784	223,230	114,261
262,078	2,877	223,084	114,246
263,093	2,891	222,926	114,166
264,107	2,836	222,832	114,065
265,122	2,654	222,682	113,843
266,136	2,922	222,395	113,886
267,151	2,958	222,292	113,850
268,166	2,713	222,206	113,613
269,180	2,763	222,037	113,553
270,195	2,636	221,717	113,285
271,209	2,545	221,725	113,211
272,224	2,814	221,548	113,311
273,239	2,576	221,417	113,058
274,253	2,552	221,381	113,011
275,268	2,501	221,064	112,801
276,282	2,503	220,865	112,691
277,297	2,398	220,815	112,578
278,312	2,453	220,730	112,565
279,326	2,569	220,587	112,568
280,341	2,666	220,323	112,495
281,355	2,594	220,229	112,383
282,370	2,683	220,074	112,361
283,384	2,606	219,952	112,231
284,399	2,626	219,766	112,141
285,414	2,763	219,616	112,155
286,428	2,847	219,554	112,176
287,443	2,747	219,429	112,028
288,457	2,814	219,204	111,952
289,472	2,881	219,108	111,942
290,487	2,347	219,003	111,487
291,501	2,531	218,729	111,473
292,516	2,620	218,754	111,541
293,530	2,812	218,472	111,527
294,545	2,755	218,420	111,449
295,560	2,802	218,374	111,450
296,574	2,954	218,202	111,463
297,589	2,800	218,133	111,306
298,603	2,897	217,908	111,251
299,618	2,851	217,829	111,167
300,633	2,888	217,767	111,153
301,647	2,982	217,703	111,179
302,662	2,929	217,508	111,031
303,676	2,905	217,301	110,898
304,691	2,886	217,208	110,827
305,706	2,809	217,110	110,711
306,720	2,904	216,811	110,617
307,735	3,024	216,685	110,630
308,749	2,756	216,597	110,382
309,764	2,821	216,540	110,390
310,779	2,835	216,310	110,273
311,793	2,733	216,158	110,112
312,808	2,771	216,050	110,075
313,822	2,826	215,777	109,965
314,837	2,628	215,708	109,777
315,852	2,651	215,495	109,676
316,866	2,930	215,365	109,800
317,881	2,881	215,119	109,630
318,895	2,831	215,124	109,587
319,910	2,796	214,966	109,471
320,925	2,637	214,766	109,246
321,939	2,642	214,708	109,210
322,954	2,453	214,501	108,960
323,968	2,574	214,431	109,001
324,983	2,718	214,293	109,024
325,997	2,505	214,180	108,805
327,012	2,587	213,947	108,735
328,027	2,494	213,855	108,612
329,041	2,743	213,656	108,679
330,056	2,745	213,512	108,598
331,070	2,660	213,277	108,408
332,085	2,568	213,350	108,370
333,100	2,693	213,179	108,363
334,114	2,835	213,039	108,382
335,129	2,872	212,831	108,293
336,143	2,610	212,731	108,046
337,158	2,718	212,573	108,033
338,173	2,715	212,358	107,912
339,187	2,613	212,339	107,821
340,202	2,549	212,077	107,633
341,216	2,743	211,915	107,678
342,231	2,636	211,988	107,630
343,246	2,670	211,865	107,582
344,260	2,596	211,750	107,462
345,275	2,716	211,566	107,443
346,289	2,839	211,435	107,454
347,304	2,722	211,270	107,278
348,319	2,823	211,126	107,267
349,333	2,626	211,029	107,069
350,348	2,426	210,883	106,845
351,362	2,617	210,835	106,945
352,377	2,845	210,611	106,982
353,392	2,746	210,612	106,904
354,406	2,425	210,311	106,517
355,421	193,044	1340,921	1424,264
356,435	154,067	1478,703	1424,301
