DTS Sentinel unit serial number:	SN410029Multiplexer serial number:	ORYXHardware model number:	OX2-SRSoftware version number:	ORYX F/W v4,00 Oryx Data Collector v3.7.2.0data status	okinstallation	B6 Nyhavnadifferential loss correction	single-endedforward channel	channel 2reverse channel	N/Adate	2023/12/09time	08:05:08forward acquisition time	300,00reverse acquisition time	0,00gamma	499,1914k internal	0,3139k external	0,3139temperature offset calibration	1,0000default loss term (dB/km)	0,3820temperature slope calibration	1,0000multiplexer offset coefficient	1,0000multiplexer slope coefficient	1,0000fibre end	0,00T internal ref (°C)	18,50T ext. ref 1 (°C)	1,92T ext. ref 2 (°C)	1,90length (m)	temperature (°C)	Stokes	anti-Stokes-744,400	800,000	-0,015	-0,035
-743,385	18,047	-0,250	0,147
-742,371	49,564	0,153	-0,107
-741,356	-111,314	-0,259	0,039
-740,342	-200,000	-0,017	0,062
-739,327	-62,345	-0,291	0,089
-738,312	-200,000	-0,003	-0,059
-737,298	-115,041	-0,273	-0,038
-736,283	-122,189	0,162	-0,019
-735,269	-33,419	-0,325	0,133
-734,254	-42,452	0,073	-0,027
-733,239	-54,875	-0,515	-0,171
-732,225	42,810	0,152	0,102
-731,210	64,750	-0,056	0,041
-730,196	30,043	0,073	-0,046
-729,181	-150,988	-0,162	0,009
-728,167	-142,497	-0,130	0,009
-727,152	47,268	0,027	-0,018
-726,137	-200,000	-0,048	-0,175
-725,123	148,194	-0,151	-0,151
-724,108	193,189	-0,097	-0,109
-723,094	-156,680	0,068	0,003
-722,079	-200,000	-0,004	-0,022
-721,064	-200,000	-0,010	0,036
-720,050	43,928	-0,066	-0,045
-719,035	-200,000	0,008	-0,099
-718,021	800,000	0,029	-0,066
-717,006	230,268	-0,100	-0,122
-715,991	-200,000	-0,028	-0,106
-714,977	-7,424	-0,058	-0,029
-713,962	-14,166	-0,107	0,051
-712,948	205,740	-0,101	0,116
-711,933	-200,000	0,018	0,088
-710,918	194,997	0,041	0,046
-709,904	161,766	-0,031	-0,033
-708,889	28,483	-0,072	-0,045
-707,875	321,388	-0,030	-0,042
-706,860	-200,000	-0,004	-0,017
-705,845	414,484	-0,065	-0,103
-704,831	-89,083	0,041	-0,009
-703,816	800,000	-0,003	-0,009
-702,802	-51,490	0,055	-0,019
-701,787	-42,056	-0,072	0,027
-700,772	730,053	-0,028	-0,056
-699,758	-168,580	0,049	-0,001
-698,743	163,116	-0,055	0,057
-697,729	144,033	-0,045	0,044
-696,714	-200,000	-0,012	0,080
-695,699	163,875	-0,055	-0,057
-694,685	-73,894	-0,090	-0,024
-693,670	373,175	-0,014	-0,021
-692,656	-56,121	-0,022	-0,007
-691,641	-108,356	0,122	0,019
-690,627	-49,890	0,028	-0,010
-689,612	-31,887	0,050	0,021
-688,597	42,417	-0,042	-0,028
-687,583	95,303	-0,111	-0,094
-686,568	-76,772	-0,030	0,008
-685,554	30,241	-0,043	-0,027
-684,539	124,374	-0,116	0,108
-683,524	-46,899	0,038	-0,014
-682,510	-200,000	-0,007	-0,028
-681,495	73,102	-0,074	-0,057
-680,481	-159,581	-0,160	-0,006
-679,466	-61,630	0,039	0,012
-678,451	-200,000	0,033	-0,131
-677,437	-200,000	-0,009	-0,053
-676,422	122,612	-0,105	-0,097
-675,408	42,323	-0,061	0,041
-674,393	-200,000	-0,002	-0,076
-673,378	305,413	-0,049	-0,068
-672,364	286,092	-0,093	-0,125
-671,349	253,931	-0,051	-0,065
-670,335	-4,574	0,078	0,040
-669,320	-200,000	0,005	-0,042
-668,305	277,711	0,053	-0,070
-667,291	-155,181	0,104	0,005
-666,276	-89,674	0,027	-0,006
-665,262	-147,113	-0,159	0,010
-664,247	-153,628	0,063	0,003
-663,232	-24,095	-0,131	0,057
-662,218	-200,000	-0,001	-0,090
-661,203	650,227	0,048	0,091
-660,189	247,120	-0,018	0,023
-659,174	-48,104	-0,058	-0,020
-658,159	-140,756	-0,101	0,008
-657,145	-200,000	0,018	-0,103
-656,130	-200,000	0,028	0,096
-655,116	575,609	-0,040	-0,073
-654,101	275,774	-0,064	0,084
-653,086	800,000	0,073	-0,153
-652,072	87,649	-0,163	-0,133
-651,057	-200,000	-0,001	-0,107
-650,043	-126,231	0,119	0,013
-649,028	323,620	-0,102	-0,144
-648,014	82,139	0,067	-0,053
-646,999	-200,000	-0,004	0,016
-645,984	-200,000	-0,010	0,133
-644,970	512,481	-0,047	-0,082
-643,955	297,819	-0,043	-0,059
-642,941	-145,940	-0,158	0,010
-641,926	90,599	-0,059	0,049
-640,911	-119,633	0,088	-0,011
-639,897	531,476	-0,005	-0,009
-638,882	618,843	0,039	-0,073
-637,868	-200,000	-0,006	-0,100
-636,853	-121,032	0,013	0,002
-635,838	-39,688	0,017	0,007
-634,824	-200,000	0,051	-0,232
-633,809	-200,000	-0,016	-0,062
-632,795	16,609	-0,074	-0,043
-631,780	51,815	-0,089	-0,063
-630,765	-200,000	-0,030	0,114
-629,751	200,617	-0,120	0,136
-628,736	433,371	0,083	-0,134
-627,722	109,624	0,173	-0,154
-626,707	26,843	0,105	-0,065
-625,692	102,577	-0,008	-0,007
-624,678	14,716	-0,126	0,073
-623,663	-113,655	0,100	-0,014
-622,649	47,861	0,088	-0,061
-621,634	-200,000	-0,013	-0,058
-620,619	-67,215	0,111	-0,032
-619,605	149,211	0,070	0,070
-618,590	101,309	-0,163	0,140
-617,576	190,469	0,081	0,090
-616,561	-120,479	-0,155	-0,019
-615,546	-60,687	0,062	0,019
-614,532	-200,000	-0,008	0,075
-613,517	800,000	0,046	-0,108
-612,503	-28,301	0,111	-0,047
-611,488	-200,000	-0,020	0,102
-610,474	800,000	0,004	0,010
-609,459	-99,105	0,081	-0,015
-608,444	49,413	-0,047	0,033
-607,430	-95,225	-0,116	-0,023
-606,415	-200,000	0,021	-0,145
-605,401	13,084	0,086	-0,049
-604,386	-200,000	0,024	0,107
-603,371	289,469	-0,119	-0,160
-602,357	-83,443	0,024	-0,006
-601,342	800,000	-0,034	0,080
-600,328	-200,000	0,034	0,112
-599,313	-27,275	-0,123	-0,053
-598,298	-200,000	0,004	-0,076
-597,284	-56,369	0,110	0,036
-596,269	205,691	-0,088	-0,100
-595,255	-113,490	0,056	-0,008
-594,240	201,989	0,049	-0,056
-593,225	-91,623	-0,091	0,019
-592,211	166,981	-0,014	0,015
-591,196	-23,017	0,010	-0,004
-590,182	-106,748	0,088	0,014
-589,167	800,000	0,035	-0,106
-588,152	-200,000	-0,004	-0,047
-587,138	-26,015	0,074	-0,032
-586,123	-104,867	-0,065	-0,011
-585,109	43,829	-0,130	-0,088
-584,094	800,000	0,018	-0,039
-583,079	-200,000	-0,036	0,189
-582,065	-137,525	0,110	-0,009
-581,050	-194,024	0,103	-0,001
-580,036	89,478	-0,079	0,065
-579,021	-200,000	-0,008	-0,135
-578,006	47,045	-0,074	-0,051
-576,992	-200,000	-0,123	0,000
-575,977	-76,630	0,100	-0,026
-574,963	-181,704	0,104	0,001
-573,948	33,082	0,114	0,073
-572,934	-200,000	0,004	0,164
-571,919	98,165	0,028	0,024
-570,904	-37,693	0,133	-0,052
-569,890	733,778	0,038	0,076
-568,875	144,776	-0,027	-0,027
-567,861	-173,612	0,068	0,001
-566,846	-55,333	0,061	-0,020
-565,831	800,000	0,029	0,068
-564,817	800,000	-0,007	0,022
-563,802	303,326	-0,026	-0,035
-562,788	-84,593	-0,073	0,017
-561,773	-36,528	0,053	-0,021
-560,758	-200,000	0,000	-0,072
-559,744	-200,000	-0,001	-0,013
-558,729	-200,000	-0,034	0,158
-557,715	800,000	0,009	-0,018
-556,700	536,281	-0,049	0,085
-555,685	84,921	-0,132	-0,107
-554,671	-200,000	0,010	0,056
-553,656	-83,967	-0,095	0,022
-552,642	712,614	0,058	0,113
-551,627	17,270	-0,038	-0,022
-550,612	140,855	0,042	0,041
-549,598	358,191	-0,099	-0,146
-548,583	-157,592	0,052	-0,002
-547,569	145,226	0,053	0,052
-546,554	-200,000	-0,002	0,037
-545,539	-81,517	-0,026	-0,006
-544,525	800,000	0,005	-0,010
-543,510	-200,000	0,003	0,019
-542,496	-153,181	-0,046	0,002
-541,481	-42,474	-0,134	-0,050
-540,466	-200,000	-0,014	0,049
-539,452	170,672	-0,026	0,027
-538,437	-79,195	-0,069	-0,017
-537,423	-174,202	0,137	0,003
-536,408	-200,000	0,026	0,088
-535,393	-56,236	-0,133	0,043
-534,379	127,359	-0,060	-0,056
-533,364	78,958	-0,103	-0,081
-532,350	-25,460	-0,030	0,013
-531,335	-200,000	-0,016	-0,076
-530,321	-200,000	-0,018	-0,063
-529,306	174,220	-0,062	-0,066
-528,291	329,090	-0,076	-0,108
-527,277	-200,000	-0,042	0,191
-526,262	-188,845	-0,066	0,001
-525,248	371,617	-0,027	-0,040
-524,233	-200,000	-0,009	-0,040
-523,218	-65,226	0,103	-0,030
-522,204	-116,982	-0,049	0,007
-521,189	-200,000	-0,021	-0,195
-520,175	55,117	0,090	-0,064
-519,160	301,516	0,042	-0,057
-518,145	159,081	-0,052	0,053
-517,131	-36,971	0,128	0,050
-516,116	-68,909	0,112	-0,032
-515,102	118,616	0,076	-0,069
-514,087	-72,040	-0,079	-0,021
-513,072	800,000	0,013	-0,040
-512,058	-123,456	-0,068	0,008
-511,043	-126,915	0,104	0,011
-510,029	10,601	0,079	0,044
-509,014	242,195	-0,110	0,136
-507,999	10,193	0,076	0,043
-506,985	223,039	-0,087	0,103
-505,970	289,907	0,024	-0,033
-504,956	545,156	-0,060	-0,106
-503,941	-146,945	-0,089	0,006
-502,926	-200,000	0,006	0,048
-501,912	800,000	-0,024	-0,054
-500,897	800,000	0,055	0,121
-499,883	50,359	0,009	0,006
-498,868	121,768	0,034	0,031
-497,853	-7,866	-0,074	-0,037
-496,839	446,249	0,023	-0,037
-495,824	24,865	-0,066	-0,040
-494,810	-74,148	0,124	-0,033
-493,795	800,000	0,042	0,090
-492,781	56,087	-0,027	-0,019
-491,766	459,120	-0,041	-0,067
-490,751	165,834	0,016	-0,017
-489,737	800,000	-0,074	-0,178
-488,722	-173,459	0,082	-0,002
-487,708	171,248	0,004	-0,004
-486,693	-200,000	0,004	0,124
-485,678	-200,000	0,001	-0,027
-484,664	-200,000	-0,042	-0,210
-483,649	167,122	0,060	-0,063
-482,635	-84,038	0,031	-0,007
-481,620	47,517	0,023	0,016
-480,605	-85,579	0,178	0,040
-479,591	-200,000	0,019	-0,077
-478,576	-200,000	-0,017	-0,060
-477,562	427,379	0,042	-0,067
-476,547	-3,453	0,114	-0,058
-475,532	591,500	-0,062	-0,112
-474,518	17,652	-0,048	-0,028
-473,503	-127,882	0,050	0,005
-472,489	-138,371	-0,025	-0,002
-471,474	467,011	-0,050	0,082
-470,459	-5,332	-0,055	-0,028
-469,445	-106,578	-0,091	-0,015
-468,430	-200,000	0,008	0,080
-467,416	-57,761	-0,120	0,038
-466,401	106,104	0,107	0,093
-465,386	54,709	0,058	-0,041
-464,372	430,549	0,093	-0,148
-463,357	-68,490	-0,017	0,005
-462,343	-200,000	0,011	-0,065
-461,328	-200,000	0,013	-0,082
-460,313	62,163	0,057	0,042
-459,299	3,322	0,098	0,052
-458,284	465,600	0,027	-0,045
-457,270	-88,347	-0,079	0,017
-456,255	127,622	0,078	-0,073
-455,241	113,686	-0,059	-0,053
-454,226	87,048	0,088	0,071
-453,211	14,148	0,083	0,047
-452,197	118,831	0,046	0,042
-451,182	-24,497	0,046	0,020
-450,168	287,845	0,048	0,064
-449,153	-200,000	-0,010	0,183
-448,138	197,839	-0,051	-0,058
-447,124	800,000	-0,029	-0,072
-446,109	23,881	-0,104	0,062
-445,095	-200,000	0,006	0,149
-444,080	800,000	0,033	0,081
-443,065	170,506	0,091	0,096
-442,051	-51,248	0,077	0,026
-441,036	-200,000	0,021	0,076
-440,022	-33,988	-0,084	-0,034
-439,007	-77,927	0,087	-0,022
-437,992	64,739	0,125	-0,092
-436,978	292,094	-0,003	-0,004
-435,963	19,288	0,120	0,070
-434,949	800,000	-0,039	-0,115
-433,934	-200,000	-0,021	-0,154
-432,919	-35,442	-0,103	0,041
-431,905	-200,000	0,010	-0,095
-430,890	408,417	-0,030	0,046
-429,876	46,812	-0,106	-0,072
-428,861	96,172	0,110	0,092
-427,846	13,445	0,075	0,042
-426,832	-200,000	0,004	-0,035
-425,817	501,052	0,027	0,045
-424,803	0,226	0,106	0,055
-423,788	800,000	0,025	-0,059
-422,773	494,254	-0,031	-0,052
-421,759	-166,212	0,147	-0,004
-420,744	782,716	-0,026	-0,053
-419,730	800,000	-0,027	-0,073
-418,715	-200,000	-0,007	0,028
-417,701	-59,936	-0,142	-0,044
-416,686	155,220	0,014	-0,014
-415,671	800,000	0,042	-0,111
-414,657	800,000	0,035	-0,073
-413,642	157,053	-0,041	-0,042
-412,628	-76,768	0,095	0,024
-411,613	-61,692	0,075	-0,023
-410,598	654,209	-0,054	-0,101
-409,584	-53,423	0,066	0,022
-408,569	-200,000	-0,057	0,200
-407,555	476,692	0,047	0,078
-406,540	-200,000	-0,004	-0,051
-405,525	-127,617	0,087	0,009
-404,511	-38,976	-0,115	0,044
-403,496	-200,000	0,027	0,137
-402,482	-200,000	-0,004	-0,039
-401,467	211,319	0,021	0,024
-400,452	-80,862	0,057	-0,014
-399,438	225,981	-0,061	0,072
-398,423	426,509	-0,070	-0,111
-397,409	-135,911	0,093	0,008
-396,394	45,632	-0,066	0,045
-395,379	-200,000	-0,011	0,054
-394,365	675,684	-0,042	-0,080
-393,350	-89,717	0,045	0,010
-392,336	1,229	-0,079	-0,042
-391,321	169,998	-0,083	0,086
-390,306	800,000	-0,047	0,105
-389,292	133,357	-0,038	0,036
-388,277	476,699	-0,100	0,167
-387,263	-36,970	0,115	0,045
-386,248	-94,141	0,022	-0,004
-385,233	800,000	-0,054	0,149
-384,219	279,113	0,011	-0,014
-383,204	159,352	-0,072	0,073
-382,190	800,000	-0,040	-0,090
-381,175	132,858	0,037	0,035
-380,160	516,254	0,061	-0,105
-379,146	-25,073	0,080	0,035
-378,131	-200,000	-0,012	-0,142
-377,117	210,187	-0,042	-0,048
-376,102	-200,000	0,021	-0,148
-375,088	167,468	-0,090	0,093
-374,073	-200,000	0,023	-0,089
-373,058	294,825	-0,040	0,053
-372,044	-200,000	0,017	0,067
-371,029	-121,141	0,050	-0,006
-370,015	48,649	0,094	0,064
-369,000	-200,000	-0,019	-0,127
-367,985	-200,000	-0,007	0,067
-366,971	200,115	-0,067	-0,075
-365,956	-100,151	0,126	0,023
-364,942	91,554	0,086	0,070
-363,927	-200,000	0,001	0,005
-362,912	413,897	-0,045	-0,071
-361,898	-200,000	-0,007	-0,028
-360,883	31,007	-0,072	-0,045
-359,869	-31,791	0,092	0,038
-358,854	800,000	0,016	0,038
-357,839	70,793	-0,026	-0,019
-356,825	139,496	-0,043	-0,041
-355,810	-200,000	0,040	-0,146
-354,796	322,877	-0,030	0,042
-353,781	-64,940	-0,123	0,036
-352,766	130,216	0,103	-0,096
-351,752	-35,845	0,053	-0,021
-350,737	96,505	0,152	0,127
-349,723	-200,000	0,039	0,155
-348,708	310,928	-0,041	-0,056
-347,693	-200,000	0,003	0,029
-346,679	129,762	0,056	-0,052
-345,664	-119,030	-0,109	0,014
-344,650	-24,028	-0,125	-0,054
-343,635	5,688	0,055	-0,029
-342,620	-1,650	0,184	0,094
-341,606	89,889	0,040	0,033
-340,591	-200,000	0,049	-0,168
-339,577	16,307	-0,091	-0,052
-338,562	800,000	-0,059	0,139
-337,548	160,906	-0,052	0,053
-336,533	-200,000	0,010	0,073
-335,518	201,681	0,135	-0,152
-334,504	-200,000	0,020	0,181
-333,489	-122,731	-0,051	0,006
-332,475	-100,096	0,058	0,011
-331,460	-200,000	0,025	0,110
-330,445	-137,688	0,100	0,008
-329,431	800,000	0,007	-0,018
-328,416	-200,000	-0,027	-0,100
-327,402	13,420	-0,082	0,046
-326,387	22,515	-0,027	0,016
-325,372	-100,681	0,043	0,008
-324,358	-200,000	0,006	0,094
-323,343	-92,253	-0,064	-0,013
-322,329	-16,444	0,155	-0,072
-321,314	76,929	0,042	0,033
-320,299	41,491	-0,054	0,036
-319,285	168,722	0,031	0,032
-318,270	800,000	-0,015	0,038
-317,256	-200,000	0,014	-0,125
-316,241	-200,000	-0,032	-0,115
-315,226	-0,501	-0,103	-0,053
-314,212	-200,000	0,013	0,085
-313,197	76,834	0,074	-0,058
-312,183	53,850	-0,162	-0,113
-311,168	180,274	0,091	0,097
-310,153	-29,649	-0,238	0,099
-309,139	416,059	-0,037	0,058
-308,124	800,000	-0,016	0,047
-307,110	-200,000	0,005	0,080
-306,095	-72,470	-0,154	0,041
-305,080	-104,155	0,096	-0,016
-304,066	259,603	0,010	0,013
-303,051	32,491	-0,136	-0,086
-302,037	-91,209	-0,031	0,006
-301,022	-93,705	0,140	-0,028
-300,008	-200,000	0,008	-0,084
-298,993	130,121	0,060	0,056
-297,978	-52,763	-0,042	-0,014
-296,964	-38,697	-0,080	-0,031
-295,949	469,408	-0,072	-0,118
-294,935	-96,572	-0,046	-0,009
-293,920	-56,557	0,021	-0,007
-292,905	-30,896	0,014	0,006
-291,891	360,211	0,073	0,106
-290,876	121,784	0,067	0,061
-289,862	51,786	0,030	-0,021
-288,847	276,743	0,101	0,131
-287,832	47,455	-0,021	0,014
-286,818	798,269	-0,043	0,087
-285,803	-69,375	-0,045	-0,013
-284,789	-47,346	0,116	-0,041
-283,774	-200,000	-0,030	0,100
-282,759	310,954	-0,022	0,030
-281,745	-47,264	-0,072	0,025
-280,730	-200,000	-0,006	0,072
-279,716	-138,548	0,116	-0,009
-278,701	-200,000	0,002	0,012
-277,686	-200,000	-0,000	0,095
-276,672	794,127	-0,021	-0,043
-275,657	-50,756	0,019	0,007
-274,643	-60,746	-0,063	-0,019
-273,628	-114,413	-0,025	-0,004
-272,613	183,406	-0,017	0,018
-271,599	-53,791	-0,036	-0,012
-270,584	-38,494	0,074	-0,028
-269,570	-200,000	0,003	0,049
-268,555	384,277	-0,018	0,027
-267,540	602,304	-0,101	-0,183
-266,526	72,904	0,024	0,018
-265,511	-188,025	-0,017	-0,000
-264,497	800,000	0,025	-0,054
-263,482	405,926	0,054	-0,084
-262,467	-80,414	0,140	0,034
-261,453	-200,000	0,008	-0,111
-260,438	41,200	-0,060	0,040
-259,424	313,727	-0,019	-0,026
-258,409	177,828	-0,018	-0,019
-257,395	-104,837	-0,101	0,017
-256,380	382,592	0,056	0,084
-255,365	-157,898	-0,040	0,002
-254,351	-55,662	-0,057	0,019
-253,336	68,602	-0,059	-0,044
-252,322	-200,000	0,023	0,088
-251,307	296,915	-0,034	0,046
-250,292	139,748	0,072	0,069
-249,278	135,116	-0,056	0,053
-248,263	136,515	-0,036	-0,034
-247,249	800,000	0,051	0,112
-246,234	-200,000	0,014	-0,081
-245,219	32,919	0,031	0,019
-244,205	-200,000	0,000	0,016
-243,190	-200,000	0,011	-0,106
-242,176	-67,409	-0,122	0,035
-241,161	800,000	-0,057	0,125
-240,146	800,000	0,032	0,070
-239,132	314,373	0,042	-0,058
-238,117	-200,000	-0,012	-0,167
-237,103	320,278	0,069	-0,096
-236,088	-200,000	-0,000	0,008
-235,073	574,515	0,091	0,163
-234,059	39,154	-0,160	0,104
-233,044	258,064	-0,011	0,014
-232,030	-125,648	-0,107	0,012
-231,015	417,977	-0,072	0,112
-230,000	-61,902	0,103	0,031
-228,986	-200,000	-0,002	-0,107
-227,971	-176,154	0,054	0,001
-226,957	-200,000	-0,012	0,268
-225,942	-200,000	-0,013	0,062
-224,927	-151,426	-0,153	-0,008
-223,913	-82,769	0,055	0,013
-222,898	-200,000	-0,038	-0,122
-221,884	-200,000	-0,029	-0,096
-220,869	-200,000	-0,000	0,096
-219,855	78,356	-0,066	0,051
-218,840	-62,388	0,099	0,030
-217,825	-200,000	0,015	0,059
-216,811	-82,726	-0,083	0,019
-215,796	405,789	-0,109	0,167
-214,782	9,178	-0,088	0,048
-213,767	-200,000	-0,019	-0,099
-212,752	-200,000	-0,021	0,117
-211,738	86,985	0,087	0,070
-210,723	402,080	-0,078	0,120
-209,709	768,842	-0,004	0,007
-208,694	148,152	0,062	-0,061
-207,679	800,000	-0,011	-0,032
-206,665	800,000	0,017	0,048
-205,650	-22,009	0,055	0,024
-204,636	420,385	0,063	0,098
-203,621	292,859	-0,046	0,062
-202,606	630,294	-0,018	0,034
-201,592	432,560	-0,095	-0,149
-200,577	92,566	-0,061	-0,050
-199,563	-111,799	0,050	-0,007
-198,548	292,731	0,060	0,080
-197,533	-51,917	0,065	-0,022
-196,519	-89,355	-0,050	-0,011
-195,504	-200,000	0,004	0,031
-194,490	203,909	-0,064	-0,073
-193,475	-200,000	0,018	-0,118
-192,460	169,632	-0,068	-0,071
-191,446	-15,650	0,169	-0,078
-190,431	431,418	0,018	0,028
-189,417	-162,455	-0,121	-0,004
-188,402	-200,000	-0,028	-0,110
-187,387	800,000	-0,056	-0,125
-186,373	630,386	0,036	-0,066
-185,358	-200,000	0,020	0,110
-184,344	334,206	-0,011	0,016
-183,329	-73,518	-0,013	-0,003
-182,315	800,000	-0,027	-0,063
-181,300	76,160	-0,049	-0,037
-180,285	-200,000	-0,022	-0,140
-179,271	63,688	-0,053	-0,039
-178,256	-116,118	-0,047	-0,006
-177,242	-200,000	-0,022	-0,100
-176,227	-11,115	-0,140	0,067
-175,212	151,814	-0,028	-0,028
-174,198	-200,000	-0,018	0,099
-173,183	412,358	-0,113	-0,175
-172,169	-156,367	-0,062	-0,003
-171,154	-108,584	0,208	-0,032
-170,139	507,693	0,105	0,178
-169,125	-18,123	0,073	0,033
-168,110	155,009	0,054	0,054
-167,096	-36,817	-0,111	0,043
-166,081	-168,387	0,065	0,002
-165,066	87,257	-0,092	0,074
-164,052	106,128	0,139	-0,119
-163,037	-200,000	-0,026	0,129
-162,023	30,394	0,092	0,057
-161,008	603,843	0,084	0,153
-159,993	800,000	0,062	0,166
-158,979	218,713	0,073	0,084
-157,964	-141,472	-0,111	0,008
-156,950	-200,000	0,005	-0,116
-155,935	800,000	-0,033	-0,084
-154,920	443,957	0,051	-0,082
-153,906	-80,559	-0,171	-0,041
-152,891	540,503	0,031	0,054
-151,877	264,250	0,056	-0,071
-150,862	89,406	-0,110	-0,089
-149,847	-200,000	-0,008	-0,065
-148,833	800,000	-0,024	0,055
-147,818	800,000	-0,026	-0,067
-146,804	-9,636	0,041	-0,020
-145,789	-86,495	0,121	0,027
-144,775	48,431	0,132	-0,090
-143,760	-200,000	0,018	-0,102
-142,745	800,000	0,010	0,029
-141,731	-48,213	0,020	-0,007
-140,716	263,366	-0,036	-0,046
-139,702	-147,079	-0,031	-0,002
-138,687	-132,716	-0,026	0,002
-137,672	-200,000	-0,004	0,072
-136,658	3,952	0,006	0,003
-135,643	63,949	-0,047	-0,034
-134,629	-200,000	0,011	-0,154
-133,614	220,904	0,149	0,173
-132,599	76,584	0,113	0,087
-131,585	72,364	0,049	-0,037
-130,570	46,556	-0,210	-0,141
-129,556	444,441	0,045	-0,072
-128,541	244,592	-0,083	-0,102
-127,526	-43,765	0,023	-0,008
-126,512	-121,974	-0,038	0,004
-125,497	306,071	0,058	0,078
-124,483	446,326	-0,044	0,070
-123,468	-50,402	0,201	-0,068
-122,453	415,721	-0,068	-0,105
-121,439	800,000	-0,030	0,094
-120,424	-200,000	-0,010	0,036
-119,410	-126,798	0,250	0,026
-118,395	407,601	0,091	0,139
-117,380	411,888	-0,032	0,049
-116,366	-52,599	0,024	-0,008
-115,351	-185,213	0,172	-0,002
-114,337	170,954	0,008	0,008
-113,322	800,000	-0,056	0,129
-112,307	153,800	0,147	0,146
-111,293	-35,465	-0,114	-0,045
-110,278	-200,000	0,019	0,084
-109,264	-200,000	0,018	0,116
-108,249	-200,000	-0,010	-0,076
-107,234	800,000	0,035	-0,090
-106,220	-28,157	-0,198	-0,083
-105,205	-40,911	0,152	0,056
-104,191	56,891	0,051	0,036
-103,176	4,805	0,053	0,028
-102,162	800,000	-0,069	0,152
-101,147	108,670	0,025	-0,021
-100,132	-132,831	0,038	-0,003
-99,118	524,509	-0,081	-0,139
-98,103	-124,949	0,092	0,010
-97,089	800,000	0,039	0,100
-96,074	-12,263	-0,067	0,032
-95,059	-141,588	-0,041	-0,003
-94,045	-117,579	-0,153	0,020
-93,030	500,140	-0,086	-0,145
-92,016	721,347	-0,021	-0,041
-91,001	-86,823	-0,140	-0,031
-89,986	11,620	0,073	0,041
-88,972	-81,482	0,090	0,021
-87,957	24,759	-0,079	-0,047
-86,943	-200,000	0,008	-0,055
-85,928	-13,276	-0,094	0,044
-84,913	-13,296	-0,064	-0,030
-83,899	-90,755	-0,120	0,025
-82,884	-105,935	0,038	0,006
-81,870	-52,108	-0,081	-0,027
-80,855	-153,447	0,047	-0,002
-79,840	178,113	-0,083	0,088
-78,826	800,000	0,006	0,018
-77,811	-200,000	-0,143	0,000
-76,797	-55,791	0,090	0,029
-75,782	326,517	0,032	-0,044
-74,767	-200,000	0,027	0,119
-73,753	97,830	0,027	0,022
-72,738	553,748	0,042	0,074
-71,724	134,427	-0,060	0,057
-70,709	800,000	0,041	0,095
-69,694	-62,112	0,083	-0,025
-68,680	-127,465	-0,050	0,005
-67,665	156,164	-0,066	-0,066
-66,651	800,000	-0,059	0,137
-65,636	800,000	-0,033	0,080
-64,622	400,170	-0,076	-0,116
-63,607	138,010	0,010	-0,010
-62,592	800,000	-0,013	-0,031
-61,578	46,297	-0,071	0,047
-60,563	-4,672	0,174	0,086
-59,549	258,135	-0,135	0,168
-58,534	-32,784	-1,746	-0,698
-57,519	800,000	-0,451	-1,109
-56,505	-200,000	-1,134	-4,726
-55,490	-151,866	0,645	-0,034
-54,476	800,000	5,135	12,140
-53,461	-200,000	15,927	279,322
-52,446	-200,000	703,015	2249,096
-51,432	564,219	1619,235	2843,661
-50,417	121,707	1623,097	1461,328
-49,403	82,212	1284,017	1004,467
-48,388	36,845	1028,276	654,899
-47,373	21,559	990,129	580,048
-46,359	20,501	978,847	569,928
-45,344	18,741	974,656	561,680
-44,330	18,881	973,282	561,323
-43,315	18,580	971,835	559,479
-42,300	18,567	970,718	558,771
-41,286	18,452	969,792	557,842
-40,271	18,504	968,593	557,297
-39,257	18,537	967,946	557,012
-38,242	18,608	967,106	556,737
-37,227	18,500	966,489	556,009
-36,213	18,531	965,565	555,555
-35,198	18,525	964,600	554,960
-34,184	18,561	963,883	554,643
-33,169	18,491	962,995	553,883
-32,154	18,600	961,967	553,623
-31,140	18,543	961,312	553,039
-30,125	18,586	960,400	552,630
-29,111	18,553	959,694	552,095
-28,096	18,543	959,051	551,670
-27,082	18,592	958,362	551,411
-26,067	18,530	957,448	550,664
-25,052	18,545	956,676	550,247
-24,038	18,529	955,931	549,746
-23,023	18,510	955,377	549,345
-22,009	18,600	954,758	549,257
-20,994	18,556	954,136	548,734
-19,979	18,549	953,452	548,295
-18,965	18,547	952,789	547,888
-17,950	18,515	952,354	547,511
-16,936	18,459	951,774	546,977
-15,921	18,439	951,034	546,467
-14,906	18,383	950,395	545,898
-13,892	18,402	949,537	545,445
-12,877	18,386	948,982	545,052
-11,863	18,385	948,201	544,578
-10,848	18,371	947,915	544,348
-9,833	18,510	947,222	544,373
-8,819	18,479	946,757	543,984
-7,804	18,473	945,920	543,462
-6,790	18,392	945,614	543,007
-5,775	18,433	944,868	542,687
-4,760	18,462	944,238	542,396
-3,746	18,429	943,698	541,960
-2,731	18,269	942,943	540,997
-1,717	18,216	942,201	540,382
-0,702	18,266	941,489	540,109
0,313	18,072	940,855	539,945
1,327	21,164	938,931	548,586
2,342	30,228	796,403	489,455
3,356	27,266	449,073	271,526
4,371	-2,699	295,059	148,391
5,386	-6,793	276,277	135,047
6,400	-8,155	270,546	130,965
7,415	-8,492	268,306	129,559
8,429	-8,298	267,021	129,105
9,444	-8,331	266,092	128,614
10,459	-8,220	265,445	128,391
11,473	-8,448	264,812	127,866
12,488	-8,329	264,281	127,707
13,502	-8,626	263,869	127,227
14,517	-8,452	263,311	127,104
15,531	-8,312	262,895	127,019
16,546	-8,363	262,663	126,849
17,561	-8,459	262,165	126,510
18,575	-8,266	261,924	126,557
19,590	-8,451	261,601	126,223
20,604	-8,267	261,307	126,235
21,619	-8,257	260,829	126,002
22,634	-8,462	260,478	125,638
23,648	-8,387	260,222	125,569
24,663	-8,709	260,159	125,241
25,677	-8,422	259,677	125,253
26,692	-8,459	259,519	125,133
27,707	-8,555	259,239	124,901
28,721	-8,547	259,001	124,783
29,736	-8,546	258,707	124,630
30,750	-8,457	258,435	124,567
31,765	-8,557	258,383	124,442
32,780	-8,438	257,895	124,302
33,794	-8,316	257,737	124,323
34,809	-8,494	257,656	124,115
35,823	-8,487	257,263	123,921
36,838	-8,570	257,003	123,711
37,853	-8,539	256,805	123,632
38,867	-8,417	256,582	123,622
39,882	-8,596	256,357	123,344
40,896	-8,590	256,241	123,283
41,911	-8,597	255,999	123,149
42,926	-8,620	255,695	122,971
43,940	-8,653	255,607	122,890
44,955	-8,656	255,242	122,700
45,969	-8,707	254,970	122,514
46,984	-8,828	254,814	122,323
47,999	-9,158	254,535	121,889
49,013	-9,366	254,239	121,556
50,028	-9,314	254,061	121,505
51,042	-9,421	253,784	121,269
52,057	-9,349	253,416	121,145
53,071	-9,481	253,321	120,974
54,086	-9,127	253,004	121,118
55,101	-9,151	253,027	121,098
56,115	-9,063	252,964	121,133
57,130	-8,532	252,745	121,477
58,144	-8,212	252,447	121,601
59,159	-8,145	252,328	121,590
60,174	-8,323	252,137	121,333
61,188	-8,314	252,038	121,282
62,203	-8,438	251,684	120,995
63,217	-8,409	251,415	120,879
64,232	-8,566	251,276	120,667
65,247	-8,552	251,078	120,573
66,261	-8,554	250,880	120,465
67,276	-8,663	250,406	120,133
68,290	-8,766	250,366	120,016
69,305	-8,945	250,040	119,696
70,320	-8,866	249,812	119,643
71,334	-8,748	249,702	119,681
72,349	-8,599	249,654	119,775
73,363	-8,443	249,552	119,848
74,378	-8,201	249,134	119,843
75,393	-8,331	248,853	119,586
76,407	-8,403	248,914	119,544
77,422	-8,411	248,587	119,369
78,436	-8,357	248,248	119,241
79,451	-8,550	248,242	119,064
80,466	-8,686	247,965	118,805
81,480	-8,772	247,764	118,625
82,495	-8,873	247,581	118,442
83,509	-8,711	247,426	118,494
84,524	-8,765	247,365	118,409
85,539	-8,839	246,908	118,117
86,553	-8,864	246,797	118,032
87,568	-8,903	246,535	117,863
88,582	-8,815	246,326	117,827
89,597	-8,713	246,090	117,789
90,611	-8,879	246,050	117,620
91,626	-8,571	245,950	117,821
92,641	-8,427	245,554	117,742
93,655	-8,705	245,574	117,507
94,670	-8,609	245,241	117,418
95,684	-8,654	245,137	117,320
96,699	-8,698	244,991	117,203
97,714	-8,779	244,789	117,028
98,728	-8,933	244,473	116,738
99,743	-8,976	244,273	116,596
100,757	-9,087	244,020	116,372
101,772	-9,123	243,962	116,304
102,787	-8,642	243,609	116,526
103,801	-8,715	243,633	116,466
104,816	-8,624	243,506	116,471
105,830	-8,580	243,356	116,425
106,845	-8,536	243,173	116,364
107,860	-8,573	242,927	116,205
108,874	-8,681	242,787	116,038
109,889	-8,593	242,440	115,935
110,903	-8,667	242,298	115,795
111,918	-8,943	242,222	115,521
112,933	-8,895	241,939	115,415
113,947	-8,405	241,689	115,689
114,962	-8,580	241,729	115,554
115,976	-8,571	241,652	115,514
116,991	-8,641	241,353	115,303
118,006	-8,653	241,173	115,197
119,020	-8,564	240,943	115,150
120,035	-8,680	240,914	115,031
121,049	-8,206	240,678	115,296
122,064	-8,551	240,513	114,925
123,079	-8,530	240,242	114,802
124,093	-8,714	240,049	114,549
125,108	-8,780	239,829	114,380
126,122	-8,894	239,595	114,165
127,137	-9,154	239,420	113,859
128,151	-9,062	239,360	113,895
129,166	-8,968	239,232	113,902
130,181	-8,968	238,934	113,749
131,195	-8,991	238,700	113,609
132,210	-8,769	238,729	113,793
133,224	-8,524	238,411	113,830
134,239	-8,642	238,429	113,733
135,254	-8,771	238,196	113,507
136,268	-8,682	237,899	113,428
137,283	-9,133	237,804	113,007
138,297	-9,080	237,553	112,920
139,312	-8,965	237,181	112,826
140,327	-8,597	237,123	113,085
141,341	-8,273	237,229	113,387
142,356	-8,179	237,150	113,415
143,370	-8,255	236,898	113,224
144,385	-8,252	236,770	113,154
145,400	-8,136	236,564	113,140
146,414	-8,283	236,409	112,938
147,429	-8,401	236,365	112,811
148,443	-8,228	235,972	112,753
149,458	-8,265	235,873	112,666
150,473	-8,336	235,681	112,507
151,487	-8,381	235,459	112,355
152,502	-8,357	235,321	112,298
153,516	-8,318	235,208	112,265
154,531	-8,434	234,941	112,035
155,546	-8,324	234,852	112,071
156,560	-8,403	234,588	111,872
157,575	-8,555	234,462	111,680
158,589	-8,364	234,192	111,694
159,604	-8,077	234,032	111,836
160,619	-8,033	234,018	111,854
161,633	-8,080	233,901	111,751
162,648	-8,176	233,759	111,597
163,662	-8,272	233,613	111,441
164,677	-8,342	233,335	111,243
165,692	-8,252	233,114	111,199
166,706	-8,094	233,020	111,269
167,721	-8,039	232,947	111,268
168,735	-8,147	232,932	111,165
169,750	-8,222	232,715	110,993
170,764	-8,476	232,644	110,749
171,779	-8,467	232,421	110,639
172,794	-8,043	232,199	110,858
173,808	-8,413	232,090	110,505
174,823	-8,775	231,566	109,961
175,837	-8,938	231,366	109,728
176,852	-8,500	231,365	110,062
177,867	-8,153	231,342	110,313
178,881	-8,421	231,321	110,083
179,896	-7,987	231,078	110,298
180,910	-8,362	230,948	109,932
181,925	-8,209	230,628	109,890
182,940	-8,044	230,552	109,972
183,954	-8,071	230,476	109,905
184,969	-8,004	230,499	109,959
185,983	-7,881	230,236	109,920
186,998	-8,043	230,145	109,740
188,013	-8,059	229,881	109,592
189,027	-8,114	229,840	109,519
190,042	-7,976	229,579	109,493
191,056	-7,853	229,490	109,536
192,071	-8,286	229,367	109,132
193,086	-8,119	229,026	109,089
194,100	-8,167	228,958	109,010
195,115	-8,416	228,575	108,625
196,129	-9,229	228,408	107,908
197,144	-4,812	229,980	112,076
198,159	1,146	231,496	117,456
199,173	3,190	232,023	119,309
200,188	3,318	231,963	119,367
201,202	3,262	231,903	119,282
202,217	3,774	231,724	119,578
203,232	4,016	231,566	119,673
204,246	4,149	231,402	119,682
205,261	4,068	231,442	119,628
206,275	4,301	231,197	119,672
207,290	4,260	231,173	119,617
208,304	4,132	230,960	119,397
209,319	4,203	230,750	119,333
210,334	4,081	230,593	119,147
211,348	3,928	230,365	118,900
212,363	3,586	229,991	118,433
213,377	3,357	229,948	118,223
214,392	3,241	229,796	118,044
215,407	3,466	229,619	118,116
216,421	3,613	229,362	118,087
217,436	3,156	229,404	117,746
218,450	3,117	228,965	117,480
219,465	3,177	228,929	117,498
220,480	3,275	228,788	117,490
221,494	3,007	228,735	117,247
222,509	3,382	228,574	117,441
223,523	3,280	228,496	117,312
224,538	3,026	228,272	116,993
225,553	3,294	228,018	117,057
226,567	3,549	228,010	117,238
227,582	3,761	227,844	117,303
228,596	3,781	227,797	117,284
229,611	3,455	227,663	116,956
230,626	3,306	227,294	116,642
231,640	3,098	227,240	116,446
232,655	3,388	227,238	116,655
233,669	4,027	227,198	117,110
234,684	3,960	226,948	116,920
235,699	3,592	226,761	116,534
236,713	3,594	226,420	116,350
237,728	3,282	226,380	116,082
238,742	3,389	225,994	115,955
239,757	3,360	225,858	115,853
240,772	3,356	225,826	115,823
241,786	3,379	225,696	115,764
242,801	3,454	225,638	115,781
243,815	3,706	225,681	115,982
244,830	3,762	225,374	115,857
245,844	3,503	225,229	115,576
246,859	3,537	225,008	115,478
247,874	3,661	224,880	115,496
248,888	3,493	224,843	115,340
249,903	3,681	224,551	115,321
250,917	3,373	224,454	115,030
251,932	3,494	224,360	115,063
252,947	3,436	224,050	114,849
253,961	3,310	223,982	114,710
254,976	3,246	223,865	114,592
255,990	3,557	223,820	114,791
257,005	3,693	223,710	114,826
258,020	3,466	223,546	114,562
259,034	3,799	223,314	114,682
260,049	3,660	223,316	114,569
261,063	3,545	223,036	114,329
262,078	3,702	222,939	114,386
263,093	3,902	222,809	114,458
264,107	3,811	222,640	114,294
265,122	3,655	222,556	114,125
266,136	3,756	222,478	114,149
267,151	3,957	222,225	114,158
268,166	3,504	221,961	113,677
269,180	3,297	221,670	113,364
270,195	3,434	221,601	113,421
271,209	3,400	221,502	113,334
272,224	3,455	221,443	113,335
273,239	3,484	221,336	113,292
274,253	3,352	221,026	113,025
275,268	3,511	220,764	112,998
276,282	3,153	220,793	112,739
277,297	3,102	220,592	112,589
278,312	3,371	220,458	112,708
279,326	3,255	220,453	112,611
280,341	3,483	220,163	112,620
281,355	3,452	220,246	112,630
282,370	3,127	219,980	112,245
283,384	3,221	219,702	112,162
284,399	2,991	219,590	111,926
285,414	3,029	219,488	111,892
286,428	3,239	219,466	112,025
287,443	3,410	219,304	112,058
288,457	3,622	219,132	112,114
289,472	3,225	218,907	111,699
290,487	3,050	218,676	111,444
291,501	2,854	218,653	111,279
292,516	2,838	218,583	111,222
293,530	2,815	218,429	111,117
294,545	3,161	218,276	111,281
295,560	3,296	218,055	111,257
296,574	3,330	218,021	111,254
297,589	3,326	217,899	111,178
298,603	3,609	217,747	111,296
299,618	3,635	217,662	111,262
300,633	3,503	217,520	111,084
301,647	3,665	217,405	111,133
302,662	3,614	217,365	111,066
303,676	3,657	217,146	110,975
304,691	3,622	217,012	110,871
305,706	3,678	216,872	110,830
306,720	3,602	216,662	110,658
307,735	3,350	216,613	110,441
308,749	3,224	216,333	110,198
309,764	3,451	216,253	110,311
310,779	3,535	216,144	110,306
311,793	3,390	215,972	110,104
312,808	3,515	215,644	110,017
313,822	3,092	215,616	109,689
314,837	3,387	215,504	109,834
315,852	3,254	215,405	109,678
316,866	3,404	215,409	109,778
317,881	3,648	215,184	109,828
318,895	3,554	214,954	109,634
319,910	3,560	214,692	109,495
320,925	3,235	214,537	109,174
321,939	2,893	214,460	108,881
322,954	3,043	214,333	108,913
323,968	3,451	214,346	109,201
324,983	3,450	214,240	109,137
325,997	3,557	214,218	109,192
327,012	3,617	213,941	109,084
328,027	3,378	213,894	108,880
329,041	3,646	213,808	109,017
330,056	3,650	213,598	108,904
331,070	3,395	213,400	108,612
332,085	3,250	213,091	108,342
333,100	3,281	213,025	108,321
334,114	3,322	212,940	108,297
335,129	3,604	212,675	108,352
336,143	3,119	212,747	108,037
337,158	3,190	212,566	107,985
338,173	3,405	212,395	108,040
339,187	3,187	212,344	107,851
340,202	3,020	212,110	107,604
341,216	3,237	211,845	107,613
342,231	3,027	211,931	107,500
343,246	3,377	211,669	107,603
344,260	3,095	211,575	107,347
345,275	3,290	211,469	107,421
346,289	3,283	211,401	107,372
347,304	3,560	211,246	107,478
348,319	3,386	210,979	107,211
349,333	3,310	210,857	107,086
350,348	3,441	210,687	107,082
351,362	3,557	210,783	107,202
352,377	3,483	210,524	107,009
353,392	3,404	210,370	106,866
354,406	3,400	210,237	106,786
355,421	195,913	1343,129	1430,955
356,435	156,462	1481,186	1430,991
