DTS Sentinel unit serial number:	SN410029Multiplexer serial number:	ORYXHardware model number:	OX2-SRSoftware version number:	ORYX F/W v4,00 Oryx Data Collector v3.7.2.0data status	okinstallation	B6 Nyhavnadifferential loss correction	single-endedforward channel	channel 2reverse channel	N/Adate	2023/12/10time	08:05:08forward acquisition time	300,00reverse acquisition time	0,00gamma	499,1914k internal	0,3123k external	0,3123temperature offset calibration	1,0000default loss term (dB/km)	0,3820temperature slope calibration	1,0000multiplexer offset coefficient	1,0000multiplexer slope coefficient	1,0000fibre end	0,00T internal ref (°C)	22,57T ext. ref 1 (°C)	6,33T ext. ref 2 (°C)	6,33length (m)	temperature (°C)	Stokes	anti-Stokes-744,400	189,689	0,052	0,059
-743,385	360,860	-0,094	0,141
-742,371	-14,426	0,099	0,047
-741,356	-53,845	-0,186	0,063
-740,342	-159,970	0,045	0,002
-739,327	-148,369	-0,305	0,018
-738,312	62,953	-0,048	-0,036
-737,298	-128,100	-0,283	0,030
-736,283	599,237	0,015	-0,028
-735,269	21,627	-0,256	0,155
-734,254	47,269	0,086	0,060
-733,239	-56,193	-0,440	-0,145
-732,225	-31,817	0,219	-0,091
-731,210	92,668	-0,112	0,094
-730,196	-200,000	-0,024	0,093
-729,181	98,721	-0,148	0,127
-728,167	-200,000	0,011	0,130
-727,152	361,344	-0,093	-0,139
-726,137	53,341	-0,026	-0,019
-725,123	560,059	-0,047	-0,084
-724,108	-200,000	0,001	0,022
-723,094	114,749	-0,063	-0,057
-722,079	309,521	-0,067	-0,093
-721,064	-200,000	-0,007	-0,032
-720,050	800,000	0,067	-0,169
-719,035	-200,000	-0,028	0,094
-718,021	-200,000	-0,029	-0,129
-717,006	461,590	-0,011	0,018
-715,991	106,389	-0,039	-0,034
-714,977	-7,167	-0,104	0,052
-713,962	-147,750	0,027	-0,002
-712,948	-72,635	0,095	-0,026
-711,933	-200,000	-0,004	0,021
-710,918	-17,623	-0,087	-0,040
-709,904	213,129	-0,057	-0,067
-708,889	-200,000	-0,019	-0,096
-707,875	48,517	0,142	-0,099
-706,860	-200,000	-0,013	-0,160
-705,845	440,265	0,084	-0,138
-704,831	-46,853	-0,050	-0,018
-703,816	-200,000	0,006	-0,112
-702,802	-200,000	-0,027	0,093
-701,787	288,013	-0,081	-0,110
-700,772	-73,879	0,093	-0,025
-699,758	30,878	-0,088	0,056
-698,743	223,874	-0,033	0,040
-697,729	-116,743	-0,040	0,005
-696,714	-139,409	-0,123	0,010
-695,699	-200,000	0,008	0,033
-694,685	-13,235	-0,161	-0,078
-693,670	16,556	0,023	0,014
-692,656	59,232	-0,119	0,087
-691,641	-200,000	-0,025	0,113
-690,627	-200,000	-0,015	0,057
-689,612	-117,242	0,118	0,016
-688,597	-130,712	-0,115	0,011
-687,583	-95,957	-0,120	-0,023
-686,568	-59,094	-0,153	0,049
-685,554	8,837	-0,022	0,012
-684,539	-88,977	-0,030	-0,007
-683,524	-200,000	-0,002	0,085
-682,510	-25,459	-0,067	0,029
-681,495	412,572	-0,058	0,092
-680,481	800,000	-0,016	-0,043
-679,466	46,804	0,081	-0,056
-678,451	662,141	0,048	-0,092
-677,437	-200,000	0,000	-0,027
-676,422	-174,747	0,064	0,001
-675,408	138,366	0,022	0,022
-674,393	236,247	-0,082	-0,101
-673,378	491,573	0,053	-0,091
-672,364	47,489	-0,061	0,042
-671,349	-200,000	-0,032	-0,105
-670,335	-6,189	-0,049	0,025
-669,320	161,549	-0,032	0,034
-668,305	345,996	-0,062	-0,091
-667,291	524,825	-0,058	-0,102
-666,276	-175,863	-0,060	-0,001
-665,262	68,482	0,060	-0,045
-664,247	41,616	-0,052	0,035
-663,232	-177,817	0,053	0,001
-662,218	754,248	0,033	0,066
-661,203	688,420	-0,018	0,036
-660,189	-200,000	0,038	-0,154
-659,174	131,994	0,065	0,062
-658,159	-28,822	-0,172	-0,073
-657,145	269,338	0,032	-0,042
-656,130	48,895	0,078	-0,054
-655,116	709,449	0,020	-0,039
-654,101	-200,000	-0,006	0,105
-653,086	-168,824	-0,068	-0,002
-652,072	-200,000	-0,009	-0,046
-651,057	103,368	-0,141	-0,122
-650,043	-200,000	-0,014	-0,079
-649,028	-200,000	0,020	-0,081
-648,014	133,552	-0,023	-0,022
-646,999	27,578	-0,099	0,062
-645,984	646,695	-0,038	0,072
-644,970	-180,182	0,024	-0,000
-643,955	-200,000	-0,011	-0,185
-642,941	29,323	-0,126	-0,079
-641,926	-116,618	0,055	-0,007
-640,911	547,800	0,046	-0,082
-639,897	800,000	0,017	0,051
-638,882	-158,015	0,163	0,007
-637,868	63,461	-0,118	0,087
-636,853	319,300	0,022	-0,031
-635,838	-200,000	0,005	-0,053
-634,824	800,000	-0,072	-0,174
-633,809	29,433	0,038	0,024
-632,795	193,913	-0,076	-0,085
-631,780	-17,514	0,119	0,055
-630,765	138,834	0,041	-0,040
-629,751	-129,180	-0,021	-0,002
-628,736	10,553	0,016	-0,009
-627,722	800,000	0,050	0,140
-626,707	13,619	-0,047	0,027
-625,692	196,915	0,011	0,012
-624,678	800,000	0,052	-0,160
-623,663	91,107	0,025	0,021
-622,649	-200,000	-0,165	0,000
-621,634	-85,533	-0,091	-0,021
-620,619	-200,000	0,015	-0,074
-619,605	27,585	-0,042	0,026
-618,590	800,000	0,035	0,112
-617,576	-87,345	0,169	-0,038
-616,561	165,912	0,081	-0,085
-615,546	-147,814	-0,197	0,012
-614,532	-200,000	0,012	-0,120
-613,517	-200,000	0,013	-0,068
-612,503	17,567	-0,087	-0,051
-611,488	76,506	0,054	-0,043
-610,474	24,310	-0,045	0,028
-609,459	-135,980	-0,126	-0,011
-608,444	202,458	-0,011	0,012
-607,430	56,623	-0,095	-0,068
-606,415	350,370	0,043	0,063
-605,401	216,883	-0,015	-0,017
-604,386	36,291	0,090	-0,059
-603,371	-200,000	0,003	0,115
-602,357	800,000	-0,035	-0,078
-601,342	2,507	0,064	-0,034
-600,328	-200,000	0,016	-0,117
-599,313	84,088	-0,031	-0,025
-598,298	288,317	-0,041	-0,056
-597,284	550,699	-0,037	-0,065
-596,269	-200,000	0,021	-0,108
-595,255	-156,071	0,106	0,005
-594,240	39,898	-0,117	0,077
-593,225	138,077	-0,127	0,123
-592,211	397,770	-0,096	-0,149
-591,196	161,140	-0,071	0,074
-590,182	-150,646	-0,098	0,005
-589,167	13,506	-0,102	0,059
-588,152	-78,433	-0,029	0,007
-587,138	140,625	-0,053	-0,052
-586,123	-86,596	-0,139	0,031
-585,109	-80,030	-0,228	-0,056
-584,094	198,563	-0,060	0,068
-583,079	-200,000	0,012	0,044
-582,065	-99,941	0,066	0,012
-581,050	-79,112	0,143	0,036
-580,036	389,479	0,045	-0,069
-579,021	800,000	-0,050	-0,123
-578,006	178,325	-0,041	-0,044
-576,992	261,419	-0,057	0,073
-575,977	-200,000	0,016	0,062
-574,963	800,000	0,035	-0,097
-573,948	800,000	-0,023	0,050
-572,934	97,254	-0,077	0,066
-571,919	-200,000	-0,010	0,073
-570,904	-140,774	-0,091	0,007
-569,890	-25,557	0,022	-0,010
-568,875	134,031	0,076	0,073
-567,861	101,779	-0,070	0,061
-566,846	214,937	0,040	-0,047
-565,831	581,103	0,017	-0,031
-564,817	616,382	-0,028	0,052
-563,802	-200,000	0,035	0,134
-562,788	-66,364	-0,176	-0,052
-561,773	-135,209	0,067	-0,006
-560,758	-200,000	-0,004	-0,117
-559,744	148,614	-0,046	0,046
-558,729	800,000	0,034	-0,098
-557,715	-148,472	0,111	-0,007
-556,700	-23,512	-0,022	-0,010
-555,685	-200,000	0,012	-0,102
-554,671	-200,000	0,012	-0,069
-553,656	-58,927	-0,103	0,033
-552,642	445,478	-0,038	0,063
-551,627	238,598	-0,018	-0,022
-550,612	255,502	-0,029	0,037
-549,598	-30,123	0,051	0,022
-548,583	8,310	0,057	-0,032
-547,569	-106,524	-0,064	-0,011
-546,554	-200,000	0,001	0,141
-545,539	-41,454	0,146	-0,055
-544,525	800,000	0,044	0,130
-543,510	800,000	-0,017	-0,046
-542,496	-154,195	-0,140	-0,007
-541,481	63,369	-0,122	-0,091
-540,466	-200,000	-0,015	-0,074
-539,452	-200,000	-0,033	0,155
-538,437	-200,000	0,014	-0,051
-537,423	-31,224	0,095	-0,039
-536,408	328,845	-0,075	0,107
-535,393	-200,000	0,015	-0,089
-534,379	2,001	0,047	-0,025
-533,364	-119,268	-0,211	-0,027
-532,350	-74,363	0,071	0,019
-531,335	-200,000	-0,038	-0,127
-530,321	-200,000	-0,023	0,076
-529,306	618,304	0,060	-0,113
-528,291	800,000	-0,058	-0,128
-527,277	66,260	-0,098	-0,074
-526,262	-103,724	0,010	-0,002
-525,248	106,041	-0,060	-0,052
-524,233	-200,000	0,028	-0,112
-523,218	-62,393	0,111	0,034
-522,204	50,547	-0,118	-0,082
-521,189	800,000	0,026	-0,064
-520,175	800,000	-0,009	0,020
-519,160	370,587	0,087	-0,130
-518,145	41,983	0,070	0,047
-517,131	-200,000	-0,029	0,182
-516,116	63,222	0,142	-0,105
-515,102	-51,637	-0,100	-0,034
-514,087	-74,300	-0,124	0,033
-513,072	-200,000	-0,023	-0,142
-512,058	174,141	-0,075	-0,080
-511,043	800,000	-0,007	0,020
-510,029	25,432	0,096	0,059
-509,014	-191,512	0,096	-0,001
-507,999	78,364	0,109	-0,086
-506,985	78,755	-0,082	0,065
-505,970	-200,000	0,002	0,137
-504,956	47,001	-0,144	0,098
-503,941	-139,979	0,144	-0,011
-502,926	297,306	0,023	0,031
-501,912	-92,457	-0,076	-0,016
-500,897	-200,000	-0,028	-0,097
-499,883	178,477	0,117	-0,126
-498,868	90,011	0,057	0,047
-497,853	800,000	0,055	-0,123
-496,839	-200,000	-0,005	-0,026
-495,824	97,452	-0,035	-0,030
-494,810	-42,337	0,086	-0,032
-493,795	-14,116	0,077	-0,036
-492,781	38,382	-0,070	0,046
-491,766	-0,790	-0,122	-0,064
-490,751	323,113	-0,056	-0,079
-489,737	1,144	-0,024	0,013
-488,722	78,838	0,124	-0,098
-487,708	-143,756	0,045	-0,003
-486,693	-66,720	-0,090	0,026
-485,678	98,933	0,058	-0,049
-484,664	-178,463	-0,049	0,001
-483,649	800,000	0,053	-0,129
-482,635	-92,488	-0,096	0,020
-481,620	142,154	0,102	0,100
-480,605	-23,598	0,052	-0,023
-479,591	-124,503	-0,049	0,006
-478,576	-200,000	0,004	-0,096
-477,562	-200,000	0,034	-0,172
-476,547	154,516	0,069	-0,070
-475,532	218,007	-0,042	0,050
-474,518	-200,000	0,012	0,101
-473,503	296,258	0,033	0,045
-472,489	-156,122	0,032	-0,001
-471,474	-106,129	0,062	-0,010
-470,459	162,291	-0,060	0,062
-469,445	-98,769	0,087	0,016
-468,430	-200,000	-0,020	0,107
-467,416	-200,000	0,016	0,084
-466,401	-16,000	-0,051	0,024
-465,386	-200,000	-0,007	0,088
-464,372	-200,000	-0,007	0,043
-463,357	800,000	-0,032	-0,087
-462,343	-7,256	0,078	-0,039
-461,328	31,359	-0,083	-0,052
-460,313	-200,000	0,025	-0,108
-459,299	473,831	0,069	0,115
-458,284	-18,210	0,052	0,024
-457,270	-39,113	0,084	-0,032
-456,255	107,053	0,085	0,074
-455,241	-125,714	-0,011	0,001
-454,226	139,227	0,051	-0,050
-453,211	-109,648	-0,143	-0,022
-452,197	285,435	0,101	-0,134
-451,182	156,991	-0,023	0,023
-450,168	-200,000	-0,029	0,111
-449,153	594,392	-0,029	-0,053
-448,138	-200,000	-0,009	0,052
-447,124	152,928	0,065	-0,065
-446,109	314,195	-0,043	0,060
-445,095	-144,741	-0,032	-0,002
-444,080	800,000	0,054	0,113
-443,065	800,000	-0,040	0,092
-442,051	423,193	-0,037	0,058
-441,036	-49,290	-0,077	-0,027
-440,022	800,000	-0,063	-0,147
-439,007	800,000	-0,034	0,100
-437,992	-200,000	0,046	0,148
-436,978	182,193	0,092	0,099
-435,963	194,769	0,026	0,029
-434,949	-132,902	0,024	0,002
-433,934	-200,000	0,054	0,000
-432,919	-104,324	0,066	0,011
-431,905	365,000	-0,069	-0,103
-430,890	-69,723	0,177	-0,049
-429,876	-200,000	0,031	0,156
-428,861	-200,000	-0,011	0,080
-427,846	-74,888	-0,040	0,011
-426,832	-83,950	0,056	0,013
-425,817	800,000	-0,013	-0,027
-424,803	-200,000	0,008	0,151
-423,788	168,170	0,103	-0,108
-422,773	97,432	0,025	0,021
-421,759	290,218	0,025	-0,034
-420,744	-50,791	0,125	0,043
-419,730	59,834	0,187	0,135
-418,715	-126,192	0,089	-0,010
-417,701	-200,000	-0,014	-0,052
-416,686	-33,245	-0,084	0,034
-415,671	488,701	0,051	0,087
-414,657	374,503	-0,017	-0,026
-413,642	-70,422	0,100	0,028
-412,628	630,540	-0,045	-0,083
-411,613	-200,000	-0,023	-0,164
-410,598	28,312	-0,099	0,061
-409,584	-37,368	-0,060	0,023
-408,569	-200,000	-0,008	-0,053
-407,555	39,649	0,173	-0,114
-406,540	800,000	-0,074	-0,172
-405,525	38,806	0,031	0,020
-404,511	570,217	-0,063	-0,113
-403,496	37,354	-0,070	0,045
-402,482	-200,000	-0,002	-0,058
-401,467	-9,835	0,037	0,018
-400,452	86,899	-0,080	0,065
-399,438	-39,649	0,058	0,022
-398,423	800,000	-0,003	0,007
-397,409	-91,643	-0,211	-0,044
-396,394	396,432	0,025	-0,039
-395,379	-200,000	-0,009	-0,062
-394,365	-106,933	0,228	-0,037
-393,350	-94,558	0,128	0,025
-392,336	-200,000	0,005	-0,072
-391,321	338,411	0,033	0,047
-390,306	39,670	0,063	0,042
-389,292	-122,756	0,087	-0,010
-388,277	-200,000	0,005	0,024
-387,263	-0,969	0,044	-0,023
-386,248	274,136	0,065	0,085
-385,233	-200,000	-0,015	0,058
-384,219	-97,649	0,107	0,020
-383,204	-200,000	-0,025	-0,123
-382,190	-20,467	-0,060	-0,027
-381,175	-200,000	-0,015	-0,066
-380,160	-157,937	-0,186	0,008
-379,146	-94,706	0,056	-0,011
-378,131	262,515	0,080	-0,103
-377,117	518,001	-0,086	-0,148
-376,102	800,000	-0,025	-0,051
-375,088	-33,689	-0,115	0,046
-374,073	-200,000	-0,044	-0,145
-373,058	-50,899	0,091	0,031
-372,044	-11,302	0,040	-0,019
-371,029	93,238	-0,109	0,091
-370,015	-200,000	0,028	0,126
-369,000	-200,000	-0,012	0,069
-367,985	800,000	0,039	-0,113
-366,971	800,000	-0,039	-0,119
-365,956	11,406	0,079	0,044
-364,942	56,345	-0,080	0,057
-363,927	800,000	-0,040	0,102
-362,912	2,608	0,094	-0,050
-361,898	-110,059	0,058	0,009
-360,883	-35,007	0,020	-0,008
-359,869	305,068	-0,071	-0,097
-358,854	322,393	-0,072	0,101
-357,839	-177,709	0,014	0,000
-356,825	-200,000	0,000	0,109
-355,810	-97,601	0,046	-0,009
-354,796	-29,713	0,100	-0,042
-353,781	87,614	-0,085	-0,069
-352,766	800,000	-0,012	-0,038
-351,752	34,158	-0,003	0,002
-350,737	-141,394	-0,110	-0,008
-349,723	243,252	0,079	0,097
-348,708	164,568	0,008	-0,009
-347,693	-139,763	-0,057	0,004
-346,679	-65,467	-0,055	-0,016
-345,664	331,582	0,044	0,062
-344,650	-200,000	-0,018	-0,073
-343,635	-200,000	0,001	-0,031
-342,620	-121,523	0,162	0,020
-341,606	44,951	-0,050	-0,034
-340,591	193,094	-0,029	0,032
-339,577	17,166	-0,031	0,018
-338,562	-87,294	-0,079	-0,018
-337,548	-100,473	0,147	0,026
-336,533	572,438	0,064	0,114
-335,518	328,965	-0,055	0,078
-334,504	-200,000	-0,006	0,175
-333,489	-183,315	-0,019	0,000
-332,475	117,559	-0,083	-0,075
-331,460	-82,845	0,085	0,020
-330,445	36,503	-0,101	0,065
-329,431	334,432	0,068	0,096
-328,416	-10,786	-0,117	-0,056
-327,402	-72,545	0,122	-0,033
-326,387	236,181	-0,069	0,084
-325,372	800,000	-0,088	-0,190
-324,358	114,972	-0,036	-0,032
-323,343	800,000	-0,022	0,070
-322,329	-135,462	0,111	0,010
-321,314	87,913	0,069	0,056
-320,299	293,922	0,066	-0,089
-319,285	-200,000	-0,049	-0,247
-318,270	-200,000	-0,014	-0,052
-317,256	124,542	-0,068	-0,062
-316,241	-48,616	0,116	0,041
-315,226	709,453	-0,078	0,152
-314,212	-57,022	0,077	0,025
-313,197	224,348	0,016	0,019
-312,183	-200,000	0,005	0,055
-311,168	-77,119	0,046	-0,012
-310,153	800,000	0,034	0,090
-309,139	-86,046	0,047	-0,010
-308,124	113,975	-0,044	0,040
-307,110	800,000	-0,023	0,050
-306,095	-56,324	0,102	-0,033
-305,080	-63,174	-0,098	0,030
-304,066	213,506	0,027	-0,031
-303,051	-173,261	0,016	0,000
-302,037	-200,000	0,016	-0,055
-301,022	-200,000	-0,043	-0,161
-300,008	123,986	0,104	0,096
-298,993	664,786	-0,010	0,018
-297,978	677,775	0,051	0,097
-296,964	800,000	0,022	0,048
-295,949	800,000	0,007	0,023
-294,935	107,744	0,089	0,078
-293,920	5,341	0,092	0,049
-292,905	-200,000	-0,001	0,007
-291,891	342,382	-0,048	-0,070
-290,876	310,762	-0,016	0,023
-289,862	-200,000	-0,017	-0,139
-288,847	-200,000	-0,013	0,096
-287,832	800,000	-0,012	-0,033
-286,818	800,000	0,018	-0,044
-285,803	505,443	0,065	0,110
-284,789	-106,679	-0,140	0,022
-283,774	285,631	0,087	0,115
-282,759	-200,000	-0,008	0,238
-281,745	-200,000	0,011	0,060
-280,730	-87,319	0,036	-0,008
-279,716	800,000	0,042	-0,087
-278,701	-200,000	-0,010	-0,062
-277,686	7,598	-0,055	0,030
-276,672	19,093	0,043	-0,025
-275,657	-41,456	0,152	0,057
-274,643	260,550	0,037	-0,046
-273,628	68,086	-0,137	0,103
-272,613	126,367	0,092	-0,086
-271,599	81,672	-0,088	0,070
-270,584	115,239	0,080	0,071
-269,570	231,688	0,114	0,137
-268,555	646,357	-0,057	0,107
-267,540	70,649	-0,096	-0,072
-266,526	170,901	-0,134	-0,141
-265,511	-2,381	0,054	-0,027
-264,497	291,209	0,061	-0,082
-263,482	709,634	-0,028	-0,054
-262,467	-120,596	0,026	-0,003
-261,453	-169,789	0,090	0,002
-260,438	-157,850	-0,131	-0,006
-259,424	800,000	-0,014	-0,035
-258,409	2,664	-0,082	-0,043
-257,395	107,616	-0,079	-0,069
-256,380	15,355	0,056	0,032
-255,365	-22,665	0,189	-0,083
-254,351	-113,700	0,031	-0,004
-253,336	229,839	-0,042	0,051
-252,322	38,267	-0,083	0,054
-251,307	4,276	0,055	0,029
-250,292	-200,000	0,008	-0,059
-249,278	-200,000	-0,029	0,137
-248,263	-28,693	-0,037	-0,016
-247,249	63,065	-0,047	0,035
-246,234	-24,802	-0,109	-0,047
-245,219	19,164	-0,040	-0,023
-244,205	800,000	-0,037	-0,092
-243,190	-22,644	0,154	-0,068
-242,176	272,110	0,076	0,099
-241,161	594,621	0,059	0,107
-240,146	-200,000	-0,008	0,093
-239,132	-149,239	-0,123	0,007
-238,117	304,351	-0,022	-0,029
-237,103	-8,350	-0,091	0,045
-236,088	-144,093	0,068	-0,005
-235,073	-200,000	0,006	0,058
-234,059	40,970	0,114	0,075
-233,044	-200,000	-0,006	0,039
-232,030	685,058	-0,046	-0,088
-231,015	115,064	-0,108	-0,096
-230,000	239,365	0,070	-0,086
-228,986	800,000	0,038	0,122
-227,971	-200,000	0,017	0,126
-226,957	179,188	0,111	0,119
-225,942	-70,797	-0,035	0,010
-224,927	14,677	0,115	-0,066
-223,913	272,308	0,038	0,049
-222,898	1,776	-0,116	-0,061
-221,884	-123,121	-0,037	0,004
-220,869	304,991	-0,026	0,036
-219,855	325,018	0,061	0,085
-218,840	95,089	0,090	0,074
-217,825	-145,463	-0,100	-0,006
-216,811	181,460	0,093	0,100
-215,796	-153,461	0,123	-0,006
-214,782	81,412	0,085	0,067
-213,767	133,705	0,056	0,053
-212,752	187,635	0,064	0,070
-211,738	-15,421	0,066	0,031
-210,723	341,647	-0,038	0,055
-209,709	472,792	0,051	0,084
-208,694	323,860	-0,095	-0,133
-207,679	-10,851	-0,060	-0,029
-206,665	133,476	-0,087	0,082
-205,650	70,838	0,034	0,026
-204,636	-79,378	0,156	0,038
-203,621	-94,894	-0,191	-0,037
-202,606	-147,365	0,049	-0,003
-201,592	179,183	0,056	-0,060
-200,577	342,607	-0,055	-0,079
-199,563	-200,000	-0,012	-0,074
-198,548	-118,614	0,103	-0,013
-197,533	800,000	-0,008	0,019
-196,519	-200,000	0,020	0,096
-195,504	-143,926	-0,051	-0,003
-194,490	800,000	-0,072	0,163
-193,475	175,176	0,073	0,078
-192,460	-200,000	0,004	0,069
-191,446	-140,344	0,010	-0,001
-190,431	-115,540	-0,088	0,012
-189,417	53,240	-0,166	0,116
-188,402	169,215	0,059	0,062
-187,387	127,325	-0,113	-0,104
-186,373	34,675	-0,079	0,050
-185,358	-200,000	0,012	-0,118
-184,344	244,996	0,029	0,035
-183,329	39,524	0,113	0,074
-182,315	260,575	-0,123	-0,156
-181,300	-130,473	-0,149	-0,015
-180,285	231,087	-0,056	-0,066
-179,271	-200,000	-0,002	0,137
-178,256	-45,818	-0,101	0,036
-177,242	-3,600	0,100	-0,051
-176,227	-73,382	0,072	0,019
-175,212	-84,580	-0,042	-0,010
-174,198	-49,988	-0,206	0,071
-173,183	164,262	-0,060	-0,062
-172,169	-200,000	-0,020	-0,066
-171,154	800,000	-0,032	0,084
-170,139	145,378	0,069	0,067
-169,125	800,000	0,051	0,108
-168,110	221,357	0,058	0,067
-167,096	144,478	0,087	-0,085
-166,081	-105,026	-0,138	-0,023
-165,066	-82,468	0,032	-0,007
-164,052	23,046	-0,020	-0,012
-163,037	-200,000	0,011	0,091
-162,023	725,118	0,017	0,033
-161,008	-132,639	0,101	0,009
-159,993	91,686	-0,078	-0,064
-158,979	53,912	-0,059	0,041
-157,964	800,000	-0,031	-0,094
-156,950	-200,000	0,017	-0,084
-155,935	25,679	0,055	0,033
-154,920	49,980	0,059	0,041
-153,906	175,688	0,074	-0,079
-152,891	-200,000	-0,016	0,139
-151,877	-48,355	0,122	0,043
-150,862	-200,000	0,032	-0,157
-149,847	128,677	-0,042	-0,039
-148,833	-59,544	0,038	0,012
-147,818	800,000	0,014	-0,034
-146,804	221,597	-0,065	0,076
-145,789	40,135	0,080	0,052
-144,775	-82,428	0,144	-0,034
-143,760	677,000	0,047	-0,089
-142,745	77,922	0,107	-0,083
-141,731	-7,979	-0,079	-0,039
-140,716	345,460	-0,014	0,020
-139,702	-58,384	0,059	0,019
-138,687	538,187	0,032	-0,056
-137,672	800,000	-0,009	-0,021
-136,658	-110,511	-0,168	-0,025
-135,643	-200,000	-0,001	-0,035
-134,629	659,760	-0,011	0,021
-133,614	157,276	-0,143	0,144
-132,599	-200,000	-0,038	0,134
-131,585	800,000	0,064	0,191
-130,570	338,910	-0,038	-0,054
-129,556	-177,972	0,060	-0,001
-128,541	-121,544	-0,084	0,010
-127,526	800,000	-0,013	-0,039
-126,512	-200,000	0,019	0,154
-125,497	215,403	0,063	0,073
-124,483	23,670	-0,090	-0,054
-123,468	490,315	0,061	0,102
-122,453	58,971	0,121	0,086
-121,439	-200,000	0,027	0,124
-120,424	349,542	0,005	-0,007
-119,410	-59,310	0,100	0,031
-118,395	-200,000	0,013	0,128
-117,380	-92,875	0,052	0,010
-116,366	80,835	-0,117	0,092
-115,351	136,129	0,086	-0,082
-114,337	-35,548	-0,065	-0,026
-113,322	800,000	-0,035	-0,110
-112,307	-161,024	0,041	0,002
-111,293	-200,000	0,016	-0,121
-110,278	-200,000	0,051	-0,241
-109,264	91,529	0,124	-0,101
-108,249	800,000	0,017	0,035
-107,234	65,929	-0,098	-0,072
-106,220	-200,000	-0,002	0,045
-105,205	324,040	-0,086	0,120
-104,191	-132,265	0,204	0,019
-103,176	-200,000	0,007	0,036
-102,162	-200,000	0,006	0,027
-101,147	123,057	-0,027	0,025
-100,132	345,216	-0,073	-0,104
-99,118	-31,375	-0,088	-0,036
-98,103	800,000	-0,033	-0,069
-97,089	800,000	0,093	0,191
-96,074	48,100	0,076	0,052
-95,059	244,831	-0,129	-0,157
-94,045	12,429	0,148	0,083
-93,030	-200,000	0,013	0,079
-92,016	-77,347	0,047	0,012
-91,001	-132,086	0,155	0,014
-89,986	-65,301	-0,162	-0,047
-88,972	-12,060	0,089	0,042
-87,957	-21,371	0,101	-0,045
-86,943	123,442	-0,039	0,035
-85,928	-174,516	-0,081	0,002
-84,913	-104,813	-0,148	-0,024
-83,899	-17,366	0,097	0,044
-82,884	151,493	-0,032	-0,032
-81,870	358,424	-0,037	-0,054
-80,855	716,704	-0,086	0,166
-79,840	125,732	0,052	0,048
-78,826	800,000	-0,034	-0,103
-77,811	287,023	-0,049	-0,064
-76,797	-200,000	-0,018	-0,103
-75,782	127,550	0,056	-0,052
-74,767	188,165	-0,021	-0,023
-73,753	17,029	-0,092	0,053
-72,738	-29,216	0,101	-0,042
-71,724	234,440	-0,076	-0,091
-70,709	40,360	-0,049	-0,032
-69,694	-194,349	0,109	-0,001
-68,680	-200,000	-0,012	0,050
-67,665	-165,505	-0,081	0,003
-66,651	-200,000	0,001	-0,047
-65,636	-200,000	-0,012	0,052
-64,622	183,151	-0,072	-0,077
-63,607	-200,000	0,022	-0,090
-62,592	23,491	-0,031	-0,018
-61,578	118,617	0,083	-0,075
-60,563	-200,000	0,010	0,057
-59,549	-95,224	-0,081	-0,016
-58,534	-142,816	-1,332	-0,093
-57,519	660,095	-0,759	-1,424
-56,505	-200,000	-0,989	-4,423
-55,490	45,112	0,535	-0,357
-54,476	800,000	4,947	11,787
-53,461	-200,000	13,411	253,100
-52,446	-200,000	689,094	2268,525
-51,432	595,588	1622,863	2926,505
-50,417	120,695	1636,079	1475,526
-49,403	73,571	1290,163	979,388
-48,388	38,397	1025,050	661,369
-47,373	24,546	982,563	588,390
-46,359	23,746	972,221	579,551
-45,344	22,768	968,122	573,885
-44,330	22,715	966,583	572,778
-43,315	22,639	965,290	571,741
-42,300	22,611	964,196	570,979
-41,286	22,552	963,116	570,123
-40,271	22,574	962,306	569,694
-39,257	22,542	961,319	568,984
-38,242	22,616	960,292	568,593
-37,227	22,569	959,733	568,086
-36,213	22,555	958,662	567,385
-35,198	22,546	957,883	566,872
-34,184	22,657	957,103	566,747
-33,169	22,546	956,358	565,925
-32,154	22,625	955,267	565,511
-31,140	22,620	954,362	564,936
-30,125	22,608	953,848	564,572
-29,111	22,606	952,991	564,036
-28,096	22,615	952,207	563,576
-27,082	22,637	951,527	563,223
-26,067	22,649	950,709	562,754
-25,052	22,628	949,876	562,172
-24,038	22,609	949,530	561,883
-23,023	22,649	948,621	561,453
-22,009	22,646	948,123	561,125
-20,994	22,676	947,335	560,733
-19,979	22,616	946,842	560,228
-18,965	22,637	946,021	559,787
-17,950	22,637	945,557	559,489
-16,936	22,571	944,790	558,803
-15,921	22,557	944,152	558,359
-14,906	22,508	943,437	557,759
-13,892	22,506	942,834	557,372
-12,877	22,466	942,334	556,928
-11,863	22,464	941,688	556,517
-10,848	22,483	941,179	556,255
-9,833	22,596	940,640	556,273
-8,819	22,587	940,074	555,889
-7,804	22,502	939,390	555,193
-6,790	22,478	938,916	554,815
-5,775	22,500	938,169	554,419
-4,760	22,509	937,591	554,085
-3,746	22,487	936,929	553,602
-2,731	22,367	936,180	552,758
-1,717	22,252	935,692	552,087
-0,702	22,322	934,806	551,763
0,313	22,091	934,159	551,483
1,327	25,192	932,121	559,988
2,342	34,764	796,605	504,079
3,356	32,798	451,832	282,925
4,371	1,756	293,789	152,994
5,386	-2,576	274,542	138,862
6,400	-4,178	268,849	134,485
7,415	-4,593	266,404	132,868
8,429	-4,359	265,191	132,466
9,444	-4,145	264,295	132,201
10,459	-4,298	263,707	131,756
11,473	-4,405	263,169	131,379
12,488	-4,349	262,472	131,070
13,502	-4,500	261,971	130,671
14,517	-4,447	261,705	130,575
15,531	-4,503	261,317	130,319
16,546	-4,253	260,794	130,271
17,561	-4,484	260,560	129,935
18,575	-4,322	260,238	129,909
19,590	-4,519	259,862	129,533
20,604	-4,291	259,498	129,544
21,619	-4,473	259,277	129,260
22,634	-4,437	259,006	129,145
23,648	-4,266	258,625	129,096
24,663	-4,363	258,288	128,830
25,677	-4,447	258,190	128,694
26,692	-4,554	257,934	128,461
27,707	-4,475	257,711	128,408
28,721	-4,585	257,294	128,091
29,736	-4,397	257,029	128,115
30,750	-4,590	256,776	127,806
31,765	-4,530	256,520	127,721
32,780	-4,480	256,367	127,677
33,794	-4,604	256,243	127,494
34,809	-4,569	255,924	127,355
35,823	-4,527	255,761	127,300
36,838	-4,600	255,516	127,102
37,853	-4,467	255,164	127,033
38,867	-4,520	255,057	126,921
39,882	-4,508	254,724	126,755
40,896	-4,513	254,535	126,646
41,911	-4,532	254,293	126,497
42,926	-4,394	254,062	126,491
43,940	-4,661	253,869	126,151
44,955	-4,383	253,528	126,213
45,969	-4,656	253,474	125,936
46,984	-4,773	253,070	125,622
47,999	-4,969	252,916	125,364
49,013	-5,241	252,795	125,057
50,028	-5,172	252,337	124,879
51,042	-5,234	252,038	124,666
52,057	-5,135	251,941	124,693
53,071	-5,203	251,736	124,521
54,086	-5,289	251,673	124,405
55,101	-5,109	251,461	124,445
56,115	-4,882	251,330	124,564
57,130	-4,626	251,405	124,811
58,144	-4,311	251,045	124,893
59,159	-4,215	250,796	124,842
60,174	-4,392	250,728	124,644
61,188	-4,332	250,265	124,454
62,203	-4,375	250,265	124,407
63,217	-4,366	249,930	124,236
64,232	-4,305	249,751	124,188
65,247	-4,318	249,613	124,097
66,261	-4,493	249,439	123,851
67,276	-4,735	249,210	123,518
68,290	-4,639	248,825	123,399
69,305	-4,690	248,474	123,170
70,320	-4,694	248,392	123,115
71,334	-4,515	248,291	123,206
72,349	-4,189	248,153	123,404
73,363	-4,233	248,031	123,296
74,378	-4,279	247,696	123,079
75,393	-4,465	247,604	122,864
76,407	-4,460	247,434	122,773
77,422	-4,448	247,284	122,698
78,436	-4,373	246,991	122,605
79,451	-4,199	246,915	122,704
80,466	-4,578	246,534	122,183
81,480	-4,549	246,184	122,024
82,495	-4,501	246,108	122,015
83,509	-4,715	246,035	121,788
84,524	-4,583	245,699	121,722
85,539	-4,643	245,413	121,519
86,553	-4,688	245,362	121,445
87,568	-4,737	245,177	121,301
88,582	-4,576	244,919	121,298
89,597	-4,623	244,759	121,169
90,611	-4,495	244,694	121,233
91,626	-4,410	244,511	121,202
92,641	-4,437	244,367	121,097
93,655	-4,381	244,081	120,992
94,670	-4,601	243,931	120,723
95,684	-4,633	243,818	120,630
96,699	-4,569	243,560	120,544
97,714	-4,720	243,382	120,319
98,728	-4,754	243,193	120,187
99,743	-4,814	243,000	120,031
100,757	-4,984	242,831	119,796
101,772	-4,610	242,612	119,988
102,787	-4,572	242,447	119,927
103,801	-4,662	242,255	119,746
104,816	-4,470	242,125	119,831
105,830	-4,604	242,006	119,650
106,845	-4,439	241,905	119,727
107,860	-4,417	241,515	119,541
108,874	-4,591	241,403	119,331
109,889	-4,654	241,207	119,171
110,903	-4,642	240,972	119,055
111,918	-4,580	240,851	119,035
112,933	-4,588	240,571	118,880
113,947	-4,471	240,391	118,876
114,962	-4,405	240,379	118,914
115,976	-4,319	240,107	118,840
116,991	-4,422	240,037	118,709
118,006	-4,313	239,736	118,639
119,020	-4,424	239,694	118,517
120,035	-4,402	239,643	118,500
121,049	-4,472	239,437	118,330
122,064	-4,599	239,341	118,168
123,079	-4,431	238,950	118,102
124,093	-4,588	238,850	117,913
125,108	-4,665	238,590	117,711
126,122	-4,867	238,328	117,407
127,137	-4,867	238,094	117,282
128,151	-4,844	238,114	117,300
129,166	-4,740	237,833	117,235
130,181	-4,868	237,776	117,093
131,195	-4,804	237,478	116,988
132,210	-4,558	237,360	117,118
133,224	-4,489	237,278	117,123
134,239	-4,562	237,038	116,936
135,254	-4,608	236,929	116,834
136,268	-4,670	236,744	116,682
137,283	-5,033	236,401	116,210
138,297	-4,898	236,140	116,181
139,312	-4,887	236,103	116,161
140,327	-4,708	235,932	116,210
141,341	-4,145	235,831	116,603
142,356	-4,150	235,786	116,566
143,370	-4,200	235,584	116,416
144,385	-4,135	235,443	116,388
145,400	-3,997	235,241	116,388
146,414	-4,292	235,208	116,125
147,429	-4,212	235,080	116,116
148,443	-4,287	234,806	115,910
149,458	-4,436	234,687	115,721
150,473	-4,206	234,340	115,724
151,487	-4,284	234,230	115,597
152,502	-4,308	234,077	115,492
153,516	-4,167	233,939	115,526
154,531	-4,261	233,747	115,346
155,546	-4,081	233,636	115,424
156,560	-4,370	233,517	115,125
157,575	-4,555	233,270	114,846
158,589	-4,323	233,091	114,932
159,604	-4,213	232,885	114,907
160,619	-4,060	232,780	114,967
161,633	-3,857	232,504	114,981
162,648	-4,022	232,575	114,875
163,662	-4,172	232,395	114,658
164,677	-4,165	232,050	114,482
165,692	-4,093	231,856	114,433
166,706	-3,907	231,810	114,547
167,721	-4,080	231,826	114,408
168,735	-3,975	231,706	114,422
169,750	-4,082	231,373	114,163
170,764	-3,987	231,229	114,156
171,779	-4,108	231,187	114,030
172,794	-4,322	231,023	113,771
173,808	-4,215	230,817	113,744
174,823	-4,458	230,377	113,326
175,837	-4,698	230,249	113,065
176,852	-4,376	230,181	113,273
177,867	-4,108	230,151	113,459
178,881	-4,063	230,181	113,498
179,896	-3,991	229,755	113,335
180,910	-4,023	229,628	113,237
181,925	-3,871	229,484	113,274
182,940	-4,118	229,529	113,093
183,954	-3,982	229,286	113,069
184,969	-4,155	229,154	112,860
185,983	-3,754	229,075	113,123
186,998	-4,066	229,064	112,864
188,013	-4,055	228,675	112,671
189,027	-4,037	228,466	112,572
190,042	-3,871	228,379	112,649
191,056	-4,000	228,260	112,480
192,071	-3,921	227,969	112,387
193,086	-4,186	227,979	112,177
194,100	-4,088	227,841	112,175
195,115	-4,325	227,393	111,761
196,129	-4,769	227,280	111,353
197,144	-1,851	228,175	114,041
198,159	1,923	229,178	117,460
199,173	4,040	229,595	119,305
200,188	4,044	229,600	119,300
201,202	4,275	229,424	119,377
202,217	4,650	229,161	119,520
203,232	4,579	229,316	119,535
204,246	4,668	229,007	119,431
205,261	4,528	228,875	119,244
206,275	4,948	228,899	119,570
207,290	4,958	228,719	119,474
208,304	4,898	228,502	119,303
209,319	4,970	228,253	119,218
210,334	4,627	228,217	118,924
211,348	4,617	227,889	118,735
212,363	4,268	227,593	118,303
213,377	3,862	227,523	117,944
214,392	3,967	227,414	117,958
215,407	4,305	226,975	117,978
216,421	4,282	226,986	117,956
217,436	3,953	226,915	117,657
218,450	3,847	226,713	117,460
219,465	3,665	226,504	117,203
220,480	3,644	226,422	117,133
221,494	3,581	226,319	117,022
222,509	3,718	226,185	117,047
223,523	3,844	226,049	117,061
224,538	3,637	225,712	116,720
225,553	4,080	225,586	116,981
226,567	4,147	225,581	117,018
227,582	4,067	225,446	116,877
228,596	4,091	225,453	116,888
229,611	4,001	225,111	116,632
230,626	3,765	224,931	116,350
231,640	3,818	224,878	116,352
232,655	4,239	224,624	116,529
233,669	4,507	224,647	116,734
234,684	4,656	224,688	116,857
235,699	4,387	224,308	116,446
236,713	4,079	224,154	116,123
237,728	4,144	223,880	116,020
238,742	3,914	223,692	115,739
239,757	3,948	223,604	115,709
240,772	3,968	223,494	115,657
241,786	3,885	223,460	115,566
242,801	4,106	223,385	115,683
243,815	4,287	223,269	115,749
244,830	4,250	223,022	115,582
245,844	4,029	222,775	115,279
246,859	3,972	222,686	115,180
247,874	4,321	222,503	115,336
248,888	4,064	222,495	115,129
249,903	3,926	222,262	114,896
250,917	3,861	222,122	114,765
251,932	3,843	221,971	114,663
252,947	3,862	221,669	114,511
253,961	3,817	221,555	114,408
254,976	3,860	221,494	114,398
255,990	4,170	221,324	114,530
257,005	4,154	221,260	114,475
258,020	4,177	221,240	114,471
259,034	4,381	220,916	114,446
260,049	4,375	220,739	114,339
261,063	4,096	220,614	114,058
262,078	4,202	220,636	114,137
263,093	4,348	220,376	114,101
264,107	4,233	220,291	113,961
265,122	4,168	220,131	113,820
266,136	4,399	220,171	114,002
267,151	4,618	219,875	114,000
268,166	4,002	219,676	113,432
269,180	3,793	219,472	113,163
270,195	3,846	219,292	113,099
271,209	3,708	219,226	112,953
272,224	3,773	219,010	112,879
273,239	3,925	218,959	112,955
274,253	3,858	218,736	112,781
275,268	3,760	218,576	112,616
276,282	3,742	218,402	112,504
277,297	3,719	218,236	112,391
278,312	3,610	218,257	112,312
279,326	3,890	218,063	112,407
280,341	3,903	217,908	112,327
281,355	3,810	217,783	112,184
282,370	3,950	217,613	112,189
283,384	3,684	217,398	111,874
284,399	3,417	217,313	111,626
285,414	3,769	217,079	111,752
286,428	3,873	217,190	111,875
287,443	4,099	216,969	111,915
288,457	4,011	216,829	111,769
289,472	3,944	216,712	111,650
290,487	3,666	216,317	111,235
291,501	3,352	216,211	110,944
292,516	3,585	216,095	111,042
293,530	3,691	215,997	111,059
294,545	3,703	215,954	111,035
295,560	3,773	215,775	110,985
296,574	3,850	215,686	110,984
297,589	3,789	215,498	110,834
298,603	3,924	215,429	110,885
299,618	3,903	215,290	110,790
300,633	4,025	215,111	110,775
301,647	4,306	215,133	110,978
302,662	4,285	215,000	110,885
303,676	4,160	214,870	110,718
304,691	4,140	214,515	110,511
305,706	4,335	214,365	110,564
306,720	4,389	214,321	110,570
307,735	4,058	214,205	110,264
308,749	3,718	214,038	109,924
309,764	4,099	214,064	110,200
310,779	4,206	213,860	110,162
311,793	4,171	213,683	110,036
312,808	4,227	213,458	109,950
313,822	3,960	213,454	109,748
314,837	4,001	213,180	109,626
315,852	3,835	213,054	109,433
316,866	3,778	212,907	109,308
317,881	4,049	212,860	109,467
318,895	4,099	212,774	109,448
319,910	3,953	212,575	109,232
320,925	3,608	212,265	108,818
321,939	3,684	212,089	108,773
322,954	3,374	212,191	108,595
323,968	4,024	212,034	108,965
324,983	3,941	212,005	108,882
325,997	3,947	211,861	108,803
327,012	3,989	211,553	108,665
328,027	3,933	211,366	108,519
329,041	4,450	211,420	108,903
330,056	4,349	211,329	108,774
331,070	4,069	211,143	108,471
332,085	3,585	210,842	107,967
333,100	3,935	210,665	108,113
334,114	4,141	210,514	108,170
335,129	4,118	210,498	108,136
336,143	3,777	210,355	107,814
337,158	3,809	210,252	107,774
338,173	3,882	209,948	107,660
339,187	3,776	209,837	107,519
340,202	3,658	209,768	107,391
341,216	3,647	209,622	107,300
342,231	3,683	209,475	107,240
343,246	3,648	209,375	107,155
344,260	3,901	209,207	107,236
345,275	3,808	209,152	107,133
346,289	3,926	209,035	107,145
347,304	3,867	208,897	107,024
348,319	3,945	208,690	106,963
349,333	3,847	208,626	106,852
350,348	3,798	208,622	106,807
351,362	3,939	208,504	106,834
352,377	4,110	208,297	106,838
353,392	4,256	208,125	106,841
354,406	4,187	208,062	106,752
355,421	194,818	1342,579	1433,896
356,435	155,483	1480,905	1434,013
