DTS Sentinel unit serial number:	SN410029Multiplexer serial number:	ORYXHardware model number:	OX2-SRSoftware version number:	ORYX F/W v4,00 Oryx Data Collector v3.7.2.0data status	okinstallation	B6 Nyhavnadifferential loss correction	single-endedforward channel	channel 2reverse channel	N/Adate	2023/12/10time	19:00:08forward acquisition time	300,00reverse acquisition time	0,00gamma	499,1914k internal	0,3123k external	0,3123temperature offset calibration	1,0000default loss term (dB/km)	0,3820temperature slope calibration	1,0000multiplexer offset coefficient	1,0000multiplexer slope coefficient	1,0000fibre end	0,00T internal ref (°C)	22,32T ext. ref 1 (°C)	6,01T ext. ref 2 (°C)	6,01length (m)	temperature (°C)	Stokes	anti-Stokes-744,400	30,723	-0,038	0,024
-743,385	-14,766	-0,263	0,125
-742,371	606,830	0,043	-0,080
-741,356	-200,000	-0,050	0,182
-740,342	436,813	0,071	0,116
-739,327	23,312	-0,236	0,144
-738,312	4,990	-0,091	0,050
-737,298	-17,804	-0,226	0,105
-736,283	447,092	0,054	-0,089
-735,269	51,224	-0,153	0,108
-734,254	-200,000	0,007	0,074
-733,239	-97,665	-0,560	-0,107
-732,225	-114,564	0,118	-0,017
-731,210	-1,669	0,058	0,031
-730,196	-200,000	0,040	-0,234
-729,181	-200,000	0,024	-0,161
-728,167	-56,300	0,163	0,054
-727,152	327,721	0,039	-0,056
-726,137	83,867	-0,122	-0,099
-725,123	-200,000	0,000	-0,070
-724,108	-200,000	-0,019	-0,098
-723,094	254,940	-0,123	-0,157
-722,079	-200,000	0,020	-0,136
-721,064	-67,475	-0,058	0,017
-720,050	-200,000	-0,017	0,142
-719,035	-166,470	-0,038	0,001
-718,021	-62,954	-0,113	0,035
-717,006	249,238	0,085	-0,107
-715,991	-200,000	-0,000	-0,075
-714,977	102,289	-0,006	0,005
-713,962	-118,047	-0,076	0,010
-712,948	61,308	0,093	-0,069
-711,933	-78,891	-0,144	0,036
-710,918	-200,000	0,013	-0,107
-709,904	800,000	-0,042	0,101
-708,889	-37,073	-0,055	0,022
-707,875	-200,000	-0,002	-0,050
-706,860	800,000	0,060	-0,139
-705,845	71,457	0,016	-0,012
-704,831	94,590	0,086	-0,073
-703,816	800,000	-0,022	-0,061
-702,802	-200,000	0,005	0,018
-701,787	745,133	0,028	0,057
-700,772	-50,943	-0,040	-0,014
-699,758	121,349	-0,086	-0,079
-698,743	39,793	0,028	-0,019
-697,729	-200,000	-0,027	0,103
-696,714	-41,509	0,085	-0,033
-695,699	800,000	-0,037	-0,093
-694,685	800,000	0,036	-0,085
-693,670	-150,725	-0,035	0,002
-692,656	800,000	0,016	-0,034
-691,641	-200,000	-0,015	-0,139
-690,627	-200,000	0,005	-0,031
-689,612	-200,000	0,026	0,113
-688,597	-6,820	0,047	-0,024
-687,583	750,204	-0,030	-0,060
-686,568	442,373	0,022	0,036
-685,554	127,712	0,017	-0,016
-684,539	-79,794	-0,136	-0,034
-683,524	203,247	0,097	0,112
-682,510	-145,139	-0,025	-0,002
-681,495	-200,000	-0,037	0,123
-680,481	-63,419	-0,011	0,003
-679,466	108,585	-0,118	0,105
-678,451	-200,000	-0,016	-0,128
-677,437	305,937	0,035	-0,049
-676,422	158,771	-0,035	-0,036
-675,408	800,000	0,031	-0,094
-674,393	220,218	-0,063	0,075
-673,378	-200,000	0,002	0,148
-672,364	-94,712	0,174	-0,035
-671,349	41,359	-0,119	-0,080
-670,335	-200,000	-0,019	-0,156
-669,320	61,474	0,014	-0,010
-668,305	64,454	-0,053	-0,040
-667,291	623,856	0,025	-0,046
-666,276	-71,616	-0,067	-0,019
-665,262	-200,000	-0,033	-0,141
-664,247	-110,294	-0,162	-0,025
-663,232	43,652	-0,033	-0,023
-662,218	-106,231	0,076	0,013
-661,203	15,253	-0,030	0,017
-660,189	-200,000	0,028	-0,278
-659,174	758,628	-0,060	-0,122
-658,159	65,122	0,151	-0,113
-657,145	800,000	-0,031	-0,076
-656,130	311,940	0,049	-0,068
-655,116	-114,277	0,081	0,011
-654,101	800,000	0,049	0,127
-653,086	-109,585	-0,008	0,001
-652,072	-200,000	0,033	-0,127
-651,057	-91,730	0,064	-0,013
-650,043	-200,000	-0,030	-0,117
-649,028	138,357	-0,116	-0,113
-648,014	800,000	0,032	-0,079
-646,999	-200,000	-0,022	0,091
-645,984	174,026	0,069	-0,074
-644,970	553,396	0,054	-0,097
-643,955	800,000	-0,052	-0,160
-642,941	-200,000	0,007	0,222
-641,926	800,000	-0,008	0,022
-640,911	800,000	-0,019	-0,055
-639,897	-200,000	-0,004	0,047
-638,882	25,446	-0,082	-0,051
-637,868	118,402	-0,020	0,018
-636,853	5,728	-0,080	-0,044
-635,838	-161,366	-0,083	0,003
-634,824	67,478	0,052	0,039
-633,809	-200,000	-0,036	0,180
-632,795	50,828	-0,092	-0,064
-631,780	-200,000	0,006	0,046
-630,765	32,653	-0,127	0,081
-629,751	800,000	-0,003	-0,006
-628,736	-200,000	0,004	-0,045
-627,722	14,518	-0,051	-0,030
-626,707	141,616	0,037	-0,036
-625,692	-145,453	0,114	-0,007
-624,678	-127,336	-0,001	0,000
-623,663	800,000	0,007	0,017
-622,649	-34,799	0,094	-0,038
-621,634	457,353	-0,085	-0,141
-620,619	-124,315	-0,064	0,007
-619,605	297,590	-0,057	0,078
-618,590	85,397	0,004	0,003
-617,576	89,773	0,036	0,030
-616,561	-200,000	0,021	-0,094
-615,546	59,366	0,059	-0,043
-614,532	58,913	0,057	-0,042
-613,517	-200,000	-0,020	0,105
-612,503	625,915	-0,041	0,078
-611,488	222,179	0,045	0,054
-610,474	-200,000	-0,004	0,077
-609,459	800,000	-0,061	0,129
-608,444	144,019	-0,036	0,035
-607,430	33,884	0,030	0,019
-606,415	-12,680	0,079	-0,038
-605,401	-125,158	-0,122	0,014
-604,386	-200,000	-0,018	-0,087
-603,371	-200,000	0,021	0,141
-602,357	-32,230	0,055	0,023
-601,342	89,227	-0,135	-0,112
-600,328	800,000	-0,030	-0,099
-599,313	800,000	-0,025	-0,054
-598,298	117,228	-0,118	-0,107
-597,284	-200,000	0,018	0,082
-596,269	93,539	0,087	0,073
-595,255	-200,000	-0,007	-0,064
-594,240	-41,343	-0,068	0,026
-593,225	-67,875	0,152	-0,044
-592,211	-17,719	-0,092	0,043
-591,196	-36,179	-0,069	-0,028
-590,182	489,988	0,109	-0,185
-589,167	-200,000	0,013	-0,063
-588,152	331,777	0,087	0,125
-587,138	-200,000	0,001	0,162
-586,123	234,721	-0,088	-0,108
-585,109	0,367	0,066	-0,035
-584,094	19,517	0,088	0,052
-583,079	-33,945	0,111	-0,045
-582,065	231,665	-0,025	0,030
-581,050	-118,885	-0,122	0,016
-580,036	-110,066	-0,050	0,008
-579,021	800,000	0,048	-0,112
-578,006	192,211	-0,138	-0,155
-576,992	-19,145	0,211	-0,097
-575,977	163,579	0,042	0,044
-574,963	-200,000	0,004	0,050
-573,948	69,335	0,125	0,095
-572,934	-200,000	-0,011	-0,050
-571,919	159,114	-0,086	-0,089
-570,904	476,091	-0,055	-0,093
-569,890	-176,867	0,072	0,001
-568,875	800,000	0,067	-0,143
-567,861	509,157	-0,063	0,109
-566,846	-200,000	-0,010	-0,070
-565,831	-200,000	0,022	-0,074
-564,817	-128,565	-0,147	-0,015
-563,802	-200,000	0,002	-0,107
-562,788	-133,837	0,157	-0,014
-561,773	-200,000	0,011	-0,064
-560,758	-70,687	0,078	-0,022
-559,744	38,450	0,063	0,041
-558,729	175,581	0,093	0,100
-557,715	46,072	0,077	-0,053
-556,700	-56,982	0,066	0,021
-555,685	266,694	-0,090	-0,117
-554,671	404,375	0,053	0,083
-553,656	15,716	-0,050	-0,029
-552,642	-200,000	0,002	-0,025
-551,627	-118,507	0,105	0,014
-550,612	-200,000	-0,014	-0,122
-549,598	234,486	-0,023	-0,028
-548,583	-108,517	-0,011	-0,002
-547,569	-200,000	-0,008	0,033
-546,554	-57,478	0,031	0,010
-545,539	-19,385	-0,191	-0,087
-544,525	800,000	-0,021	-0,047
-543,510	6,418	-0,074	0,041
-542,496	2,657	-0,012	-0,007
-541,481	-191,563	-0,123	0,001
-540,466	759,128	-0,059	-0,119
-539,452	144,827	0,046	-0,046
-538,437	146,946	0,012	-0,012
-537,423	17,016	-0,053	0,031
-536,408	399,143	-0,022	0,034
-535,393	66,059	-0,033	-0,025
-534,379	108,973	-0,110	0,097
-533,364	200,089	0,052	-0,059
-532,350	150,493	0,054	-0,054
-531,335	800,000	0,039	0,106
-530,321	161,253	-0,020	0,021
-529,306	45,616	0,087	-0,059
-528,291	66,440	0,120	0,090
-527,277	210,708	-0,084	-0,098
-526,262	-42,229	0,105	0,040
-525,248	-200,000	-0,012	-0,056
-524,233	-1,556	-0,122	-0,064
-523,218	800,000	-0,032	0,088
-522,204	534,008	0,071	-0,124
-521,189	-200,000	-0,012	-0,130
-520,175	-200,000	-0,015	-0,079
-519,160	50,697	0,117	-0,082
-518,145	2,944	0,113	0,060
-517,131	57,220	0,111	-0,080
-516,116	800,000	0,074	-0,185
-515,102	-35,756	0,010	-0,004
-514,087	-200,000	-0,006	-0,185
-513,072	800,000	-0,056	-0,128
-512,058	-60,228	-0,068	0,021
-511,043	41,329	0,071	-0,047
-510,029	144,153	-0,043	0,042
-509,014	-33,584	0,080	0,032
-507,999	-161,258	0,029	-0,001
-506,985	-200,000	-0,010	-0,073
-505,970	800,000	-0,044	-0,142
-504,956	21,178	0,084	-0,050
-503,941	-200,000	-0,001	0,004
-502,926	43,165	0,078	-0,053
-501,912	173,369	-0,080	-0,085
-500,897	-188,781	0,076	0,001
-499,883	-200,000	-0,002	0,077
-498,868	800,000	-0,067	-0,162
-497,853	-200,000	0,011	-0,114
-496,839	352,113	0,033	0,048
-495,824	369,807	0,109	0,164
-494,810	800,000	-0,020	-0,044
-493,795	800,000	-0,046	-0,096
-492,781	-114,395	-0,092	0,013
-491,766	524,548	0,013	0,022
-490,751	800,000	-0,026	0,066
-489,737	800,000	0,012	-0,028
-488,722	-200,000	0,138	0,000
-487,708	-64,777	0,040	0,012
-486,693	800,000	-0,037	0,076
-485,678	312,279	0,078	-0,108
-484,664	800,000	0,050	0,107
-483,649	-62,094	-0,154	0,047
-482,635	17,681	0,078	0,046
-481,620	-200,000	0,005	-0,032
-480,605	253,068	0,026	-0,032
-479,591	181,521	0,145	-0,157
-478,576	245,993	-0,011	-0,013
-477,562	170,967	-0,067	0,071
-476,547	800,000	0,051	0,132
-475,532	65,253	0,053	-0,040
-474,518	-183,225	0,169	-0,002
-473,503	69,082	0,074	0,056
-472,489	800,000	0,061	0,144
-471,474	-200,000	-0,010	0,207
-470,459	153,470	-0,042	-0,043
-469,445	-20,395	-0,086	0,039
-468,430	-77,784	0,035	-0,009
-467,416	308,440	0,105	0,145
-466,401	800,000	0,026	-0,059
-465,386	-200,000	0,014	-0,097
-464,372	800,000	-0,033	-0,083
-463,357	-200,000	-0,008	-0,060
-462,343	-200,000	-0,007	-0,192
-461,328	-200,000	-0,003	0,056
-460,313	500,069	0,061	0,104
-459,299	115,751	0,072	0,065
-458,284	-200,000	0,005	0,030
-457,270	800,000	0,010	0,028
-456,255	76,115	0,024	-0,019
-455,241	800,000	0,005	0,013
-454,226	-50,933	-0,144	0,050
-453,211	17,406	-0,030	-0,018
-452,197	-15,285	0,027	0,013
-451,182	-35,475	-0,028	-0,011
-450,168	-46,730	0,117	0,042
-449,153	40,672	-0,014	-0,009
-448,138	293,589	0,040	0,054
-447,124	-45,625	-0,054	-0,020
-446,109	-200,000	0,012	-0,045
-445,095	716,956	-0,023	-0,046
-444,080	-26,123	0,123	-0,053
-443,065	-200,000	0,162	0,000
-442,051	421,291	0,055	0,087
-441,036	595,268	-0,044	-0,081
-440,022	-97,766	-0,104	-0,020
-439,007	800,000	0,056	0,154
-437,992	-200,000	0,025	0,103
-436,978	-200,000	0,005	0,100
-435,963	800,000	-0,027	-0,081
-434,949	-140,198	-0,040	-0,003
-433,934	500,893	0,054	-0,092
-432,919	603,359	-0,035	-0,064
-431,905	-80,639	0,084	-0,020
-430,890	800,000	-0,045	0,109
-429,876	34,221	0,063	0,041
-428,861	-57,967	0,079	0,025
-427,846	296,607	-0,067	-0,090
-426,832	800,000	-0,054	-0,125
-425,817	8,451	0,039	-0,022
-424,803	800,000	-0,018	0,058
-423,788	-200,000	-0,098	-0,000
-422,773	-20,447	0,073	-0,033
-421,759	-132,409	0,173	0,016
-420,744	-200,000	-0,005	0,023
-419,730	-94,993	-0,100	0,020
-418,715	800,000	0,040	-0,097
-417,701	82,769	0,066	0,053
-416,686	80,876	-0,039	-0,031
-415,671	800,000	-0,049	0,111
-414,657	343,907	0,049	0,071
-413,642	800,000	-0,032	-0,084
-412,628	-44,626	0,121	-0,044
-411,613	-37,834	-0,062	-0,024
-410,598	-113,598	-0,054	0,008
-409,584	-200,000	0,023	0,114
-408,569	14,213	0,144	0,082
-407,555	580,582	-0,036	0,065
-406,540	516,665	0,019	0,032
-405,525	-200,000	-0,004	-0,088
-404,511	800,000	-0,035	-0,074
-403,496	-200,000	-0,002	0,116
-402,482	-25,011	-0,047	0,021
-401,467	593,589	0,035	0,064
-400,452	639,414	0,051	0,095
-399,438	121,354	0,119	0,109
-398,423	-85,527	-0,090	0,021
-397,409	-35,991	-0,108	-0,043
-396,394	-44,396	-0,107	-0,039
-395,379	-66,903	-0,131	0,038
-394,365	800,000	-0,017	0,035
-393,350	27,556	0,123	-0,076
-392,336	800,000	-0,051	0,125
-391,321	-95,003	0,104	-0,020
-390,306	275,132	-0,108	-0,141
-389,292	-79,079	-0,096	-0,024
-388,277	-72,044	0,099	-0,027
-387,263	-76,477	0,076	0,020
-386,248	800,000	0,061	0,172
-385,233	286,428	0,059	0,078
-384,219	800,000	0,035	0,113
-383,204	-98,878	-0,169	-0,031
-382,190	27,596	-0,085	-0,052
-381,175	800,000	-0,024	0,072
-380,160	224,769	0,084	-0,100
-379,146	-129,799	0,098	-0,010
-378,131	-200,000	0,020	-0,079
-377,117	-1,836	-0,102	-0,052
-376,102	-200,000	0,002	-0,019
-375,088	-200,000	-0,002	0,098
-374,073	193,718	0,059	0,066
-373,058	800,000	-0,021	-0,053
-372,044	140,310	-0,030	-0,029
-371,029	-200,000	0,046	0,177
-370,015	800,000	-0,067	0,136
-369,000	-90,743	-0,109	-0,023
-367,985	523,326	0,024	0,042
-366,971	-200,000	0,013	0,110
-365,956	-200,000	0,002	-0,071
-364,942	488,938	0,029	0,049
-363,927	-200,000	-0,034	0,138
-362,912	-101,293	0,133	0,024
-361,898	-87,913	-0,025	-0,006
-360,883	286,697	0,086	0,114
-359,869	-96,464	-0,072	-0,014
-358,854	800,000	0,031	0,095
-357,839	60,685	-0,066	-0,048
-356,825	-72,606	-0,026	-0,007
-355,810	-177,422	0,117	-0,002
-354,796	-200,000	0,040	-0,176
-353,781	41,689	-0,117	-0,078
-352,766	-130,860	0,131	-0,013
-351,752	417,329	-0,029	0,045
-350,737	390,047	-0,033	-0,051
-349,723	103,010	0,064	0,055
-348,708	-200,000	-0,008	0,056
-347,693	-200,000	0,012	-0,083
-346,679	-75,536	-0,160	-0,042
-345,664	-137,558	-0,030	0,002
-344,650	191,463	0,073	0,080
-343,635	800,000	0,031	0,068
-342,620	800,000	-0,067	0,199
-341,606	-200,000	-0,007	0,084
-340,591	359,621	0,039	0,057
-339,577	800,000	0,096	-0,200
-338,562	404,690	-0,103	-0,159
-337,548	800,000	0,027	-0,064
-336,533	157,671	0,050	0,050
-335,518	155,735	0,095	0,096
-334,504	-200,000	0,011	0,062
-333,489	-200,000	-0,002	0,014
-332,475	800,000	0,064	-0,141
-331,460	-200,000	-0,030	0,120
-330,445	111,840	0,099	-0,088
-329,431	656,800	-0,057	0,107
-328,416	-193,867	-0,069	-0,000
-327,402	-200,000	-0,000	0,037
-326,387	412,732	-0,077	0,121
-325,372	-200,000	0,001	-0,045
-324,358	-200,000	0,010	0,034
-323,343	135,638	-0,080	0,077
-322,329	-143,243	-0,161	0,011
-321,314	-200,000	0,001	0,041
-320,299	-5,256	-0,064	0,032
-319,285	-44,944	0,026	0,010
-318,270	65,949	-0,055	-0,041
-317,256	-200,000	0,003	0,044
-316,241	-200,000	0,010	-0,050
-315,226	-48,408	0,141	-0,049
-314,212	-181,254	-0,139	0,002
-313,197	-200,000	0,077	0,258
-312,183	19,294	0,069	-0,041
-311,168	-142,711	-0,127	-0,009
-310,153	-200,000	-0,006	-0,140
-309,139	-200,000	-0,087	0,000
-308,124	95,375	-0,077	-0,064
-307,110	-200,000	-0,014	-0,054
-306,095	24,448	0,105	-0,064
-305,080	138,338	-0,029	-0,028
-304,066	182,954	0,069	0,074
-303,051	-135,531	-0,101	-0,009
-302,037	156,750	-0,109	-0,110
-301,022	191,981	-0,050	-0,055
-300,008	295,235	0,089	0,119
-298,993	-84,058	-0,108	0,025
-297,978	800,000	0,039	0,106
-296,964	-200,000	0,009	0,057
-295,949	186,631	0,031	0,034
-294,935	-69,479	-0,119	-0,033
-293,920	22,898	0,030	0,018
-292,905	800,000	0,060	0,156
-291,891	-200,000	0,019	0,065
-290,876	-77,218	-0,019	0,005
-289,862	-24,070	0,127	0,055
-288,847	273,279	0,054	-0,070
-287,832	800,000	-0,014	0,032
-286,818	-200,000	-0,021	-0,083
-285,803	362,733	0,027	-0,040
-284,789	53,116	0,094	0,066
-283,774	-28,755	-0,008	0,003
-282,759	-157,398	-0,078	-0,003
-281,745	-200,000	0,008	-0,167
-280,730	310,397	-0,069	-0,095
-279,716	800,000	0,016	-0,035
-278,701	-158,008	0,104	0,004
-277,686	-200,000	0,017	0,078
-276,672	-200,000	0,011	-0,044
-275,657	800,000	0,024	0,064
-274,643	-200,000	-0,036	0,141
-273,628	37,241	-0,079	-0,051
-272,613	-200,000	0,006	-0,034
-271,599	-54,509	0,187	0,062
-270,584	800,000	0,045	-0,092
-269,570	765,440	-0,025	-0,050
-268,555	68,990	-0,057	-0,043
-267,540	-200,000	-0,006	0,026
-266,526	-60,171	-0,107	-0,033
-265,511	-200,000	0,009	-0,041
-264,497	800,000	-0,019	0,051
-263,482	-200,000	-0,015	0,153
-262,467	-200,000	-0,016	0,076
-261,453	-200,000	-0,027	-0,093
-260,438	556,868	0,025	-0,044
-259,424	349,789	0,056	0,082
-258,409	-81,567	-0,096	-0,023
-257,395	-87,273	0,063	-0,014
-256,380	46,907	-0,058	-0,039
-255,365	-200,000	0,011	-0,095
-254,351	570,906	-0,059	0,105
-253,336	247,834	-0,100	-0,124
-252,322	-40,864	-0,134	0,050
-251,307	-200,000	-0,030	-0,133
-250,292	439,618	-0,028	0,044
-249,278	139,802	-0,097	0,094
-248,263	-111,757	0,159	-0,023
-247,249	173,078	-0,082	0,086
-246,234	-200,000	0,006	0,082
-245,219	159,115	-0,072	0,074
-244,205	-133,984	-0,051	-0,005
-243,190	127,371	-0,053	0,049
-242,176	-200,000	-0,003	-0,024
-241,161	-200,000	-0,025	-0,110
-240,146	114,406	0,114	-0,101
-239,132	-45,207	-0,177	0,064
-238,117	-138,055	0,063	0,005
-237,103	-41,382	0,072	-0,027
-236,088	800,000	-0,043	0,089
-235,073	-200,000	0,009	-0,100
-234,059	-142,021	0,029	-0,002
-233,044	-123,396	0,109	0,013
-232,030	23,017	-0,152	0,091
-231,015	800,000	0,007	-0,018
-230,000	800,000	-0,049	-0,117
-228,986	-13,717	-0,071	-0,033
-227,971	800,000	0,054	0,117
-226,957	800,000	-0,029	-0,068
-225,942	80,772	0,042	-0,033
-224,927	800,000	0,030	0,064
-223,913	-85,540	-0,109	0,025
-222,898	-56,116	-0,040	-0,013
-221,884	-48,942	0,164	0,057
-220,869	800,000	0,026	0,056
-219,855	-108,272	-0,028	0,004
-218,840	800,000	-0,042	-0,097
-217,825	324,713	-0,027	0,038
-216,811	-101,645	-0,123	0,022
-215,796	107,790	-0,019	0,016
-214,782	-2,025	-0,126	0,064
-213,767	-92,216	0,155	0,032
-212,752	-32,682	0,064	-0,026
-211,738	-109,093	-0,035	0,005
-210,723	-88,781	0,179	0,038
-209,709	-59,864	-0,105	0,032
-208,694	800,000	-0,044	0,109
-207,679	-200,000	-0,006	0,056
-206,665	-21,968	-0,023	-0,010
-205,650	-59,471	-0,032	-0,010
-204,636	-200,000	-0,035	-0,132
-203,621	156,940	-0,020	-0,020
-202,606	335,942	-0,030	-0,042
-201,592	157,347	-0,096	0,097
-200,577	90,582	-0,082	0,067
-199,563	-60,919	0,051	0,016
-198,548	800,000	-0,041	0,095
-197,533	800,000	0,016	0,042
-196,519	800,000	-0,063	0,156
-195,504	144,250	-0,036	0,035
-194,490	15,458	-0,061	0,035
-193,475	800,000	0,040	0,097
-192,460	7,443	0,068	0,037
-191,446	-200,000	-0,022	-0,102
-190,431	59,630	-0,044	-0,031
-189,417	266,487	-0,044	-0,057
-188,402	-200,000	0,013	-0,083
-187,387	-129,581	-0,172	0,017
-186,373	275,837	0,022	0,029
-185,358	-200,000	-0,005	-0,127
-184,344	22,140	-0,053	-0,031
-183,329	2,223	0,058	-0,031
-182,315	-70,917	0,080	0,022
-181,300	-200,000	-0,065	0,238
-180,285	161,559	0,085	0,087
-179,271	-200,000	-0,023	-0,148
-178,256	-24,291	0,120	0,052
-177,242	101,827	0,089	-0,075
-176,227	800,000	-0,016	0,045
-175,212	-33,289	-0,034	0,014
-174,198	-106,544	-0,045	0,007
-173,183	-99,696	0,107	-0,019
-172,169	72,800	-0,027	-0,020
-171,154	-200,000	-0,002	-0,186
-170,139	-200,000	-0,007	0,059
-169,125	-22,261	0,024	0,011
-168,110	800,000	-0,069	0,140
-167,096	294,620	0,089	-0,119
-166,081	-200,000	0,008	-0,041
-165,066	134,466	-0,078	-0,074
-164,052	113,224	-0,127	-0,112
-163,037	-200,000	-0,004	-0,058
-162,023	71,125	0,037	0,028
-161,008	183,329	0,048	-0,051
-159,993	-200,000	-0,014	-0,056
-158,979	420,177	-0,042	0,066
-157,964	800,000	0,007	0,016
-156,950	-138,886	-0,126	-0,010
-155,935	-200,000	-0,019	0,124
-154,920	-188,751	0,089	-0,001
-153,906	6,249	0,053	0,028
-152,891	-120,547	0,139	-0,017
-151,877	166,030	-0,007	-0,008
-150,862	531,342	-0,064	-0,111
-149,847	3,322	-0,127	0,067
-148,833	-200,000	0,014	-0,143
-147,818	-200,000	0,002	-0,045
-146,804	264,133	0,085	0,108
-145,789	-1,153	-0,099	-0,051
-144,775	-200,000	-0,012	0,062
-143,760	99,947	-0,088	-0,074
-142,745	71,508	-0,066	-0,050
-141,731	-97,592	0,120	-0,023
-140,716	-127,042	-0,085	0,009
-139,702	-200,000	0,013	0,071
-138,687	-200,000	0,011	-0,087
-137,672	-52,609	0,113	-0,038
-136,658	-200,000	0,022	-0,159
-135,643	-200,000	-0,005	-0,063
-134,629	800,000	-0,043	-0,135
-133,614	-45,860	0,151	0,054
-132,599	-200,000	0,007	-0,106
-131,585	110,009	0,020	0,017
-130,570	-200,000	-0,016	0,066
-129,556	732,735	-0,027	0,054
-128,541	432,946	0,024	-0,038
-127,526	70,213	-0,057	0,043
-126,512	54,974	0,065	0,045
-125,497	-29,192	0,020	-0,008
-124,483	800,000	0,030	0,078
-123,468	363,843	-0,120	0,176
-122,453	800,000	-0,075	-0,235
-121,439	127,437	-0,152	-0,140
-120,424	-200,000	0,003	0,057
-119,410	270,035	0,060	0,077
-118,395	647,659	0,066	0,123
-117,380	-53,684	-0,073	0,024
-116,366	119,379	0,039	0,035
-115,351	261,587	0,019	-0,025
-114,337	-200,000	0,012	-0,066
-113,322	33,230	0,073	0,046
-112,307	-69,824	0,048	0,013
-111,293	-200,000	0,035	-0,157
-110,278	14,092	0,051	-0,029
-109,264	186,889	0,039	0,042
-108,249	-18,956	0,153	0,069
-107,234	332,716	0,028	-0,040
-106,220	-200,000	0,020	-0,080
-105,205	500,284	0,047	0,080
-104,191	265,704	0,077	-0,098
-103,176	-200,000	-0,010	0,140
-102,162	800,000	0,016	-0,033
-101,147	535,216	-0,059	-0,102
-100,132	393,116	0,032	-0,048
-99,118	-48,106	-0,047	0,017
-98,103	-200,000	0,004	0,041
-97,089	-200,000	0,015	0,212
-96,074	700,053	0,067	0,128
-95,059	-110,002	-0,139	-0,021
-94,045	-176,037	0,080	0,001
-93,030	-90,186	-0,084	-0,018
-92,016	-103,559	-0,153	-0,026
-91,001	88,793	0,091	0,073
-89,986	3,332	0,089	-0,047
-88,972	702,832	0,016	-0,030
-87,957	-42,739	-0,082	0,030
-86,943	8,832	-0,060	0,033
-85,928	150,095	0,038	0,037
-84,913	1,848	0,112	-0,059
-83,899	-73,832	0,017	-0,005
-82,884	213,203	-0,023	-0,027
-81,870	-12,351	-0,072	-0,034
-80,855	800,000	0,057	0,128
-79,840	180,853	0,087	0,093
-78,826	533,794	-0,046	-0,080
-77,811	64,676	-0,071	-0,052
-76,797	-200,000	-0,007	0,060
-75,782	800,000	0,044	-0,092
-74,767	-133,740	0,114	0,010
-73,753	-109,187	-0,081	0,012
-72,738	431,178	0,044	-0,070
-71,724	-67,574	-0,136	-0,038
-70,709	-200,000	-0,018	-0,137
-69,694	-200,000	-0,035	0,135
-68,680	800,000	-0,022	0,058
-67,665	63,650	0,065	0,047
-66,651	-116,908	0,022	0,003
-65,636	726,397	0,037	0,071
-64,622	-96,633	0,115	0,022
-63,607	-32,902	-0,047	-0,019
-62,592	171,907	-0,055	0,058
-61,578	-21,882	-0,060	0,027
-60,563	-99,178	0,063	-0,012
-59,549	800,000	0,079	0,210
-58,534	-108,379	-1,397	-0,216
-57,519	582,890	-0,842	-1,506
-56,505	-200,000	-1,009	-4,393
-55,490	50,706	0,604	-0,415
-54,476	800,000	5,018	11,986
-53,461	-200,000	13,610	253,079
-52,446	-200,000	690,182	2258,271
-51,432	590,010	1622,600	2915,651
-50,417	119,143	1634,781	1467,215
-49,403	73,132	1288,906	976,807
-48,388	38,022	1024,145	659,614
-47,373	24,274	981,928	587,203
-46,359	23,504	971,434	578,379
-45,344	22,595	967,212	572,871
-44,330	22,498	965,858	571,729
-43,315	22,392	964,348	570,467
-42,300	22,373	963,315	569,773
-41,286	22,389	962,417	569,271
-40,271	22,338	961,484	568,529
-39,257	22,372	960,534	568,058
-38,242	22,286	959,642	567,227
-37,227	22,313	958,747	566,764
-36,213	22,376	957,837	566,407
-35,198	22,293	956,981	565,609
-34,184	22,364	956,423	565,488
-33,169	22,336	955,455	564,803
-32,154	22,317	954,539	564,176
-31,140	22,360	953,571	563,720
-30,125	22,446	952,924	563,593
-29,111	22,318	952,083	562,661
-28,096	22,401	951,369	562,484
-27,082	22,358	950,793	561,984
-26,067	22,392	949,904	561,545
-25,052	22,314	949,151	560,826
-24,038	22,343	948,604	560,574
-23,023	22,344	947,975	560,184
-22,009	22,366	947,316	559,842
-20,994	22,387	946,717	559,533
-19,979	22,423	946,023	559,214
-18,965	22,362	945,543	558,715
-17,950	22,334	944,926	558,238
-16,936	22,366	944,049	557,801
-15,921	22,256	943,450	557,074
-14,906	22,207	942,766	556,490
-13,892	22,260	942,043	556,212
-12,877	22,248	941,473	555,817
-11,863	22,222	940,839	555,335
-10,848	22,273	940,237	555,121
-9,833	22,385	939,993	555,311
-8,819	22,336	939,128	554,623
-7,804	22,257	938,424	553,934
-6,790	22,215	938,077	553,572
-5,775	22,266	937,480	553,361
-4,760	22,223	936,837	552,823
-3,746	22,160	936,244	552,251
-2,731	22,087	935,573	551,604
-1,717	22,093	934,743	551,111
-0,702	22,035	934,038	550,490
0,313	21,859	933,389	550,386
1,327	24,995	931,600	559,144
2,342	34,773	796,015	503,812
3,356	32,763	451,597	282,769
4,371	1,616	294,008	152,991
5,386	-2,877	274,795	138,726
6,400	-4,424	268,910	134,308
7,415	-4,807	266,648	132,814
8,429	-4,529	265,359	132,415
9,444	-4,434	264,527	132,074
10,459	-4,375	263,841	131,774
11,473	-4,684	263,210	131,167
12,488	-4,780	262,739	130,833
13,502	-4,733	262,195	130,593
14,517	-4,840	261,865	130,320
15,531	-4,647	261,423	130,263
16,546	-4,728	261,042	129,989
17,561	-4,771	260,779	129,808
18,575	-4,617	260,365	129,728
19,590	-4,813	260,153	129,435
20,604	-4,550	259,753	129,460
21,619	-4,733	259,466	129,141
22,634	-4,668	259,220	129,065
23,648	-4,681	258,746	128,807
24,663	-4,786	258,606	128,632
25,677	-4,635	258,250	128,578
26,692	-4,611	257,926	128,426
27,707	-4,782	257,838	128,219
28,721	-4,712	257,479	128,091
29,736	-4,746	257,315	127,968
30,750	-4,789	256,888	127,706
31,765	-4,805	256,847	127,661
32,780	-4,698	256,583	127,612
33,794	-4,777	256,419	127,450
34,809	-4,790	256,262	127,348
35,823	-4,824	255,948	127,151
36,838	-4,820	255,630	126,986
37,853	-4,931	255,445	126,785
38,867	-4,845	255,226	126,741
39,882	-4,848	254,877	126,553
40,896	-4,826	254,857	126,551
41,911	-4,809	254,364	126,310
42,926	-4,758	254,181	126,253
43,940	-4,895	253,943	126,003
44,955	-5,026	253,738	125,776
45,969	-4,844	253,392	125,752
46,984	-4,955	253,261	125,579
47,999	-5,271	252,969	125,148
49,013	-5,532	252,821	124,836
50,028	-5,725	252,508	124,503
51,042	-5,796	252,347	124,351
52,057	-5,825	252,034	124,160
53,071	-5,522	251,771	124,283
54,086	-5,620	251,673	124,138
55,101	-5,421	251,539	124,232
56,115	-5,213	251,507	124,386
57,130	-4,693	251,251	124,698
58,144	-4,521	251,077	124,749
59,159	-4,621	250,900	124,563
60,174	-4,572	250,714	124,502
61,188	-4,802	250,637	124,254
62,203	-4,551	250,259	124,271
63,217	-4,613	250,135	124,146
64,232	-4,578	249,889	124,042
65,247	-4,814	249,910	123,839
66,261	-4,610	249,548	123,824
67,276	-4,752	249,156	123,496
68,290	-5,115	248,997	123,097
69,305	-5,183	248,750	122,905
70,320	-5,224	248,729	122,849
71,334	-5,082	248,484	122,838
72,349	-4,729	248,507	123,140
73,363	-4,777	248,259	122,965
74,378	-4,571	247,909	122,956
75,393	-4,678	247,627	122,714
76,407	-4,738	247,391	122,535
77,422	-4,719	247,263	122,477
78,436	-4,621	247,228	122,532
79,451	-4,450	246,854	122,480
80,466	-4,683	246,629	122,160
81,480	-4,878	246,455	121,899
82,495	-5,136	246,313	121,600
83,509	-4,781	246,057	121,762
84,524	-5,024	245,984	121,510
85,539	-5,054	245,604	121,286
86,553	-5,134	245,515	121,165
87,568	-4,906	245,318	121,248
88,582	-4,964	245,312	121,186
89,597	-5,093	244,942	120,884
90,611	-4,856	244,790	120,997
91,626	-4,678	244,608	121,045
92,641	-5,019	244,652	120,770
93,655	-4,824	244,284	120,741
94,670	-4,747	243,979	120,644
95,684	-4,862	243,961	120,528
96,699	-4,885	243,749	120,394
97,714	-5,026	243,499	120,141
98,728	-4,970	243,231	120,046
99,743	-5,104	243,138	119,877
100,757	-5,063	242,756	119,712
101,772	-5,090	242,750	119,676
102,787	-5,040	242,631	119,648
103,801	-4,884	242,321	119,614
104,816	-4,962	242,443	119,600
105,830	-4,805	242,184	119,591
106,845	-4,690	241,912	119,541
107,860	-4,782	241,662	119,331
108,874	-4,990	241,640	119,137
109,889	-5,058	241,197	118,852
110,903	-4,930	241,175	118,936
111,918	-5,113	241,015	118,696
112,933	-4,862	240,817	118,794
113,947	-5,080	240,715	118,554
114,962	-4,990	240,513	118,518
115,976	-4,804	240,325	118,568
116,991	-4,797	240,174	118,488
118,006	-4,874	239,967	118,312
119,020	-4,900	239,800	118,198
120,035	-4,718	239,673	118,274
121,049	-4,600	239,667	118,357
122,064	-4,750	239,439	118,112
123,079	-4,935	239,125	117,795
124,093	-5,039	238,915	117,596
125,108	-5,207	238,744	117,364
126,122	-5,403	238,583	117,115
127,137	-5,321	238,453	117,107
128,151	-5,207	238,180	117,055
129,166	-5,114	237,998	117,031
130,181	-5,138	237,851	116,929
131,195	-5,336	237,687	116,677
132,210	-5,209	237,539	116,697
133,224	-4,932	237,419	116,853
134,239	-4,784	237,155	116,832
135,254	-4,731	237,023	116,800
136,268	-4,880	236,860	116,588
137,283	-4,998	236,517	116,314
138,297	-5,297	236,318	115,964
139,312	-5,370	236,167	115,821
140,327	-5,203	236,195	115,959
141,341	-4,739	236,171	116,311
142,356	-4,455	235,857	116,374
143,370	-4,457	235,777	116,323
144,385	-4,349	235,435	116,231
145,400	-4,566	235,502	116,079
146,414	-4,381	235,219	116,077
147,429	-4,554	234,989	115,815
148,443	-4,562	234,913	115,761
149,458	-4,400	234,786	115,817
150,473	-4,356	234,524	115,714
151,487	-4,565	234,374	115,462
152,502	-4,425	234,221	115,488
153,516	-4,349	233,949	115,404
154,531	-4,654	233,980	115,166
155,546	-4,616	233,793	115,094
156,560	-4,506	233,478	115,016
157,575	-4,769	233,477	114,796
158,589	-4,762	233,178	114,645
159,604	-4,565	233,211	114,807
160,619	-4,366	232,937	114,820
161,633	-4,307	232,777	114,777
162,648	-4,495	232,870	114,664
163,662	-4,617	232,490	114,370
164,677	-4,598	232,335	114,298
165,692	-4,488	232,213	114,316
166,706	-4,426	231,993	114,246
167,721	-4,408	231,966	114,237
168,735	-4,431	231,772	114,113
169,750	-4,590	231,677	113,930
170,764	-4,563	231,554	113,881
171,779	-4,370	231,379	113,937
172,794	-4,466	231,290	113,807
173,808	-4,573	230,968	113,555
174,823	-5,133	230,662	112,955
175,837	-5,143	230,359	112,788
176,852	-4,806	230,359	113,042
177,867	-4,674	230,327	113,120
178,881	-4,598	230,172	113,093
179,896	-4,349	230,040	113,213
180,910	-4,432	229,873	113,056
181,925	-4,529	229,784	112,926
182,940	-4,539	229,619	112,827
183,954	-4,336	229,339	112,838
184,969	-4,225	229,281	112,886
185,983	-4,216	229,168	112,828
186,998	-4,259	228,926	112,664
188,013	-4,296	228,864	112,595
189,027	-4,247	228,650	112,518
190,042	-4,372	228,516	112,345
191,056	-4,261	228,289	112,309
192,071	-4,435	228,263	112,152
193,086	-4,272	228,015	112,146
194,100	-4,239	227,933	112,121
195,115	-4,681	227,571	111,591
196,129	-5,281	227,275	110,973
197,144	-1,823	228,340	114,163
198,159	2,133	229,597	117,856
199,173	4,149	230,138	119,692
200,188	4,447	229,945	119,811
201,202	4,414	229,712	119,654
202,217	4,568	229,705	119,759
203,232	4,809	229,408	119,780
204,246	4,661	229,440	119,671
205,261	5,036	229,110	119,778
206,275	5,036	229,104	119,764
207,290	5,357	228,850	119,868
208,304	4,849	228,830	119,456
209,319	4,817	228,797	119,403
210,334	4,653	228,419	119,069
211,348	4,713	228,219	119,000
212,363	4,339	227,938	118,556
213,377	3,984	227,832	118,217
214,392	4,042	227,609	118,135
215,407	4,248	227,457	118,204
216,421	4,148	227,323	118,047
217,436	4,077	227,171	117,903
218,450	3,976	226,839	117,643
219,465	3,762	226,729	117,412
220,480	3,855	226,640	117,427
221,494	3,836	226,425	117,290
222,509	4,139	226,492	117,546
223,523	4,083	226,264	117,374
224,538	4,022	226,195	117,281
225,553	3,852	226,065	117,074
226,567	4,219	225,811	117,211
227,582	4,401	225,880	117,375
228,596	4,361	225,703	117,242
229,611	4,375	225,470	117,122
230,626	4,116	225,146	116,746
231,640	3,953	225,269	116,676
232,655	4,305	225,062	116,825
233,669	4,527	225,128	117,017
234,684	4,775	224,840	117,045
235,699	4,659	224,518	116,779
236,713	3,953	224,616	116,286
237,728	4,179	224,127	116,193
238,742	4,248	224,029	116,183
239,757	3,939	224,038	115,945
240,772	3,931	223,875	115,844
241,786	4,030	223,621	115,777
242,801	4,163	223,720	115,918
243,815	4,425	223,539	116,011
244,830	4,491	223,353	115,953
245,844	4,237	223,148	115,647
246,859	4,364	223,026	115,668
247,874	4,480	222,881	115,669
248,888	4,440	222,623	115,495
249,903	4,384	222,468	115,363
250,917	4,074	222,417	115,094
251,932	3,980	222,204	114,903
252,947	3,882	222,182	114,809
253,961	3,764	222,003	114,618
254,976	3,942	221,823	114,647
255,990	4,258	221,666	114,792
257,005	4,067	221,656	114,634
258,020	4,179	221,526	114,639
259,034	4,614	221,351	114,862
260,049	4,255	221,251	114,533
261,063	4,296	220,979	114,413
262,078	4,615	220,852	114,574
263,093	4,486	220,794	114,437
264,107	4,411	220,556	114,248
265,122	4,464	220,435	114,215
266,136	4,661	220,347	114,305
267,151	4,573	220,213	114,160
268,166	4,157	219,809	113,633
269,180	4,039	219,693	113,476
270,195	3,861	219,591	113,282
271,209	4,148	219,418	113,394
272,224	4,003	219,405	113,271
273,239	4,109	219,317	113,293
274,253	3,843	219,204	113,029
275,268	3,508	218,861	112,596
276,282	3,959	218,692	112,830
277,297	3,782	218,592	112,639
278,312	3,990	218,466	112,716
279,326	3,911	218,395	112,612
280,341	4,080	218,337	112,695
281,355	4,209	218,085	112,649
282,370	4,052	218,078	112,521
283,384	4,044	217,842	112,383
284,399	3,980	217,549	112,176
285,414	3,981	217,492	112,137
286,428	4,134	217,478	112,231
287,443	4,511	217,170	112,336
288,457	4,166	217,183	112,082
289,472	4,106	216,989	111,928
290,487	3,767	216,624	111,484
291,501	3,655	216,500	111,329
292,516	3,786	216,483	111,406
293,530	3,831	216,442	111,407
294,545	3,825	216,136	111,235
295,560	3,859	216,128	111,246
296,574	4,182	215,888	111,346
297,589	4,031	216,018	111,294
298,603	4,152	215,793	111,255
299,618	4,163	215,601	111,154
300,633	4,079	215,480	111,022
301,647	4,166	215,512	111,090
302,662	4,153	215,317	110,972
303,676	4,405	215,044	111,002
304,691	4,412	215,035	110,992
305,706	4,242	214,930	110,806
306,720	4,379	214,816	110,836
307,735	4,205	214,600	110,590
308,749	3,934	214,407	110,286
309,764	4,329	214,299	110,503
310,779	4,384	214,178	110,471
311,793	4,273	214,164	110,374
312,808	4,162	213,860	110,128
313,822	4,087	213,763	110,014
314,837	4,085	213,522	109,880
315,852	3,881	213,321	109,621
316,866	3,979	213,202	109,620
317,881	4,374	213,183	109,882
318,895	4,281	213,150	109,789
319,910	4,052	212,959	109,518
320,925	3,767	212,674	109,159
321,939	3,733	212,340	108,953
322,954	3,812	212,282	108,970
323,968	3,989	212,457	109,176
324,983	4,070	212,272	109,129
325,997	4,222	212,160	109,169
327,012	4,167	211,967	109,021
328,027	4,282	211,810	109,012
329,041	4,253	211,685	108,917
330,056	4,533	211,619	109,071
331,070	4,044	211,399	108,603
332,085	3,850	211,220	108,365
333,100	4,037	211,064	108,407
334,114	4,059	210,980	108,369
335,129	4,346	210,857	108,498
336,143	3,741	210,726	107,996
337,158	3,932	210,539	108,025
338,173	3,968	210,477	108,009
339,187	4,010	210,209	107,890
340,202	3,825	209,983	107,635
341,216	3,761	209,920	107,549
342,231	3,812	209,831	107,529
343,246	3,767	209,822	107,484
344,260	3,949	209,694	107,535
345,275	4,092	209,532	107,543
346,289	3,995	209,524	107,461
347,304	4,010	209,438	107,418
348,319	4,093	209,090	107,288
349,333	4,161	209,004	107,282
350,348	4,098	208,882	107,166
351,362	4,254	208,847	107,247
352,377	4,045	208,670	107,001
353,392	3,825	208,524	106,763
354,406	4,020	208,355	106,803
355,421	193,348	1344,418	1431,270
356,435	154,246	1482,942	1431,381
