DTS Sentinel unit serial number:	SN410029Multiplexer serial number:	ORYXHardware model number:	OX2-SRSoftware version number:	ORYX F/W v4,00 Oryx Data Collector v3.7.2.0data status	okinstallation	B6 Nyhavnadifferential loss correction	single-endedforward channel	channel 2reverse channel	N/Adate	2023/12/08time	06:15:08forward acquisition time	300,00reverse acquisition time	0,00gamma	499,1914k internal	0,3165k external	0,3165temperature offset calibration	1,0000default loss term (dB/km)	0,3820temperature slope calibration	1,0000multiplexer offset coefficient	1,0000multiplexer slope coefficient	1,0000fibre end	0,00T internal ref (°C)	13,00T ext. ref 1 (°C)	-3,80T ext. ref 2 (°C)	-3,80length (m)	temperature (°C)	Stokes	anti-Stokes-744,400	44,672	0,039	0,026
-743,385	-34,241	-0,168	-0,068
-742,371	-137,635	0,247	-0,020
-741,356	-65,044	-0,214	-0,063
-740,342	-60,847	0,079	0,025
-739,327	-125,474	-0,376	0,042
-738,312	10,396	0,113	-0,063
-737,298	-61,748	-0,396	-0,121
-736,283	800,000	0,035	0,089
-735,269	-137,100	-0,373	-0,031
-734,254	-200,000	0,028	0,125
-733,239	20,820	-0,377	-0,224
-732,225	33,455	0,191	-0,122
-731,210	-13,229	0,044	-0,021
-730,196	800,000	-0,022	-0,066
-729,181	800,000	-0,058	-0,144
-728,167	-200,000	0,032	-0,145
-727,152	-90,331	-0,029	-0,006
-726,137	-200,000	0,035	-0,283
-725,123	56,501	-0,074	-0,053
-724,108	-200,000	0,003	-0,040
-723,094	-144,653	-0,203	0,014
-722,079	800,000	0,025	-0,054
-721,064	800,000	0,046	-0,104
-720,050	-200,000	-0,046	-0,203
-719,035	800,000	0,060	-0,134
-718,021	-200,000	0,015	-0,055
-717,006	800,000	-0,042	-0,099
-715,991	-200,000	-0,051	-0,173
-714,977	-93,984	-0,093	0,019
-713,962	-22,095	-0,083	-0,037
-712,948	571,135	0,048	0,087
-711,933	-108,023	-0,127	0,020
-710,918	-102,771	-0,028	-0,005
-709,904	345,206	-0,020	-0,028
-708,889	800,000	0,057	-0,134
-707,875	-61,491	-0,081	0,025
-706,860	-103,876	0,061	0,010
-705,845	-200,000	0,009	0,043
-704,831	-131,248	0,158	-0,015
-703,816	-105,130	-0,123	0,021
-702,802	-153,983	-0,049	0,002
-701,787	271,224	-0,029	0,038
-700,772	646,414	0,081	-0,152
-699,758	800,000	0,091	0,215
-698,743	800,000	0,057	0,166
-697,729	-135,173	0,043	0,004
-696,714	-74,761	-0,082	-0,021
-695,699	-200,000	0,010	-0,037
-694,685	-97,502	0,075	-0,014
-693,670	-200,000	0,022	-0,163
-692,656	800,000	-0,041	0,085
-691,641	148,804	-0,078	0,077
-690,627	344,834	0,042	-0,060
-689,612	101,098	0,078	-0,067
-688,597	-200,000	0,002	-0,071
-687,583	167,577	-0,118	-0,123
-686,568	88,620	-0,023	-0,019
-685,554	-200,000	-0,023	-0,098
-684,539	-160,230	-0,095	0,004
-683,524	-200,000	-0,008	0,165
-682,510	-200,000	-0,009	0,055
-681,495	108,970	-0,032	-0,028
-680,481	-122,344	-0,085	-0,010
-679,466	800,000	-0,023	0,058
-678,451	-200,000	-0,010	-0,043
-677,437	-200,000	-0,006	0,026
-676,422	399,535	0,060	-0,092
-675,408	367,696	-0,048	-0,072
-674,393	-76,763	-0,092	-0,023
-673,378	-118,498	-0,134	0,017
-672,364	435,119	0,057	-0,092
-671,349	239,029	-0,108	0,132
-670,335	800,000	0,043	0,095
-669,320	205,932	-0,111	0,127
-668,305	-50,080	-0,042	-0,015
-667,291	26,695	-0,054	0,033
-666,276	225,311	0,062	0,074
-665,262	122,281	-0,120	0,110
-664,247	170,576	0,035	-0,036
-663,232	-111,008	-0,051	-0,008
-662,218	5,625	-0,056	0,030
-661,203	100,065	0,145	-0,123
-660,189	151,660	-0,026	-0,026
-659,174	800,000	0,020	0,063
-658,159	-200,000	0,007	-0,024
-657,145	-200,000	0,008	-0,137
-656,130	6,531	0,086	-0,047
-655,116	-200,000	-0,001	-0,079
-654,101	125,161	-0,066	0,061
-653,086	227,916	0,062	0,074
-652,072	28,047	-0,080	0,049
-651,057	-51,458	0,020	0,007
-650,043	-200,000	0,001	0,067
-649,028	-200,000	0,010	-0,052
-648,014	-45,297	0,058	-0,021
-646,999	12,593	-0,030	0,017
-645,984	578,061	-0,076	0,137
-644,970	-80,190	-0,042	0,010
-643,955	-94,049	-0,085	0,017
-642,941	-45,206	-0,080	-0,029
-641,926	-122,691	0,121	-0,014
-640,911	-145,373	-0,060	-0,004
-639,897	150,710	0,080	0,080
-638,882	-68,313	0,023	-0,007
-637,868	-200,000	0,013	0,111
-636,853	-169,834	-0,025	-0,001
-635,838	-200,000	0,008	-0,063
-634,824	93,828	-0,034	0,029
-633,809	-200,000	-0,022	0,083
-632,795	688,828	-0,020	0,039
-631,780	-112,372	0,222	0,032
-630,765	409,539	-0,117	-0,182
-629,751	-92,272	-0,079	0,016
-628,736	-4,381	-0,046	-0,023
-627,722	-200,000	-0,037	-0,157
-626,707	183,949	0,056	-0,061
-625,692	99,839	-0,089	-0,076
-624,678	-200,000	0,022	0,000
-623,663	-103,991	0,036	-0,006
-622,649	270,742	-0,072	-0,092
-621,634	-124,280	0,153	-0,017
-620,619	-74,116	-0,096	-0,025
-619,605	800,000	-0,029	0,065
-618,590	-200,000	-0,006	0,101
-617,576	743,830	-0,099	0,196
-616,561	800,000	0,045	0,121
-615,546	150,369	0,035	0,035
-614,532	-111,827	-0,162	-0,024
-613,517	-100,598	-0,051	0,009
-612,503	-200,000	0,031	0,139
-611,488	-71,581	-0,123	0,033
-610,474	-200,000	-0,028	0,096
-609,459	158,972	0,044	0,044
-608,444	-99,433	-0,131	-0,024
-607,430	607,856	-0,062	0,114
-606,415	-31,742	0,065	-0,026
-605,401	228,139	0,034	0,041
-604,386	641,790	0,034	0,064
-603,371	116,531	0,028	0,025
-602,357	641,804	-0,032	0,060
-601,342	58,820	-0,097	-0,069
-600,328	-149,422	0,021	0,001
-599,313	38,639	-0,135	-0,088
-598,298	800,000	-0,023	0,061
-597,284	39,433	0,108	0,071
-596,269	242,517	0,069	0,085
-595,255	-200,000	0,011	0,036
-594,240	210,983	0,009	0,010
-593,225	271,107	-0,040	-0,052
-592,211	-174,748	-0,192	-0,004
-591,196	-95,059	0,113	0,022
-590,182	337,948	0,078	0,111
-589,167	-98,115	0,079	-0,015
-588,152	103,209	-0,045	0,038
-587,138	322,624	0,035	0,049
-586,123	-12,992	-0,128	-0,060
-585,109	110,782	0,081	-0,071
-584,094	-200,000	0,015	-0,126
-583,079	170,818	-0,131	0,137
-582,065	277,546	-0,045	0,059
-581,050	-130,116	0,053	-0,005
-580,036	118,081	-0,096	-0,086
-579,021	-19,722	0,054	0,024
-578,006	215,360	-0,100	-0,116
-576,992	-200,000	-0,010	0,103
-575,977	270,843	0,090	0,116
-574,963	251,541	-0,135	0,169
-573,948	132,499	0,114	-0,107
-572,934	800,000	-0,016	-0,045
-571,919	-77,138	-0,127	0,032
-570,904	-146,678	0,051	0,003
-569,890	230,555	0,091	0,109
-568,875	-10,733	0,088	0,042
-567,861	19,502	-0,157	-0,092
-566,846	452,523	-0,033	-0,054
-565,831	132,042	0,137	0,128
-564,817	-200,000	-0,001	-0,017
-563,802	-0,135	-0,027	-0,014
-562,788	-200,000	0,031	-0,101
-561,773	-200,000	-0,013	-0,063
-560,758	-200,000	-0,015	0,055
-559,744	89,625	0,084	-0,068
-558,729	-142,284	-0,063	0,004
-557,715	800,000	-0,028	-0,078
-556,700	92,733	-0,089	0,073
-555,685	91,665	-0,069	0,056
-554,671	-58,825	0,102	0,032
-553,656	32,759	-0,055	0,035
-552,642	-14,088	-0,055	0,026
-551,627	-200,000	0,000	0,036
-550,612	800,000	0,053	-0,117
-549,598	-200,000	-0,009	0,039
-548,583	510,181	0,014	-0,024
-547,569	-66,066	0,134	0,039
-546,554	162,958	-0,025	-0,025
-545,539	-47,714	0,103	-0,036
-544,525	-26,701	0,072	-0,031
-543,510	123,331	-0,069	0,063
-542,496	-91,620	0,061	-0,013
-541,481	-200,000	-0,029	0,147
-540,466	35,342	-0,122	-0,078
-539,452	-200,000	-0,008	-0,041
-538,437	189,293	0,042	0,046
-537,423	403,991	0,038	0,059
-536,408	101,367	-0,107	-0,091
-535,393	-200,000	0,004	-0,078
-534,379	-200,000	-0,014	-0,081
-533,364	88,519	-0,023	-0,018
-532,350	107,293	-0,077	0,067
-531,335	800,000	0,060	0,189
-530,321	-200,000	-0,016	0,118
-529,306	247,919	0,057	0,070
-528,291	-36,233	-0,143	0,056
-527,277	214,818	0,070	-0,081
-526,262	800,000	0,032	-0,083
-525,248	-200,000	-0,013	0,240
-524,233	-5,231	0,076	0,038
-523,218	-112,646	-0,067	-0,010
-522,204	-200,000	0,025	0,102
-521,189	800,000	-0,029	0,061
-520,175	-200,000	-0,052	-0,249
-519,160	-158,151	-0,085	0,004
-518,145	-102,337	-0,031	0,005
-517,131	-153,844	0,119	-0,006
-516,116	592,470	0,052	0,094
-515,102	364,761	0,039	-0,058
-514,087	37,566	-0,193	-0,125
-513,072	-200,000	-0,012	0,097
-512,058	-67,008	-0,086	-0,025
-511,043	-200,000	-0,029	-0,141
-510,029	153,284	-0,081	0,081
-509,014	-28,395	0,047	-0,020
-507,999	-166,404	-0,053	-0,002
-506,985	800,000	0,058	-0,146
-505,970	94,973	0,065	-0,054
-504,956	103,430	-0,109	-0,093
-503,941	584,678	0,135	0,242
-502,926	35,596	0,117	0,075
-501,912	-7,293	0,166	0,082
-500,897	-200,000	-0,007	-0,073
-499,883	-120,501	0,031	0,004
-498,868	170,176	-0,142	-0,148
-497,853	-151,909	-0,082	-0,004
-496,839	-16,896	0,035	-0,016
-495,824	800,000	0,031	0,070
-494,810	658,103	0,071	0,133
-493,795	-114,142	0,124	-0,017
-492,781	-12,479	-0,116	-0,055
-491,766	27,688	-0,017	0,011
-490,751	-200,000	-0,017	-0,088
-489,737	77,202	-0,049	-0,038
-488,722	-111,820	0,128	-0,019
-487,708	800,000	0,013	0,043
-486,693	-23,933	-0,057	0,025
-485,678	-73,416	-0,138	-0,036
-484,664	151,624	-0,001	-0,001
-483,649	-51,755	0,062	-0,021
-482,635	-200,000	0,010	-0,049
-481,620	-178,627	0,148	0,002
-480,605	-200,000	-0,030	-0,135
-479,591	411,586	-0,109	0,168
-478,576	-200,000	-0,003	0,027
-477,562	133,112	-0,107	-0,101
-476,547	800,000	0,015	-0,031
-475,532	-199,335	-0,048	-0,000
-474,518	31,432	0,119	0,074
-473,503	-200,000	0,003	-0,018
-472,489	-176,455	-0,105	0,002
-471,474	-200,000	0,012	0,083
-470,459	-158,007	0,044	-0,002
-469,445	-200,000	0,025	-0,095
-468,430	676,870	0,030	0,057
-467,416	-200,000	-0,008	0,032
-466,401	99,497	0,036	0,030
-465,386	-13,345	-0,107	0,050
-464,372	174,272	0,124	-0,130
-463,357	279,960	0,038	-0,049
-462,343	-200,000	0,001	-0,079
-461,328	179,265	0,035	0,037
-460,313	-128,112	-0,060	0,006
-459,299	-200,000	0,008	-0,058
-458,284	-200,000	0,022	0,071
-457,270	-65,422	0,062	-0,018
-456,255	70,588	-0,030	-0,023
-455,241	-200,000	-0,017	-0,171
-454,226	-200,000	0,010	-0,156
-453,211	-200,000	-0,004	-0,071
-452,197	-117,131	0,118	0,015
-451,182	-0,829	0,189	-0,097
-450,168	419,329	-0,056	0,087
-449,153	387,348	-0,105	-0,159
-448,138	-200,000	0,015	-0,170
-447,124	-126,514	-0,076	-0,008
-446,109	-200,000	0,094	0,000
-445,095	-200,000	-0,004	0,064
-444,080	-200,000	0,057	0,208
-443,065	800,000	0,008	0,018
-442,051	-200,000	0,008	-0,063
-441,036	102,107	0,038	0,032
-440,022	67,658	0,068	0,051
-439,007	800,000	0,048	-0,126
-437,992	140,435	0,040	-0,038
-436,978	-24,160	-0,031	0,013
-435,963	302,224	-0,026	0,036
-434,949	-200,000	0,001	0,089
-433,934	800,000	-0,039	0,099
-432,919	800,000	0,038	-0,086
-431,905	-200,000	0,017	-0,081
-430,890	-22,067	0,172	-0,075
-429,876	-200,000	0,048	0,175
-428,861	-200,000	-0,018	-0,127
-427,846	537,946	-0,018	0,031
-426,832	-111,411	-0,097	-0,014
-425,817	-91,702	-0,108	-0,022
-424,803	-200,000	0,015	-0,055
-423,788	34,860	0,022	-0,014
-422,773	356,187	0,098	0,142
-421,759	371,283	0,092	0,137
-420,744	-200,000	-0,012	0,055
-419,730	194,628	0,017	-0,019
-418,715	-200,000	0,003	-0,098
-417,701	439,435	-0,081	0,128
-416,686	-83,182	-0,062	0,014
-415,671	42,791	-0,105	0,069
-414,657	-200,000	0,047	0,183
-413,642	-200,000	0,010	-0,083
-412,628	-200,000	0,003	-0,121
-411,613	235,198	-0,104	-0,125
-410,598	800,000	0,042	-0,108
-409,584	146,347	-0,009	-0,009
-408,569	649,360	0,027	0,051
-407,555	69,816	0,091	0,068
-406,540	-157,355	-0,157	0,007
-405,525	-200,000	-0,001	-0,013
-404,511	104,689	0,112	-0,096
-403,496	291,098	-0,071	-0,094
-402,482	281,317	0,059	0,077
-401,467	97,056	0,049	0,041
-400,452	279,141	0,079	0,102
-399,438	-200,000	-0,023	0,076
-398,423	-69,203	0,054	0,015
-397,409	63,370	-0,036	-0,026
-396,394	63,794	0,078	-0,057
-395,379	-36,152	-0,092	0,036
-394,365	66,480	0,083	-0,062
-393,350	-19,802	-0,058	0,026
-392,336	-34,791	0,038	0,015
-391,321	488,066	-0,039	-0,065
-390,306	-139,795	0,075	-0,006
-389,292	-78,352	0,059	-0,015
-388,277	-199,812	0,050	-0,000
-387,263	800,000	0,056	-0,114
-386,248	44,090	-0,072	-0,048
-385,233	-122,491	0,098	-0,011
-384,219	432,497	-0,045	-0,071
-383,204	-47,404	0,011	-0,004
-382,190	800,000	-0,006	-0,012
-381,175	195,508	0,090	-0,099
-380,160	356,805	0,119	-0,173
-379,146	167,296	-0,063	-0,065
-378,131	184,038	-0,065	-0,070
-377,117	38,833	-0,113	-0,073
-376,102	149,924	0,097	-0,095
-375,088	-200,000	-0,017	-0,074
-374,073	8,054	-0,066	0,036
-373,058	116,042	0,031	0,027
-372,044	-200,000	0,008	0,122
-371,029	-200,000	-0,002	-0,111
-370,015	641,866	0,048	0,090
-369,000	362,072	0,057	0,083
-367,985	40,692	0,021	-0,014
-366,971	413,534	-0,047	0,072
-365,956	409,754	0,050	-0,077
-364,942	-200,000	-0,004	0,092
-363,927	160,981	0,074	0,075
-362,912	-200,000	-0,003	-0,031
-361,898	-200,000	-0,010	-0,053
-360,883	55,365	0,080	-0,056
-359,869	202,852	-0,088	-0,099
-358,854	14,479	0,125	-0,071
-357,839	232,312	0,022	0,026
-356,825	278,119	0,037	-0,048
-355,810	-181,367	-0,150	0,002
-354,796	800,000	0,046	-0,097
-353,781	-64,590	-0,112	-0,033
-352,766	206,490	-0,022	0,025
-351,752	800,000	0,062	0,150
-350,737	61,960	0,084	0,060
-349,723	264,793	-0,103	0,130
-348,708	79,204	0,096	0,074
-347,693	-200,000	-0,008	-0,040
-346,679	-200,000	-0,009	0,106
-345,664	800,000	0,024	0,049
-344,650	191,106	-0,043	0,046
-343,635	-145,275	0,200	0,013
-342,620	31,339	0,053	0,033
-341,606	800,000	-0,023	-0,072
-340,591	332,177	0,027	0,037
-339,577	-200,000	0,001	-0,098
-338,562	-46,222	-0,067	-0,024
-337,548	800,000	0,032	-0,093
-336,533	-142,309	-0,012	-0,001
-335,518	50,872	0,089	0,061
-334,504	67,760	0,050	-0,037
-333,489	165,576	-0,044	-0,045
-332,475	-1,904	-0,094	0,048
-331,460	-200,000	0,003	-0,079
-330,445	800,000	0,045	-0,125
-329,431	-88,358	0,059	0,013
-328,416	412,227	0,032	0,050
-327,402	781,048	0,030	-0,060
-326,387	49,999	0,145	-0,099
-325,372	175,402	0,040	-0,042
-324,358	114,447	-0,088	0,078
-323,343	157,790	-0,127	0,127
-322,329	800,000	-0,033	-0,069
-321,314	79,662	0,101	0,079
-320,299	-125,225	0,117	0,013
-319,285	-104,614	-0,084	-0,014
-318,270	600,322	-0,031	-0,056
-317,256	202,558	-0,071	0,079
-316,241	-200,000	-0,036	-0,130
-315,226	-200,000	-0,020	-0,188
-314,212	526,503	-0,024	0,041
-313,197	800,000	0,068	0,140
-312,183	-200,000	0,035	-0,266
-311,168	273,700	0,022	0,028
-310,153	-48,405	-0,033	-0,011
-309,139	358,176	0,014	0,020
-308,124	800,000	-0,014	-0,035
-307,110	-75,389	0,141	0,036
-306,095	-17,784	0,092	0,042
-305,080	-200,000	0,007	-0,059
-304,066	-109,500	-0,079	-0,012
-303,051	3,147	-0,057	-0,030
-302,037	-11,293	-0,026	0,012
-301,022	-200,000	-0,036	-0,162
-300,008	-200,000	0,007	-0,055
-298,993	14,133	-0,125	-0,070
-297,978	-3,861	-0,158	0,079
-296,964	155,497	0,042	-0,041
-295,949	773,486	0,032	0,064
-294,935	93,855	-0,031	0,025
-293,920	800,000	0,047	-0,135
-292,905	-158,771	0,041	0,002
-291,891	45,839	0,152	0,101
-290,876	-89,553	-0,076	-0,016
-289,862	-154,856	-0,092	0,004
-288,847	67,978	-0,188	-0,139
-287,832	-140,057	-0,088	-0,007
-286,818	-200,000	-0,021	-0,121
-285,803	107,256	0,063	0,054
-284,789	-23,058	0,118	-0,051
-283,774	800,000	0,026	-0,078
-282,759	314,056	0,013	0,018
-281,745	160,255	-0,039	-0,039
-280,730	29,999	-0,120	0,074
-279,716	-57,603	0,028	-0,009
-278,701	248,836	0,040	-0,050
-277,686	-81,298	0,169	0,040
-276,672	108,019	0,057	0,049
-275,657	0,348	-0,189	0,097
-274,643	641,712	-0,020	0,037
-273,628	800,000	0,023	-0,070
-272,613	-38,689	0,096	0,037
-271,599	800,000	0,052	0,140
-270,584	-191,191	-0,099	-0,001
-269,570	-200,000	0,010	0,062
-268,555	0,481	0,123	0,063
-267,540	-111,550	-0,057	0,008
-266,526	-200,000	-0,017	-0,145
-265,511	-200,000	0,013	-0,052
-264,497	543,078	-0,043	-0,075
-263,482	-18,481	0,126	0,056
-262,467	68,124	0,064	0,047
-261,453	-137,574	0,085	0,007
-260,438	-139,957	-0,051	0,004
-259,424	81,106	0,044	-0,034
-258,409	-200,000	0,005	-0,038
-257,395	800,000	0,052	-0,129
-256,380	-99,688	-0,024	-0,004
-255,365	-47,203	0,103	0,036
-254,351	-44,013	0,168	0,061
-253,336	-200,000	-0,024	-0,111
-252,322	-101,522	-0,226	0,039
-251,307	-9,250	0,077	0,037
-250,292	266,042	-0,039	0,050
-249,278	367,209	0,035	0,052
-248,263	27,125	0,104	0,063
-247,249	112,936	-0,019	0,017
-246,234	-200,000	0,006	0,174
-245,219	-130,053	-0,058	0,006
-244,205	-0,576	0,101	-0,052
-243,190	606,367	-0,019	0,034
-242,176	-45,768	0,102	0,036
-241,161	190,274	-0,024	0,026
-240,146	-200,000	0,004	-0,150
-239,132	-104,438	-0,120	-0,020
-238,117	115,134	0,075	-0,066
-237,103	-27,952	-0,150	-0,062
-236,088	598,156	0,036	-0,064
-235,073	87,826	-0,051	-0,041
-234,059	406,792	0,103	0,158
-233,044	97,010	0,098	0,081
-232,030	-154,954	-0,188	0,009
-231,015	-75,744	0,111	0,028
-230,000	39,566	-0,022	0,014
-228,986	-200,000	-0,015	-0,102
-227,971	58,221	0,042	-0,030
-226,957	66,167	0,118	0,086
-225,942	226,459	0,112	0,131
-224,927	96,179	0,009	0,007
-223,913	-129,222	-0,097	-0,010
-222,898	192,214	-0,111	0,121
-221,884	206,620	-0,101	-0,113
-220,869	11,790	0,090	0,049
-219,855	-200,000	-0,012	0,134
-218,840	-158,045	0,057	0,002
-217,825	-200,000	0,008	0,124
-216,811	-126,567	-0,142	0,015
-215,796	19,129	0,083	0,048
-214,782	-200,000	0,018	0,084
-213,767	339,348	-0,084	-0,118
-212,752	261,894	0,061	-0,076
-211,738	-45,705	0,065	0,023
-210,723	8,200	0,123	0,067
-209,709	-64,863	-0,057	0,017
-208,694	-12,025	0,061	-0,029
-207,679	515,832	0,033	0,056
-206,665	386,755	-0,075	0,112
-205,650	95,301	-0,104	0,085
-204,636	525,965	0,059	0,100
-203,621	-141,704	-0,157	-0,011
-202,606	701,101	-0,034	-0,065
-201,592	96,694	-0,101	-0,083
-200,577	-153,132	-0,076	0,004
-199,563	-115,767	0,137	-0,018
-198,548	-79,944	0,057	0,014
-197,533	0,450	0,091	0,047
-196,519	-200,000	-0,019	0,067
-195,504	-200,000	0,058	0,259
-194,490	800,000	-0,086	-0,182
-193,475	360,615	-0,034	-0,049
-192,460	-109,144	-0,051	0,008
-191,446	-142,118	-0,119	-0,008
-190,431	147,531	-0,076	0,074
-189,417	-200,000	-0,004	-0,068
-188,402	-200,000	0,016	0,104
-187,387	800,000	-0,017	-0,036
-186,373	503,321	0,007	-0,011
-185,358	11,347	0,046	0,025
-184,344	113,388	-0,123	0,107
-183,329	-200,000	0,002	-0,053
-182,315	-91,391	-0,198	-0,040
-181,300	96,416	-0,093	0,076
-180,285	-29,384	-0,037	-0,015
-179,271	-29,269	-0,017	0,007
-178,256	40,365	0,136	-0,088
-177,242	-200,000	-0,005	-0,034
-176,227	-200,000	0,024	-0,119
-175,212	125,572	-0,005	-0,004
-174,198	800,000	0,013	0,027
-173,183	131,855	-0,074	-0,069
-172,169	55,662	0,030	0,021
-171,154	-93,347	-0,139	-0,027
-170,139	50,548	0,109	-0,074
-169,125	-200,000	-0,024	-0,109
-168,110	-35,169	0,029	0,011
-167,096	73,243	-0,022	0,016
-166,081	-10,333	-0,068	-0,032
-165,066	-83,144	-0,101	-0,023
-164,052	76,738	-0,083	0,063
-163,037	800,000	0,027	-0,076
-162,023	800,000	0,016	-0,040
-161,008	-200,000	-0,013	0,066
-159,993	-200,000	0,009	0,091
-158,979	300,709	0,032	-0,043
-157,964	800,000	-0,054	-0,144
-156,950	262,395	-0,023	0,029
-155,935	800,000	0,019	-0,053
-154,920	-200,000	-0,011	-0,038
-153,906	-79,616	0,089	0,021
-152,891	800,000	-0,036	0,115
-151,877	64,016	-0,049	0,035
-150,862	-200,000	0,028	-0,174
-149,847	-200,000	0,007	-0,067
-148,833	590,354	0,025	0,045
-147,818	800,000	0,015	0,032
-146,804	800,000	0,075	-0,191
-145,789	-62,367	-0,062	0,018
-144,775	265,853	0,006	-0,007
-143,760	20,668	0,130	-0,075
-142,745	-99,160	-0,118	0,021
-141,731	800,000	0,014	0,041
-140,716	-109,074	-0,110	-0,017
-139,702	522,506	0,046	-0,079
-138,687	800,000	0,036	0,087
-137,672	-200,000	0,006	-0,036
-136,658	800,000	-0,017	-0,050
-135,643	-200,000	-0,004	0,027
-134,629	-102,837	-0,068	0,011
-133,614	-81,671	0,102	-0,024
-132,599	-200,000	0,038	0,126
-131,585	-200,000	-0,010	-0,049
-130,570	61,182	0,030	0,021
-129,556	-200,000	-0,004	0,101
-128,541	182,441	0,078	-0,083
-127,526	142,915	-0,072	-0,069
-126,512	800,000	-0,001	-0,001
-125,497	95,574	-0,055	0,045
-124,483	-83,015	0,080	0,018
-123,468	61,567	0,069	-0,049
-122,453	-200,000	-0,019	-0,171
-121,439	222,866	-0,136	-0,158
-120,424	155,203	0,081	0,080
-119,410	-80,625	0,121	0,029
-118,395	-33,994	0,052	0,020
-117,380	-158,446	0,058	-0,002
-116,366	211,945	-0,030	-0,034
-115,351	800,000	-0,099	-0,226
-114,337	-200,000	-0,025	-0,213
-113,322	186,444	-0,084	0,090
-112,307	-96,920	-0,169	0,032
-111,293	206,023	0,082	-0,091
-110,278	42,258	-0,049	-0,032
-109,264	166,017	-0,019	-0,019
-108,249	-123,033	0,128	0,015
-107,234	-56,293	-0,029	-0,009
-106,220	-200,000	-0,011	-0,067
-105,205	-200,000	-0,014	-0,050
-104,191	800,000	0,029	-0,079
-103,176	14,595	0,053	0,030
-102,162	120,005	-0,043	-0,038
-101,147	-200,000	-0,000	-0,094
-100,132	-35,313	-0,232	-0,090
-99,118	122,910	0,069	-0,062
-98,103	-200,000	-0,024	0,127
-97,089	254,506	-0,040	-0,049
-96,074	-200,000	-0,002	0,035
-95,059	302,907	0,040	0,054
-94,045	480,875	-0,043	-0,070
-93,030	22,612	-0,049	-0,029
-92,016	-45,940	-0,008	0,003
-91,001	800,000	0,052	0,112
-89,986	-200,000	-0,004	-0,072
-88,972	-200,000	-0,018	0,119
-87,957	237,779	-0,059	-0,070
-86,943	800,000	0,012	0,032
-85,928	-200,000	0,008	-0,064
-84,913	800,000	-0,015	0,036
-83,899	284,268	0,058	0,075
-82,884	-200,000	-0,044	0,142
-81,870	-65,905	0,027	0,008
-80,855	161,827	0,127	0,127
-79,840	-49,242	-0,077	-0,026
-78,826	26,883	-0,040	-0,024
-77,811	586,606	-0,028	-0,050
-76,797	-200,000	0,032	-0,112
-75,782	202,207	-0,028	-0,031
-74,767	-200,000	-0,003	0,152
-73,753	-184,304	-0,175	-0,002
-72,738	-134,045	0,074	0,006
-71,724	-45,611	0,031	0,011
-70,709	276,791	-0,059	-0,076
-69,694	82,470	0,016	-0,012
-68,680	-143,909	0,052	0,003
-67,665	-200,000	-0,031	0,141
-66,651	152,791	0,047	-0,046
-65,636	508,833	-0,083	0,138
-64,622	-85,512	-0,053	-0,012
-63,607	800,000	-0,030	-0,064
-62,592	-200,000	0,023	-0,119
-61,578	-96,398	-0,080	-0,015
-60,563	153,664	0,065	0,063
-59,549	-200,000	-0,024	0,077
-58,534	52,505	-2,192	-1,496
-57,519	-200,000	-0,023	-0,559
-56,505	-200,000	-1,486	-5,138
-55,490	146,011	0,854	0,821
-54,476	800,000	5,211	12,026
-53,461	-200,000	19,088	321,619
-52,446	800,000	742,435	2325,354
-51,432	547,650	1655,017	2847,484
-50,417	109,536	1637,330	1404,087
-49,403	73,135	1287,781	962,790
-48,388	29,257	1029,606	624,458
-47,373	19,585	992,525	569,993
-46,359	16,818	980,339	553,886
-45,344	13,379	976,617	540,480
-44,330	13,713	974,840	540,568
-43,315	13,071	972,839	537,337
-42,300	12,986	972,042	536,597
-41,286	13,026	971,028	536,148
-40,271	13,014	969,966	535,501
-39,257	13,057	969,183	535,186
-38,242	13,047	968,432	534,720
-37,227	13,028	967,483	534,111
-36,213	12,999	966,661	533,542
-35,198	13,004	965,730	533,023
-34,184	13,020	964,970	532,636
-33,169	12,939	963,989	531,808
-32,154	13,057	962,931	531,586
-31,140	12,981	962,322	530,984
-30,125	13,018	961,442	530,597
-29,111	12,996	960,550	530,013
-28,096	13,009	960,110	529,791
-27,082	13,020	959,388	529,405
-26,067	13,050	958,569	529,031
-25,052	13,054	957,800	528,597
-24,038	13,030	957,167	528,151
-23,023	12,995	956,587	527,696
-22,009	13,128	955,734	527,631
-20,994	13,065	955,347	527,194
-19,979	13,023	954,694	526,678
-18,965	13,036	953,958	526,293
-17,950	13,082	953,339	526,080
-16,936	12,993	952,868	525,513
-15,921	12,997	952,001	525,028
-14,906	12,943	951,537	524,576
-13,892	12,972	950,669	524,172
-12,877	12,850	950,107	523,449
-11,863	12,938	949,319	523,276
-10,848	12,909	948,960	522,964
-9,833	13,053	948,545	523,175
-8,819	13,044	947,571	522,587
-7,804	12,944	947,046	521,960
-6,790	12,918	946,756	521,695
-5,775	12,962	946,030	521,415
-4,760	12,952	945,266	520,941
-3,746	12,915	944,876	520,588
-2,731	12,808	943,944	519,714
-1,717	12,753	943,399	519,221
-0,702	12,796	942,521	518,852
0,313	12,551	942,230	518,698
1,327	16,149	939,871	528,719
2,342	25,416	790,300	468,998
3,356	21,450	445,158	258,273
4,371	-7,981	298,523	143,491
5,386	-11,725	280,460	131,212
6,400	-12,942	274,758	127,389
7,415	-13,049	272,391	126,181
8,429	-13,236	271,059	125,379
9,444	-13,207	270,045	124,926
10,459	-13,116	269,322	124,665
11,473	-13,214	268,578	124,220
12,488	-13,393	268,144	123,843
13,502	-13,303	267,496	123,615
14,517	-13,571	267,166	123,207
15,531	-13,510	266,833	123,098
16,546	-13,259	266,225	123,035
17,561	-13,451	265,877	122,688
18,575	-13,397	265,567	122,584
19,590	-13,391	265,289	122,451
20,604	-13,481	265,059	122,252
21,619	-13,331	264,767	122,241
22,634	-13,467	264,214	121,852
23,648	-13,555	264,026	121,676
24,663	-13,365	263,676	121,674
25,677	-13,324	263,436	121,590
26,692	-13,447	263,245	121,380
27,707	-13,418	262,812	121,196
28,721	-13,352	262,571	121,133
29,736	-13,581	262,450	120,861
30,750	-13,344	262,028	120,868
31,765	-13,507	261,846	120,628
32,780	-13,527	261,578	120,475
33,794	-13,493	261,380	120,404
34,809	-13,611	261,145	120,180
35,823	-13,652	261,013	120,072
36,838	-13,558	260,640	119,973
37,853	-13,474	260,401	119,927
38,867	-13,580	260,262	119,758
39,882	-13,615	259,943	119,570
40,896	-13,627	259,601	119,392
41,911	-13,719	259,436	119,224
42,926	-13,734	259,190	119,087
43,940	-13,727	258,846	118,924
44,955	-13,776	258,841	118,867
45,969	-13,781	258,611	118,748
46,984	-14,014	258,208	118,347
47,999	-14,106	257,803	118,070
49,013	-14,379	257,698	117,771
50,028	-14,451	257,402	117,563
51,042	-14,478	257,225	117,448
52,057	-14,320	256,865	117,411
53,071	-14,346	256,600	117,257
54,086	-14,172	256,373	117,294
55,101	-13,967	256,241	117,402
56,115	-13,962	256,312	117,428
57,130	-13,356	256,038	117,821
58,144	-13,214	256,005	117,918
59,159	-13,253	255,757	117,760
60,174	-13,471	255,518	117,450
61,188	-13,339	255,163	117,391
62,203	-13,306	255,074	117,369
63,217	-13,589	254,964	117,062
64,232	-13,519	254,746	117,012
65,247	-13,376	254,496	117,010
66,261	-13,288	254,185	116,933
67,276	-13,923	254,044	116,309
68,290	-13,955	253,589	116,063
69,305	-14,252	253,433	115,725
70,320	-13,936	253,243	115,900
71,334	-13,675	253,106	116,052
72,349	-13,291	253,016	116,330
73,363	-13,303	252,867	116,241
74,378	-13,181	252,466	116,151
75,393	-13,325	252,381	115,978
76,407	-13,662	252,133	115,565
77,422	-13,522	251,835	115,538
78,436	-13,438	251,658	115,519
79,451	-13,496	251,490	115,382
80,466	-13,446	251,103	115,236
81,480	-13,785	250,900	114,844
82,495	-13,902	250,706	114,645
83,509	-13,654	250,641	114,816
84,524	-13,756	250,253	114,541
85,539	-13,823	250,004	114,361
86,553	-13,994	249,979	114,194
87,568	-13,712	249,682	114,287
88,582	-13,657	249,564	114,269
89,597	-13,844	249,494	114,069
90,611	-13,628	249,176	114,096
91,626	-13,414	249,076	114,221
92,641	-13,383	248,999	114,202
93,655	-13,593	248,616	113,839
94,670	-13,595	248,510	113,778
95,684	-13,614	248,228	113,623
96,699	-13,586	247,997	113,531
97,714	-13,808	247,779	113,234
98,728	-13,729	247,677	113,244
99,743	-14,052	247,277	112,780
100,757	-14,047	247,113	112,700
101,772	-13,755	246,943	112,856
102,787	-13,776	246,822	112,773
103,801	-13,712	246,633	112,730
104,816	-13,587	246,414	112,725
105,830	-13,486	246,386	112,786
106,845	-13,548	246,243	112,659
107,860	-13,462	246,056	112,635
108,874	-13,377	245,648	112,509
109,889	-13,751	245,435	112,090
110,903	-13,759	245,371	112,045
111,918	-13,822	245,220	111,913
112,933	-13,603	244,853	111,917
113,947	-13,593	244,896	111,935
114,962	-13,386	244,671	111,994
115,976	-13,544	244,495	111,772
116,991	-13,551	244,451	111,737
118,006	-13,675	244,171	111,497
119,020	-13,675	244,085	111,447
120,035	-13,311	243,848	111,630
121,049	-13,641	243,770	111,312
122,064	-13,594	243,692	111,304
123,079	-13,589	243,220	111,083
124,093	-13,634	243,200	111,028
125,108	-14,031	242,770	110,495
126,122	-14,123	242,571	110,319
127,137	-14,021	242,419	110,324
128,151	-13,968	242,215	110,265
129,166	-13,778	241,995	110,310
130,181	-14,011	241,808	110,025
131,195	-13,913	241,646	110,021
132,210	-13,691	241,551	110,149
133,224	-13,604	241,263	110,079
134,239	-13,740	241,276	109,964
135,254	-13,481	240,947	110,015
136,268	-13,682	240,722	109,739
137,283	-13,854	240,526	109,501
138,297	-14,080	240,224	109,169
139,312	-14,073	240,152	109,133
140,327	-13,638	240,072	109,439
141,341	-13,199	240,103	109,800
142,356	-13,092	239,862	109,767
143,370	-13,089	239,718	109,693
144,385	-13,082	239,584	109,628
145,400	-13,171	239,445	109,482
146,414	-13,162	239,186	109,362
147,429	-13,358	239,171	109,187
148,443	-13,228	238,776	109,101
149,458	-13,308	238,633	108,962
150,473	-13,280	238,509	108,918
151,487	-13,475	238,228	108,624
152,502	-13,225	238,115	108,763
153,516	-13,164	237,983	108,742
154,531	-13,250	237,943	108,645
155,546	-13,229	237,577	108,485
156,560	-13,374	237,408	108,282
157,575	-13,500	237,274	108,111
158,589	-13,341	237,093	108,146
159,604	-13,318	237,024	108,123
160,619	-13,073	236,869	108,238
161,633	-13,038	236,471	108,075
162,648	-13,030	236,489	108,080
163,662	-13,033	236,294	107,978
164,677	-13,531	236,132	107,498
165,692	-13,242	236,106	107,707
166,706	-13,197	235,920	107,648
167,721	-13,113	235,640	107,578
168,735	-13,001	235,551	107,616
169,750	-13,055	235,411	107,500
170,764	-13,138	235,286	107,367
171,779	-13,107	235,172	107,330
172,794	-13,156	234,940	107,176
173,808	-13,307	234,626	106,904
174,823	-13,741	234,339	106,421
175,837	-13,894	234,195	106,226
176,852	-13,534	234,170	106,489
177,867	-13,296	234,073	106,623
178,881	-13,160	233,880	106,633
179,896	-13,184	233,850	106,590
180,910	-13,087	233,767	106,619
181,925	-13,071	233,467	106,485
182,940	-13,134	233,377	106,386
183,954	-12,926	233,121	106,422
184,969	-13,056	233,067	106,286
185,983	-12,997	232,993	106,290
186,998	-12,980	232,779	106,196
188,013	-12,827	232,485	106,172
189,027	-12,768	232,374	106,158
190,042	-13,096	232,217	105,820
191,056	-13,103	232,141	105,771
192,071	-12,915	231,834	105,768
193,086	-12,917	231,698	105,695
194,100	-12,929	231,489	105,581
195,115	-13,236	231,157	105,182
196,129	-12,820	231,401	105,607
197,144	-6,798	233,271	111,167
198,159	-1,108	235,227	116,570
199,173	2,477	236,144	119,840
200,188	3,094	236,100	120,293
201,202	2,905	235,854	120,009
202,217	3,053	236,013	120,195
203,232	3,353	235,708	120,265
204,246	3,502	235,408	120,218
205,261	3,200	235,523	120,029
206,275	3,546	235,393	120,223
207,290	3,546	235,235	120,132
208,304	3,515	235,149	120,053
209,319	3,685	234,926	120,061
210,334	3,558	234,494	119,731
211,348	3,329	234,428	119,508
212,363	3,157	234,043	119,167
213,377	2,643	234,036	118,752
214,392	2,629	233,834	118,628
215,407	2,877	233,612	118,698
216,421	3,022	233,457	118,722
217,436	2,725	233,389	118,445
218,450	2,557	233,137	118,176
219,465	2,464	232,961	118,004
220,480	2,451	232,903	117,954
221,494	2,684	232,720	118,032
222,509	2,835	232,638	118,096
223,523	2,894	232,351	117,986
224,538	2,867	232,291	117,924
225,553	2,780	232,170	117,785
226,567	2,975	231,995	117,836
227,582	3,171	231,981	117,970
228,596	3,180	231,815	117,881
229,611	2,918	231,580	117,550
230,626	2,777	231,408	117,343
231,640	2,581	231,116	117,034
232,655	2,939	231,087	117,284
233,669	3,264	231,156	117,559
234,684	3,406	230,833	117,493
235,699	3,172	230,812	117,292
236,713	2,810	230,619	116,907
237,728	2,759	230,367	116,729
238,742	2,600	230,141	116,483
239,757	2,663	230,044	116,471
240,772	2,824	229,813	116,467
241,786	2,682	229,663	116,272
242,801	2,975	229,640	116,474
243,815	3,254	229,667	116,690
244,830	3,472	229,402	116,711
245,844	2,989	229,091	116,175
246,859	2,802	229,048	116,000
247,874	3,201	228,816	116,176
248,888	2,807	228,870	115,893
249,903	2,644	228,706	115,676
250,917	2,939	228,376	115,723
251,932	2,837	228,239	115,565
252,947	2,630	228,076	115,316
253,961	2,505	227,955	115,150
254,976	2,533	227,732	115,048
255,990	3,109	227,743	115,479
257,005	3,013	227,602	115,324
258,020	2,909	227,397	115,132
259,034	3,130	227,317	115,247
260,049	3,152	227,133	115,161
261,063	3,018	227,144	115,055
262,078	3,180	226,865	115,025
263,093	3,205	226,878	115,040
264,107	3,115	226,526	114,784
265,122	3,195	226,440	114,790
266,136	3,315	226,456	114,878
267,151	3,225	226,201	114,671
268,166	3,019	225,854	114,331
269,180	2,369	225,680	113,747
270,195	2,715	225,665	113,987
271,209	2,811	225,462	113,946
272,224	2,822	225,375	113,901
273,239	2,834	225,315	113,869
274,253	2,770	224,916	113,609
275,268	2,814	224,793	113,570
276,282	2,500	224,750	113,304
277,297	2,521	224,635	113,253
278,312	2,756	224,541	113,369
279,326	2,847	224,325	113,317
280,341	2,843	224,238	113,261
281,355	2,693	224,006	113,022
282,370	2,734	224,069	113,074
283,384	2,596	223,653	112,752
284,399	2,605	223,479	112,661
285,414	2,704	223,480	112,725
286,428	2,750	223,223	112,619
287,443	3,170	223,173	112,894
288,457	2,880	223,186	112,676
289,472	2,691	222,896	112,381
290,487	2,574	222,512	112,091
291,501	2,429	222,460	111,948
292,516	2,526	222,321	111,939
293,530	2,296	222,259	111,729
294,545	2,441	222,072	111,731
295,560	2,569	222,153	111,856
296,574	2,601	222,003	111,794
297,589	2,716	221,740	111,737
298,603	2,864	221,734	111,832
299,618	2,803	221,421	111,619
300,633	2,751	221,449	111,585
301,647	3,092	221,439	111,820
302,662	2,950	221,201	111,586
303,676	2,894	220,938	111,402
304,691	2,888	220,902	111,370
305,706	3,095	220,733	111,426
306,720	3,063	220,621	111,335
307,735	2,906	220,392	111,096
308,749	2,672	220,215	110,827
309,764	2,823	220,099	110,868
310,779	3,162	219,876	110,992
311,793	3,185	219,803	110,962
312,808	2,773	219,734	110,619
313,822	2,800	219,509	110,516
314,837	2,830	219,401	110,473
315,852	2,732	219,274	110,328
316,866	2,795	219,241	110,347
317,881	3,159	218,970	110,463
318,895	2,907	218,867	110,220
319,910	2,982	218,514	110,086
320,925	2,752	218,313	109,810
321,939	2,305	218,286	109,465
322,954	2,567	218,153	109,577
323,968	2,968	218,092	109,825
324,983	2,831	218,048	109,694
325,997	2,922	217,850	109,650
327,012	2,888	217,614	109,497
328,027	2,820	217,712	109,488
329,041	3,049	217,696	109,634
330,056	3,360	217,368	109,683
331,070	2,626	217,116	109,020
332,085	2,412	217,012	108,805
333,100	2,734	216,845	108,942
334,114	2,678	216,627	108,782
335,129	2,383	216,543	108,520
336,143	2,844	216,479	108,807
337,158	3,092	216,484	108,976
338,173	2,910	216,224	108,706
339,187	2,792	216,011	108,506
340,202	2,677	215,835	108,326
341,216	2,810	215,650	108,318
342,231	2,605	215,660	108,168
343,246	2,689	215,401	108,088
344,260	2,857	215,302	108,147
345,275	2,785	215,292	108,082
346,289	3,141	215,122	108,239
347,304	2,904	214,988	107,994
348,319	2,644	214,838	107,725
349,333	2,893	214,498	107,721
350,348	2,800	214,570	107,682
351,362	3,191	214,473	107,899
352,377	3,072	214,250	107,694
353,392	3,138	214,135	107,673
354,406	2,922	214,019	107,453
355,421	197,597	1313,458	1392,820
356,435	158,136	1447,344	1392,756
