DTS Sentinel unit serial number:	SN410029Multiplexer serial number:	ORYXHardware model number:	OX2-SRSoftware version number:	ORYX F/W v4,00 Oryx Data Collector v3.7.2.0data status	okinstallation	B6 Nyhavnadifferential loss correction	single-endedforward channel	channel 2reverse channel	N/Adate	2023/12/09time	07:25:08forward acquisition time	300,00reverse acquisition time	0,00gamma	499,1914k internal	0,3139k external	0,3139temperature offset calibration	1,0000default loss term (dB/km)	0,3820temperature slope calibration	1,0000multiplexer offset coefficient	1,0000multiplexer slope coefficient	1,0000fibre end	0,00T internal ref (°C)	18,57T ext. ref 1 (°C)	2,01T ext. ref 2 (°C)	2,01length (m)	temperature (°C)	Stokes	anti-Stokes-744,400	29,647	0,080	0,051
-743,385	-142,669	-0,194	0,014
-742,371	295,442	0,059	0,080
-741,356	29,019	-0,229	0,144
-740,342	-74,535	0,115	-0,031
-739,327	-4,337	-0,262	-0,134
-738,312	-186,880	0,144	0,001
-737,298	-64,805	-0,380	0,113
-736,283	133,680	0,019	-0,018
-735,269	-124,287	-0,192	0,022
-734,254	177,995	0,120	0,130
-733,239	-62,885	-0,506	-0,154
-732,225	96,808	0,033	0,028
-731,210	291,558	-0,036	0,048
-730,196	282,487	0,027	0,035
-729,181	78,854	-0,091	-0,072
-728,167	-101,369	-0,108	-0,019
-727,152	145,995	0,084	0,084
-726,137	-150,922	-0,082	-0,004
-725,123	45,526	-0,112	-0,077
-724,108	-36,782	-0,149	-0,059
-723,094	-200,000	0,010	-0,040
-722,079	-74,997	-0,170	-0,045
-721,064	138,277	-0,058	-0,057
-720,050	114,717	0,060	-0,054
-719,035	162,599	-0,109	-0,114
-718,021	190,240	-0,030	-0,034
-717,006	800,000	0,031	-0,090
-715,991	209,729	-0,121	-0,141
-714,977	535,647	0,040	0,070
-713,962	-193,005	-0,111	-0,001
-712,948	-21,164	-0,091	-0,041
-711,933	-93,497	0,098	-0,020
-710,918	-200,000	-0,005	-0,077
-709,904	-200,000	-0,023	-0,126
-708,889	731,480	-0,036	0,071
-707,875	-77,827	0,110	-0,028
-706,860	800,000	-0,023	-0,063
-705,845	800,000	-0,012	-0,030
-704,831	-200,000	-0,009	0,036
-703,816	180,660	-0,039	0,042
-702,802	-88,460	0,114	-0,025
-701,787	800,000	0,014	-0,039
-700,772	-200,000	0,000	-0,024
-699,758	-200,000	0,003	0,041
-698,743	800,000	-0,010	0,026
-697,729	-200,000	-0,005	0,070
-696,714	-82,094	-0,083	0,020
-695,699	118,582	-0,024	0,022
-694,685	186,941	-0,185	-0,204
-693,670	554,605	0,075	-0,134
-692,656	-144,145	-0,083	0,006
-691,641	87,091	0,133	0,109
-690,627	1,835	0,036	0,019
-689,612	-5,130	-0,049	-0,025
-688,597	6,345	0,034	-0,019
-687,583	-140,436	-0,055	-0,004
-686,568	800,000	0,075	-0,219
-685,554	-200,000	0,006	-0,031
-684,539	-144,173	0,036	-0,002
-683,524	-101,595	0,179	-0,032
-682,510	-200,000	0,004	0,023
-681,495	780,201	-0,053	-0,109
-680,481	-176,900	-0,245	0,004
-679,466	800,000	-0,022	0,059
-678,451	76,385	0,147	-0,115
-677,437	31,424	-0,061	-0,039
-676,422	-93,390	-0,054	-0,011
-675,408	-38,692	0,145	0,056
-674,393	688,579	0,024	0,047
-673,378	800,000	-0,027	0,067
-672,364	209,267	-0,025	-0,029
-671,349	-200,000	-0,026	-0,118
-670,335	783,783	0,063	0,129
-669,320	-190,091	0,062	-0,000
-668,305	40,075	-0,114	-0,076
-667,291	-200,000	0,004	-0,057
-666,276	-200,000	0,022	-0,183
-665,262	71,753	-0,068	-0,052
-664,247	-146,806	0,085	-0,005
-663,232	211,864	0,033	-0,039
-662,218	-65,301	-0,046	0,014
-661,203	800,000	-0,050	0,134
-660,189	44,134	0,043	0,029
-659,174	105,237	0,047	-0,041
-658,159	338,545	-0,026	-0,037
-657,145	-200,000	0,010	-0,083
-656,130	800,000	0,015	-0,032
-655,116	143,315	0,096	-0,095
-654,101	5,049	0,036	-0,020
-653,086	-116,951	0,130	0,017
-652,072	800,000	0,035	0,081
-651,057	-200,000	-0,018	-0,082
-650,043	94,407	-0,076	-0,064
-649,028	800,000	0,014	-0,039
-648,014	778,408	-0,017	0,034
-646,999	-48,093	-0,036	0,013
-645,984	234,446	-0,053	-0,065
-644,970	-23,446	0,037	-0,016
-643,955	-99,316	-0,077	0,014
-642,941	800,000	-0,052	-0,108
-641,926	33,818	-0,038	-0,024
-640,911	-12,328	0,021	-0,010
-639,897	380,891	0,067	-0,101
-638,882	800,000	-0,086	0,209
-637,868	-200,000	0,012	0,076
-636,853	-130,646	-0,070	0,007
-635,838	-35,030	-0,015	0,006
-634,824	-32,473	-0,119	0,049
-633,809	14,005	0,116	0,066
-632,795	-166,426	0,165	0,005
-631,780	-200,000	-0,010	0,050
-630,765	800,000	0,020	0,057
-629,751	-154,726	-0,151	0,007
-628,736	-200,000	-0,014	-0,134
-627,722	-42,892	0,047	0,018
-626,707	450,640	-0,016	0,026
-625,692	-74,183	-0,146	0,039
-624,678	689,131	0,021	0,042
-623,663	445,226	-0,011	0,017
-622,649	800,000	0,018	-0,049
-621,634	-36,067	-0,163	-0,065
-620,619	40,309	-0,048	-0,032
-619,605	-200,000	-0,015	0,068
-618,590	800,000	-0,036	0,111
-617,576	-200,000	0,003	0,027
-616,561	390,643	0,036	-0,056
-615,546	750,421	0,038	-0,076
-614,532	-29,233	-0,054	0,023
-613,517	-12,827	0,019	-0,009
-612,503	20,841	0,139	0,083
-611,488	-109,716	0,090	-0,014
-610,474	744,206	-0,029	0,057
-609,459	80,281	-0,089	-0,071
-608,444	-200,000	-0,010	-0,113
-607,430	-51,370	0,166	-0,057
-606,415	69,906	-0,101	0,077
-605,401	-120,028	0,092	0,011
-604,386	222,541	-0,050	0,060
-603,371	800,000	-0,033	0,088
-602,357	-47,808	0,084	0,030
-601,342	-200,000	-0,013	0,124
-600,328	85,395	0,064	0,051
-599,313	159,772	-0,097	-0,100
-598,298	800,000	0,035	0,077
-597,284	-132,048	-0,128	-0,012
-596,269	55,869	-0,073	-0,052
-595,255	279,051	-0,039	-0,051
-594,240	800,000	-0,032	-0,065
-593,225	-200,000	-0,030	-0,203
-592,211	83,604	-0,110	-0,089
-591,196	-200,000	-0,009	0,072
-590,182	157,349	0,086	0,088
-589,167	282,511	-0,047	-0,062
-588,152	161,516	0,023	0,023
-587,138	-200,000	-0,004	0,131
-586,123	-174,871	-0,077	0,002
-585,109	13,483	0,040	-0,023
-584,094	-200,000	-0,029	0,111
-583,079	243,661	0,062	-0,077
-582,065	800,000	-0,019	-0,038
-581,050	-120,752	-0,024	0,003
-580,036	-30,924	0,049	-0,020
-579,021	-200,000	-0,000	0,055
-578,006	275,246	0,034	-0,044
-576,992	95,624	-0,076	-0,064
-575,977	29,948	0,046	-0,029
-574,963	74,749	-0,009	-0,007
-573,948	333,169	-0,050	0,071
-572,934	-60,866	0,041	-0,013
-571,919	639,118	0,045	-0,085
-570,904	30,615	-0,153	-0,096
-569,890	183,373	-0,083	0,090
-568,875	-154,406	0,130	0,006
-567,861	138,787	0,089	0,086
-566,846	-6,230	0,112	-0,056
-565,831	74,833	0,151	-0,117
-564,817	-200,000	0,044	-0,175
-563,802	-200,000	-0,007	-0,051
-562,788	17,560	0,064	0,037
-561,773	-74,169	0,122	-0,032
-560,758	51,304	0,085	-0,059
-559,744	800,000	0,024	0,060
-558,729	-200,000	0,007	0,111
-557,715	-143,873	0,099	-0,007
-556,700	-78,868	-0,198	0,049
-555,685	-62,159	0,119	0,036
-554,671	-200,000	-0,027	-0,140
-553,656	246,888	0,034	0,042
-552,642	-200,000	-0,022	0,123
-551,627	614,423	-0,074	0,137
-550,612	-11,419	0,046	0,022
-549,598	647,650	0,087	-0,164
-548,583	-54,867	-0,021	-0,007
-547,569	-125,279	0,187	-0,021
-546,554	-81,036	0,114	0,027
-545,539	90,009	-0,068	0,056
-544,525	-44,492	0,145	0,053
-543,510	-169,547	-0,158	0,004
-542,496	69,763	-0,075	-0,057
-541,481	142,755	-0,035	0,034
-540,466	-200,000	0,019	-0,158
-539,452	-200,000	-0,011	0,100
-538,437	-98,865	-0,139	-0,026
-537,423	-200,000	-0,004	0,053
-536,408	-46,618	-0,162	0,058
-535,393	317,983	-0,022	0,031
-534,379	89,803	-0,098	-0,080
-533,364	-107,538	-0,147	0,023
-532,350	-97,981	0,077	0,015
-531,335	771,023	0,057	0,114
-530,321	82,906	0,024	-0,019
-529,306	-81,102	0,022	-0,005
-528,291	639,302	0,050	-0,093
-527,277	800,000	0,049	-0,116
-526,262	-198,372	0,013	0,000
-525,248	-97,546	0,100	0,019
-524,233	800,000	-0,033	0,080
-523,218	-200,000	0,001	-0,064
-522,204	-122,897	-0,102	0,012
-521,189	88,682	-0,042	-0,035
-520,175	800,000	0,021	0,043
-519,160	800,000	0,040	-0,112
-518,145	-200,000	0,069	0,280
-517,131	590,105	0,056	0,102
-516,116	430,980	0,072	-0,115
-515,102	68,233	-0,081	0,061
-514,087	-200,000	-0,057	-0,199
-513,072	-180,599	-0,012	-0,000
-512,058	-200,000	0,001	-0,064
-511,043	538,628	-0,056	-0,098
-510,029	712,925	-0,045	0,088
-509,014	-28,529	-0,100	0,042
-507,999	-148,691	0,131	-0,008
-506,985	72,923	-0,111	-0,085
-505,970	800,000	-0,078	0,194
-504,956	800,000	0,013	0,027
-503,941	-8,648	0,168	-0,083
-502,926	172,467	0,107	0,113
-501,912	-54,345	0,112	0,037
-500,897	286,479	-0,080	0,107
-499,883	702,817	-0,087	-0,169
-498,868	-200,000	0,013	-0,055
-497,853	-69,596	-0,096	0,027
-496,839	529,226	0,008	-0,014
-495,824	-200,000	0,008	0,213
-494,810	39,235	-0,164	-0,107
-493,795	-136,912	0,054	-0,004
-492,781	-38,653	0,059	0,023
-491,766	-200,000	0,017	-0,085
-490,751	469,466	-0,050	-0,082
-489,737	-90,798	0,085	0,018
-488,722	778,271	-0,037	-0,075
-487,708	-200,000	-0,000	0,056
-486,693	49,354	0,045	0,031
-485,678	800,000	-0,035	0,094
-484,664	-108,075	0,051	-0,008
-483,649	11,613	0,056	-0,032
-482,635	46,855	-0,016	0,011
-481,620	228,987	0,045	-0,054
-480,605	-137,050	-0,015	0,001
-479,591	49,211	0,115	0,079
-478,576	-146,911	-0,081	-0,005
-477,562	-200,000	0,035	-0,148
-476,547	-74,531	-0,151	-0,040
-475,532	183,761	0,047	-0,051
-474,518	75,274	-0,028	-0,022
-473,503	-58,832	0,039	-0,012
-472,489	-104,494	-0,061	-0,010
-471,474	-160,281	0,135	0,005
-470,459	-154,218	-0,046	-0,002
-469,445	-200,000	0,015	0,055
-468,430	-33,061	-0,068	0,028
-467,416	152,511	0,036	-0,036
-466,401	-134,456	0,061	0,005
-465,386	-50,890	0,037	0,013
-464,372	800,000	-0,012	-0,029
-463,357	-32,074	0,047	-0,019
-462,343	-200,000	0,030	-0,123
-461,328	800,000	0,012	0,031
-460,313	349,073	0,135	0,196
-459,299	-2,558	0,093	-0,047
-458,284	-8,023	-0,095	0,047
-457,270	-108,996	-0,085	0,013
-456,255	133,765	0,126	-0,120
-455,241	-79,757	-0,019	0,005
-454,226	-23,833	0,060	-0,026
-453,211	-73,710	-0,086	-0,023
-452,197	-23,538	-0,029	-0,013
-451,182	221,084	0,042	-0,049
-450,168	120,564	-0,029	0,027
-449,153	209,614	-0,043	0,049
-448,138	-27,399	-0,101	-0,043
-447,124	244,275	-0,033	-0,041
-446,109	367,761	0,073	-0,109
-445,095	-71,699	-0,031	-0,008
-444,080	-32,176	0,113	-0,046
-443,065	77,877	0,047	-0,037
-442,051	150,968	-0,045	0,045
-441,036	288,901	0,036	-0,048
-440,022	-200,000	-0,024	-0,139
-439,007	-200,000	0,024	-0,079
-437,992	39,486	0,116	0,076
-436,978	-31,522	-0,081	0,033
-435,963	151,272	0,071	0,070
-434,949	-7,674	-0,053	-0,026
-433,934	143,671	0,061	-0,059
-432,919	144,055	-0,014	-0,014
-431,905	-43,865	-0,140	0,051
-430,890	-149,962	0,158	0,009
-429,876	14,551	-0,041	-0,023
-428,861	-160,781	0,044	0,002
-427,846	552,381	-0,074	-0,131
-426,832	-154,791	0,055	0,003
-425,817	800,000	-0,084	-0,181
-424,803	133,405	-0,080	0,076
-423,788	-200,000	0,008	-0,064
-422,773	-160,855	0,050	0,002
-421,759	-200,000	-0,015	-0,110
-420,744	465,513	-0,053	0,087
-419,730	800,000	-0,013	0,027
-418,715	780,631	-0,069	-0,140
-417,701	7,322	-0,075	-0,041
-416,686	61,406	-0,057	-0,041
-415,671	800,000	0,069	-0,164
-414,657	127,024	-0,095	0,088
-413,642	-106,219	0,155	-0,025
-412,628	388,533	-0,031	0,047
-411,613	273,811	-0,061	0,080
-410,598	31,785	-0,083	-0,052
-409,584	178,377	0,051	-0,054
-408,569	124,918	0,057	0,053
-407,555	-200,000	0,009	0,083
-406,540	96,299	0,041	-0,034
-405,525	-200,000	0,005	-0,043
-404,511	1,011	-0,092	0,048
-403,496	-41,709	0,009	-0,003
-402,482	54,612	-0,154	-0,109
-401,467	-200,000	0,001	0,079
-400,452	-200,000	0,006	0,065
-399,438	-13,415	0,119	0,056
-398,423	400,222	0,060	-0,093
-397,409	-54,266	0,029	0,010
-396,394	-200,000	-0,001	-0,051
-395,379	551,296	-0,036	0,063
-394,365	345,713	-0,062	-0,089
-393,350	45,617	-0,054	-0,036
-392,336	800,000	-0,069	0,169
-391,321	-200,000	0,005	0,065
-390,306	-200,000	0,018	-0,073
-389,292	138,726	-0,119	-0,115
-388,277	-76,721	-0,139	0,035
-387,263	-200,000	0,007	0,081
-386,248	48,984	0,031	-0,021
-385,233	145,438	0,075	-0,074
-384,219	-200,000	0,010	-0,094
-383,204	641,289	-0,038	-0,071
-382,190	-200,000	-0,027	0,140
-381,175	-167,513	0,078	-0,002
-380,160	-200,000	-0,030	0,106
-379,146	263,902	-0,030	0,039
-378,131	800,000	-0,057	0,143
-377,117	-200,000	-0,003	-0,066
-376,102	-13,299	-0,118	-0,056
-375,088	188,450	0,015	-0,016
-374,073	-49,498	0,069	-0,024
-373,058	-150,746	0,090	-0,005
-372,044	-200,000	0,039	-0,157
-371,029	-200,000	0,001	-0,067
-370,015	43,980	0,077	-0,051
-369,000	-200,000	0,001	-0,096
-367,985	-200,000	0,013	0,073
-366,971	-200,000	0,000	-0,046
-365,956	29,579	-0,049	-0,031
-364,942	186,346	0,006	-0,007
-363,927	285,319	-0,060	0,079
-362,912	-71,122	-0,202	0,055
-361,898	-169,905	-0,061	-0,002
-360,883	122,296	0,022	-0,020
-359,869	-35,941	-0,066	0,026
-358,854	-200,000	-0,020	-0,116
-357,839	-173,588	0,098	0,002
-356,825	-33,165	-0,153	0,062
-355,810	-200,000	-0,007	0,117
-354,796	-2,900	-0,049	-0,025
-353,781	684,238	0,038	-0,072
-352,766	60,966	-0,071	0,052
-351,752	-200,000	0,016	0,055
-350,737	-200,000	-0,003	0,090
-349,723	800,000	-0,042	0,131
-348,708	77,882	0,060	-0,046
-347,693	-173,411	-0,067	0,001
-346,679	-200,000	0,009	-0,058
-345,664	210,367	-0,049	-0,056
-344,650	351,689	-0,029	0,042
-343,635	-141,140	0,134	-0,010
-342,620	800,000	0,021	0,048
-341,606	-200,000	-0,006	0,050
-340,591	-200,000	0,007	-0,026
-339,577	-146,613	-0,099	0,006
-338,562	403,379	0,057	-0,088
-337,548	800,000	-0,056	0,172
-336,533	-133,807	0,111	0,010
-335,518	800,000	0,017	0,046
-334,504	-200,000	-0,000	0,011
-333,489	-200,000	-0,001	-0,167
-332,475	105,064	0,035	-0,030
-331,460	-200,000	0,019	0,143
-330,445	120,329	-0,027	-0,025
-329,431	-44,610	0,044	0,016
-328,416	-200,000	-0,008	0,162
-327,402	-200,000	-0,041	0,290
-326,387	50,669	0,089	0,061
-325,372	154,244	0,106	-0,106
-324,358	248,773	-0,048	-0,060
-323,343	-83,573	0,036	-0,008
-322,329	-200,000	0,028	0,121
-321,314	800,000	0,021	0,046
-320,299	21,033	0,195	-0,115
-319,285	91,197	0,099	-0,081
-318,270	-102,075	0,061	-0,011
-317,256	-108,664	-0,126	0,019
-316,241	-79,081	-0,126	-0,031
-315,226	-70,814	-0,011	-0,003
-314,212	-153,552	-0,173	-0,009
-313,197	21,817	-0,104	-0,062
-312,183	150,676	0,055	0,054
-311,168	800,000	-0,049	-0,115
-310,153	-200,000	0,009	-0,029
-309,139	15,054	-0,114	0,065
-308,124	261,899	-0,128	0,162
-307,110	796,669	0,115	0,232
-306,095	496,350	-0,024	-0,041
-305,080	222,564	-0,076	-0,089
-304,066	150,650	-0,050	0,049
-303,051	-84,228	-0,063	0,014
-302,037	800,000	-0,034	-0,087
-301,022	-47,687	0,092	0,032
-300,008	800,000	-0,040	-0,115
-298,993	148,985	-0,023	0,023
-297,978	-200,000	-0,008	0,104
-296,964	80,109	-0,088	0,069
-295,949	20,947	-0,035	-0,021
-294,935	-95,497	-0,125	0,024
-293,920	309,879	0,028	0,038
-292,905	-25,600	0,095	0,041
-291,891	541,806	0,056	-0,097
-290,876	63,491	0,075	0,055
-289,862	-67,264	0,076	0,022
-288,847	71,266	-0,093	0,070
-287,832	157,674	-0,044	0,044
-286,818	-200,000	0,028	0,095
-285,803	-200,000	-0,007	-0,059
-284,789	-61,432	0,097	-0,030
-283,774	26,725	-0,071	0,043
-282,759	-200,000	-0,004	-0,028
-281,745	-78,784	-0,165	-0,041
-280,730	762,512	0,036	-0,072
-279,716	183,309	0,025	0,027
-278,701	-200,000	0,029	0,102
-277,686	-112,267	0,038	0,006
-276,672	-48,841	-0,052	-0,018
-275,657	120,262	0,041	0,037
-274,643	-200,000	0,018	-0,096
-273,628	320,008	0,007	0,009
-272,613	342,081	0,082	-0,117
-271,599	-34,349	0,009	-0,004
-270,584	-66,409	-0,115	-0,033
-269,570	-172,493	0,175	-0,004
-268,555	1,946	0,101	0,053
-267,540	800,000	-0,036	-0,084
-266,526	233,521	0,007	-0,008
-265,511	-200,000	0,011	-0,037
-264,497	800,000	-0,028	0,084
-263,482	11,811	0,185	0,103
-262,467	50,129	-0,061	-0,042
-261,453	463,607	-0,005	-0,009
-260,438	800,000	0,034	-0,106
-259,424	-132,604	0,138	-0,013
-258,409	-80,991	0,014	0,003
-257,395	-151,392	0,049	0,003
-256,380	-99,509	0,094	0,017
-255,365	-200,000	-0,000	0,057
-254,351	-200,000	0,012	0,061
-253,336	-79,574	0,078	0,019
-252,322	96,021	0,077	-0,064
-251,307	100,193	-0,091	0,077
-250,292	-169,913	0,044	0,001
-249,278	163,968	0,043	-0,044
-248,263	-200,000	-0,003	0,147
-247,249	268,639	-0,029	0,037
-246,234	522,688	0,111	-0,190
-245,219	586,313	0,056	-0,100
-244,205	18,596	-0,157	-0,091
-243,190	47,692	0,061	-0,042
-242,176	608,664	0,028	0,051
-241,161	-200,000	-0,027	0,190
-240,146	4,944	0,078	-0,042
-239,132	-42,130	0,121	-0,045
-238,117	800,000	-0,022	0,047
-237,103	140,331	0,040	-0,039
-236,088	-88,244	0,072	-0,016
-235,073	-99,149	0,187	0,034
-234,059	800,000	-0,018	0,055
-233,044	-147,454	-0,049	0,003
-232,030	800,000	-0,036	0,093
-231,015	456,099	-0,025	0,040
-230,000	58,251	-0,062	-0,044
-228,986	800,000	0,023	0,073
-227,971	478,785	0,070	0,115
-226,957	-75,293	-0,033	0,008
-225,942	-5,179	-0,132	0,066
-224,927	470,391	0,083	0,137
-223,913	-200,000	-0,025	0,110
-222,898	-61,688	-0,037	0,011
-221,884	800,000	0,009	-0,020
-220,869	503,575	0,073	0,123
-219,855	-200,000	-0,005	-0,041
-218,840	31,758	0,031	0,020
-217,825	268,845	-0,032	0,040
-216,811	800,000	0,036	-0,073
-215,796	634,469	-0,021	-0,039
-214,782	402,095	-0,102	-0,157
-213,767	104,996	0,111	0,095
-212,752	269,868	0,078	0,100
-211,738	-137,915	0,149	-0,012
-210,723	-170,451	-0,090	-0,002
-209,709	-200,000	0,040	-0,135
-208,694	800,000	-0,082	-0,169
-207,679	-51,873	0,147	-0,050
-206,665	228,111	0,046	-0,054
-205,650	27,682	0,048	0,029
-204,636	800,000	0,061	0,133
-203,621	393,998	-0,018	-0,028
-202,606	172,568	-0,051	0,054
-201,592	93,290	0,042	-0,035
-200,577	64,525	-0,079	-0,058
-199,563	110,572	-0,030	-0,027
-198,548	473,294	-0,055	-0,091
-197,533	-200,000	-0,002	0,052
-196,519	-82,824	-0,200	-0,046
-195,504	800,000	-0,022	-0,062
-194,490	-174,035	-0,055	-0,001
-193,475	-200,000	0,027	-0,094
-192,460	-59,772	0,060	-0,019
-191,446	-12,345	0,059	0,028
-190,431	-61,456	0,047	0,014
-189,417	-200,000	-0,011	0,114
-188,402	201,549	0,036	-0,040
-187,387	-200,000	0,004	-0,121
-186,373	-168,784	-0,038	0,001
-185,358	-44,643	0,035	0,013
-184,344	-103,358	0,120	-0,020
-183,329	-58,177	0,106	0,033
-182,315	-200,000	0,004	0,136
-181,300	317,499	0,036	-0,050
-180,285	-200,000	0,000	-0,007
-179,271	-200,000	0,003	0,098
-178,256	800,000	-0,054	0,111
-177,242	742,897	-0,041	-0,080
-176,227	17,262	-0,078	0,045
-175,212	243,350	0,058	0,071
-174,198	60,090	0,082	0,059
-173,183	-200,000	-0,006	-0,022
-172,169	-200,000	-0,010	-0,087
-171,154	-200,000	-0,028	0,094
-170,139	-94,716	-0,070	0,014
-169,125	-200,000	0,023	-0,079
-168,110	-131,015	-0,024	-0,002
-167,096	-88,548	-0,058	-0,012
-166,081	615,853	-0,068	0,124
-165,066	59,438	-0,121	-0,087
-164,052	-111,491	0,137	-0,020
-163,037	-149,719	-0,022	-0,001
-162,023	-21,571	-0,042	-0,018
-161,008	8,248	0,012	-0,006
-159,993	-200,000	0,001	0,009
-158,979	-200,000	-0,004	-0,061
-157,964	-172,888	-0,144	0,003
-156,950	524,741	-0,023	-0,039
-155,935	195,231	-0,072	0,079
-154,920	229,940	0,062	-0,074
-153,906	107,736	0,042	-0,036
-152,891	-142,056	-0,040	-0,003
-151,877	-200,000	-0,005	-0,065
-150,862	800,000	-0,025	-0,077
-149,847	96,524	0,088	-0,073
-148,833	72,144	0,109	-0,082
-147,818	800,000	0,042	0,132
-146,804	800,000	-0,012	0,036
-145,789	32,999	0,100	0,062
-144,775	-200,000	-0,010	0,034
-143,760	123,191	-0,023	0,021
-142,745	132,780	0,137	-0,128
-141,731	800,000	0,033	-0,074
-140,716	649,179	-0,028	-0,053
-139,702	-200,000	-0,007	0,155
-138,687	-12,943	-0,088	0,041
-137,672	-96,706	0,069	-0,013
-136,658	149,172	-0,134	0,132
-135,643	21,117	0,058	-0,034
-134,629	73,806	0,041	0,031
-133,614	-112,605	-0,087	0,012
-132,599	-200,000	-0,040	-0,144
-131,585	-101,878	-0,055	-0,009
-130,570	-33,733	-0,088	0,035
-129,556	229,919	0,026	-0,030
-128,541	35,234	0,020	0,013
-127,526	-200,000	-0,003	-0,095
-126,512	-82,845	-0,077	-0,018
-125,497	-25,632	-0,057	0,024
-124,483	106,659	-0,037	0,031
-123,468	100,334	-0,079	-0,067
-122,453	0,545	0,131	-0,067
-121,439	224,053	-0,036	-0,042
-120,424	800,000	-0,087	-0,204
-119,410	520,126	0,058	-0,098
-118,395	188,357	-0,078	0,084
-117,380	-161,131	-0,127	-0,005
-116,366	467,233	-0,032	-0,053
-115,351	-40,924	0,112	-0,042
-114,337	800,000	0,029	-0,069
-113,322	800,000	0,018	0,053
-112,307	-121,465	0,059	-0,007
-111,293	9,782	0,151	-0,083
-110,278	469,792	-0,070	0,114
-109,264	-88,340	0,190	0,041
-108,249	-4,060	-0,096	0,048
-107,234	204,634	-0,026	-0,030
-106,220	800,000	-0,046	-0,094
-105,205	-200,000	-0,003	0,040
-104,191	-74,623	0,149	0,038
-103,176	-200,000	0,053	0,174
-102,162	800,000	0,014	0,041
-101,147	566,931	0,026	-0,045
-100,132	-200,000	-0,013	0,102
-99,118	139,603	-0,032	0,031
-98,103	-200,000	-0,013	-0,103
-97,089	490,550	0,056	0,092
-96,074	65,118	-0,053	-0,038
-95,059	-48,004	-0,051	-0,018
-94,045	101,852	-0,007	0,006
-93,030	550,704	-0,074	0,129
-92,016	431,371	-0,042	-0,066
-91,001	71,142	0,058	0,043
-89,986	-200,000	0,006	0,066
-88,972	19,700	-0,080	0,046
-87,957	-200,000	0,029	0,102
-86,943	800,000	0,011	0,029
-85,928	-53,371	0,127	0,042
-84,913	122,428	0,036	-0,032
-83,899	-12,117	0,079	-0,037
-82,884	33,819	0,035	0,022
-81,870	-200,000	0,029	0,173
-80,855	-200,000	0,030	-0,098
-79,840	800,000	-0,045	-0,098
-78,826	434,608	0,029	-0,045
-77,811	-81,164	-0,131	-0,031
-76,797	577,216	0,059	-0,105
-75,782	475,880	0,045	0,074
-74,767	84,121	0,175	0,138
-73,753	195,183	-0,128	-0,141
-72,738	309,153	-0,059	-0,080
-71,724	800,000	0,051	0,156
-70,709	-60,001	0,102	0,031
-69,694	-40,504	0,161	0,060
-68,680	68,115	-0,080	-0,059
-67,665	-200,000	0,001	-0,015
-66,651	-82,714	-0,034	0,008
-65,636	86,937	0,078	-0,062
-64,622	780,360	-0,031	-0,062
-63,607	-103,323	0,029	0,005
-62,592	-18,870	0,033	-0,015
-61,578	-200,000	0,001	0,107
-60,563	-200,000	-0,008	0,056
-59,549	-112,949	-0,134	0,019
-58,534	-26,531	-1,723	-0,726
-57,519	800,000	-0,609	-1,226
-56,505	-200,000	-1,048	-4,673
-55,490	-126,914	0,597	0,063
-54,476	800,000	5,264	12,127
-53,461	-200,000	15,748	277,479
-52,446	-200,000	702,803	2244,645
-51,432	561,853	1619,321	2838,879
-50,417	121,034	1623,809	1458,745
-49,403	81,238	1284,231	1000,715
-48,388	36,617	1028,213	654,053
-47,373	21,547	989,838	579,811
-46,359	20,488	978,686	569,766
-45,344	18,814	974,525	561,815
-44,330	18,926	973,032	561,302
-43,315	18,650	971,295	559,374
-42,300	18,643	970,363	558,789
-41,286	18,603	969,512	558,149
-40,271	18,629	968,479	557,615
-39,257	18,641	967,610	557,133
-38,242	18,671	966,891	556,793
-37,227	18,558	966,183	555,996
-36,213	18,572	965,358	555,545
-35,198	18,565	964,365	554,928
-34,184	18,594	963,701	554,620
-33,169	18,545	962,765	553,899
-32,154	18,633	961,849	553,636
-31,140	18,645	960,694	552,989
-30,125	18,608	960,268	552,602
-29,111	18,626	959,479	552,184
-28,096	18,653	958,891	551,908
-27,082	18,618	958,184	551,367
-26,067	18,613	957,227	550,778
-25,052	18,612	956,344	550,245
-24,038	18,628	955,709	549,909
-23,023	18,645	954,978	549,522
-22,009	18,664	954,163	549,094
-20,994	18,636	953,901	548,829
-19,979	18,633	953,376	548,495
-18,965	18,535	952,727	547,787
-17,950	18,595	952,003	547,541
-16,936	18,531	951,278	546,897
-15,921	18,480	950,779	546,425
-14,906	18,468	950,033	545,937
-13,892	18,466	949,387	545,538
-12,877	18,420	948,760	545,009
-11,863	18,476	947,959	544,704
-10,848	18,529	947,385	544,523
-9,833	18,581	947,038	544,468
-8,819	18,597	946,333	544,092
-7,804	18,478	945,698	543,325
-6,790	18,439	945,004	542,782
-5,775	18,421	944,621	542,483
-4,760	18,466	943,733	542,094
-3,746	18,442	943,327	541,763
-2,731	18,360	942,460	540,981
-1,717	18,268	941,852	540,322
-0,702	18,281	941,123	539,924
0,313	18,115	940,664	539,946
1,327	21,124	938,773	548,340
2,342	30,161	795,995	489,002
3,356	27,054	449,021	271,163
4,371	-2,602	294,907	148,406
5,386	-6,520	276,054	135,191
6,400	-7,957	270,452	131,098
7,415	-8,301	268,035	129,598
8,429	-8,223	266,807	129,064
9,444	-8,108	265,899	128,718
10,459	-7,985	265,236	128,498
11,473	-8,217	264,642	127,988
12,488	-8,269	264,260	127,745
13,502	-8,445	263,660	127,283
14,517	-8,469	263,300	127,077
15,531	-8,202	262,981	127,154
16,546	-8,301	262,547	126,843
17,561	-8,277	262,169	126,670
18,575	-8,136	261,903	126,657
19,590	-8,437	261,528	126,195
20,604	-8,354	261,185	126,092
21,619	-8,435	261,009	125,923
22,634	-8,497	260,637	125,677
23,648	-8,287	260,197	125,642
24,663	-8,334	260,087	125,535
25,677	-8,387	259,786	125,331
26,692	-8,228	259,451	125,300
27,707	-8,110	259,096	125,222
28,721	-8,347	259,055	124,981
29,736	-8,204	258,615	124,884
30,750	-8,419	258,312	124,536
31,765	-8,436	258,256	124,483
32,780	-8,327	257,948	124,420
33,794	-8,321	257,706	124,297
34,809	-8,631	257,547	123,935
35,823	-8,542	257,337	123,902
36,838	-8,471	257,052	123,816
37,853	-8,262	256,673	123,807
38,867	-8,370	256,510	123,622
39,882	-8,458	256,435	123,498
40,896	-8,665	256,208	123,195
41,911	-8,415	255,861	123,237
42,926	-8,441	255,669	123,110
43,940	-8,437	255,279	122,915
44,955	-8,707	255,303	122,679
45,969	-8,685	254,934	122,511
46,984	-8,833	254,790	122,301
47,999	-8,993	254,372	121,949
49,013	-9,227	254,063	121,587
50,028	-9,095	253,883	121,605
51,042	-9,287	253,685	121,332
52,057	-9,169	253,319	121,249
53,071	-9,131	253,259	121,242
54,086	-9,034	253,062	121,221
55,101	-9,068	252,857	121,083
56,115	-8,734	252,771	121,321
57,130	-8,350	252,720	121,618
58,144	-8,160	252,418	121,625
59,159	-8,186	252,319	121,544
60,174	-8,220	252,131	121,414
61,188	-8,334	251,939	121,212
62,203	-8,599	251,768	120,891
63,217	-8,319	251,404	120,946
64,232	-8,518	251,340	120,734
65,247	-8,338	251,157	120,789
66,261	-8,327	250,757	120,596
67,276	-8,467	250,487	120,335
68,290	-8,569	250,200	120,099
69,305	-9,004	250,123	119,679
70,320	-8,900	249,921	119,660
71,334	-8,486	249,617	119,858
72,349	-8,201	249,538	120,053
73,363	-8,051	249,391	120,099
74,378	-8,119	249,206	119,941
75,393	-8,173	249,010	119,790
76,407	-8,348	248,918	119,587
77,422	-8,323	248,553	119,422
78,436	-8,310	248,366	119,332
79,451	-8,236	248,215	119,312
80,466	-8,486	248,023	118,997
81,480	-8,755	247,730	118,618
82,495	-8,690	247,444	118,525
83,509	-8,560	247,349	118,579
84,524	-8,789	247,340	118,371
85,539	-8,794	246,907	118,149
86,553	-8,686	246,670	118,116
87,568	-8,674	246,424	117,998
88,582	-8,762	246,469	117,935
89,597	-8,732	246,159	117,800
90,611	-8,737	246,026	117,722
91,626	-8,491	245,962	117,888
92,641	-8,256	245,670	117,935
93,655	-8,297	245,490	117,804
94,670	-8,349	245,195	117,608
95,684	-8,519	245,078	117,399
96,699	-8,499	244,936	117,337
97,714	-8,895	244,792	116,927
98,728	-8,854	244,462	116,793
99,743	-8,753	244,246	116,763
100,757	-8,894	244,061	116,548
101,772	-8,827	243,938	116,534
102,787	-8,523	243,624	116,626
103,801	-8,545	243,522	116,549
104,816	-8,330	243,334	116,627
105,830	-8,311	243,266	116,600
106,845	-8,514	243,107	116,344
107,860	-8,559	243,015	116,253
108,874	-8,595	242,591	116,010
109,889	-8,831	242,539	115,780
110,903	-8,525	242,256	115,887
111,918	-8,558	242,044	115,748
112,933	-8,650	241,891	115,589
113,947	-8,676	241,953	115,586
114,962	-8,402	241,683	115,673
115,976	-8,557	241,566	115,479
116,991	-8,413	241,170	115,398
118,006	-8,557	241,125	115,247
119,020	-8,673	241,046	115,104
120,035	-8,460	240,825	115,163
121,049	-8,153	240,640	115,316
122,064	-8,369	240,636	115,127
123,079	-8,503	240,264	114,829
124,093	-8,747	240,137	114,559
125,108	-8,821	239,807	114,331
126,122	-8,791	239,562	114,228
127,137	-8,872	239,419	114,084
128,151	-8,776	239,296	114,093
129,166	-8,891	239,107	113,899
130,181	-8,785	238,906	113,879
131,195	-8,906	238,813	113,726
132,210	-8,788	238,640	113,730
133,224	-8,600	238,397	113,756
134,239	-8,581	238,266	113,699
135,254	-8,361	238,182	113,827
136,268	-8,760	238,003	113,409
137,283	-8,683	237,554	113,247
138,297	-9,067	237,518	112,909
139,312	-8,808	237,149	112,932
140,327	-8,626	237,096	113,044
141,341	-8,187	237,172	113,424
142,356	-8,276	237,142	113,328
143,370	-8,107	236,855	113,317
144,385	-8,283	236,735	113,108
145,400	-8,003	236,563	113,241
146,414	-8,152	236,306	112,988
147,429	-8,018	236,239	113,053
148,443	-8,248	236,004	112,746
149,458	-8,197	235,820	112,689
150,473	-8,023	235,535	112,683
151,487	-8,229	235,331	112,410
152,502	-7,951	235,257	112,587
153,516	-8,197	235,195	112,350
154,531	-8,153	235,062	112,311
155,546	-8,032	234,777	112,262
156,560	-8,237	234,570	111,990
157,575	-8,399	234,374	111,758
158,589	-8,277	234,199	111,761
159,604	-8,211	234,157	111,784
160,619	-8,107	234,075	111,817
161,633	-7,942	233,926	111,867
162,648	-8,060	233,757	111,683
163,662	-8,177	233,575	111,493
164,677	-8,267	233,293	111,277
165,692	-8,289	233,245	111,227
166,706	-8,285	233,124	111,162
167,721	-8,000	233,002	111,320
168,735	-7,916	232,777	111,268
169,750	-8,026	232,723	111,146
170,764	-8,035	232,441	110,994
171,779	-8,208	232,286	110,774
172,794	-8,106	232,138	110,773
173,808	-8,226	231,983	110,596
174,823	-8,858	231,529	109,873
175,837	-8,838	231,397	109,817
176,852	-8,613	231,654	110,106
177,867	-8,016	231,280	110,386
178,881	-8,076	231,106	110,246
179,896	-8,246	231,129	110,114
180,910	-7,879	230,861	110,264
181,925	-7,894	230,821	110,223
182,940	-7,982	230,499	109,990
183,954	-8,135	230,518	109,871
184,969	-7,912	230,341	109,950
185,983	-7,944	230,250	109,872
186,998	-7,707	230,120	109,985
188,013	-7,913	229,977	109,746
189,027	-7,742	229,583	109,682
190,042	-8,048	229,558	109,422
191,056	-7,872	229,411	109,478
192,071	-7,890	229,258	109,382
193,086	-7,932	228,941	109,188
194,100	-8,044	228,943	109,093
195,115	-8,736	228,641	108,403
196,129	-9,110	228,346	107,965
197,144	-4,667	229,680	112,037
198,159	0,450	231,144	116,731
199,173	3,249	231,848	119,259
200,188	3,540	231,789	119,445
201,202	3,676	231,654	119,470
202,217	3,828	231,629	119,565
203,232	4,016	231,458	119,612
204,246	4,097	231,400	119,635
205,261	3,775	231,330	119,337
206,275	4,372	231,017	119,629
207,290	4,341	230,814	119,488
208,304	4,288	230,759	119,408
209,319	4,045	230,670	119,164
210,334	4,220	230,483	119,191
211,348	3,951	230,202	118,828
212,363	3,591	229,932	118,400
213,377	3,322	229,859	118,144
214,392	3,125	229,596	117,847
215,407	3,596	229,554	118,178
216,421	3,600	229,202	117,989
217,436	3,197	229,130	117,632
218,450	3,252	228,866	117,528
219,465	3,156	228,794	117,406
220,480	3,113	228,578	117,252
221,494	3,033	228,597	117,190
222,509	3,025	228,527	117,138
223,523	3,445	228,352	117,359
224,538	3,292	228,093	117,099
225,553	3,277	228,073	117,066
226,567	3,454	227,946	117,126
227,582	3,704	227,867	117,266
228,596	3,836	227,726	117,284
229,611	3,427	227,461	116,825
230,626	3,455	227,209	116,707
231,640	3,074	227,176	116,389
232,655	3,554	227,143	116,727
233,669	4,009	226,859	116,916
234,684	4,000	226,819	116,879
235,699	3,913	226,520	116,649
236,713	3,680	226,426	116,413
237,728	3,228	226,249	115,969
238,742	3,143	226,046	115,790
239,757	3,465	225,863	115,930
240,772	3,117	225,811	115,629
241,786	3,292	225,684	115,686
242,801	3,500	225,515	115,747
243,815	3,973	225,400	116,034
244,830	3,633	225,230	115,680
245,844	3,395	225,143	115,446
246,859	3,432	224,943	115,360
247,874	3,628	224,877	115,464
248,888	3,717	224,672	115,415
249,903	3,634	224,445	115,226
250,917	3,384	224,330	114,969
251,932	3,389	224,230	114,911
252,947	3,351	223,951	114,730
253,961	2,912	223,833	114,330
254,976	3,260	223,522	114,421
255,990	3,637	223,545	114,705
257,005	3,804	223,529	114,812
258,020	3,584	223,399	114,569
259,034	3,646	223,479	114,647
260,049	4,001	223,050	114,681
261,063	3,582	222,924	114,294
262,078	3,461	222,925	114,194
263,093	3,745	222,699	114,279
264,107	3,664	222,628	114,172
265,122	3,631	222,395	114,019
266,136	3,911	222,341	114,189
267,151	3,823	222,105	113,992
268,166	3,513	221,798	113,595
269,180	3,255	221,642	113,314
270,195	3,392	221,556	113,361
271,209	3,248	221,335	113,131
272,224	3,250	221,309	113,110
273,239	3,581	221,121	113,248
274,253	3,249	221,057	112,960
275,268	3,378	220,673	112,848
276,282	2,981	220,667	112,543
277,297	3,150	220,538	112,591
278,312	3,350	220,330	112,622
279,326	3,474	220,230	112,652
280,341	3,134	220,241	112,398
281,355	3,547	220,024	112,581
282,370	3,254	219,834	112,258
283,384	3,026	219,704	112,015
284,399	2,811	219,496	111,741
285,414	3,074	219,359	111,854
286,428	3,437	219,285	112,072
287,443	3,522	219,244	112,103
288,457	3,483	218,956	111,917
289,472	3,296	218,947	111,766
290,487	3,001	218,625	111,377
291,501	2,979	218,444	111,259
292,516	2,876	218,303	111,102
293,530	3,049	218,244	111,188
294,545	2,944	218,177	111,067
295,560	3,421	218,070	111,350
296,574	3,353	217,929	111,218
297,589	3,347	217,734	111,104
298,603	3,381	217,575	111,038
299,618	3,363	217,472	110,963
300,633	3,432	217,452	110,993
301,647	3,686	217,308	111,093
302,662	3,773	217,100	111,039
303,676	3,645	217,010	110,891
304,691	3,517	216,998	110,783
305,706	3,734	216,622	110,737
306,720	3,525	216,741	110,638
307,735	3,302	216,476	110,332
308,749	3,313	216,264	110,221
309,764	3,353	216,172	110,194
310,779	3,361	216,038	110,122
311,793	3,475	215,923	110,135
312,808	3,375	215,807	109,994
313,822	3,431	215,518	109,877
314,837	2,999	215,483	109,539
315,852	3,313	215,244	109,633
316,866	3,920	215,221	110,046
317,881	3,833	215,170	109,948
318,895	3,725	214,974	109,761
319,910	3,425	214,740	109,417
320,925	3,223	214,474	109,128
321,939	2,733	214,369	108,716
322,954	3,207	214,247	108,982
323,968	3,643	214,271	109,295
324,983	3,459	214,191	109,113
325,997	3,880	213,957	109,284
327,012	3,482	213,863	108,943
328,027	3,422	213,623	108,768
329,041	3,804	213,708	109,073
330,056	3,860	213,583	109,039
331,070	3,553	213,235	108,634
332,085	3,341	213,041	108,376
333,100	3,220	212,921	108,220
334,114	3,535	212,889	108,417
335,129	3,455	212,720	108,264
336,143	3,219	212,540	107,997
337,158	3,332	212,468	108,030
338,173	3,427	212,361	108,033
339,187	3,199	212,143	107,752
340,202	3,174	211,929	107,616
341,216	3,218	211,837	107,591
342,231	3,238	211,741	107,546
343,246	3,190	211,493	107,377
344,260	2,972	211,541	107,239
345,275	3,186	211,470	107,344
346,289	3,236	211,342	107,304
347,304	3,763	211,214	107,598
348,319	3,442	210,934	107,222
349,333	3,424	210,834	107,149
350,348	3,533	210,772	107,184
351,362	3,474	210,623	107,058
352,377	3,690	210,432	107,101
353,392	3,424	210,261	106,820
354,406	3,521	210,245	106,869
355,421	195,639	1342,509	1429,338
356,435	156,237	1480,486	1429,375
