DTS Sentinel unit serial number:	SN410029Multiplexer serial number:	ORYXHardware model number:	OX2-SRSoftware version number:	ORYX F/W v4,00 Oryx Data Collector v3.7.2.0data status	okinstallation	B6 Nyhavnadifferential loss correction	single-endedforward channel	channel 2reverse channel	N/Adate	2023/12/08time	13:35:08forward acquisition time	300,00reverse acquisition time	0,00gamma	499,1914k internal	0,3159k external	0,3159temperature offset calibration	1,0000default loss term (dB/km)	0,3820temperature slope calibration	1,0000multiplexer offset coefficient	1,0000multiplexer slope coefficient	1,0000fibre end	0,00T internal ref (°C)	15,06T ext. ref 1 (°C)	-1,56T ext. ref 2 (°C)	-1,55length (m)	temperature (°C)	Stokes	anti-Stokes-744,400	-63,872	0,186	-0,056
-743,385	-144,207	-0,336	0,023
-742,371	-200,000	0,182	-0,000
-741,356	-78,135	-0,212	-0,053
-740,342	-32,318	0,058	-0,024
-739,327	-159,786	-0,369	0,015
-738,312	800,000	0,060	0,153
-737,298	-111,715	-0,300	0,044
-736,283	110,675	0,088	0,078
-735,269	-150,217	-0,333	0,019
-734,254	216,733	0,016	0,018
-733,239	-25,860	-0,507	-0,219
-732,225	-135,091	0,162	0,014
-731,210	-20,179	0,075	-0,034
-730,196	699,892	0,055	-0,108
-729,181	-122,992	0,078	-0,009
-728,167	64,233	0,044	0,032
-727,152	28,421	-0,103	-0,064
-726,137	144,597	-0,084	-0,083
-725,123	-194,452	0,038	-0,000
-724,108	9,205	-0,221	-0,123
-723,094	188,511	-0,070	-0,077
-722,079	-25,691	-0,066	0,029
-721,064	-21,701	0,115	0,051
-720,050	182,354	0,017	-0,018
-719,035	-200,000	0,046	-0,155
-718,021	-200,000	-0,023	-0,126
-717,006	800,000	-0,113	-0,236
-715,991	-134,885	-0,128	-0,011
-714,977	-43,738	-0,130	-0,048
-713,962	-200,000	-0,001	-0,072
-712,948	96,976	0,060	0,051
-711,933	-200,000	0,010	-0,108
-710,918	800,000	0,054	0,113
-709,904	-54,636	-0,119	-0,039
-708,889	585,408	-0,018	-0,032
-707,875	-200,000	-0,004	-0,093
-706,860	-179,315	0,102	-0,002
-705,845	-200,000	0,048	0,237
-704,831	161,591	0,073	-0,075
-703,816	-66,113	0,081	-0,024
-702,802	800,000	-0,067	-0,143
-701,787	-83,700	0,087	-0,020
-700,772	-19,113	-0,100	0,045
-699,758	298,096	-0,041	0,055
-698,743	27,423	0,057	0,035
-697,729	-200,000	-0,003	-0,035
-696,714	-200,000	0,003	0,089
-695,699	800,000	0,033	-0,100
-694,685	-200,000	-0,023	-0,136
-693,670	22,153	-0,093	-0,056
-692,656	67,407	0,068	0,051
-691,641	800,000	0,034	0,071
-690,627	131,994	-0,114	0,108
-689,612	-200,000	0,006	0,111
-688,597	-200,000	0,050	-0,178
-687,583	-200,000	0,049	-0,224
-686,568	-22,631	-0,095	-0,042
-685,554	20,208	-0,061	-0,036
-684,539	-200,000	-0,004	-0,028
-683,524	135,190	-0,082	0,078
-682,510	378,835	-0,019	-0,028
-681,495	-14,403	0,107	0,050
-680,481	-51,708	-0,065	0,022
-679,466	665,831	0,023	-0,045
-678,451	800,000	-0,028	-0,059
-677,437	149,555	0,022	-0,021
-676,422	84,569	0,068	-0,055
-675,408	51,514	0,042	0,029
-674,393	-6,111	-0,052	-0,026
-673,378	-200,000	0,020	-0,100
-672,364	261,639	-0,056	0,072
-671,349	718,135	-0,030	-0,059
-670,335	-134,626	0,027	-0,002
-669,320	620,070	-0,049	0,090
-668,305	-200,000	-0,009	0,054
-667,291	-19,042	0,021	-0,009
-666,276	284,295	-0,032	0,042
-665,262	-163,901	-0,123	0,004
-664,247	398,172	-0,026	-0,040
-663,232	800,000	-0,023	0,063
-662,218	11,969	-0,077	-0,044
-661,203	800,000	0,011	0,025
-660,189	-109,726	-0,069	-0,010
-659,174	-200,000	-0,021	-0,109
-658,159	-200,000	0,002	-0,110
-657,145	19,727	-0,062	-0,037
-656,130	-146,022	0,138	0,009
-655,116	-138,487	0,093	-0,007
-654,101	-41,289	0,114	0,043
-653,086	800,000	-0,040	0,120
-652,072	141,663	-0,140	-0,136
-651,057	689,732	0,048	-0,093
-650,043	-200,000	-0,010	-0,121
-649,028	-125,436	0,117	0,013
-648,014	580,485	0,096	0,174
-646,999	326,292	-0,022	-0,031
-645,984	-200,000	-0,019	0,065
-644,970	-142,483	-0,016	0,001
-643,955	151,113	-0,102	-0,102
-642,941	-200,000	-0,006	0,079
-641,926	366,024	0,087	-0,129
-640,911	397,246	-0,069	-0,106
-639,897	-161,747	0,065	-0,002
-638,882	-171,057	-0,201	0,005
-637,868	54,494	0,026	0,018
-636,853	-65,539	-0,203	0,059
-635,838	423,192	-0,054	-0,086
-634,824	-200,000	-0,003	-0,064
-633,809	46,127	-0,058	-0,039
-632,795	128,232	-0,064	0,060
-631,780	264,588	-0,047	-0,060
-630,765	223,713	-0,084	-0,100
-629,751	160,920	-0,065	-0,066
-628,736	32,641	-0,045	-0,028
-627,722	800,000	0,054	-0,116
-626,707	283,191	-0,105	-0,138
-625,692	-188,733	-0,050	-0,000
-624,678	-166,429	0,081	-0,002
-623,663	2,966	-0,120	-0,064
-622,649	-134,217	-0,161	-0,014
-621,634	535,309	-0,074	0,129
-620,619	-200,000	-0,011	0,091
-619,605	-200,000	0,003	0,063
-618,590	-200,000	-0,016	-0,099
-617,576	415,248	-0,035	0,055
-616,561	143,666	0,057	0,056
-615,546	-103,826	0,074	-0,013
-614,532	468,872	-0,034	-0,057
-613,517	-200,000	0,017	-0,129
-612,503	323,873	-0,044	0,061
-611,488	-147,349	-0,095	0,006
-610,474	169,742	0,093	0,098
-609,459	631,168	0,052	-0,097
-608,444	-200,000	0,011	0,050
-607,430	-115,220	-0,116	-0,016
-606,415	-66,230	0,121	-0,035
-605,401	-111,305	-0,037	-0,006
-604,386	108,048	0,096	-0,083
-603,371	-200,000	-0,031	-0,116
-602,357	-200,000	0,060	0,000
-601,342	-200,000	0,023	-0,080
-600,328	-200,000	-0,026	0,113
-599,313	14,139	-0,143	0,081
-598,298	87,491	-0,014	-0,012
-597,284	-47,393	-0,048	0,017
-596,269	150,867	-0,113	0,113
-595,255	222,279	-0,035	-0,041
-594,240	78,606	-0,108	0,085
-593,225	-31,750	0,117	0,048
-592,211	-120,529	-0,126	-0,016
-591,196	-200,000	0,026	-0,153
-590,182	577,186	0,062	-0,112
-589,167	-107,040	-0,125	0,020
-588,152	653,682	-0,075	-0,141
-587,138	-200,000	-0,027	-0,092
-586,123	-200,000	0,011	0,106
-585,109	-200,000	-0,028	-0,118
-584,094	-200,000	0,008	-0,120
-583,079	169,586	0,068	-0,071
-582,065	-135,887	0,068	0,006
-581,050	270,178	0,072	0,093
-580,036	-81,094	-0,143	0,034
-579,021	25,097	-0,079	-0,048
-578,006	55,897	-0,101	0,072
-576,992	188,104	-0,049	0,054
-575,977	-200,000	0,016	0,068
-574,963	196,205	0,005	-0,006
-573,948	-170,752	-0,099	-0,002
-572,934	-129,339	-0,063	-0,006
-571,919	36,653	-0,079	0,051
-570,904	181,037	0,058	0,063
-569,890	-103,221	0,114	0,020
-568,875	726,725	0,019	0,038
-567,861	-59,804	0,111	0,035
-566,846	800,000	-0,032	-0,074
-565,831	333,579	-0,084	0,119
-564,817	34,819	-0,056	0,036
-563,802	-200,000	0,003	-0,066
-562,788	215,120	-0,060	0,070
-561,773	-81,913	0,039	-0,009
-560,758	522,245	-0,039	0,067
-559,744	228,647	-0,041	0,050
-558,729	800,000	0,062	0,161
-557,715	-37,154	-0,128	-0,050
-556,700	12,600	-0,097	0,055
-555,685	-125,323	-0,085	-0,009
-554,671	347,350	-0,019	-0,028
-553,656	-193,997	0,102	-0,001
-552,642	800,000	0,058	0,128
-551,627	276,169	-0,116	0,150
-550,612	800,000	0,038	0,098
-549,598	-200,000	0,018	0,111
-548,583	-200,000	0,007	0,153
-547,569	154,864	0,057	0,057
-546,554	-200,000	0,030	0,109
-545,539	219,902	0,084	0,099
-544,525	355,325	-0,095	0,138
-543,510	91,889	-0,035	0,029
-542,496	-60,026	-0,106	0,033
-541,481	249,665	0,019	-0,023
-540,466	-158,812	-0,037	0,002
-539,452	-120,023	-0,029	0,004
-538,437	82,485	0,072	0,057
-537,423	-57,416	-0,093	0,030
-536,408	249,842	-0,041	0,051
-535,393	-86,168	-0,077	-0,017
-534,379	-4,017	0,050	-0,025
-533,364	119,372	0,134	-0,121
-532,350	-200,000	-0,003	0,120
-531,335	-200,000	-0,007	0,038
-530,321	-109,366	0,075	0,012
-529,306	800,000	-0,022	0,062
-528,291	590,361	-0,030	-0,054
-527,277	-57,596	-0,071	0,023
-526,262	-124,023	0,080	-0,009
-525,248	800,000	0,044	-0,106
-524,233	50,700	-0,049	0,034
-523,218	326,967	0,067	0,094
-522,204	722,399	-0,045	0,088
-521,189	316,455	0,040	0,056
-520,175	91,356	-0,077	-0,063
-519,160	-200,000	0,000	0,052
-518,145	16,048	0,089	0,051
-517,131	-78,973	0,048	-0,012
-516,116	285,397	-0,014	-0,018
-515,102	-200,000	0,025	0,099
-514,087	-200,000	-0,010	-0,075
-513,072	-200,000	0,016	-0,057
-512,058	-200,000	0,014	-0,066
-511,043	-200,000	-0,019	-0,082
-510,029	800,000	-0,018	-0,055
-509,014	-200,000	0,005	0,085
-507,999	-59,111	-0,129	0,040
-506,985	-200,000	-0,003	-0,066
-505,970	131,399	-0,052	-0,049
-504,956	-16,948	-0,123	-0,057
-503,941	800,000	0,056	0,148
-502,926	800,000	0,043	-0,123
-501,912	-117,619	0,064	0,008
-500,897	-77,170	0,038	0,010
-499,883	-38,886	-0,261	0,100
-498,868	-200,000	0,018	0,078
-497,853	-156,712	-0,090	0,004
-496,839	548,035	0,057	-0,101
-495,824	-34,048	0,086	0,034
-494,810	5,498	-0,147	-0,079
-493,795	474,503	0,011	0,018
-492,781	-200,000	0,005	-0,138
-491,766	-200,000	0,002	-0,087
-490,751	-170,145	-0,147	-0,004
-489,737	-112,514	0,043	0,006
-488,722	800,000	-0,011	-0,023
-487,708	122,340	-0,052	-0,048
-486,693	-0,591	0,073	0,038
-485,678	-34,356	0,075	0,030
-484,664	-199,340	-0,041	0,000
-483,649	23,178	-0,041	-0,025
-482,635	-28,395	0,079	0,033
-481,620	32,735	0,097	0,061
-480,605	61,123	-0,065	-0,047
-479,591	234,358	-0,070	0,085
-478,576	-200,000	-0,015	0,073
-477,562	-80,899	-0,096	-0,023
-476,547	-200,000	0,005	-0,047
-475,532	-92,394	0,167	-0,034
-474,518	-200,000	0,007	0,031
-473,503	77,845	0,022	0,017
-472,489	343,625	0,119	-0,170
-471,474	37,376	0,040	-0,026
-470,459	-200,000	-0,009	0,053
-469,445	1,219	-0,018	-0,010
-468,430	346,388	-0,075	-0,108
-467,416	35,932	-0,052	-0,033
-466,401	-60,012	0,045	-0,014
-465,386	335,619	-0,039	-0,056
-464,372	-12,034	0,052	0,025
-463,357	-105,185	-0,085	0,014
-462,343	213,190	-0,037	-0,042
-461,328	-200,000	-0,007	0,069
-460,313	-0,260	0,067	0,034
-459,299	800,000	-0,007	-0,018
-458,284	-164,754	0,048	0,002
-457,270	-143,608	0,152	0,010
-456,255	174,172	-0,064	-0,067
-455,241	-84,674	-0,062	-0,014
-454,226	-57,449	-0,150	-0,048
-453,211	9,449	0,065	0,036
-452,197	-200,000	-0,009	0,036
-451,182	-193,746	-0,017	0,000
-450,168	-87,317	-0,155	-0,034
-449,153	404,511	0,040	0,062
-448,138	337,268	-0,034	0,048
-447,124	107,205	-0,042	0,036
-446,109	-100,878	-0,005	-0,001
-445,095	-45,562	0,171	-0,061
-444,080	440,965	0,024	-0,038
-443,065	17,274	-0,110	0,063
-442,051	800,000	-0,026	0,066
-441,036	-200,000	0,033	-0,125
-440,022	-87,332	-0,029	0,006
-439,007	563,379	0,039	0,070
-437,992	800,000	-0,055	0,118
-436,978	62,465	-0,040	0,029
-435,963	-125,023	0,003	-0,000
-434,949	-11,268	-0,097	0,046
-433,934	-200,000	-0,009	-0,029
-432,919	800,000	0,036	-0,099
-431,905	412,494	0,053	-0,082
-430,890	800,000	-0,033	-0,091
-429,876	401,163	0,067	0,102
-428,861	800,000	0,020	0,046
-427,846	92,750	-0,051	-0,042
-426,832	-200,000	0,003	-0,058
-425,817	148,707	0,053	-0,052
-424,803	-82,627	-0,093	-0,022
-423,788	800,000	-0,048	0,151
-422,773	37,980	0,040	0,026
-421,759	310,509	-0,029	-0,040
-420,744	-200,000	-0,032	-0,124
-419,730	573,906	-0,020	0,035
-418,715	-59,486	0,143	-0,044
-417,701	-69,417	0,090	0,025
-416,686	48,563	0,072	-0,049
-415,671	105,357	-0,028	-0,024
-414,657	-200,000	-0,008	-0,062
-413,642	321,834	-0,044	0,061
-412,628	217,286	0,065	0,075
-411,613	276,753	0,057	-0,074
-410,598	126,892	-0,065	-0,060
-409,584	74,414	0,091	0,070
-408,569	-200,000	-0,001	-0,053
-407,555	11,045	0,047	-0,026
-406,540	-81,569	0,066	0,016
-405,525	525,221	0,076	0,130
-404,511	-136,117	-0,096	-0,008
-403,496	800,000	-0,021	-0,044
-402,482	161,845	-0,008	-0,008
-401,467	169,087	0,065	-0,068
-400,452	431,226	-0,083	0,132
-399,438	-200,000	-0,026	0,105
-398,423	-200,000	-0,015	-0,069
-397,409	-200,000	-0,043	-0,150
-396,394	-18,097	0,141	-0,064
-395,379	145,901	-0,049	-0,048
-394,365	-200,000	0,004	-0,087
-393,350	-198,024	0,144	-0,001
-392,336	-200,000	-0,012	0,088
-391,321	-200,000	0,021	0,074
-390,306	210,381	-0,043	-0,050
-389,292	800,000	-0,043	0,121
-388,277	-81,450	0,087	0,021
-387,263	-56,981	-0,070	0,022
-386,248	629,714	-0,029	0,053
-385,233	123,892	0,037	-0,034
-384,219	-200,000	0,010	-0,048
-383,204	-22,606	-0,062	-0,027
-382,190	0,504	0,032	0,017
-381,175	144,354	-0,089	0,086
-380,160	800,000	-0,015	0,048
-379,146	177,452	0,153	0,162
-378,131	-96,778	0,047	0,009
-377,117	-200,000	-0,014	0,078
-376,102	-59,690	-0,078	0,024
-375,088	-200,000	-0,025	0,158
-374,073	-66,806	-0,105	-0,030
-373,058	-57,165	-0,149	0,047
-372,044	45,416	0,057	0,038
-371,029	58,490	0,054	0,038
-370,015	800,000	0,045	0,125
-369,000	-14,628	-0,072	0,034
-367,985	216,709	-0,028	0,032
-366,971	80,083	0,018	0,014
-365,956	65,176	0,004	0,003
-364,942	-54,518	0,109	-0,036
-363,927	-77,014	-0,009	-0,002
-362,912	800,000	0,026	0,060
-361,898	171,494	0,066	0,069
-360,883	-102,342	-0,062	0,011
-359,869	-200,000	0,002	0,033
-358,854	-200,000	-0,001	0,011
-357,839	94,769	0,112	-0,093
-356,825	120,651	0,067	-0,061
-355,810	-200,000	0,009	-0,088
-354,796	800,000	0,045	-0,093
-353,781	137,794	0,036	-0,034
-352,766	513,109	0,051	-0,087
-351,752	-200,000	-0,031	0,104
-350,737	68,010	0,093	0,069
-349,723	352,690	0,094	0,136
-348,708	-33,642	-0,113	0,045
-347,693	-200,000	0,001	0,112
-346,679	-22,159	0,069	0,030
-345,664	-131,310	-0,042	0,004
-344,650	36,276	0,114	-0,073
-343,635	800,000	0,026	0,068
-342,620	-63,251	0,206	-0,061
-341,606	-104,428	0,144	0,024
-340,591	215,612	0,072	-0,083
-339,577	-80,407	-0,116	-0,028
-338,562	638,257	-0,041	0,076
-337,548	-54,702	-0,081	0,026
-336,533	-116,313	-0,038	-0,005
-335,518	-25,600	-0,102	0,044
-334,504	-200,000	-0,015	0,063
-333,489	-200,000	0,013	0,089
-332,475	-39,656	-0,051	-0,019
-331,460	-200,000	0,012	0,134
-330,445	-137,683	-0,024	-0,002
-329,431	800,000	0,022	-0,068
-328,416	-1,953	0,026	-0,013
-327,402	-119,521	-0,110	-0,014
-326,387	314,221	-0,040	-0,054
-325,372	84,695	-0,100	0,079
-324,358	-32,731	-0,101	-0,040
-323,343	42,478	0,060	0,039
-322,329	-200,000	-0,002	-0,044
-321,314	288,303	0,080	-0,106
-320,299	-46,188	0,156	0,055
-319,285	-29,336	0,230	0,095
-318,270	419,418	-0,062	-0,097
-317,256	47,499	0,041	0,028
-316,241	-200,000	-0,007	-0,035
-315,226	217,728	0,083	-0,097
-314,212	70,747	0,101	0,076
-313,197	117,554	0,086	0,077
-312,183	370,857	-0,065	0,095
-311,168	50,056	-0,029	-0,020
-310,153	137,223	0,057	-0,054
-309,139	201,989	0,024	0,027
-308,124	302,658	-0,091	-0,122
-307,110	147,781	0,087	0,085
-306,095	36,275	-0,059	0,038
-305,080	-200,000	-0,011	-0,128
-304,066	-75,461	-0,071	0,018
-303,051	55,206	-0,046	-0,032
-302,037	51,990	0,090	0,062
-301,022	-200,000	0,030	-0,142
-300,008	32,994	0,067	-0,042
-298,993	300,962	0,133	-0,179
-297,978	45,297	-0,047	-0,031
-296,964	416,294	0,071	-0,110
-295,949	800,000	0,054	-0,127
-294,935	-99,471	-0,075	-0,014
-293,920	-88,377	0,167	-0,036
-292,905	-2,135	0,053	-0,027
-291,891	-96,595	0,184	-0,035
-290,876	19,370	-0,123	0,072
-289,862	-200,000	-0,016	0,083
-288,847	-200,000	-0,008	-0,040
-287,832	185,537	-0,056	-0,061
-286,818	-200,000	0,021	0,081
-285,803	-55,423	0,085	0,028
-284,789	-6,621	0,088	-0,043
-283,774	800,000	-0,060	-0,121
-282,759	534,816	0,085	0,146
-281,745	800,000	-0,023	-0,063
-280,730	-119,463	-0,021	-0,003
-279,716	-200,000	0,008	-0,054
-278,701	90,390	0,106	0,086
-277,686	800,000	0,048	-0,138
-276,672	238,009	0,081	0,098
-275,657	-116,448	-0,064	-0,008
-274,643	-179,566	-0,077	0,001
-273,628	-121,857	-0,124	0,015
-272,613	800,000	0,069	-0,180
-271,599	800,000	0,022	0,048
-270,584	-146,003	0,165	0,010
-269,570	800,000	0,026	0,074
-268,555	443,018	-0,049	0,079
-267,540	233,699	-0,022	0,026
-266,526	-114,443	-0,108	-0,015
-265,511	-200,000	0,015	-0,162
-264,497	286,721	0,026	-0,035
-263,482	-200,000	-0,035	0,198
-262,467	100,791	0,109	0,091
-261,453	-14,525	0,008	-0,004
-260,438	-200,000	-0,018	0,077
-259,424	-200,000	-0,022	-0,131
-258,409	-64,418	-0,112	0,033
-257,395	386,722	0,025	-0,037
-256,380	-77,956	-0,039	0,010
-255,365	-200,000	-0,005	-0,063
-254,351	-36,082	-0,186	-0,072
-253,336	-200,000	0,034	0,121
-252,322	-200,000	-0,002	-0,014
-251,307	-154,239	-0,093	0,004
-250,292	-103,367	0,118	0,020
-249,278	473,254	0,048	0,079
-248,263	199,188	0,061	0,067
-247,249	-200,000	-0,004	-0,053
-246,234	46,993	0,132	-0,088
-245,219	2,376	-0,049	-0,026
-244,205	-119,113	-0,158	-0,020
-243,190	-200,000	0,018	0,130
-242,176	-109,751	0,153	0,023
-241,161	-200,000	0,013	-0,157
-240,146	745,557	0,061	-0,120
-239,132	-90,503	-0,154	-0,032
-238,117	800,000	0,009	-0,028
-237,103	-79,280	-0,073	0,018
-236,088	800,000	-0,006	0,014
-235,073	-34,067	0,078	-0,031
-234,059	205,620	0,013	-0,014
-233,044	-4,621	0,082	0,041
-232,030	97,091	0,069	0,057
-231,015	-80,759	0,130	-0,031
-230,000	-113,527	-0,138	-0,019
-228,986	-8,314	-0,091	-0,044
-227,971	-169,738	-0,009	-0,000
-226,957	799,538	0,084	0,167
-225,942	-200,000	-0,021	-0,152
-224,927	800,000	-0,030	0,063
-223,913	65,171	-0,089	-0,065
-222,898	206,329	0,092	-0,104
-221,884	16,133	-0,109	-0,062
-220,869	89,573	-0,093	-0,075
-219,855	133,567	0,057	0,053
-218,840	800,000	0,034	-0,095
-217,825	-55,848	0,082	-0,026
-216,811	-138,742	0,138	-0,011
-215,796	509,385	-0,064	-0,107
-214,782	-200,000	-0,011	-0,178
-213,767	-71,906	0,055	0,015
-212,752	-53,296	0,149	-0,049
-211,738	578,901	-0,037	0,065
-210,723	627,745	-0,027	0,049
-209,709	70,876	0,120	0,090
-208,694	800,000	-0,033	-0,086
-207,679	-200,000	-0,018	-0,238
-206,665	-200,000	0,004	-0,029
-205,650	324,848	-0,086	0,118
-204,636	4,561	0,055	0,029
-203,621	-200,000	0,011	0,147
-202,606	-200,000	-0,031	0,148
-201,592	-200,000	-0,005	0,042
-200,577	-21,127	-0,110	0,048
-199,563	-95,246	-0,118	0,023
-198,548	-29,994	0,177	0,072
-197,533	-200,000	-0,008	-0,038
-196,519	-28,649	0,021	-0,009
-195,504	106,868	0,042	-0,036
-194,490	800,000	-0,031	-0,075
-193,475	-9,996	-0,159	-0,076
-192,460	339,197	0,046	-0,064
-191,446	800,000	0,019	-0,048
-190,431	204,881	0,071	0,079
-189,417	-200,000	-0,032	-0,133
-188,402	-200,000	-0,007	0,065
-187,387	-42,041	-0,077	-0,028
-186,373	-200,000	0,017	-0,110
-185,358	86,615	0,049	-0,039
-184,344	800,000	0,064	-0,145
-183,329	-115,827	0,130	0,017
-182,315	34,952	0,061	0,038
-181,300	800,000	-0,031	0,088
-180,285	-136,304	0,115	-0,010
-179,271	10,448	-0,143	-0,078
-178,256	800,000	-0,008	-0,023
-177,242	-41,462	0,134	-0,049
-176,227	38,911	0,074	0,048
-175,212	800,000	-0,042	0,088
-174,198	628,896	-0,079	0,144
-173,183	-178,551	0,146	0,002
-172,169	359,125	0,010	-0,014
-171,154	-92,966	-0,116	0,023
-170,139	-200,000	0,018	-0,080
-169,125	-83,297	0,064	-0,015
-168,110	705,073	-0,020	0,039
-167,096	41,269	-0,088	-0,057
-166,081	131,504	-0,065	0,060
-165,066	81,494	0,052	-0,040
-164,052	-200,000	0,001	0,074
-163,037	-200,000	-0,017	0,106
-162,023	455,141	0,100	0,160
-161,008	121,820	0,107	-0,096
-159,993	-154,966	-0,078	0,004
-158,979	18,629	0,107	0,062
-157,964	7,297	-0,096	-0,051
-156,950	-200,000	-0,032	-0,187
-155,935	800,000	0,076	-0,167
-154,920	299,303	0,053	-0,071
-153,906	-44,237	0,125	0,045
-152,891	83,825	-0,045	-0,035
-151,877	557,121	-0,076	0,133
-150,862	12,748	-0,101	0,056
-149,847	243,581	-0,002	0,002
-148,833	800,000	-0,004	0,012
-147,818	800,000	-0,006	0,016
-146,804	-200,000	-0,027	0,220
-145,789	-82,326	-0,049	0,011
-144,775	-71,543	-0,015	0,004
-143,760	800,000	-0,055	-0,121
-142,745	-200,000	-0,017	-0,055
-141,731	33,926	0,056	0,035
-140,716	-167,136	0,027	-0,001
-139,702	-4,363	-0,008	-0,004
-138,687	-8,338	0,165	0,079
-137,672	382,793	-0,042	-0,062
-136,658	-76,638	-0,063	0,016
-135,643	414,153	0,047	-0,072
-134,629	800,000	-0,082	0,180
-133,614	-200,000	0,009	-0,101
-132,599	-200,000	0,015	0,107
-131,585	-200,000	-0,003	0,084
-130,570	11,548	-0,116	-0,064
-129,556	-99,375	-0,059	-0,011
-128,541	383,378	0,066	0,099
-127,526	-200,000	-0,030	-0,097
-126,512	800,000	-0,014	-0,042
-125,497	305,357	0,060	-0,081
-124,483	-175,156	0,128	-0,002
-123,468	-110,408	0,157	0,023
-122,453	-52,404	-0,025	0,008
-121,439	197,798	0,035	0,038
-120,424	138,207	0,051	0,048
-119,410	8,231	0,118	0,064
-118,395	800,000	0,044	-0,103
-117,380	800,000	0,061	0,126
-116,366	345,867	0,065	0,092
-115,351	54,293	-0,048	0,033
-114,337	-29,600	-0,089	0,036
-113,322	-22,155	0,018	0,008
-112,307	182,775	-0,070	0,075
-111,293	-151,554	0,139	-0,007
-110,278	-87,316	0,085	0,018
-109,264	-200,000	0,011	0,145
-108,249	47,679	-0,117	-0,078
-107,234	-90,814	0,051	0,011
-106,220	308,811	-0,033	-0,045
-105,205	-200,000	0,022	-0,109
-104,191	369,015	-0,043	-0,062
-103,176	-200,000	-0,018	0,067
-102,162	-185,923	-0,166	0,002
-101,147	-160,568	-0,153	0,006
-100,132	303,161	0,013	-0,018
-99,118	188,910	-0,056	0,060
-98,103	-200,000	-0,014	0,051
-97,089	510,948	0,087	0,146
-96,074	-200,000	0,007	0,060
-95,059	121,152	-0,024	0,021
-94,045	800,000	0,012	-0,027
-93,030	-200,000	-0,018	-0,106
-92,016	-200,000	-0,019	-0,076
-91,001	-200,000	0,005	-0,023
-89,986	201,532	-0,014	-0,016
-88,972	95,267	0,062	0,050
-87,957	800,000	-0,040	-0,086
-86,943	-88,018	-0,128	0,027
-85,928	800,000	0,045	0,094
-84,913	598,208	-0,128	0,228
-83,899	369,186	0,066	0,096
-82,884	-200,000	0,038	0,138
-81,870	-82,766	0,061	-0,014
-80,855	-20,751	-0,053	0,023
-79,840	60,384	0,043	0,030
-78,826	-200,000	-0,038	-0,176
-77,811	11,727	0,117	0,064
-76,797	46,472	0,189	-0,126
-75,782	-200,000	0,005	-0,020
-74,767	-114,577	0,204	0,028
-73,753	-160,531	0,034	-0,001
-72,738	800,000	0,008	-0,018
-71,724	-19,816	-0,037	-0,016
-70,709	800,000	-0,074	-0,149
-69,694	-200,000	0,006	0,114
-68,680	177,733	-0,045	-0,047
-67,665	-99,937	0,148	-0,026
-66,651	790,367	0,072	0,144
-65,636	-48,924	-0,135	-0,046
-64,622	391,043	-0,012	0,019
-63,607	139,000	-0,082	-0,077
-62,592	-200,000	-0,062	0,213
-61,578	539,677	0,024	-0,041
-60,563	800,000	-0,057	0,135
-59,549	293,804	-0,079	0,103
-58,534	12,573	-2,111	-1,166
-57,519	-200,000	-0,211	-0,887
-56,505	-200,000	-1,518	-5,012
-55,490	138,047	0,866	0,815
-54,476	800,000	5,105	11,652
-53,461	-200,000	17,981	290,316
-52,446	800,000	727,953	2224,894
-51,432	532,421	1640,824	2796,457
-50,417	108,784	1629,848	1396,916
-49,403	72,567	1283,328	959,133
-48,388	31,193	1025,807	629,998
-47,373	19,882	988,189	569,641
-46,359	18,261	975,979	557,272
-45,344	15,408	972,055	545,689
-44,330	15,608	970,782	545,606
-43,315	15,102	968,707	542,769
-42,300	15,083	967,837	542,198
-41,286	15,102	966,603	541,547
-40,271	15,080	965,665	540,928
-39,257	15,077	964,806	540,418
-38,242	15,055	963,969	539,856
-37,227	15,085	963,150	539,472
-36,213	15,074	962,434	539,015
-35,198	15,121	961,357	538,540
-34,184	15,118	960,728	538,158
-33,169	15,025	959,770	537,299
-32,154	15,125	958,735	537,022
-31,140	15,083	958,080	536,499
-30,125	15,126	957,113	536,074
-29,111	15,099	956,444	535,591
-28,096	15,120	955,947	535,359
-27,082	15,082	955,048	534,711
-26,067	15,169	954,232	534,514
-25,052	15,118	953,312	533,812
-24,038	15,121	952,654	533,433
-23,023	15,067	952,110	532,935
-22,009	15,118	951,440	532,702
-20,994	15,065	951,102	532,321
-19,979	15,189	950,214	532,201
-18,965	15,085	949,727	531,573
-17,950	15,060	949,138	531,144
-16,936	15,042	948,427	530,667
-15,921	15,057	947,720	530,297
-14,906	15,017	947,066	529,783
-13,892	14,961	946,607	529,327
-12,877	14,922	945,884	528,776
-11,863	14,953	945,168	528,454
-10,848	14,983	944,731	528,285
-9,833	15,050	944,070	528,109
-8,819	15,055	943,462	527,761
-7,804	14,991	943,038	527,300
-6,790	15,012	942,318	526,945
-5,775	15,043	941,712	526,683
-4,760	14,988	941,215	526,210
-3,746	14,979	940,478	525,747
-2,731	14,879	939,739	524,998
-1,717	14,841	939,150	524,528
-0,702	14,892	938,387	524,243
0,313	14,677	937,940	524,105
1,327	18,155	935,615	533,697
2,342	27,544	789,236	474,903
3,356	24,049	444,182	262,084
4,371	-5,809	295,292	144,418
5,386	-9,631	276,912	131,799
6,400	-11,075	271,360	127,804
7,415	-11,214	269,019	126,562
8,429	-11,259	267,691	125,885
9,444	-11,240	266,675	125,413
10,459	-11,080	266,045	125,251
11,473	-11,420	265,482	124,667
12,488	-11,524	265,117	124,389
13,502	-11,526	264,419	124,049
14,517	-11,279	263,852	123,995
15,531	-11,314	263,539	123,805
16,546	-11,308	263,200	123,641
17,561	-11,339	262,954	123,486
18,575	-11,112	262,528	123,479
19,590	-11,350	262,078	123,043
20,604	-11,127	261,972	123,182
21,619	-11,447	261,630	122,724
22,634	-11,388	261,175	122,552
23,648	-11,353	260,889	122,439
24,663	-11,419	260,729	122,294
25,677	-11,365	260,464	122,206
26,692	-11,367	260,246	122,091
27,707	-11,378	259,866	121,893
28,721	-11,255	259,457	121,799
29,736	-11,279	259,155	121,625
30,750	-11,578	259,082	121,315
31,765	-11,606	258,851	121,172
32,780	-11,444	258,607	121,189
33,794	-11,409	258,362	121,095
34,809	-11,653	258,151	120,770
35,823	-11,481	257,966	120,824
36,838	-11,415	257,613	120,706
37,853	-11,339	257,264	120,599
38,867	-11,499	257,187	120,411
39,882	-11,579	256,972	120,230
40,896	-11,383	256,658	120,244
41,911	-11,474	256,450	120,056
42,926	-11,469	256,190	119,928
43,940	-11,651	256,044	119,690
44,955	-11,648	255,642	119,494
45,969	-11,723	255,581	119,389
46,984	-11,802	255,287	119,172
47,999	-11,904	255,022	118,949
49,013	-12,090	254,666	118,611
50,028	-12,298	254,517	118,351
51,042	-12,465	254,160	118,029
52,057	-12,575	254,000	117,849
53,071	-12,240	253,803	118,037
54,086	-12,070	253,572	118,067
55,101	-11,953	253,450	118,100
56,115	-11,814	253,255	118,119
57,130	-11,478	253,186	118,366
58,144	-11,207	252,995	118,500
59,159	-11,151	252,791	118,442
60,174	-11,241	252,505	118,220
61,188	-11,304	252,467	118,138
62,203	-11,501	252,353	117,905
63,217	-11,390	251,914	117,784
64,232	-11,457	251,891	117,705
65,247	-11,282	251,578	117,699
66,261	-11,462	251,308	117,407
67,276	-11,533	250,964	117,176
68,290	-11,745	250,699	116,860
69,305	-11,880	250,629	116,702
70,320	-11,744	250,457	116,728
71,334	-11,373	250,089	116,862
72,349	-11,438	250,200	116,848
73,363	-11,207	249,805	116,849
74,378	-11,216	249,619	116,744
75,393	-11,627	249,575	116,364
76,407	-11,285	249,286	116,509
77,422	-11,342	248,930	116,284
78,436	-11,381	248,864	116,210
79,451	-11,401	248,489	116,007
80,466	-11,399	248,331	115,925
81,480	-11,605	248,167	115,665
82,495	-11,616	247,871	115,506
83,509	-11,609	247,813	115,476
84,524	-11,634	247,610	115,349
85,539	-12,027	247,258	114,844
86,553	-11,719	247,093	115,016
87,568	-11,763	246,996	114,924
88,582	-11,515	246,718	114,993
89,597	-11,590	246,636	114,881
90,611	-11,629	246,518	114,784
91,626	-11,397	246,220	114,829
92,641	-11,512	246,058	114,647
93,655	-11,515	246,003	114,608
94,670	-11,591	245,651	114,371
95,684	-11,502	245,445	114,339
96,699	-11,617	245,364	114,195
97,714	-11,710	245,096	113,982
98,728	-11,651	244,957	113,956
99,743	-11,911	244,717	113,619
100,757	-11,647	244,375	113,669
101,772	-11,810	244,401	113,535
102,787	-11,565	244,063	113,571
103,801	-11,707	243,903	113,370
104,816	-11,694	243,686	113,269
105,830	-11,570	243,775	113,403
106,845	-11,448	243,561	113,394
107,860	-11,334	243,208	113,314
108,874	-11,689	243,048	112,937
109,889	-11,717	242,911	112,839
110,903	-11,789	242,693	112,669
111,918	-11,632	242,395	112,650
112,933	-11,582	242,270	112,623
113,947	-11,580	242,083	112,528
114,962	-11,289	241,943	112,691
115,976	-11,571	241,887	112,423
116,991	-11,395	241,591	112,420
118,006	-11,587	241,540	112,229
119,020	-11,423	241,378	112,278
120,035	-11,464	241,145	112,126
121,049	-11,377	241,043	112,140
122,064	-11,375	240,865	112,049
123,079	-11,461	240,488	111,793
124,093	-11,545	240,383	111,666
125,108	-11,677	240,109	111,421
126,122	-11,997	239,917	111,062
127,137	-11,914	239,678	111,009
128,151	-11,969	239,626	110,930
129,166	-11,814	239,464	110,971
130,181	-11,866	239,324	110,855
131,195	-11,869	239,012	110,698
132,210	-11,593	238,861	110,841
133,224	-11,431	238,704	110,889
134,239	-11,625	238,627	110,687
135,254	-11,274	238,277	110,797
136,268	-11,704	238,123	110,369
137,283	-12,126	238,006	109,966
138,297	-11,955	237,655	109,931
139,312	-12,094	237,449	109,714
140,327	-11,785	237,623	110,033
141,341	-11,236	237,412	110,367
142,356	-11,173	237,154	110,288
143,370	-11,135	237,203	110,331
144,385	-11,056	236,904	110,245
145,400	-11,146	236,786	110,108
146,414	-11,125	236,622	110,039
147,429	-11,105	236,328	109,909
148,443	-11,252	236,283	109,761
149,458	-11,461	236,220	109,555
150,473	-11,267	235,994	109,595
151,487	-11,264	235,650	109,428
152,502	-11,115	235,560	109,495
153,516	-11,265	235,432	109,306
154,531	-11,361	235,344	109,179
155,546	-11,177	235,030	109,170
156,560	-11,377	234,820	108,904
157,575	-11,614	234,725	108,662
158,589	-11,340	234,425	108,731
159,604	-11,087	234,361	108,892
160,619	-11,062	234,128	108,793
161,633	-11,045	234,082	108,776
162,648	-11,103	233,983	108,674
163,662	-11,271	233,788	108,442
164,677	-11,430	233,771	108,299
165,692	-11,040	233,393	108,421
166,706	-11,072	233,264	108,326
167,721	-11,009	233,143	108,310
168,735	-11,116	233,047	108,171
169,750	-11,054	232,889	108,137
170,764	-11,242	232,751	107,915
171,779	-11,185	232,569	107,866
172,794	-11,006	232,229	107,840
173,808	-11,152	232,110	107,660
174,823	-11,657	231,743	107,085
175,837	-11,795	231,688	106,943
176,852	-11,518	231,546	107,084
177,867	-11,215	231,569	107,322
178,881	-11,269	231,483	107,230
179,896	-11,220	231,272	107,161
180,910	-11,011	231,084	107,227
181,925	-11,062	230,977	107,128
182,940	-11,125	230,797	106,986
183,954	-11,136	230,572	106,864
184,969	-10,866	230,532	107,045
185,983	-10,756	230,272	107,001
186,998	-10,804	230,237	106,937
188,013	-10,959	229,930	106,665
189,027	-10,726	229,784	106,768
190,042	-10,928	229,740	106,582
191,056	-10,896	229,562	106,514
192,071	-11,070	229,462	106,325
193,086	-10,911	229,236	106,333
194,100	-10,997	229,108	106,198
195,115	-11,390	228,706	105,699
196,129	-11,606	228,442	105,402
197,144	-6,412	230,329	110,286
198,159	-0,364	232,120	115,842
199,173	2,430	233,045	118,472
200,188	3,048	232,895	118,865
201,202	3,129	232,756	118,847
202,217	3,211	232,546	118,793
203,232	3,469	232,580	119,000
204,246	3,607	232,442	119,025
205,261	3,690	232,300	119,007
206,275	3,831	232,257	119,084
207,290	4,013	232,001	119,082
208,304	3,888	231,837	118,890
209,319	3,794	231,681	118,728
210,334	3,716	231,452	118,540
211,348	3,576	231,221	118,302
212,363	3,203	230,943	117,862
213,377	3,008	230,624	117,539
214,392	2,925	230,680	117,493
215,407	3,174	230,543	117,605
216,421	3,093	230,400	117,459
217,436	3,278	230,049	117,411
218,450	2,712	230,031	116,957
219,465	2,706	229,870	116,861
220,480	3,137	229,730	117,109
221,494	2,938	229,545	116,852
222,509	3,091	229,651	117,013
223,523	3,244	229,363	116,973
224,538	3,072	229,086	116,690
225,553	3,054	228,926	116,584
226,567	3,025	229,006	116,593
227,582	3,335	228,732	116,679
228,596	3,317	228,670	116,622
229,611	3,091	228,431	116,319
230,626	2,891	228,183	116,030
231,640	2,783	228,103	115,897
232,655	3,219	228,134	116,234
233,669	3,482	227,978	116,344
234,684	3,576	227,828	116,327
235,699	3,426	227,670	116,123
236,713	3,244	227,439	115,857
237,728	2,962	227,228	115,526
238,742	2,706	227,096	115,255
239,757	2,984	226,931	115,371
240,772	2,987	226,776	115,284
241,786	2,822	226,647	115,084
242,801	3,349	226,498	115,395
243,815	3,461	226,523	115,482
244,830	3,523	226,427	115,470
245,844	3,247	226,162	115,117
246,859	2,942	225,964	114,776
247,874	3,089	225,881	114,834
248,888	3,340	225,597	114,867
249,903	3,139	225,511	114,662
250,917	2,889	225,494	114,457
251,932	3,105	225,170	114,443
252,947	2,911	224,977	114,190
253,961	2,971	224,837	114,154
254,976	3,101	224,630	114,135
255,990	3,378	224,709	114,372
257,005	3,414	224,486	114,276
258,020	3,144	224,413	114,027
259,034	3,454	224,240	114,160
260,049	3,303	224,153	113,993
261,063	3,318	224,035	113,933
262,078	3,449	223,802	113,902
263,093	3,546	223,701	113,913
264,107	3,525	223,552	113,811
265,122	3,336	223,476	113,622
266,136	3,615	223,231	113,694
267,151	3,601	223,118	113,616
268,166	2,967	222,890	113,021
269,180	2,695	222,701	112,714
270,195	2,889	222,588	112,790
271,209	2,975	222,448	112,773
272,224	3,052	222,324	112,757
273,239	3,165	222,253	112,794
274,253	3,112	221,923	112,577
275,268	2,935	221,667	112,307
276,282	2,785	221,552	112,129
277,297	2,972	221,453	112,206
278,312	2,811	221,422	112,062
279,326	2,917	221,441	112,139
280,341	3,166	221,052	112,115
281,355	3,245	221,039	112,157
282,370	3,064	220,776	111,880
283,384	2,770	220,692	111,612
284,399	2,742	220,520	111,495
285,414	2,905	220,313	111,500
286,428	2,915	220,385	111,534
287,443	3,438	220,266	111,845
288,457	3,189	219,935	111,486
289,472	3,205	219,799	111,418
290,487	2,758	219,468	110,915
291,501	2,483	219,449	110,696
292,516	2,923	219,316	110,939
293,530	2,860	219,186	110,818
294,545	2,782	219,274	110,796
295,560	2,880	219,181	110,810
296,574	2,827	219,038	110,689
297,589	2,861	218,769	110,568
298,603	3,044	218,664	110,637
299,618	3,094	218,384	110,522
300,633	3,207	218,410	110,607
301,647	3,285	218,383	110,640
302,662	3,405	218,209	110,628
303,676	3,160	218,048	110,360
304,691	3,420	217,926	110,476
305,706	3,333	217,709	110,294
306,720	3,177	217,565	110,099
307,735	3,073	217,278	109,869
308,749	2,792	217,318	109,677
309,764	3,132	217,068	109,785
310,779	3,121	217,008	109,737
311,793	3,281	216,823	109,748
312,808	3,010	216,788	109,527
313,822	3,184	216,555	109,524
314,837	2,819	216,389	109,169
315,852	2,841	216,124	109,041
316,866	2,947	216,191	109,141
317,881	3,180	215,996	109,200
318,895	3,439	215,918	109,335
319,910	3,055	215,541	108,861
320,925	2,809	215,441	108,625
321,939	2,273	215,392	108,209
322,954	2,697	215,308	108,459
323,968	3,142	215,270	108,747
324,983	3,232	215,184	108,758
325,997	3,393	215,006	108,772
327,012	3,246	214,832	108,571
328,027	3,338	214,629	108,523
329,041	3,559	214,591	108,651
330,056	3,635	214,412	108,605
331,070	3,005	214,172	108,028
332,085	2,576	213,967	107,611
333,100	2,680	213,841	107,612
334,114	3,084	213,775	107,854
335,129	3,294	213,634	107,922
336,143	3,215	213,469	107,773
337,158	3,248	213,407	107,755
338,173	2,986	213,283	107,499
339,187	3,016	213,144	107,441
340,202	2,767	212,906	107,136
341,216	2,727	212,757	107,024
342,231	3,125	212,610	107,219
343,246	3,012	212,519	107,085
344,260	2,866	212,342	106,883
345,275	2,990	212,277	106,928
346,289	3,248	212,278	107,099
347,304	3,254	212,110	107,010
348,319	3,103	211,834	106,756
349,333	3,118	211,706	106,692
350,348	3,233	211,653	106,736
351,362	3,583	211,446	106,866
352,377	3,166	211,479	106,582
353,392	3,256	211,294	106,542
354,406	3,156	211,102	106,366
355,421	195,384	1339,780	1416,503
356,435	156,058	1477,259	1416,467
