DTS Sentinel unit serial number:	SN410029Multiplexer serial number:	ORYXHardware model number:	OX2-SRSoftware version number:	ORYX F/W v4,00 Oryx Data Collector v3.7.2.0data status	okinstallation	B6 Nyhavnadifferential loss correction	single-endedforward channel	channel 2reverse channel	N/Adate	2023/12/09time	20:20:08forward acquisition time	300,00reverse acquisition time	0,00gamma	499,1914k internal	0,3130k external	0,3130temperature offset calibration	1,0000default loss term (dB/km)	0,3820temperature slope calibration	1,0000multiplexer offset coefficient	1,0000multiplexer slope coefficient	1,0000fibre end	0,00T internal ref (°C)	21,28T ext. ref 1 (°C)	5,38T ext. ref 2 (°C)	5,34length (m)	temperature (°C)	Stokes	anti-Stokes-744,400	30,237	0,097	-0,062
-743,385	107,664	-0,183	0,162
-742,371	286,987	0,090	-0,121
-741,356	188,112	-0,186	0,206
-740,342	16,628	0,109	0,064
-739,327	82,924	-0,281	0,227
-738,312	-200,000	-0,017	-0,147
-737,298	-109,678	-0,243	-0,038
-736,283	73,686	0,068	-0,053
-735,269	-25,132	-0,155	0,068
-734,254	211,610	0,025	-0,030
-733,239	-77,978	-0,289	-0,073
-732,225	88,955	0,103	-0,085
-731,210	-86,644	-0,022	-0,005
-730,196	185,490	0,055	0,061
-729,181	-200,000	-0,045	0,158
-728,167	-91,322	-0,123	0,026
-727,152	14,643	-0,087	0,050
-726,137	800,000	-0,012	0,035
-725,123	407,516	-0,070	0,110
-724,108	800,000	-0,020	0,045
-723,094	-143,331	-0,140	-0,010
-722,079	-60,136	-0,033	-0,010
-721,064	55,169	-0,110	-0,079
-720,050	640,731	0,049	0,093
-719,035	240,807	0,021	-0,027
-718,021	15,786	0,081	-0,047
-717,006	-200,000	0,041	-0,183
-715,991	800,000	-0,085	-0,220
-714,977	49,167	-0,081	-0,056
-713,962	-9,610	-0,012	-0,006
-712,948	800,000	-0,028	0,072
-711,933	-115,045	-0,088	0,012
-710,918	-86,275	0,044	0,010
-709,904	800,000	0,059	-0,157
-708,889	-200,000	-0,009	-0,051
-707,875	209,129	0,053	-0,062
-706,860	-200,000	-0,001	-0,070
-705,845	21,594	0,102	0,061
-704,831	132,212	0,075	0,072
-703,816	-200,000	-0,007	-0,061
-702,802	800,000	0,066	-0,153
-701,787	238,491	0,093	-0,115
-700,772	126,313	0,077	-0,072
-699,758	-31,037	-0,064	-0,027
-698,743	185,288	0,051	-0,057
-697,729	-73,966	0,042	0,011
-696,714	-200,000	0,001	0,063
-695,699	-113,724	0,044	-0,006
-694,685	800,000	-0,019	-0,041
-693,670	-98,442	-0,127	-0,024
-692,656	122,834	0,053	-0,049
-691,641	36,747	-0,053	0,035
-690,627	2,948	0,051	0,027
-689,612	67,757	-0,090	-0,068
-688,597	70,256	-0,033	0,025
-687,583	-39,570	-0,070	0,027
-686,568	-8,382	0,017	-0,008
-685,554	-113,934	-0,037	0,005
-684,539	800,000	0,008	-0,025
-683,524	261,857	0,056	-0,072
-682,510	-200,000	0,002	-0,028
-681,495	800,000	-0,024	0,065
-680,481	286,629	-0,109	-0,146
-679,466	186,044	-0,082	-0,091
-678,451	800,000	-0,028	-0,062
-677,437	-170,487	-0,104	0,003
-676,422	800,000	0,049	-0,112
-675,408	293,946	0,094	-0,128
-674,393	-152,906	-0,063	-0,003
-673,378	-65,587	-0,094	0,028
-672,364	-104,551	0,192	0,032
-671,349	-162,199	0,038	-0,001
-670,335	-69,899	0,041	0,012
-669,320	-0,367	0,024	-0,013
-668,305	766,369	0,022	-0,045
-667,291	166,600	-0,045	-0,047
-666,276	81,980	-0,062	-0,050
-665,262	309,998	0,023	-0,032
-664,247	-14,402	0,086	0,041
-663,232	-61,738	-0,054	-0,017
-662,218	165,302	-0,060	-0,063
-661,203	613,035	-0,039	0,073
-660,189	60,143	-0,056	-0,041
-659,174	397,844	-0,055	-0,086
-658,159	-200,000	0,014	-0,104
-657,145	586,945	-0,048	0,088
-656,130	101,082	0,083	0,072
-655,116	-10,962	-0,163	0,079
-654,101	298,345	-0,020	-0,027
-653,086	-67,244	0,060	0,017
-652,072	-200,000	0,022	0,120
-651,057	281,449	-0,055	0,073
-650,043	-34,622	0,091	0,037
-649,028	245,659	-0,088	-0,109
-648,014	235,662	0,021	-0,026
-646,999	82,063	0,056	0,045
-645,984	-200,000	-0,008	0,146
-644,970	-200,000	-0,008	-0,074
-643,955	556,077	-0,084	-0,151
-642,941	31,609	-0,056	0,036
-641,926	156,293	-0,168	-0,172
-640,911	89,848	-0,090	-0,074
-639,897	-32,200	0,099	-0,041
-638,882	800,000	-0,029	-0,071
-637,868	367,455	-0,056	-0,084
-636,853	-1,507	-0,041	0,021
-635,838	-69,411	-0,090	0,025
-634,824	229,948	0,070	0,084
-633,809	-200,000	0,015	0,096
-632,795	-200,000	0,003	-0,116
-631,780	119,105	-0,045	-0,041
-630,765	-76,565	-0,178	0,046
-629,751	-64,751	-0,072	-0,022
-628,736	11,347	-0,093	0,053
-627,722	-200,000	-0,021	0,102
-626,707	-177,218	-0,020	0,000
-625,692	416,310	0,077	0,122
-624,678	800,000	-0,028	-0,059
-623,663	-200,000	-0,001	-0,043
-622,649	48,821	-0,066	-0,046
-621,634	-177,834	-0,180	-0,003
-620,619	800,000	-0,033	-0,076
-619,605	350,883	-0,061	-0,090
-618,590	10,159	0,108	0,061
-617,576	130,745	0,053	-0,051
-616,561	635,443	-0,026	-0,048
-615,546	-200,000	0,008	0,058
-614,532	-43,510	-0,091	0,034
-613,517	-200,000	0,021	-0,084
-612,503	787,409	-0,023	0,046
-611,488	172,648	0,028	-0,030
-610,474	-68,584	-0,072	-0,021
-609,459	9,143	-0,038	0,021
-608,444	-200,000	0,000	-0,032
-607,430	463,714	-0,077	-0,128
-606,415	-52,929	-0,098	-0,033
-605,401	780,147	0,062	0,126
-604,386	-139,633	-0,042	0,003
-603,371	-92,631	0,073	0,015
-602,357	-58,875	0,133	-0,042
-601,342	800,000	-0,029	0,084
-600,328	-200,000	0,011	-0,113
-599,313	800,000	0,034	-0,108
-598,298	-200,000	-0,028	0,095
-597,284	356,840	-0,039	-0,058
-596,269	515,807	-0,019	-0,033
-595,255	-200,000	-0,009	-0,147
-594,240	220,007	-0,065	-0,077
-593,225	435,479	0,017	-0,028
-592,211	-24,124	-0,062	0,027
-591,196	64,233	0,115	0,085
-590,182	800,000	-0,013	0,037
-589,167	13,242	-0,055	-0,032
-588,152	-200,000	-0,001	-0,040
-587,138	800,000	-0,015	-0,036
-586,123	-200,000	-0,034	-0,156
-585,109	761,925	-0,061	0,124
-584,094	-200,000	0,010	-0,042
-583,079	419,777	0,046	-0,074
-582,065	-200,000	0,002	0,069
-581,050	-200,000	0,014	-0,051
-580,036	732,878	-0,053	0,105
-579,021	-157,250	-0,091	0,004
-578,006	-200,000	-0,018	-0,075
-576,992	85,293	-0,047	0,038
-575,977	414,096	0,064	0,101
-574,963	800,000	-0,019	-0,055
-573,948	325,851	-0,009	0,013
-572,934	80,843	0,092	-0,073
-571,919	621,295	-0,075	-0,139
-570,904	115,691	-0,044	-0,040
-569,890	224,755	-0,068	-0,081
-568,875	129,199	-0,084	-0,079
-567,861	-54,398	0,133	0,044
-566,846	615,780	-0,073	0,136
-565,831	29,153	-0,080	-0,050
-564,817	44,015	0,087	-0,059
-563,802	-172,285	-0,097	-0,002
-562,788	8,896	-0,045	0,025
-561,773	-103,529	0,293	-0,050
-560,758	121,010	0,093	0,086
-559,744	23,342	-0,136	0,083
-558,729	-137,860	0,119	0,010
-557,715	-104,505	-0,078	0,013
-556,700	-42,364	0,047	-0,018
-555,685	323,485	-0,084	-0,119
-554,671	-192,851	0,033	0,000
-553,656	-22,405	0,025	-0,011
-552,642	-200,000	-0,018	0,066
-551,627	-158,442	-0,055	0,002
-550,612	79,739	-0,071	0,056
-549,598	-200,000	-0,005	-0,021
-548,583	33,415	-0,141	0,090
-547,569	800,000	0,075	-0,159
-546,554	47,632	0,049	-0,034
-545,539	90,057	0,029	0,024
-544,525	-174,047	-0,066	-0,001
-543,510	-200,000	-0,008	0,072
-542,496	291,525	-0,113	-0,152
-541,481	71,225	0,096	-0,073
-540,466	-175,678	0,061	0,001
-539,452	-136,572	-0,093	0,008
-538,437	800,000	0,040	-0,095
-537,423	-74,319	-0,060	0,016
-536,408	-200,000	0,017	0,079
-535,393	800,000	0,005	0,012
-534,379	57,297	-0,077	-0,055
-533,364	403,538	0,011	-0,017
-532,350	-149,735	0,040	0,002
-531,335	175,592	-0,020	0,022
-530,321	-200,000	-0,003	0,012
-529,306	-200,000	0,015	-0,146
-528,291	89,220	0,042	-0,035
-527,277	109,059	0,100	-0,089
-526,262	-200,000	-0,004	0,062
-525,248	800,000	-0,027	0,064
-524,233	800,000	-0,033	0,071
-523,218	162,496	-0,021	-0,022
-522,204	119,045	-0,050	0,046
-521,189	-17,173	-0,072	-0,034
-520,175	37,644	-0,084	0,055
-519,160	40,247	0,103	-0,068
-518,145	-91,323	0,093	0,019
-517,131	-200,000	-0,011	-0,084
-516,116	75,690	-0,094	0,073
-515,102	-124,868	0,061	-0,007
-514,087	96,844	0,012	0,010
-513,072	-200,000	-0,024	-0,124
-512,058	582,610	-0,121	-0,220
-511,043	4,683	-0,082	0,045
-510,029	196,637	0,025	0,028
-509,014	292,021	-0,005	0,006
-507,999	800,000	-0,032	0,081
-506,985	800,000	0,009	0,024
-505,970	-200,000	-0,011	-0,126
-504,956	12,537	0,071	0,040
-503,941	-98,381	-0,112	0,021
-502,926	-17,668	0,081	0,037
-501,912	113,597	-0,110	0,099
-500,897	800,000	0,001	-0,004
-499,883	163,662	0,087	-0,090
-498,868	168,717	-0,066	0,070
-497,853	-200,000	0,009	-0,052
-496,839	231,116	0,031	0,037
-495,824	68,127	0,028	0,021
-494,810	188,560	-0,052	0,057
-493,795	-200,000	-0,004	0,049
-492,781	-53,255	-0,114	-0,038
-491,766	-46,985	-0,140	-0,050
-490,751	755,471	-0,039	0,078
-489,737	130,570	0,110	-0,104
-488,722	190,301	-0,119	-0,132
-487,708	-200,000	0,000	0,085
-486,693	-200,000	-0,024	0,080
-485,678	193,409	0,090	-0,100
-484,664	-41,024	0,058	-0,022
-483,649	107,923	-0,135	0,118
-482,635	164,241	0,093	0,097
-481,620	-200,000	0,017	-0,091
-480,605	-42,349	0,101	-0,038
-479,591	148,156	0,124	0,123
-478,576	-200,000	0,025	0,116
-477,562	47,056	-0,077	0,053
-476,547	-200,000	0,002	0,114
-475,532	17,659	-0,090	0,052
-474,518	-200,000	-0,007	0,104
-473,503	-4,310	0,037	0,019
-472,489	-200,000	0,006	0,050
-471,474	-36,231	-0,068	-0,027
-470,459	800,000	-0,017	-0,038
-469,445	-200,000	-0,002	-0,131
-468,430	-200,000	-0,003	-0,022
-467,416	364,039	0,098	0,146
-466,401	-63,363	0,047	-0,014
-465,386	28,261	0,061	-0,038
-464,372	800,000	0,008	0,017
-463,357	-200,000	0,007	0,049
-462,343	800,000	0,034	-0,092
-461,328	800,000	0,022	0,065
-460,313	9,340	-0,066	-0,037
-459,299	57,306	0,092	0,066
-458,284	800,000	0,040	0,095
-457,270	221,310	-0,041	0,048
-456,255	800,000	-0,015	0,041
-455,241	90,789	-0,106	-0,087
-454,226	198,306	0,021	-0,024
-453,211	-9,227	-0,060	0,029
-452,197	-12,431	0,105	0,050
-451,182	800,000	0,034	-0,096
-450,168	783,427	-0,043	0,086
-449,153	-200,000	0,009	-0,141
-448,138	-98,254	0,096	0,018
-447,124	-118,805	-0,158	0,020
-446,109	47,254	-0,054	-0,037
-445,095	36,727	-0,061	0,040
-444,080	-63,839	0,017	0,005
-443,065	2,347	0,116	0,062
-442,051	194,830	0,058	0,065
-441,036	28,762	-0,075	0,046
-440,022	-200,000	-0,004	-0,146
-439,007	-200,000	-0,013	-0,127
-437,992	-122,482	-0,029	0,003
-436,978	22,605	0,085	0,051
-435,963	-67,390	0,037	0,011
-434,949	800,000	0,044	-0,111
-433,934	-200,000	-0,005	0,145
-432,919	-54,203	-0,028	-0,009
-431,905	-200,000	-0,035	-0,140
-430,890	-138,400	0,123	-0,010
-429,876	800,000	0,025	-0,064
-428,861	-153,068	0,072	-0,004
-427,846	800,000	-0,015	-0,032
-426,832	609,864	-0,068	-0,126
-425,817	-149,890	-0,083	0,005
-424,803	516,008	-0,071	-0,123
-423,788	212,482	0,097	-0,113
-422,773	-200,000	-0,002	0,073
-421,759	-200,000	-0,011	0,047
-420,744	-32,094	-0,176	0,072
-419,730	97,188	-0,126	-0,106
-418,715	128,440	0,112	-0,105
-417,701	-200,000	0,011	-0,052
-416,686	-200,000	0,013	-0,098
-415,671	800,000	0,037	0,088
-414,657	-132,754	0,075	0,007
-413,642	-65,372	0,114	0,033
-412,628	-200,000	0,002	0,129
-411,613	-125,457	0,046	-0,005
-410,598	-109,167	0,129	0,020
-409,584	312,147	0,009	0,013
-408,569	27,039	0,223	0,137
-407,555	558,133	-0,047	0,084
-406,540	691,539	-0,021	0,041
-405,525	35,357	-0,104	-0,067
-404,511	-200,000	-0,016	-0,164
-403,496	-200,000	0,015	-0,066
-402,482	-200,000	-0,006	-0,194
-401,467	214,321	0,051	-0,059
-400,452	-200,000	0,031	0,124
-399,438	400,754	0,033	0,050
-398,423	-69,550	-0,043	-0,012
-397,409	800,000	-0,012	-0,025
-396,394	-200,000	-0,004	-0,049
-395,379	-56,525	0,123	-0,040
-394,365	-119,697	0,072	-0,009
-393,350	-97,961	0,117	0,022
-392,336	-200,000	0,049	0,172
-391,321	-24,662	-0,069	0,030
-390,306	-200,000	-0,018	0,059
-389,292	-63,054	0,127	-0,038
-388,277	-53,253	-0,082	-0,027
-387,263	-200,000	-0,001	0,079
-386,248	-44,118	0,081	-0,030
-385,233	-200,000	0,012	0,124
-384,219	800,000	-0,035	-0,096
-383,204	271,352	-0,110	-0,143
-382,190	373,334	0,063	-0,094
-381,175	93,623	0,015	-0,012
-380,160	-200,000	0,011	-0,108
-379,146	-200,000	0,039	0,153
-378,131	-113,430	0,093	0,013
-377,117	-47,824	-0,117	0,041
-376,102	-200,000	-0,002	-0,056
-375,088	158,893	-0,025	0,025
-374,073	800,000	-0,029	-0,076
-373,058	-6,599	0,104	-0,052
-372,044	-19,376	-0,053	-0,024
-371,029	-181,839	0,136	0,002
-370,015	89,603	-0,009	0,007
-369,000	81,403	-0,055	0,044
-367,985	800,000	-0,047	-0,098
-366,971	364,858	0,038	0,056
-365,956	-62,360	0,152	0,046
-364,942	-200,000	0,015	0,109
-363,927	223,310	0,023	0,027
-362,912	4,596	-0,059	0,032
-361,898	637,793	-0,029	0,055
-360,883	190,449	0,014	0,015
-359,869	-97,030	-0,101	-0,019
-358,854	-74,364	0,087	-0,023
-357,839	74,937	0,125	0,096
-356,825	268,469	-0,072	0,093
-355,810	-52,673	0,053	-0,018
-354,796	-200,000	0,005	-0,037
-353,781	53,560	-0,080	-0,056
-352,766	-200,000	-0,016	-0,118
-351,752	53,898	0,033	0,023
-350,737	-61,105	-0,089	0,027
-349,723	178,772	-0,012	0,013
-348,708	395,054	0,040	0,062
-347,693	800,000	-0,017	-0,040
-346,679	651,285	0,026	-0,049
-345,664	360,063	-0,111	-0,163
-344,650	517,682	-0,021	0,037
-343,635	800,000	0,059	0,125
-342,620	-200,000	-0,008	0,045
-341,606	247,797	-0,010	-0,013
-340,591	-43,462	-0,059	-0,022
-339,577	-23,205	0,072	-0,032
-338,562	173,844	0,063	0,067
-337,548	159,778	0,017	0,017
-336,533	74,171	-0,067	-0,051
-335,518	-16,912	0,179	0,082
-334,504	163,717	-0,071	0,073
-333,489	268,280	0,130	0,167
-332,475	-74,453	-0,137	0,036
-331,460	800,000	0,055	0,148
-330,445	50,089	-0,108	-0,074
-329,431	-200,000	0,012	0,043
-328,416	44,026	0,092	-0,062
-327,402	109,013	-0,123	0,108
-326,387	-128,278	-0,097	0,010
-325,372	126,279	-0,066	0,061
-324,358	-140,092	0,082	0,006
-323,343	800,000	-0,028	-0,071
-322,329	366,772	0,039	0,058
-321,314	-176,682	0,148	0,003
-320,299	531,972	-0,066	0,114
-319,285	-200,000	-0,000	0,029
-318,270	324,413	-0,038	-0,054
-317,256	47,832	0,113	-0,077
-316,241	-200,000	-0,008	0,085
-315,226	14,706	0,054	-0,031
-314,212	-51,453	0,114	0,039
-313,197	-200,000	-0,003	-0,089
-312,183	11,456	0,076	0,043
-311,168	160,696	-0,024	0,024
-310,153	800,000	0,053	-0,170
-309,139	-108,856	-0,018	-0,003
-308,124	-163,897	-0,146	0,005
-307,110	-200,000	0,032	0,153
-306,095	18,248	-0,056	-0,032
-305,080	196,831	0,094	0,105
-304,066	426,622	-0,047	0,074
-303,051	331,322	-0,057	-0,081
-302,037	-200,000	0,007	-0,094
-301,022	-144,791	-0,124	0,008
-300,008	-200,000	0,011	-0,062
-298,993	-76,899	0,091	-0,023
-297,978	-130,188	-0,031	0,003
-296,964	75,002	0,060	0,046
-295,949	599,247	-0,093	-0,169
-294,935	800,000	-0,014	-0,039
-293,920	74,137	0,110	0,084
-292,905	-200,000	0,014	0,137
-291,891	-187,446	0,105	0,001
-290,876	-34,525	-0,042	-0,017
-289,862	42,687	0,107	-0,071
-288,847	800,000	-0,029	0,071
-287,832	-200,000	-0,018	-0,093
-286,818	65,658	0,087	-0,064
-285,803	800,000	0,076	-0,183
-284,789	-69,856	0,161	-0,045
-283,774	-61,250	0,084	-0,026
-282,759	426,400	-0,081	-0,128
-281,745	-200,000	0,008	-0,155
-280,730	800,000	-0,046	-0,110
-279,716	164,386	0,043	0,044
-278,701	-200,000	0,019	0,102
-277,686	-82,619	0,151	0,035
-276,672	309,261	0,068	-0,093
-275,657	176,533	0,099	-0,105
-274,643	-11,550	-0,113	-0,054
-273,628	57,327	-0,014	0,010
-272,613	-181,197	-0,092	-0,001
-271,599	-80,136	-0,025	0,006
-270,584	-56,860	0,042	-0,013
-269,570	72,338	0,020	-0,015
-268,555	186,929	-0,094	-0,102
-267,540	-194,535	-0,044	0,000
-266,526	308,592	0,056	-0,076
-265,511	-135,089	0,073	-0,006
-264,497	-8,609	0,032	0,016
-263,482	-62,121	-0,054	0,016
-262,467	-24,344	-0,042	0,018
-261,453	279,077	0,165	0,215
-260,438	34,384	-0,066	-0,042
-259,424	129,251	-0,050	0,047
-258,409	15,377	0,040	0,023
-257,395	-30,113	0,136	-0,056
-256,380	-200,000	-0,009	0,047
-255,365	-200,000	0,004	0,091
-254,351	174,325	0,033	-0,035
-253,336	800,000	-0,033	-0,088
-252,322	55,984	-0,086	-0,061
-251,307	-156,117	-0,161	0,007
-250,292	-200,000	-0,006	-0,035
-249,278	169,151	0,039	0,040
-248,263	209,996	0,028	-0,032
-247,249	-200,000	-0,019	-0,079
-246,234	-100,466	-0,122	0,022
-245,219	-200,000	-0,003	-0,071
-244,205	295,601	-0,090	0,121
-243,190	800,000	-0,062	0,151
-242,176	356,451	0,072	0,105
-241,161	8,848	0,072	-0,039
-240,146	-52,321	0,073	0,024
-239,132	800,000	-0,034	0,103
-238,117	-37,852	-0,079	-0,030
-237,103	-200,000	0,005	-0,141
-236,088	-200,000	0,004	-0,020
-235,073	-200,000	-0,001	0,034
-234,059	36,533	-0,159	-0,102
-233,044	800,000	0,034	0,085
-232,030	800,000	-0,040	0,108
-231,015	-120,662	-0,166	-0,020
-230,000	-39,246	-0,119	-0,045
-228,986	463,028	-0,017	-0,027
-227,971	69,768	0,020	-0,015
-226,957	424,290	-0,030	0,048
-225,942	463,190	0,038	0,062
-224,927	800,000	-0,024	0,056
-223,913	800,000	-0,040	0,082
-222,898	-62,841	0,072	0,022
-221,884	20,560	0,090	0,053
-220,869	376,626	0,036	0,053
-219,855	-200,000	0,001	0,004
-218,840	86,266	-0,029	0,023
-217,825	55,030	0,093	-0,065
-216,811	-200,000	0,001	0,003
-215,796	124,560	-0,035	-0,032
-214,782	69,950	0,019	0,014
-213,767	201,453	0,079	-0,088
-212,752	-129,424	-0,048	0,005
-211,738	-45,360	-0,033	0,012
-210,723	101,608	0,169	0,143
-209,709	-110,694	-0,025	-0,004
-208,694	-36,977	-0,032	-0,012
-207,679	-195,086	-0,020	-0,000
-206,665	-105,044	0,119	0,020
-205,650	18,296	-0,088	0,051
-204,636	-200,000	0,046	0,262
-203,621	800,000	0,054	0,133
-202,606	273,424	0,055	-0,070
-201,592	326,713	0,041	-0,058
-200,577	466,642	0,050	-0,082
-199,563	800,000	0,045	0,124
-198,548	45,323	-0,032	-0,021
-197,533	235,798	0,134	0,162
-196,519	509,171	0,025	-0,043
-195,504	-25,161	-0,045	-0,019
-194,490	-45,047	-0,031	-0,011
-193,475	698,318	0,044	0,085
-192,460	266,444	0,096	0,123
-191,446	212,045	0,062	0,072
-190,431	-200,000	-0,022	0,146
-189,417	-200,000	0,009	0,066
-188,402	-0,587	0,031	0,016
-187,387	800,000	-0,044	-0,115
-186,373	330,678	0,045	-0,064
-185,358	-143,866	0,192	-0,013
-184,344	-99,164	-0,139	0,025
-183,329	-200,000	0,003	0,139
-182,315	277,895	-0,113	0,146
-181,300	-200,000	-0,008	0,122
-180,285	387,370	0,078	-0,118
-179,271	34,575	-0,090	-0,057
-178,256	-12,266	-0,045	-0,021
-177,242	-149,208	0,092	0,005
-176,227	46,268	0,042	0,028
-175,212	-158,985	-0,083	-0,003
-174,198	-120,705	-0,064	0,008
-173,183	213,406	-0,078	0,089
-172,169	-77,760	0,065	0,016
-171,154	800,000	0,061	-0,148
-170,139	8,159	0,123	-0,067
-169,125	57,624	0,128	0,091
-168,110	800,000	0,052	0,162
-167,096	-83,185	0,172	-0,040
-166,081	-57,440	-0,020	-0,006
-165,066	-174,841	-0,140	0,003
-164,052	-200,000	0,011	0,043
-163,037	-200,000	0,012	0,130
-162,023	541,064	-0,108	0,187
-161,008	-70,859	0,102	0,028
-159,993	99,927	-0,043	0,037
-158,979	372,531	-0,052	-0,076
-157,964	800,000	-0,066	-0,146
-156,950	-23,725	-0,069	-0,030
-155,935	-200,000	0,039	-0,137
-154,920	749,442	-0,012	0,024
-153,906	209,323	0,068	0,077
-152,891	24,575	-0,071	0,042
-151,877	-200,000	-0,008	0,043
-150,862	800,000	-0,041	-0,108
-149,847	49,343	0,029	-0,020
-148,833	-115,790	0,145	0,020
-147,818	-112,187	-0,002	0,000
-146,804	-151,867	0,087	-0,005
-145,789	4,639	0,102	-0,054
-144,775	-200,000	-0,006	-0,140
-143,760	-200,000	-0,009	-0,068
-142,745	-200,000	-0,013	-0,098
-141,731	-54,376	-0,106	0,035
-140,716	-200,000	-0,009	0,138
-139,702	800,000	-0,029	0,089
-138,687	-82,570	0,038	0,009
-137,672	181,259	0,016	0,017
-136,658	9,318	-0,113	-0,062
-135,643	117,092	0,175	-0,156
-134,629	157,363	0,077	-0,078
-133,614	-40,026	-0,013	0,005
-132,599	120,091	0,042	0,038
-131,585	-200,000	0,012	0,068
-130,570	135,120	0,075	-0,071
-129,556	-200,000	0,022	-0,191
-128,541	68,618	-0,081	-0,060
-127,526	721,181	-0,058	-0,113
-126,512	-29,227	0,063	0,026
-125,497	92,962	-0,064	0,052
-124,483	-132,409	-0,027	-0,002
-123,468	-34,376	-0,121	-0,048
-122,453	800,000	-0,010	0,033
-121,439	158,580	-0,061	-0,062
-120,424	-163,816	-0,152	0,005
-119,410	-200,000	0,022	0,075
-118,395	6,588	-0,126	-0,068
-117,380	-143,548	0,123	0,008
-116,366	-32,584	0,068	-0,027
-115,351	-85,201	-0,042	0,009
-114,337	-41,372	-0,071	-0,026
-113,322	65,841	0,095	0,070
-112,307	-200,000	0,004	-0,020
-111,293	-200,000	0,012	0,042
-110,278	-51,414	-0,163	0,055
-109,264	-43,059	0,118	-0,043
-108,249	214,265	-0,087	-0,100
-107,234	-200,000	-0,003	-0,154
-106,220	-110,100	-0,145	0,022
-105,205	-111,152	0,037	-0,005
-104,191	-200,000	-0,007	0,114
-103,176	453,217	0,078	0,126
-102,162	-5,656	-0,039	0,019
-101,147	-79,449	-0,114	-0,028
-100,132	312,103	-0,077	-0,105
-99,118	226,786	0,080	-0,095
-98,103	-47,754	-0,013	-0,005
-97,089	-175,665	0,103	0,002
-96,074	575,954	0,055	-0,097
-95,059	800,000	0,038	-0,084
-94,045	-74,881	-0,170	0,044
-93,030	-66,691	0,052	-0,015
-92,016	48,399	-0,066	-0,045
-91,001	145,067	0,038	-0,037
-89,986	359,422	0,048	0,070
-88,972	-200,000	-0,016	-0,077
-87,957	67,518	-0,050	0,037
-86,943	185,927	0,040	0,043
-85,928	-181,422	-0,109	-0,002
-84,913	-200,000	0,011	-0,045
-83,899	-89,442	0,057	-0,012
-82,884	36,470	0,070	0,045
-81,870	-200,000	-0,003	0,092
-80,855	-5,789	0,058	-0,029
-79,840	-109,849	-0,199	0,030
-78,826	635,968	0,010	-0,019
-77,811	6,077	-0,077	-0,041
-76,797	63,496	0,100	-0,073
-75,782	-200,000	-0,031	-0,156
-74,767	-49,794	-0,048	0,016
-73,753	-200,000	-0,033	-0,149
-72,738	164,703	0,157	-0,160
-71,724	-69,969	-0,079	-0,022
-70,709	57,157	-0,060	-0,043
-69,694	-103,708	0,178	0,030
-68,680	-200,000	-0,013	0,094
-67,665	-180,007	-0,050	0,001
-66,651	-200,000	-0,001	0,045
-65,636	-200,000	0,022	0,103
-64,622	181,854	-0,065	-0,070
-63,607	55,894	-0,029	-0,020
-62,592	122,978	-0,077	-0,070
-61,578	2,315	-0,055	0,029
-60,563	373,032	-0,031	-0,045
-59,549	-200,000	-0,019	0,151
-58,534	-117,297	-1,566	-0,203
-57,519	637,988	-0,738	-1,364
-56,505	-200,000	-0,941	-4,517
-55,490	-104,597	0,553	-0,091
-54,476	800,000	5,139	11,678
-53,461	-200,000	14,480	256,841
-52,446	-200,000	697,149	2230,884
-51,432	564,156	1624,311	2860,527
-50,417	117,029	1630,767	1450,241
-49,403	73,772	1284,719	973,996
-48,388	37,378	1022,858	655,101
-47,373	23,426	981,492	582,799
-46,359	22,530	971,164	573,709
-45,344	21,462	966,560	567,482
-44,330	21,474	965,423	566,833
-43,315	21,323	963,825	565,379
-42,300	21,318	962,743	564,708
-41,286	21,342	961,613	564,099
-40,271	21,332	960,763	563,547
-39,257	21,306	959,651	562,787
-38,242	21,358	958,714	562,382
-37,227	21,282	957,939	561,659
-36,213	21,258	957,099	561,069
-35,198	21,260	956,124	560,480
-34,184	21,318	955,505	560,283
-33,169	21,212	954,620	559,400
-32,154	21,374	953,690	559,355
-31,140	21,332	952,868	558,715
-30,125	21,365	952,019	558,303
-29,111	21,343	951,236	557,749
-28,096	21,295	950,673	557,243
-27,082	21,339	949,909	556,916
-26,067	21,302	948,942	556,206
-25,052	21,367	948,392	556,071
-24,038	21,335	947,786	555,589
-23,023	21,309	947,059	555,059
-22,009	21,334	946,506	554,794
-20,994	21,366	945,763	554,437
-19,979	21,332	945,206	553,980
-18,965	21,322	944,728	553,646
-17,950	21,340	944,061	553,291
-16,936	21,228	943,388	552,519
-15,921	21,228	942,704	552,095
-14,906	21,153	941,902	551,366
-13,892	21,192	941,304	551,118
-12,877	21,197	940,759	550,794
-11,863	21,181	940,028	550,292
-10,848	21,162	939,610	549,965
-9,833	21,313	939,156	550,156
-8,819	21,311	938,477	549,731
-7,804	21,207	938,027	549,117
-6,790	21,237	937,311	548,771
-5,775	21,265	936,643	548,444
-4,760	21,221	935,970	547,892
-3,746	21,165	935,496	547,416
-2,731	21,069	934,769	546,666
-1,717	21,050	933,896	546,074
-0,702	20,989	933,214	545,460
0,313	20,831	932,696	545,483
1,327	24,028	930,873	554,404
2,342	33,619	793,831	498,236
3,356	31,400	450,955	279,673
4,371	0,706	294,861	152,163
5,386	-3,735	275,785	138,095
6,400	-4,945	270,131	134,125
7,415	-5,579	267,759	132,350
8,429	-5,016	266,429	132,198
9,444	-5,150	265,569	131,637
10,459	-5,175	265,081	131,361
11,473	-5,280	264,313	130,873
12,488	-5,356	263,840	130,558
13,502	-5,516	263,376	130,172
14,517	-5,422	262,865	129,993
15,531	-5,535	262,618	129,757
16,546	-5,467	262,134	129,568
17,561	-5,520	261,787	129,337
18,575	-5,265	261,471	129,399
19,590	-5,557	261,236	129,008
20,604	-5,419	260,912	128,960
21,619	-5,410	260,539	128,773
22,634	-5,495	260,148	128,492
23,648	-5,615	259,917	128,259
24,663	-5,427	259,637	128,277
25,677	-5,578	259,346	127,988
26,692	-5,439	259,100	127,978
27,707	-5,517	258,851	127,774
28,721	-5,688	258,653	127,513
29,736	-5,775	258,308	127,254
30,750	-5,543	257,970	127,283
31,765	-5,532	257,737	127,166
32,780	-5,631	257,588	126,993
33,794	-5,782	257,428	126,770
34,809	-5,543	257,162	126,839
35,823	-5,577	256,902	126,669
36,838	-5,553	256,656	126,557
37,853	-5,589	256,405	126,391
38,867	-5,700	256,286	126,223
39,882	-5,581	255,856	126,105
40,896	-5,502	255,540	126,007
41,911	-5,640	255,437	125,824
42,926	-5,765	255,331	125,651
43,940	-5,760	254,876	125,421
44,955	-5,567	254,815	125,548
45,969	-5,669	254,624	125,353
46,984	-5,890	254,363	125,021
47,999	-6,156	254,150	124,672
49,013	-6,208	253,935	124,511
50,028	-6,407	253,700	124,211
51,042	-6,225	253,335	124,179
52,057	-6,525	253,194	123,838
53,071	-6,445	253,048	123,826
54,086	-6,244	252,728	123,832
55,101	-5,865	252,539	124,057
56,115	-5,806	252,340	124,000
57,130	-5,559	252,411	124,238
58,144	-5,351	252,121	124,263
59,159	-5,357	251,950	124,163
60,174	-5,293	251,755	124,111
61,188	-5,197	251,402	124,009
62,203	-5,470	251,354	123,739
63,217	-5,453	251,136	123,635
64,232	-5,428	250,983	123,570
65,247	-5,458	250,803	123,445
66,261	-5,456	250,485	123,279
67,276	-5,806	250,125	122,791
68,290	-5,773	250,047	122,769
69,305	-5,944	249,756	122,470
70,320	-5,641	249,522	122,603
71,334	-5,657	249,469	122,552
72,349	-5,372	249,378	122,740
73,363	-5,319	249,008	122,592
74,378	-5,320	248,866	122,511
75,393	-5,442	248,735	122,331
76,407	-5,462	248,403	122,140
77,422	-5,354	248,192	122,117
78,436	-5,496	248,186	121,982
79,451	-5,377	247,804	121,885
80,466	-5,557	247,618	121,631
81,480	-5,854	247,346	121,234
82,495	-5,780	246,969	121,101
83,509	-5,753	247,049	121,152
84,524	-5,725	246,871	121,078
85,539	-5,862	246,620	120,828
86,553	-5,840	246,357	120,707
87,568	-5,807	246,222	120,658
88,582	-5,559	246,052	120,773
89,597	-5,748	245,932	120,545
90,611	-5,466	245,714	120,664
91,626	-5,631	245,676	120,496
92,641	-5,537	245,531	120,493
93,655	-5,698	245,175	120,172
94,670	-5,583	245,107	120,225
95,684	-5,659	244,804	120,001
96,699	-5,744	244,725	119,881
97,714	-5,829	244,433	119,656
98,728	-5,759	244,149	119,565
99,743	-5,857	244,008	119,403
100,757	-5,812	243,783	119,320
101,772	-5,732	243,588	119,281
102,787	-5,794	243,475	119,163
103,801	-5,737	243,422	119,174
104,816	-5,490	243,254	119,286
105,830	-5,692	243,109	119,037
106,845	-5,579	242,938	119,036
107,860	-5,299	242,599	119,091
108,874	-5,743	242,505	118,667
109,889	-5,632	242,196	118,597
110,903	-5,708	242,024	118,439
111,918	-5,587	241,846	118,442
112,933	-5,588	241,678	118,349
113,947	-5,479	241,509	118,345
114,962	-5,617	241,490	118,211
115,976	-5,572	241,254	118,122
116,991	-5,651	241,057	117,950
118,006	-5,743	240,844	117,759
119,020	-5,378	240,623	117,941
120,035	-5,278	240,630	118,016
121,049	-5,573	240,559	117,728
122,064	-5,442	240,219	117,659
123,079	-5,605	240,090	117,452
124,093	-5,660	239,922	117,314
125,108	-5,857	239,652	117,010
126,122	-6,016	239,395	116,745
127,137	-5,780	239,108	116,787
128,151	-5,790	239,067	116,748
129,166	-5,816	238,850	116,611
130,181	-5,884	238,673	116,459
131,195	-5,651	238,496	116,551
132,210	-5,536	238,358	116,567
133,224	-5,580	238,188	116,437
134,239	-5,730	238,116	116,270
135,254	-5,639	237,875	116,216
136,268	-5,751	237,673	116,016
137,283	-5,827	237,565	115,891
138,297	-5,861	237,181	115,666
139,312	-5,968	237,099	115,530
140,327	-5,859	236,959	115,539
141,341	-5,300	236,932	115,967
142,356	-5,285	236,748	115,879
143,370	-5,212	236,574	115,842
144,385	-5,037	236,430	115,902
145,400	-4,937	236,206	115,862
146,414	-5,394	236,071	115,418
147,429	-5,228	235,954	115,484
148,443	-5,018	235,643	115,490
149,458	-5,403	235,639	115,169
150,473	-5,295	235,446	115,151
151,487	-5,155	235,290	115,177
152,502	-5,265	235,066	114,968
153,516	-5,428	234,907	114,751
154,531	-5,543	234,773	114,583
155,546	-5,273	234,583	114,695
156,560	-5,434	234,331	114,433
157,575	-5,377	234,124	114,367
158,589	-5,398	234,001	114,281
159,604	-5,199	233,892	114,376
160,619	-4,974	233,676	114,438
161,633	-5,016	233,555	114,336
162,648	-5,193	233,551	114,183
163,662	-5,533	233,371	113,815
164,677	-5,267	233,091	113,879
165,692	-5,232	232,995	113,850
166,706	-5,043	232,811	113,899
167,721	-4,903	232,619	113,906
168,735	-5,230	232,511	113,584
169,750	-5,245	232,389	113,503
170,764	-5,329	232,293	113,380
171,779	-5,217	231,952	113,291
172,794	-5,193	231,842	113,247
173,808	-5,278	231,661	113,081
174,823	-5,771	231,381	112,547
175,837	-5,740	231,234	112,490
176,852	-5,487	231,149	112,637
177,867	-5,321	231,012	112,691
178,881	-5,171	231,013	112,798
179,896	-5,142	230,823	112,718
180,910	-5,191	230,589	112,556
181,925	-5,228	230,507	112,477
182,940	-5,177	230,360	112,435
183,954	-5,015	230,154	112,451
184,969	-5,014	230,061	112,395
185,983	-5,129	230,067	112,299
186,998	-5,174	229,818	112,132
188,013	-4,981	229,560	112,147
189,027	-5,016	229,424	112,043
190,042	-5,007	229,350	112,004
191,056	-4,955	229,154	111,938
192,071	-4,893	228,951	111,877
193,086	-5,024	228,817	111,700
194,100	-5,089	228,725	111,595
195,115	-5,177	228,386	111,352
196,129	-5,591	228,217	110,939
197,144	-2,394	229,272	113,925
198,159	1,786	230,275	117,665
199,173	3,873	230,790	119,541
200,188	3,851	230,696	119,465
201,202	4,028	230,568	119,526
202,217	4,119	230,419	119,508
203,232	4,512	230,292	119,737
204,246	4,384	230,307	119,635
205,261	4,155	230,138	119,359
206,275	4,697	229,896	119,642
207,290	4,628	229,850	119,554
208,304	4,536	229,606	119,346
209,319	4,323	229,662	119,199
210,334	4,334	229,329	119,024
211,348	4,157	229,091	118,754
212,363	3,856	228,856	118,390
213,377	3,597	228,742	118,120
214,392	3,598	228,385	117,927
215,407	3,647	228,251	117,884
216,421	3,851	228,331	118,072
217,436	3,777	227,964	117,815
218,450	3,605	227,739	117,556
219,465	3,411	227,710	117,382
220,480	3,470	227,416	117,265
221,494	3,516	227,502	117,334
222,509	3,641	227,266	117,298
223,523	3,501	227,053	117,071
224,538	3,488	226,903	116,973
225,553	3,685	226,832	117,076
226,567	3,902	226,682	117,154
227,582	3,846	226,721	117,120
228,596	4,328	226,449	117,336
229,611	3,749	226,241	116,778
230,626	3,472	226,010	116,438
231,640	3,558	225,899	116,436
232,655	3,880	225,782	116,609
233,669	4,304	225,881	116,971
234,684	4,225	225,665	116,789
235,699	3,876	225,508	116,433
236,713	3,923	225,105	116,250
237,728	3,890	224,951	116,135
238,742	3,601	224,917	115,889
239,757	3,527	224,719	115,721
240,772	3,629	224,538	115,694
241,786	3,426	224,404	115,462
242,801	3,801	224,374	115,719
243,815	3,856	224,405	115,766
244,830	4,155	224,137	115,842
245,844	3,926	223,959	115,568
246,859	3,543	223,773	115,174
247,874	4,043	223,794	115,550
248,888	3,694	223,659	115,208
249,903	3,613	223,377	114,992
250,917	3,625	223,165	114,881
251,932	3,579	223,121	114,815
252,947	3,602	222,834	114,674
253,961	3,473	222,666	114,480
254,976	3,575	222,542	114,483
255,990	3,866	222,598	114,718
257,005	3,836	222,435	114,602
258,020	3,953	222,256	114,587
259,034	4,058	222,164	114,608
260,049	3,897	222,010	114,397
261,063	3,775	221,955	114,268
262,078	4,217	221,628	114,418
263,093	4,200	221,560	114,360
264,107	3,882	221,341	114,001
265,122	3,936	221,205	113,961
266,136	4,250	221,231	114,197
267,151	4,066	221,160	114,013
268,166	3,791	220,814	113,622
269,180	3,511	220,476	113,231
270,195	3,546	220,395	113,205
271,209	3,667	220,335	113,253
272,224	3,646	220,149	113,132
273,239	3,736	220,007	113,115
274,253	3,772	219,831	113,041
275,268	3,662	219,556	112,810
276,282	3,377	219,484	112,553
277,297	3,427	219,310	112,490
278,312	3,564	219,323	112,587
279,326	3,797	219,117	112,642
280,341	3,540	219,132	112,451
281,355	3,750	218,916	112,485
282,370	3,520	218,608	112,148
283,384	3,470	218,432	112,011
284,399	3,395	218,251	111,853
285,414	3,302	218,277	111,789
286,428	3,588	218,279	111,989
287,443	3,763	218,013	111,970
288,457	3,686	217,987	111,891
289,472	3,660	217,718	111,724
290,487	3,338	217,471	111,353
291,501	3,232	217,317	111,187
292,516	3,337	217,304	111,246
293,530	3,328	217,242	111,198
294,545	3,280	217,025	111,043
295,560	3,472	216,958	111,138
296,574	3,558	216,781	111,100
297,589	3,695	216,619	111,106
298,603	3,775	216,508	111,097
299,618	3,607	216,350	110,884
300,633	3,795	216,245	110,956
301,647	4,156	216,131	111,149
302,662	4,207	216,052	111,135
303,676	3,828	215,846	110,746
304,691	4,001	215,718	110,795
305,706	4,110	215,681	110,844
306,720	3,891	215,521	110,594
307,735	3,926	215,213	110,452
308,749	3,681	215,115	110,216
309,764	3,902	214,929	110,269
310,779	3,924	214,860	110,240
311,793	3,881	214,798	110,167
312,808	3,837	214,627	110,038
313,822	3,892	214,489	109,997
314,837	3,631	214,400	109,755
315,852	3,610	214,157	109,606
316,866	3,656	213,971	109,534
317,881	3,817	213,856	109,580
318,895	3,967	213,724	109,610
319,910	3,755	213,648	109,410
320,925	3,712	213,368	109,226
321,939	3,182	213,208	108,757
322,954	3,338	213,180	108,844
323,968	3,768	213,164	109,132
324,983	3,819	213,031	109,090
325,997	3,770	212,843	108,950
327,012	3,890	212,617	108,909
328,027	3,518	212,587	108,621
329,041	3,936	212,605	108,916
330,056	4,153	212,486	109,000
331,070	3,883	212,287	108,697
332,085	3,320	212,025	108,156
333,100	3,490	211,835	108,168
334,114	3,677	211,811	108,279
335,129	3,509	211,588	108,036
336,143	3,450	211,211	107,793
337,158	3,442	211,165	107,754
338,173	3,624	210,994	107,785
339,187	3,446	211,034	107,670
340,202	3,499	210,760	107,559
341,216	3,384	210,632	107,403
342,231	3,544	210,520	107,448
343,246	3,310	210,382	107,205
344,260	3,445	210,237	107,216
345,275	3,764	210,097	107,358
346,289	3,667	210,204	107,335
347,304	3,791	210,014	107,315
348,319	3,780	209,810	107,193
349,333	3,933	209,647	107,207
350,348	3,741	209,525	107,002
351,362	3,795	209,538	107,036
352,377	3,903	209,397	107,031
353,392	3,776	209,204	106,834
354,406	3,841	209,060	106,795
355,421	194,874	1342,536	1430,990
356,435	155,562	1480,708	1431,085
