DTS Sentinel unit serial number:	SN410029Multiplexer serial number:	ORYXHardware model number:	OX2-SRSoftware version number:	ORYX F/W v4,00 Oryx Data Collector v3.7.2.0data status	okinstallation	B6 Nyhavnadifferential loss correction	single-endedforward channel	channel 2reverse channel	N/Adate	2023/12/09time	08:20:08forward acquisition time	300,00reverse acquisition time	0,00gamma	499,1914k internal	0,3139k external	0,3139temperature offset calibration	1,0000default loss term (dB/km)	0,3820temperature slope calibration	1,0000multiplexer offset coefficient	1,0000multiplexer slope coefficient	1,0000fibre end	0,00T internal ref (°C)	18,50T ext. ref 1 (°C)	1,92T ext. ref 2 (°C)	1,91length (m)	temperature (°C)	Stokes	anti-Stokes-744,400	-200,000	-0,006	-0,090
-743,385	-89,130	-0,283	0,062
-742,371	387,846	0,102	0,157
-741,356	70,445	-0,273	0,209
-740,342	-42,774	0,049	0,019
-739,327	-93,390	-0,329	0,067
-738,312	-200,000	-0,025	-0,092
-737,298	-160,190	-0,324	0,013
-736,283	-81,315	0,139	-0,034
-735,269	46,351	-0,210	0,144
-734,254	63,833	0,076	-0,056
-733,239	-100,451	-0,428	-0,078
-732,225	-147,218	0,303	0,019
-731,210	-200,000	0,046	0,193
-730,196	366,687	-0,051	0,076
-729,181	491,908	-0,021	0,036
-728,167	-57,229	-0,022	0,007
-727,152	-68,397	-0,056	0,016
-726,137	481,177	-0,065	-0,110
-725,123	53,184	-0,068	-0,048
-724,108	-200,000	0,003	-0,022
-723,094	141,683	-0,044	-0,044
-722,079	588,456	0,044	-0,080
-721,064	41,650	-0,079	0,053
-720,050	195,104	0,044	0,050
-719,035	-145,899	-0,183	-0,012
-718,021	-109,877	-0,123	-0,019
-717,006	143,146	-0,057	-0,056
-715,991	800,000	-0,019	-0,043
-714,977	-200,000	0,000	-0,109
-713,962	-82,722	-0,015	0,004
-712,948	-98,601	0,172	0,032
-711,933	748,188	-0,032	0,065
-710,918	130,507	-0,071	-0,068
-709,904	181,707	0,098	-0,107
-708,889	41,495	-0,063	0,042
-707,875	23,292	0,062	0,038
-706,860	800,000	0,037	-0,092
-705,845	243,144	-0,063	-0,079
-704,831	409,515	-0,022	-0,035
-703,816	594,514	-0,035	0,064
-702,802	-80,970	-0,029	-0,007
-701,787	-200,000	0,013	-0,143
-700,772	-200,000	-0,030	-0,115
-699,758	150,650	-0,049	-0,049
-698,743	183,046	0,066	-0,072
-697,729	800,000	-0,030	0,069
-696,714	58,978	-0,032	0,024
-695,699	19,590	-0,066	-0,039
-694,685	-200,000	0,021	-0,157
-693,670	-200,000	-0,004	0,071
-692,656	-2,453	0,047	-0,024
-691,641	-5,076	-0,020	0,010
-690,627	-11,961	-0,021	-0,010
-689,612	-200,000	0,005	0,050
-688,597	-200,000	0,023	-0,130
-687,583	110,459	-0,111	-0,099
-686,568	-46,090	0,019	-0,007
-685,554	-91,937	-0,081	0,017
-684,539	-155,014	0,092	-0,004
-683,524	579,226	0,038	-0,069
-682,510	455,461	0,050	0,082
-681,495	-98,042	-0,076	-0,014
-680,481	-169,371	-0,072	-0,002
-679,466	626,012	0,038	0,071
-678,451	-82,609	0,082	-0,019
-677,437	199,986	-0,081	0,092
-676,422	-16,567	0,244	-0,114
-675,408	-200,000	0,022	-0,080
-674,393	-51,247	-0,027	-0,009
-673,378	-23,216	0,066	-0,029
-672,364	800,000	-0,053	-0,112
-671,349	-200,000	-0,000	-0,049
-670,335	-200,000	-0,016	0,170
-669,320	14,712	0,156	-0,090
-668,305	-200,000	-0,000	0,185
-667,291	-103,683	-0,052	0,009
-666,276	-200,000	-0,001	0,066
-665,262	-70,645	-0,090	-0,025
-664,247	-200,000	0,038	-0,145
-663,232	-21,109	0,034	0,015
-662,218	-200,000	-0,003	-0,039
-661,203	439,425	-0,060	-0,097
-660,189	30,115	0,116	0,073
-659,174	800,000	0,027	-0,072
-658,159	43,685	-0,044	0,030
-657,145	-200,000	0,025	-0,111
-656,130	-59,486	0,098	-0,031
-655,116	95,262	0,020	0,017
-654,101	800,000	0,029	0,085
-653,086	-200,000	0,007	-0,033
-652,072	800,000	0,064	-0,155
-651,057	800,000	-0,022	-0,053
-650,043	-131,497	-0,250	-0,024
-649,028	-160,480	-0,093	0,004
-648,014	-200,000	-0,002	-0,115
-646,999	-67,469	0,055	-0,016
-645,984	76,712	0,073	-0,057
-644,970	-0,649	0,074	0,039
-643,955	-25,005	-0,094	-0,041
-642,941	294,944	0,030	-0,040
-641,926	-104,088	0,112	0,019
-640,911	-200,000	-0,022	0,079
-639,897	-27,547	0,097	0,041
-638,882	-16,484	-0,034	0,016
-637,868	-200,000	-0,017	0,127
-636,853	800,000	-0,072	0,178
-635,838	-175,496	-0,142	-0,003
-634,824	170,602	0,029	0,031
-633,809	800,000	0,039	-0,081
-632,795	733,310	0,027	0,054
-631,780	-200,000	0,017	0,087
-630,765	-132,479	0,036	-0,003
-629,751	88,842	0,032	0,027
-628,736	20,248	-0,012	0,007
-627,722	800,000	0,018	-0,039
-626,707	-99,290	-0,093	-0,017
-625,692	18,152	0,056	0,033
-624,678	60,104	-0,033	-0,024
-623,663	328,532	0,064	0,091
-622,649	92,576	0,152	-0,127
-621,634	-200,000	0,005	-0,034
-620,619	223,022	-0,019	-0,023
-619,605	800,000	0,026	0,061
-618,590	113,682	0,145	0,130
-617,576	-80,251	-0,109	0,027
-616,561	800,000	0,021	-0,067
-615,546	-180,723	-0,060	0,001
-614,532	174,380	-0,081	-0,087
-613,517	-121,689	-0,091	0,011
-612,503	-98,683	-0,077	-0,014
-611,488	-200,000	-0,008	-0,041
-610,474	-138,896	-0,030	0,002
-609,459	-87,289	-0,086	0,019
-608,444	27,739	-0,091	0,056
-607,430	-97,132	-0,078	-0,015
-606,415	-146,893	-0,111	-0,007
-605,401	800,000	0,061	-0,166
-604,386	-200,000	0,038	0,141
-603,371	-14,376	0,021	0,010
-602,357	561,045	-0,031	0,056
-601,342	1,645	-0,069	-0,036
-600,328	800,000	-0,043	-0,120
-599,313	343,941	-0,033	-0,048
-598,298	-113,735	0,065	-0,009
-597,284	37,148	0,159	0,103
-596,269	-46,771	0,024	0,009
-595,255	154,177	-0,027	0,028
-594,240	153,963	0,046	0,047
-593,225	-1,892	-0,107	0,055
-592,211	167,411	-0,031	-0,033
-591,196	-104,866	-0,099	0,017
-590,182	-124,003	0,073	0,008
-589,167	29,501	-0,088	0,055
-588,152	800,000	-0,005	-0,011
-587,138	241,285	-0,085	-0,105
-586,123	460,841	0,060	-0,099
-585,109	800,000	-0,016	-0,048
-584,094	-177,627	-0,078	0,001
-583,079	42,450	-0,046	-0,031
-582,065	-63,118	0,125	-0,038
-581,050	27,321	0,067	-0,041
-580,036	-200,000	-0,009	-0,085
-579,021	800,000	-0,040	-0,117
-578,006	-200,000	0,006	-0,041
-576,992	355,540	-0,035	0,051
-575,977	-118,340	0,136	-0,018
-574,963	28,490	0,071	-0,044
-573,948	-200,000	0,004	0,077
-572,934	-84,385	-0,119	0,027
-571,919	-120,405	0,125	-0,015
-570,904	480,935	0,080	-0,134
-569,890	800,000	-0,022	-0,047
-568,875	-200,000	-0,023	-0,088
-567,861	-142,275	-0,076	-0,005
-566,846	177,486	0,062	-0,067
-565,831	-200,000	0,019	0,066
-564,817	-62,181	-0,112	-0,034
-563,802	-184,303	0,086	-0,001
-562,788	-91,019	-0,066	-0,014
-561,773	666,161	-0,014	0,026
-560,758	800,000	0,065	0,178
-559,744	285,789	0,087	0,115
-558,729	154,719	0,029	0,029
-557,715	-200,000	-0,023	-0,094
-556,700	-200,000	0,006	-0,031
-555,685	-28,158	0,087	0,037
-554,671	66,280	-0,019	-0,014
-553,656	-200,000	0,019	0,061
-552,642	50,591	0,155	0,108
-551,627	-132,184	-0,106	0,010
-550,612	96,003	0,010	-0,009
-549,598	-83,978	-0,086	-0,020
-548,583	-200,000	0,000	0,024
-547,569	-179,924	0,018	0,000
-546,554	-40,978	-0,038	-0,015
-545,539	670,758	-0,026	-0,049
-544,525	-36,439	-0,040	-0,016
-543,510	-63,557	-0,035	-0,011
-542,496	-131,073	-0,149	-0,014
-541,481	-23,719	-0,048	-0,021
-540,466	-200,000	0,015	0,073
-539,452	356,546	0,104	-0,153
-538,437	800,000	0,026	0,054
-537,423	-200,000	-0,020	0,103
-536,408	158,167	-0,070	-0,072
-535,393	90,760	0,059	-0,049
-534,379	50,722	-0,064	0,045
-533,364	-91,168	0,108	0,023
-532,350	-200,000	0,002	-0,068
-531,335	-134,196	0,090	0,008
-530,321	-200,000	-0,011	-0,045
-529,306	-84,632	-0,040	-0,009
-528,291	800,000	0,043	-0,100
-527,277	800,000	-0,023	-0,051
-526,262	-149,295	0,071	-0,004
-525,248	44,642	0,078	-0,053
-524,233	-61,316	0,091	0,028
-523,218	-200,000	-0,022	0,138
-522,204	99,938	0,100	0,085
-521,189	-200,000	0,025	-0,084
-520,175	-200,000	-0,001	0,041
-519,160	-104,390	-0,080	0,013
-518,145	-113,715	0,148	-0,021
-517,131	51,078	0,082	-0,057
-516,116	207,339	0,053	0,061
-515,102	-42,453	-0,083	0,031
-514,087	-25,631	0,054	-0,023
-513,072	488,781	-0,018	-0,030
-512,058	203,422	0,024	0,027
-511,043	-124,783	0,042	-0,005
-510,029	-145,780	0,068	-0,004
-509,014	-61,864	0,107	0,033
-507,999	1,779	-0,045	0,024
-506,985	167,896	-0,044	-0,046
-505,970	194,889	0,073	-0,081
-504,956	800,000	-0,017	0,047
-503,941	-107,979	0,043	0,007
-502,926	-75,825	0,028	0,007
-501,912	-90,276	0,106	0,022
-500,897	28,680	-0,161	0,100
-499,883	-125,794	-0,064	0,007
-498,868	689,333	-0,062	-0,119
-497,853	125,846	-0,046	0,043
-496,839	-200,000	0,001	0,140
-495,824	70,022	0,131	0,100
-494,810	30,469	-0,074	-0,046
-493,795	-125,739	0,059	-0,006
-492,781	139,566	-0,162	0,156
-491,766	-200,000	-0,024	0,146
-490,751	-200,000	0,011	-0,074
-489,737	258,092	0,074	0,093
-488,722	-200,000	0,014	0,063
-487,708	-35,292	-0,141	0,056
-486,693	-75,753	0,126	0,033
-485,678	271,289	0,055	0,071
-484,664	-51,651	-0,055	-0,019
-483,649	37,107	-0,066	-0,043
-482,635	-200,000	-0,031	-0,108
-481,620	-130,379	0,053	0,005
-480,605	-200,000	-0,002	-0,087
-479,591	-147,667	0,072	0,004
-478,576	-104,284	-0,046	-0,008
-477,562	40,309	-0,144	-0,095
-476,547	-200,000	0,011	0,067
-475,532	-87,526	-0,110	0,024
-474,518	87,578	-0,051	0,041
-473,503	-104,262	0,059	0,010
-472,489	148,153	-0,056	0,055
-471,474	-200,000	-0,020	-0,084
-470,459	352,950	0,031	-0,045
-469,445	-200,000	0,019	-0,159
-468,430	367,792	0,029	-0,043
-467,416	-30,539	0,136	0,056
-466,401	-16,823	0,072	0,033
-465,386	800,000	0,032	0,092
-464,372	-200,000	-0,016	0,070
-463,357	-200,000	0,013	-0,057
-462,343	751,879	-0,015	-0,030
-461,328	204,522	0,063	-0,072
-460,313	-200,000	0,003	-0,045
-459,299	800,000	-0,025	-0,075
-458,284	-200,000	-0,022	0,105
-457,270	-200,000	0,011	0,150
-456,255	48,083	-0,131	0,090
-455,241	140,289	-0,123	-0,119
-454,226	800,000	-0,038	-0,083
-453,211	800,000	-0,066	-0,181
-452,197	169,828	0,074	-0,078
-451,182	-108,209	0,030	-0,005
-450,168	546,060	-0,018	-0,032
-449,153	-200,000	-0,016	-0,113
-448,138	33,796	-0,051	0,033
-447,124	384,087	-0,090	-0,137
-446,109	111,509	-0,125	0,110
-445,095	-200,000	0,041	-0,134
-444,080	4,059	-0,128	0,068
-443,065	60,323	0,080	-0,058
-442,051	489,212	-0,032	0,053
-441,036	800,000	-0,024	0,065
-440,022	800,000	0,030	-0,064
-439,007	128,389	0,073	-0,068
-437,992	43,539	-0,110	0,074
-436,978	-23,731	0,147	0,064
-435,963	47,025	-0,043	-0,029
-434,949	268,850	-0,037	0,048
-433,934	-134,594	-0,047	-0,004
-432,919	-200,000	-0,022	-0,083
-431,905	649,784	0,041	-0,077
-430,890	68,657	-0,082	-0,062
-429,876	-16,601	0,085	0,039
-428,861	26,629	-0,114	-0,070
-427,846	800,000	0,056	0,118
-426,832	-200,000	-0,007	-0,119
-425,817	506,140	0,019	0,032
-424,803	-200,000	-0,037	0,133
-423,788	189,515	0,065	0,072
-422,773	413,301	0,069	0,107
-421,759	374,566	-0,049	-0,073
-420,744	-17,010	-0,049	0,022
-419,730	-200,000	0,004	0,033
-418,715	648,062	-0,062	0,117
-417,701	-200,000	-0,021	-0,068
-416,686	-68,334	0,115	-0,032
-415,671	-96,923	-0,118	0,023
-414,657	324,528	-0,114	0,160
-413,642	-18,122	-0,045	-0,021
-412,628	-200,000	0,021	-0,143
-411,613	287,792	-0,102	-0,135
-410,598	-139,518	-0,085	-0,007
-409,584	800,000	0,022	-0,052
-408,569	-78,203	0,090	0,022
-407,555	651,698	-0,043	0,081
-406,540	-142,941	0,131	-0,009
-405,525	23,901	0,076	-0,046
-404,511	800,000	0,054	0,173
-403,496	349,306	-0,066	0,095
-402,482	-63,500	-0,030	-0,009
-401,467	184,143	0,080	0,087
-400,452	578,861	0,055	0,099
-399,438	-132,232	-0,118	0,011
-398,423	21,332	-0,125	0,074
-397,409	-39,735	-0,048	-0,018
-396,394	-200,000	0,026	0,108
-395,379	-153,435	0,161	0,008
-394,365	-105,365	0,052	-0,009
-393,350	764,440	0,019	0,038
-392,336	172,722	-0,078	0,082
-391,321	800,000	-0,009	0,020
-390,306	3,633	-0,029	0,016
-389,292	16,716	0,123	-0,071
-388,277	138,895	0,138	-0,133
-387,263	33,783	-0,080	0,050
-386,248	133,421	0,133	0,126
-385,233	49,957	-0,039	0,027
-384,219	800,000	0,027	-0,081
-383,204	180,180	0,088	-0,094
-382,190	371,634	-0,066	0,098
-381,175	-119,049	0,075	-0,009
-380,160	-200,000	-0,023	0,137
-379,146	-18,205	0,142	0,065
-378,131	227,481	-0,040	0,047
-377,117	-200,000	0,021	0,068
-376,102	-200,000	-0,009	0,040
-375,088	-200,000	-0,018	-0,144
-374,073	47,769	-0,006	0,004
-373,058	-200,000	-0,014	-0,132
-372,044	-33,497	0,098	-0,039
-371,029	13,182	0,071	-0,040
-370,015	415,061	0,006	0,009
-369,000	57,215	0,090	-0,064
-367,985	-38,070	0,069	0,027
-366,971	-89,757	-0,106	0,023
-365,956	183,186	-0,102	0,110
-364,942	35,039	0,057	0,036
-363,927	30,756	-0,076	-0,048
-362,912	401,141	-0,032	0,049
-361,898	-73,880	0,066	0,017
-360,883	-200,000	-0,007	-0,135
-359,869	-65,942	0,118	0,034
-358,854	120,524	0,023	0,021
-357,839	-4,325	0,081	0,041
-356,825	-113,087	-0,128	0,018
-355,810	172,437	-0,082	-0,087
-354,796	-182,908	-0,081	0,001
-353,781	-200,000	0,001	-0,013
-352,766	-200,000	-0,005	-0,077
-351,752	-81,241	0,085	-0,020
-350,737	240,547	0,039	0,047
-349,723	84,404	0,109	-0,087
-348,708	306,089	0,033	0,045
-347,693	-200,000	-0,002	-0,016
-346,679	-90,486	0,072	0,015
-345,664	-118,588	-0,079	-0,010
-344,650	124,555	0,003	0,002
-343,635	800,000	0,056	0,117
-342,620	-200,000	0,018	0,113
-341,606	162,861	-0,053	-0,054
-340,591	275,784	-0,092	-0,119
-339,577	800,000	-0,060	-0,185
-338,562	13,257	-0,028	0,016
-337,548	263,604	0,066	0,085
-336,533	-200,000	-0,038	0,130
-335,518	800,000	0,044	0,111
-334,504	-200,000	-0,009	-0,162
-333,489	50,817	0,089	-0,062
-332,475	-200,000	0,002	-0,012
-331,460	376,192	0,028	-0,041
-330,445	100,193	0,044	-0,037
-329,431	-30,386	-0,053	-0,022
-328,416	-200,000	0,006	0,058
-327,402	187,640	-0,017	0,018
-326,387	-142,976	0,039	-0,003
-325,372	415,864	-0,023	0,036
-324,358	652,703	-0,040	-0,074
-323,343	636,683	0,051	0,095
-322,329	-170,404	0,162	0,004
-321,314	800,000	-0,040	-0,119
-320,299	-179,939	-0,187	-0,003
-319,285	168,650	-0,024	0,025
-318,270	-200,000	-0,001	0,030
-317,256	-200,000	0,007	-0,105
-316,241	800,000	-0,033	-0,078
-315,226	-200,000	-0,018	0,166
-314,212	-9,131	0,040	0,020
-313,197	800,000	0,026	0,080
-312,183	-33,148	-0,115	-0,046
-311,168	5,336	0,101	-0,054
-310,153	-200,000	0,010	-0,088
-309,139	-200,000	-0,011	-0,133
-308,124	-111,877	0,047	0,007
-307,110	-117,732	0,041	-0,005
-306,095	-200,000	-0,003	-0,026
-305,080	-200,000	-0,000	-0,113
-304,066	39,920	0,015	0,010
-303,051	-171,310	0,073	0,002
-302,037	57,202	-0,029	0,021
-301,022	261,173	-0,068	0,086
-300,008	22,480	-0,041	0,024
-298,993	127,522	0,073	-0,068
-297,978	147,291	-0,035	-0,035
-296,964	-200,000	0,021	-0,099
-295,949	-50,127	0,072	-0,025
-294,935	-46,306	-0,089	0,032
-293,920	113,320	0,014	-0,013
-292,905	-121,247	-0,141	-0,017
-291,891	214,669	-0,044	-0,051
-290,876	194,226	-0,110	-0,122
-289,862	70,142	-0,077	-0,058
-288,847	-200,000	-0,002	-0,033
-287,832	-77,150	0,067	0,017
-286,818	-69,603	-0,031	0,009
-285,803	90,289	0,034	0,027
-284,789	-34,817	-0,126	0,050
-283,774	-46,418	-0,115	0,041
-282,759	-77,433	0,144	-0,036
-281,745	-200,000	0,000	-0,151
-280,730	238,936	0,076	0,092
-279,716	-49,860	-0,152	0,052
-278,701	38,749	0,081	0,053
-277,686	-58,692	0,143	-0,045
-276,672	209,467	0,050	0,057
-275,657	-93,372	0,047	-0,009
-274,643	25,414	-0,168	-0,102
-273,628	-200,000	0,001	-0,075
-272,613	-200,000	0,002	0,055
-271,599	800,000	0,013	0,036
-270,584	-200,000	0,014	0,050
-269,570	324,391	0,052	0,073
-268,555	800,000	0,075	-0,179
-267,540	53,936	0,066	0,046
-266,526	63,751	0,051	0,037
-265,511	-88,430	-0,111	-0,024
-264,497	5,111	0,026	0,014
-263,482	-200,000	-0,006	0,177
-262,467	-63,348	0,136	-0,040
-261,453	-200,000	-0,013	-0,117
-260,438	363,945	-0,057	0,083
-259,424	800,000	0,045	0,129
-258,409	800,000	-0,038	0,105
-257,395	-119,657	0,149	0,019
-256,380	-32,904	0,049	-0,020
-255,365	14,520	-0,067	0,038
-254,351	800,000	-0,036	0,106
-253,336	800,000	0,047	-0,118
-252,322	239,289	-0,096	0,116
-251,307	-200,000	-0,007	-0,114
-250,292	4,611	0,081	0,043
-249,278	-2,934	0,082	0,041
-248,263	-64,038	-0,030	-0,009
-247,249	35,234	-0,036	0,023
-246,234	66,469	-0,022	-0,016
-245,219	6,887	-0,045	-0,024
-244,205	449,941	-0,056	0,090
-243,190	800,000	0,042	-0,128
-242,176	-19,379	0,040	-0,018
-241,161	-40,365	0,063	-0,024
-240,146	800,000	-0,023	0,068
-239,132	100,964	-0,054	-0,045
-238,117	757,579	-0,044	0,088
-237,103	-200,000	0,011	0,064
-236,088	204,889	0,031	-0,035
-235,073	-138,013	-0,150	0,012
-234,059	800,000	-0,016	-0,042
-233,044	9,085	0,069	0,038
-232,030	-91,318	0,084	-0,017
-231,015	492,958	0,058	-0,097
-230,000	-200,000	0,038	-0,123
-228,986	181,319	0,069	0,074
-227,971	-200,000	0,035	0,172
-226,957	-128,258	-0,072	0,007
-225,942	-200,000	0,012	-0,082
-224,927	-10,960	-0,162	-0,077
-223,913	-66,294	-0,052	-0,015
-222,898	128,472	0,041	-0,038
-221,884	-85,365	0,057	-0,013
-220,869	203,665	0,028	-0,032
-219,855	-104,613	0,162	0,027
-218,840	94,859	0,070	0,058
-217,825	391,643	0,057	0,086
-216,811	-200,000	0,039	-0,157
-215,796	-175,733	-0,126	0,002
-214,782	-200,000	-0,009	-0,146
-213,767	-31,648	-0,082	-0,033
-212,752	-47,739	-0,042	-0,015
-211,738	800,000	0,009	-0,022
-210,723	-61,540	-0,024	0,007
-209,709	800,000	-0,057	-0,130
-208,694	80,194	-0,075	-0,058
-207,679	-200,000	-0,010	-0,039
-206,665	-2,309	0,141	-0,072
-205,650	800,000	0,019	0,059
-204,636	800,000	0,010	0,021
-203,621	13,881	0,094	-0,053
-202,606	-56,654	-0,069	0,022
-201,592	-54,293	-0,150	-0,049
-200,577	123,012	0,144	-0,131
-199,563	-200,000	-0,002	0,019
-198,548	-167,871	0,032	-0,001
-197,533	-200,000	-0,005	0,106
-196,519	800,000	0,057	0,124
-195,504	41,162	0,028	0,018
-194,490	-62,771	-0,079	0,023
-193,475	155,316	0,037	-0,037
-192,460	-200,000	-0,000	0,084
-191,446	347,573	-0,007	-0,010
-190,431	-93,167	0,111	0,022
-189,417	-200,000	0,046	-0,159
-188,402	651,664	-0,066	-0,124
-187,387	-152,259	-0,128	0,007
-186,373	459,556	-0,025	0,040
-185,358	-155,182	-0,085	-0,004
-184,344	-200,000	-0,023	0,180
-183,329	205,308	-0,045	0,050
-182,315	-200,000	0,036	0,188
-181,300	-91,840	-0,141	0,029
-180,285	40,689	-0,028	-0,018
-179,271	71,546	0,012	0,009
-178,256	279,396	0,014	0,018
-177,242	121,552	-0,074	-0,067
-176,227	-22,099	0,059	-0,026
-175,212	94,055	0,026	-0,022
-174,198	800,000	0,051	0,109
-173,183	-151,812	-0,225	0,012
-172,169	800,000	-0,030	-0,067
-171,154	98,869	0,036	-0,030
-170,139	793,901	0,046	0,092
-169,125	536,274	0,029	-0,049
-168,110	32,013	0,021	-0,013
-167,096	-200,000	-0,009	-0,123
-166,081	-200,000	-0,001	-0,021
-165,066	-21,955	-0,060	-0,027
-164,052	800,000	-0,043	-0,113
-163,037	-200,000	0,025	0,119
-162,023	156,584	0,059	0,059
-161,008	85,552	-0,081	0,065
-159,993	-83,085	0,067	0,016
-158,979	228,149	-0,120	-0,142
-157,964	27,442	-0,087	-0,053
-156,950	-200,000	0,008	-0,027
-155,935	800,000	0,100	0,225
-154,920	89,626	0,040	0,033
-153,906	113,708	-0,120	0,106
-152,891	-200,000	0,008	0,077
-151,877	800,000	-0,027	-0,085
-150,862	800,000	-0,043	-0,089
-149,847	-62,927	-0,101	-0,030
-148,833	-104,839	-0,144	0,024
-147,818	-149,760	0,036	0,002
-146,804	800,000	0,064	0,165
-145,789	-200,000	0,026	0,165
-144,775	49,261	0,131	0,089
-143,760	714,167	-0,057	0,109
-142,745	325,636	0,019	0,027
-141,731	-41,467	-0,066	0,024
-140,716	-96,736	-0,104	0,020
-139,702	560,521	0,140	-0,246
-138,687	-120,576	-0,121	-0,015
-137,672	800,000	0,032	0,068
-136,658	-200,000	-0,008	-0,037
-135,643	-8,201	-0,097	0,047
-134,629	800,000	-0,041	-0,125
-133,614	-114,185	0,135	0,019
-132,599	-109,550	-0,071	0,011
-131,585	436,280	0,033	0,053
-130,570	-108,763	-0,165	-0,025
-129,556	-170,180	0,088	-0,002
-128,541	800,000	-0,018	-0,049
-127,526	25,383	0,101	0,061
-126,512	800,000	-0,029	-0,069
-125,497	-200,000	0,028	-0,125
-124,483	35,642	-0,073	0,046
-123,468	134,630	0,125	0,118
-122,453	-200,000	0,023	0,116
-121,439	395,390	0,070	-0,105
-120,424	800,000	-0,083	0,241
-119,410	800,000	0,042	0,095
-118,395	571,271	0,032	-0,056
-117,380	-200,000	-0,006	0,063
-116,366	-0,158	0,027	0,014
-115,351	-23,485	-0,163	0,070
-114,337	-83,149	0,137	-0,032
-113,322	-200,000	0,003	-0,076
-112,307	-20,429	-0,042	0,019
-111,293	-44,473	0,062	0,022
-110,278	-106,320	-0,106	-0,017
-109,264	96,596	0,107	0,088
-108,249	253,541	-0,044	0,055
-107,234	668,377	0,008	0,015
-106,220	-79,301	0,086	-0,021
-105,205	448,312	0,057	0,091
-104,191	-128,842	-0,110	-0,011
-103,176	-200,000	0,025	0,130
-102,162	-200,000	-0,010	-0,072
-101,147	800,000	0,020	-0,048
-100,132	-200,000	-0,016	0,062
-99,118	-1,365	-0,018	0,009
-98,103	-88,784	0,144	0,031
-97,089	237,255	0,068	-0,082
-96,074	-200,000	-0,005	0,067
-95,059	149,107	0,128	0,125
-94,045	22,072	-0,146	-0,086
-93,030	32,634	-0,112	-0,070
-92,016	-109,095	-0,060	0,009
-91,001	-132,496	-0,043	-0,004
-89,986	455,613	0,089	-0,144
-88,972	93,739	-0,030	-0,025
-87,957	26,675	-0,076	-0,046
-86,943	138,666	-0,081	0,077
-85,928	-200,000	-0,024	-0,087
-84,913	800,000	0,050	-0,131
-83,899	800,000	0,031	-0,092
-82,884	-200,000	0,001	-0,039
-81,870	-200,000	0,003	0,122
-80,855	-200,000	-0,003	0,149
-79,840	170,746	0,019	0,019
-78,826	-119,760	0,042	0,005
-77,811	44,235	-0,105	-0,069
-76,797	3,742	-0,059	-0,031
-75,782	177,867	0,059	-0,062
-74,767	-200,000	-0,011	-0,106
-73,753	-200,000	0,023	-0,103
-72,738	756,756	-0,080	0,157
-71,724	69,446	0,071	-0,053
-70,709	-200,000	0,005	-0,049
-69,694	714,986	-0,054	0,105
-68,680	290,852	0,020	0,027
-67,665	213,754	0,031	0,035
-66,651	56,758	0,112	0,078
-65,636	58,225	-0,032	0,022
-64,622	-200,000	-0,012	-0,055
-63,607	-87,791	-0,092	0,020
-62,592	-82,511	-0,149	-0,035
-61,578	237,230	-0,052	0,063
-60,563	800,000	0,065	-0,167
-59,549	800,000	0,048	0,118
-58,534	-31,308	-1,745	-0,706
-57,519	742,060	-0,580	-1,131
-56,505	-200,000	-1,221	-4,755
-55,490	-171,281	0,765	0,018
-54,476	800,000	5,212	12,274
-53,461	-200,000	15,875	279,083
-52,446	-200,000	703,069	2249,387
-51,432	564,550	1619,128	2843,755
-50,417	121,773	1623,109	1461,445
-49,403	82,584	1283,770	1005,609
-48,388	36,851	1028,301	654,846
-47,373	21,584	990,233	580,114
-46,359	20,476	978,984	569,846
-45,344	18,810	974,533	561,757
-44,330	18,819	973,498	561,169
-43,315	18,601	971,548	559,306
-42,300	18,562	970,642	558,636
-41,286	18,516	969,774	557,964
-40,271	18,528	968,796	557,416
-39,257	18,548	967,772	556,872
-38,242	18,566	967,102	556,524
-37,227	18,539	966,384	556,001
-36,213	18,510	965,403	555,319
-35,198	18,467	964,626	554,710
-34,184	18,552	963,944	554,572
-33,169	18,514	962,932	553,845
-32,154	18,592	962,028	553,556
-31,140	18,594	961,165	553,044
-30,125	18,575	960,443	552,545
-29,111	18,570	959,613	552,030
-28,096	18,587	959,018	551,720
-27,082	18,521	958,363	551,106
-26,067	18,475	957,769	550,597
-25,052	18,553	956,782	550,257
-24,038	18,543	956,180	549,860
-23,023	18,509	955,287	549,213
-22,009	18,593	954,565	549,046
-20,994	18,540	954,156	548,620
-19,979	18,576	953,435	548,297
-18,965	18,489	953,084	547,795
-17,950	18,566	952,368	547,610
-16,936	18,464	951,845	546,958
-15,921	18,446	950,951	546,367
-14,906	18,366	950,337	545,733
-13,892	18,474	949,537	545,601
-12,877	18,397	948,941	544,990
-11,863	18,355	948,384	544,513
-10,848	18,417	947,935	544,433
-9,833	18,504	947,286	544,315
-8,819	18,485	946,585	543,831
-7,804	18,367	946,167	543,193
-6,790	18,446	945,384	542,973
-5,775	18,462	944,896	542,724
-4,760	18,415	944,462	542,304
-3,746	18,404	943,598	541,751
-2,731	18,242	942,939	540,835
-1,717	18,238	942,221	540,388
-0,702	18,268	941,460	540,027
0,313	18,048	940,785	539,754
1,327	21,204	939,222	548,804
2,342	30,292	796,309	489,499
3,356	27,178	449,520	271,627
4,371	-2,594	295,352	148,625
5,386	-6,881	276,874	135,236
6,400	-7,940	270,861	131,301
7,415	-8,422	268,648	129,771
8,429	-8,158	267,291	129,346
9,444	-8,224	266,406	128,846
10,459	-8,210	265,829	128,568
11,473	-8,314	265,279	128,196
12,488	-8,285	264,595	127,881
13,502	-8,550	264,100	127,389
14,517	-8,543	263,713	127,198
15,531	-8,133	263,302	127,359
16,546	-8,338	263,027	127,030
17,561	-8,354	262,603	126,799
18,575	-8,549	262,392	126,510
19,590	-8,431	261,857	126,346
20,604	-8,244	261,622	126,390
21,619	-8,503	261,193	125,940
22,634	-8,451	260,891	125,829
23,648	-8,283	260,601	125,829
24,663	-8,424	260,429	125,608
25,677	-8,455	260,279	125,497
26,692	-8,404	259,964	125,379
27,707	-8,420	259,632	125,194
28,721	-8,521	259,293	124,929
29,736	-8,520	259,104	124,828
30,750	-8,477	258,674	124,648
31,765	-8,464	258,633	124,629
32,780	-8,471	258,378	124,488
33,794	-8,498	258,147	124,342
34,809	-8,427	257,810	124,232
35,823	-8,464	257,647	124,109
36,838	-8,586	257,402	123,872
37,853	-8,430	257,012	123,811
38,867	-8,611	256,947	123,610
39,882	-8,406	256,604	123,613
40,896	-8,553	256,480	123,413
41,911	-8,558	256,287	123,305
42,926	-8,544	255,949	123,144
43,940	-8,497	255,695	123,052
44,955	-8,327	255,406	123,051
45,969	-8,730	255,398	122,683
46,984	-8,783	255,075	122,471
47,999	-8,992	254,842	122,165
49,013	-9,334	254,527	121,704
50,028	-9,180	254,150	121,647
51,042	-9,456	254,147	121,395
52,057	-9,484	253,757	121,173
53,071	-9,338	253,503	121,168
54,086	-9,456	253,440	121,025
55,101	-9,099	253,221	121,219
56,115	-8,872	253,154	121,374
57,130	-8,475	253,081	121,672
58,144	-8,483	252,987	121,609
59,159	-8,217	252,657	121,670
60,174	-8,421	252,387	121,352
61,188	-8,302	252,189	121,349
62,203	-8,319	252,000	121,232
63,217	-8,389	251,904	121,116
64,232	-8,308	251,541	121,000
65,247	-8,378	251,310	120,817
66,261	-8,345	251,217	120,790
67,276	-8,600	250,875	120,396
68,290	-8,877	250,589	120,011
69,305	-8,970	250,385	119,822
70,320	-8,920	250,206	119,769
71,334	-8,629	250,173	119,992
72,349	-8,388	249,985	120,097
73,363	-8,199	249,748	120,134
74,378	-8,305	249,592	119,957
75,393	-8,507	249,336	119,652
76,407	-8,451	249,158	119,603
77,422	-8,477	248,934	119,464
78,436	-8,392	248,719	119,422
79,451	-8,373	248,368	119,259
80,466	-8,697	248,239	118,911
81,480	-8,685	247,996	118,794
82,495	-8,717	247,815	118,670
83,509	-8,770	247,800	118,607
84,524	-8,589	247,522	118,616
85,539	-9,057	247,291	118,100
86,553	-9,223	247,209	117,910
87,568	-8,833	246,972	118,115
88,582	-8,885	246,674	117,919
89,597	-8,915	246,550	117,824
90,611	-8,763	246,440	117,888
91,626	-8,505	246,295	118,025
92,641	-8,519	246,015	117,869
93,655	-8,744	245,965	117,646
94,670	-8,496	245,637	117,686
95,684	-8,690	245,531	117,463
96,699	-8,728	245,369	117,342
97,714	-8,772	245,150	117,190
98,728	-8,751	244,863	117,060
99,743	-8,943	244,587	116,758
100,757	-8,884	244,347	116,682
101,772	-8,831	244,358	116,721
102,787	-8,883	244,143	116,564
103,801	-8,835	243,994	116,523
104,816	-8,696	243,909	116,587
105,830	-8,558	243,661	116,573
106,845	-8,555	243,584	116,529
107,860	-8,676	243,312	116,288
108,874	-8,812	243,139	116,082
109,889	-8,809	242,858	115,939
110,903	-8,750	242,714	115,910
111,918	-8,739	242,532	115,822
112,933	-8,816	242,267	115,621
113,947	-8,772	242,169	115,600
114,962	-8,492	241,919	115,701
115,976	-8,552	241,932	115,647
116,991	-8,653	241,646	115,418
118,006	-8,322	241,368	115,547
119,020	-8,617	241,416	115,317
120,035	-8,500	241,171	115,286
121,049	-8,645	241,296	115,216
122,064	-8,473	240,844	115,131
123,079	-8,611	240,583	114,883
124,093	-8,804	240,590	114,717
125,108	-8,864	240,086	114,418
126,122	-8,863	239,879	114,310
127,137	-9,025	239,785	114,123
128,151	-8,970	239,698	114,116
129,166	-8,906	239,517	114,072
130,181	-9,026	239,319	113,870
131,195	-9,063	239,146	113,747
132,210	-8,769	239,023	113,918
133,224	-8,829	238,888	113,795
134,239	-8,648	238,759	113,870
135,254	-8,460	238,376	113,829
136,268	-8,812	238,182	113,442
137,283	-8,964	237,898	113,173
138,297	-8,966	237,722	113,078
139,312	-9,038	237,627	112,964
140,327	-8,813	237,521	113,086
141,341	-8,308	237,578	113,510
142,356	-8,399	237,385	113,335
143,370	-8,434	237,354	113,282
144,385	-8,156	237,097	113,373
145,400	-8,229	236,956	113,237
146,414	-8,255	236,730	113,097
147,429	-8,273	236,560	112,992
148,443	-8,208	236,332	112,925
149,458	-8,298	236,201	112,780
150,473	-8,210	236,015	112,752
151,487	-8,509	235,981	112,486
152,502	-8,275	235,779	112,567
153,516	-8,269	235,526	112,441
154,531	-8,261	235,465	112,408
155,546	-8,421	235,178	112,133
156,560	-8,696	235,161	111,896
157,575	-8,811	234,858	111,650
158,589	-8,543	234,536	111,700
159,604	-8,294	234,463	111,854
160,619	-8,077	234,411	111,992
161,633	-8,227	234,225	111,773
162,648	-8,215	234,084	111,705
163,662	-8,481	234,037	111,462
164,677	-8,280	233,699	111,450
165,692	-8,356	233,677	111,370
166,706	-8,079	233,504	111,497
167,721	-8,093	233,223	111,342
168,735	-8,021	233,228	111,391
169,750	-8,044	232,979	111,244
170,764	-8,432	232,772	110,829
171,779	-8,384	232,795	110,868
172,794	-8,277	232,580	110,840
173,808	-8,448	232,339	110,581
174,823	-8,729	232,000	110,189
175,837	-9,035	231,852	109,867
176,852	-8,451	231,735	110,261
177,867	-8,342	231,759	110,349
178,881	-8,312	231,643	110,307
179,896	-8,296	231,454	110,219
180,910	-8,127	231,281	110,260
181,925	-8,071	231,048	110,183
182,940	-8,103	230,906	110,081
183,954	-8,079	230,878	110,075
184,969	-8,097	230,738	109,985
185,983	-7,920	230,602	110,049
186,998	-7,917	230,391	109,941
188,013	-8,014	230,224	109,776
189,027	-8,049	230,116	109,687
190,042	-8,059	229,920	109,576
191,056	-8,137	229,875	109,484
192,071	-8,061	229,718	109,459
193,086	-8,033	229,383	109,311
194,100	-8,182	229,290	109,142
195,115	-8,124	228,894	108,988
196,129	-9,125	228,696	108,110
197,144	-4,498	230,335	112,478
198,159	1,054	231,829	117,537
199,173	3,179	232,447	119,502
200,188	3,315	232,196	119,468
201,202	3,464	232,092	119,520
202,217	3,786	232,200	119,816
203,232	3,965	232,052	119,868
204,246	4,005	231,825	119,772
205,261	3,979	231,722	119,687
206,275	4,356	231,579	119,896
207,290	4,344	231,430	119,799
208,304	4,254	231,328	119,666
209,319	4,257	231,018	119,497
210,334	4,107	230,886	119,302
211,348	3,804	230,656	118,938
212,363	3,724	230,396	118,731
213,377	3,161	230,360	118,267
214,392	3,291	230,121	118,234
215,407	3,502	230,021	118,335
216,421	3,438	229,800	118,161
217,436	3,378	229,683	118,044
218,450	3,327	229,321	117,808
219,465	3,128	229,240	117,603
220,480	3,205	229,128	117,594
221,494	3,209	228,933	117,487
222,509	3,370	228,885	117,576
223,523	3,448	228,676	117,518
224,538	3,108	228,639	117,227
225,553	3,331	228,315	117,221
226,567	3,479	228,373	117,354
227,582	3,581	228,335	117,402
228,596	3,822	228,031	117,420
229,611	3,568	227,691	117,040
230,626	3,181	227,655	116,716
231,640	3,199	227,504	116,642
232,655	3,389	227,471	116,760
233,669	3,892	227,364	117,077
234,684	3,859	227,396	117,058
235,699	3,856	226,978	116,830
236,713	3,596	226,806	116,534
237,728	3,381	226,633	116,271
238,742	3,263	226,502	116,105
239,757	3,369	226,281	116,061
240,772	3,508	226,213	116,122
241,786	3,404	226,076	115,962
242,801	3,425	226,027	115,942
243,815	3,799	225,941	116,171
244,830	3,818	225,722	116,062
245,844	3,542	225,515	115,737
246,859	3,617	225,201	115,622
247,874	3,586	225,311	115,644
248,888	3,543	225,114	115,501
249,903	3,538	224,867	115,360
250,917	3,333	224,724	115,123
251,932	3,266	224,612	115,004
252,947	3,199	224,426	114,848
253,961	3,190	224,322	114,778
254,976	3,287	224,180	114,768
255,990	3,232	224,231	114,743
257,005	3,632	223,894	114,860
258,020	3,439	223,983	114,751
259,034	3,892	223,669	114,918
260,049	3,837	223,486	114,772
261,063	3,446	223,477	114,466
262,078	3,868	223,116	114,585
263,093	3,787	223,162	114,538
264,107	3,562	223,041	114,298
265,122	3,919	222,761	114,410
266,136	3,770	222,792	114,305
267,151	3,547	222,739	114,102
268,166	3,437	222,306	113,788
269,180	3,103	222,200	113,476
270,195	3,391	221,832	113,492
271,209	3,368	221,855	113,476
272,224	3,180	221,834	113,316
273,239	3,517	221,622	113,447
274,253	3,524	221,387	113,322
275,268	3,140	221,227	112,946
276,282	3,133	220,984	112,806
277,297	2,998	220,814	112,611
278,312	3,062	220,947	112,715
279,326	3,300	220,730	112,770
280,341	3,403	220,552	112,745
281,355	3,435	220,446	112,703
282,370	3,412	220,258	112,581
283,384	3,035	220,132	112,229
284,399	2,864	219,944	111,998
285,414	3,089	219,743	112,051
286,428	3,447	219,778	112,321
287,443	3,728	219,676	112,465
288,457	3,448	219,599	112,211
289,472	3,393	219,330	112,022
290,487	2,966	219,034	111,549
291,501	2,786	218,944	111,362
292,516	2,932	218,781	111,376
293,530	3,055	218,689	111,409
294,545	3,305	218,477	111,473
295,560	3,537	218,280	111,531
296,574	3,181	218,369	111,308
297,589	3,340	218,171	111,312
298,603	3,302	218,106	111,242
299,618	3,393	217,831	111,157
300,633	3,485	217,751	111,174
301,647	3,572	217,871	111,288
302,662	3,611	217,574	111,154
303,676	3,678	217,473	111,142
304,691	3,626	217,407	111,061
305,706	3,786	217,218	111,070
306,720	3,731	216,950	110,883
307,735	3,488	216,688	110,564
308,749	3,425	216,621	110,474
309,764	3,580	216,651	110,592
310,779	3,707	216,487	110,589
311,793	3,395	216,278	110,249
312,808	3,481	216,053	110,185
313,822	3,357	215,897	110,008
314,837	3,414	215,791	109,984
315,852	3,591	215,703	110,057
316,866	3,437	215,624	109,896
317,881	3,831	215,404	110,056
318,895	3,833	215,296	109,993
319,910	3,356	215,080	109,532
320,925	3,016	214,968	109,222
321,939	2,981	214,711	109,057
322,954	2,961	214,744	109,049
323,968	3,802	214,531	109,531
324,983	3,644	214,537	109,411
325,997	3,720	214,517	109,446
327,012	3,593	214,130	109,148
328,027	3,333	214,090	108,933
329,041	3,798	214,141	109,280
330,056	3,698	213,990	109,122
331,070	3,441	213,677	108,771
332,085	3,295	213,427	108,530
333,100	3,380	213,222	108,477
334,114	3,477	213,219	108,534
335,129	3,565	213,073	108,512
336,143	3,436	212,845	108,295
337,158	3,227	212,967	108,199
338,173	3,428	212,623	108,157
339,187	3,182	212,558	107,941
340,202	2,931	212,430	107,690
341,216	2,985	212,279	107,641
342,231	3,328	212,111	107,788
343,246	2,977	212,050	107,501
344,260	3,117	211,853	107,489
345,275	3,273	211,851	107,589
346,289	3,574	211,668	107,698
347,304	3,487	211,495	107,539
348,319	3,563	211,338	107,502
349,333	3,489	211,136	107,338
350,348	3,399	211,190	107,293
351,362	3,473	211,160	107,320
352,377	3,632	210,821	107,250
353,392	3,329	210,587	106,909
354,406	3,315	210,531	106,862
355,421	195,458	1343,359	1429,527
356,435	156,086	1481,409	1429,555
