DTS Sentinel unit serial number:	SN410029Multiplexer serial number:	ORYXHardware model number:	OX2-SRSoftware version number:	ORYX F/W v4,00 Oryx Data Collector v3.7.2.0data status	okinstallation	B6 Nyhavnadifferential loss correction	single-endedforward channel	channel 2reverse channel	N/Adate	2023/12/09time	20:30:08forward acquisition time	300,00reverse acquisition time	0,00gamma	499,1914k internal	0,3129k external	0,3129temperature offset calibration	1,0000default loss term (dB/km)	0,3820temperature slope calibration	1,0000multiplexer offset coefficient	1,0000multiplexer slope coefficient	1,0000fibre end	0,00T internal ref (°C)	21,31T ext. ref 1 (°C)	5,40T ext. ref 2 (°C)	5,39length (m)	temperature (°C)	Stokes	anti-Stokes-744,400	-200,000	-0,001	-0,092
-743,385	112,132	-0,192	0,172
-742,371	-36,181	0,093	0,037
-741,356	23,636	-0,219	0,134
-740,342	800,000	-0,046	0,109
-739,327	553,842	-0,118	0,212
-738,312	800,000	-0,035	-0,098
-737,298	-134,666	-0,308	0,028
-736,283	-43,943	0,159	-0,059
-735,269	103,189	-0,187	0,163
-734,254	-15,360	0,054	-0,026
-733,239	-79,155	-0,412	-0,103
-732,225	-14,271	0,155	-0,074
-731,210	-72,635	-0,014	0,004
-730,196	-86,466	-0,092	0,021
-729,181	-200,000	0,035	-0,147
-728,167	32,969	0,034	0,022
-727,152	-135,496	-0,058	0,005
-726,137	-89,227	0,094	-0,020
-725,123	86,344	-0,121	-0,099
-724,108	-31,182	-0,171	-0,071
-723,094	-200,000	0,036	-0,159
-722,079	-200,000	-0,064	-0,226
-721,064	426,612	0,038	-0,061
-720,050	124,847	-0,074	0,069
-719,035	-144,665	0,029	0,002
-718,021	-58,614	0,042	0,014
-717,006	-111,810	-0,075	-0,011
-715,991	15,768	-0,085	-0,050
-714,977	-50,315	0,052	0,018
-713,962	-200,000	0,001	0,063
-712,948	-200,000	-0,002	0,084
-711,933	-49,675	-0,098	-0,034
-710,918	-137,217	0,085	0,007
-709,904	5,646	-0,005	-0,003
-708,889	285,513	0,102	-0,137
-707,875	-77,166	-0,192	-0,049
-706,860	-200,000	-0,057	-0,238
-705,845	-200,000	0,003	-0,086
-704,831	58,226	0,073	-0,053
-703,816	-200,000	-0,000	-0,013
-702,802	-114,524	-0,017	0,002
-701,787	122,006	-0,047	-0,043
-700,772	263,719	0,124	-0,161
-699,758	3,040	0,188	-0,101
-698,743	-10,294	-0,026	-0,013
-697,729	278,397	-0,010	0,013
-696,714	77,744	0,047	-0,037
-695,699	-200,000	-0,010	-0,151
-694,685	105,515	0,080	-0,070
-693,670	377,890	0,038	-0,059
-692,656	-200,000	-0,002	0,013
-691,641	-200,000	-0,019	0,118
-690,627	-200,000	-0,006	0,099
-689,612	-200,000	-0,015	0,084
-688,597	-80,902	0,075	0,018
-687,583	124,159	-0,227	-0,212
-686,568	88,281	0,052	0,043
-685,554	322,181	-0,004	-0,005
-684,539	317,884	-0,065	0,091
-683,524	-200,000	-0,022	-0,110
-682,510	-112,840	-0,093	-0,014
-681,495	-167,370	-0,077	-0,002
-680,481	-26,601	-0,109	-0,047
-679,466	91,753	-0,034	-0,029
-678,451	69,549	-0,166	-0,127
-677,437	152,327	-0,130	-0,131
-676,422	800,000	-0,035	-0,113
-675,408	490,489	0,041	0,070
-674,393	800,000	0,028	-0,059
-673,378	-24,175	-0,078	0,035
-672,364	373,930	0,044	-0,066
-671,349	-75,870	0,027	0,007
-670,335	63,994	-0,055	-0,041
-669,320	-200,000	-0,014	0,201
-668,305	592,408	-0,019	0,035
-667,291	239,797	0,100	-0,124
-666,276	-2,389	-0,114	-0,059
-665,262	142,275	0,068	-0,067
-664,247	-200,000	-0,015	0,118
-663,232	371,942	-0,043	-0,064
-662,218	79,332	0,125	0,100
-661,203	-200,000	0,013	-0,067
-660,189	329,861	-0,010	0,014
-659,174	-88,614	-0,035	-0,008
-658,159	723,440	0,076	-0,151
-657,145	-200,000	0,015	-0,118
-656,130	-200,000	0,007	0,030
-655,116	-200,000	0,008	-0,071
-654,101	800,000	-0,055	0,134
-653,086	28,610	0,017	0,010
-652,072	203,750	-0,014	-0,016
-651,057	-200,000	-0,019	-0,066
-650,043	800,000	-0,031	-0,064
-649,028	195,539	-0,074	-0,084
-648,014	-200,000	0,011	-0,114
-646,999	291,212	-0,033	-0,045
-645,984	528,126	0,114	0,199
-644,970	-53,092	-0,118	-0,040
-643,955	800,000	-0,038	-0,093
-642,941	-200,000	-0,010	-0,034
-641,926	800,000	0,013	-0,034
-640,911	-15,852	-0,026	0,012
-639,897	-15,007	0,091	0,043
-638,882	-200,000	-0,008	-0,091
-637,868	-126,121	-0,021	0,002
-636,853	39,030	-0,129	0,085
-635,838	-200,000	0,018	-0,118
-634,824	162,616	-0,092	-0,096
-633,809	-200,000	0,002	0,036
-632,795	757,386	0,015	0,031
-631,780	85,883	0,046	0,037
-630,765	42,453	-0,069	0,046
-629,751	800,000	0,024	0,059
-628,736	34,752	0,028	0,018
-627,722	-117,716	-0,031	-0,004
-626,707	-101,027	0,173	-0,031
-625,692	17,553	0,065	-0,038
-624,678	165,356	-0,099	-0,103
-623,663	6,065	-0,168	-0,092
-622,649	-153,400	-0,145	-0,007
-621,634	800,000	-0,010	-0,030
-620,619	461,542	0,042	0,070
-619,605	-63,244	-0,036	-0,011
-618,590	-7,009	0,145	0,072
-617,576	-200,000	-0,007	0,070
-616,561	541,719	-0,033	-0,058
-615,546	129,823	0,017	0,016
-614,532	49,281	-0,075	0,052
-613,517	231,868	-0,048	-0,058
-612,503	42,843	-0,101	-0,068
-611,488	23,000	0,017	0,010
-610,474	36,411	-0,082	-0,053
-609,459	46,243	-0,010	0,007
-608,444	-200,000	0,015	0,177
-607,430	-158,569	-0,132	-0,006
-606,415	-70,741	0,064	-0,018
-605,401	62,960	0,101	-0,075
-604,386	800,000	0,023	-0,051
-603,371	-200,000	0,002	-0,039
-602,357	223,769	-0,082	0,098
-601,342	37,727	-0,126	-0,083
-600,328	-66,239	-0,103	-0,030
-599,313	-200,000	-0,027	0,123
-598,298	-200,000	0,035	-0,129
-597,284	183,910	0,042	-0,046
-596,269	4,350	0,060	0,032
-595,255	638,352	0,063	-0,120
-594,240	-200,000	0,015	0,065
-593,225	-200,000	-0,016	-0,100
-592,211	143,536	-0,162	-0,159
-591,196	-108,525	0,061	0,010
-590,182	-200,000	0,002	0,052
-589,167	800,000	-0,039	0,095
-588,152	-200,000	0,015	0,069
-587,138	300,382	0,074	0,101
-586,123	127,043	-0,042	0,040
-585,109	-200,000	0,004	-0,024
-584,094	20,002	-0,090	-0,053
-583,079	358,097	-0,036	-0,053
-582,065	6,061	0,119	0,065
-581,050	800,000	-0,017	0,046
-580,036	-95,723	0,015	-0,003
-579,021	157,443	-0,041	0,042
-578,006	800,000	-0,052	-0,120
-576,992	-200,000	0,006	-0,092
-575,977	800,000	0,016	-0,043
-574,963	-200,000	-0,021	-0,094
-573,948	243,568	0,036	-0,045
-572,934	142,833	0,069	-0,068
-571,919	-200,000	-0,015	-0,069
-570,904	436,581	-0,011	0,018
-569,890	-30,929	-0,043	-0,018
-568,875	32,924	-0,086	0,055
-567,861	-200,000	0,037	0,129
-566,846	800,000	-0,034	0,103
-565,831	-76,828	-0,087	-0,022
-564,817	573,880	0,048	0,088
-563,802	55,221	-0,160	0,114
-562,788	-42,346	0,104	0,039
-561,773	-200,000	0,013	-0,111
-560,758	-145,959	-0,015	0,001
-559,744	800,000	0,050	0,116
-558,729	-107,034	0,025	-0,004
-557,715	218,186	-0,079	-0,093
-556,700	-62,315	-0,085	0,026
-555,685	49,015	-0,055	0,038
-554,671	-1,715	0,174	-0,090
-553,656	-44,258	0,149	-0,055
-552,642	616,224	0,005	-0,009
-551,627	172,461	0,032	0,034
-550,612	211,638	-0,030	0,034
-549,598	330,755	0,061	-0,088
-548,583	31,466	0,047	-0,030
-547,569	442,369	0,057	-0,092
-546,554	19,008	-0,037	0,022
-545,539	15,482	0,035	-0,021
-544,525	-142,356	0,218	0,016
-543,510	-148,303	-0,175	0,010
-542,496	-200,000	0,001	-0,092
-541,481	-18,032	-0,081	0,037
-540,466	800,000	-0,080	-0,204
-539,452	187,198	0,048	0,053
-538,437	-200,000	-0,011	0,082
-537,423	351,854	-0,009	-0,013
-536,408	-200,000	0,008	0,076
-535,393	-200,000	0,009	-0,075
-534,379	-200,000	-0,002	0,054
-533,364	110,639	-0,030	-0,027
-532,350	85,429	-0,106	0,085
-531,335	-172,949	-0,073	0,002
-530,321	-200,000	0,020	0,170
-529,306	-200,000	0,017	0,065
-528,291	-31,924	-0,054	0,022
-527,277	-133,979	0,116	0,010
-526,262	116,237	-0,173	-0,156
-525,248	-67,055	0,100	-0,029
-524,233	-101,762	-0,018	0,003
-523,218	98,589	-0,038	0,032
-522,204	-68,261	-0,043	-0,012
-521,189	800,000	-0,025	-0,060
-520,175	-119,082	-0,084	0,011
-519,160	8,339	0,086	0,047
-518,145	798,244	0,026	0,053
-517,131	58,391	-0,051	-0,037
-516,116	800,000	0,033	-0,084
-515,102	-82,462	0,104	-0,025
-514,087	201,988	-0,091	-0,104
-513,072	-36,225	0,065	-0,026
-512,058	171,302	-0,111	-0,117
-511,043	66,327	0,185	-0,138
-510,029	54,122	0,051	0,036
-509,014	-112,309	-0,151	-0,022
-507,999	327,799	0,069	-0,098
-506,985	800,000	-0,010	0,027
-505,970	10,319	-0,055	-0,031
-504,956	248,181	0,060	-0,075
-503,941	800,000	-0,024	0,062
-502,926	54,760	-0,074	0,052
-501,912	800,000	-0,036	0,085
-500,897	-128,320	0,065	-0,007
-499,883	800,000	0,035	0,089
-498,868	2,225	0,147	-0,078
-497,853	-20,473	-0,089	0,040
-496,839	-58,572	-0,117	-0,037
-495,824	800,000	0,032	0,095
-494,810	-200,000	0,030	0,141
-493,795	-4,800	0,053	-0,027
-492,781	-200,000	-0,006	-0,073
-491,766	154,933	-0,064	0,065
-490,751	36,213	0,057	0,037
-489,737	334,498	0,074	0,106
-488,722	55,444	0,072	0,051
-487,708	285,226	-0,057	0,076
-486,693	-140,952	0,009	-0,001
-485,678	-81,984	0,084	0,020
-484,664	-200,000	0,036	-0,160
-483,649	383,180	-0,068	-0,103
-482,635	15,865	-0,114	-0,066
-481,620	-69,739	0,059	-0,017
-480,605	-132,127	-0,033	-0,003
-479,591	800,000	-0,026	0,082
-478,576	-170,766	0,131	0,003
-477,562	436,362	-0,138	-0,221
-476,547	-200,000	-0,014	-0,051
-475,532	501,399	-0,060	-0,103
-474,518	196,398	-0,059	0,067
-473,503	449,341	0,066	-0,108
-472,489	-73,289	-0,038	0,010
-471,474	-136,386	0,075	0,006
-470,459	-200,000	-0,025	-0,083
-469,445	-200,000	-0,005	0,054
-468,430	-200,000	0,006	-0,038
-467,416	800,000	0,014	-0,039
-466,401	-200,000	0,012	0,054
-465,386	-3,164	0,053	-0,027
-464,372	648,555	-0,048	0,091
-463,357	295,775	0,074	-0,100
-462,343	800,000	0,008	0,025
-461,328	-39,668	0,101	0,039
-460,313	26,931	0,053	0,032
-459,299	-25,433	0,052	0,023
-458,284	-165,417	0,031	0,001
-457,270	-200,000	0,009	-0,088
-456,255	587,295	-0,022	-0,040
-455,241	72,438	0,055	-0,042
-454,226	-60,533	0,037	0,011
-453,211	-200,000	0,019	-0,099
-452,197	53,384	0,097	0,068
-451,182	261,225	0,042	-0,054
-450,168	529,977	0,029	0,050
-449,153	800,000	-0,014	0,044
-448,138	800,000	-0,016	0,051
-447,124	670,264	-0,063	-0,120
-446,109	251,497	0,030	-0,037
-445,095	-42,620	-0,095	-0,035
-444,080	17,230	-0,074	-0,043
-443,065	-38,282	-0,085	0,033
-442,051	-200,000	-0,005	-0,072
-441,036	42,413	0,057	-0,038
-440,022	71,379	0,061	0,047
-439,007	-200,000	0,000	-0,077
-437,992	-85,269	0,117	0,027
-436,978	158,957	0,080	0,082
-435,963	-1,374	0,108	-0,056
-434,949	-200,000	0,004	-0,043
-433,934	-56,349	-0,112	0,036
-432,919	-142,157	0,141	0,010
-431,905	-14,058	-0,064	-0,030
-430,890	355,823	0,017	-0,025
-429,876	16,201	-0,059	0,034
-428,861	-18,569	0,161	-0,073
-427,846	46,650	0,035	0,024
-426,832	-200,000	-0,020	0,161
-425,817	171,505	-0,038	-0,040
-424,803	-70,956	-0,056	0,015
-423,788	-171,843	-0,069	0,002
-422,773	-40,282	-0,043	-0,017
-421,759	50,261	0,138	0,096
-420,744	559,673	0,048	0,086
-419,730	800,000	-0,037	-0,102
-418,715	-34,669	0,100	-0,040
-417,701	352,689	0,061	0,089
-416,686	800,000	-0,040	0,128
-415,671	40,933	-0,009	-0,006
-414,657	278,350	0,064	0,084
-413,642	-200,000	-0,027	0,129
-412,628	221,843	-0,093	0,110
-411,613	-118,595	-0,012	-0,002
-410,598	61,221	-0,082	-0,060
-409,584	-151,805	-0,155	-0,008
-408,569	800,000	0,078	-0,187
-407,555	-200,000	0,027	0,094
-406,540	362,186	0,075	0,111
-405,525	-79,426	-0,120	-0,030
-404,511	-132,157	0,085	-0,008
-403,496	585,806	-0,010	-0,018
-402,482	64,899	0,121	0,090
-401,467	-170,194	0,042	-0,001
-400,452	-200,000	0,024	0,104
-399,438	-109,877	0,039	0,006
-398,423	-93,909	-0,087	0,017
-397,409	800,000	-0,010	0,026
-396,394	-59,974	-0,152	0,047
-395,379	-200,000	0,018	-0,084
-394,365	105,723	-0,034	-0,029
-393,350	234,830	0,062	-0,075
-392,336	-200,000	0,007	0,029
-391,321	800,000	-0,020	-0,060
-390,306	202,322	0,104	-0,118
-389,292	-200,000	0,003	-0,121
-388,277	28,914	-0,112	-0,069
-387,263	14,757	0,123	-0,070
-386,248	-22,225	0,089	-0,039
-385,233	800,000	-0,021	-0,049
-384,219	-34,552	-0,165	-0,066
-383,204	373,483	0,021	0,032
-382,190	143,154	-0,076	-0,074
-381,175	-200,000	-0,001	-0,076
-380,160	800,000	-0,014	0,043
-379,146	616,055	0,045	-0,084
-378,131	738,403	-0,021	-0,041
-377,117	-94,574	-0,099	-0,020
-376,102	-61,979	-0,103	-0,031
-375,088	76,941	-0,100	-0,078
-374,073	66,350	-0,083	-0,061
-373,058	514,177	-0,006	0,010
-372,044	-200,000	-0,014	-0,069
-371,029	-200,000	0,019	0,080
-370,015	-107,138	0,102	0,016
-369,000	58,602	-0,042	-0,031
-367,985	-179,043	-0,059	0,001
-366,971	-200,000	-0,004	0,116
-365,956	-9,514	0,092	0,045
-364,942	-92,967	0,112	-0,023
-363,927	-177,939	0,058	-0,001
-362,912	-20,780	0,043	0,019
-361,898	-101,019	0,108	0,019
-360,883	-200,000	-0,011	-0,062
-359,869	157,592	-0,072	-0,073
-358,854	-200,000	0,000	-0,064
-357,839	84,338	-0,096	0,077
-356,825	618,305	0,040	0,074
-355,810	-200,000	0,007	0,062
-354,796	-93,794	0,038	-0,008
-353,781	794,586	-0,018	-0,037
-352,766	539,245	-0,019	-0,033
-351,752	28,714	0,055	0,034
-350,737	444,540	0,042	-0,069
-349,723	-0,395	-0,047	-0,025
-348,708	-200,000	-0,023	0,111
-347,693	431,102	0,073	0,116
-346,679	148,521	-0,027	0,026
-345,664	59,949	-0,106	0,077
-344,650	103,608	-0,069	0,059
-343,635	-72,661	-0,038	0,010
-342,620	-11,456	0,139	0,067
-341,606	-200,000	-0,006	0,084
-340,591	-200,000	-0,001	-0,006
-339,577	-200,000	-0,032	0,180
-338,562	427,563	0,039	-0,061
-337,548	33,548	0,125	-0,079
-336,533	800,000	0,058	0,133
-335,518	-113,191	0,067	-0,010
-334,504	800,000	-0,012	-0,025
-333,489	800,000	-0,035	0,092
-332,475	-200,000	0,017	-0,113
-331,460	189,996	-0,063	-0,069
-330,445	670,943	0,048	-0,091
-329,431	-200,000	-0,001	-0,009
-328,416	439,236	0,048	0,076
-327,402	-200,000	-0,006	-0,066
-326,387	380,448	-0,077	-0,116
-325,372	-200,000	0,013	-0,047
-324,358	-136,011	-0,099	-0,008
-323,343	77,212	-0,031	-0,024
-322,329	51,724	0,049	-0,034
-321,314	253,600	0,019	-0,024
-320,299	-200,000	0,068	0,270
-319,285	108,378	-0,009	-0,008
-318,270	259,588	0,042	0,054
-317,256	-200,000	-0,010	0,063
-316,241	-89,000	-0,129	-0,028
-315,226	-124,419	0,168	0,019
-314,212	-200,000	-0,000	0,018
-313,197	152,587	0,016	-0,016
-312,183	407,561	-0,076	-0,118
-311,168	-200,000	-0,048	0,195
-310,153	-200,000	-0,009	0,141
-309,139	-200,000	0,012	0,062
-308,124	-200,000	-0,001	0,062
-307,110	-200,000	0,010	0,043
-306,095	-60,007	0,172	-0,054
-305,080	-200,000	0,020	0,080
-304,066	-200,000	-0,001	-0,014
-303,051	311,702	0,082	0,113
-302,037	-200,000	-0,000	-0,090
-301,022	203,519	-0,060	-0,067
-300,008	33,715	0,026	0,016
-298,993	-200,000	-0,013	0,070
-297,978	-200,000	0,006	0,059
-296,964	-83,868	-0,114	0,026
-295,949	-107,400	-0,143	0,023
-294,935	41,164	-0,140	-0,092
-293,920	800,000	0,024	-0,049
-292,905	160,543	0,106	0,108
-291,891	-200,000	0,007	0,087
-290,876	-74,828	0,114	0,030
-289,862	-84,679	0,076	0,017
-288,847	-43,370	0,025	0,009
-287,832	-200,000	0,003	0,027
-286,818	768,039	-0,023	-0,045
-285,803	-200,000	-0,017	0,154
-284,789	14,024	0,103	-0,058
-283,774	108,956	-0,053	0,046
-282,759	-200,000	0,002	-0,053
-281,745	800,000	0,023	0,051
-280,730	800,000	-0,035	-0,099
-279,716	-69,192	-0,120	-0,033
-278,701	54,299	0,135	0,095
-277,686	100,762	0,064	-0,054
-276,672	800,000	-0,012	0,037
-275,657	294,601	0,093	0,124
-274,643	-32,938	0,073	-0,030
-273,628	-66,768	-0,038	0,011
-272,613	675,926	-0,010	0,019
-271,599	-200,000	0,002	-0,092
-270,584	14,014	0,135	0,077
-269,570	800,000	0,090	0,209
-268,555	-200,000	0,018	0,110
-267,540	-141,425	-0,077	0,006
-266,526	-200,000	-0,012	0,087
-265,511	470,802	-0,075	0,123
-264,497	24,246	-0,079	-0,048
-263,482	-200,000	0,009	0,042
-262,467	-200,000	-0,029	-0,130
-261,453	102,098	0,104	-0,089
-260,438	421,418	-0,033	-0,052
-259,424	117,872	-0,028	0,025
-258,409	107,040	-0,074	0,064
-257,395	76,730	0,132	-0,102
-256,380	-86,394	0,072	0,016
-255,365	269,659	-0,039	0,050
-254,351	331,124	-0,045	0,063
-253,336	61,481	-0,074	-0,054
-252,322	-200,000	0,036	-0,128
-251,307	708,531	-0,045	0,088
-250,292	778,018	0,038	0,076
-249,278	-200,000	-0,008	-0,027
-248,263	547,529	0,036	0,063
-247,249	-0,141	0,030	0,015
-246,234	-71,900	-0,140	-0,038
-245,219	134,076	-0,061	-0,057
-244,205	-127,169	-0,100	-0,010
-243,190	-70,066	-0,069	0,019
-242,176	800,000	0,013	0,038
-241,161	-2,907	0,025	0,013
-240,146	-175,942	0,064	-0,001
-239,132	270,410	-0,075	0,096
-238,117	-200,000	-0,005	-0,061
-237,103	-85,132	-0,070	-0,016
-236,088	-166,632	-0,134	0,004
-235,073	-200,000	0,002	0,088
-234,059	-83,695	0,078	0,018
-233,044	-140,093	-0,060	-0,005
-232,030	209,329	-0,086	-0,099
-231,015	-23,870	0,061	-0,026
-230,000	-200,000	0,003	0,077
-228,986	800,000	-0,001	-0,004
-227,971	-85,963	0,094	-0,021
-226,957	177,005	0,023	-0,025
-225,942	278,704	0,058	-0,076
-224,927	-200,000	0,017	0,158
-223,913	241,106	-0,027	-0,033
-222,898	516,818	0,111	-0,191
-221,884	-200,000	-0,021	-0,069
-220,869	168,277	0,127	0,132
-219,855	-200,000	-0,010	0,143
-218,840	800,000	-0,027	0,087
-217,825	112,220	-0,048	-0,042
-216,811	778,923	-0,041	-0,082
-215,796	-52,536	-0,157	-0,053
-214,782	-140,740	0,038	-0,003
-213,767	-22,059	0,067	-0,030
-212,752	78,860	0,045	0,035
-211,738	-200,000	-0,015	-0,080
-210,723	-200,000	0,017	-0,067
-209,709	-38,605	0,058	-0,022
-208,694	800,000	-0,037	0,098
-207,679	-65,150	-0,044	-0,013
-206,665	431,927	0,053	-0,083
-205,650	199,153	-0,038	0,042
-204,636	-164,971	0,027	0,001
-203,621	-200,000	0,011	0,097
-202,606	-39,533	0,052	-0,020
-201,592	-200,000	-0,015	-0,098
-200,577	312,667	-0,042	-0,058
-199,563	51,693	0,085	-0,059
-198,548	57,782	0,044	0,031
-197,533	346,213	0,046	0,066
-196,519	800,000	0,034	0,099
-195,504	-84,268	-0,055	-0,013
-194,490	5,227	-0,100	-0,054
-193,475	585,467	-0,030	0,054
-192,460	221,660	-0,076	-0,089
-191,446	-102,487	0,088	0,015
-190,431	-38,993	0,039	0,015
-189,417	-158,307	0,077	0,003
-188,402	-125,221	-0,104	-0,011
-187,387	455,551	-0,089	-0,144
-186,373	-200,000	0,030	-0,105
-185,358	-19,358	-0,119	-0,054
-184,344	-127,274	0,091	-0,010
-183,329	-178,633	0,094	-0,002
-182,315	-200,000	0,019	0,064
-181,300	800,000	-0,019	-0,047
-180,285	-21,246	0,069	-0,030
-179,271	105,265	-0,053	0,045
-178,256	800,000	-0,007	-0,015
-177,242	-200,000	0,005	0,135
-176,227	579,716	0,077	0,138
-175,212	-200,000	0,009	0,183
-174,198	-96,300	-0,124	-0,024
-173,183	-114,284	-0,120	0,017
-172,169	12,503	0,097	-0,054
-171,154	-104,087	-0,094	-0,016
-170,139	-200,000	0,001	0,026
-169,125	-44,095	-0,039	-0,014
-168,110	128,509	0,106	-0,098
-167,096	141,308	0,038	-0,037
-166,081	539,798	-0,016	-0,027
-165,066	-45,744	0,167	0,060
-164,052	-200,000	-0,027	0,098
-163,037	-183,055	0,024	0,000
-162,023	-1,343	-0,122	0,063
-161,008	-36,401	-0,121	0,047
-159,993	-200,000	0,020	-0,071
-158,979	-200,000	-0,011	-0,161
-157,964	-148,260	-0,073	0,004
-156,950	-66,354	-0,048	-0,014
-155,935	-197,300	0,095	-0,000
-154,920	-53,535	0,103	-0,034
-153,906	-200,000	0,001	0,181
-152,891	800,000	0,033	0,092
-151,877	-197,176	0,046	-0,000
-150,862	-200,000	-0,026	-0,102
-149,847	144,318	0,095	-0,092
-148,833	-200,000	-0,007	0,037
-147,818	-78,862	0,133	-0,033
-146,804	107,115	0,022	-0,019
-145,789	609,830	-0,078	-0,142
-144,775	-173,892	0,119	-0,003
-143,760	800,000	-0,048	-0,145
-142,745	37,571	-0,124	0,080
-141,731	109,932	-0,059	-0,052
-140,716	10,386	0,036	0,020
-139,702	-113,005	0,120	-0,017
-138,687	-112,559	-0,118	-0,017
-137,672	-170,286	-0,090	-0,002
-136,658	279,315	-0,051	-0,066
-135,643	74,103	-0,023	-0,017
-134,629	-94,790	0,047	-0,009
-133,614	800,000	-0,050	0,152
-132,599	35,796	0,097	0,062
-131,585	-200,000	0,006	0,083
-130,570	-63,603	0,137	-0,041
-129,556	-200,000	-0,023	-0,077
-128,541	-200,000	0,027	-0,155
-127,526	-1,895	0,138	-0,070
-126,512	226,866	0,018	-0,021
-125,497	10,377	0,050	0,028
-124,483	800,000	0,041	0,109
-123,468	534,244	-0,034	0,060
-122,453	132,026	-0,013	-0,012
-121,439	-200,000	-0,021	-0,114
-120,424	-155,376	-0,086	0,004
-119,410	70,235	0,071	0,053
-118,395	-200,000	-0,011	0,062
-117,380	453,152	-0,018	0,029
-116,366	639,012	0,050	0,093
-115,351	800,000	-0,016	-0,040
-114,337	-148,667	-0,161	0,009
-113,322	305,962	0,024	0,032
-112,307	48,328	0,013	0,009
-111,293	-74,581	0,042	0,011
-110,278	285,637	-0,071	0,093
-109,264	-200,000	-0,005	0,019
-108,249	800,000	-0,052	0,141
-107,234	73,910	-0,077	0,058
-106,220	800,000	0,017	0,042
-105,205	-200,000	0,000	0,042
-104,191	-108,494	0,075	0,012
-103,176	-155,199	0,102	0,005
-102,162	-17,227	0,078	0,036
-101,147	-200,000	0,009	0,079
-100,132	225,584	-0,068	-0,080
-99,118	800,000	0,035	-0,082
-98,103	800,000	0,062	-0,159
-97,089	511,579	0,040	-0,069
-96,074	800,000	0,021	-0,056
-95,059	-115,450	-0,124	0,017
-94,045	58,196	0,015	0,011
-93,030	-176,107	0,093	0,002
-92,016	-200,000	-0,016	-0,067
-91,001	-148,100	0,080	0,005
-89,986	111,873	0,059	0,052
-88,972	157,450	-0,061	0,062
-87,957	-141,839	0,040	-0,003
-86,943	-110,603	-0,145	-0,022
-85,928	-65,307	0,067	0,019
-84,913	800,000	-0,019	-0,046
-83,899	-113,023	-0,043	0,006
-82,884	-97,847	-0,103	-0,019
-81,870	219,063	0,116	-0,135
-80,855	83,019	0,079	0,062
-79,840	560,168	0,043	-0,076
-78,826	416,052	0,087	0,135
-77,811	-45,720	-0,204	-0,073
-76,797	10,183	-0,087	-0,048
-75,782	700,633	0,049	0,093
-74,767	-162,147	0,149	0,005
-73,753	152,309	-0,011	0,011
-72,738	21,430	0,095	-0,056
-71,724	-200,000	0,017	-0,058
-70,709	709,515	0,068	-0,131
-69,694	800,000	-0,041	0,097
-68,680	-128,626	0,026	-0,003
-67,665	-76,081	0,030	-0,008
-66,651	-200,000	-0,004	0,122
-65,636	-134,818	0,153	0,013
-64,622	-9,359	-0,062	-0,030
-63,607	104,678	-0,154	-0,132
-62,592	-200,000	-0,015	-0,102
-61,578	-200,000	0,011	-0,088
-60,563	800,000	-0,027	0,066
-59,549	639,886	0,121	0,224
-58,534	-130,007	-1,552	-0,152
-57,519	800,000	-0,662	-1,422
-56,505	-200,000	-1,018	-4,616
-55,490	-65,087	0,639	-0,185
-54,476	800,000	5,087	11,799
-53,461	-200,000	14,513	256,244
-52,446	800,000	697,524	2229,568
-51,432	563,375	1624,508	2859,873
-50,417	116,805	1630,628	1449,352
-49,403	73,669	1284,377	973,526
-48,388	37,404	1022,494	655,093
-47,373	23,456	981,272	582,889
-46,359	22,579	970,745	573,742
-45,344	21,527	966,451	567,749
-44,330	21,479	965,136	566,797
-43,315	21,367	963,574	565,492
-42,300	21,421	962,335	564,920
-41,286	21,377	961,473	564,246
-40,271	21,358	960,597	563,649
-39,257	21,400	959,411	563,067
-38,242	21,364	958,585	562,445
-37,227	21,288	957,722	561,668
-36,213	21,285	956,948	561,184
-35,198	21,299	956,000	560,650
-34,184	21,270	955,469	560,223
-33,169	21,311	954,322	559,662
-32,154	21,351	953,506	559,289
-31,140	21,398	952,746	558,971
-30,125	21,421	951,886	558,520
-29,111	21,399	951,030	557,924
-28,096	21,310	950,577	557,349
-27,082	21,319	949,778	556,888
-26,067	21,364	948,986	556,547
-25,052	21,315	948,290	555,960
-24,038	21,338	947,661	555,642
-23,023	21,366	946,947	555,290
-22,009	21,390	946,348	554,994
-20,994	21,378	945,730	554,570
-19,979	21,372	945,077	554,147
-18,965	21,330	944,634	553,733
-17,950	21,329	944,015	553,344
-16,936	21,372	943,109	552,927
-15,921	21,278	942,526	552,265
-14,906	21,231	941,669	551,591
-13,892	21,257	941,149	551,349
-12,877	21,252	940,531	550,949
-11,863	21,164	939,939	550,301
-10,848	21,214	939,411	550,126
-9,833	21,352	939,002	550,303
-8,819	21,339	938,253	549,800
-7,804	21,220	937,793	549,133
-6,790	21,219	937,367	548,858
-5,775	21,282	936,501	548,528
-4,760	21,200	935,995	547,953
-3,746	21,237	935,115	547,532
-2,731	21,053	934,582	546,617
-1,717	21,015	933,724	545,977
-0,702	21,054	933,156	545,744
0,313	20,822	932,632	545,532
1,327	23,889	930,652	553,952
2,342	33,201	793,872	497,259
3,356	30,881	450,620	278,743
4,371	0,617	294,600	151,970
5,386	-3,598	275,499	138,109
6,400	-4,971	269,990	134,058
7,415	-5,350	267,646	132,533
8,429	-5,267	266,395	131,979
9,444	-5,123	265,514	131,662
10,459	-5,032	264,763	131,361
11,473	-5,164	264,101	130,901
12,488	-5,185	263,595	130,619
13,502	-5,310	263,241	130,318
14,517	-5,344	262,772	130,044
15,531	-5,417	262,397	129,781
16,546	-5,372	261,875	129,552
17,561	-5,365	261,584	129,403
18,575	-5,237	261,292	129,362
19,590	-5,441	260,900	128,973
20,604	-5,449	260,907	128,958
21,619	-5,311	260,316	128,777
22,634	-5,426	259,947	128,481
23,648	-5,454	259,681	128,313
24,663	-5,360	259,311	128,202
25,677	-5,429	259,283	128,116
26,692	-5,384	258,942	127,976
27,707	-5,453	258,817	127,841
28,721	-5,577	258,293	127,461
29,736	-5,573	258,191	127,403
30,750	-5,362	257,805	127,388
31,765	-5,568	257,786	127,185
32,780	-5,498	257,634	127,160
33,794	-5,433	257,248	127,016
34,809	-5,444	256,768	126,758
35,823	-5,611	256,803	126,616
36,838	-5,553	256,473	126,493
37,853	-5,665	256,299	126,298
38,867	-5,695	256,050	126,137
39,882	-5,563	255,762	126,100
40,896	-5,436	255,602	126,122
41,911	-5,544	255,497	125,964
42,926	-5,775	255,233	125,620
43,940	-5,461	254,825	125,683
44,955	-5,701	254,608	125,355
45,969	-5,773	254,450	125,203
46,984	-5,924	254,174	124,924
47,999	-5,971	253,892	124,733
49,013	-6,072	253,772	124,575
50,028	-6,028	253,568	124,502
51,042	-6,376	253,329	124,072
52,057	-6,291	252,904	123,925
53,071	-6,080	252,680	123,988
54,086	-6,158	252,533	123,837
55,101	-6,001	252,326	123,860
56,115	-5,928	252,557	124,025
57,130	-5,507	252,230	124,219
58,144	-5,339	252,105	124,292
59,159	-5,385	251,805	124,093
60,174	-5,268	251,584	124,074
61,188	-5,556	251,396	123,721
62,203	-5,175	251,232	123,959
63,217	-5,272	250,915	123,707
64,232	-5,333	250,733	123,555
65,247	-5,480	250,623	123,363
66,261	-5,407	250,196	123,204
67,276	-5,502	250,022	123,026
68,290	-5,783	249,753	122,642
69,305	-5,984	249,625	122,396
70,320	-5,666	249,379	122,536
71,334	-5,631	249,286	122,509
72,349	-5,341	249,112	122,661
73,363	-5,293	248,762	122,518
74,378	-5,280	248,736	122,506
75,393	-5,395	248,506	122,284
76,407	-5,469	248,322	122,120
77,422	-5,463	248,147	122,027
78,436	-5,394	247,799	121,904
79,451	-5,371	247,542	121,787
80,466	-5,413	247,337	121,639
81,480	-5,456	247,119	121,485
82,495	-5,607	246,913	121,245
83,509	-5,704	246,876	121,134
84,524	-5,603	246,646	121,096
85,539	-5,959	246,461	120,693
86,553	-5,722	246,052	120,682
87,568	-5,642	246,058	120,742
88,582	-5,679	245,760	120,553
89,597	-5,683	245,743	120,531
90,611	-5,635	245,594	120,487
91,626	-5,596	245,534	120,480
92,641	-5,475	245,190	120,403
93,655	-5,530	245,159	120,330
94,670	-5,691	244,929	120,072
95,684	-5,528	244,525	119,999
96,699	-5,454	244,391	119,985
97,714	-5,601	244,260	119,787
98,728	-5,611	244,040	119,659
99,743	-5,724	243,797	119,436
100,757	-5,839	243,564	119,215
101,772	-5,758	243,529	119,254
102,787	-5,887	243,469	119,107
103,801	-5,381	243,046	119,311
104,816	-5,284	242,978	119,347
105,830	-5,443	242,839	119,136
106,845	-5,534	242,794	119,027
107,860	-5,401	242,596	119,030
108,874	-5,557	242,316	118,753
109,889	-5,586	241,992	118,560
110,903	-5,605	241,761	118,420
111,918	-5,590	241,733	118,409
112,933	-5,698	241,653	118,270
113,947	-5,513	241,350	118,263
114,962	-5,581	241,194	118,120
115,976	-5,532	241,022	118,065
116,991	-5,639	240,788	117,852
118,006	-5,459	240,673	117,934
119,020	-5,430	240,554	117,889
120,035	-5,487	240,602	117,855
121,049	-5,319	240,266	117,818
122,064	-5,498	240,106	117,582
123,079	-5,477	239,842	117,460
124,093	-5,630	239,720	117,264
125,108	-5,730	239,431	117,030
126,122	-5,805	239,202	116,847
127,137	-6,031	238,965	116,537
128,151	-5,652	238,742	116,726
129,166	-5,564	238,652	116,743
130,181	-5,746	238,426	116,475
131,195	-5,638	238,227	116,455
132,210	-5,633	238,314	116,490
133,224	-5,419	237,900	116,451
134,239	-5,424	237,925	116,450
135,254	-5,525	237,672	116,233
136,268	-5,721	237,636	116,047
137,283	-5,664	237,155	115,847
138,297	-5,866	236,958	115,578
139,312	-5,985	236,978	115,480
140,327	-5,538	236,784	115,737
141,341	-5,179	236,699	115,974
142,356	-5,216	236,612	115,892
143,370	-5,106	236,560	115,945
144,385	-4,989	236,226	115,865
145,400	-4,987	236,022	115,756
146,414	-5,275	235,966	115,486
147,429	-5,162	235,700	115,437
148,443	-5,235	235,584	115,312
149,458	-5,151	235,484	115,319
150,473	-5,291	235,208	115,061
151,487	-5,147	234,980	115,055
152,502	-5,179	234,876	114,968
153,516	-5,362	234,807	114,778
154,531	-5,306	234,512	114,668
155,546	-5,449	234,596	114,585
156,560	-5,274	234,146	114,495
157,575	-5,382	233,954	114,304
158,589	-5,425	233,941	114,254
159,604	-5,332	233,683	114,192
160,619	-5,186	233,512	114,214
161,633	-5,089	233,433	114,242
162,648	-4,944	233,191	114,228
163,662	-5,122	233,133	114,048
164,677	-5,210	232,990	113,898
165,692	-5,195	232,768	113,792
166,706	-5,153	232,717	113,789
167,721	-4,991	232,475	113,789
168,735	-5,128	232,350	113,610
169,750	-5,111	232,216	113,547
170,764	-5,019	231,956	113,483
171,779	-5,143	231,970	113,382
172,794	-4,930	231,721	113,418
173,808	-5,340	231,514	112,984
174,823	-5,571	231,139	112,609
175,837	-5,764	231,019	112,390
176,852	-5,460	231,131	112,672
177,867	-5,248	230,926	112,729
178,881	-5,018	230,650	112,764
179,896	-5,070	230,681	112,728
180,910	-4,829	230,432	112,785
181,925	-5,126	230,333	112,494
182,940	-5,130	230,118	112,376
183,954	-5,020	229,947	112,368
184,969	-5,162	229,995	112,271
185,983	-4,859	229,617	112,313
186,998	-5,064	229,638	112,154
188,013	-4,856	229,343	112,161
189,027	-4,948	229,210	112,015
190,042	-4,923	229,057	111,950
191,056	-5,112	228,979	111,754
192,071	-4,912	228,734	111,780
193,086	-4,885	228,669	111,759
194,100	-5,046	228,502	111,542
195,115	-4,955	228,050	111,382
196,129	-5,907	228,113	110,667
197,144	-2,769	228,959	113,502
198,159	1,632	230,230	117,547
199,173	3,676	230,565	119,297
200,188	3,974	230,475	119,471
201,202	3,887	230,422	119,365
202,217	4,054	230,218	119,378
203,232	4,324	230,126	119,529
204,246	4,312	230,139	119,516
205,261	4,426	229,870	119,454
206,275	4,419	229,730	119,365
207,290	4,608	229,713	119,492
208,304	4,567	229,419	119,297
209,319	4,551	229,225	119,173
210,334	4,447	229,163	119,050
211,348	4,305	228,877	118,781
212,363	3,905	228,638	118,338
213,377	3,571	228,461	117,979
214,392	3,629	228,197	117,878
215,407	3,812	228,083	117,949
216,421	3,744	228,032	117,860
217,436	3,595	227,823	117,627
218,450	3,437	227,775	117,470
219,465	3,477	227,379	117,287
220,480	3,718	227,326	117,433
221,494	3,702	227,213	117,352
222,509	3,762	227,066	117,311
223,523	3,562	226,959	117,093
224,538	3,572	226,684	116,948
225,553	3,511	226,643	116,870
226,567	3,819	226,614	117,079
227,582	3,920	226,505	117,090
228,596	4,047	226,302	117,071
229,611	3,802	226,082	116,760
230,626	3,435	225,876	116,365
231,640	3,595	225,671	116,370
232,655	3,952	225,616	116,602
233,669	4,460	225,573	116,955
234,684	4,454	225,612	116,960
235,699	4,159	225,203	116,514
236,713	3,874	224,937	116,151
237,728	3,664	224,859	115,942
238,742	3,544	224,596	115,705
239,757	3,538	224,649	115,717
240,772	3,800	224,325	115,738
241,786	3,555	224,246	115,502
242,801	3,805	224,143	115,627
243,815	3,823	224,206	115,662
244,830	3,946	223,949	115,612
245,844	3,952	223,622	115,438
246,859	3,793	223,691	115,343
247,874	3,678	223,579	115,189
248,888	3,956	223,307	115,247
249,903	4,067	223,073	115,199
250,917	3,924	222,908	114,996
251,932	3,552	222,793	114,649
252,947	3,525	222,590	114,514
253,961	3,770	222,335	114,555
254,976	3,783	222,347	114,561
255,990	3,861	222,279	114,574
257,005	4,076	222,197	114,682
258,020	3,954	222,055	114,507
259,034	4,118	221,950	114,565
260,049	4,050	221,859	114,457
261,063	4,138	221,480	114,317
262,078	4,108	221,376	114,231
263,093	4,027	221,373	114,159
264,107	3,890	221,171	113,943
265,122	4,003	221,017	113,937
266,136	4,247	220,991	114,094
267,151	4,282	220,829	114,026
268,166	3,790	220,471	113,468
269,180	3,719	220,325	113,330
270,195	3,673	220,363	113,306
271,209	3,600	220,113	113,113
272,224	3,500	220,073	113,009
273,239	3,939	219,800	113,182
274,253	3,623	219,710	112,893
275,268	3,666	219,352	112,731
276,282	3,475	219,225	112,515
277,297	3,419	219,148	112,425
278,312	3,324	219,119	112,329
279,326	3,847	219,034	112,660
280,341	3,772	218,780	112,464
281,355	3,669	218,784	112,380
282,370	3,703	218,540	112,270
283,384	3,295	218,305	111,841
284,399	3,226	218,184	111,719
285,414	3,478	218,078	111,839
286,428	3,598	218,058	111,906
287,443	3,747	217,916	111,932
288,457	4,010	217,883	112,096
289,472	3,804	217,442	111,710
290,487	3,364	217,337	111,327
291,501	3,311	217,171	111,193
292,516	3,333	216,995	111,109
293,530	3,296	216,968	111,058
294,545	3,408	216,783	111,035
295,560	3,811	216,633	111,239
296,574	3,628	216,560	111,060
297,589	3,702	216,458	111,051
298,603	3,790	216,350	111,049
299,618	3,789	216,139	110,930
300,633	3,695	216,150	110,858
301,647	3,891	216,068	110,948
302,662	4,032	215,924	110,966
303,676	3,980	215,671	110,788
304,691	3,863	215,640	110,678
305,706	4,053	215,391	110,677
306,720	3,949	215,236	110,513
307,735	3,827	214,949	110,269
308,749	3,570	214,874	110,035
309,764	3,730	214,836	110,122
310,779	4,160	214,701	110,350
311,793	4,002	214,508	110,128
312,808	3,973	214,460	110,073
313,822	3,662	214,381	109,800
314,837	3,822	214,052	109,736
315,852	3,595	213,889	109,481
316,866	3,675	213,789	109,477
317,881	3,893	213,613	109,532
318,895	3,926	213,523	109,500
319,910	3,592	213,428	109,204
320,925	3,577	213,200	109,067
321,939	3,219	213,060	108,730
322,954	3,453	212,775	108,742
323,968	3,770	212,880	109,010
324,983	3,869	212,790	109,025
325,997	3,959	212,696	109,031
327,012	3,852	212,506	108,848
328,027	3,706	212,360	108,660
329,041	4,079	212,346	108,907
330,056	4,010	212,258	108,804
331,070	3,558	211,878	108,280
332,085	3,437	211,664	108,076
333,100	3,767	211,563	108,247
334,114	3,794	211,549	108,249
335,129	3,728	211,438	108,137
336,143	3,535	211,257	107,898
337,158	3,638	211,022	107,841
338,173	3,666	210,968	107,824
339,187	3,473	210,800	107,593
340,202	3,516	210,597	107,509
341,216	3,255	210,461	107,248
342,231	3,588	210,413	107,447
343,246	3,648	210,159	107,350
344,260	3,612	210,154	107,312
345,275	3,560	210,109	107,243
346,289	3,711	210,105	107,337
347,304	3,859	209,863	107,308
348,319	3,688	209,678	107,085
349,333	3,834	209,490	107,080
350,348	3,729	209,424	106,964
351,362	3,730	209,325	106,905
352,377	3,727	209,256	106,858
353,392	3,764	208,972	106,729
354,406	3,761	208,872	106,666
355,421	195,024	1342,474	1431,709
356,435	155,681	1480,668	1431,804
