DTS Sentinel unit serial number:	SN410029Multiplexer serial number:	ORYXHardware model number:	OX2-SRSoftware version number:	ORYX F/W v4,00 Oryx Data Collector v3.7.2.0data status	okinstallation	B6 Nyhavnadifferential loss correction	single-endedforward channel	channel 2reverse channel	N/Adate	2023/12/09time	03:55:08forward acquisition time	300,00reverse acquisition time	0,00gamma	499,1914k internal	0,3151k external	0,3151temperature offset calibration	1,0000default loss term (dB/km)	0,3820temperature slope calibration	1,0000multiplexer offset coefficient	1,0000multiplexer slope coefficient	1,0000fibre end	0,00T internal ref (°C)	16,61T ext. ref 1 (°C)	0,92T ext. ref 2 (°C)	0,92length (m)	temperature (°C)	Stokes	anti-Stokes-744,400	800,000	-0,038	0,106
-743,385	-58,116	-0,252	0,081
-742,371	-119,938	0,117	0,015
-741,356	-137,834	-0,293	-0,024
-740,342	-1,907	0,089	0,046
-739,327	-52,000	-0,302	-0,103
-738,312	43,464	0,115	-0,078
-737,298	18,916	-0,146	0,086
-736,283	77,936	-0,062	0,048
-735,269	-109,376	-0,181	0,028
-734,254	-200,000	-0,015	0,069
-733,239	-54,917	-0,464	-0,154
-732,225	62,502	0,151	0,111
-731,210	800,000	0,015	0,039
-730,196	-77,083	-0,077	-0,020
-729,181	348,135	-0,005	0,007
-728,167	115,813	-0,117	-0,105
-727,152	-17,472	0,076	-0,035
-726,137	98,716	-0,029	-0,025
-725,123	-26,706	-0,194	-0,083
-724,108	800,000	-0,041	-0,086
-723,094	204,633	-0,111	-0,128
-722,079	-154,923	-0,013	0,001
-721,064	760,030	-0,058	0,117
-720,050	-200,000	0,009	-0,132
-719,035	300,898	-0,140	-0,191
-718,021	-200,000	-0,023	-0,093
-717,006	-118,007	-0,192	-0,025
-715,991	-200,000	-0,009	-0,070
-714,977	11,670	-0,045	0,026
-713,962	-52,679	-0,056	0,019
-712,948	-23,899	-0,043	-0,019
-711,933	-200,000	0,010	0,045
-710,918	-78,837	-0,091	-0,023
-709,904	800,000	-0,035	-0,109
-708,889	767,585	-0,019	-0,039
-707,875	-200,000	0,035	-0,222
-706,860	-200,000	0,002	0,023
-705,845	-19,775	-0,045	-0,021
-704,831	-170,705	0,147	0,004
-703,816	-200,000	0,026	-0,123
-702,802	-97,724	-0,156	0,030
-701,787	161,539	-0,123	-0,128
-700,772	-200,000	-0,005	-0,141
-699,758	-200,000	0,012	-0,082
-698,743	35,691	-0,030	-0,020
-697,729	163,531	-0,021	0,022
-696,714	800,000	0,044	0,093
-695,699	-200,000	0,012	-0,098
-694,685	17,381	-0,133	-0,078
-693,670	744,389	-0,049	-0,097
-692,656	800,000	0,026	0,061
-691,641	90,581	0,032	0,027
-690,627	-153,393	-0,017	0,001
-689,612	-200,000	0,021	0,144
-688,597	260,775	-0,057	-0,073
-687,583	645,705	-0,008	-0,015
-686,568	-200,000	0,001	0,005
-685,554	376,322	0,051	0,078
-684,539	-200,000	0,004	-0,013
-683,524	-45,765	-0,073	-0,026
-682,510	-134,970	-0,019	0,002
-681,495	-146,767	-0,038	-0,002
-680,481	187,539	0,025	-0,027
-679,466	-74,519	0,101	-0,027
-678,451	800,000	0,008	0,022
-677,437	241,495	0,064	0,079
-676,422	-200,000	0,005	0,041
-675,408	91,552	0,100	-0,083
-674,393	207,791	-0,153	-0,176
-673,378	-119,704	-0,096	-0,012
-672,364	-123,251	-0,028	0,003
-671,349	200,836	-0,060	0,069
-670,335	-84,352	-0,104	-0,024
-669,320	-80,270	0,078	-0,019
-668,305	248,528	-0,110	0,137
-667,291	-200,000	-0,030	-0,154
-666,276	-48,476	0,065	-0,023
-665,262	800,000	-0,043	-0,088
-664,247	142,497	-0,002	0,002
-663,232	149,498	-0,082	-0,082
-662,218	-36,413	0,052	0,020
-661,203	296,867	-0,081	0,110
-660,189	-200,000	-0,043	0,189
-659,174	100,270	-0,117	-0,100
-658,159	-101,652	-0,057	0,010
-657,145	614,551	-0,097	-0,181
-656,130	490,145	0,039	-0,065
-655,116	800,000	0,016	-0,041
-654,101	391,520	-0,065	-0,100
-653,086	-127,602	-0,011	0,001
-652,072	151,912	-0,042	0,042
-651,057	138,131	-0,086	-0,083
-650,043	220,656	-0,099	-0,118
-649,028	-200,000	-0,003	0,101
-648,014	307,531	-0,043	0,060
-646,999	304,365	0,125	-0,172
-645,984	-200,000	-0,009	-0,064
-644,970	77,391	-0,099	-0,078
-643,955	-125,936	0,110	0,012
-642,941	-187,302	-0,057	-0,001
-641,926	14,726	-0,074	-0,043
-640,911	-200,000	-0,041	0,140
-639,897	773,925	0,039	0,079
-638,882	19,336	-0,136	0,080
-637,868	-200,000	0,008	-0,039
-636,853	-178,129	-0,044	0,001
-635,838	-200,000	0,006	-0,088
-634,824	70,082	0,061	0,046
-633,809	800,000	0,035	0,111
-632,795	-200,000	0,007	0,105
-631,780	-200,000	-0,040	0,161
-630,765	-28,591	0,054	0,023
-629,751	-49,463	-0,100	0,035
-628,736	-76,564	-0,085	-0,022
-627,722	-113,316	-0,123	0,018
-626,707	-200,000	-0,016	0,089
-625,692	154,874	0,065	0,066
-624,678	340,648	-0,088	0,126
-623,663	-200,000	0,040	0,158
-622,649	800,000	-0,052	-0,153
-621,634	-57,404	-0,151	-0,048
-620,619	11,547	0,114	0,064
-619,605	105,751	0,070	0,061
-618,590	-19,633	-0,040	0,018
-617,576	-200,000	0,029	0,105
-616,561	800,000	0,034	0,074
-615,546	-106,070	0,022	-0,004
-614,532	15,651	-0,146	-0,084
-613,517	-26,615	-0,081	0,035
-612,503	-200,000	0,021	-0,162
-611,488	-61,006	-0,110	0,034
-610,474	-97,042	0,048	0,009
-609,459	-111,174	-0,088	-0,013
-608,444	-200,000	-0,008	-0,052
-607,430	72,100	-0,099	-0,076
-606,415	800,000	-0,040	-0,107
-605,401	-174,123	0,035	0,001
-604,386	32,146	-0,069	-0,044
-603,371	796,010	0,024	-0,049
-602,357	-200,000	-0,045	-0,149
-601,342	116,869	-0,038	0,034
-600,328	329,995	-0,046	-0,065
-599,313	80,550	-0,124	-0,098
-598,298	267,970	-0,011	-0,014
-597,284	-193,956	0,113	-0,001
-596,269	-200,000	0,028	0,140
-595,255	800,000	0,082	0,214
-594,240	521,090	-0,024	0,042
-593,225	-81,657	-0,030	0,007
-592,211	800,000	-0,039	-0,099
-591,196	-149,548	0,053	0,003
-590,182	24,382	0,066	0,040
-589,167	-200,000	-0,031	0,137
-588,152	12,310	0,103	-0,058
-587,138	800,000	-0,040	-0,093
-586,123	-112,828	0,025	0,004
-585,109	-40,368	-0,092	-0,035
-584,094	-71,816	-0,095	-0,026
-583,079	-188,078	0,186	0,002
-582,065	-200,000	-0,002	0,013
-581,050	-200,000	-0,005	-0,177
-580,036	430,502	-0,031	-0,050
-579,021	-6,236	-0,068	-0,034
-578,006	-34,762	0,123	-0,049
-576,992	61,824	-0,053	0,039
-575,977	68,576	-0,067	0,050
-574,963	-158,682	0,109	0,005
-573,948	471,248	0,022	-0,036
-572,934	-200,000	-0,017	-0,078
-571,919	800,000	0,010	-0,021
-570,904	10,465	-0,113	-0,063
-569,890	31,645	-0,033	-0,021
-568,875	74,412	-0,029	0,022
-567,861	-3,308	0,094	0,048
-566,846	-57,217	-0,054	0,017
-565,831	-61,779	-0,081	-0,025
-564,817	-200,000	-0,002	-0,042
-563,802	307,286	-0,060	-0,082
-562,788	53,898	0,077	-0,054
-561,773	125,553	0,113	-0,105
-560,758	273,468	0,018	0,023
-559,744	800,000	-0,020	0,050
-558,729	168,563	0,003	-0,003
-557,715	-200,000	0,006	0,034
-556,700	-200,000	-0,002	-0,095
-555,685	452,662	0,036	-0,058
-554,671	800,000	-0,015	0,031
-553,656	227,003	0,056	0,066
-552,642	-200,000	-0,019	0,072
-551,627	-3,328	-0,079	0,040
-550,612	-46,657	-0,043	0,015
-549,598	-77,158	-0,121	-0,031
-548,583	381,608	0,041	-0,062
-547,569	-200,000	0,015	-0,085
-546,554	795,117	-0,029	0,058
-545,539	619,811	0,012	0,023
-544,525	-200,000	-0,020	0,132
-543,510	685,083	-0,060	0,116
-542,496	233,235	-0,109	0,131
-541,481	-200,000	-0,019	-0,080
-540,466	800,000	-0,079	-0,200
-539,452	-200,000	0,007	0,079
-538,437	41,425	0,077	-0,051
-537,423	166,836	-0,108	0,112
-536,408	-4,831	0,137	0,069
-535,393	29,150	-0,053	0,033
-534,379	-200,000	0,014	-0,049
-533,364	205,998	0,071	-0,081
-532,350	-46,661	0,048	0,017
-531,335	-63,614	0,126	-0,038
-530,321	31,081	0,091	-0,057
-529,306	800,000	-0,004	0,010
-528,291	402,795	0,051	0,079
-527,277	800,000	-0,034	-0,102
-526,262	800,000	-0,022	-0,054
-525,248	-200,000	-0,007	0,078
-524,233	-200,000	0,007	0,045
-523,218	416,538	0,072	0,113
-522,204	288,890	-0,062	0,083
-521,189	158,132	0,038	-0,038
-520,175	144,643	-0,048	0,047
-519,160	800,000	-0,014	-0,037
-518,145	432,010	0,027	0,043
-517,131	103,680	-0,031	0,026
-516,116	178,242	0,094	0,101
-515,102	800,000	-0,020	0,058
-514,087	-93,752	0,038	-0,008
-513,072	-200,000	-0,004	0,048
-512,058	-168,754	0,015	0,000
-511,043	-71,348	-0,052	-0,014
-510,029	-56,521	0,146	0,047
-509,014	-106,935	0,089	0,014
-507,999	429,296	0,064	-0,102
-506,985	368,692	-0,013	-0,019
-505,970	-18,412	-0,098	-0,045
-504,956	-124,750	0,092	-0,010
-503,941	267,862	-0,022	-0,028
-502,926	-200,000	-0,006	0,196
-501,912	120,086	0,055	0,050
-500,897	322,772	0,063	-0,088
-499,883	156,485	0,063	-0,063
-498,868	800,000	0,056	-0,116
-497,853	95,514	0,036	0,030
-496,839	271,875	0,134	-0,173
-495,824	-49,596	0,074	-0,026
-494,810	-12,765	-0,152	-0,072
-493,795	117,315	0,082	-0,074
-492,781	38,313	0,040	0,026
-491,766	-175,540	-0,094	0,002
-490,751	187,277	0,044	0,048
-489,737	-200,000	-0,020	-0,068
-488,722	-103,187	0,052	-0,009
-487,708	-51,685	0,074	-0,025
-486,693	-200,000	-0,009	-0,099
-485,678	598,268	-0,082	-0,149
-484,664	122,570	-0,087	-0,079
-483,649	43,739	-0,074	0,049
-482,635	304,562	0,048	-0,065
-481,620	-7,419	0,102	-0,050
-480,605	500,233	-0,023	0,039
-479,591	-200,000	0,007	-0,081
-478,576	-72,699	-0,113	-0,030
-477,562	-200,000	-0,022	0,182
-476,547	316,656	0,054	-0,075
-475,532	-200,000	0,028	0,126
-474,518	-185,065	0,125	0,001
-473,503	530,990	-0,080	0,139
-472,489	-64,884	0,026	0,008
-471,474	-69,352	-0,082	0,023
-470,459	-74,084	-0,076	0,020
-469,445	800,000	-0,043	-0,114
-468,430	-68,736	-0,055	0,015
-467,416	-200,000	0,039	0,154
-466,401	53,623	0,030	-0,021
-465,386	-200,000	0,011	-0,089
-464,372	182,392	0,017	-0,019
-463,357	-98,216	-0,006	-0,001
-462,343	496,342	-0,035	-0,060
-461,328	276,089	0,012	0,015
-460,313	310,873	-0,055	0,075
-459,299	-70,801	-0,037	-0,010
-458,284	-200,000	0,024	-0,081
-457,270	-81,771	0,060	0,014
-456,255	376,025	-0,038	-0,057
-455,241	-14,826	-0,110	0,052
-454,226	124,957	-0,025	0,023
-453,211	222,182	0,066	0,078
-452,197	800,000	-0,047	-0,101
-451,182	-200,000	0,012	0,059
-450,168	4,202	-0,039	-0,021
-449,153	800,000	0,040	-0,119
-448,138	480,244	0,080	-0,132
-447,124	199,677	-0,092	-0,103
-446,109	-200,000	0,014	-0,213
-445,095	421,429	-0,046	-0,072
-444,080	461,705	0,028	0,046
-443,065	-52,706	-0,099	0,033
-442,051	194,861	0,110	0,122
-441,036	-47,469	0,025	-0,009
-440,022	222,111	-0,017	0,020
-439,007	-200,000	0,024	0,082
-437,992	-200,000	-0,004	0,030
-436,978	706,408	0,042	0,082
-435,963	-90,535	0,165	0,035
-434,949	-103,792	-0,184	0,031
-433,934	-34,065	-0,025	-0,010
-432,919	800,000	0,022	-0,055
-431,905	288,274	-0,012	-0,016
-430,890	373,021	0,065	-0,096
-429,876	-105,704	-0,011	-0,002
-428,861	-28,553	-0,047	0,020
-427,846	-53,630	0,034	0,011
-426,832	193,864	-0,092	0,102
-425,817	121,712	0,065	-0,059
-424,803	192,667	0,074	0,082
-423,788	-200,000	-0,007	0,049
-422,773	47,514	0,048	0,033
-421,759	800,000	0,034	-0,072
-420,744	39,475	-0,035	0,023
-419,730	91,961	0,016	-0,014
-418,715	-113,214	-0,149	-0,021
-417,701	517,312	0,035	0,060
-416,686	800,000	0,025	0,078
-415,671	-119,962	0,107	-0,013
-414,657	-200,000	0,014	0,127
-413,642	-38,931	0,028	0,011
-412,628	156,882	0,080	-0,080
-411,613	800,000	0,008	0,023
-410,598	-1,123	-0,072	0,037
-409,584	800,000	0,048	-0,099
-408,569	-140,499	0,076	0,006
-407,555	-137,766	0,055	0,004
-406,540	-11,952	0,067	-0,032
-405,525	-41,015	0,102	-0,038
-404,511	-180,797	-0,193	0,003
-403,496	800,000	-0,023	0,070
-402,482	25,665	-0,056	-0,034
-401,467	270,278	-0,082	0,105
-400,452	150,586	0,024	0,024
-399,438	-200,000	-0,003	-0,042
-398,423	800,000	0,005	0,016
-397,409	-90,379	0,065	0,014
-396,394	84,666	0,011	0,009
-395,379	-200,000	-0,026	0,130
-394,365	-91,204	-0,049	-0,010
-393,350	-152,330	0,080	-0,004
-392,336	12,677	-0,006	0,003
-391,321	-90,803	0,205	0,043
-390,306	-133,882	-0,116	0,010
-389,292	-44,974	-0,156	0,056
-388,277	-200,000	-0,007	-0,047
-387,263	387,963	-0,011	-0,017
-386,248	800,000	-0,041	-0,087
-385,233	-200,000	0,028	0,146
-384,219	-60,079	-0,100	0,031
-383,204	756,566	0,027	-0,052
-382,190	800,000	-0,037	-0,109
-381,175	49,398	-0,055	0,037
-380,160	-28,233	0,072	-0,030
-379,146	345,605	-0,011	0,015
-378,131	-200,000	-0,002	-0,015
-377,117	-200,000	-0,002	-0,025
-376,102	-94,549	0,129	-0,025
-375,088	-73,495	-0,115	-0,030
-374,073	-11,743	-0,053	0,025
-373,058	-5,869	0,058	0,029
-372,044	-200,000	0,032	-0,129
-371,029	54,815	0,061	0,043
-370,015	709,096	0,057	0,110
-369,000	796,147	-0,028	-0,056
-367,985	56,289	-0,148	-0,105
-366,971	-32,001	0,134	-0,055
-365,956	-200,000	0,002	0,079
-364,942	296,400	-0,089	-0,119
-363,927	228,607	0,086	-0,102
-362,912	-200,000	0,021	0,089
-361,898	-200,000	0,000	-0,008
-360,883	-9,206	-0,056	0,027
-359,869	800,000	-0,053	-0,143
-358,854	800,000	0,031	-0,093
-357,839	-54,614	-0,045	0,015
-356,825	-58,763	0,097	0,030
-355,810	-9,531	-0,059	-0,028
-354,796	-200,000	0,006	-0,069
-353,781	450,371	0,095	-0,153
-352,766	800,000	0,017	0,043
-351,752	172,357	-0,025	-0,026
-350,737	-200,000	0,001	-0,034
-349,723	223,131	0,109	0,128
-348,708	800,000	0,034	0,091
-347,693	-7,813	-0,142	-0,069
-346,679	132,185	-0,092	-0,086
-345,664	-17,074	-0,079	-0,036
-344,650	-56,165	-0,090	0,029
-343,635	243,927	-0,013	0,016
-342,620	-200,000	-0,010	0,142
-341,606	-111,108	0,045	-0,007
-340,591	50,319	0,074	0,051
-339,577	511,545	0,058	-0,099
-338,562	289,952	-0,062	0,082
-337,548	-6,642	0,098	0,048
-336,533	-200,000	0,010	0,110
-335,518	-110,455	0,137	0,020
-334,504	104,961	-0,074	0,063
-333,489	133,922	-0,115	-0,108
-332,475	800,000	-0,045	-0,127
-331,460	33,432	-0,157	-0,099
-330,445	240,749	0,033	-0,040
-329,431	-64,230	0,072	0,021
-328,416	41,659	-0,055	0,036
-327,402	113,265	0,053	0,047
-326,387	-34,377	0,151	0,060
-325,372	-122,836	0,107	-0,012
-324,358	16,784	-0,110	-0,063
-323,343	180,014	0,053	-0,056
-322,329	-47,630	0,139	0,049
-321,314	93,532	0,199	0,163
-320,299	-200,000	0,005	0,054
-319,285	-139,083	-0,127	0,010
-318,270	-27,388	0,054	0,023
-317,256	-200,000	-0,020	0,071
-316,241	326,649	0,080	0,112
-315,226	158,669	-0,057	-0,057
-314,212	-104,085	0,074	-0,012
-313,197	-99,436	0,090	-0,016
-312,183	-23,237	-0,088	0,038
-311,168	-58,985	-0,043	0,013
-310,153	35,996	-0,102	-0,065
-309,139	800,000	0,064	-0,150
-308,124	800,000	0,037	0,097
-307,110	-123,164	0,126	0,014
-306,095	101,659	-0,038	0,032
-305,080	-70,390	-0,141	-0,039
-304,066	-200,000	0,032	-0,144
-303,051	51,675	0,045	0,031
-302,037	120,256	-0,046	-0,042
-301,022	28,044	0,146	0,089
-300,008	61,707	0,109	0,079
-298,993	64,140	0,149	0,109
-297,978	229,613	-0,028	-0,033
-296,964	-200,000	-0,012	-0,125
-295,949	15,319	-0,003	-0,002
-294,935	-23,942	-0,182	0,079
-293,920	-70,646	-0,088	-0,024
-292,905	22,709	0,014	0,008
-291,891	772,245	-0,038	0,076
-290,876	-77,576	0,110	0,027
-289,862	-200,000	-0,001	-0,042
-288,847	800,000	0,013	0,039
-287,832	-68,447	-0,139	-0,039
-286,818	800,000	-0,005	-0,016
-285,803	-110,462	0,111	0,017
-284,789	-200,000	-0,008	0,111
-283,774	232,191	-0,046	0,055
-282,759	-88,181	-0,049	0,010
-281,745	146,135	0,044	0,043
-280,730	-42,590	0,042	0,015
-279,716	-152,721	-0,039	-0,002
-278,701	468,383	-0,041	0,067
-277,686	-92,216	-0,021	-0,004
-276,672	800,000	-0,067	-0,151
-275,657	-69,510	-0,085	-0,023
-274,643	800,000	-0,016	-0,046
-273,628	55,185	-0,140	-0,098
-272,613	9,580	-0,086	0,047
-271,599	-200,000	-0,015	0,063
-270,584	-200,000	-0,006	-0,044
-269,570	417,000	0,099	0,153
-268,555	-200,000	0,005	0,042
-267,540	222,624	0,062	-0,073
-266,526	-29,881	-0,059	0,024
-265,511	38,290	-0,052	-0,033
-264,497	800,000	0,005	0,013
-263,482	800,000	0,054	0,161
-262,467	339,632	0,062	0,088
-261,453	-200,000	0,015	0,092
-260,438	-0,648	0,032	-0,017
-259,424	335,918	-0,035	0,049
-258,409	800,000	0,019	-0,046
-257,395	-76,442	-0,089	-0,022
-256,380	324,991	-0,113	0,157
-255,365	396,291	-0,083	0,127
-254,351	-200,000	-0,010	-0,091
-253,336	-200,000	-0,004	-0,030
-252,322	706,295	0,032	0,061
-251,307	800,000	-0,020	-0,057
-250,292	-200,000	-0,018	0,151
-249,278	134,795	0,028	0,027
-248,263	800,000	-0,021	0,063
-247,249	555,003	-0,043	-0,075
-246,234	370,696	-0,053	-0,078
-245,219	142,050	0,160	-0,154
-244,205	181,822	-0,174	-0,186
-243,190	47,865	0,063	-0,043
-242,176	-101,272	0,090	0,016
-241,161	52,000	0,047	0,032
-240,146	224,644	0,014	-0,016
-239,132	-30,516	-0,098	0,040
-238,117	-141,990	-0,042	0,003
-237,103	534,994	-0,064	0,111
-236,088	800,000	0,022	0,059
-235,073	-200,000	0,002	-0,024
-234,059	800,000	-0,036	0,098
-233,044	289,953	0,019	-0,025
-232,030	-91,834	0,116	-0,024
-231,015	-200,000	0,002	-0,043
-230,000	-200,000	-0,022	-0,108
-228,986	-200,000	-0,010	-0,151
-227,971	-4,851	0,107	0,053
-226,957	-200,000	0,013	-0,125
-225,942	-140,705	0,184	0,014
-224,927	-200,000	-0,031	-0,167
-223,913	206,473	-0,058	0,065
-222,898	-200,000	-0,009	0,089
-221,884	53,075	0,062	0,043
-220,869	-7,683	0,070	-0,034
-219,855	-168,148	0,117	0,003
-218,840	53,381	0,033	0,023
-217,825	200,191	0,073	0,081
-216,811	-200,000	0,000	0,086
-215,796	647,016	-0,034	-0,063
-214,782	-200,000	0,005	0,094
-213,767	-162,372	0,070	0,002
-212,752	-200,000	0,021	0,094
-211,738	800,000	-0,026	0,060
-210,723	44,946	-0,110	-0,073
-209,709	239,103	-0,126	-0,151
-208,694	33,976	0,022	0,014
-207,679	792,612	-0,026	-0,053
-206,665	-61,179	-0,067	-0,020
-205,650	-43,679	0,057	-0,021
-204,636	-52,410	-0,086	-0,029
-203,621	273,980	0,069	-0,088
-202,606	-48,667	0,154	0,053
-201,592	696,650	-0,075	-0,142
-200,577	403,513	-0,012	0,019
-199,563	-200,000	0,005	0,031
-198,548	-101,993	-0,061	0,011
-197,533	64,171	0,080	0,058
-196,519	-109,458	-0,040	0,006
-195,504	197,780	0,024	-0,026
-194,490	168,729	0,019	-0,020
-193,475	621,038	0,017	-0,031
-192,460	461,717	0,067	-0,108
-191,446	248,840	0,104	-0,128
-190,431	26,504	0,027	0,017
-189,417	-92,739	0,078	0,016
-188,402	104,829	-0,087	-0,074
-187,387	643,746	-0,004	-0,008
-186,373	257,617	-0,063	0,079
-185,358	800,000	-0,032	0,070
-184,344	-14,786	0,112	0,052
-183,329	800,000	-0,022	0,050
-182,315	6,151	-0,065	0,035
-181,300	-107,117	-0,151	-0,024
-180,285	125,172	-0,052	0,047
-179,271	-200,000	-0,017	-0,139
-178,256	366,551	0,029	0,043
-177,242	-63,958	0,129	-0,038
-176,227	459,402	0,062	0,101
-175,212	800,000	-0,035	-0,095
-174,198	-200,000	-0,007	0,127
-173,183	269,787	-0,012	-0,016
-172,169	98,553	-0,039	-0,033
-171,154	-200,000	0,001	-0,030
-170,139	245,839	0,131	0,160
-169,125	-46,981	-0,097	-0,034
-168,110	-200,000	-0,007	-0,117
-167,096	-13,594	0,121	0,056
-166,081	169,805	-0,073	-0,075
-165,066	155,622	-0,141	-0,140
-164,052	475,061	0,098	-0,161
-163,037	618,651	-0,019	-0,035
-162,023	690,579	-0,039	-0,074
-161,008	672,851	0,022	0,041
-159,993	17,675	-0,107	-0,061
-158,979	-54,049	-0,110	-0,036
-157,964	723,791	-0,045	0,087
-156,950	178,450	0,102	-0,108
-155,935	-200,000	0,011	0,090
-154,920	800,000	0,089	0,205
-153,906	-200,000	-0,017	0,076
-152,891	183,513	0,087	0,093
-151,877	-200,000	0,004	0,058
-150,862	88,557	-0,170	0,136
-149,847	-200,000	-0,055	0,176
-148,833	88,145	-0,019	-0,015
-147,818	18,462	0,110	0,063
-146,804	152,582	0,013	-0,013
-145,789	800,000	-0,033	-0,073
-144,775	45,505	-0,069	0,046
-143,760	-200,000	0,023	0,077
-142,745	157,935	-0,006	-0,006
-141,731	-200,000	0,006	0,074
-140,716	37,962	0,085	0,054
-139,702	528,539	0,035	0,060
-138,687	27,013	-0,065	-0,039
-137,672	58,585	0,095	0,067
-136,658	76,427	-0,048	-0,036
-135,643	210,672	0,089	-0,101
-134,629	55,228	-0,056	-0,039
-133,614	281,491	-0,049	0,064
-132,599	-79,141	0,213	-0,052
-131,585	-142,618	0,036	0,002
-130,570	127,048	-0,042	0,039
-129,556	-92,059	0,126	0,026
-128,541	539,784	-0,052	0,090
-127,526	800,000	0,002	0,007
-126,512	89,231	-0,045	-0,037
-125,497	-200,000	0,010	0,111
-124,483	381,792	0,124	0,185
-123,468	-200,000	0,037	0,127
-122,453	-200,000	0,000	-0,169
-121,439	51,027	-0,069	0,047
-120,424	593,642	0,089	-0,159
-119,410	-192,923	-0,104	-0,001
-118,395	-25,780	-0,057	-0,024
-117,380	800,000	0,064	-0,138
-116,366	-200,000	-0,016	-0,057
-115,351	-200,000	0,038	0,125
-114,337	-85,135	-0,075	-0,017
-113,322	-200,000	-0,015	0,070
-112,307	332,356	-0,032	0,045
-111,293	-81,850	0,115	0,027
-110,278	-49,581	0,044	0,015
-109,264	-9,518	-0,150	-0,072
-108,249	-200,000	-0,006	0,057
-107,234	-24,698	0,093	-0,040
-106,220	-200,000	0,002	-0,048
-105,205	-200,000	0,011	0,099
-104,191	601,258	0,093	-0,166
-103,176	190,000	-0,071	-0,077
-102,162	-159,499	-0,077	-0,003
-101,147	800,000	0,039	0,107
-100,132	769,265	0,020	-0,040
-99,118	-200,000	0,011	-0,098
-98,103	79,920	-0,029	-0,022
-97,089	183,527	-0,102	0,109
-96,074	-134,145	-0,079	-0,007
-95,059	18,399	0,037	-0,021
-94,045	-85,495	-0,139	0,031
-93,030	-72,348	0,019	0,005
-92,016	-200,000	0,042	-0,137
-91,001	84,021	0,088	-0,069
-89,986	200,672	0,061	0,067
-88,972	200,890	0,063	0,070
-87,957	-5,475	-0,148	0,073
-86,943	24,656	-0,017	0,010
-85,928	368,962	-0,054	-0,079
-84,913	733,521	0,017	0,032
-83,899	-174,306	0,102	-0,002
-82,884	-175,800	0,144	-0,003
-81,870	-132,301	-0,179	-0,016
-80,855	-170,510	0,058	-0,001
-79,840	647,231	0,027	0,050
-78,826	-200,000	0,001	-0,054
-77,811	-200,000	-0,034	-0,194
-76,797	135,237	0,067	0,062
-75,782	54,814	-0,081	-0,056
-74,767	-200,000	0,031	0,201
-73,753	-200,000	-0,000	-0,005
-72,738	157,171	0,041	0,041
-71,724	50,204	0,042	-0,028
-70,709	763,446	-0,070	-0,137
-69,694	800,000	0,026	-0,055
-68,680	209,675	0,089	0,101
-67,665	94,633	0,150	0,122
-66,651	800,000	-0,048	0,149
-65,636	-200,000	0,012	-0,167
-64,622	-200,000	0,007	-0,104
-63,607	-159,523	0,143	0,006
-62,592	-109,980	0,041	-0,006
-61,578	428,719	-0,063	-0,098
-60,563	-66,332	-0,035	-0,010
-59,549	116,863	0,095	0,084
-58,534	12,629	-1,874	-1,037
-57,519	800,000	-0,434	-1,103
-56,505	-200,000	-1,208	-4,933
-55,490	-51,066	0,650	0,218
-54,476	800,000	5,437	12,286
-53,461	-200,000	17,052	272,688
-52,446	800,000	717,004	2184,291
-51,432	530,776	1630,427	2781,837
-50,417	113,090	1625,478	1416,989
-49,403	76,659	1286,430	980,162
-48,388	33,568	1032,904	643,998
-47,373	20,328	995,025	576,441
-46,359	19,145	983,193	565,656
-45,344	16,870	979,402	555,954
-44,330	17,069	977,739	555,643
-43,315	16,663	976,095	553,352
-42,300	16,701	975,014	552,842
-41,286	16,586	974,241	552,003
-40,271	16,683	973,026	551,611
-39,257	16,685	972,257	551,161
-38,242	16,658	971,357	550,539
-37,227	16,687	970,603	550,186
-36,213	16,694	969,768	549,712
-35,198	16,621	968,980	549,005
-34,184	16,624	968,306	548,611
-33,169	16,590	967,249	547,881
-32,154	16,701	966,233	547,645
-31,140	16,651	965,457	547,021
-30,125	16,678	964,557	546,577
-29,111	16,653	963,721	546,002
-28,096	16,687	963,236	545,816
-27,082	16,675	962,462	545,314
-26,067	16,590	961,729	544,602
-25,052	16,641	960,754	544,193
-24,038	16,625	960,201	543,808
-23,023	16,560	959,684	543,282
-22,009	16,636	958,855	543,037
-20,994	16,637	958,378	542,750
-19,979	16,718	957,503	542,494
-18,965	16,649	956,886	541,898
-17,950	16,642	956,417	541,591
-16,936	16,559	955,665	540,875
-15,921	16,615	954,840	540,568
-14,906	16,543	954,273	539,993
-13,892	16,548	953,615	539,616
-12,877	16,521	952,902	539,103
-11,863	16,499	952,317	538,682
-10,848	16,520	951,854	538,467
-9,833	16,575	951,348	538,334
-8,819	16,612	950,466	537,932
-7,804	16,514	950,002	537,335
-6,790	16,478	949,384	536,848
-5,775	16,587	948,725	536,804
-4,760	16,522	948,139	536,241
-3,746	16,545	947,539	535,955
-2,731	16,395	946,798	535,038
-1,717	16,384	946,146	534,613
-0,702	16,357	945,682	534,242
0,313	16,143	945,049	534,010
1,327	19,401	943,051	543,174
2,342	28,636	797,656	484,014
3,356	25,702	448,992	268,033
4,371	-3,355	296,297	147,744
5,386	-7,385	277,837	134,694
6,400	-8,631	272,176	130,776
7,415	-8,884	269,897	129,435
8,429	-8,899	268,433	128,708
9,444	-8,969	267,404	128,138
10,459	-9,207	266,870	127,654
11,473	-9,413	266,275	127,170
12,488	-9,572	265,693	126,736
13,502	-9,531	265,195	126,524
14,517	-9,710	264,739	126,133
15,531	-9,928	264,277	125,704
16,546	-9,676	263,866	125,725
17,561	-10,016	263,577	125,269
18,575	-9,790	263,159	125,263
19,590	-9,872	262,739	124,978
20,604	-9,808	262,421	124,873
21,619	-9,911	262,257	124,692
22,634	-9,941	261,932	124,499
23,648	-10,000	261,475	124,218
24,663	-10,063	261,422	124,125
25,677	-9,877	260,782	123,976
26,692	-9,984	260,730	123,845
27,707	-9,886	260,498	123,811
28,721	-9,953	260,308	123,650
29,736	-9,929	259,816	123,426
30,750	-9,993	259,544	123,230
31,765	-9,883	259,403	123,250
32,780	-9,975	259,225	123,072
33,794	-10,001	258,949	122,908
34,809	-9,909	258,605	122,815
35,823	-10,192	258,546	122,525
36,838	-10,052	258,189	122,469
37,853	-10,088	258,029	122,350
38,867	-9,924	257,607	122,284
39,882	-10,139	257,545	122,053
40,896	-10,221	257,303	121,856
41,911	-10,126	256,973	121,773
42,926	-10,177	256,759	121,616
43,940	-10,232	256,657	121,508
44,955	-10,282	256,518	121,388
45,969	-10,239	255,996	121,167
46,984	-10,454	255,671	120,814
47,999	-10,689	255,552	120,543
49,013	-10,946	255,299	120,189
50,028	-11,007	255,002	119,985
51,042	-10,975	254,742	119,879
52,057	-11,008	254,563	119,756
53,071	-10,774	254,317	119,833
54,086	-10,907	254,306	119,701
55,101	-10,672	253,928	119,717
56,115	-10,572	253,909	119,784
57,130	-9,919	253,796	120,285
58,144	-9,481	253,633	120,577
59,159	-9,578	253,477	120,408
60,174	-9,781	253,410	120,189
61,188	-9,785	253,068	120,013
62,203	-9,895	252,856	119,807
63,217	-9,765	252,689	119,830
64,232	-9,862	252,402	119,599
65,247	-9,931	252,343	119,501
66,261	-9,709	251,950	119,495
67,276	-10,139	251,548	118,925
68,290	-10,365	251,220	118,566
69,305	-10,757	251,277	118,246
70,320	-10,491	250,909	118,290
71,334	-10,036	250,934	118,680
72,349	-9,804	250,844	118,826
73,363	-9,574	250,694	118,941
74,378	-9,647	250,383	118,720
75,393	-9,969	250,092	118,297
76,407	-9,941	249,965	118,251
77,422	-9,898	249,705	118,154
78,436	-9,729	249,493	118,186
79,451	-9,955	249,343	117,912
80,466	-10,072	249,110	117,693
81,480	-10,185	248,772	117,427
82,495	-10,159	248,486	117,304
83,509	-10,269	248,408	117,163
84,524	-10,265	248,225	117,070
85,539	-10,477	247,991	116,770
86,553	-10,415	247,635	116,644
87,568	-10,162	247,541	116,802
88,582	-10,454	247,392	116,476
89,597	-10,206	247,133	116,553
90,611	-9,974	247,066	116,705
91,626	-9,888	246,965	116,720
92,641	-10,053	246,686	116,439
93,655	-9,973	246,466	116,392
94,670	-10,267	246,367	116,087
95,684	-10,261	246,168	115,989
96,699	-9,951	246,001	116,159
97,714	-10,138	245,824	115,909
98,728	-10,228	245,409	115,628
99,743	-10,317	245,231	115,459
100,757	-10,402	245,037	115,287
101,772	-10,396	244,937	115,234
102,787	-10,348	244,842	115,220
103,801	-10,256	244,596	115,170
104,816	-10,170	244,548	115,209
105,830	-9,995	244,324	115,239
106,845	-10,013	244,180	115,145
107,860	-9,920	243,850	115,056
108,874	-10,194	243,725	114,760
109,889	-10,066	243,442	114,722
110,903	-10,127	243,326	114,608
111,918	-10,252	243,225	114,446
112,933	-10,013	242,947	114,503
113,947	-9,830	242,831	114,588
114,962	-10,036	242,806	114,397
115,976	-10,198	242,483	114,101
116,991	-10,104	242,269	114,067
118,006	-10,040	242,273	114,111
119,020	-10,081	242,026	113,952
120,035	-10,009	241,944	113,962
121,049	-9,945	241,770	113,922
122,064	-9,944	241,638	113,850
123,079	-9,999	241,273	113,623
124,093	-10,124	241,123	113,440
125,108	-10,219	240,789	113,195
126,122	-10,705	240,571	112,686
127,137	-10,661	240,393	112,628
128,151	-10,427	240,246	112,740
129,166	-10,330	240,051	112,718
130,181	-10,272	239,775	112,626
131,195	-10,421	239,672	112,446
132,210	-10,301	239,602	112,500
133,224	-9,989	239,564	112,726
134,239	-9,991	239,331	112,605
135,254	-10,031	239,223	112,512
136,268	-10,243	238,921	112,188
137,283	-10,315	238,754	112,041
138,297	-10,484	238,314	111,688
139,312	-10,508	238,243	111,625
140,327	-10,231	238,244	111,839
141,341	-9,622	238,219	112,310
142,356	-9,734	238,204	112,202
143,370	-9,636	237,838	112,099
144,385	-9,600	237,641	112,025
145,400	-9,666	237,581	111,933
146,414	-9,631	237,328	111,833
147,429	-9,765	237,220	111,664
148,443	-9,494	237,033	111,784
149,458	-9,634	236,873	111,586
150,473	-9,749	236,767	111,434
151,487	-9,535	236,498	111,468
152,502	-9,673	236,261	111,236
153,516	-9,658	236,158	111,190
154,531	-9,739	235,903	110,995
155,546	-9,634	235,639	110,945
156,560	-9,691	235,600	110,871
157,575	-10,060	235,501	110,520
158,589	-9,764	235,161	110,587
159,604	-9,513	235,224	110,806
160,619	-9,472	234,992	110,719
161,633	-9,382	234,772	110,678
162,648	-9,397	234,690	110,617
163,662	-9,558	234,423	110,354
164,677	-9,633	234,390	110,269
165,692	-9,522	234,228	110,271
166,706	-9,378	234,020	110,276
167,721	-9,372	233,891	110,211
168,735	-9,333	233,897	110,235
169,750	-9,474	233,599	109,973
170,764	-9,425	233,507	109,959
171,779	-9,447	233,465	109,912
172,794	-9,569	233,274	109,716
173,808	-9,550	232,926	109,557
174,823	-10,138	232,591	108,928
175,837	-10,604	232,518	108,518
176,852	-9,752	232,414	109,129
177,867	-9,418	232,395	109,372
178,881	-9,645	232,364	109,170
179,896	-9,481	232,118	109,173
180,910	-9,481	231,869	109,046
181,925	-9,364	231,649	109,025
182,940	-9,493	231,681	108,929
183,954	-9,102	231,349	109,068
184,969	-9,573	231,484	108,755
185,983	-9,299	231,188	108,820
186,998	-9,089	231,038	108,903
188,013	-9,320	230,897	108,647
189,027	-9,302	230,725	108,570
190,042	-9,364	230,584	108,446
191,056	-9,238	230,391	108,444
192,071	-9,271	230,299	108,365
193,086	-9,359	230,193	108,237
194,100	-8,984	229,978	108,418
195,115	-8,814	229,858	108,483
196,129	-8,069	229,974	109,105
197,144	-3,796	231,422	113,111
198,159	0,305	232,574	116,868
199,173	3,239	233,360	119,547
200,188	3,492	233,442	119,776
201,202	3,495	233,302	119,696
202,217	3,712	233,094	119,748
203,232	3,897	232,968	119,816
204,246	4,056	232,881	119,884
205,261	4,087	232,756	119,834
206,275	4,152	232,568	119,777
207,290	4,158	232,387	119,677
208,304	4,418	232,230	119,788
209,319	4,220	232,198	119,607
210,334	4,198	231,772	119,360
211,348	3,971	231,734	119,154
212,363	3,380	231,472	118,552
213,377	3,238	231,303	118,344
214,392	3,297	231,111	118,281
215,407	3,420	231,047	118,333
216,421	3,453	230,830	118,237
217,436	3,357	230,675	118,072
218,450	3,319	230,295	117,838
219,465	3,024	230,232	117,569
220,480	3,038	230,166	117,535
221,494	3,282	229,955	117,604
222,509	3,384	229,924	117,656
223,523	3,323	229,825	117,548
224,538	3,230	229,461	117,280
225,553	3,275	229,357	117,251
226,567	3,431	229,348	117,356
227,582	3,776	229,256	117,562
228,596	3,707	229,113	117,426
229,611	3,460	228,822	117,077
230,626	3,103	228,648	116,705
231,640	3,325	228,462	116,770
232,655	3,563	228,404	116,911
233,669	4,002	228,450	117,259
234,684	4,031	228,284	117,185
235,699	3,740	228,042	116,829
236,713	3,615	227,842	116,621
237,728	3,467	227,623	116,386
238,742	3,221	227,514	116,133
239,757	3,467	227,299	116,200
240,772	3,303	227,149	115,988
241,786	3,309	226,945	115,879
242,801	3,393	226,893	115,905
243,815	3,825	226,854	116,202
244,830	3,946	226,668	116,187
245,844	3,407	226,373	115,619
246,859	3,463	226,228	115,577
247,874	3,596	226,288	115,698
248,888	3,750	226,037	115,675
249,903	3,319	225,992	115,317
250,917	3,413	225,779	115,269
251,932	3,451	225,683	115,239
252,947	3,128	225,412	114,847
253,961	3,347	225,176	114,881
254,976	3,166	225,118	114,705
255,990	3,436	225,048	114,862
257,005	3,562	224,897	114,869
258,020	3,569	224,807	114,818
259,034	3,750	224,703	114,890
260,049	3,727	224,536	114,777
261,063	3,546	224,399	114,561
262,078	3,788	224,134	114,596
263,093	3,758	224,144	114,569
264,107	3,660	224,010	114,417
265,122	3,580	223,712	114,195
266,136	3,688	223,857	114,339
267,151	3,773	223,570	114,246
268,166	3,497	223,334	113,910
269,180	3,045	222,997	113,393
270,195	3,332	222,895	113,544
271,209	3,111	222,720	113,280
272,224	3,274	222,672	113,367
273,239	3,520	222,600	113,502
274,253	3,387	222,203	113,191
275,268	3,420	222,116	113,161
276,282	3,078	222,108	112,894
277,297	3,172	221,916	112,856
278,312	3,128	221,868	112,789
279,326	3,117	221,767	112,720
280,341	3,440	221,551	112,838
281,355	3,376	221,423	112,715
282,370	3,224	221,358	112,560
283,384	3,067	221,069	112,288
284,399	3,147	220,933	112,268
285,414	3,090	220,749	112,122
286,428	3,385	220,754	112,331
287,443	3,500	220,614	112,334
288,457	3,404	220,660	112,277
289,472	3,275	220,236	111,957
290,487	2,854	220,042	111,541
291,501	2,557	219,815	111,200
292,516	2,886	219,762	111,402
293,530	3,156	219,627	111,521
294,545	3,009	219,430	111,304
295,560	3,174	219,481	111,440
296,574	3,362	219,271	111,460
297,589	3,218	219,321	111,371
298,603	3,523	218,973	111,406
299,618	3,417	218,903	111,283
300,633	3,656	218,747	111,368
301,647	3,493	218,827	111,280
302,662	3,727	218,667	111,359
303,676	3,545	218,427	111,094
304,691	3,615	218,288	111,065
305,706	3,627	218,137	110,987
306,720	3,635	217,948	110,886
307,735	3,405	217,778	110,624
308,749	3,317	217,698	110,510
309,764	3,473	217,520	110,522
310,779	3,708	217,379	110,610
311,793	3,540	217,318	110,448
312,808	3,452	217,168	110,299
313,822	3,367	216,998	110,141
314,837	3,405	216,802	110,059
315,852	3,298	216,597	109,868
316,866	3,380	216,457	109,847
317,881	3,436	216,569	109,934
318,895	3,448	216,215	109,753
319,910	2,921	216,044	109,279
320,925	3,273	215,958	109,478
321,939	3,306	215,702	109,362
322,954	3,178	215,728	109,274
323,968	3,510	215,546	109,409
324,983	3,400	215,643	109,370
325,997	3,681	215,310	109,391
327,012	3,628	215,108	109,241
328,027	3,564	215,026	109,145
329,041	3,624	215,107	109,219
330,056	3,696	214,901	109,155
331,070	3,340	214,638	108,759
332,085	3,042	214,519	108,477
333,100	3,491	214,205	108,628
334,114	3,531	214,144	108,615
335,129	3,745	214,051	108,710
336,143	3,229	213,971	108,294
337,158	3,601	213,733	108,427
338,173	3,528	213,585	108,291
339,187	3,171	213,433	107,952
340,202	3,085	213,361	107,845
341,216	3,040	213,091	107,668
342,231	3,424	213,060	107,913
343,246	3,321	212,877	107,738
344,260	3,167	212,815	107,589
345,275	3,207	212,686	107,542
346,289	3,328	212,716	107,633
347,304	3,658	212,557	107,775
348,319	3,395	212,235	107,417
349,333	3,469	212,129	107,406
350,348	3,281	212,125	107,262
351,362	3,543	212,105	107,426
352,377	3,680	211,770	107,343
353,392	3,488	211,714	107,171
354,406	3,468	211,608	107,093
355,421	195,349	1342,471	1422,622
356,435	156,034	1480,240	1422,618
