DTS Sentinel unit serial number:	SN410029Multiplexer serial number:	ORYXHardware model number:	OX2-SRSoftware version number:	ORYX F/W v4,00 Oryx Data Collector v3.7.2.0data status	okinstallation	B6 Nyhavnadifferential loss correction	single-endedforward channel	channel 2reverse channel	N/Adate	2023/12/11time	03:50:08forward acquisition time	300,00reverse acquisition time	0,00gamma	499,1914k internal	0,3125k external	0,3125temperature offset calibration	1,0000default loss term (dB/km)	0,3820temperature slope calibration	1,0000multiplexer offset coefficient	1,0000multiplexer slope coefficient	1,0000fibre end	0,00T internal ref (°C)	20,94T ext. ref 1 (°C)	3,68T ext. ref 2 (°C)	3,70length (m)	temperature (°C)	Stokes	anti-Stokes-744,400	130,071	-0,075	-0,071
-743,385	-83,895	-0,259	0,061
-742,371	-47,875	0,142	-0,051
-741,356	62,823	-0,196	0,146
-740,342	78,290	0,080	0,064
-739,327	102,332	-0,115	0,100
-738,312	433,660	-0,017	0,028
-737,298	-39,236	-0,225	-0,087
-736,283	399,743	0,030	-0,046
-735,269	-46,895	-0,369	0,134
-734,254	-200,000	-0,003	-0,016
-733,239	24,650	-0,318	-0,195
-732,225	150,555	0,045	-0,046
-731,210	119,516	0,004	0,004
-730,196	800,000	0,020	-0,052
-729,181	-14,382	-0,113	-0,054
-728,167	800,000	-0,090	-0,186
-727,152	501,026	-0,068	0,118
-726,137	-78,484	0,026	0,007
-725,123	17,357	-0,147	-0,087
-724,108	433,826	-0,066	-0,107
-723,094	-28,564	-0,185	-0,079
-722,079	-193,076	-0,151	-0,001
-721,064	127,788	0,064	0,061
-720,050	72,754	0,063	-0,049
-719,035	800,000	-0,015	0,036
-718,021	-22,496	0,033	0,015
-717,006	156,368	-0,124	-0,128
-715,991	37,796	-0,142	-0,094
-714,977	119,038	0,042	-0,039
-713,962	414,764	-0,076	0,121
-712,948	-0,837	-0,127	0,067
-711,933	18,038	-0,062	-0,037
-710,918	490,098	-0,024	-0,041
-709,904	-63,013	-0,092	0,028
-708,889	800,000	-0,026	0,065
-707,875	-174,310	-0,087	-0,002
-706,860	-64,461	-0,062	0,018
-705,845	-5,905	-0,059	0,030
-704,831	800,000	0,039	0,117
-703,816	111,214	0,084	0,075
-702,802	800,000	0,007	0,019
-701,787	-200,000	-0,021	0,160
-700,772	699,546	0,030	-0,059
-699,758	-200,000	0,032	-0,194
-698,743	-200,000	0,009	0,090
-697,729	-200,000	-0,043	-0,164
-696,714	-200,000	-0,028	-0,138
-695,699	-35,612	-0,106	-0,043
-694,685	367,567	-0,071	-0,107
-693,670	325,253	0,067	-0,096
-692,656	203,751	0,049	-0,056
-691,641	-76,698	0,132	-0,034
-690,627	-172,314	0,159	0,004
-689,612	-200,000	-0,020	0,070
-688,597	-77,356	-0,087	-0,022
-687,583	-172,562	-0,108	-0,002
-686,568	-200,000	0,016	-0,083
-685,554	50,056	0,001	0,001
-684,539	-200,000	0,016	0,148
-683,524	-200,000	0,021	0,106
-682,510	177,436	0,093	0,101
-681,495	-93,679	-0,139	-0,028
-680,481	91,066	-0,056	0,047
-679,466	800,000	-0,036	0,094
-678,451	-185,369	-0,125	-0,001
-677,437	-200,000	0,011	0,088
-676,422	-83,312	0,044	-0,010
-675,408	800,000	-0,039	0,096
-674,393	-200,000	0,015	-0,056
-673,378	-16,382	-0,071	0,033
-672,364	-200,000	-0,018	0,091
-671,349	87,648	0,063	0,052
-670,335	223,989	0,041	-0,049
-669,320	-51,618	0,016	0,006
-668,305	-63,953	0,064	0,019
-667,291	219,355	-0,082	-0,097
-666,276	47,156	-0,133	0,092
-665,262	-144,515	-0,174	-0,012
-664,247	-200,000	-0,033	-0,111
-663,232	-200,000	-0,021	-0,111
-662,218	800,000	0,035	-0,095
-661,203	170,288	-0,027	-0,029
-660,189	-200,000	-0,032	-0,153
-659,174	116,524	-0,035	0,032
-658,159	-200,000	-0,003	0,091
-657,145	-47,049	-0,067	-0,024
-656,130	53,779	0,041	-0,029
-655,116	-200,000	0,003	-0,023
-654,101	800,000	0,073	0,158
-653,086	800,000	-0,072	-0,182
-652,072	-200,000	0,017	-0,063
-651,057	425,679	-0,034	-0,054
-650,043	800,000	-0,067	-0,187
-649,028	93,198	-0,109	-0,092
-648,014	-24,607	0,013	-0,006
-646,999	-200,000	-0,017	0,099
-645,984	-151,010	0,141	-0,008
-644,970	-200,000	0,002	-0,042
-643,955	800,000	0,038	-0,080
-642,941	-200,000	-0,001	-0,074
-641,926	-200,000	0,017	-0,106
-640,911	-200,000	-0,019	0,144
-639,897	-200,000	0,003	0,080
-638,882	-174,639	0,032	-0,001
-637,868	58,836	-0,082	0,060
-636,853	332,097	0,086	-0,124
-635,838	-4,182	0,011	-0,006
-634,824	-114,492	-0,209	-0,029
-633,809	-27,386	-0,037	0,016
-632,795	800,000	0,071	0,209
-631,780	-50,165	0,197	0,069
-630,765	126,220	-0,040	-0,038
-629,751	800,000	0,080	-0,189
-628,736	800,000	0,042	-0,126
-627,722	63,501	-0,044	0,032
-626,707	800,000	0,006	-0,016
-625,692	-200,000	0,014	0,089
-624,678	38,036	-0,052	-0,034
-623,663	-200,000	0,000	0,146
-622,649	309,501	-0,034	-0,048
-621,634	-200,000	0,043	-0,255
-620,619	-0,794	0,028	-0,014
-619,605	30,399	0,057	0,036
-618,590	-13,931	0,071	-0,034
-617,576	82,641	0,119	0,096
-616,561	800,000	0,028	0,060
-615,546	-74,086	-0,035	-0,009
-614,532	195,053	-0,035	-0,039
-613,517	34,083	0,065	0,042
-612,503	-71,867	-0,057	0,016
-611,488	-94,004	-0,044	-0,009
-610,474	-18,047	-0,079	-0,037
-609,459	-200,000	-0,012	-0,069
-608,444	254,538	-0,017	0,021
-607,430	56,360	-0,088	-0,063
-606,415	-88,145	-0,048	-0,011
-605,401	-52,766	0,070	0,024
-604,386	-128,537	0,097	0,010
-603,371	-18,970	-0,101	0,046
-602,357	-132,503	0,070	-0,007
-601,342	800,000	-0,053	-0,143
-600,328	745,827	-0,025	-0,050
-599,313	-200,000	-0,015	-0,104
-598,298	-21,296	-0,244	-0,110
-597,284	741,369	0,055	0,111
-596,269	-200,000	-0,009	0,070
-595,255	800,000	-0,005	-0,017
-594,240	800,000	-0,017	-0,043
-593,225	-200,000	-0,001	-0,023
-592,211	800,000	-0,027	-0,062
-591,196	-159,622	-0,010	-0,000
-590,182	-48,770	-0,147	-0,052
-589,167	-200,000	0,006	0,023
-588,152	-200,000	-0,015	0,119
-587,138	-200,000	-0,009	-0,110
-586,123	800,000	-0,027	0,071
-585,109	32,465	-0,090	0,058
-584,094	53,181	0,086	0,061
-583,079	-6,945	-0,089	-0,044
-582,065	-153,971	0,070	0,003
-581,050	149,802	-0,062	0,062
-580,036	66,461	0,087	0,066
-579,021	800,000	0,027	0,064
-578,006	-37,759	-0,102	-0,040
-576,992	-200,000	-0,009	-0,054
-575,977	800,000	0,064	0,166
-574,963	158,254	-0,140	0,144
-573,948	-200,000	0,026	0,178
-572,934	-51,033	-0,068	0,024
-571,919	-200,000	0,005	-0,077
-570,904	320,297	-0,107	-0,151
-569,890	252,439	0,087	-0,110
-568,875	575,763	-0,007	0,012
-567,861	-6,241	0,034	-0,017
-566,846	265,786	-0,032	-0,042
-565,831	-200,000	-0,009	-0,048
-564,817	153,704	-0,046	-0,046
-563,802	58,482	0,096	-0,069
-562,788	-200,000	-0,015	-0,149
-561,773	359,045	-0,032	0,047
-560,758	-68,042	0,122	-0,035
-559,744	-16,922	-0,047	-0,022
-558,729	-200,000	-0,014	0,063
-557,715	-4,448	0,046	0,023
-556,700	67,338	0,029	0,022
-555,685	50,114	0,112	-0,078
-554,671	-200,000	0,015	-0,141
-553,656	-0,082	-0,094	0,049
-552,642	800,000	-0,033	0,091
-551,627	800,000	0,034	0,083
-550,612	-200,000	-0,004	0,026
-549,598	303,328	-0,040	-0,054
-548,583	800,000	-0,033	-0,095
-547,569	177,864	0,049	0,053
-546,554	88,048	0,043	-0,035
-545,539	8,521	0,042	0,024
-544,525	-200,000	0,000	-0,039
-543,510	421,782	0,073	-0,116
-542,496	800,000	-0,028	-0,076
-541,481	-113,261	0,014	0,002
-540,466	-68,594	0,171	0,049
-539,452	-177,096	-0,042	-0,001
-538,437	-51,964	0,058	0,020
-537,423	43,006	0,030	-0,020
-536,408	575,472	0,039	-0,071
-535,393	-27,905	0,151	-0,064
-534,379	-52,487	-0,174	0,059
-533,364	649,418	0,063	0,120
-532,350	-20,197	0,079	0,036
-531,335	800,000	-0,052	0,109
-530,321	5,098	-0,072	0,039
-529,306	-200,000	0,002	-0,013
-528,291	-200,000	0,013	-0,081
-527,277	26,298	0,052	-0,032
-526,262	605,182	0,050	0,093
-525,248	41,159	-0,100	0,067
-524,233	-21,866	0,123	0,055
-523,218	800,000	0,025	0,080
-522,204	-24,715	0,026	0,011
-521,189	86,994	-0,075	0,062
-520,175	113,345	-0,083	-0,074
-519,160	-200,000	0,008	0,048
-518,145	141,642	0,118	-0,115
-517,131	10,761	0,058	-0,032
-516,116	242,375	-0,033	-0,040
-515,102	590,261	0,033	0,061
-514,087	-45,804	-0,098	-0,035
-513,072	43,680	-0,023	-0,016
-512,058	-142,715	-0,013	-0,001
-511,043	142,958	0,030	0,029
-510,029	-80,155	0,074	-0,018
-509,014	690,181	-0,024	-0,047
-507,999	139,991	-0,117	0,114
-506,985	27,574	-0,064	0,040
-505,970	-200,000	0,029	-0,169
-504,956	800,000	0,024	-0,058
-503,941	-39,962	0,089	0,034
-502,926	209,219	-0,032	-0,037
-501,912	-152,598	0,035	-0,002
-500,897	-200,000	-0,005	-0,085
-499,883	-200,000	-0,028	-0,110
-498,868	-123,599	-0,044	0,005
-497,853	-66,001	0,050	0,015
-496,839	-200,000	0,005	0,101
-495,824	-200,000	0,021	0,073
-494,810	800,000	0,006	-0,013
-493,795	-200,000	0,040	0,189
-492,781	421,417	0,089	-0,141
-491,766	62,398	0,044	-0,032
-490,751	19,391	0,036	-0,021
-489,737	800,000	-0,013	0,034
-488,722	421,394	-0,077	0,122
-487,708	80,592	-0,046	0,037
-486,693	-15,091	0,123	0,058
-485,678	-200,000	-0,012	0,136
-484,664	21,285	-0,100	0,060
-483,649	-200,000	-0,021	-0,078
-482,635	800,000	-0,043	-0,115
-481,620	252,187	0,075	0,095
-480,605	140,384	-0,086	0,084
-479,591	-49,181	0,017	0,006
-478,576	800,000	0,023	0,056
-477,562	589,935	-0,027	-0,049
-476,547	800,000	-0,023	-0,071
-475,532	800,000	-0,016	0,049
-474,518	-200,000	0,007	0,044
-473,503	21,458	0,092	0,055
-472,489	-97,390	-0,109	-0,021
-471,474	235,926	0,036	-0,043
-470,459	-200,000	0,006	-0,039
-469,445	800,000	-0,016	-0,044
-468,430	-200,000	0,021	-0,094
-467,416	74,105	-0,046	-0,036
-466,401	50,779	0,109	0,076
-465,386	114,963	-0,043	0,039
-464,372	456,111	0,044	0,073
-463,357	118,603	-0,134	0,122
-462,343	-200,000	-0,015	0,129
-461,328	800,000	0,048	0,149
-460,313	610,596	0,064	-0,119
-459,299	242,958	0,047	0,058
-458,284	-200,000	-0,000	0,215
-457,270	-200,000	0,004	-0,036
-456,255	593,903	-0,033	-0,061
-455,241	800,000	-0,021	-0,060
-454,226	-161,776	-0,053	-0,002
-453,211	214,976	0,040	0,047
-452,197	-185,006	0,029	-0,000
-451,182	-62,310	-0,073	0,022
-450,168	800,000	0,062	-0,167
-449,153	295,883	-0,025	0,034
-448,138	-85,379	-0,072	-0,016
-447,124	-12,225	-0,094	-0,045
-446,109	-200,000	0,008	-0,044
-445,095	74,564	0,083	-0,064
-444,080	-200,000	0,006	0,074
-443,065	-104,995	0,103	-0,017
-442,051	-200,000	-0,012	-0,169
-441,036	225,248	-0,073	-0,087
-440,022	-200,000	-0,008	-0,033
-439,007	-200,000	0,002	0,116
-437,992	14,434	-0,136	0,078
-436,978	-200,000	-0,001	-0,067
-435,963	800,000	0,015	0,032
-434,949	-198,646	-0,058	0,000
-433,934	31,913	-0,176	-0,111
-432,919	107,929	-0,033	0,029
-431,905	48,473	-0,020	0,014
-430,890	-16,473	0,128	0,060
-429,876	-141,969	-0,103	0,007
-428,861	-200,000	-0,007	0,202
-427,846	-81,283	0,068	-0,016
-426,832	161,578	-0,097	0,100
-425,817	553,431	-0,041	-0,074
-424,803	800,000	-0,033	-0,094
-423,788	39,303	0,027	0,018
-422,773	-121,907	-0,049	-0,006
-421,759	339,047	-0,091	-0,131
-420,744	800,000	-0,010	0,026
-419,730	-3,941	-0,083	-0,042
-418,715	92,364	-0,175	-0,145
-417,701	-36,458	0,043	-0,017
-416,686	800,000	-0,022	-0,045
-415,671	-200,000	0,013	0,053
-414,657	-200,000	0,001	0,112
-413,642	800,000	0,033	-0,108
-412,628	800,000	-0,018	-0,054
-411,613	473,398	-0,039	0,065
-410,598	97,747	-0,063	-0,053
-409,584	548,403	0,054	0,095
-408,569	-200,000	0,001	0,075
-407,555	800,000	-0,020	0,058
-406,540	558,721	0,030	0,054
-405,525	-200,000	-0,018	0,109
-404,511	313,737	0,045	-0,063
-403,496	324,546	0,055	-0,078
-402,482	-78,747	0,068	0,017
-401,467	-200,000	0,014	-0,056
-400,452	-200,000	-0,014	0,179
-399,438	-41,880	0,087	0,033
-398,423	522,199	0,026	-0,045
-397,409	143,975	-0,112	0,109
-396,394	-110,457	0,111	0,017
-395,379	-69,042	0,132	-0,037
-394,365	17,591	0,075	0,044
-393,350	800,000	0,037	0,088
-392,336	12,040	0,041	0,023
-391,321	-200,000	0,013	-0,057
-390,306	-200,000	-0,026	0,086
-389,292	800,000	-0,086	-0,185
-388,277	-17,134	0,103	0,047
-387,263	-200,000	-0,005	0,071
-386,248	0,724	0,141	0,074
-385,233	386,997	0,064	0,098
-384,219	170,335	0,012	-0,012
-383,204	-200,000	-0,008	-0,151
-382,190	535,848	-0,007	0,012
-381,175	-20,983	-0,107	-0,048
-380,160	-138,697	0,173	0,014
-379,146	800,000	0,083	0,197
-378,131	-90,571	-0,100	0,021
-377,117	285,247	-0,088	0,116
-376,102	24,421	0,063	-0,038
-375,088	800,000	-0,038	-0,079
-374,073	99,881	0,070	-0,059
-373,058	541,063	-0,088	-0,155
-372,044	83,808	0,116	-0,093
-371,029	-200,000	-0,015	0,072
-370,015	-101,864	-0,126	0,022
-369,000	-80,226	0,078	0,019
-367,985	38,314	-0,065	0,042
-366,971	-30,833	-0,094	0,039
-365,956	107,715	-0,117	0,102
-364,942	190,505	0,033	0,037
-363,927	109,680	0,045	0,040
-362,912	-4,482	-0,088	0,044
-361,898	723,916	-0,047	-0,093
-360,883	800,000	0,014	-0,037
-359,869	426,412	-0,060	-0,095
-358,854	-154,883	0,068	0,003
-357,839	290,718	-0,106	0,142
-356,825	35,819	-0,016	0,010
-355,810	-200,000	-0,004	0,038
-354,796	-91,820	0,084	-0,017
-353,781	-200,000	0,008	-0,117
-352,766	36,935	-0,093	-0,060
-351,752	576,285	0,048	-0,086
-350,737	460,582	-0,058	0,095
-349,723	-200,000	0,048	0,169
-348,708	-200,000	-0,019	0,140
-347,693	29,818	0,149	-0,093
-346,679	-125,971	0,091	0,010
-345,664	-166,152	-0,086	0,003
-344,650	60,319	-0,212	-0,154
-343,635	-132,087	0,041	-0,004
-342,620	-100,209	-0,027	0,005
-341,606	-5,120	-0,017	-0,009
-340,591	625,310	0,023	-0,042
-339,577	-200,000	0,000	0,002
-338,562	340,022	0,057	0,081
-337,548	532,951	-0,012	-0,021
-336,533	-200,000	0,004	0,054
-335,518	290,320	-0,033	-0,044
-334,504	168,353	0,048	0,050
-333,489	352,122	-0,020	0,029
-332,475	76,492	0,016	0,013
-331,460	800,000	0,023	-0,052
-330,445	800,000	-0,044	-0,121
-329,431	234,790	0,016	0,020
-328,416	-6,066	0,074	0,037
-327,402	140,737	-0,071	0,069
-326,387	800,000	-0,038	-0,119
-325,372	208,077	-0,065	-0,074
-324,358	-200,000	-0,011	-0,044
-323,343	-200,000	-0,004	-0,078
-322,329	-54,011	-0,062	-0,021
-321,314	-15,924	0,163	0,076
-320,299	57,335	-0,135	0,096
-319,285	31,982	0,086	0,054
-318,270	-39,453	-0,018	0,007
-317,256	201,841	-0,083	-0,094
-316,241	129,433	-0,064	-0,060
-315,226	278,562	-0,047	0,061
-314,212	-142,360	0,065	0,005
-313,197	-9,815	0,133	0,065
-312,183	-61,136	-0,045	0,014
-311,168	-87,889	0,032	-0,007
-310,153	403,241	-0,061	-0,094
-309,139	-200,000	0,008	-0,099
-308,124	392,713	-0,029	0,044
-307,110	-200,000	-0,001	0,109
-306,095	-134,009	0,079	-0,007
-305,080	-130,105	-0,162	0,016
-304,066	539,685	-0,066	-0,115
-303,051	-135,500	-0,065	-0,006
-302,037	559,649	0,049	-0,088
-301,022	-94,374	0,166	0,033
-300,008	-47,048	0,020	-0,007
-298,993	167,040	0,077	-0,080
-297,978	-17,057	-0,197	-0,091
-296,964	-97,460	-0,094	-0,018
-295,949	-200,000	-0,008	0,045
-294,935	-200,000	-0,005	0,041
-293,920	-200,000	0,022	-0,078
-292,905	49,191	-0,044	-0,031
-291,891	50,360	0,082	0,057
-290,876	-162,964	0,018	-0,001
-289,862	479,064	-0,060	0,100
-288,847	382,886	-0,079	-0,119
-287,832	48,061	0,071	-0,048
-286,818	-78,229	0,044	-0,011
-285,803	800,000	0,043	0,104
-284,789	-200,000	-0,011	-0,093
-283,774	320,499	0,078	-0,109
-282,759	45,161	0,060	0,041
-281,745	262,565	0,074	0,094
-280,730	111,578	-0,088	-0,078
-279,716	-137,339	0,094	-0,008
-278,701	728,558	0,029	0,058
-277,686	-67,390	0,067	0,019
-276,672	323,550	-0,021	0,030
-275,657	-200,000	-0,009	0,160
-274,643	-90,476	0,111	0,023
-273,628	800,000	0,005	0,010
-272,613	-200,000	0,015	0,176
-271,599	-72,993	0,126	0,034
-270,584	605,398	0,014	-0,025
-269,570	800,000	0,024	-0,051
-268,555	326,369	-0,082	-0,114
-267,540	-146,665	0,019	0,001
-266,526	-40,227	-0,190	-0,072
-265,511	580,928	-0,059	0,107
-264,497	-39,907	0,133	0,050
-263,482	-58,951	-0,154	0,048
-262,467	590,717	0,057	-0,103
-261,453	800,000	-0,050	0,124
-260,438	800,000	-0,044	-0,123
-259,424	421,581	0,038	-0,059
-258,409	800,000	0,016	-0,043
-257,395	164,336	0,104	0,108
-256,380	193,503	-0,038	-0,042
-255,365	119,388	0,080	0,073
-254,351	-147,187	0,009	-0,001
-253,336	-200,000	-0,001	-0,101
-252,322	800,000	0,011	0,029
-251,307	-200,000	0,002	-0,056
-250,292	-86,145	0,101	-0,023
-249,278	-118,157	0,215	0,028
-248,263	598,513	0,054	0,098
-247,249	601,124	0,058	-0,105
-246,234	-125,219	-0,045	0,005
-245,219	-200,000	0,002	-0,056
-244,205	-108,439	-0,102	0,016
-243,190	366,650	0,027	-0,040
-242,176	800,000	-0,049	0,122
-241,161	-200,000	0,050	0,172
-240,146	-56,317	0,096	-0,031
-239,132	-157,939	-0,077	-0,003
-238,117	-65,855	-0,046	0,013
-237,103	-200,000	-0,005	0,086
-236,088	-171,841	-0,218	0,005
-235,073	-63,162	0,096	-0,029
-234,059	-144,378	-0,016	0,001
-233,044	-90,872	-0,107	-0,022
-232,030	118,750	-0,130	-0,117
-231,015	-200,000	-0,039	-0,215
-230,000	-7,410	-0,063	0,031
-228,986	12,385	0,027	-0,015
-227,971	-200,000	0,029	-0,120
-226,957	-55,214	0,178	0,058
-225,942	-200,000	-0,035	0,168
-224,927	-200,000	-0,006	-0,027
-223,913	-162,424	-0,201	0,007
-222,898	-200,000	-0,002	0,009
-221,884	-200,000	-0,016	-0,098
-220,869	-20,184	0,096	0,043
-219,855	-200,000	0,003	-0,033
-218,840	-127,369	0,066	-0,007
-217,825	-39,508	0,074	0,028
-216,811	314,719	-0,115	-0,159
-215,796	-127,954	-0,097	0,010
-214,782	-200,000	-0,003	-0,083
-213,767	-14,530	-0,010	-0,005
-212,752	297,164	0,035	0,047
-211,738	-200,000	0,007	-0,025
-210,723	17,403	0,144	0,083
-209,709	174,582	-0,031	0,033
-208,694	-56,013	-0,158	0,051
-207,679	716,125	0,018	0,035
-206,665	223,523	0,034	-0,041
-205,650	178,023	-0,005	-0,005
-204,636	-129,478	0,079	-0,008
-203,621	-200,000	0,008	-0,027
-202,606	-200,000	0,012	0,086
-201,592	800,000	-0,052	-0,143
-200,577	-200,000	0,014	-0,208
-199,563	-39,923	-0,035	0,013
-198,548	74,552	0,017	-0,013
-197,533	-160,483	0,129	-0,005
-196,519	-200,000	-0,004	0,067
-195,504	-200,000	-0,021	-0,121
-194,490	-200,000	-0,006	0,066
-193,475	278,913	-0,075	-0,098
-192,460	371,493	-0,081	-0,121
-191,446	93,069	0,104	0,086
-190,431	-200,000	-0,036	0,121
-189,417	4,291	0,100	0,053
-188,402	-92,654	0,027	-0,005
-187,387	39,881	-0,107	-0,070
-186,373	800,000	0,011	0,033
-185,358	-37,864	0,089	-0,034
-184,344	-119,382	0,072	-0,009
-183,329	-200,000	0,028	0,145
-182,315	24,843	-0,074	-0,045
-181,300	-141,197	0,086	0,006
-180,285	174,375	-0,079	-0,083
-179,271	255,833	-0,078	-0,098
-178,256	-12,461	0,081	0,039
-177,242	198,821	0,077	0,086
-176,227	-127,280	-0,149	-0,016
-175,212	19,499	0,083	-0,048
-174,198	165,641	0,045	0,046
-173,183	260,322	-0,112	-0,142
-172,169	800,000	-0,050	-0,126
-171,154	-20,235	-0,099	0,044
-170,139	-200,000	0,009	-0,045
-169,125	124,854	0,056	0,052
-168,110	-149,511	0,089	0,005
-167,096	-157,529	0,101	0,004
-166,081	30,873	-0,058	0,036
-165,066	237,441	0,039	0,047
-164,052	107,586	-0,047	-0,041
-163,037	117,396	0,092	0,083
-162,023	-58,641	0,169	0,053
-161,008	477,466	-0,045	0,074
-159,993	800,000	-0,018	0,055
-158,979	800,000	-0,010	0,022
-157,964	-28,098	0,035	0,015
-156,950	64,247	-0,063	0,046
-155,935	643,888	0,034	0,063
-154,920	18,200	-0,023	0,013
-153,906	-200,000	-0,014	-0,053
-152,891	100,992	0,070	0,059
-151,877	-24,547	-0,021	-0,009
-150,862	-61,779	-0,067	-0,020
-149,847	-200,000	-0,014	-0,129
-148,833	73,165	0,055	0,042
-147,818	-122,746	-0,153	-0,018
-146,804	-17,887	0,173	-0,079
-145,789	21,219	-0,051	-0,030
-144,775	285,847	0,013	-0,017
-143,760	-200,000	-0,004	-0,133
-142,745	14,225	-0,109	-0,061
-141,731	-91,478	0,044	0,009
-140,716	-65,770	-0,120	0,035
-139,702	-82,744	0,168	0,039
-138,687	800,000	-0,014	0,036
-137,672	800,000	0,060	0,156
-136,658	-53,641	-0,156	0,052
-135,643	-200,000	-0,018	0,094
-134,629	-25,345	-0,048	0,021
-133,614	-157,810	0,061	-0,003
-132,599	479,542	-0,029	0,047
-131,585	-85,256	0,137	0,031
-130,570	800,000	0,004	-0,008
-129,556	487,483	-0,059	0,099
-128,541	205,143	-0,078	-0,089
-127,526	371,288	0,035	0,051
-126,512	-142,185	0,039	-0,003
-125,497	-200,000	-0,028	0,089
-124,483	-200,000	0,008	-0,059
-123,468	800,000	0,017	0,035
-122,453	-64,626	0,031	-0,009
-121,439	-200,000	0,016	0,098
-120,424	-147,736	-0,015	0,001
-119,410	-69,896	0,138	0,038
-118,395	-14,264	-0,066	0,031
-117,380	738,055	0,069	0,134
-116,366	-36,333	0,075	-0,029
-115,351	-200,000	-0,017	-0,056
-114,337	-173,413	-0,086	0,002
-113,322	172,428	0,062	0,065
-112,307	-59,621	-0,091	-0,028
-111,293	-200,000	-0,009	-0,168
-110,278	-75,501	0,050	0,013
-109,264	-5,580	-0,098	-0,048
-108,249	331,165	-0,008	-0,011
-107,234	-136,365	0,030	-0,002
-106,220	-200,000	0,018	-0,081
-105,205	435,459	0,035	0,056
-104,191	498,323	0,046	0,077
-103,176	800,000	0,005	0,015
-102,162	692,420	0,019	-0,037
-101,147	517,357	0,044	-0,076
-100,132	-96,109	-0,104	0,020
-99,118	-200,000	-0,015	-0,048
-98,103	800,000	0,040	0,115
-97,089	-116,087	0,074	0,010
-96,074	-200,000	-0,044	0,152
-95,059	800,000	0,034	0,106
-94,045	-120,337	0,055	0,007
-93,030	83,859	-0,088	-0,070
-92,016	26,452	-0,065	-0,040
-91,001	-147,809	0,079	0,005
-89,986	800,000	-0,043	-0,097
-88,972	-136,698	0,055	0,005
-87,957	250,437	0,059	-0,073
-86,943	104,676	0,074	-0,063
-85,928	155,473	-0,019	-0,019
-84,913	50,997	-0,070	-0,048
-83,899	229,834	-0,078	-0,092
-82,884	-200,000	-0,039	-0,133
-81,870	-46,796	0,026	0,009
-80,855	-121,523	0,126	-0,015
-79,840	-57,292	0,143	-0,045
-78,826	159,769	0,056	-0,057
-77,811	-200,000	0,007	-0,057
-76,797	-8,630	-0,097	-0,047
-75,782	-200,000	-0,016	0,058
-74,767	-102,968	0,134	0,023
-73,753	-200,000	0,002	0,051
-72,738	95,801	-0,107	-0,089
-71,724	113,645	-0,156	-0,137
-70,709	-200,000	0,030	-0,144
-69,694	-200,000	0,005	-0,040
-68,680	283,137	0,033	-0,042
-67,665	390,735	0,014	0,021
-66,651	171,547	0,076	0,079
-65,636	110,193	0,060	-0,052
-64,622	16,432	-0,077	0,044
-63,607	718,594	-0,047	-0,091
-62,592	5,691	-0,092	0,049
-61,578	3,590	0,088	-0,046
-60,563	186,383	-0,074	-0,079
-59,549	-2,818	-0,040	-0,020
-58,534	-103,594	-1,567	-0,264
-57,519	653,738	-0,631	-1,179
-56,505	-200,000	-1,008	-4,482
-55,490	-108,610	0,698	-0,108
-54,476	800,000	5,177	11,815
-53,461	-200,000	14,684	264,086
-52,446	-200,000	696,142	2271,141
-51,432	589,513	1622,363	2911,899
-50,417	120,594	1631,421	1469,894
-49,403	78,080	1284,946	992,981
-48,388	38,016	1023,007	658,331
-47,373	23,264	982,335	583,624
-46,359	22,403	971,629	574,417
-45,344	21,269	967,032	567,968
-44,330	21,211	965,799	567,031
-43,315	21,072	964,510	565,799
-42,300	21,026	963,513	565,043
-41,286	21,004	962,428	564,313
-40,271	20,997	961,474	563,706
-39,257	20,967	960,402	562,959
-38,242	21,014	959,356	562,475
-37,227	20,956	958,781	561,927
-36,213	20,959	957,926	561,416
-35,198	20,910	957,028	560,708
-34,184	20,943	956,396	560,420
-33,169	20,950	955,397	559,835
-32,154	20,965	954,533	559,356
-31,140	21,075	953,445	559,052
-30,125	20,953	952,969	558,357
-29,111	21,025	951,896	557,938
-28,096	20,996	951,337	557,494
-27,082	21,023	950,611	557,134
-26,067	20,988	949,754	556,496
-25,052	20,984	949,147	556,108
-24,038	20,876	948,614	555,425
-23,023	20,997	947,741	555,279
-22,009	21,014	947,091	554,932
-20,994	21,041	946,541	554,673
-19,979	21,042	946,028	554,355
-18,965	20,960	945,436	553,724
-17,950	20,984	944,695	553,343
-16,936	20,941	944,095	552,834
-15,921	20,889	943,431	552,259
-14,906	20,884	942,783	551,841
-13,892	20,877	942,181	551,442
-12,877	20,877	941,417	550,974
-11,863	20,846	940,777	550,479
-10,848	20,820	940,428	550,171
-9,833	20,932	939,921	550,207
-8,819	20,928	939,287	549,804
-7,804	20,858	938,549	549,126
-6,790	20,866	938,038	548,832
-5,775	20,902	937,480	548,597
-4,760	20,940	936,784	548,288
-3,746	20,866	936,138	547,653
-2,731	20,755	935,476	546,893
-1,717	20,655	934,939	546,242
-0,702	20,652	934,194	545,777
0,313	20,522	933,477	545,771
1,327	23,475	931,802	554,042
2,342	32,984	794,388	497,639
3,356	30,248	450,947	278,344
4,371	-0,496	295,108	151,296
5,386	-4,809	276,151	137,458
6,400	-6,371	270,346	133,100
7,415	-7,060	268,114	131,351
8,429	-6,353	266,940	131,416
9,444	-6,390	266,025	130,920
10,459	-6,385	265,308	130,560
11,473	-6,355	264,788	130,319
12,488	-6,374	264,335	130,068
13,502	-6,685	263,716	129,468
14,517	-6,382	263,327	129,541
15,531	-6,304	263,056	129,467
16,546	-5,997	262,653	129,536
17,561	-6,102	262,364	129,286
18,575	-6,031	261,943	129,132
19,590	-6,325	261,639	128,705
20,604	-5,915	261,494	128,992
21,619	-6,058	261,037	128,626
22,634	-6,094	260,799	128,466
23,648	-6,121	260,471	128,268
24,663	-6,252	260,333	128,071
25,677	-6,003	259,946	128,092
26,692	-6,147	259,635	127,799
27,707	-6,087	259,267	127,660
28,721	-6,342	259,261	127,418
29,736	-6,164	258,963	127,419
30,750	-6,213	258,491	127,132
31,765	-6,254	258,431	127,054
32,780	-6,088	258,140	127,047
33,794	-6,116	257,812	126,850
34,809	-6,058	257,558	126,765
35,823	-6,345	257,482	126,462
36,838	-6,049	257,078	126,514
37,853	-6,300	257,030	126,257
38,867	-6,326	256,686	126,054
39,882	-6,221	256,391	125,990
40,896	-6,077	256,333	126,077
41,911	-6,106	256,010	125,882
42,926	-6,174	255,819	125,717
43,940	-6,224	255,799	125,652
44,955	-6,292	255,364	125,367
45,969	-6,288	255,221	125,289
46,984	-6,613	254,865	124,818
47,999	-6,673	254,620	124,634
49,013	-6,759	254,370	124,426
50,028	-6,787	254,209	124,312
51,042	-7,011	253,999	124,002
52,057	-7,039	253,754	123,847
53,071	-6,869	253,536	123,878
54,086	-6,891	253,380	123,771
55,101	-6,772	253,157	123,755
56,115	-6,648	252,972	123,762
57,130	-6,356	252,815	123,927
58,144	-6,002	252,584	124,111
59,159	-6,047	252,598	124,067
60,174	-6,027	252,323	123,939
61,188	-6,091	252,218	123,820
62,203	-5,991	251,867	123,724
63,217	-6,050	251,596	123,528
64,232	-6,204	251,523	123,349
65,247	-6,303	251,253	123,120
66,261	-6,178	250,879	123,033
67,276	-6,074	250,737	123,043
68,290	-6,484	250,452	122,539
69,305	-6,596	250,205	122,310
70,320	-6,633	250,163	122,247
71,334	-6,399	249,959	122,338
72,349	-6,258	249,868	122,403
73,363	-6,151	249,648	122,376
74,378	-6,009	249,462	122,395
75,393	-6,114	249,342	122,236
76,407	-6,079	249,123	122,147
77,422	-5,963	248,797	122,076
78,436	-5,997	248,563	121,921
79,451	-6,048	248,415	121,794
80,466	-6,225	248,119	121,488
81,480	-6,041	247,854	121,504
82,495	-6,203	247,716	121,288
83,509	-6,455	247,703	121,056
84,524	-6,372	247,357	120,946
85,539	-6,405	247,127	120,796
86,553	-6,491	246,854	120,578
87,568	-6,533	246,896	120,553
88,582	-6,395	246,543	120,486
89,597	-6,357	246,375	120,425
90,611	-6,214	246,291	120,494
91,626	-6,096	246,200	120,538
92,641	-6,312	245,890	120,194
93,655	-6,338	245,774	120,105
94,670	-6,258	245,551	120,053
95,684	-6,340	245,325	119,862
96,699	-6,164	245,126	119,902
97,714	-6,392	245,013	119,645
98,728	-6,337	244,696	119,525
99,743	-6,299	244,537	119,469
100,757	-6,473	244,319	119,206
101,772	-6,461	244,128	119,112
102,787	-6,324	243,933	119,121
103,801	-6,370	243,792	119,003
104,816	-6,265	243,717	119,043
105,830	-6,181	243,723	119,106
106,845	-6,191	243,405	118,932
107,860	-6,322	243,275	118,748
108,874	-6,396	242,952	118,518
109,889	-6,522	242,802	118,330
110,903	-6,446	242,518	118,245
111,918	-6,431	242,347	118,163
112,933	-6,369	242,345	118,202
113,947	-6,414	242,068	118,020
114,962	-6,343	242,005	118,037
115,976	-6,103	241,763	118,107
116,991	-6,221	241,574	117,906
118,006	-6,311	241,421	117,747
119,020	-6,244	241,187	117,678
120,035	-6,214	241,154	117,677
121,049	-6,271	240,940	117,514
122,064	-6,129	240,872	117,587
123,079	-6,438	240,645	117,213
124,093	-6,567	240,436	116,994
125,108	-6,571	240,055	116,795
126,122	-6,423	239,842	116,802
127,137	-6,603	239,744	116,596
128,151	-6,435	239,478	116,594
129,166	-6,136	239,292	116,738
130,181	-6,565	239,233	116,348
131,195	-6,700	238,967	116,097
132,210	-6,366	238,866	116,311
133,224	-6,348	238,673	116,221
134,239	-6,336	238,603	116,187
135,254	-6,243	238,419	116,162
136,268	-6,309	238,041	115,914
137,283	-6,645	237,938	115,581
138,297	-6,616	237,708	115,482
139,312	-6,634	237,527	115,369
140,327	-6,408	237,421	115,491
141,341	-6,121	237,400	115,703
142,356	-6,151	237,355	115,646
143,370	-6,124	237,067	115,518
144,385	-5,922	236,889	115,583
145,400	-5,897	236,840	115,569
146,414	-5,864	236,525	115,432
147,429	-5,961	236,379	115,272
148,443	-6,207	236,215	114,984
149,458	-6,125	235,992	114,931
150,473	-5,909	235,833	115,018
151,487	-6,195	235,643	114,684
152,502	-6,216	235,759	114,714
153,516	-6,050	235,481	114,702
154,531	-5,833	235,066	114,664
155,546	-5,914	234,986	114,549
156,560	-6,104	234,973	114,380
157,575	-6,035	234,481	114,186
158,589	-6,329	234,462	113,931
159,604	-6,152	234,412	114,038
160,619	-5,859	234,092	114,106
161,633	-5,822	234,068	114,114
162,648	-5,853	233,962	114,027
163,662	-6,249	233,761	113,604
164,677	-6,196	233,643	113,578
165,692	-6,218	233,455	113,460
166,706	-5,959	233,432	113,644
167,721	-5,924	233,135	113,517
168,735	-6,029	233,115	113,414
169,750	-5,909	232,831	113,361
170,764	-6,049	232,645	113,149
171,779	-5,894	232,424	113,155
172,794	-5,916	232,349	113,090
173,808	-6,112	232,097	112,803
174,823	-6,445	231,867	112,418
175,837	-6,680	231,717	112,151
176,852	-6,189	231,719	112,528
177,867	-6,094	231,545	112,508
178,881	-6,077	231,379	112,431
179,896	-5,908	231,278	112,505
180,910	-6,061	231,218	112,345
181,925	-5,938	230,984	112,318
182,940	-6,033	230,748	112,119
183,954	-6,084	230,761	112,075
184,969	-5,607	230,475	112,300
185,983	-5,467	230,423	112,374
186,998	-5,552	230,276	112,226
188,013	-5,840	230,071	111,891
189,027	-5,721	230,004	111,942
190,042	-5,786	229,766	111,765
191,056	-5,841	229,515	111,590
192,071	-5,939	229,399	111,447
193,086	-6,093	229,232	111,237
194,100	-6,297	229,065	110,987
195,115	-6,685	228,426	110,366
196,129	-7,472	228,230	109,651
197,144	-4,143	229,590	112,889
198,159	0,807	230,931	117,410
199,173	4,006	231,875	120,385
200,188	4,310	231,727	120,535
201,202	4,562	231,426	120,564
202,217	4,671	231,309	120,578
203,232	4,788	231,297	120,652
204,246	4,806	231,127	120,567
205,261	4,802	231,006	120,489
206,275	4,891	230,862	120,473
207,290	5,087	230,844	120,605
208,304	5,033	230,585	120,417
209,319	5,029	230,364	120,288
210,334	5,024	230,142	120,158
211,348	4,753	229,971	119,847
212,363	4,463	229,688	119,465
213,377	4,306	229,525	119,249
214,392	3,824	229,394	118,797
215,407	4,250	229,230	119,031
216,421	4,498	228,959	119,071
217,436	4,222	228,854	118,793
218,450	4,139	228,550	118,560
219,465	3,871	228,546	118,341
220,480	4,183	228,339	118,463
221,494	4,037	228,232	118,285
222,509	4,233	228,253	118,436
223,523	4,201	227,955	118,246
224,538	3,936	227,777	117,940
225,553	4,102	227,686	118,009
226,567	4,173	227,591	118,005
227,582	4,553	227,594	118,286
228,596	4,512	227,402	118,145
229,611	4,367	227,040	117,836
230,626	4,124	226,915	117,574
231,640	4,264	226,709	117,564
232,655	4,391	226,842	117,720
233,669	4,696	226,619	117,825
234,684	4,753	226,541	117,818
235,699	4,527	226,349	117,536
236,713	4,354	226,210	117,322
237,728	4,211	225,840	117,010
238,742	4,215	225,613	116,886
239,757	4,296	225,529	116,893
240,772	4,034	225,406	116,620
241,786	4,148	225,278	116,630
242,801	4,351	225,195	116,731
243,815	4,558	225,187	116,872
244,830	4,719	225,047	116,911
245,844	4,326	224,833	116,493
246,859	4,348	224,532	116,343
247,874	4,314	224,635	116,360
248,888	4,450	224,517	116,391
249,903	4,167	224,331	116,071
250,917	4,334	223,959	115,994
251,932	4,245	223,844	115,857
252,947	4,023	223,762	115,638
253,961	4,080	223,616	115,594
254,976	4,232	223,445	115,610
255,990	4,398	223,354	115,677
257,005	4,472	223,080	115,581
258,020	4,619	223,009	115,643
259,034	4,679	222,974	115,659
260,049	4,596	222,865	115,531
261,063	4,513	222,538	115,289
262,078	4,386	222,466	115,147
263,093	4,600	222,413	115,268
264,107	4,525	222,194	115,089
265,122	4,695	222,168	115,192
266,136	4,743	221,928	115,093
267,151	4,791	221,788	115,046
268,166	4,354	221,701	114,666
269,180	4,094	221,258	114,233
270,195	4,018	221,288	114,182
271,209	3,927	221,118	114,017
272,224	3,989	221,051	114,018
273,239	4,155	220,788	113,995
274,253	4,238	220,643	113,971
275,268	4,088	220,499	113,776
276,282	4,090	220,229	113,628
277,297	3,799	220,132	113,353
278,312	4,122	220,075	113,552
279,326	4,188	219,886	113,493
280,341	4,154	219,919	113,474
281,355	4,170	219,735	113,381
282,370	3,997	219,514	113,130
283,384	4,210	219,266	113,149
284,399	3,936	219,210	112,908
285,414	3,854	219,215	112,841
286,428	4,264	219,077	113,060
287,443	4,350	218,898	113,021
288,457	4,428	218,718	112,975
289,472	4,172	218,551	112,692
290,487	3,707	218,392	112,259
291,501	3,737	218,124	112,133
292,516	3,957	217,986	112,213
293,530	4,163	217,965	112,342
294,545	3,853	217,997	112,123
295,560	4,080	217,645	112,097
296,574	3,972	217,568	111,969
297,589	4,224	217,446	112,079
298,603	4,279	217,283	112,025
299,618	4,118	217,289	111,901
300,633	4,295	217,131	111,939
301,647	4,443	217,118	112,030
302,662	4,467	216,818	111,882
303,676	4,357	216,760	111,763
304,691	4,249	216,665	111,625
305,706	4,139	216,601	111,503
306,720	4,369	216,325	111,517
307,735	4,341	216,166	111,405
308,749	4,068	215,860	111,041
309,764	4,384	215,750	111,202
310,779	4,456	215,618	111,176
311,793	4,588	215,472	111,185
312,808	4,476	215,398	111,056
313,822	4,325	215,269	110,871
314,837	4,213	215,083	110,686
315,852	4,104	214,829	110,467
316,866	4,089	214,891	110,478
317,881	4,284	214,719	110,520
318,895	4,345	214,648	110,516
319,910	4,080	214,374	110,177
320,925	3,943	214,215	109,987
321,939	3,551	214,010	109,591
322,954	3,956	213,834	109,781
323,968	4,102	214,021	109,971
324,983	4,198	213,897	109,967
325,997	4,359	213,633	109,935
327,012	4,128	213,460	109,672
328,027	4,300	213,350	109,728
329,041	4,587	213,442	109,970
330,056	4,462	213,292	109,794
331,070	4,379	212,903	109,525
332,085	3,882	212,701	109,059
333,100	4,064	212,585	109,119
334,114	4,012	212,509	109,033
335,129	4,175	212,408	109,087
336,143	4,305	212,205	109,065
337,158	4,237	212,055	108,930
338,173	4,272	211,901	108,866
339,187	3,786	211,840	108,482
340,202	3,763	211,641	108,354
341,216	3,680	211,528	108,228
342,231	4,106	211,445	108,476
343,246	3,998	211,212	108,271
344,260	4,127	211,014	108,250
345,275	3,999	211,077	108,183
346,289	4,326	210,960	108,343
347,304	4,295	210,892	108,277
348,319	4,087	210,699	108,022
349,333	4,192	210,603	108,037
350,348	4,196	210,421	107,937
351,362	4,362	210,296	107,980
352,377	4,471	210,132	107,962
353,392	4,197	209,835	107,608
354,406	4,207	209,792	107,583
355,421	193,444	1344,110	1430,101
356,435	154,374	1482,388	1430,190
