DTS Sentinel unit serial number:	SN410029Multiplexer serial number:	ORYXHardware model number:	OX2-SRSoftware version number:	ORYX F/W v4,00 Oryx Data Collector v3.7.2.0data status	okinstallation	B6 Nyhavnadifferential loss correction	single-endedforward channel	channel 2reverse channel	N/Adate	2023/12/09time	09:20:08forward acquisition time	300,00reverse acquisition time	0,00gamma	499,1914k internal	0,3139k external	0,3139temperature offset calibration	1,0000default loss term (dB/km)	0,3820temperature slope calibration	1,0000multiplexer offset coefficient	1,0000multiplexer slope coefficient	1,0000fibre end	0,00T internal ref (°C)	18,45T ext. ref 1 (°C)	2,02T ext. ref 2 (°C)	2,02length (m)	temperature (°C)	Stokes	anti-Stokes-744,400	31,943	-0,040	-0,026
-743,385	64,990	-0,255	-0,191
-742,371	127,280	-0,077	-0,072
-741,356	-55,125	-0,215	0,071
-740,342	411,067	0,027	0,042
-739,327	-67,772	-0,336	0,097
-738,312	19,340	-0,004	0,002
-737,298	-123,044	-0,261	-0,031
-736,283	-200,000	0,014	-0,051
-735,269	-104,330	-0,240	0,041
-734,254	-140,356	0,021	-0,002
-733,239	-109,820	-0,417	-0,064
-732,225	654,074	0,073	0,140
-731,210	-200,000	-0,010	0,038
-730,196	72,957	-0,052	-0,040
-729,181	35,180	-0,107	-0,069
-728,167	626,328	0,022	-0,041
-727,152	-78,001	-0,120	0,030
-726,137	800,000	-0,023	-0,049
-725,123	-200,000	-0,001	-0,079
-724,108	800,000	-0,060	-0,158
-723,094	-96,954	-0,075	-0,014
-722,079	-97,894	-0,202	-0,038
-721,064	209,653	0,082	0,096
-720,050	69,372	-0,080	-0,061
-719,035	-200,000	0,010	-0,033
-718,021	-200,000	-0,011	-0,080
-717,006	-137,664	-0,167	0,014
-715,991	385,685	-0,145	-0,222
-714,977	-200,000	-0,052	-0,197
-713,962	336,159	-0,060	-0,086
-712,948	335,513	-0,048	0,069
-711,933	-200,000	-0,008	-0,032
-710,918	-74,306	-0,083	-0,022
-709,904	10,514	-0,047	-0,027
-708,889	800,000	-0,034	-0,089
-707,875	111,922	0,041	-0,037
-706,860	800,000	-0,032	0,090
-705,845	-31,021	-0,124	-0,052
-704,831	-15,613	-0,078	0,037
-703,816	92,896	0,036	-0,031
-702,802	-53,940	-0,134	0,045
-701,787	94,524	-0,024	0,020
-700,772	-200,000	-0,002	-0,105
-699,758	42,084	-0,124	0,083
-698,743	-126,133	0,072	-0,008
-697,729	363,897	0,048	0,071
-696,714	-56,075	0,048	0,016
-695,699	-64,842	-0,118	0,035
-694,685	1,750	-0,058	-0,031
-693,670	800,000	-0,028	0,068
-692,656	800,000	-0,034	-0,108
-691,641	-46,997	-0,076	-0,027
-690,627	313,598	0,060	-0,084
-689,612	-82,092	-0,067	-0,016
-688,597	-200,000	-0,007	-0,037
-687,583	-200,000	0,007	-0,083
-686,568	54,047	-0,048	0,034
-685,554	-35,690	-0,039	-0,015
-684,539	228,092	0,051	0,061
-683,524	-200,000	0,023	0,114
-682,510	51,725	-0,100	-0,070
-681,495	-200,000	0,000	0,038
-680,481	141,231	-0,029	0,028
-679,466	-200,000	-0,027	0,094
-678,451	292,785	0,077	0,104
-677,437	-200,000	-0,002	-0,032
-676,422	-200,000	0,010	0,062
-675,408	800,000	-0,012	-0,031
-674,393	-165,014	0,117	0,004
-673,378	373,269	-0,078	-0,118
-672,364	800,000	-0,033	0,079
-671,349	-71,643	-0,062	0,017
-670,335	-117,769	-0,042	-0,006
-669,320	143,592	0,011	0,011
-668,305	137,252	-0,062	0,060
-667,291	3,824	-0,115	-0,062
-666,276	183,985	0,039	-0,043
-665,262	0,801	-0,120	-0,063
-664,247	98,306	-0,089	-0,075
-663,232	264,692	-0,036	0,047
-662,218	-100,218	0,072	0,013
-661,203	313,133	0,070	-0,098
-660,189	428,913	-0,104	0,167
-659,174	447,487	-0,020	-0,032
-658,159	16,378	-0,065	0,038
-657,145	328,994	0,025	0,036
-656,130	800,000	-0,014	0,035
-655,116	-200,000	-0,004	-0,121
-654,101	-44,049	0,093	0,034
-653,086	290,639	-0,036	0,048
-652,072	60,669	-0,072	0,053
-651,057	-27,300	0,069	-0,030
-650,043	-24,238	-0,128	-0,056
-649,028	100,446	-0,045	0,039
-648,014	-54,905	0,023	0,008
-646,999	156,121	0,019	0,019
-645,984	372,875	0,055	0,083
-644,970	8,966	-0,070	-0,039
-643,955	176,332	-0,095	-0,102
-642,941	579,215	0,020	0,036
-641,926	-200,000	-0,012	0,040
-640,911	-200,000	0,012	0,070
-639,897	-1,128	0,078	0,041
-638,882	-200,000	0,011	-0,038
-637,868	800,000	0,010	-0,026
-636,853	18,268	-0,024	0,014
-635,838	-200,000	-0,005	-0,089
-634,824	741,668	0,061	-0,121
-633,809	-200,000	-0,015	-0,137
-632,795	800,000	-0,006	-0,012
-631,780	-81,566	0,045	0,011
-630,765	800,000	0,011	-0,031
-629,751	44,732	-0,079	0,054
-628,736	800,000	-0,032	-0,074
-627,722	800,000	0,011	0,023
-626,707	-200,000	0,005	0,179
-625,692	110,626	-0,065	0,058
-624,678	94,529	0,044	0,037
-623,663	77,240	0,071	0,056
-622,649	-104,953	-0,026	-0,004
-621,634	-200,000	-0,001	-0,186
-620,619	-165,943	-0,075	0,002
-619,605	-102,212	0,063	0,011
-618,590	-200,000	-0,014	-0,174
-617,576	29,364	-0,030	-0,019
-616,561	-200,000	0,023	-0,095
-615,546	-140,682	-0,021	-0,002
-614,532	-70,327	0,086	0,024
-613,517	-200,000	0,004	-0,029
-612,503	352,769	-0,075	-0,111
-611,488	-200,000	0,023	0,152
-610,474	-200,000	-0,016	0,059
-609,459	229,431	-0,044	-0,053
-608,444	161,975	0,030	-0,031
-607,430	-32,647	-0,040	0,016
-606,415	-110,384	-0,026	-0,004
-605,401	-97,017	-0,081	0,016
-604,386	-141,263	0,021	-0,002
-603,371	248,753	0,050	0,063
-602,357	-200,000	0,011	-0,075
-601,342	800,000	0,028	-0,086
-600,328	-200,000	-0,001	-0,042
-599,313	166,074	-0,037	0,039
-598,298	243,819	0,060	-0,075
-597,284	-91,433	0,110	0,023
-596,269	-5,129	0,057	0,029
-595,255	-33,750	-0,024	0,010
-594,240	54,817	0,131	-0,093
-593,225	-153,056	0,042	0,002
-592,211	-200,000	0,003	-0,073
-591,196	800,000	0,016	-0,044
-590,182	800,000	-0,038	-0,100
-589,167	800,000	-0,049	-0,108
-588,152	213,740	-0,090	0,106
-587,138	3,815	-0,149	-0,080
-586,123	123,024	-0,103	-0,096
-585,109	800,000	-0,017	0,039
-584,094	-200,000	-0,011	0,053
-583,079	44,890	0,090	-0,061
-582,065	-200,000	-0,027	-0,113
-581,050	116,053	-0,073	0,065
-580,036	273,420	-0,015	-0,020
-579,021	749,827	0,044	-0,089
-578,006	800,000	-0,050	-0,144
-576,992	800,000	0,027	0,071
-575,977	800,000	-0,004	0,012
-574,963	127,948	0,083	0,078
-573,948	-200,000	0,024	0,114
-572,934	800,000	-0,011	-0,026
-571,919	-200,000	0,003	-0,068
-570,904	29,122	-0,037	-0,023
-569,890	298,886	0,105	0,143
-568,875	-200,000	-0,017	-0,070
-567,861	397,356	-0,058	-0,089
-566,846	-200,000	-0,010	0,124
-565,831	-181,837	0,129	0,002
-564,817	439,389	0,023	-0,037
-563,802	-31,609	-0,035	0,014
-562,788	360,793	0,009	-0,014
-561,773	-20,394	-0,090	-0,040
-560,758	800,000	0,048	0,134
-559,744	-34,987	-0,196	0,078
-558,729	-200,000	0,028	-0,202
-557,715	115,705	-0,119	-0,107
-556,700	162,185	-0,074	0,076
-555,685	-47,786	-0,120	-0,043
-554,671	800,000	-0,008	-0,024
-553,656	91,173	0,047	-0,039
-552,642	800,000	0,056	0,174
-551,627	368,719	0,039	-0,058
-550,612	800,000	-0,045	-0,099
-549,598	-34,209	-0,101	0,041
-548,583	289,192	0,080	-0,107
-547,569	245,705	0,073	0,090
-546,554	800,000	0,073	0,180
-545,539	-200,000	0,019	0,077
-544,525	-120,484	-0,046	-0,006
-543,510	19,903	-0,072	0,043
-542,496	287,000	-0,101	-0,135
-541,481	41,011	-0,112	-0,074
-540,466	459,866	0,022	-0,036
-539,452	800,000	0,010	0,021
-538,437	23,896	-0,092	-0,055
-537,423	112,321	-0,093	0,083
-536,408	-98,200	0,078	0,015
-535,393	-200,000	0,003	0,045
-534,379	800,000	-0,047	-0,115
-533,364	-200,000	-0,016	-0,108
-532,350	-53,736	0,158	-0,053
-531,335	-31,924	-0,038	-0,016
-530,321	160,802	0,048	-0,049
-529,306	179,009	-0,019	0,020
-528,291	-85,875	-0,011	-0,002
-527,277	-200,000	-0,005	-0,062
-526,262	-196,050	-0,085	-0,000
-525,248	50,012	-0,039	-0,027
-524,233	-107,204	-0,077	0,012
-523,218	-25,587	0,076	0,033
-522,204	-101,299	-0,045	0,008
-521,189	-45,805	0,058	0,021
-520,175	-57,042	-0,064	-0,021
-519,160	-130,897	-0,211	0,020
-518,145	31,587	-0,041	-0,026
-517,131	-44,057	-0,184	0,068
-516,116	369,970	0,056	-0,083
-515,102	-200,000	-0,007	0,079
-514,087	800,000	0,038	0,090
-513,072	364,839	-0,041	-0,061
-512,058	121,687	0,088	-0,080
-511,043	633,193	-0,019	0,036
-510,029	210,610	0,077	0,089
-509,014	-200,000	0,000	-0,072
-507,999	131,348	0,032	-0,030
-506,985	307,907	-0,092	-0,126
-505,970	-23,039	0,029	-0,013
-504,956	-126,209	0,099	-0,011
-503,941	9,023	0,009	0,005
-502,926	95,452	0,085	-0,071
-501,912	-71,326	-0,086	-0,024
-500,897	443,812	-0,055	0,089
-499,883	65,372	-0,071	-0,053
-498,868	800,000	0,011	0,031
-497,853	-102,753	0,041	0,007
-496,839	574,635	-0,024	-0,042
-495,824	-41,007	-0,065	0,024
-494,810	-121,911	0,197	-0,023
-493,795	3,176	0,079	0,042
-492,781	800,000	0,034	-0,081
-491,766	113,884	-0,096	0,086
-490,751	-200,000	-0,009	0,081
-489,737	-16,055	-0,019	0,009
-488,722	-200,000	0,010	0,076
-487,708	-84,461	-0,130	-0,030
-486,693	-200,000	-0,011	0,054
-485,678	-16,971	-0,083	-0,038
-484,664	167,202	0,048	0,050
-483,649	65,627	-0,078	-0,058
-482,635	-200,000	0,009	-0,052
-481,620	-103,868	0,102	-0,017
-480,605	-64,219	0,014	0,004
-479,591	158,690	-0,067	0,068
-478,576	800,000	0,057	0,118
-477,562	182,338	-0,068	0,074
-476,547	8,267	-0,043	-0,024
-475,532	800,000	0,038	-0,111
-474,518	-149,352	0,059	0,003
-473,503	45,041	-0,025	-0,017
-472,489	3,066	-0,108	0,058
-471,474	-98,743	-0,071	-0,013
-470,459	-64,444	-0,121	0,036
-469,445	442,111	-0,076	-0,122
-468,430	-56,481	0,036	0,011
-467,416	623,425	-0,019	0,035
-466,401	32,574	0,060	0,038
-465,386	56,849	-0,094	0,067
-464,372	-200,000	-0,007	0,051
-463,357	366,856	-0,031	-0,047
-462,343	145,396	-0,029	0,029
-461,328	299,101	-0,017	-0,023
-460,313	634,171	0,071	0,133
-459,299	371,544	0,066	0,098
-458,284	-166,917	-0,009	-0,000
-457,270	800,000	0,030	-0,062
-456,255	74,589	0,050	-0,039
-455,241	32,514	-0,107	0,068
-454,226	-15,944	-0,157	-0,073
-453,211	13,439	-0,153	0,087
-452,197	253,263	-0,042	-0,053
-451,182	-80,208	0,089	0,022
-450,168	800,000	-0,037	0,111
-449,153	-200,000	-0,003	-0,080
-448,138	-19,521	-0,053	-0,024
-447,124	336,849	0,044	-0,063
-446,109	800,000	0,023	-0,074
-445,095	800,000	-0,017	-0,041
-444,080	-53,960	0,068	0,023
-443,065	647,893	-0,024	-0,045
-442,051	-200,000	-0,018	-0,073
-441,036	-159,350	-0,078	-0,003
-440,022	-68,509	-0,099	0,028
-439,007	-41,742	-0,002	-0,001
-437,992	12,401	0,207	-0,117
-436,978	151,185	0,081	-0,081
-435,963	-101,917	-0,067	0,012
-434,949	-200,000	-0,053	0,000
-433,934	205,742	0,076	0,087
-432,919	8,893	0,008	-0,004
-431,905	-16,209	-0,124	0,057
-430,890	2,316	0,148	-0,078
-429,876	73,167	0,128	0,098
-428,861	-200,000	-0,011	0,196
-427,846	800,000	0,105	0,252
-426,832	315,522	0,081	0,112
-425,817	9,207	0,092	-0,051
-424,803	-51,114	-0,045	-0,015
-423,788	594,283	0,037	-0,067
-422,773	-98,735	-0,093	0,017
-421,759	-21,976	0,018	0,008
-420,744	-200,000	-0,006	-0,117
-419,730	210,154	0,023	0,027
-418,715	671,000	-0,094	-0,180
-417,701	800,000	-0,074	-0,167
-416,686	31,304	0,127	0,079
-415,671	-26,674	-0,074	-0,032
-414,657	-150,251	0,180	-0,010
-413,642	-142,080	0,055	-0,004
-412,628	381,498	-0,048	-0,073
-411,613	39,959	0,120	-0,079
-410,598	-90,821	0,017	-0,004
-409,584	186,170	0,059	0,065
-408,569	201,906	0,011	-0,013
-407,555	-6,910	0,039	0,019
-406,540	111,932	0,096	-0,085
-405,525	5,000	0,196	0,105
-404,511	-70,933	0,047	-0,013
-403,496	348,236	0,037	0,053
-402,482	-155,850	0,028	-0,001
-401,467	130,048	0,116	0,108
-400,452	300,898	-0,021	0,028
-399,438	800,000	-0,017	-0,042
-398,423	262,561	-0,051	0,065
-397,409	-16,489	-0,138	0,064
-396,394	205,027	-0,100	-0,114
-395,379	-200,000	0,010	0,037
-394,365	51,653	0,072	-0,050
-393,350	-97,648	0,144	0,027
-392,336	-116,392	-0,103	0,014
-391,321	-87,427	-0,186	0,041
-390,306	219,406	0,047	0,056
-389,292	-56,884	-0,060	-0,019
-388,277	395,798	-0,040	-0,061
-387,263	-200,000	0,009	-0,096
-386,248	-84,319	0,061	-0,014
-385,233	-24,710	0,129	-0,056
-384,219	449,065	-0,035	0,057
-383,204	-17,188	-0,026	-0,012
-382,190	-200,000	0,002	-0,016
-381,175	-134,395	0,086	-0,008
-380,160	474,692	0,063	0,105
-379,146	-41,399	-0,090	-0,034
-378,131	-100,290	-0,071	0,013
-377,117	135,339	0,016	-0,016
-376,102	-200,000	0,011	0,101
-375,088	-80,067	-0,060	-0,015
-374,073	-200,000	0,010	-0,046
-373,058	800,000	0,039	-0,111
-372,044	34,746	0,076	0,049
-371,029	66,636	0,103	-0,077
-370,015	-200,000	-0,004	0,094
-369,000	-200,000	-0,023	0,079
-367,985	800,000	0,012	0,034
-366,971	800,000	-0,020	0,053
-365,956	797,237	0,023	0,046
-364,942	69,286	0,048	0,036
-363,927	141,070	-0,057	0,055
-362,912	-34,630	0,039	0,016
-361,898	528,917	0,033	-0,057
-360,883	-52,052	0,109	0,037
-359,869	331,689	0,053	0,075
-358,854	-44,057	-0,206	-0,075
-357,839	-200,000	0,014	0,121
-356,825	-23,238	0,083	0,036
-355,810	-115,216	-0,063	-0,009
-354,796	-200,000	-0,008	0,089
-353,781	607,664	0,037	0,068
-352,766	-6,234	-0,076	0,038
-351,752	31,049	0,133	-0,083
-350,737	-42,941	0,215	-0,079
-349,723	510,156	0,075	0,127
-348,708	-200,000	-0,004	0,125
-347,693	800,000	0,011	0,030
-346,679	399,740	-0,098	0,150
-345,664	-200,000	0,008	-0,037
-344,650	-200,000	-0,004	-0,051
-343,635	245,795	0,097	0,120
-342,620	1,826	0,046	0,024
-341,606	-192,624	0,050	0,000
-340,591	-200,000	0,023	0,120
-339,577	88,457	-0,167	-0,136
-338,562	-12,392	0,120	-0,057
-337,548	-148,204	0,046	0,003
-336,533	800,000	-0,011	0,032
-335,518	123,210	-0,035	0,032
-334,504	94,669	0,024	0,020
-333,489	142,269	-0,079	0,076
-332,475	-30,426	-0,099	-0,041
-331,460	735,434	-0,031	-0,061
-330,445	-114,218	-0,071	-0,010
-329,431	139,731	0,078	0,075
-328,416	-171,129	0,101	-0,002
-327,402	-82,869	-0,089	0,021
-326,387	-111,269	0,079	0,012
-325,372	669,043	0,025	-0,048
-324,358	-200,000	0,007	-0,136
-323,343	-200,000	-0,003	-0,015
-322,329	224,884	-0,047	0,056
-321,314	800,000	-0,077	0,185
-320,299	-200,000	0,043	0,142
-319,285	-24,020	-0,059	-0,026
-318,270	800,000	-0,035	0,092
-317,256	-15,640	-0,106	0,049
-316,241	177,062	-0,049	0,052
-315,226	-143,631	0,071	-0,005
-314,212	-125,744	0,089	0,010
-313,197	-35,195	0,061	0,024
-312,183	-200,000	-0,018	-0,075
-311,168	537,639	-0,028	0,048
-310,153	-50,000	0,040	-0,014
-309,139	-67,607	-0,062	-0,018
-308,124	-96,123	0,217	-0,042
-307,110	-200,000	-0,003	0,028
-306,095	-200,000	0,009	0,079
-305,080	331,114	-0,015	0,021
-304,066	800,000	0,022	0,066
-303,051	-151,245	0,079	0,004
-302,037	-200,000	-0,020	-0,152
-301,022	80,427	0,090	-0,071
-300,008	-200,000	-0,001	0,166
-298,993	132,119	0,070	0,066
-297,978	-35,816	0,039	-0,015
-296,964	182,796	0,078	0,084
-295,949	-128,861	-0,079	-0,008
-294,935	-200,000	-0,003	-0,047
-293,920	-139,042	0,023	-0,002
-292,905	300,087	0,088	0,118
-291,891	-4,183	-0,106	0,053
-290,876	-200,000	0,055	0,183
-289,862	-200,000	-0,008	0,073
-288,847	-103,165	-0,113	-0,019
-287,832	0,006	-0,112	-0,058
-286,818	-73,132	0,157	-0,042
-285,803	-71,631	0,131	0,035
-284,789	-124,716	0,125	-0,014
-283,774	-1,744	0,020	-0,010
-282,759	22,896	-0,038	0,022
-281,745	800,000	0,042	-0,087
-280,730	800,000	0,060	0,124
-279,716	800,000	0,028	-0,088
-278,701	94,462	-0,102	-0,085
-277,686	-200,000	-0,044	-0,171
-276,672	800,000	0,022	0,049
-275,657	-41,241	0,092	0,034
-274,643	-200,000	-0,007	-0,115
-273,628	-114,268	0,105	-0,015
-272,613	265,886	-0,076	-0,096
-271,599	-84,046	0,055	-0,013
-270,584	15,844	-0,086	-0,049
-269,570	-65,580	-0,075	0,022
-268,555	426,327	-0,017	-0,026
-267,540	-121,700	-0,038	0,004
-266,526	316,240	0,084	-0,115
-265,511	498,592	-0,024	-0,041
-264,497	461,269	-0,022	0,037
-263,482	123,291	0,054	0,049
-262,467	-200,000	0,015	-0,076
-261,453	200,406	0,013	-0,015
-260,438	-50,049	-0,062	0,021
-259,424	82,252	-0,133	-0,105
-258,409	-35,802	-0,043	-0,017
-257,395	-200,000	0,009	0,094
-256,380	-158,043	0,038	-0,002
-255,365	800,000	-0,022	0,057
-254,351	45,110	-0,087	-0,058
-253,336	4,593	-0,063	0,033
-252,322	-200,000	-0,025	-0,099
-251,307	27,153	-0,161	-0,098
-250,292	800,000	-0,024	-0,058
-249,278	800,000	0,018	-0,054
-248,263	-200,000	0,046	0,179
-247,249	-14,260	0,105	-0,049
-246,234	-200,000	-0,030	0,153
-245,219	-200,000	-0,019	-0,140
-244,205	-120,956	0,257	0,031
-243,190	-31,451	0,078	-0,032
-242,176	-200,000	-0,019	-0,102
-241,161	93,383	0,017	-0,014
-240,146	800,000	-0,035	-0,089
-239,132	-4,323	0,035	0,018
-238,117	-200,000	-0,031	-0,155
-237,103	80,004	-0,069	0,054
-236,088	-4,112	-0,169	0,085
-235,073	800,000	0,026	0,076
-234,059	-200,000	-0,021	0,164
-233,044	37,940	0,093	0,060
-232,030	243,882	0,074	-0,090
-231,015	800,000	0,046	-0,120
-230,000	-86,916	-0,159	-0,035
-228,986	108,754	-0,055	-0,047
-227,971	-80,010	0,086	0,021
-226,957	297,718	0,114	-0,152
-225,942	800,000	-0,028	-0,085
-224,927	800,000	0,039	-0,101
-223,913	366,132	0,013	0,019
-222,898	35,594	-0,065	-0,041
-221,884	-200,000	-0,036	-0,163
-220,869	689,269	0,062	0,118
-219,855	-200,000	0,023	0,082
-218,840	203,601	0,050	0,056
-217,825	44,135	0,072	0,048
-216,811	-128,639	-0,140	0,014
-215,796	-200,000	-0,034	-0,174
-214,782	-41,838	-0,111	-0,041
-213,767	-24,136	0,096	0,041
-212,752	-64,195	0,040	0,012
-211,738	30,492	0,092	0,057
-210,723	-20,790	0,076	-0,034
-209,709	-62,424	-0,068	0,020
-208,694	375,056	-0,079	-0,117
-207,679	-14,350	-0,077	-0,036
-206,665	-47,342	0,116	-0,041
-205,650	641,530	0,087	0,161
-204,636	-200,000	0,027	0,120
-203,621	-200,000	0,025	0,084
-202,606	-74,154	0,210	-0,055
-201,592	-200,000	0,030	-0,106
-200,577	464,999	-0,088	0,144
-199,563	9,316	0,013	0,007
-198,548	-200,000	0,002	0,149
-197,533	-36,753	-0,054	0,021
-196,519	-42,137	-0,081	0,030
-195,504	487,422	0,043	-0,072
-194,490	291,906	0,026	-0,035
-193,475	82,653	-0,066	-0,052
-192,460	800,000	0,034	0,097
-191,446	17,500	-0,096	-0,055
-190,431	-175,937	0,094	0,002
-189,417	233,774	-0,072	-0,086
-188,402	450,990	-0,031	-0,050
-187,387	386,175	-0,040	-0,061
-186,373	-55,369	0,035	-0,011
-185,358	800,000	0,035	0,108
-184,344	-15,152	0,152	-0,070
-183,329	-200,000	-0,001	-0,062
-182,315	-200,000	0,000	0,024
-181,300	-200,000	-0,008	0,042
-180,285	3,185	-0,053	0,028
-179,271	109,870	-0,063	0,055
-178,256	-96,827	-0,070	-0,013
-177,242	468,200	0,002	0,004
-176,227	327,073	-0,067	0,094
-175,212	136,276	0,063	0,060
-174,198	34,395	-0,104	0,066
-173,183	90,711	0,034	0,028
-172,169	-112,799	-0,138	-0,020
-171,154	-200,000	0,028	0,098
-170,139	49,401	-0,036	-0,024
-169,125	180,979	0,088	0,094
-168,110	800,000	-0,037	0,089
-167,096	-200,000	-0,013	-0,167
-166,081	-80,121	-0,164	-0,040
-165,066	158,928	0,070	-0,071
-164,052	800,000	-0,044	-0,120
-163,037	238,013	-0,040	-0,048
-162,023	-200,000	-0,027	-0,102
-161,008	68,950	0,064	0,048
-159,993	157,294	-0,010	0,010
-158,979	216,435	-0,044	0,051
-157,964	28,593	-0,053	-0,032
-156,950	-4,634	0,111	-0,055
-155,935	157,124	-0,080	0,080
-154,920	225,257	-0,020	-0,023
-153,906	800,000	0,045	0,093
-152,891	-200,000	-0,019	0,262
-151,877	-200,000	-0,014	0,054
-150,862	-158,247	-0,135	0,006
-149,847	382,103	-0,053	-0,079
-148,833	-73,236	0,038	0,010
-147,818	31,196	0,107	0,066
-146,804	173,598	-0,036	0,038
-145,789	-200,000	-0,001	0,104
-144,775	-200,000	-0,009	-0,102
-143,760	-200,000	-0,036	-0,134
-142,745	244,048	0,087	-0,106
-141,731	-35,405	-0,141	-0,055
-140,716	-94,066	-0,030	0,006
-139,702	800,000	0,032	0,076
-138,687	217,369	0,035	-0,040
-137,672	105,596	-0,066	-0,057
-136,658	432,586	-0,076	-0,120
-135,643	32,963	-0,049	-0,031
-134,629	800,000	-0,031	-0,070
-133,614	14,494	0,083	-0,047
-132,599	42,685	-0,068	0,045
-131,585	800,000	-0,045	0,119
-130,570	196,454	0,033	0,036
-129,556	7,061	-0,162	-0,087
-128,541	-137,934	0,092	-0,007
-127,526	-200,000	0,044	0,143
-126,512	57,481	0,056	-0,040
-125,497	-103,254	-0,051	0,009
-124,483	220,281	0,075	0,087
-123,468	-143,354	-0,059	0,004
-122,453	467,120	0,058	-0,095
-121,439	800,000	-0,016	-0,052
-120,424	516,129	0,075	0,128
-119,410	538,598	0,066	0,114
-118,395	137,246	0,092	0,088
-117,380	194,778	-0,053	0,059
-116,366	-200,000	-0,015	-0,097
-115,351	730,780	-0,047	0,092
-114,337	103,542	0,014	-0,012
-113,322	363,812	-0,076	-0,111
-112,307	341,924	0,025	0,035
-111,293	-51,165	-0,124	0,042
-110,278	483,226	-0,075	-0,124
-109,264	-34,927	0,076	0,030
-108,249	524,820	-0,009	0,015
-107,234	-200,000	-0,020	0,100
-106,220	800,000	0,057	-0,117
-105,205	800,000	-0,033	-0,067
-104,191	-200,000	0,008	0,119
-103,176	66,720	0,129	0,095
-102,162	-128,571	-0,116	0,012
-101,147	-132,100	-0,135	-0,012
-100,132	-87,284	0,118	0,026
-99,118	-122,613	-0,087	0,010
-98,103	-73,975	0,066	0,017
-97,089	-107,232	-0,029	-0,005
-96,074	800,000	0,010	-0,026
-95,059	-200,000	0,037	0,189
-94,045	43,888	0,078	0,052
-93,030	134,208	-0,037	-0,035
-92,016	794,454	0,054	0,108
-91,001	541,084	0,012	-0,021
-89,986	800,000	-0,022	-0,055
-88,972	-200,000	-0,048	0,153
-87,957	797,584	-0,035	-0,069
-86,943	68,860	-0,047	0,035
-85,928	800,000	-0,064	0,129
-84,913	357,819	-0,040	-0,058
-83,899	297,341	-0,080	-0,106
-82,884	800,000	0,041	-0,117
-81,870	279,453	0,036	0,046
-80,855	-31,125	-0,087	0,035
-79,840	-109,401	-0,116	-0,018
-78,826	458,728	-0,036	-0,058
-77,811	800,000	-0,012	-0,028
-76,797	56,998	-0,171	0,121
-75,782	-17,758	0,135	-0,061
-74,767	14,884	-0,021	0,012
-73,753	-124,051	-0,046	0,005
-72,738	223,703	-0,124	0,145
-71,724	-47,800	-0,076	-0,026
-70,709	33,288	0,038	0,024
-69,694	-1,154	0,058	0,029
-68,680	147,354	0,139	0,135
-67,665	118,451	0,109	0,097
-66,651	44,611	-0,075	0,050
-65,636	-50,366	0,093	-0,031
-64,622	-50,645	-0,062	-0,021
-63,607	-200,000	0,029	-0,101
-62,592	305,610	-0,038	-0,051
-61,578	317,312	-0,064	0,088
-60,563	120,034	0,137	-0,123
-59,549	-200,000	0,010	-0,057
-58,534	-30,777	-1,763	-0,717
-57,519	800,000	-0,444	-1,210
-56,505	-200,000	-1,219	-4,683
-55,490	-149,232	0,662	0,038
-54,476	800,000	5,203	12,224
-53,461	-200,000	15,840	279,482
-52,446	-200,000	702,881	2250,437
-51,432	565,769	1618,862	2846,131
-50,417	122,141	1622,806	1463,091
-49,403	83,062	1283,873	1007,720
-48,388	37,011	1028,308	655,482
-47,373	21,581	990,382	580,268
-46,359	20,413	979,084	569,774
-45,344	18,779	974,773	561,870
-44,330	18,831	973,479	561,272
-43,315	18,509	971,829	559,243
-42,300	18,535	970,577	558,586
-41,286	18,498	969,734	557,955
-40,271	18,534	968,583	557,388
-39,257	18,501	967,949	556,893
-38,242	18,586	967,072	556,646
-37,227	18,518	966,377	556,001
-36,213	18,532	965,500	555,519
-35,198	18,416	964,723	554,675
-34,184	18,487	964,162	554,561
-33,169	18,458	962,908	553,722
-32,154	18,543	962,204	553,572
-31,140	18,552	961,206	553,004
-30,125	18,552	960,478	552,565
-29,111	18,553	959,632	552,058
-28,096	18,489	959,350	551,666
-27,082	18,447	958,431	550,982
-26,067	18,444	957,679	550,516
-25,052	18,508	956,865	550,233
-24,038	18,441	956,256	549,646
-23,023	18,463	955,634	549,336
-22,009	18,494	954,875	548,979
-20,994	18,480	954,224	548,538
-19,979	18,472	953,647	548,158
-18,965	18,478	953,046	547,809
-17,950	18,553	952,344	547,625
-16,936	18,402	951,947	546,891
-15,921	18,402	951,020	546,337
-14,906	18,327	950,569	545,816
-13,892	18,388	949,627	545,447
-12,877	18,339	948,818	544,806
-11,863	18,281	948,336	544,322
-10,848	18,377	947,847	544,328
-9,833	18,425	947,496	544,257
-8,819	18,413	946,739	543,763
-7,804	18,377	946,078	543,247
-6,790	18,356	945,315	542,718
-5,775	18,395	944,951	542,612
-4,760	18,385	944,296	542,182
-3,746	18,356	943,684	541,718
-2,731	18,274	942,900	540,987
-1,717	18,152	942,239	540,197
-0,702	18,173	941,636	539,899
0,313	18,036	940,945	539,882
1,327	21,121	939,129	548,563
2,342	30,189	796,631	489,490
3,356	27,231	449,612	271,799
4,371	-2,556	295,599	148,807
5,386	-6,600	276,845	135,507
6,400	-7,775	271,042	131,560
7,415	-8,394	268,896	129,934
8,429	-8,103	267,447	129,490
9,444	-8,035	266,713	129,185
10,459	-8,168	266,094	128,752
11,473	-8,262	265,418	128,328
12,488	-8,300	264,882	128,023
13,502	-8,435	264,248	127,582
14,517	-8,515	263,927	127,343
15,531	-8,532	263,639	127,178
16,546	-8,519	263,276	127,003
17,561	-8,413	262,722	126,820
18,575	-8,164	262,446	126,900
19,590	-8,402	262,238	126,573
20,604	-8,207	261,763	126,509
21,619	-8,389	261,536	126,224
22,634	-8,284	260,934	126,017
23,648	-8,375	260,864	125,890
24,663	-8,494	260,543	125,618
25,677	-8,432	260,294	125,542
26,692	-8,506	260,082	125,362
27,707	-8,476	259,762	125,223
28,721	-8,466	259,478	125,084
29,736	-8,546	259,262	124,897
30,750	-8,520	259,007	124,787
31,765	-8,348	258,663	124,762
32,780	-8,310	258,432	124,674
33,794	-8,677	258,451	124,346
34,809	-8,531	258,071	124,282
35,823	-8,537	257,817	124,143
36,838	-8,525	257,515	123,996
37,853	-8,515	257,213	123,850
38,867	-8,452	256,998	123,790
39,882	-8,388	256,788	123,735
40,896	-8,511	256,629	123,538
41,911	-8,618	256,295	123,273
42,926	-8,410	256,196	123,397
43,940	-8,765	256,022	122,990
44,955	-8,593	255,602	122,929
45,969	-8,705	255,361	122,703
46,984	-8,911	255,118	122,395
47,999	-9,078	254,980	122,173
49,013	-9,086	254,615	121,980
50,028	-9,448	254,440	121,568
51,042	-9,582	254,102	121,279
52,057	-9,480	253,905	121,264
53,071	-9,541	253,668	121,087
54,086	-9,371	253,624	121,203
55,101	-9,189	253,436	121,261
56,115	-9,045	253,350	121,333
57,130	-8,509	253,289	121,758
58,144	-8,422	253,064	121,715
59,159	-8,245	252,836	121,748
60,174	-8,419	252,678	121,510
61,188	-8,417	252,403	121,369
62,203	-8,548	252,261	121,177
63,217	-8,434	251,976	121,127
64,232	-8,595	251,823	120,904
65,247	-8,367	251,558	120,963
66,261	-8,434	251,341	120,790
67,276	-8,692	251,149	120,465
68,290	-8,766	250,824	120,235
69,305	-9,105	250,518	119,787
70,320	-8,954	250,291	119,797
71,334	-8,612	250,243	120,056
72,349	-8,271	250,157	120,296
73,363	-8,330	250,011	120,164
74,378	-8,358	249,823	120,040
75,393	-8,421	249,543	119,840
76,407	-8,502	249,185	119,588
77,422	-8,536	248,985	119,453
78,436	-8,467	249,028	119,522
79,451	-8,387	248,717	119,430
80,466	-8,481	248,445	119,209
81,480	-8,783	248,201	118,825
82,495	-8,676	247,923	118,772
83,509	-8,930	247,863	118,517
84,524	-8,639	247,607	118,631
85,539	-8,903	247,382	118,289
86,553	-8,960	247,326	118,203
87,568	-8,798	247,009	118,178
88,582	-8,596	246,733	118,206
89,597	-8,953	246,679	117,868
90,611	-8,656	246,591	118,066
91,626	-8,578	246,314	117,989
92,641	-8,528	246,264	117,997
93,655	-8,631	245,978	117,762
94,670	-8,649	245,703	117,605
95,684	-8,588	245,526	117,561
96,699	-8,712	245,392	117,382
97,714	-8,745	245,334	117,316
98,728	-8,864	245,031	117,062
99,743	-8,828	244,737	116,940
100,757	-8,845	244,501	116,803
101,772	-8,875	244,352	116,697
102,787	-8,856	244,224	116,641
103,801	-8,721	244,091	116,680
104,816	-8,860	244,038	116,528
105,830	-8,567	243,800	116,648
106,845	-8,435	243,710	116,704
107,860	-8,570	243,354	116,411
108,874	-8,443	243,182	116,424
109,889	-8,708	243,024	116,118
110,903	-8,715	242,734	115,963
111,918	-8,771	242,650	115,867
112,933	-8,763	242,573	115,826
113,947	-8,682	242,455	115,827
114,962	-8,480	242,169	115,847
115,976	-8,596	242,012	115,666
116,991	-8,469	241,758	115,638
118,006	-8,546	241,689	115,532
119,020	-8,542	241,496	115,433
120,035	-8,521	241,427	115,406
121,049	-8,527	241,131	115,249
122,064	-8,724	241,087	115,057
123,079	-8,650	240,831	114,985
124,093	-8,581	240,527	114,886
125,108	-8,872	240,387	114,570
126,122	-9,172	240,174	114,213
127,137	-8,952	239,970	114,286
128,151	-8,829	239,690	114,242
129,166	-8,841	239,518	114,141
130,181	-8,912	239,392	114,013
131,195	-8,845	239,050	113,894
132,210	-8,725	239,091	114,001
133,224	-8,677	239,026	114,000
134,239	-8,784	238,940	113,861
135,254	-8,523	238,536	113,870
136,268	-8,727	238,317	113,590
137,283	-9,003	238,188	113,294
138,297	-9,076	237,968	113,121
139,312	-8,861	237,708	113,161
140,327	-8,612	237,587	113,295
141,341	-8,444	237,763	113,504
142,356	-8,290	237,485	113,486
143,370	-8,397	237,395	113,347
144,385	-8,284	237,277	113,371
145,400	-8,108	237,063	113,401
146,414	-8,090	236,766	113,263
147,429	-8,394	236,650	112,953
148,443	-8,418	236,444	112,825
149,458	-8,444	236,461	112,802
150,473	-8,234	236,043	112,761
151,487	-8,497	235,961	112,501
152,502	-8,585	235,906	112,394
153,516	-8,272	235,708	112,541
154,531	-8,247	235,653	112,524
155,546	-8,429	235,273	112,188
156,560	-8,397	235,167	112,152
157,575	-8,566	234,855	111,859
158,589	-8,223	234,630	112,015
159,604	-8,371	234,690	111,916
160,619	-8,129	234,643	112,076
161,633	-8,151	234,415	111,939
162,648	-8,146	234,294	111,876
163,662	-8,315	234,127	111,651
164,677	-8,271	233,867	111,553
165,692	-8,319	233,721	111,435
166,706	-7,968	233,536	111,615
167,721	-8,168	233,378	111,371
168,735	-8,128	233,393	111,400
169,750	-8,070	233,225	111,356
170,764	-8,214	233,098	111,172
171,779	-8,365	232,716	110,860
172,794	-8,311	232,711	110,890
173,808	-8,396	232,498	110,712
174,823	-8,723	232,090	110,251
175,837	-8,888	232,024	110,079
176,852	-8,273	231,774	110,435
177,867	-8,219	231,819	110,489
178,881	-8,268	231,820	110,441
179,896	-8,070	231,462	110,415
180,910	-8,288	231,410	110,210
181,925	-8,127	231,242	110,246
182,940	-8,207	231,167	110,138
183,954	-8,118	231,016	110,125
184,969	-8,217	230,832	109,951
185,983	-8,197	230,768	109,926
186,998	-7,976	230,638	110,027
188,013	-7,959	230,269	109,854
189,027	-7,961	230,196	109,808
190,042	-7,816	229,929	109,784
191,056	-8,220	229,922	109,457
192,071	-8,065	229,705	109,464
193,086	-8,025	229,517	109,395
194,100	-8,125	229,439	109,271
195,115	-8,439	229,084	108,848
196,129	-8,784	228,863	108,467
197,144	-4,186	230,540	112,836
198,159	1,550	232,033	118,043
199,173	3,142	232,605	119,569
200,188	3,410	232,372	119,649
201,202	3,514	232,265	119,664
202,217	3,686	232,238	119,774
203,232	4,005	232,117	119,950
204,246	4,103	231,872	119,888
205,261	4,102	231,746	119,812
206,275	4,187	231,717	119,852
207,290	4,210	231,564	119,780
208,304	4,059	231,446	119,591
209,319	4,179	231,125	119,508
210,334	4,142	231,007	119,407
211,348	3,907	230,780	119,097
212,363	3,359	230,521	118,529
213,377	3,314	230,199	118,319
214,392	3,487	230,179	118,431
215,407	3,532	230,041	118,384
216,421	3,598	229,848	118,325
217,436	3,492	229,638	118,125
218,450	3,262	229,356	117,792
219,465	3,027	229,390	117,618
220,480	3,232	229,278	117,708
221,494	3,195	229,143	117,600
222,509	3,357	228,991	117,636
223,523	3,244	228,968	117,527
224,538	3,213	228,681	117,345
225,553	3,107	228,568	117,196
226,567	3,624	228,336	117,462
227,582	3,755	228,345	117,556
228,596	3,984	228,293	117,695
229,611	3,650	227,881	117,216
230,626	3,400	227,706	116,925
231,640	3,407	227,563	116,847
232,655	3,684	227,585	117,059
233,669	4,012	227,618	117,315
234,684	4,094	227,324	117,216
235,699	3,858	227,255	116,990
236,713	3,564	226,956	116,602
237,728	3,344	226,812	116,351
238,742	3,161	226,633	116,109
239,757	3,274	226,398	116,065
240,772	3,411	226,165	116,038
241,786	3,391	226,047	115,952
242,801	3,506	226,102	116,057
243,815	3,892	226,035	116,305
244,830	3,651	225,878	116,031
245,844	3,588	225,530	115,794
246,859	3,508	225,488	115,702
247,874	3,619	225,415	115,738
248,888	3,684	225,274	115,704
249,903	3,694	224,954	115,538
250,917	3,607	224,834	115,400
251,932	3,429	224,553	115,112
252,947	3,300	224,551	115,004
253,961	3,450	224,386	115,021
254,976	3,495	224,189	114,944
255,990	3,523	224,226	114,974
257,005	3,640	224,001	114,935
258,020	3,504	223,937	114,790
259,034	3,659	223,938	114,898
260,049	3,682	223,683	114,773
261,063	3,808	223,454	114,740
262,078	3,854	223,397	114,734
263,093	3,826	223,209	114,607
264,107	3,545	223,139	114,351
265,122	3,623	223,008	114,332
266,136	3,705	222,760	114,256
267,151	3,687	222,789	114,246
268,166	3,295	222,513	113,804
269,180	3,218	222,184	113,568
270,195	3,339	221,951	113,529
271,209	3,380	221,892	113,519
272,224	3,154	221,963	113,378
273,239	3,444	221,806	113,502
274,253	3,206	221,551	113,185
275,268	3,330	221,364	113,172
276,282	3,341	221,072	113,020
277,297	3,030	221,040	112,764
278,312	3,233	221,009	112,888
279,326	3,339	220,892	112,896
280,341	3,483	220,726	112,907
281,355	3,510	220,569	112,837
282,370	3,335	220,357	112,590
283,384	3,224	220,158	112,396
284,399	3,087	220,134	112,274
285,414	3,306	219,960	112,336
286,428	3,555	219,800	112,426
287,443	3,406	219,692	112,252
288,457	3,245	219,818	112,188
289,472	3,276	219,446	112,011
290,487	3,170	219,043	111,718
291,501	2,999	218,978	111,550
292,516	3,301	218,837	111,688
293,530	3,103	218,813	111,522
294,545	3,088	218,739	111,463
295,560	3,237	218,577	111,480
296,574	3,154	218,524	111,382
297,589	3,597	218,204	111,531
298,603	3,469	218,167	111,409
299,618	3,338	218,067	111,253
300,633	3,485	218,062	111,348
301,647	3,615	217,923	111,361
302,662	3,540	217,738	111,202
303,676	3,585	217,497	111,101
304,691	3,480	217,408	110,970
305,706	3,705	217,279	111,057
306,720	3,487	217,211	110,855
307,735	3,345	216,972	110,620
308,749	3,152	216,824	110,396
309,764	3,422	216,659	110,497
310,779	3,345	216,610	110,407
311,793	3,439	216,270	110,291
312,808	3,270	216,292	110,170
313,822	3,469	216,185	110,249
314,837	3,421	215,912	110,065
315,852	3,341	215,748	109,915
316,866	3,564	215,623	110,001
317,881	3,746	215,526	110,072
318,895	3,732	215,470	110,025
319,910	3,503	215,209	109,717
320,925	3,071	214,991	109,287
321,939	2,930	214,902	109,132
322,954	3,104	214,922	109,256
323,968	3,461	214,845	109,463
324,983	3,572	214,618	109,416
325,997	3,796	214,423	109,467
327,012	3,464	214,393	109,205
328,027	3,376	214,296	109,083
329,041	3,747	214,126	109,251
330,056	3,669	214,094	109,169
331,070	3,457	213,781	108,850
332,085	3,159	213,502	108,486
333,100	3,518	213,338	108,647
334,114	3,765	213,255	108,771
335,129	3,701	213,006	108,589
336,143	3,299	212,922	108,252
337,158	3,272	212,890	108,207
338,173	3,464	212,725	108,249
339,187	3,334	212,628	108,098
340,202	3,030	212,521	107,820
341,216	3,049	212,256	107,690
342,231	3,102	212,275	107,727
343,246	3,309	211,937	107,691
344,260	3,118	212,011	107,585
345,275	3,204	211,916	107,587
346,289	3,555	211,719	107,724
347,304	3,510	211,605	107,625
348,319	3,387	211,361	107,405
349,333	3,469	211,264	107,404
350,348	3,548	211,175	107,404
351,362	3,556	211,125	107,375
352,377	3,763	210,949	107,420
353,392	3,368	210,953	107,137
354,406	3,320	210,654	106,942
355,421	195,221	1343,177	1428,754
356,435	155,891	1481,201	1428,789
