DTS Sentinel unit serial number:	SN410029Multiplexer serial number:	ORYXHardware model number:	OX2-SRSoftware version number:	ORYX F/W v4,00 Oryx Data Collector v3.7.2.0data status	okinstallation	B6 Nyhavnadifferential loss correction	single-endedforward channel	channel 2reverse channel	N/Adate	2023/12/11time	09:05:08forward acquisition time	300,00reverse acquisition time	0,00gamma	499,1914k internal	0,3135k external	0,3135temperature offset calibration	1,0000default loss term (dB/km)	0,3820temperature slope calibration	1,0000multiplexer offset coefficient	1,0000multiplexer slope coefficient	1,0000fibre end	0,00T internal ref (°C)	17,11T ext. ref 1 (°C)	-0,53T ext. ref 2 (°C)	-0,54length (m)	temperature (°C)	Stokes	anti-Stokes-744,400	-200,000	0,025	0,089
-743,385	-91,410	-0,308	0,065
-742,371	656,716	-0,023	-0,044
-741,356	-14,075	-0,216	0,103
-740,342	-113,505	0,261	-0,037
-739,327	-124,918	-0,220	0,025
-738,312	800,000	0,036	0,076
-737,298	-104,413	-0,258	-0,044
-736,283	-105,547	-0,061	0,010
-735,269	-83,045	-0,402	0,095
-734,254	-8,216	0,045	-0,023
-733,239	-56,965	-0,492	-0,160
-732,225	-44,000	0,199	0,074
-731,210	447,668	-0,055	0,090
-730,196	51,439	-0,079	-0,055
-729,181	-200,000	-0,000	0,010
-728,167	-200,000	-0,034	-0,158
-727,152	-16,136	-0,065	-0,030
-726,137	293,253	-0,053	-0,071
-725,123	422,562	-0,053	-0,084
-724,108	-50,218	0,032	0,011
-723,094	108,990	-0,066	-0,059
-722,079	140,594	0,048	-0,047
-721,064	-200,000	0,012	0,084
-720,050	139,366	-0,071	-0,069
-719,035	-200,000	0,002	0,038
-718,021	-200,000	-0,001	-0,028
-717,006	800,000	0,025	0,079
-715,991	589,753	0,017	-0,032
-714,977	135,631	-0,004	-0,004
-713,962	-103,115	-0,068	0,012
-712,948	-200,000	0,002	-0,138
-711,933	78,476	0,087	-0,069
-710,918	-200,000	0,036	0,151
-709,904	424,370	-0,048	-0,077
-708,889	704,943	-0,012	-0,025
-707,875	800,000	0,017	-0,047
-706,860	-200,000	0,020	-0,165
-705,845	550,780	-0,011	-0,020
-704,831	-102,428	-0,058	-0,010
-703,816	190,442	0,020	0,022
-702,802	68,823	-0,023	0,018
-701,787	800,000	-0,050	-0,134
-700,772	800,000	0,002	-0,006
-699,758	800,000	0,019	0,054
-698,743	-200,000	-0,004	-0,064
-697,729	278,701	-0,060	0,079
-696,714	800,000	-0,033	0,069
-695,699	-200,000	-0,026	0,099
-694,685	-197,085	-0,064	0,000
-693,670	-200,000	-0,024	-0,087
-692,656	62,658	-0,150	-0,111
-691,641	800,000	0,015	-0,046
-690,627	800,000	-0,075	0,201
-689,612	248,236	-0,037	0,046
-688,597	-200,000	-0,066	0,238
-687,583	-200,000	-0,016	-0,142
-686,568	-200,000	0,027	-0,111
-685,554	-97,612	-0,090	-0,017
-684,539	-200,000	0,003	0,019
-683,524	-63,408	0,166	-0,050
-682,510	800,000	0,030	0,081
-681,495	800,000	-0,074	0,155
-680,481	-59,604	-0,142	-0,045
-679,466	-16,918	-0,063	-0,029
-678,451	-200,000	-0,013	-0,087
-677,437	-200,000	0,012	0,119
-676,422	19,065	0,081	-0,048
-675,408	105,888	0,078	0,069
-674,393	-45,274	0,066	-0,024
-673,378	83,758	0,063	0,051
-672,364	166,304	0,075	-0,079
-671,349	-200,000	-0,011	-0,041
-670,335	502,468	0,019	0,033
-669,320	554,681	0,025	0,045
-668,305	218,773	-0,065	0,078
-667,291	-118,768	0,024	-0,003
-666,276	-120,852	0,105	-0,013
-665,262	42,387	0,127	-0,085
-664,247	26,139	-0,063	0,039
-663,232	-200,000	-0,019	0,206
-662,218	45,097	0,071	0,049
-661,203	437,732	-0,067	0,108
-660,189	404,897	0,039	-0,061
-659,174	128,791	-0,033	0,032
-658,159	51,868	-0,086	0,060
-657,145	135,231	-0,056	0,054
-656,130	-45,726	0,020	0,007
-655,116	-200,000	0,003	-0,041
-654,101	-14,915	-0,084	0,040
-653,086	72,521	0,125	-0,096
-652,072	800,000	0,034	-0,077
-651,057	-200,000	0,037	-0,165
-650,043	115,476	-0,048	-0,043
-649,028	109,000	-0,052	-0,046
-648,014	54,969	-0,046	-0,033
-646,999	-200,000	0,038	-0,202
-645,984	-142,309	-0,096	0,007
-644,970	-66,685	-0,091	-0,027
-643,955	-103,185	-0,212	-0,037
-642,941	-26,847	-0,007	0,003
-641,926	195,665	0,098	0,110
-640,911	63,111	0,106	-0,079
-639,897	-95,502	0,081	0,016
-638,882	107,379	-0,052	0,046
-637,868	-200,000	-0,022	-0,135
-636,853	159,257	-0,161	-0,166
-635,838	-200,000	-0,016	-0,073
-634,824	-200,000	-0,009	-0,033
-633,809	199,383	0,043	0,048
-632,795	800,000	0,035	0,079
-631,780	-200,000	0,025	0,094
-630,765	129,492	0,041	0,039
-629,751	800,000	-0,019	0,042
-628,736	-76,865	0,065	0,017
-627,722	296,608	0,026	0,035
-626,707	795,238	0,023	-0,046
-625,692	514,077	-0,062	0,108
-624,678	-57,641	0,062	-0,020
-623,663	456,719	0,037	-0,061
-622,649	800,000	-0,026	-0,061
-621,634	-200,000	-0,007	0,079
-620,619	800,000	0,045	-0,133
-619,605	800,000	0,051	-0,148
-618,590	-200,000	0,004	0,022
-617,576	-200,000	0,009	0,089
-616,561	45,562	-0,051	-0,034
-615,546	-200,000	0,001	0,012
-614,532	-200,000	-0,025	-0,126
-613,517	23,827	-0,014	0,009
-612,503	100,243	0,117	-0,101
-611,488	665,839	0,028	-0,054
-610,474	46,330	-0,125	0,085
-609,459	133,468	-0,064	-0,061
-608,444	1,854	-0,057	0,030
-607,430	-200,000	0,026	-0,115
-606,415	800,000	0,007	-0,019
-605,401	-58,503	0,106	0,034
-604,386	191,376	-0,074	0,082
-603,371	-185,225	-0,022	-0,000
-602,357	-77,086	-0,079	0,020
-601,342	-16,767	0,025	0,012
-600,328	391,285	0,042	-0,065
-599,313	173,422	-0,106	0,113
-598,298	-200,000	-0,016	-0,108
-597,284	-200,000	-0,009	-0,075
-596,269	81,366	0,088	0,071
-595,255	-81,549	-0,111	0,027
-594,240	17,625	-0,009	0,005
-593,225	800,000	-0,049	-0,131
-592,211	-33,553	-0,143	-0,058
-591,196	-200,000	0,006	-0,041
-590,182	265,252	-0,043	0,056
-589,167	301,466	-0,078	-0,106
-588,152	-200,000	0,054	0,237
-587,138	-27,419	-0,089	0,038
-586,123	800,000	-0,013	-0,033
-585,109	800,000	-0,022	-0,065
-584,094	800,000	-0,021	-0,049
-583,079	62,567	0,045	-0,033
-582,065	800,000	0,024	-0,068
-581,050	29,419	-0,047	-0,030
-580,036	3,872	0,087	0,047
-579,021	-65,697	-0,042	-0,012
-578,006	800,000	-0,048	-0,129
-576,992	-159,078	-0,089	0,004
-575,977	184,549	-0,043	0,047
-574,963	31,414	-0,125	0,079
-573,948	-87,438	0,145	-0,032
-572,934	-127,473	0,041	-0,004
-571,919	-130,458	0,134	0,013
-570,904	-200,000	-0,014	-0,076
-569,890	-32,988	-0,136	0,056
-568,875	-74,439	0,013	0,003
-567,861	37,402	0,044	-0,029
-566,846	360,782	0,038	0,056
-565,831	287,689	-0,007	0,009
-564,817	-200,000	-0,042	0,165
-563,802	163,119	0,071	-0,074
-562,788	447,279	-0,052	-0,085
-561,773	-200,000	0,007	0,106
-560,758	-60,729	-0,072	0,022
-559,744	-31,730	0,031	-0,013
-558,729	100,088	-0,048	-0,041
-557,715	800,000	-0,029	-0,077
-556,700	-159,704	-0,110	0,004
-555,685	-200,000	-0,007	0,084
-554,671	-200,000	0,038	0,169
-553,656	37,048	0,036	0,024
-552,642	168,700	-0,081	-0,085
-551,627	38,075	-0,057	-0,037
-550,612	-126,620	0,037	-0,004
-549,598	800,000	-0,034	-0,086
-548,583	13,832	0,062	-0,035
-547,569	-200,000	-0,002	0,153
-546,554	473,912	0,058	0,097
-545,539	-68,939	-0,023	-0,007
-544,525	458,373	-0,016	0,026
-543,510	114,224	-0,031	0,028
-542,496	-0,243	-0,155	-0,081
-541,481	-67,053	0,031	-0,009
-540,466	800,000	0,029	-0,090
-539,452	-98,342	0,072	0,013
-538,437	-200,000	0,026	-0,085
-537,423	-158,175	0,100	-0,004
-536,408	-3,284	-0,060	0,031
-535,393	-135,066	-0,177	-0,015
-534,379	59,607	0,070	0,051
-533,364	595,330	-0,034	0,061
-532,350	-200,000	0,003	-0,013
-531,335	176,617	0,039	0,042
-530,321	617,962	0,091	0,169
-529,306	-200,000	0,002	0,051
-528,291	-78,040	-0,069	-0,017
-527,277	-200,000	0,004	0,022
-526,262	161,811	0,055	0,057
-525,248	311,359	-0,038	0,053
-524,233	-200,000	-0,006	0,120
-523,218	-79,805	0,065	0,016
-522,204	112,143	0,065	-0,058
-521,189	800,000	-0,006	0,013
-520,175	800,000	-0,039	-0,124
-519,160	-97,747	0,089	0,017
-518,145	-200,000	-0,009	0,082
-517,131	-89,329	0,132	0,028
-516,116	41,611	0,108	0,072
-515,102	-198,633	0,056	-0,000
-514,087	-200,000	-0,000	0,053
-513,072	-126,522	-0,049	0,005
-512,058	-26,243	-0,065	0,028
-511,043	370,059	-0,034	0,051
-510,029	-65,467	-0,069	0,020
-509,014	-200,000	-0,006	0,116
-507,999	77,624	0,048	-0,038
-506,985	-194,138	-0,167	-0,001
-505,970	87,268	-0,077	-0,062
-504,956	-200,000	0,005	-0,183
-503,941	800,000	-0,027	-0,089
-502,926	535,814	-0,014	-0,025
-501,912	108,947	0,051	0,045
-500,897	-116,161	-0,157	0,021
-499,883	385,532	0,079	-0,120
-498,868	182,794	-0,083	-0,090
-497,853	-115,137	-0,135	0,019
-496,839	64,382	0,100	-0,074
-495,824	-121,847	0,117	0,014
-494,810	46,206	0,018	-0,012
-493,795	118,570	0,085	0,077
-492,781	-41,407	0,082	-0,031
-491,766	16,862	-0,076	0,044
-490,751	-200,000	0,006	-0,061
-489,737	77,193	-0,060	-0,047
-488,722	351,745	0,108	0,158
-487,708	184,105	0,067	0,073
-486,693	-62,996	-0,138	0,042
-485,678	283,115	-0,031	-0,041
-484,664	-33,399	-0,119	-0,048
-483,649	-179,300	-0,066	0,001
-482,635	44,271	0,076	0,051
-481,620	24,547	0,109	0,066
-480,605	-79,592	0,032	-0,008
-479,591	-62,782	-0,115	0,035
-478,576	-101,843	-0,144	-0,025
-477,562	800,000	0,050	0,128
-476,547	-200,000	0,013	-0,097
-475,532	56,188	0,057	0,041
-474,518	-127,864	-0,169	0,018
-473,503	800,000	0,044	-0,092
-472,489	29,881	-0,052	0,033
-471,474	-23,251	0,092	0,040
-470,459	-200,000	0,026	-0,104
-469,445	147,162	-0,054	-0,053
-468,430	-125,936	-0,095	-0,010
-467,416	216,695	0,134	-0,157
-466,401	138,769	-0,079	-0,076
-465,386	-114,162	0,048	-0,007
-464,372	-116,727	-0,076	-0,010
-463,357	-69,693	-0,206	0,057
-462,343	800,000	-0,068	-0,142
-461,328	347,787	-0,016	-0,023
-460,313	8,865	0,247	-0,136
-459,299	39,159	-0,104	-0,068
-458,284	99,331	0,068	-0,057
-457,270	800,000	-0,038	0,111
-456,255	800,000	0,007	0,022
-455,241	322,480	0,026	0,037
-454,226	-200,000	-0,030	-0,123
-453,211	-200,000	0,004	-0,101
-452,197	-29,723	0,114	-0,047
-451,182	-200,000	0,000	0,074
-450,168	-95,960	0,097	0,019
-449,153	82,325	-0,031	0,024
-448,138	-200,000	0,010	-0,093
-447,124	-200,000	-0,012	0,060
-446,109	800,000	-0,018	0,044
-445,095	-200,000	0,002	0,017
-444,080	256,774	-0,007	0,009
-443,065	-18,676	-0,114	-0,052
-442,051	-200,000	0,029	-0,130
-441,036	-200,000	-0,016	-0,065
-440,022	-200,000	-0,019	0,114
-439,007	-3,025	0,103	0,053
-437,992	800,000	0,017	0,036
-436,978	-200,000	0,032	0,153
-435,963	-50,745	0,106	-0,036
-434,949	-200,000	-0,000	0,062
-433,934	800,000	-0,039	0,097
-432,919	196,286	0,091	-0,102
-431,905	-200,000	-0,017	0,216
-430,890	-122,422	-0,019	-0,002
-429,876	-89,894	0,040	0,008
-428,861	800,000	0,009	0,024
-427,846	-200,000	-0,021	-0,118
-426,832	-200,000	-0,004	-0,068
-425,817	-102,395	-0,129	-0,022
-424,803	5,460	-0,034	0,018
-423,788	372,045	-0,017	0,025
-422,773	-200,000	0,010	0,098
-421,759	-143,587	-0,091	0,006
-420,744	23,149	-0,065	0,039
-419,730	-65,818	-0,083	-0,024
-418,715	800,000	-0,064	-0,146
-417,701	104,192	0,051	0,044
-416,686	-137,442	0,137	0,011
-415,671	280,989	-0,029	-0,039
-414,657	78,533	0,015	-0,012
-413,642	-200,000	-0,024	0,095
-412,628	72,204	0,165	0,126
-411,613	204,944	0,063	0,072
-410,598	87,237	-0,072	-0,059
-409,584	-129,825	-0,184	0,018
-408,569	265,087	-0,040	0,051
-407,555	-62,827	0,103	0,031
-406,540	800,000	0,015	-0,034
-405,525	263,314	-0,045	0,057
-404,511	-79,163	-0,083	0,020
-403,496	-200,000	-0,022	-0,161
-402,482	-200,000	0,039	0,137
-401,467	-200,000	-0,023	0,118
-400,452	233,310	0,041	-0,049
-399,438	-200,000	0,013	-0,054
-398,423	254,481	0,085	-0,107
-397,409	319,657	0,061	-0,085
-396,394	408,768	-0,048	-0,075
-395,379	-191,994	-0,046	0,000
-394,365	119,131	0,097	0,088
-393,350	-14,580	0,133	0,062
-392,336	-200,000	-0,003	0,137
-391,321	498,983	0,021	0,036
-390,306	-81,174	0,097	-0,023
-389,292	259,007	0,063	-0,079
-388,277	98,945	0,046	-0,038
-387,263	-200,000	-0,011	0,147
-386,248	-200,000	-0,016	0,165
-385,233	177,005	0,029	0,031
-384,219	-51,327	-0,114	-0,039
-383,204	-200,000	-0,008	0,031
-382,190	800,000	-0,004	0,009
-381,175	-0,822	-0,130	-0,067
-380,160	-200,000	-0,008	0,049
-379,146	513,952	-0,016	-0,027
-378,131	-200,000	-0,012	0,067
-377,117	88,076	-0,036	-0,029
-376,102	-200,000	-0,006	-0,091
-375,088	800,000	0,036	-0,093
-374,073	800,000	0,061	0,164
-373,058	-25,097	-0,017	0,007
-372,044	23,048	0,135	0,081
-371,029	-200,000	0,006	0,279
-370,015	33,699	0,048	-0,030
-369,000	800,000	0,043	0,109
-367,985	-200,000	0,014	-0,047
-366,971	-200,000	0,029	0,134
-365,956	170,734	-0,023	-0,024
-364,942	482,659	0,061	0,102
-363,927	-45,892	0,076	0,027
-362,912	356,926	0,012	-0,017
-361,898	19,104	-0,099	-0,058
-360,883	9,772	-0,053	0,029
-359,869	685,283	0,038	-0,073
-358,854	800,000	-0,014	-0,030
-357,839	-137,540	0,127	0,010
-356,825	-94,219	0,109	0,022
-355,810	-200,000	-0,007	-0,033
-354,796	164,171	-0,057	0,059
-353,781	537,576	-0,058	-0,100
-352,766	18,017	0,036	-0,021
-351,752	9,872	-0,027	-0,015
-350,737	-169,279	-0,139	-0,004
-349,723	-144,633	0,089	0,006
-348,708	-200,000	-0,014	0,050
-347,693	-200,000	0,034	-0,173
-346,679	800,000	-0,040	0,084
-345,664	59,995	-0,081	0,059
-344,650	-200,000	-0,011	0,103
-343,635	-35,490	0,029	-0,011
-342,620	223,237	0,145	0,172
-341,606	143,383	-0,016	0,016
-340,591	-200,000	0,019	0,182
-339,577	109,576	0,037	-0,032
-338,562	-200,000	-0,000	-0,049
-337,548	-200,000	0,014	-0,082
-336,533	-200,000	0,001	0,072
-335,518	800,000	0,029	-0,076
-334,504	-197,999	-0,104	-0,000
-333,489	34,520	-0,043	0,027
-332,475	-200,000	0,030	-0,120
-331,460	800,000	0,032	-0,074
-330,445	93,650	-0,020	0,017
-329,431	800,000	-0,025	-0,070
-328,416	-71,296	0,083	-0,022
-327,402	14,249	-0,052	-0,030
-326,387	81,909	0,056	-0,044
-325,372	-83,514	-0,040	0,009
-324,358	40,792	-0,047	0,031
-323,343	-109,124	0,047	-0,007
-322,329	-39,242	0,023	-0,009
-321,314	-1,087	0,131	-0,067
-320,299	187,735	0,090	-0,098
-319,285	180,109	0,072	0,078
-318,270	-200,000	-0,018	-0,076
-317,256	-2,515	-0,093	-0,047
-316,241	-64,793	-0,079	0,023
-315,226	-140,632	0,059	0,004
-314,212	-65,830	-0,014	0,004
-313,197	533,355	-0,014	-0,025
-312,183	-200,000	0,034	0,187
-311,168	-200,000	-0,038	-0,126
-310,153	-200,000	-0,047	-0,162
-309,139	-61,816	0,102	-0,031
-308,124	-200,000	0,030	0,098
-307,110	-200,000	-0,018	0,201
-306,095	-119,932	0,110	-0,014
-305,080	800,000	0,067	-0,172
-304,066	357,338	0,120	-0,175
-303,051	-200,000	-0,008	-0,178
-302,037	800,000	0,049	-0,133
-301,022	-200,000	0,047	0,162
-300,008	-138,966	0,072	-0,006
-298,993	-200,000	0,011	0,051
-297,978	-200,000	0,011	0,157
-296,964	234,805	0,125	-0,150
-295,949	479,927	-0,061	-0,101
-294,935	-95,612	-0,044	0,009
-293,920	79,218	-0,108	0,085
-292,905	104,558	0,086	0,074
-291,891	800,000	-0,004	-0,010
-290,876	800,000	-0,023	0,058
-289,862	-128,907	0,100	-0,010
-288,847	582,636	-0,029	-0,053
-287,832	495,622	-0,053	0,089
-286,818	144,799	-0,033	-0,032
-285,803	-102,648	-0,099	0,017
-284,789	-172,639	-0,095	0,002
-283,774	-200,000	0,016	0,070
-282,759	-6,929	-0,097	-0,048
-281,745	418,875	0,006	0,010
-280,730	23,472	-0,098	0,059
-279,716	755,480	0,033	0,066
-278,701	595,615	-0,046	0,084
-277,686	108,336	0,152	0,132
-276,672	800,000	-0,018	-0,046
-275,657	325,075	-0,052	-0,073
-274,643	-200,000	-0,006	0,147
-273,628	-200,000	0,003	-0,141
-272,613	-197,763	0,107	-0,000
-271,599	-12,101	0,072	-0,034
-270,584	-175,884	-0,038	0,001
-269,570	16,587	0,059	0,034
-268,555	721,642	0,027	0,054
-267,540	-134,918	-0,072	0,006
-266,526	13,342	0,140	-0,079
-265,511	-200,000	-0,008	-0,050
-264,497	-114,330	0,144	0,020
-263,482	-200,000	-0,006	0,115
-262,467	800,000	0,028	0,075
-261,453	48,682	-0,054	0,037
-260,438	-40,236	-0,063	0,024
-259,424	761,989	-0,092	-0,183
-258,409	-162,834	0,032	-0,001
-257,395	58,735	-0,099	0,071
-256,380	61,651	0,044	-0,032
-255,365	261,925	0,059	0,075
-254,351	-65,009	0,065	-0,019
-253,336	78,106	0,082	0,063
-252,322	162,761	-0,083	0,085
-251,307	257,580	0,092	-0,115
-250,292	44,398	-0,094	0,063
-249,278	-200,000	0,027	0,093
-248,263	800,000	0,006	-0,016
-247,249	561,063	-0,018	0,032
-246,234	209,653	-0,069	0,078
-245,219	9,974	0,045	0,025
-244,205	132,497	0,051	0,048
-243,190	-4,070	0,061	-0,031
-242,176	-140,875	-0,105	0,008
-241,161	-200,000	0,014	0,047
-240,146	800,000	-0,008	-0,017
-239,132	800,000	0,051	-0,131
-238,117	-4,694	-0,064	0,032
-237,103	38,176	-0,108	-0,070
-236,088	-1,150	0,075	0,039
-235,073	195,744	0,075	0,083
-234,059	124,964	0,037	-0,034
-233,044	-200,000	0,013	0,077
-232,030	385,089	0,042	-0,063
-231,015	192,519	0,068	-0,075
-230,000	505,128	0,052	-0,088
-228,986	-74,886	-0,019	0,005
-227,971	-200,000	-0,016	-0,209
-226,957	614,885	0,029	-0,053
-225,942	-79,356	-0,165	0,040
-224,927	-120,793	-0,180	-0,022
-223,913	-108,177	0,051	-0,008
-222,898	-0,690	-0,002	0,001
-221,884	225,356	-0,071	0,084
-220,869	-55,336	-0,065	0,021
-219,855	-78,671	0,035	-0,009
-218,840	57,773	0,084	-0,060
-217,825	-12,932	0,097	0,046
-216,811	70,082	0,007	-0,005
-215,796	-200,000	0,028	-0,112
-214,782	71,078	0,033	-0,025
-213,767	800,000	-0,042	0,103
-212,752	-60,525	0,115	0,035
-211,738	-90,034	0,081	0,017
-210,723	-153,528	0,015	-0,001
-209,709	-64,345	-0,046	0,014
-208,694	-150,045	-0,140	0,008
-207,679	800,000	0,079	0,206
-206,665	113,351	0,046	-0,040
-205,650	484,131	-0,058	-0,096
-204,636	-200,000	0,003	0,077
-203,621	3,887	-0,132	0,070
-202,606	800,000	-0,008	-0,021
-201,592	22,692	-0,159	-0,094
-200,577	-119,846	-0,029	-0,004
-199,563	800,000	0,018	-0,053
-198,548	632,251	0,061	-0,112
-197,533	105,687	-0,017	0,014
-196,519	126,816	-0,097	0,089
-195,504	-130,896	-0,047	0,005
-194,490	284,056	0,145	-0,189
-193,475	399,534	-0,061	-0,093
-192,460	-200,000	0,001	-0,072
-191,446	-200,000	-0,022	0,000
-190,431	116,667	0,174	0,155
-189,417	800,000	0,057	-0,157
-188,402	-200,000	0,007	-0,025
-187,387	-200,000	0,009	-0,099
-186,373	65,665	-0,042	0,031
-185,358	224,348	-0,049	0,058
-184,344	-116,317	-0,221	-0,029
-183,329	800,000	0,008	0,023
-182,315	119,249	-0,072	0,065
-181,300	778,252	0,024	0,047
-180,285	74,337	-0,082	-0,063
-179,271	447,928	-0,010	-0,016
-178,256	696,068	0,029	-0,055
-177,242	-200,000	-0,005	0,093
-176,227	304,887	0,064	0,087
-175,212	-32,261	0,109	0,044
-174,198	189,815	-0,099	-0,109
-173,183	-200,000	0,019	-0,087
-172,169	-200,000	0,000	-0,042
-171,154	189,379	-0,068	0,074
-170,139	-200,000	-0,015	-0,123
-169,125	-47,231	0,064	0,022
-168,110	-200,000	0,001	0,113
-167,096	158,763	0,120	0,121
-166,081	-200,000	-0,015	0,151
-165,066	800,000	-0,042	-0,129
-164,052	-103,926	-0,017	-0,003
-163,037	1,976	-0,014	-0,007
-162,023	-200,000	0,008	0,030
-161,008	-200,000	0,011	0,039
-159,993	112,603	0,038	-0,033
-158,979	-200,000	-0,002	0,008
-157,964	255,836	0,044	-0,055
-156,950	-200,000	-0,019	-0,134
-155,935	781,159	0,037	-0,074
-154,920	12,032	0,096	-0,053
-153,906	-200,000	0,025	0,102
-152,891	-33,806	0,122	0,049
-151,877	-200,000	-0,007	-0,059
-150,862	-200,000	0,006	-0,154
-149,847	443,980	-0,037	-0,060
-148,833	800,000	0,022	0,045
-147,818	75,599	0,184	-0,141
-146,804	-35,800	-0,026	-0,010
-145,789	-200,000	-0,025	0,090
-144,775	196,182	-0,082	-0,091
-143,760	219,105	-0,051	-0,059
-142,745	800,000	-0,023	-0,064
-141,731	-90,537	-0,043	-0,009
-140,716	292,456	0,045	0,059
-139,702	-26,911	-0,078	0,033
-138,687	800,000	0,048	0,111
-137,672	263,598	-0,047	0,059
-136,658	800,000	-0,051	-0,108
-135,643	-200,000	0,025	0,112
-134,629	82,487	0,094	0,074
-133,614	212,625	0,056	0,065
-132,599	219,048	-0,138	0,160
-131,585	70,119	-0,025	0,019
-130,570	-200,000	-0,001	-0,010
-129,556	-200,000	-0,012	0,049
-128,541	-130,598	-0,145	-0,014
-127,526	-9,378	0,058	0,028
-126,512	-104,361	-0,191	-0,032
-125,497	800,000	-0,022	-0,064
-124,483	-200,000	-0,020	-0,110
-123,468	-151,810	-0,141	-0,007
-122,453	-124,901	-0,096	0,011
-121,439	-200,000	-0,024	-0,079
-120,424	460,019	0,086	-0,140
-119,410	-96,724	-0,043	-0,008
-118,395	272,872	0,130	0,167
-117,380	319,915	0,042	-0,058
-116,366	-200,000	0,002	0,068
-115,351	362,240	0,048	-0,070
-114,337	-28,101	-0,013	0,005
-113,322	-200,000	0,018	-0,064
-112,307	8,664	-0,112	0,061
-111,293	-200,000	-0,010	0,078
-110,278	131,401	0,113	0,105
-109,264	-200,000	-0,010	0,106
-108,249	540,943	0,024	0,042
-107,234	-200,000	-0,009	0,038
-106,220	151,877	-0,077	-0,076
-105,205	98,780	0,076	-0,064
-104,191	153,935	0,098	0,097
-103,176	-200,000	-0,005	0,098
-102,162	-2,295	-0,093	0,047
-101,147	-200,000	-0,003	-0,050
-100,132	94,277	-0,034	0,028
-99,118	217,472	-0,071	-0,082
-98,103	595,275	0,049	-0,089
-97,089	422,669	0,047	-0,073
-96,074	637,770	0,017	0,032
-95,059	520,770	-0,022	0,038
-94,045	-25,345	-0,120	0,051
-93,030	-111,277	0,021	0,003
-92,016	-28,857	-0,129	-0,053
-91,001	-139,362	0,127	-0,010
-89,986	26,027	-0,071	-0,043
-88,972	231,405	-0,022	0,026
-87,957	-107,402	0,101	-0,016
-86,943	166,402	0,144	-0,148
-85,928	800,000	-0,023	0,066
-84,913	-200,000	-0,025	-0,133
-83,899	-15,100	-0,102	-0,047
-82,884	14,549	-0,131	0,074
-81,870	-200,000	0,014	0,096
-80,855	800,000	-0,038	-0,098
-79,840	119,650	-0,031	-0,027
-78,826	-200,000	0,015	-0,106
-77,811	-167,462	0,094	0,003
-76,797	458,700	-0,082	-0,132
-75,782	335,662	0,008	-0,011
-74,767	-200,000	-0,033	-0,119
-73,753	315,403	-0,072	-0,099
-72,738	24,668	0,040	0,024
-71,724	111,944	0,061	0,054
-70,709	-147,144	0,156	-0,010
-69,694	-151,962	-0,037	0,002
-68,680	-78,430	0,118	-0,029
-67,665	-53,118	0,019	-0,006
-66,651	-2,000	0,155	0,079
-65,636	800,000	-0,036	0,113
-64,622	-200,000	0,009	-0,061
-63,607	-200,000	-0,005	-0,153
-62,592	270,120	-0,042	-0,053
-61,578	-200,000	0,006	0,075
-60,563	-200,000	0,007	0,029
-59,549	-23,541	0,044	0,019
-58,534	-18,618	-1,715	-0,770
-57,519	800,000	-0,344	-0,953
-56,505	-200,000	-1,160	-4,833
-55,490	-61,178	0,699	0,212
-54,476	800,000	5,336	12,138
-53,461	-200,000	16,653	271,046
-52,446	800,000	711,814	2206,793
-51,432	558,378	1622,879	2841,598
-50,417	115,415	1620,177	1430,872
-49,403	80,444	1281,641	996,797
-48,388	34,646	1028,052	648,052
-47,373	20,808	990,195	578,283
-46,359	19,530	978,490	567,204
-45,344	17,453	974,470	558,008
-44,330	17,546	973,028	557,466
-43,315	17,196	971,352	555,334
-42,300	17,157	970,345	554,607
-41,286	17,136	969,240	553,883
-40,271	17,205	968,055	553,413
-39,257	17,167	967,380	552,879
-38,242	17,195	966,452	552,417
-37,227	17,177	965,769	551,948
-36,213	17,145	964,990	551,375
-35,198	17,109	964,155	550,758
-34,184	17,233	963,297	550,652
-33,169	17,056	962,602	549,655
-32,154	17,162	961,526	549,363
-31,140	17,111	960,582	548,639
-30,125	17,168	959,746	548,322
-29,111	17,162	958,991	547,852
-28,096	17,173	958,338	547,493
-27,082	17,185	957,609	547,093
-26,067	17,134	956,849	546,472
-25,052	17,180	955,927	546,073
-24,038	17,178	955,260	545,662
-23,023	17,105	954,805	545,144
-22,009	17,156	953,901	544,773
-20,994	17,185	953,423	544,570
-19,979	17,154	952,884	544,141
-18,965	17,076	952,270	543,518
-17,950	17,124	951,684	543,315
-16,936	17,110	950,754	542,719
-15,921	17,074	950,234	542,284
-14,906	17,008	949,569	541,673
-13,892	17,020	948,886	541,300
-12,877	16,970	948,355	540,816
-11,863	16,957	947,637	540,342
-10,848	17,029	947,057	540,220
-9,833	17,148	946,370	540,189
-8,819	17,061	945,964	539,658
-7,804	17,023	945,150	539,050
-6,790	16,987	944,725	538,669
-5,775	17,047	944,048	538,456
-4,760	17,117	943,434	538,308
-3,746	17,021	942,747	537,587
-2,731	16,875	942,168	536,773
-1,717	16,828	941,420	536,173
-0,702	16,875	940,703	535,895
0,313	16,653	940,183	535,700
1,327	20,040	938,122	545,219
2,342	29,493	794,213	486,753
3,356	25,963	447,646	269,037
4,371	-5,285	295,300	146,067
5,386	-9,454	276,908	132,981
6,400	-10,757	270,818	128,828
7,415	-11,090	268,661	127,481
8,429	-10,903	267,477	127,081
9,444	-10,729	266,700	126,860
10,459	-10,367	265,995	126,846
11,473	-10,621	265,393	126,315
12,488	-10,588	264,841	126,071
13,502	-10,571	264,336	125,835
14,517	-10,430	263,981	125,783
15,531	-10,165	263,814	125,933
16,546	-9,742	263,367	126,092
17,561	-9,963	263,076	125,742
18,575	-9,865	262,769	125,673
19,590	-9,878	262,357	125,452
20,604	-10,006	262,300	125,298
21,619	-9,868	261,925	125,232
22,634	-9,941	261,510	124,957
23,648	-9,844	261,096	124,835
24,663	-9,815	260,972	124,791
25,677	-9,821	260,549	124,572
26,692	-9,928	260,432	124,409
27,707	-10,033	260,307	124,244
28,721	-9,875	259,784	124,125
29,736	-9,883	259,572	124,005
30,750	-9,918	259,404	123,882
31,765	-9,970	259,253	123,753
32,780	-9,996	258,853	123,528
33,794	-9,862	258,675	123,551
34,809	-9,934	258,507	123,396
35,823	-9,905	258,151	123,240
36,838	-9,927	257,990	123,134
37,853	-9,867	257,644	123,011
38,867	-10,151	257,551	122,704
39,882	-10,029	257,434	122,745
40,896	-10,112	257,107	122,504
41,911	-9,776	256,827	122,657
42,926	-10,108	256,602	122,246
43,940	-9,932	256,297	122,245
44,955	-10,201	256,216	121,959
45,969	-9,980	256,018	122,047
46,984	-10,003	255,729	121,879
47,999	-10,006	255,683	121,843
49,013	-10,233	255,362	121,480
50,028	-10,283	255,117	121,310
51,042	-10,104	254,859	121,333
52,057	-10,275	254,633	121,065
53,071	-10,394	254,514	120,893
54,086	-10,142	254,216	120,960
55,101	-10,074	253,922	120,869
56,115	-10,086	253,710	120,747
57,130	-10,072	253,817	120,799
58,144	-9,940	253,344	120,678
59,159	-9,961	253,271	120,615
60,174	-9,991	252,972	120,435
61,188	-10,171	252,874	120,222
62,203	-10,022	252,534	120,179
63,217	-10,044	252,417	120,094
64,232	-9,966	252,232	120,062
65,247	-10,187	251,817	119,663
66,261	-10,063	251,776	119,739
67,276	-10,118	251,514	119,557
68,290	-10,083	251,282	119,466
69,305	-10,175	251,011	119,247
70,320	-10,020	250,755	119,248
71,334	-10,057	250,684	119,173
72,349	-9,917	250,361	119,128
73,363	-9,941	250,205	119,023
74,378	-10,108	250,026	118,784
75,393	-10,103	249,890	118,713
76,407	-10,131	249,657	118,568
77,422	-10,003	249,522	118,602
78,436	-9,811	249,115	118,562
79,451	-10,031	248,879	118,253
80,466	-10,071	248,847	118,192
81,480	-10,169	248,557	117,960
82,495	-10,095	248,371	117,925
83,509	-10,044	248,415	117,979
84,524	-9,956	247,860	117,779
85,539	-10,096	247,906	117,671
86,553	-9,939	247,647	117,671
87,568	-10,143	247,546	117,440
88,582	-9,999	247,278	117,424
89,597	-10,101	247,107	117,246
90,611	-10,082	246,913	117,160
91,626	-10,127	246,776	117,046
92,641	-9,998	246,567	117,046
93,655	-10,331	246,490	116,718
94,670	-10,038	246,061	116,751
95,684	-10,261	245,981	116,515
96,699	-10,213	245,866	116,490
97,714	-10,117	245,612	116,440
98,728	-10,054	245,420	116,391
99,743	-10,028	245,225	116,311
100,757	-10,000	244,976	116,206
101,772	-10,181	244,810	115,965
102,787	-10,242	244,576	115,792
103,801	-10,369	244,490	115,636
104,816	-10,136	244,195	115,680
105,830	-10,189	244,006	115,537
106,845	-9,928	243,876	115,682
107,860	-10,110	243,619	115,398
108,874	-10,157	243,413	115,251
109,889	-10,366	243,213	114,972
110,903	-10,303	243,132	114,976
111,918	-10,435	242,917	114,755
112,933	-10,183	242,754	114,876
113,947	-10,239	242,499	114,699
114,962	-10,059	242,404	114,793
115,976	-10,023	242,208	114,719
116,991	-10,099	242,107	114,599
118,006	-10,258	242,091	114,450
119,020	-10,261	241,690	114,247
120,035	-10,024	241,553	114,368
121,049	-9,810	241,348	114,437
122,064	-9,975	241,212	114,227
123,079	-10,186	241,061	113,971
124,093	-10,261	240,869	113,809
125,108	-10,200	240,620	113,731
126,122	-10,219	240,709	113,747
127,137	-9,990	240,153	113,662
128,151	-10,039	240,030	113,554
129,166	-9,994	239,860	113,499
130,181	-10,325	239,731	113,157
131,195	-10,100	239,502	113,224
132,210	-10,194	239,160	112,975
133,224	-10,097	239,050	112,992
134,239	-10,280	239,058	112,837
135,254	-10,302	238,766	112,671
136,268	-10,355	238,606	112,542
137,283	-10,228	238,501	112,586
138,297	-10,151	238,228	112,509
139,312	-10,198	238,032	112,369
140,327	-10,156	237,919	112,340
141,341	-9,955	237,736	112,406
142,356	-10,067	237,537	112,211
143,370	-10,023	237,414	112,179
144,385	-9,804	237,199	112,244
145,400	-9,737	237,129	112,255
146,414	-9,972	237,093	112,038
147,429	-10,104	236,800	111,783
148,443	-10,029	236,538	111,710
149,458	-9,958	236,365	111,675
150,473	-9,927	236,165	111,596
151,487	-9,928	235,925	111,472
152,502	-9,931	235,866	111,431
153,516	-9,961	235,717	111,327
154,531	-10,075	235,606	111,173
155,546	-10,055	235,279	111,025
156,560	-10,024	235,193	110,999
157,575	-10,191	234,859	110,698
158,589	-10,067	234,712	110,719
159,604	-10,044	234,675	110,709
160,619	-9,820	234,612	110,849
161,633	-9,756	234,426	110,802
162,648	-9,814	234,244	110,660
163,662	-9,816	234,130	110,595
164,677	-9,973	233,833	110,320
165,692	-10,165	233,729	110,108
166,706	-9,875	233,636	110,285
167,721	-9,496	233,353	110,442
168,735	-9,721	233,339	110,247
169,750	-10,163	233,154	109,799
170,764	-10,093	232,895	109,723
171,779	-10,185	232,950	109,666
172,794	-9,913	232,720	109,763
173,808	-9,956	232,456	109,595
174,823	-10,401	232,164	109,097
175,837	-10,254	232,048	109,148
176,852	-10,097	231,953	109,218
177,867	-10,157	231,903	109,137
178,881	-10,011	231,651	109,124
179,896	-9,901	231,486	109,123
180,910	-9,873	231,334	109,063
181,925	-9,940	231,204	108,940
182,940	-10,106	230,861	108,638
183,954	-10,067	230,971	108,711
184,969	-9,844	230,811	108,800
185,983	-9,829	230,625	108,715
186,998	-9,631	230,549	108,824
188,013	-9,690	230,200	108,604
189,027	-9,728	230,060	108,498
190,042	-9,824	230,030	108,399
191,056	-9,916	229,829	108,224
192,071	-10,042	229,540	107,980
193,086	-10,053	229,321	107,859
194,100	-10,782	229,038	107,150
195,115	-12,104	228,480	105,854
196,129	-11,361	228,467	106,415
197,144	-6,827	229,800	110,557
198,159	-1,754	231,419	115,295
199,173	0,987	232,135	117,789
200,188	2,029	232,354	118,705
201,202	2,681	232,326	119,190
202,217	3,203	232,307	119,578
203,232	3,192	232,291	119,550
204,246	3,416	232,062	119,597
205,261	3,163	232,008	119,360
206,275	3,371	231,831	119,421
207,290	3,285	231,701	119,277
208,304	3,274	231,603	119,207
209,319	3,302	231,342	119,083
210,334	3,148	231,128	118,844
211,348	2,659	230,939	118,356
212,363	2,396	230,420	117,876
213,377	2,029	230,367	117,553
214,392	2,120	230,098	117,476
215,407	1,846	229,965	117,185
216,421	1,656	229,700	116,893
217,436	1,626	229,648	116,833
218,450	1,869	229,367	116,868
219,465	1,455	229,453	116,581
220,480	1,680	229,165	116,598
221,494	1,583	229,081	116,470
222,509	1,934	228,911	116,643
223,523	2,022	228,910	116,700
224,538	2,011	228,666	116,557
225,553	2,079	228,369	116,448
226,567	1,931	228,218	116,246
227,582	1,963	228,099	116,200
228,596	2,040	228,031	116,214
229,611	2,002	227,949	116,133
230,626	1,724	227,708	115,787
231,640	1,901	227,620	115,867
232,655	2,106	227,351	115,876
233,669	1,974	227,182	115,679
234,684	1,908	227,129	115,592
235,699	2,122	226,943	115,650
236,713	1,986	226,892	115,510
237,728	2,173	226,715	115,552
238,742	2,171	226,429	115,394
239,757	2,174	226,452	115,398
240,772	2,192	226,256	115,301
241,786	2,206	226,223	115,285
242,801	2,295	226,183	115,322
243,815	2,375	225,876	115,216
244,830	2,487	225,760	115,231
245,844	2,405	225,600	115,077
246,859	2,258	225,471	114,890
247,874	2,444	225,175	114,869
248,888	2,220	225,042	114,622
249,903	2,258	225,061	114,650
250,917	2,298	224,782	114,528
251,932	2,185	224,658	114,369
252,947	2,415	224,437	114,420
253,961	2,259	224,320	114,233
254,976	2,238	224,191	114,141
255,990	2,348	224,051	114,142
257,005	2,457	223,970	114,173
258,020	1,919	223,960	113,753
259,034	2,359	223,806	113,995
260,049	2,265	223,587	113,803
261,063	2,303	223,470	113,761
262,078	2,460	223,180	113,721
263,093	2,618	222,997	113,736
264,107	2,399	222,967	113,547
265,122	2,135	222,971	113,342
266,136	2,401	222,604	113,344
267,151	2,418	222,580	113,334
268,166	1,955	222,557	112,967
269,180	2,108	222,165	112,871
270,195	2,207	222,009	112,856
271,209	2,318	221,696	112,769
272,224	2,175	221,751	112,681
273,239	2,372	221,545	112,712
274,253	2,050	221,363	112,371
275,268	2,123	221,310	112,388
276,282	2,112	221,109	112,267
277,297	2,161	220,774	112,124
278,312	1,953	220,911	112,030
279,326	2,316	220,687	112,175
280,341	2,176	220,654	112,044
281,355	2,410	220,380	112,067
282,370	2,137	220,329	111,830
283,384	2,351	219,989	111,805
284,399	2,255	220,004	111,732
285,414	2,171	219,914	111,615
286,428	2,213	219,856	111,606
287,443	2,356	219,549	111,546
288,457	2,227	219,594	111,463
289,472	2,253	219,391	111,370
290,487	2,101	219,244	111,174
291,501	2,085	218,934	110,995
292,516	2,321	218,862	111,121
293,530	2,278	218,830	111,064
294,545	2,319	218,734	111,035
295,560	2,222	218,516	110,844
296,574	2,574	218,413	111,038
297,589	2,523	218,417	110,993
298,603	2,323	218,092	110,672
299,618	2,414	218,062	110,713
300,633	2,295	217,994	110,582
301,647	2,555	217,772	110,649
302,662	2,297	217,694	110,412
303,676	2,279	217,508	110,295
304,691	2,629	217,283	110,425
305,706	2,339	217,260	110,193
306,720	2,245	217,158	110,063
307,735	2,230	216,937	109,931
308,749	2,390	216,706	109,920
309,764	2,557	216,562	109,957
310,779	2,402	216,348	109,727
311,793	2,090	216,332	109,484
312,808	2,092	216,249	109,433
313,822	2,326	216,033	109,483
314,837	2,400	215,801	109,409
315,852	2,439	215,697	109,374
316,866	2,371	215,685	109,310
317,881	2,290	215,441	109,118
318,895	2,252	215,292	109,006
319,910	2,214	215,026	108,834
320,925	1,983	215,022	108,657
321,939	2,109	214,846	108,648
322,954	2,198	214,754	108,656
323,968	2,028	214,724	108,509
324,983	2,152	214,433	108,442
325,997	2,114	214,292	108,334
327,012	2,115	214,226	108,291
328,027	2,131	214,178	108,268
329,041	2,119	213,855	108,087
330,056	2,382	213,814	108,244
331,070	1,957	213,742	107,895
332,085	2,075	213,531	107,863
333,100	2,148	213,433	107,856
334,114	2,165	213,295	107,788
335,129	2,631	213,077	107,999
336,143	1,915	213,068	107,477
337,158	2,115	212,774	107,461
338,173	2,493	212,610	107,636
339,187	2,223	212,499	107,380
340,202	2,232	212,382	107,317
341,216	2,060	212,139	107,064
342,231	2,428	212,079	107,283
343,246	2,331	212,113	107,222
344,260	2,369	211,840	107,102
345,275	2,153	211,922	106,981
346,289	2,297	211,629	106,925
347,304	2,266	211,556	106,857
348,319	2,351	211,306	106,781
349,333	2,290	211,277	106,714
350,348	2,119	211,142	106,516
351,362	2,215	211,094	106,550
352,377	2,371	210,884	106,544
353,392	2,252	210,769	106,392
354,406	2,298	210,553	106,307
355,421	193,701	1341,342	1423,591
356,435	154,626	1479,120	1423,614
