DTS Sentinel unit serial number:	SN410029Multiplexer serial number:	ORYXHardware model number:	OX2-SRSoftware version number:	ORYX F/W v4,00 Oryx Data Collector v3.7.2.0data status	okinstallation	B6 Nyhavnadifferential loss correction	single-endedforward channel	channel 2reverse channel	N/Adate	2023/12/08time	17:55:08forward acquisition time	300,00reverse acquisition time	0,00gamma	499,1914k internal	0,3158k external	0,3158temperature offset calibration	1,0000default loss term (dB/km)	0,3820temperature slope calibration	1,0000multiplexer offset coefficient	1,0000multiplexer slope coefficient	1,0000fibre end	0,00T internal ref (°C)	15,19T ext. ref 1 (°C)	-1,25T ext. ref 2 (°C)	-1,23length (m)	temperature (°C)	Stokes	anti-Stokes-744,400	800,000	0,063	-0,139
-743,385	-113,726	-0,210	-0,030
-742,371	603,069	-0,067	0,124
-741,356	-145,508	-0,273	0,018
-740,342	-104,356	0,179	-0,030
-739,327	-98,912	-0,346	0,064
-738,312	109,094	0,015	-0,013
-737,298	-122,152	-0,162	0,019
-736,283	-144,720	0,217	0,014
-735,269	68,741	-0,119	-0,090
-734,254	183,607	0,067	0,073
-733,239	-43,750	-0,607	-0,224
-732,225	-150,584	0,183	0,010
-731,210	118,446	-0,047	-0,043
-730,196	-200,000	0,001	-0,141
-729,181	648,003	-0,037	0,071
-728,167	-82,804	0,045	0,011
-727,152	-100,992	-0,144	-0,026
-726,137	-200,000	0,010	-0,141
-725,123	-58,000	0,012	-0,004
-724,108	-8,949	-0,165	-0,081
-723,094	-200,000	-0,020	-0,128
-722,079	800,000	-0,052	-0,124
-721,064	-73,398	0,096	-0,026
-720,050	-200,000	0,016	0,065
-719,035	316,548	0,041	0,057
-718,021	298,664	0,050	-0,068
-717,006	-200,000	0,026	-0,127
-715,991	455,234	-0,096	-0,157
-714,977	800,000	0,063	-0,142
-713,962	-24,632	-0,114	-0,050
-712,948	-48,489	0,137	0,048
-711,933	341,352	-0,079	-0,113
-710,918	-133,481	0,200	-0,018
-709,904	800,000	-0,031	0,063
-708,889	152,974	-0,054	-0,054
-707,875	-200,000	-0,010	-0,089
-706,860	-89,633	-0,113	-0,024
-705,845	517,861	0,102	-0,176
-704,831	605,705	0,047	-0,087
-703,816	-95,807	-0,028	0,006
-702,802	-172,377	-0,210	-0,005
-701,787	370,621	-0,038	-0,056
-700,772	26,172	-0,055	-0,033
-699,758	-153,346	-0,037	0,002
-698,743	647,331	-0,024	-0,045
-697,729	-42,739	-0,176	-0,066
-696,714	33,859	-0,049	-0,031
-695,699	-40,527	0,141	-0,053
-694,685	74,928	-0,069	-0,053
-693,670	-70,287	-0,155	-0,043
-692,656	45,341	0,114	-0,077
-691,641	742,160	0,050	-0,099
-690,627	68,860	-0,061	-0,046
-689,612	-200,000	-0,009	-0,032
-688,597	438,220	-0,027	-0,043
-687,583	216,246	-0,117	-0,137
-686,568	274,540	-0,067	0,088
-685,554	577,487	-0,024	0,044
-684,539	406,123	0,065	-0,101
-683,524	121,561	0,030	0,028
-682,510	-102,891	0,133	-0,023
-681,495	-200,000	0,007	0,068
-680,481	-124,878	-0,105	-0,012
-679,466	435,951	-0,052	-0,084
-678,451	-18,330	-0,115	-0,053
-677,437	-200,000	0,022	0,074
-676,422	38,332	0,024	0,016
-675,408	63,683	0,084	-0,062
-674,393	71,780	0,062	-0,047
-673,378	-200,000	0,000	-0,005
-672,364	166,156	-0,107	-0,112
-671,349	152,041	-0,116	-0,116
-670,335	-115,847	-0,095	-0,013
-669,320	-52,157	-0,170	0,058
-668,305	-96,219	-0,037	0,007
-667,291	113,809	-0,040	0,036
-666,276	358,275	-0,036	0,053
-665,262	-200,000	-0,001	0,063
-664,247	81,968	0,143	-0,114
-663,232	-60,903	0,048	-0,015
-662,218	-55,473	0,052	-0,017
-661,203	-200,000	-0,007	0,083
-660,189	273,932	0,057	0,075
-659,174	800,000	-0,025	0,059
-658,159	800,000	-0,063	-0,141
-657,145	-79,991	0,102	-0,025
-656,130	800,000	-0,031	0,086
-655,116	-59,217	-0,112	-0,035
-654,101	-200,000	-0,006	0,028
-653,086	198,180	-0,127	-0,143
-652,072	-200,000	0,018	-0,109
-651,057	-110,781	-0,096	-0,014
-650,043	24,194	-0,072	-0,044
-649,028	67,767	0,046	0,034
-648,014	-200,000	-0,016	-0,094
-646,999	-200,000	-0,014	-0,075
-645,984	-172,718	0,093	0,002
-644,970	-160,812	-0,116	-0,004
-643,955	-61,084	0,053	0,016
-642,941	-200,000	0,003	-0,125
-641,926	23,157	0,072	-0,044
-640,911	-120,603	0,069	0,009
-639,897	-82,762	-0,006	0,001
-638,882	4,683	-0,089	0,048
-637,868	-200,000	0,011	-0,055
-636,853	-100,352	-0,151	-0,027
-635,838	-200,000	0,008	0,154
-634,824	-40,628	-0,013	0,005
-633,809	800,000	0,016	-0,051
-632,795	-134,826	0,036	0,003
-631,780	800,000	0,017	0,056
-630,765	800,000	-0,048	-0,103
-629,751	133,102	-0,043	-0,040
-628,736	54,027	-0,047	0,033
-627,722	-200,000	0,015	-0,082
-626,707	46,822	0,000	0,000
-625,692	496,243	0,038	-0,065
-624,678	201,207	-0,019	-0,021
-623,663	-200,000	0,009	-0,042
-622,649	294,644	-0,092	-0,123
-621,634	345,077	0,059	-0,085
-620,619	387,133	0,035	0,053
-619,605	800,000	0,018	0,040
-618,590	59,145	0,090	-0,065
-617,576	314,072	0,037	0,051
-616,561	-200,000	0,036	-0,136
-615,546	-124,028	0,020	-0,002
-614,532	-18,420	-0,112	-0,051
-613,517	-18,859	-0,087	0,040
-612,503	-102,933	-0,103	0,018
-611,488	19,265	0,100	0,059
-610,474	-200,000	-0,011	0,083
-609,459	17,257	0,070	-0,041
-608,444	531,063	-0,061	0,106
-607,430	800,000	-0,101	0,219
-606,415	-120,145	-0,047	0,006
-605,401	-200,000	0,000	0,066
-604,386	-132,688	-0,090	0,008
-603,371	-66,824	-0,101	-0,029
-602,357	-200,000	0,000	-0,082
-601,342	197,485	0,056	-0,063
-600,328	-114,532	0,210	-0,029
-599,313	96,834	0,025	-0,021
-598,298	-82,052	0,061	0,014
-597,284	144,927	0,131	0,128
-596,269	-200,000	0,034	-0,136
-595,255	800,000	0,020	0,064
-594,240	-20,966	-0,054	-0,024
-593,225	48,379	-0,053	-0,036
-592,211	800,000	-0,041	0,117
-591,196	126,520	0,131	0,122
-590,182	447,040	0,080	-0,129
-589,167	147,505	0,030	-0,030
-588,152	-88,003	-0,117	0,026
-587,138	800,000	-0,018	-0,040
-586,123	-155,939	-0,102	0,005
-585,109	-200,000	0,007	0,038
-584,094	375,323	-0,039	-0,058
-583,079	-68,166	0,021	-0,006
-582,065	377,258	0,053	-0,079
-581,050	-200,000	0,013	0,091
-580,036	41,107	-0,071	-0,047
-579,021	316,223	-0,051	0,070
-578,006	434,514	0,029	-0,046
-576,992	800,000	0,017	0,034
-575,977	300,291	0,031	-0,041
-574,963	-16,230	-0,159	0,073
-573,948	800,000	-0,009	0,024
-572,934	253,684	-0,020	-0,025
-571,919	-18,170	0,107	-0,049
-570,904	-200,000	-0,020	-0,092
-569,890	-115,800	-0,077	-0,010
-568,875	332,748	-0,047	-0,066
-567,861	800,000	-0,046	-0,144
-566,846	-200,000	-0,007	0,025
-565,831	-59,581	-0,035	-0,011
-564,817	-80,866	0,075	-0,018
-563,802	237,205	-0,101	-0,122
-562,788	-200,000	-0,012	-0,118
-561,773	-200,000	0,023	0,102
-560,758	-83,079	-0,112	0,026
-559,744	238,572	0,099	0,120
-558,729	305,403	0,011	-0,015
-557,715	-200,000	-0,002	0,093
-556,700	26,150	-0,077	-0,047
-555,685	-200,000	0,007	-0,061
-554,671	97,494	0,075	0,063
-553,656	-133,200	-0,049	0,004
-552,642	682,062	0,026	-0,050
-551,627	-200,000	-0,004	-0,044
-550,612	-67,686	0,062	0,018
-549,598	800,000	0,017	-0,046
-548,583	-145,050	0,060	-0,004
-547,569	-200,000	0,020	-0,083
-546,554	-200,000	-0,001	-0,112
-545,539	-25,686	0,055	-0,024
-544,525	-200,000	-0,009	0,097
-543,510	800,000	-0,056	-0,146
-542,496	124,524	-0,122	-0,113
-541,481	800,000	-0,017	-0,042
-540,466	-200,000	0,024	-0,129
-539,452	-200,000	0,001	-0,108
-538,437	61,410	-0,030	-0,022
-537,423	-200,000	-0,032	0,157
-536,408	-149,734	-0,131	0,007
-535,393	-200,000	-0,007	-0,115
-534,379	-34,600	0,103	-0,041
-533,364	800,000	-0,030	0,090
-532,350	800,000	-0,032	-0,100
-531,335	361,355	-0,074	-0,109
-530,321	-200,000	-0,006	-0,067
-529,306	-200,000	0,002	-0,071
-528,291	-175,359	-0,196	0,004
-527,277	111,783	0,079	0,070
-526,262	102,399	-0,025	-0,021
-525,248	7,482	-0,091	-0,049
-524,233	-200,000	-0,027	0,091
-523,218	139,675	-0,072	-0,069
-522,204	240,849	-0,030	-0,037
-521,189	134,410	-0,070	-0,066
-520,175	-200,000	0,029	-0,140
-519,160	460,374	-0,018	-0,029
-518,145	-200,000	-0,009	0,044
-517,131	65,681	0,026	0,019
-516,116	800,000	0,035	-0,101
-515,102	-200,000	-0,028	-0,122
-514,087	-200,000	-0,023	-0,110
-513,072	-100,207	-0,137	-0,025
-512,058	111,199	0,100	0,088
-511,043	-200,000	0,004	-0,214
-510,029	-200,000	-0,004	0,113
-509,014	-163,742	-0,064	-0,002
-507,999	-183,157	0,021	0,000
-506,985	13,318	-0,021	-0,012
-505,970	26,693	-0,047	-0,028
-504,956	-200,000	-0,007	-0,053
-503,941	38,319	-0,139	-0,090
-502,926	23,782	0,094	0,056
-501,912	323,442	0,041	-0,057
-500,897	5,891	0,113	-0,061
-499,883	-88,787	0,122	-0,026
-498,868	-93,365	-0,099	-0,020
-497,853	279,000	-0,096	0,126
-496,839	80,672	-0,104	-0,082
-495,824	-200,000	0,028	-0,106
-494,810	800,000	-0,033	-0,073
-493,795	156,674	-0,007	-0,007
-492,781	-54,870	-0,095	-0,031
-491,766	-141,358	-0,052	0,004
-490,751	-200,000	-0,004	-0,069
-489,737	800,000	0,063	-0,140
-488,722	-26,594	-0,060	-0,025
-487,708	-200,000	0,011	0,173
-486,693	800,000	-0,052	-0,145
-485,678	-192,025	-0,071	-0,000
-484,664	246,375	0,065	-0,080
-483,649	184,859	0,078	-0,085
-482,635	-102,823	-0,107	-0,018
-481,620	-10,530	0,041	-0,020
-480,605	-168,331	0,204	-0,006
-479,591	-174,727	0,072	-0,001
-478,576	439,896	0,032	-0,051
-477,562	210,199	-0,114	-0,130
-476,547	125,376	-0,128	-0,118
-475,532	-83,558	0,192	-0,044
-474,518	-200,000	0,029	-0,101
-473,503	-113,762	0,045	0,006
-472,489	-200,000	-0,023	-0,085
-471,474	43,870	0,053	0,035
-470,459	-113,743	-0,019	0,003
-469,445	-200,000	-0,043	-0,142
-468,430	-200,000	0,009	0,148
-467,416	800,000	0,044	0,108
-466,401	417,425	-0,020	0,031
-465,386	-200,000	-0,022	-0,112
-464,372	800,000	-0,026	-0,082
-463,357	649,670	0,013	-0,025
-462,343	410,300	0,041	0,064
-461,328	-49,314	-0,055	0,019
-460,313	203,251	0,150	-0,170
-459,299	173,432	-0,061	0,064
-458,284	399,082	0,076	0,117
-457,270	146,225	0,079	-0,077
-456,255	-45,208	0,162	-0,059
-455,241	239,207	-0,110	-0,134
-454,226	-200,000	-0,008	-0,027
-453,211	-100,197	0,140	0,025
-452,197	242,116	0,039	0,047
-451,182	152,553	0,069	-0,068
-450,168	185,421	0,086	-0,093
-449,153	42,794	0,077	-0,051
-448,138	-200,000	-0,020	0,102
-447,124	-200,000	-0,023	-0,115
-446,109	60,768	-0,095	-0,069
-445,095	-119,351	0,085	0,011
-444,080	-200,000	-0,027	0,110
-443,065	-160,901	-0,110	-0,004
-442,051	81,892	-0,105	-0,083
-441,036	-132,618	0,106	-0,010
-440,022	-37,752	0,088	0,034
-439,007	800,000	0,038	-0,098
-437,992	-97,615	0,064	0,012
-436,978	453,889	0,036	-0,059
-435,963	800,000	-0,038	0,111
-434,949	800,000	-0,038	0,090
-433,934	605,026	-0,023	0,042
-432,919	-107,416	0,075	0,012
-431,905	-200,000	0,015	-0,065
-430,890	-49,080	0,048	0,016
-429,876	-102,110	0,162	-0,028
-428,861	-128,867	-0,018	0,002
-427,846	72,822	0,088	0,067
-426,832	-150,271	0,091	0,005
-425,817	-200,000	-0,031	-0,106
-424,803	-140,761	0,093	0,007
-423,788	-59,617	-0,017	0,005
-422,773	30,512	0,124	0,077
-421,759	18,989	0,123	-0,071
-420,744	343,509	0,095	-0,135
-419,730	621,890	0,046	0,084
-418,715	456,069	0,045	-0,073
-417,701	800,000	0,076	-0,165
-416,686	-46,152	-0,060	-0,022
-415,671	-200,000	-0,016	0,105
-414,657	-54,338	0,061	0,020
-413,642	800,000	-0,061	0,164
-412,628	81,719	0,090	-0,071
-411,613	148,306	0,061	-0,059
-410,598	-200,000	-0,018	-0,104
-409,584	-43,020	0,122	-0,045
-408,569	538,753	0,026	0,045
-407,555	-99,597	0,049	-0,009
-406,540	-200,000	-0,016	0,125
-405,525	-200,000	0,006	-0,172
-404,511	229,767	0,063	0,075
-403,496	309,490	0,052	0,070
-402,482	800,000	0,019	0,041
-401,467	-65,041	0,096	-0,028
-400,452	800,000	0,049	0,105
-399,438	389,409	-0,058	-0,088
-398,423	-200,000	-0,016	0,087
-397,409	-66,473	-0,092	0,026
-396,394	257,221	0,015	0,019
-395,379	-200,000	0,005	0,054
-394,365	-44,221	0,132	-0,048
-393,350	800,000	0,027	0,061
-392,336	340,723	-0,098	0,140
-391,321	-99,014	-0,062	-0,011
-390,306	-200,000	-0,029	-0,094
-389,292	194,845	0,065	0,071
-388,277	99,559	0,066	-0,055
-387,263	12,028	0,157	0,087
-386,248	103,010	-0,064	0,055
-385,233	63,766	0,079	0,057
-384,219	-144,811	-0,076	0,005
-383,204	800,000	-0,098	-0,214
-382,190	-146,375	-0,061	0,004
-381,175	-32,904	0,042	0,017
-380,160	800,000	-0,037	-0,076
-379,146	-200,000	-0,044	0,207
-378,131	800,000	0,038	0,106
-377,117	800,000	-0,036	0,077
-376,102	331,620	-0,086	-0,121
-375,088	-200,000	-0,020	-0,100
-374,073	-200,000	-0,013	0,131
-373,058	-66,649	0,146	0,042
-372,044	800,000	0,036	0,098
-371,029	-200,000	0,019	0,093
-370,015	-63,041	-0,079	0,024
-369,000	-199,554	0,092	0,000
-367,985	-18,014	-0,114	0,052
-366,971	73,798	0,082	0,063
-365,956	476,508	0,046	0,075
-364,942	-200,000	-0,020	0,131
-363,927	800,000	0,025	0,061
-362,912	144,079	-0,096	0,093
-361,898	800,000	-0,028	-0,061
-360,883	326,719	0,032	0,045
-359,869	44,329	-0,095	-0,063
-358,854	194,794	-0,094	0,103
-357,839	477,013	0,035	0,057
-356,825	-200,000	0,001	-0,080
-355,810	-42,850	0,096	0,035
-354,796	113,266	0,067	-0,059
-353,781	93,715	-0,094	-0,077
-352,766	201,189	0,097	-0,109
-351,752	-114,290	-0,101	-0,014
-350,737	419,998	0,016	-0,024
-349,723	98,452	0,094	-0,079
-348,708	27,984	0,126	-0,077
-347,693	-200,000	0,002	-0,073
-346,679	-80,085	-0,151	-0,036
-345,664	-156,544	0,091	-0,004
-344,650	800,000	0,025	0,055
-343,635	800,000	0,034	0,086
-342,620	-200,000	-0,014	0,185
-341,606	158,011	-0,058	0,058
-340,591	454,386	0,008	0,014
-339,577	-117,598	-0,045	0,006
-338,562	362,409	-0,023	-0,033
-337,548	119,185	-0,119	-0,107
-336,533	800,000	0,058	0,158
-335,518	230,627	0,038	0,045
-334,504	26,378	0,047	-0,028
-333,489	-108,393	0,044	0,007
-332,475	-27,715	0,095	0,040
-331,460	207,429	-0,028	0,032
-330,445	-27,399	-0,066	0,028
-329,431	182,105	0,038	-0,041
-328,416	-200,000	-0,018	0,105
-327,402	357,133	0,074	0,108
-326,387	297,755	-0,047	-0,063
-325,372	-200,000	-0,024	-0,099
-324,358	179,750	-0,030	0,032
-323,343	800,000	0,007	-0,013
-322,329	-137,963	0,042	-0,003
-321,314	186,142	-0,051	-0,055
-320,299	160,294	0,059	0,060
-319,285	-93,714	0,104	0,021
-318,270	766,346	-0,027	-0,054
-317,256	432,016	-0,048	0,075
-316,241	77,117	-0,076	0,058
-315,226	800,000	0,016	0,050
-314,212	214,550	0,059	0,068
-313,197	-95,438	-0,011	0,002
-312,183	-52,696	-0,048	0,016
-311,168	44,906	-0,149	0,099
-310,153	178,755	0,080	-0,084
-309,139	-200,000	0,004	-0,055
-308,124	-79,173	0,163	-0,040
-307,110	800,000	-0,054	0,151
-306,095	689,658	0,068	0,130
-305,080	628,779	0,041	0,076
-304,066	-100,923	-0,099	0,018
-303,051	42,845	-0,077	-0,051
-302,037	517,611	-0,039	-0,066
-301,022	138,032	-0,105	-0,099
-300,008	112,297	0,147	0,129
-298,993	247,911	0,059	-0,073
-297,978	800,000	-0,035	0,082
-296,964	800,000	0,009	0,022
-295,949	-86,959	-0,056	-0,012
-294,935	-200,000	-0,015	0,076
-293,920	800,000	0,045	0,097
-292,905	-200,000	0,017	0,205
-291,891	-19,130	0,079	-0,035
-290,876	-142,395	0,024	-0,002
-289,862	92,365	0,040	-0,032
-288,847	-58,348	-0,130	0,041
-287,832	331,459	-0,044	0,062
-286,818	62,057	-0,124	0,089
-285,803	174,825	-0,072	0,075
-284,789	673,693	0,065	0,122
-283,774	22,006	0,180	-0,106
-282,759	800,000	0,026	-0,082
-281,745	-200,000	0,008	-0,094
-280,730	-89,548	-0,069	0,015
-279,716	-80,705	-0,034	0,008
-278,701	579,247	0,031	0,055
-277,686	800,000	0,041	0,122
-276,672	-200,000	-0,036	0,118
-275,657	-200,000	-0,013	0,061
-274,643	-200,000	0,011	0,061
-273,628	800,000	-0,026	-0,071
-272,613	-95,532	-0,087	-0,017
-271,599	800,000	0,010	0,023
-270,584	-200,000	0,020	-0,081
-269,570	544,750	0,026	-0,045
-268,555	-200,000	0,006	0,081
-267,540	217,719	0,093	0,108
-266,526	-41,992	-0,090	0,033
-265,511	336,760	-0,053	0,075
-264,497	6,511	0,145	0,078
-263,482	-174,307	-0,068	-0,001
-262,467	-8,919	0,133	0,064
-261,453	155,832	-0,068	-0,068
-260,438	76,086	0,024	-0,018
-259,424	800,000	-0,019	0,041
-258,409	-83,762	-0,038	-0,009
-257,395	429,750	0,055	0,087
-256,380	245,700	0,075	0,092
-255,365	-200,000	0,022	0,083
-254,351	-200,000	-0,017	0,094
-253,336	-18,319	0,077	-0,035
-252,322	49,438	-0,081	0,055
-251,307	1,296	-0,122	-0,063
-250,292	-100,470	-0,082	-0,015
-249,278	359,539	0,022	0,032
-248,263	98,143	0,127	0,106
-247,249	-55,929	0,028	-0,009
-246,234	391,310	0,016	0,024
-245,219	800,000	0,060	0,121
-244,205	800,000	-0,035	-0,090
-243,190	493,493	-0,029	0,048
-242,176	-200,000	-0,016	0,156
-241,161	-41,456	0,073	0,027
-240,146	-200,000	0,002	-0,071
-239,132	212,035	-0,045	0,051
-238,117	-98,960	-0,053	0,010
-237,103	-152,083	-0,031	-0,002
-236,088	-38,257	0,154	0,059
-235,073	421,501	-0,065	0,102
-234,059	62,735	0,121	-0,087
-233,044	-120,699	0,065	0,008
-232,030	172,909	-0,064	-0,066
-231,015	-200,000	0,007	-0,152
-230,000	-200,000	-0,004	-0,107
-228,986	6,908	-0,093	0,050
-227,971	115,993	0,137	-0,121
-226,957	-200,000	0,004	0,120
-225,942	-9,827	-0,085	0,041
-224,927	-104,205	-0,136	-0,023
-223,913	-138,720	-0,087	0,007
-222,898	98,403	-0,124	0,103
-221,884	-200,000	-0,018	0,126
-220,869	98,371	0,040	0,033
-219,855	202,042	-0,057	-0,063
-218,840	506,109	0,041	0,069
-217,825	800,000	-0,032	-0,091
-216,811	-157,123	-0,127	-0,005
-215,796	0,504	0,146	-0,075
-214,782	721,966	0,028	-0,055
-213,767	199,775	-0,077	0,085
-212,752	76,558	0,038	0,029
-211,738	502,579	0,036	-0,060
-210,723	-75,258	-0,066	-0,017
-209,709	-99,067	-0,026	0,005
-208,694	344,170	0,124	0,176
-207,679	125,228	-0,021	-0,019
-206,665	335,152	0,068	-0,096
-205,650	-78,125	-0,008	0,002
-204,636	332,630	-0,087	0,121
-203,621	462,478	-0,057	0,092
-202,606	800,000	0,008	0,022
-201,592	455,523	-0,071	0,114
-200,577	314,887	-0,049	0,066
-199,563	109,758	-0,111	-0,096
-198,548	-33,930	0,058	0,023
-197,533	22,565	-0,101	0,059
-196,519	800,000	0,036	0,097
-195,504	-58,020	-0,015	-0,005
-194,490	800,000	0,028	-0,067
-193,475	179,331	-0,096	-0,102
-192,460	382,666	-0,042	-0,063
-191,446	-200,000	0,034	0,109
-190,431	-72,502	-0,026	0,007
-189,417	-126,072	-0,065	0,007
-188,402	-200,000	0,009	0,067
-187,387	316,802	0,046	-0,063
-186,373	-114,049	-0,049	0,007
-185,358	765,656	0,062	0,123
-184,344	-114,460	0,143	0,020
-183,329	800,000	0,032	-0,079
-182,315	130,115	0,022	0,020
-181,300	800,000	-0,047	-0,130
-180,285	6,679	-0,089	-0,048
-179,271	800,000	-0,027	0,056
-178,256	12,409	-0,040	0,022
-177,242	800,000	-0,055	-0,165
-176,227	800,000	0,044	0,117
-175,212	-200,000	0,002	-0,041
-174,198	-14,938	-0,110	-0,051
-173,183	181,645	-0,079	-0,084
-172,169	41,260	-0,086	0,056
-171,154	278,203	-0,111	0,143
-170,139	94,908	0,060	0,049
-169,125	378,293	0,060	0,088
-168,110	-94,125	-0,071	-0,014
-167,096	-84,856	0,044	-0,010
-166,081	-93,453	-0,147	-0,029
-165,066	18,675	-0,063	-0,036
-164,052	-89,218	0,052	-0,011
-163,037	-200,000	0,018	-0,072
-162,023	-115,861	-0,156	-0,021
-161,008	-123,343	0,085	-0,010
-159,993	396,287	-0,040	0,061
-158,979	37,417	-0,056	0,036
-157,964	262,870	-0,088	0,111
-156,950	262,221	-0,059	0,074
-155,935	132,495	0,164	0,152
-154,920	54,264	-0,079	0,055
-153,906	-25,710	0,152	0,064
-152,891	-200,000	0,014	-0,112
-151,877	-38,691	-0,081	0,031
-150,862	51,772	-0,049	-0,033
-149,847	263,391	-0,055	-0,068
-148,833	112,332	0,047	-0,041
-147,818	42,497	0,090	0,059
-146,804	-47,993	0,081	0,028
-145,789	27,816	-0,033	-0,020
-144,775	-135,789	-0,053	0,004
-143,760	800,000	0,054	-0,172
-142,745	800,000	-0,033	-0,071
-141,731	199,306	-0,085	0,094
-140,716	-200,000	0,036	-0,133
-139,702	-14,274	0,095	0,044
-138,687	288,510	-0,056	0,073
-137,672	77,038	-0,052	-0,040
-136,658	250,282	0,065	-0,080
-135,643	-137,433	-0,136	-0,011
-134,629	800,000	-0,022	-0,058
-133,614	-200,000	0,000	0,025
-132,599	-200,000	-0,006	0,132
-131,585	800,000	-0,025	0,058
-130,570	-56,906	-0,157	-0,050
-129,556	-200,000	-0,020	-0,079
-128,541	79,114	0,112	-0,086
-127,526	313,568	-0,021	-0,029
-126,512	800,000	-0,037	0,082
-125,497	130,297	0,067	0,062
-124,483	429,500	-0,052	0,082
-123,468	-144,742	-0,018	-0,001
-122,453	228,487	-0,036	0,043
-121,439	497,513	-0,038	0,063
-120,424	-26,287	0,143	-0,060
-119,410	130,708	0,046	-0,042
-118,395	181,668	-0,097	0,103
-117,380	91,365	0,094	0,076
-116,366	-45,329	-0,094	-0,033
-115,351	-155,582	-0,138	0,006
-114,337	-173,792	-0,106	0,002
-113,322	-49,721	0,114	-0,039
-112,307	12,379	0,032	-0,018
-111,293	-143,948	0,031	0,002
-110,278	31,464	0,136	-0,084
-109,264	-28,388	-0,129	0,053
-108,249	141,710	0,066	-0,063
-107,234	-200,000	-0,024	-0,113
-106,220	229,677	0,046	-0,054
-105,205	17,063	-0,048	-0,027
-104,191	-77,828	-0,036	-0,009
-103,176	-176,362	0,047	-0,001
-102,162	39,954	-0,103	0,066
-101,147	546,833	-0,009	-0,015
-100,132	62,812	-0,098	-0,071
-99,118	98,225	-0,089	-0,074
-98,103	-200,000	-0,005	0,156
-97,089	44,960	-0,010	0,006
-96,074	126,611	-0,155	0,141
-95,059	110,286	0,016	-0,013
-94,045	-173,336	-0,088	0,002
-93,030	-78,837	-0,109	0,027
-92,016	-107,488	-0,058	-0,009
-91,001	423,501	0,025	-0,039
-89,986	-118,148	-0,046	0,006
-88,972	29,672	-0,049	-0,030
-87,957	50,007	0,079	0,053
-86,943	-200,000	-0,013	0,076
-85,928	11,743	-0,137	-0,076
-84,913	800,000	-0,022	0,058
-83,899	-117,161	-0,166	-0,021
-82,884	800,000	-0,016	0,040
-81,870	-200,000	0,015	-0,116
-80,855	800,000	0,069	0,140
-79,840	-28,422	-0,073	-0,030
-78,826	222,119	0,024	0,027
-77,811	575,710	-0,065	-0,114
-76,797	379,892	-0,039	0,058
-75,782	-34,000	-0,020	-0,008
-74,767	282,742	0,040	-0,052
-73,753	715,145	-0,023	-0,044
-72,738	-64,149	-0,102	-0,030
-71,724	800,000	-0,047	-0,104
-70,709	-75,565	0,086	0,022
-69,694	257,336	0,076	0,094
-68,680	161,971	0,039	-0,040
-67,665	680,889	0,041	-0,078
-66,651	-103,095	-0,078	0,013
-65,636	589,050	0,051	0,090
-64,622	415,789	-0,099	-0,152
-63,607	-200,000	-0,039	-0,137
-62,592	-153,404	-0,181	0,009
-61,578	161,772	0,084	0,085
-60,563	171,707	-0,033	0,034
-59,549	-77,801	-0,111	0,027
-58,534	27,983	-2,044	-1,234
-57,519	-200,000	-0,158	-0,928
-56,505	-200,000	-1,220	-4,908
-55,490	139,709	0,838	0,793
-54,476	800,000	5,201	11,568
-53,461	-200,000	17,881	290,375
-52,446	800,000	726,824	2229,891
-51,432	535,894	1639,664	2802,354
-50,417	109,504	1629,370	1400,161
-49,403	73,053	1283,410	961,290
-48,388	31,474	1026,083	631,221
-47,373	19,866	988,158	569,658
-46,359	18,275	976,131	557,492
-45,344	15,531	972,367	546,350
-44,330	15,663	970,969	545,975
-43,315	15,234	969,111	543,509
-42,300	15,261	967,926	542,911
-41,286	15,218	966,804	542,121
-40,271	15,232	965,873	541,624
-39,257	15,198	965,091	541,054
-38,242	15,176	964,256	540,492
-37,227	15,295	963,233	540,282
-36,213	15,215	962,564	539,627
-35,198	15,150	961,626	538,869
-34,184	15,250	960,847	538,734
-33,169	15,240	959,925	538,164
-32,154	15,252	959,116	537,728
-31,140	15,254	958,173	537,184
-30,125	15,232	957,520	536,726
-29,111	15,270	956,486	536,246
-28,096	15,284	955,927	535,958
-27,082	15,275	955,193	535,495
-26,067	15,195	954,605	534,889
-25,052	15,186	953,780	534,374
-24,038	15,207	952,968	533,968
-23,023	15,166	952,383	533,487
-22,009	15,236	951,668	533,287
-20,994	15,286	951,093	533,104
-19,979	15,272	950,613	532,772
-18,965	15,226	949,932	532,221
-17,950	15,205	949,495	531,888
-16,936	15,158	948,861	531,361
-15,921	15,179	948,003	530,927
-14,906	15,092	947,259	530,213
-13,892	15,109	946,674	529,917
-12,877	15,100	945,895	529,432
-11,863	15,067	945,580	529,128
-10,848	15,100	944,968	528,872
-9,833	15,128	944,596	528,731
-8,819	15,188	943,787	528,448
-7,804	15,172	942,939	527,900
-6,790	15,143	942,580	527,587
-5,775	15,227	941,906	527,453
-4,760	15,136	941,312	526,815
-3,746	15,061	940,824	526,282
-2,731	14,931	940,161	525,480
-1,717	14,973	939,427	525,183
-0,702	14,945	938,763	524,701
0,313	14,716	938,231	524,473
1,327	18,232	935,933	534,203
2,342	27,387	789,737	474,865
3,356	23,791	444,951	262,196
4,371	-5,502	295,723	144,962
5,386	-9,468	277,351	132,183
6,400	-10,753	271,704	128,286
7,415	-10,803	269,304	127,094
8,429	-10,949	268,103	126,383
9,444	-10,982	267,193	125,912
10,459	-10,923	266,571	125,662
11,473	-11,021	265,935	125,261
12,488	-11,176	265,451	124,882
13,502	-11,449	264,866	124,348
14,517	-11,424	264,445	124,162
15,531	-11,145	263,910	124,152
16,546	-11,054	263,560	124,058
17,561	-11,323	263,301	123,683
18,575	-11,165	263,008	123,676
19,590	-11,207	262,538	123,406
20,604	-11,083	262,321	123,404
21,619	-11,238	261,861	123,038
22,634	-11,331	261,663	122,851
23,648	-11,438	261,253	122,552
24,663	-11,391	261,037	122,482
25,677	-11,453	260,803	122,306
26,692	-11,284	260,558	122,331
27,707	-11,296	260,212	122,147
28,721	-11,271	259,888	122,006
29,736	-11,422	259,733	121,788
30,750	-11,284	259,523	121,801
31,765	-11,162	259,087	121,694
32,780	-11,249	258,980	121,556
33,794	-11,426	258,787	121,298
34,809	-11,448	258,470	121,119
35,823	-11,345	258,143	121,046
36,838	-11,370	258,042	120,965
37,853	-11,303	257,732	120,868
38,867	-11,480	257,601	120,640
39,882	-11,273	257,212	120,629
40,896	-11,544	257,037	120,298
41,911	-11,401	256,751	120,280
42,926	-11,325	256,539	120,236
43,940	-11,461	256,366	120,025
44,955	-11,350	256,063	119,970
45,969	-11,323	255,831	119,874
46,984	-11,790	255,580	119,339
47,999	-11,958	255,335	119,067
49,013	-12,061	255,198	118,902
50,028	-12,064	254,829	118,717
51,042	-12,097	254,478	118,515
52,057	-12,233	254,432	118,365
53,071	-12,135	254,331	118,392
54,086	-12,166	254,044	118,221
55,101	-12,091	253,839	118,180
56,115	-11,762	253,654	118,368
57,130	-11,424	253,692	118,668
58,144	-10,965	253,534	118,979
59,159	-11,216	253,276	118,631
60,174	-11,308	253,057	118,439
61,188	-11,198	252,837	118,420
62,203	-11,234	252,610	118,272
63,217	-11,151	252,367	118,219
64,232	-11,189	252,055	118,030
65,247	-11,275	252,007	117,924
66,261	-11,128	251,684	117,887
67,276	-11,483	251,371	117,427
68,290	-11,812	251,198	117,054
69,305	-11,814	250,968	116,934
70,320	-11,815	250,863	116,874
71,334	-11,424	250,601	117,076
72,349	-11,148	250,534	117,269
73,363	-11,333	250,496	117,083
74,378	-11,138	250,060	117,035
75,393	-11,086	249,854	116,972
76,407	-11,240	249,709	116,763
77,422	-11,377	249,610	116,590
78,436	-11,175	249,154	116,538
79,451	-11,323	249,017	116,337
80,466	-11,428	248,695	116,088
81,480	-11,599	248,415	115,802
82,495	-11,604	248,303	115,735
83,509	-11,706	248,194	115,588
84,524	-11,825	248,209	115,485
85,539	-11,864	247,841	115,271
86,553	-11,777	247,518	115,183
87,568	-11,662	247,432	115,230
88,582	-11,747	247,222	115,050
89,597	-11,582	247,049	115,098
90,611	-11,555	246,854	115,019
91,626	-11,112	246,705	115,311
92,641	-11,334	246,560	115,048
93,655	-11,457	246,338	114,830
94,670	-11,512	246,047	114,638
95,684	-11,318	245,938	114,739
96,699	-11,290	245,792	114,684
97,714	-11,565	245,613	114,361
98,728	-11,722	245,215	114,035
99,743	-11,844	245,065	113,854
100,757	-11,930	244,963	113,725
101,772	-11,465	244,740	113,998
102,787	-11,484	244,649	113,929
103,801	-11,571	244,424	113,742
104,816	-11,279	244,150	113,846
105,830	-11,492	244,149	113,659
106,845	-11,129	243,797	113,786
107,860	-11,325	243,597	113,520
108,874	-11,326	243,423	113,428
109,889	-11,529	243,293	113,189
110,903	-11,534	243,093	113,083
111,918	-11,623	243,009	112,960
112,933	-11,545	242,829	112,930
113,947	-11,437	242,457	112,836
114,962	-11,429	242,500	112,852
115,976	-11,406	242,166	112,706
116,991	-11,447	242,088	112,626
118,006	-11,505	241,948	112,503
119,020	-11,381	241,794	112,523
120,035	-11,359	241,671	112,474
121,049	-11,357	241,605	112,435
122,064	-11,466	241,444	112,261
123,079	-11,540	241,200	112,077
124,093	-11,570	240,767	111,841
125,108	-11,663	240,581	111,669
126,122	-11,722	240,356	111,507
127,137	-11,842	240,233	111,342
128,151	-11,748	239,946	111,275
129,166	-11,619	239,789	111,297
130,181	-11,840	239,678	111,056
131,195	-11,672	239,371	111,040
132,210	-11,485	239,329	111,163
133,224	-11,446	239,065	111,062
134,239	-11,488	239,045	111,008
135,254	-11,342	238,908	111,053
136,268	-11,384	238,499	110,819
137,283	-11,822	238,381	110,401
138,297	-11,987	238,118	110,137
139,312	-11,904	238,051	110,163
140,327	-11,694	238,006	110,301
141,341	-11,307	237,965	110,583
142,356	-11,113	237,657	110,586
143,370	-10,991	237,649	110,671
144,385	-10,921	237,396	110,600
145,400	-10,935	237,269	110,519
146,414	-10,884	237,021	110,435
147,429	-11,121	236,914	110,186
148,443	-10,945	236,719	110,226
149,458	-10,922	236,478	110,122
150,473	-11,029	236,277	109,933
151,487	-11,120	236,176	109,804
152,502	-11,400	236,072	109,522
153,516	-10,888	235,873	109,828
154,531	-10,952	235,566	109,625
155,546	-11,233	235,525	109,372
156,560	-11,189	235,300	109,293
157,575	-11,354	235,089	109,054
158,589	-11,270	234,936	109,040
159,604	-11,150	234,852	109,087
160,619	-11,102	234,738	109,062
161,633	-11,088	234,526	108,964
162,648	-10,937	234,348	108,992
163,662	-11,077	234,182	108,794
164,677	-11,243	234,033	108,584
165,692	-11,021	233,933	108,704
166,706	-11,093	233,800	108,575
167,721	-10,874	233,535	108,615
168,735	-10,914	233,567	108,589
169,750	-11,100	233,433	108,371
170,764	-11,022	233,101	108,268
171,779	-11,024	232,937	108,180
172,794	-10,950	232,809	108,169
173,808	-11,230	232,637	107,860
174,823	-11,805	232,330	107,257
175,837	-12,028	232,111	106,972
176,852	-11,341	232,122	107,506
177,867	-11,005	232,042	107,722
178,881	-11,123	231,844	107,528
179,896	-10,959	231,672	107,566
180,910	-10,903	231,560	107,549
181,925	-11,014	231,510	107,430
182,940	-10,916	231,085	107,299
183,954	-10,977	231,117	107,257
184,969	-10,686	231,014	107,426
185,983	-10,831	230,908	107,254
186,998	-10,672	230,716	107,279
188,013	-10,769	230,473	107,081
189,027	-10,680	230,340	107,079
190,042	-10,639	230,090	106,985
191,056	-10,868	230,064	106,786
192,071	-10,812	229,933	106,759
193,086	-10,714	229,699	106,716
194,100	-10,844	229,520	106,523
195,115	-11,121	229,205	106,154
196,129	-11,007	229,403	106,324
197,144	-5,976	230,888	110,910
198,159	-0,109	232,578	116,287
199,173	2,810	233,508	119,022
200,188	3,441	233,422	119,459
201,202	3,375	233,243	119,306
202,217	3,373	233,231	119,287
203,232	3,750	233,057	119,481
204,246	3,839	232,798	119,406
205,261	4,008	232,694	119,474
206,275	4,065	232,685	119,503
207,290	3,957	232,601	119,365
208,304	4,241	232,257	119,398
209,319	4,157	232,169	119,277
210,334	3,695	231,912	118,777
211,348	3,516	231,943	118,644
212,363	3,166	231,557	118,165
213,377	2,817	231,311	117,760
214,392	3,213	231,048	117,921
215,407	3,182	231,087	117,907
216,421	3,297	230,830	117,853
217,436	3,126	230,640	117,614
218,450	2,961	230,459	117,384
219,465	2,682	230,316	117,087
220,480	2,905	230,147	117,162
221,494	2,939	230,053	117,130
222,509	3,110	230,094	117,271
223,523	3,194	229,881	117,216
224,538	2,982	229,701	116,952
225,553	3,038	229,718	116,993
226,567	3,203	229,341	116,917
227,582	3,221	229,440	116,970
228,596	3,569	229,112	117,059
229,611	3,226	228,915	116,686
230,626	3,037	228,829	116,488
231,640	2,980	228,667	116,351
232,655	3,277	228,510	116,487
233,669	3,553	228,558	116,711
234,684	3,802	228,426	116,823
235,699	3,487	228,196	116,456
236,713	3,495	227,927	116,313
237,728	3,242	227,775	116,034
238,742	3,150	227,485	115,806
239,757	3,114	227,434	115,743
240,772	2,852	227,262	115,446
241,786	3,032	227,092	115,486
242,801	3,358	227,120	115,736
243,815	3,284	227,060	115,640
244,830	3,610	226,777	115,731
245,844	3,247	226,513	115,313
246,859	3,210	226,554	115,295
247,874	3,350	226,329	115,276
248,888	3,503	226,233	115,332
249,903	3,208	226,044	115,004
250,917	3,087	225,918	114,838
251,932	3,194	225,716	114,805
252,947	3,144	225,540	114,668
253,961	2,964	225,254	114,378
254,976	3,072	225,318	114,481
255,990	3,165	225,248	114,505
257,005	3,339	224,943	114,469
258,020	3,178	224,992	114,364
259,034	3,577	224,735	114,521
260,049	3,533	224,532	114,375
261,063	3,240	224,493	114,126
262,078	3,359	224,375	114,145
263,093	3,507	224,241	114,177
264,107	3,404	224,009	113,972
265,122	3,494	223,877	113,961
266,136	3,497	223,854	113,941
267,151	3,625	223,517	113,855
268,166	3,136	223,399	113,422
269,180	2,924	223,046	113,076
270,195	3,138	223,000	113,201
271,209	2,927	222,828	112,947
272,224	3,203	222,721	113,087
273,239	3,168	222,754	113,068
274,253	3,154	222,497	112,917
275,268	2,922	222,312	112,642
276,282	2,858	222,214	112,535
277,297	2,789	222,022	112,377
278,312	2,752	222,055	112,356
279,326	2,903	221,928	112,393
280,341	3,260	221,670	112,515
281,355	3,247	221,475	112,396
282,370	3,123	221,363	112,238
283,384	2,827	221,159	111,907
284,399	2,786	221,065	111,820
285,414	2,776	220,826	111,682
286,428	3,034	221,026	111,962
287,443	3,413	220,642	112,035
288,457	3,308	220,560	111,907
289,472	3,240	220,148	111,638
290,487	2,531	220,096	111,085
291,501	2,622	219,879	111,031
292,516	2,655	219,849	111,031
293,530	2,826	219,712	111,076
294,545	2,671	219,587	110,890
295,560	3,260	219,445	111,236
296,574	3,151	219,396	111,123
297,589	3,114	219,165	110,969
298,603	3,037	219,160	110,900
299,618	3,358	218,919	111,001
300,633	3,151	218,968	110,866
301,647	3,525	218,811	111,047
302,662	3,622	218,545	110,973
303,676	3,500	218,537	110,871
304,691	3,354	218,374	110,672
305,706	3,441	218,196	110,636
306,720	3,382	218,008	110,487
307,735	3,184	217,785	110,222
308,749	2,911	217,599	109,922
309,764	3,370	217,618	110,252
310,779	3,125	217,641	110,077
311,793	3,319	217,354	110,061
312,808	3,250	217,239	109,944
313,822	3,211	217,114	109,843
314,837	3,350	216,817	109,783
315,852	2,976	216,705	109,448
316,866	2,960	216,678	109,413
317,881	3,195	216,509	109,486
318,895	3,208	216,438	109,450
319,910	2,966	216,151	109,122
320,925	2,888	215,924	108,942
321,939	2,794	215,726	108,766
322,954	3,008	215,623	108,857
323,968	3,370	215,651	109,119
324,983	3,415	215,493	109,061
325,997	3,513	215,415	109,082
327,012	3,244	215,188	108,766
328,027	3,254	215,117	108,727
329,041	3,389	215,044	108,777
330,056	3,170	214,675	108,425
331,070	2,818	214,605	108,131
332,085	2,667	214,458	107,939
333,100	3,168	214,325	108,218
334,114	3,429	214,376	108,418
335,129	3,368	214,109	108,231
336,143	3,225	213,883	108,006
337,158	3,160	213,834	107,926
338,173	3,115	213,818	107,876
339,187	2,840	213,620	107,573
340,202	2,810	213,355	107,409
341,216	3,033	213,164	107,460
342,231	2,962	213,061	107,348
343,246	2,969	213,020	107,323
344,260	2,951	212,856	107,218
345,275	3,262	212,767	107,382
346,289	3,204	212,739	107,318
347,304	3,106	212,520	107,129
348,319	3,227	212,401	107,144
349,333	3,224	212,246	107,054
350,348	3,140	212,186	106,956
351,362	3,203	212,146	106,971
352,377	3,186	212,037	106,894
353,392	3,113	211,787	106,707
354,406	3,479	211,529	106,822
355,421	195,524	1339,868	1417,266
356,435	156,191	1477,312	1417,246
