DTS Sentinel unit serial number:	SN410029Multiplexer serial number:	ORYXHardware model number:	OX2-SRSoftware version number:	ORYX F/W v4,00 Oryx Data Collector v3.7.2.0data status	okinstallation	B6 Nyhavnadifferential loss correction	single-endedforward channel	channel 2reverse channel	N/Adate	2023/12/08time	21:15:08forward acquisition time	300,00reverse acquisition time	0,00gamma	499,1914k internal	0,3158k external	0,3158temperature offset calibration	1,0000default loss term (dB/km)	0,3820temperature slope calibration	1,0000multiplexer offset coefficient	1,0000multiplexer slope coefficient	1,0000fibre end	0,00T internal ref (°C)	15,22T ext. ref 1 (°C)	-1,35T ext. ref 2 (°C)	-1,36length (m)	temperature (°C)	Stokes	anti-Stokes-744,400	-200,000	-0,000	0,060
-743,385	-91,928	-0,355	-0,074
-742,371	162,517	0,078	-0,081
-741,356	46,983	-0,102	-0,070
-740,342	422,683	0,062	-0,099
-739,327	-185,890	-0,358	-0,004
-738,312	222,408	0,074	-0,087
-737,298	-66,815	-0,350	-0,101
-736,283	800,000	0,038	-0,093
-735,269	-170,046	-0,367	-0,009
-734,254	460,567	0,018	0,029
-733,239	59,150	-0,384	-0,278
-732,225	-82,873	0,153	0,036
-731,210	800,000	0,054	0,159
-730,196	530,291	0,014	0,024
-729,181	-200,000	-0,021	-0,078
-728,167	-200,000	-0,040	-0,219
-727,152	800,000	-0,014	-0,029
-726,137	-200,000	-0,007	-0,049
-725,123	800,000	-0,047	-0,111
-724,108	-182,455	0,045	-0,001
-723,094	-200,000	-0,012	-0,169
-722,079	800,000	-0,070	-0,169
-721,064	-200,000	-0,015	-0,179
-720,050	-40,684	0,019	0,007
-719,035	-200,000	0,022	0,000
-718,021	6,258	0,069	0,037
-717,006	61,848	-0,057	-0,042
-715,991	-32,581	-0,129	-0,053
-714,977	-200,000	0,005	0,083
-713,962	-51,986	0,065	0,022
-712,948	800,000	-0,035	-0,076
-711,933	800,000	0,033	-0,079
-710,918	12,721	0,221	-0,125
-709,904	800,000	-0,059	-0,151
-708,889	-200,000	0,019	0,193
-707,875	800,000	0,003	0,008
-706,860	-0,588	-0,053	0,027
-705,845	800,000	0,005	0,013
-704,831	97,634	-0,069	0,058
-703,816	-200,000	0,034	0,137
-702,802	800,000	-0,013	-0,028
-701,787	347,587	-0,072	-0,105
-700,772	147,808	-0,113	-0,112
-699,758	800,000	0,024	-0,074
-698,743	370,722	0,065	0,097
-697,729	-118,375	0,026	0,003
-696,714	235,655	0,097	0,119
-695,699	672,490	0,018	0,034
-694,685	222,007	0,052	-0,061
-693,670	-29,666	-0,123	0,051
-692,656	-7,067	0,068	-0,034
-691,641	800,000	0,032	0,086
-690,627	-200,000	0,011	0,090
-689,612	800,000	-0,034	-0,090
-688,597	-200,000	0,001	-0,028
-687,583	145,760	-0,050	-0,049
-686,568	-200,000	0,007	-0,178
-685,554	800,000	0,037	-0,100
-684,539	-200,000	-0,028	0,106
-683,524	31,610	0,017	-0,011
-682,510	-200,000	0,036	-0,134
-681,495	-19,936	0,072	-0,033
-680,481	70,862	-0,038	-0,029
-679,466	285,190	-0,051	-0,067
-678,451	-33,483	0,105	-0,042
-677,437	800,000	-0,017	-0,039
-676,422	-49,340	-0,058	-0,020
-675,408	45,937	-0,035	0,024
-674,393	-200,000	0,009	-0,133
-673,378	-200,000	0,007	-0,094
-672,364	-132,941	-0,060	0,006
-671,349	60,241	0,104	-0,075
-670,335	116,865	0,079	-0,071
-669,320	87,136	-0,068	0,055
-668,305	35,468	-0,024	0,016
-667,291	-118,992	-0,145	-0,019
-666,276	39,806	-0,076	0,050
-665,262	391,452	0,017	0,025
-664,247	-11,704	0,034	-0,016
-663,232	-200,000	0,016	-0,179
-662,218	-54,864	0,188	-0,062
-661,203	371,688	0,098	0,147
-660,189	770,825	-0,091	0,183
-659,174	214,251	-0,048	-0,055
-658,159	779,119	-0,037	0,074
-657,145	135,982	0,065	-0,063
-656,130	120,282	0,089	-0,081
-655,116	-46,561	0,072	-0,026
-654,101	-95,138	0,148	-0,029
-653,086	-200,000	-0,015	-0,070
-652,072	8,987	-0,075	0,041
-651,057	-200,000	-0,005	-0,129
-650,043	-200,000	-0,001	0,057
-649,028	-200,000	0,018	0,086
-648,014	417,325	0,103	-0,162
-646,999	-152,091	0,081	0,004
-645,984	-112,580	-0,102	-0,015
-644,970	65,781	-0,136	-0,101
-643,955	-92,816	-0,183	-0,037
-642,941	363,006	-0,030	-0,044
-641,926	-84,089	-0,092	0,021
-640,911	278,728	0,069	0,091
-639,897	311,495	-0,024	0,033
-638,882	800,000	0,014	-0,043
-637,868	-108,897	0,041	-0,006
-636,853	-9,609	-0,086	-0,042
-635,838	800,000	-0,053	-0,133
-634,824	800,000	0,022	0,060
-633,809	-200,000	-0,046	0,221
-632,795	336,530	0,030	0,043
-631,780	-53,866	-0,019	0,006
-630,765	-200,000	-0,010	-0,103
-629,751	-200,000	0,015	-0,090
-628,736	38,078	-0,034	-0,022
-627,722	132,649	-0,082	0,078
-626,707	-23,857	0,052	-0,023
-625,692	105,007	0,167	0,145
-624,678	-115,335	-0,152	-0,021
-623,663	-200,000	0,002	-0,022
-622,649	-55,064	-0,119	-0,039
-621,634	-61,031	-0,050	0,015
-620,619	800,000	-0,058	-0,136
-619,605	143,728	-0,032	0,031
-618,590	800,000	0,023	0,051
-617,576	-180,955	0,124	0,002
-616,561	-107,797	-0,120	0,019
-615,546	-116,267	0,102	0,014
-614,532	-200,000	0,037	-0,187
-613,517	-200,000	-0,004	-0,029
-612,503	179,350	-0,074	0,079
-611,488	75,823	0,046	0,036
-610,474	-120,240	-0,111	0,014
-609,459	420,122	0,010	0,015
-608,444	-90,437	-0,088	-0,019
-607,430	2,475	-0,073	-0,039
-606,415	-200,000	-0,007	-0,099
-605,401	-178,241	-0,015	-0,000
-604,386	-200,000	-0,010	-0,139
-603,371	-106,844	0,172	0,028
-602,357	174,023	0,065	0,069
-601,342	98,581	0,097	-0,082
-600,328	800,000	-0,046	-0,117
-599,313	119,188	0,046	-0,041
-598,298	-102,600	-0,100	-0,017
-597,284	-40,278	0,146	0,055
-596,269	727,770	0,006	0,011
-595,255	800,000	0,026	0,056
-594,240	-200,000	0,026	-0,127
-593,225	-200,000	0,026	-0,135
-592,211	3,612	-0,151	-0,081
-591,196	312,186	0,020	-0,028
-590,182	-108,115	-0,004	-0,001
-589,167	69,280	-0,084	-0,063
-588,152	800,000	0,029	-0,094
-587,138	-113,336	-0,037	-0,005
-586,123	-200,000	-0,011	-0,097
-585,109	-70,296	-0,148	-0,041
-584,094	165,312	-0,059	-0,061
-583,079	800,000	0,029	0,092
-582,065	-200,000	-0,022	0,093
-581,050	-200,000	0,013	-0,048
-580,036	103,985	-0,049	-0,042
-579,021	510,712	-0,023	0,039
-578,006	-97,955	0,144	0,027
-576,992	783,459	-0,048	-0,097
-575,977	-6,369	0,054	-0,027
-574,963	800,000	-0,074	0,179
-573,948	306,363	-0,056	0,077
-572,934	800,000	0,018	0,055
-571,919	-43,398	-0,103	-0,038
-570,904	-138,103	0,052	-0,004
-569,890	-137,160	0,108	-0,009
-568,875	-120,977	0,099	0,012
-567,861	-200,000	-0,005	0,162
-566,846	-148,796	0,164	-0,010
-565,831	-17,589	0,093	0,043
-564,817	-152,422	-0,122	-0,006
-563,802	509,055	-0,061	0,104
-562,788	183,931	-0,100	-0,109
-561,773	800,000	0,025	0,059
-560,758	113,242	0,046	-0,041
-559,744	163,528	-0,024	-0,025
-558,729	800,000	-0,036	0,100
-557,715	358,269	-0,030	0,044
-556,700	550,365	-0,048	-0,084
-555,685	72,080	-0,088	-0,067
-554,671	800,000	0,053	0,142
-553,656	253,735	-0,074	0,093
-552,642	252,766	0,008	0,010
-551,627	-51,430	0,066	-0,023
-550,612	-200,000	-0,033	-0,133
-549,598	-200,000	0,012	0,074
-548,583	69,329	0,068	0,051
-547,569	183,670	0,045	0,048
-546,554	-114,533	0,029	0,004
-545,539	800,000	0,043	-0,122
-544,525	69,968	-0,086	-0,065
-543,510	149,177	0,052	-0,052
-542,496	-33,254	-0,069	-0,028
-541,481	146,102	-0,031	0,031
-540,466	-162,655	-0,069	0,002
-539,452	-46,411	-0,095	0,034
-538,437	212,086	0,059	-0,068
-537,423	-93,104	0,111	-0,022
-536,408	-134,795	-0,140	0,012
-535,393	163,160	-0,079	-0,081
-534,379	244,229	-0,102	-0,125
-533,364	-200,000	0,028	-0,184
-532,350	800,000	-0,024	0,073
-531,335	-200,000	-0,001	-0,107
-530,321	28,716	0,159	0,098
-529,306	660,342	0,030	0,058
-528,291	-200,000	-0,037	0,147
-527,277	-128,213	0,057	0,006
-526,262	-200,000	-0,007	-0,074
-525,248	516,572	-0,064	0,111
-524,233	492,252	0,113	0,190
-523,218	-200,000	0,032	0,125
-522,204	-200,000	0,018	0,131
-521,189	-125,811	0,005	-0,001
-520,175	134,676	-0,075	-0,071
-519,160	170,858	-0,064	0,068
-518,145	-27,018	0,092	0,039
-517,131	-11,055	0,080	0,038
-516,116	219,595	-0,092	-0,107
-515,102	127,164	-0,123	0,114
-514,087	-4,970	0,037	-0,018
-513,072	608,561	-0,079	-0,145
-512,058	-155,830	-0,088	-0,004
-511,043	800,000	-0,010	-0,025
-510,029	-200,000	-0,017	0,116
-509,014	39,893	-0,051	0,033
-507,999	-13,764	0,145	0,068
-506,985	-200,000	0,011	0,052
-505,970	331,849	-0,035	-0,050
-504,956	8,057	0,053	-0,029
-503,941	704,754	0,020	-0,040
-502,926	98,316	0,111	0,093
-501,912	244,502	0,059	0,073
-500,897	111,063	-0,015	0,013
-499,883	221,373	-0,087	-0,103
-498,868	697,101	-0,027	-0,052
-497,853	-167,394	0,182	-0,005
-496,839	800,000	0,048	-0,129
-495,824	-200,000	-0,022	-0,118
-494,810	-112,457	0,078	-0,011
-493,795	-154,624	-0,048	-0,002
-492,781	-158,415	0,040	-0,002
-491,766	-178,609	-0,088	-0,001
-490,751	-109,930	-0,048	-0,007
-489,737	-93,987	-0,115	-0,023
-488,722	46,443	0,091	0,062
-487,708	-46,319	-0,113	0,040
-486,693	-152,137	0,105	-0,005
-485,678	-3,910	-0,060	0,030
-484,664	800,000	0,019	-0,049
-483,649	-200,000	-0,014	-0,047
-482,635	79,777	-0,036	-0,028
-481,620	-93,079	0,063	0,013
-480,605	800,000	0,013	-0,030
-479,591	-200,000	0,005	-0,091
-478,576	-8,474	-0,121	0,059
-477,562	-200,000	0,003	0,129
-476,547	326,656	0,017	-0,024
-475,532	377,119	-0,053	0,080
-474,518	800,000	0,035	0,073
-473,503	-200,000	0,009	0,058
-472,489	-61,088	0,018	0,005
-471,474	-200,000	-0,002	-0,022
-470,459	-71,303	-0,026	-0,007
-469,445	-170,681	0,099	0,002
-468,430	800,000	-0,010	-0,029
-467,416	-150,997	0,051	-0,003
-466,401	183,170	-0,037	0,040
-465,386	-42,004	-0,098	-0,037
-464,372	255,809	0,039	0,049
-463,357	212,170	0,081	0,094
-462,343	-1,820	0,061	-0,031
-461,328	-149,550	0,108	0,006
-460,313	223,476	-0,078	-0,092
-459,299	345,448	-0,060	-0,086
-458,284	-200,000	-0,007	0,095
-457,270	-157,732	0,075	0,003
-456,255	-68,311	-0,060	0,017
-455,241	800,000	-0,053	-0,165
-454,226	-73,726	0,072	-0,019
-453,211	-94,231	0,081	0,016
-452,197	139,985	0,080	-0,077
-451,182	-200,000	-0,001	-0,030
-450,168	21,369	0,038	-0,022
-449,153	-108,376	-0,104	-0,016
-448,138	-12,429	-0,019	-0,009
-447,124	-3,472	-0,048	-0,024
-446,109	46,691	0,050	0,034
-445,095	800,000	0,033	0,091
-444,080	422,535	0,045	0,070
-443,065	203,034	0,060	0,068
-442,051	-42,732	0,071	-0,026
-441,036	-200,000	0,010	-0,143
-440,022	538,765	-0,056	-0,098
-439,007	-36,952	-0,044	0,017
-437,992	-31,339	0,054	0,022
-436,978	55,238	0,080	0,056
-435,963	800,000	-0,012	-0,026
-434,949	378,155	-0,058	0,086
-433,934	-111,853	-0,146	0,021
-432,919	-52,340	-0,049	0,016
-431,905	170,555	-0,041	-0,043
-430,890	-51,216	0,118	0,040
-429,876	-52,304	0,150	0,050
-428,861	355,239	0,036	-0,053
-427,846	30,273	-0,053	-0,033
-426,832	112,554	-0,021	0,019
-425,817	-133,168	0,067	0,006
-424,803	800,000	-0,019	-0,042
-423,788	-6,442	0,179	0,089
-422,773	67,059	0,102	0,076
-421,759	387,567	0,030	0,046
-420,744	-155,710	-0,107	0,005
-419,730	800,000	0,027	0,077
-418,715	-148,779	-0,042	0,002
-417,701	554,026	-0,059	-0,104
-416,686	348,616	0,105	0,151
-415,671	800,000	0,036	0,092
-414,657	480,588	-0,053	-0,088
-413,642	-57,502	-0,069	-0,022
-412,628	-200,000	0,012	-0,116
-411,613	289,561	-0,024	-0,032
-410,598	-200,000	0,007	-0,188
-409,584	-200,000	0,018	-0,075
-408,569	572,517	-0,057	0,101
-407,555	-103,909	0,047	0,008
-406,540	800,000	-0,068	0,154
-405,525	-136,790	-0,181	-0,015
-404,511	-200,000	-0,003	0,022
-403,496	-200,000	0,026	-0,085
-402,482	-200,000	0,003	0,019
-401,467	-123,983	-0,027	-0,003
-400,452	-101,203	0,140	0,025
-399,438	-200,000	0,019	0,093
-398,423	85,360	-0,136	0,109
-397,409	283,558	-0,065	0,085
-396,394	97,987	0,070	-0,058
-395,379	-99,620	0,094	0,017
-394,365	-200,000	0,002	-0,080
-393,350	-200,000	0,008	0,047
-392,336	38,287	0,067	0,043
-391,321	-141,986	-0,051	-0,004
-390,306	-178,477	0,056	0,001
-389,292	317,878	-0,118	-0,163
-388,277	800,000	0,046	-0,131
-387,263	-200,000	-0,033	0,175
-386,248	-2,798	0,087	0,044
-385,233	800,000	-0,025	0,067
-384,219	-129,558	-0,100	0,010
-383,204	-56,007	0,060	0,019
-382,190	-200,000	-0,006	0,066
-381,175	43,096	-0,085	-0,056
-380,160	800,000	0,059	0,180
-379,146	779,108	0,028	-0,057
-378,131	-112,695	-0,184	0,026
-377,117	347,343	-0,112	-0,161
-376,102	362,993	-0,071	-0,104
-375,088	389,491	0,101	-0,153
-374,073	-200,000	0,129	-0,000
-373,058	-116,561	-0,041	0,005
-372,044	-163,604	0,114	-0,004
-371,029	800,000	-0,030	-0,064
-370,015	-84,472	-0,037	-0,008
-369,000	-11,440	0,155	-0,074
-367,985	-200,000	-0,017	-0,104
-366,971	-130,910	0,058	0,006
-365,956	60,755	-0,059	0,042
-364,942	24,776	-0,084	0,050
-363,927	800,000	-0,054	-0,131
-362,912	-109,674	-0,103	-0,016
-361,898	-25,454	-0,128	0,055
-360,883	182,652	0,045	-0,048
-359,869	22,032	-0,039	-0,023
-358,854	48,280	0,041	0,027
-357,839	-69,306	0,070	0,019
-356,825	-200,000	-0,034	0,135
-355,810	120,079	0,049	0,044
-354,796	800,000	-0,030	-0,065
-353,781	800,000	0,051	-0,123
-352,766	29,436	-0,087	0,054
-351,752	-123,324	-0,029	0,003
-350,737	-15,683	0,042	0,019
-349,723	188,456	-0,089	0,097
-348,708	-52,202	0,094	0,031
-347,693	-200,000	0,005	0,029
-346,679	417,097	0,115	-0,178
-345,664	-179,017	-0,037	-0,001
-344,650	-200,000	0,031	-0,100
-343,635	193,255	0,036	-0,039
-342,620	143,626	-0,067	-0,065
-341,606	-97,292	0,137	0,026
-340,591	-68,661	-0,198	-0,055
-339,577	486,419	-0,046	0,076
-338,562	-181,251	-0,089	0,001
-337,548	653,607	0,034	-0,064
-336,533	-200,000	0,005	-0,127
-335,518	-69,715	-0,075	-0,021
-334,504	-200,000	0,035	0,118
-333,489	640,164	-0,042	-0,078
-332,475	-95,213	-0,063	-0,012
-331,460	-43,928	-0,062	0,022
-330,445	800,000	-0,036	-0,072
-329,431	-3,722	0,085	0,043
-328,416	800,000	-0,095	0,199
-327,402	112,908	0,019	-0,017
-326,387	-34,470	0,071	-0,028
-325,372	-0,035	-0,099	0,051
-324,358	-74,366	-0,050	0,013
-323,343	-126,729	0,096	-0,010
-322,329	98,103	0,064	-0,054
-321,314	394,102	0,045	0,069
-320,299	299,966	-0,069	0,093
-319,285	9,710	-0,103	0,057
-318,270	-171,735	0,137	-0,003
-317,256	-67,279	0,098	0,028
-316,241	800,000	-0,058	-0,146
-315,226	307,964	0,015	0,020
-314,212	-200,000	-0,014	0,134
-313,197	-200,000	0,000	0,049
-312,183	-164,825	0,123	-0,004
-311,168	24,385	-0,032	-0,019
-310,153	-200,000	-0,009	0,094
-309,139	259,337	0,054	0,067
-308,124	800,000	0,000	0,001
-307,110	-200,000	-0,006	-0,071
-306,095	-200,000	0,013	0,094
-305,080	6,765	-0,084	-0,045
-304,066	-200,000	0,018	-0,125
-303,051	-64,944	0,064	0,019
-302,037	-105,696	0,167	-0,027
-301,022	-200,000	0,021	-0,163
-300,008	-200,000	0,003	0,041
-298,993	454,892	0,041	0,065
-297,978	-107,697	0,048	0,008
-296,964	-146,498	-0,064	0,004
-295,949	800,000	-0,034	0,094
-294,935	257,090	0,048	-0,060
-293,920	800,000	-0,016	0,050
-292,905	-200,000	0,002	0,046
-291,891	-200,000	0,009	0,045
-290,876	468,513	-0,044	0,071
-289,862	-200,000	0,003	-0,106
-288,847	59,466	0,141	-0,100
-287,832	-13,223	-0,101	0,047
-286,818	-53,005	-0,118	0,039
-285,803	260,479	0,001	0,001
-284,789	70,528	-0,028	0,021
-283,774	-200,000	0,004	-0,084
-282,759	-50,326	-0,137	-0,047
-281,745	-200,000	0,016	0,067
-280,730	297,050	-0,008	-0,011
-279,716	141,815	-0,041	0,039
-278,701	131,526	-0,129	-0,120
-277,686	-74,192	0,141	0,037
-276,672	247,341	-0,039	-0,047
-275,657	-122,238	-0,069	-0,008
-274,643	228,161	-0,101	-0,119
-273,628	746,762	0,021	-0,040
-272,613	800,000	-0,011	-0,024
-271,599	-200,000	0,004	-0,022
-270,584	74,938	0,014	0,010
-269,570	-173,448	0,083	0,002
-268,555	-66,757	0,109	-0,031
-267,540	69,901	0,052	-0,039
-266,526	-200,000	0,034	-0,150
-265,511	-200,000	0,034	0,111
-264,497	128,022	-0,074	-0,068
-263,482	-62,356	0,061	-0,018
-262,467	-109,474	0,107	0,016
-261,453	25,145	0,122	0,073
-260,438	35,243	0,119	-0,075
-259,424	91,236	-0,042	0,034
-258,409	-200,000	0,016	0,056
-257,395	261,220	0,030	0,037
-256,380	-185,961	0,079	0,001
-255,365	-102,138	0,128	-0,022
-254,351	800,000	-0,030	-0,069
-253,336	800,000	0,047	-0,117
-252,322	-200,000	0,018	0,078
-251,307	800,000	0,018	-0,042
-250,292	-172,230	0,060	0,001
-249,278	800,000	-0,027	0,057
-248,263	-121,345	0,062	0,007
-247,249	-152,615	-0,078	0,004
-246,234	38,401	-0,103	-0,066
-245,219	-200,000	-0,030	-0,106
-244,205	800,000	0,038	0,092
-243,190	19,898	-0,055	-0,032
-242,176	40,576	-0,035	-0,023
-241,161	-200,000	0,013	0,201
-240,146	-113,022	-0,013	-0,002
-239,132	-200,000	0,008	0,049
-238,117	-84,226	0,014	0,003
-237,103	-200,000	0,002	-0,053
-236,088	-200,000	-0,002	-0,117
-235,073	282,962	0,095	0,123
-234,059	800,000	-0,028	0,075
-233,044	-153,345	0,108	-0,005
-232,030	800,000	-0,048	-0,126
-231,015	800,000	0,027	-0,077
-230,000	66,040	-0,065	-0,047
-228,986	-141,252	0,114	0,008
-227,971	26,886	0,142	-0,086
-226,957	-200,000	-0,027	0,119
-225,942	-27,760	0,082	0,034
-224,927	800,000	-0,010	-0,028
-223,913	-112,329	-0,066	0,009
-222,898	-186,466	0,102	-0,001
-221,884	800,000	-0,038	-0,087
-220,869	168,042	0,054	0,056
-219,855	269,857	-0,013	0,017
-218,840	800,000	0,017	0,045
-217,825	3,881	0,042	0,022
-216,811	-69,532	-0,047	0,013
-215,796	-200,000	-0,020	-0,103
-214,782	258,771	0,039	-0,049
-213,767	-58,343	0,103	0,032
-212,752	-200,000	0,024	-0,107
-211,738	74,324	0,020	0,015
-210,723	-82,055	-0,036	0,008
-209,709	-111,075	-0,153	0,022
-208,694	419,772	-0,092	-0,143
-207,679	26,769	-0,160	0,096
-206,665	121,985	0,085	0,076
-205,650	139,063	0,069	0,065
-204,636	160,395	-0,039	0,039
-203,621	-113,720	-0,063	0,009
-202,606	-137,725	-0,068	-0,005
-201,592	600,192	0,017	0,030
-200,577	304,212	-0,080	0,107
-199,563	179,677	0,035	-0,037
-198,548	166,115	0,140	0,144
-197,533	800,000	-0,052	0,131
-196,519	-200,000	0,043	0,138
-195,504	277,787	0,021	-0,027
-194,490	800,000	-0,085	-0,199
-193,475	426,126	0,013	-0,020
-192,460	-7,492	0,017	-0,008
-191,446	-200,000	-0,017	0,139
-190,431	-200,000	-0,012	0,039
-189,417	800,000	-0,018	-0,046
-188,402	800,000	0,024	0,056
-187,387	73,267	-0,072	0,054
-186,373	-83,956	-0,084	-0,019
-185,358	-14,676	0,092	0,043
-184,344	800,000	0,064	0,191
-183,329	109,359	-0,072	0,062
-182,315	92,432	-0,122	-0,099
-181,300	800,000	0,041	-0,108
-180,285	800,000	-0,044	0,093
-179,271	-90,013	0,236	0,049
-178,256	357,316	0,068	0,098
-177,242	-5,910	-0,032	0,016
-176,227	-101,338	0,091	0,016
-175,212	-200,000	-0,006	0,171
-174,198	-200,000	0,021	0,093
-173,183	607,782	0,056	-0,101
-172,169	-200,000	0,004	0,053
-171,154	-200,000	0,000	0,035
-170,139	615,739	-0,003	-0,005
-169,125	247,844	0,056	0,069
-168,110	-11,494	-0,025	-0,012
-167,096	255,907	0,058	-0,072
-166,081	800,000	0,036	-0,094
-165,066	-47,181	0,048	-0,017
-164,052	272,681	-0,009	-0,011
-163,037	-200,000	-0,018	0,127
-162,023	-80,413	-0,062	-0,015
-161,008	-187,972	-0,079	0,001
-159,993	762,877	-0,034	-0,067
-158,979	-62,471	-0,042	0,012
-157,964	-200,000	-0,014	0,056
-156,950	25,070	-0,039	0,023
-155,935	-80,239	0,033	-0,008
-154,920	526,791	0,119	-0,203
-153,906	422,675	-0,067	0,104
-152,891	-53,762	-0,123	0,040
-151,877	120,762	-0,016	-0,014
-150,862	161,987	-0,116	0,117
-149,847	19,116	0,088	-0,050
-148,833	-20,727	-0,067	0,029
-147,818	-200,000	-0,007	-0,027
-146,804	-200,000	-0,000	0,091
-145,789	-200,000	-0,004	0,112
-144,775	-69,291	-0,135	0,037
-143,760	-200,000	0,009	-0,050
-142,745	-66,164	0,087	-0,025
-141,731	-200,000	-0,004	-0,063
-140,716	-68,349	-0,047	0,013
-139,702	132,014	0,032	-0,030
-138,687	-57,166	0,086	-0,027
-137,672	232,168	0,054	0,064
-136,658	12,911	-0,115	-0,064
-135,643	29,064	-0,024	0,015
-134,629	-38,949	0,078	0,029
-133,614	694,928	-0,031	0,058
-132,599	-200,000	0,020	-0,072
-131,585	-46,417	-0,136	-0,048
-130,570	-200,000	-0,010	-0,058
-129,556	294,972	-0,017	0,023
-128,541	425,934	-0,047	-0,073
-127,526	-136,162	-0,015	0,001
-126,512	-200,000	-0,005	-0,057
-125,497	22,498	-0,105	-0,062
-124,483	-14,190	0,021	0,010
-123,468	-29,508	0,154	-0,063
-122,453	29,088	-0,061	-0,037
-121,439	366,170	0,025	0,036
-120,424	505,932	-0,032	0,053
-119,410	55,938	0,037	0,026
-118,395	238,180	0,037	0,045
-117,380	-82,884	-0,052	0,012
-116,366	68,474	-0,078	-0,058
-115,351	506,585	-0,079	-0,133
-114,337	800,000	-0,057	-0,165
-113,322	800,000	0,006	-0,011
-112,307	389,660	0,071	0,106
-111,293	800,000	0,049	0,118
-110,278	-76,618	0,103	0,026
-109,264	-8,803	-0,143	-0,069
-108,249	250,246	0,129	-0,158
-107,234	197,832	-0,048	-0,053
-106,220	-43,796	0,069	-0,025
-105,205	419,634	0,068	0,105
-104,191	-200,000	-0,012	-0,090
-103,176	35,890	0,038	0,024
-102,162	-177,230	-0,146	0,003
-101,147	-119,849	0,072	-0,009
-100,132	129,782	-0,034	0,031
-99,118	517,174	-0,044	0,075
-98,103	249,205	-0,032	-0,039
-97,089	47,138	0,131	-0,087
-96,074	6,329	-0,054	0,029
-95,059	-200,000	0,006	0,097
-94,045	-57,409	-0,081	-0,025
-93,030	-113,243	-0,047	0,007
-92,016	-200,000	-0,014	0,113
-91,001	653,771	0,041	-0,077
-89,986	800,000	-0,025	0,065
-88,972	123,531	-0,069	0,062
-87,957	-61,270	-0,068	0,020
-86,943	97,248	0,079	-0,065
-85,928	38,069	-0,149	-0,095
-84,913	519,808	-0,047	-0,079
-83,899	383,425	-0,074	-0,110
-82,884	123,600	0,031	0,028
-81,870	86,005	0,027	0,021
-80,855	200,141	-0,069	-0,076
-79,840	800,000	-0,049	-0,108
-78,826	-0,392	0,024	0,012
-77,811	336,382	0,096	-0,134
-76,797	-172,203	0,103	-0,002
-75,782	-61,421	0,061	0,018
-74,767	800,000	-0,054	0,123
-73,753	-68,517	0,151	0,042
-72,738	-25,483	0,052	0,022
-71,724	8,266	-0,085	-0,046
-70,709	58,476	0,012	0,008
-69,694	-61,374	-0,034	0,010
-68,680	508,381	-0,044	-0,074
-67,665	24,105	0,043	0,025
-66,651	551,515	-0,039	-0,068
-65,636	-127,772	-0,052	-0,005
-64,622	-200,000	-0,001	-0,056
-63,607	79,340	-0,064	-0,049
-62,592	85,392	-0,096	0,076
-61,578	-170,528	0,037	-0,001
-60,563	359,269	0,022	0,031
-59,549	800,000	-0,029	-0,074
-58,534	17,987	-2,021	-1,153
-57,519	800,000	-0,284	-0,717
-56,505	-200,000	-1,345	-5,013
-55,490	45,636	0,800	0,529
-54,476	800,000	5,301	11,965
-53,461	-200,000	17,771	289,707
-52,446	800,000	726,148	2229,360
-51,432	537,213	1639,342	2804,615
-50,417	109,685	1629,445	1401,086
-49,403	73,200	1283,702	962,094
-48,388	31,595	1025,981	631,567
-47,373	19,858	988,429	569,785
-46,359	18,283	976,393	557,668
-45,344	15,604	972,203	546,498
-44,330	15,750	970,921	546,232
-43,315	15,329	969,151	543,841
-42,300	15,209	968,061	542,817
-41,286	15,189	967,145	542,217
-40,271	15,269	965,826	541,715
-39,257	15,276	965,134	541,330
-38,242	15,287	964,166	540,799
-37,227	15,270	963,531	540,368
-36,213	15,213	962,619	539,649
-35,198	15,194	961,886	539,155
-34,184	15,255	960,815	538,732
-33,169	15,233	959,987	538,175
-32,154	15,253	959,146	537,748
-31,140	15,278	958,140	537,242
-30,125	15,290	957,517	536,911
-29,111	15,228	956,833	536,307
-28,096	15,220	956,104	535,850
-27,082	15,244	955,611	535,629
-26,067	15,268	954,634	535,138
-25,052	15,314	953,738	534,760
-24,038	15,257	953,149	534,228
-23,023	15,240	952,346	533,703
-22,009	15,293	951,848	533,571
-20,994	15,304	951,146	533,192
-19,979	15,219	950,646	532,620
-18,965	15,258	950,010	532,366
-17,950	15,328	949,330	532,186
-16,936	15,227	948,890	531,597
-15,921	15,190	948,124	531,030
-14,906	15,146	947,372	530,447
-13,892	15,096	946,833	529,963
-12,877	15,129	946,025	529,595
-11,863	15,047	945,511	529,026
-10,848	15,127	945,032	528,990
-9,833	15,221	944,604	529,030
-8,819	15,205	944,052	528,648
-7,804	15,176	943,263	528,094
-6,790	15,201	942,578	527,768
-5,775	15,212	941,999	527,458
-4,760	15,225	941,377	527,131
-3,746	15,144	940,808	526,535
-2,731	15,033	940,193	525,819
-1,717	14,976	939,498	525,229
-0,702	14,980	938,817	524,841
0,313	14,814	938,200	524,763
1,327	18,197	936,016	534,139
2,342	27,348	790,073	474,964
3,356	23,903	444,826	262,287
4,371	-5,662	295,529	144,705
5,386	-9,638	277,083	131,894
6,400	-11,141	271,543	127,849
7,415	-11,086	269,121	126,748
8,429	-11,102	267,743	126,073
9,444	-11,110	266,896	125,655
10,459	-10,963	266,269	125,483
11,473	-11,148	265,505	124,944
12,488	-11,208	265,184	124,727
13,502	-11,498	264,582	124,170
14,517	-11,319	264,022	124,058
15,531	-11,166	263,763	124,064
16,546	-11,125	263,365	123,902
17,561	-11,290	262,876	123,512
18,575	-11,116	262,713	123,581
19,590	-11,193	262,328	123,320
20,604	-10,935	261,929	123,352
21,619	-11,429	261,776	122,827
22,634	-11,149	261,195	122,794
23,648	-11,440	261,090	122,473
24,663	-11,171	260,719	122,529
25,677	-11,359	260,519	122,257
26,692	-11,228	260,410	122,311
27,707	-11,307	260,013	122,044
28,721	-11,382	259,851	121,889
29,736	-11,284	259,466	121,785
30,750	-11,421	259,138	121,499
31,765	-11,349	258,883	121,432
32,780	-11,417	258,878	121,359
33,794	-11,423	258,407	121,122
34,809	-11,290	258,224	121,143
35,823	-11,491	257,991	120,846
36,838	-11,454	257,755	120,757
37,853	-11,304	257,435	120,728
38,867	-11,477	257,399	120,548
39,882	-11,562	257,174	120,357
40,896	-11,481	256,732	120,211
41,911	-11,236	256,452	120,283
42,926	-11,407	256,384	120,091
43,940	-11,520	256,098	119,848
44,955	-11,523	255,839	119,714
45,969	-11,470	255,524	119,602
46,984	-11,771	255,257	119,203
47,999	-11,965	255,238	119,015
49,013	-12,162	254,800	118,629
50,028	-12,212	254,553	118,460
51,042	-12,293	254,380	118,299
52,057	-12,228	254,076	118,204
53,071	-12,185	253,756	118,081
54,086	-12,214	253,780	118,056
55,101	-12,088	253,723	118,129
56,115	-11,713	253,419	118,301
57,130	-11,265	253,457	118,695
58,144	-11,102	253,181	118,695
59,159	-11,040	252,990	118,649
60,174	-11,256	252,857	118,390
61,188	-11,241	252,568	118,257
62,203	-11,289	252,545	118,194
63,217	-11,487	252,260	117,880
64,232	-11,334	251,859	117,813
65,247	-11,324	251,868	117,816
66,261	-11,194	251,487	117,738
67,276	-11,398	251,319	117,474
68,290	-11,761	251,021	117,015
69,305	-11,769	250,708	116,851
70,320	-11,751	250,567	116,791
71,334	-11,604	250,404	116,830
72,349	-11,381	250,227	116,927
73,363	-11,103	250,130	117,107
74,378	-11,264	249,840	116,824
75,393	-11,187	249,641	116,786
76,407	-11,303	249,479	116,602
77,422	-11,412	249,199	116,368
78,436	-11,232	248,995	116,415
79,451	-11,438	248,864	116,169
80,466	-11,311	248,433	116,064
81,480	-11,531	248,362	115,835
82,495	-11,626	248,164	115,652
83,509	-11,372	247,829	115,699
84,524	-11,525	247,706	115,504
85,539	-11,755	247,570	115,236
86,553	-11,745	247,295	115,106
87,568	-11,604	247,117	115,132
88,582	-11,635	247,026	115,052
89,597	-11,733	246,809	114,859
90,611	-11,504	246,700	114,991
91,626	-11,287	246,486	115,062
92,641	-11,261	246,402	115,035
93,655	-11,524	246,160	114,691
94,670	-11,678	245,873	114,419
95,684	-11,543	245,724	114,452
96,699	-11,570	245,506	114,317
97,714	-11,773	245,460	114,117
98,728	-11,774	245,028	113,904
99,743	-11,779	244,905	113,833
100,757	-11,863	244,767	113,689
101,772	-11,617	244,458	113,739
102,787	-11,683	244,293	113,598
103,801	-11,683	244,096	113,497
104,816	-11,370	243,956	113,681
105,830	-11,499	243,936	113,554
106,845	-11,322	243,712	113,586
107,860	-11,048	243,441	113,676
108,874	-11,487	243,239	113,209
109,889	-11,526	242,983	113,048
110,903	-11,612	242,838	112,900
111,918	-11,559	242,738	112,887
112,933	-11,695	242,587	112,694
113,947	-11,305	242,194	112,822
114,962	-11,493	242,292	112,703
115,976	-11,413	241,968	112,608
116,991	-11,430	241,800	112,506
118,006	-11,467	241,638	112,390
119,020	-11,348	241,565	112,444
120,035	-11,182	241,415	112,500
121,049	-11,378	241,339	112,293
122,064	-11,122	240,945	112,310
123,079	-11,376	240,682	111,970
124,093	-11,565	240,747	111,836
125,108	-11,697	240,316	111,518
126,122	-11,812	240,138	111,332
127,137	-11,789	239,919	111,239
128,151	-11,865	239,829	111,126
129,166	-11,708	239,633	111,152
130,181	-11,601	239,353	111,099
131,195	-11,700	239,270	110,971
132,210	-11,657	239,189	110,958
133,224	-11,529	238,987	110,958
134,239	-11,438	238,783	110,928
135,254	-11,545	238,700	110,792
136,268	-11,672	238,374	110,529
137,283	-11,784	238,127	110,314
138,297	-11,944	237,797	110,022
139,312	-11,880	237,613	109,979
140,327	-11,518	237,650	110,277
141,341	-11,071	237,646	110,625
142,356	-11,035	237,521	110,586
143,370	-10,981	237,332	110,531
144,385	-10,942	237,121	110,455
145,400	-10,800	236,893	110,452
146,414	-11,110	236,790	110,146
147,429	-11,000	236,545	110,110
148,443	-11,045	236,352	109,975
149,458	-11,302	236,341	109,754
150,473	-11,140	236,088	109,756
151,487	-10,994	235,792	109,726
152,502	-11,272	235,808	109,502
153,516	-11,065	235,728	109,620
154,531	-11,198	235,510	109,402
155,546	-11,141	235,277	109,330
156,560	-11,108	235,008	109,221
157,575	-11,242	234,795	109,006
158,589	-11,185	234,673	108,985
159,604	-11,032	234,621	109,073
160,619	-10,747	234,337	109,156
161,633	-11,161	234,313	108,808
162,648	-10,879	234,125	108,934
163,662	-11,127	234,077	108,706
164,677	-11,222	233,747	108,468
165,692	-11,114	233,704	108,523
166,706	-10,895	233,477	108,580
167,721	-10,735	233,278	108,605
168,735	-10,886	233,272	108,473
169,750	-11,004	233,048	108,267
170,764	-11,022	232,799	108,127
171,779	-11,003	232,769	108,119
172,794	-10,943	232,526	108,043
173,808	-11,099	232,367	107,837
174,823	-11,534	232,089	107,358
175,837	-11,812	232,083	107,128
176,852	-11,399	231,947	107,379
177,867	-11,163	231,738	107,457
178,881	-10,904	231,564	107,569
179,896	-10,953	231,505	107,494
180,910	-10,913	231,349	107,443
181,925	-10,982	231,191	107,306
182,940	-10,840	231,000	107,318
183,954	-11,067	230,958	107,113
184,969	-10,840	230,736	107,177
185,983	-10,739	230,624	107,194
186,998	-10,804	230,409	107,034
188,013	-10,744	230,361	107,048
189,027	-10,649	230,112	106,997
190,042	-10,814	229,985	106,800
191,056	-10,920	229,845	106,644
192,071	-11,076	229,593	106,397
193,086	-10,913	229,484	106,462
194,100	-10,965	229,251	106,305
195,115	-11,358	228,938	105,847
196,129	-12,062	228,721	105,195
197,144	-6,611	230,635	110,296
198,159	0,536	232,609	116,806
199,173	2,783	233,254	118,871
200,188	3,154	233,180	119,112
201,202	3,347	232,929	119,123
202,217	3,295	233,118	119,169
203,232	3,733	232,857	119,365
204,246	3,966	232,549	119,377
205,261	3,811	232,641	119,294
206,275	4,242	232,554	119,572
207,290	4,307	232,366	119,515
208,304	4,136	232,209	119,292
209,319	3,825	231,997	118,931
210,334	3,835	231,754	118,804
211,348	3,736	231,614	118,645
212,363	3,408	231,296	118,219
213,377	2,939	231,120	117,757
214,392	3,034	230,937	117,726
215,407	3,380	230,835	117,930
216,421	3,506	230,612	117,902
217,436	3,244	230,426	117,595
218,450	2,981	230,300	117,319
219,465	2,969	230,142	117,219
220,480	3,058	229,985	117,196
221,494	3,123	229,927	117,206
222,509	3,203	229,920	117,254
223,523	3,333	229,659	117,209
224,538	3,076	229,459	116,900
225,553	3,118	229,355	116,869
226,567	3,461	229,079	116,980
227,582	3,320	229,225	116,936
228,596	3,492	229,081	116,984
229,611	3,332	228,757	116,686
230,626	3,037	228,649	116,396
231,640	3,315	228,454	116,498
232,655	3,254	228,323	116,374
233,669	3,859	228,447	116,887
234,684	3,990	228,166	116,832
235,699	3,538	227,915	116,350
236,713	3,299	227,774	116,087
237,728	3,182	227,568	115,883
238,742	2,925	227,426	115,606
239,757	3,348	227,224	115,813
240,772	3,176	227,009	115,563
241,786	3,047	226,979	115,440
242,801	3,256	226,789	115,490
243,815	3,494	226,791	115,661
244,830	3,629	226,720	115,716
245,844	3,332	226,421	115,330
246,859	3,213	226,308	115,173
247,874	3,560	226,128	115,331
248,888	3,473	225,945	115,162
249,903	3,427	225,686	114,985
250,917	3,327	225,670	114,892
251,932	3,361	225,514	114,828
252,947	3,098	225,336	114,530
253,961	2,910	225,276	114,348
254,976	3,271	224,975	114,455
255,990	3,391	224,953	114,524
257,005	3,487	224,729	114,471
258,020	3,260	224,715	114,284
259,034	3,489	224,718	114,447
260,049	3,570	224,528	114,400
261,063	3,310	224,265	114,063
262,078	3,640	224,199	114,264
263,093	3,635	223,985	114,141
264,107	3,759	223,715	114,086
265,122	3,507	223,753	113,908
266,136	3,468	223,682	113,832
267,151	3,553	223,576	113,831
268,166	3,427	223,136	113,504
269,180	2,881	222,840	112,940
270,195	3,219	222,845	113,181
271,209	3,255	222,665	113,107
272,224	3,064	222,638	112,942
273,239	3,250	222,487	112,992
274,253	3,124	222,341	112,815
275,268	3,089	222,116	112,665
276,282	3,057	221,895	112,520
277,297	2,861	221,696	112,264
278,312	2,924	221,756	112,331
279,326	3,279	221,544	112,474
280,341	3,143	221,541	112,363
281,355	3,327	221,309	112,370
282,370	3,288	221,236	112,295
283,384	2,829	221,030	111,844
284,399	2,904	220,738	111,741
285,414	3,148	220,709	111,895
286,428	3,162	220,648	111,864
287,443	3,230	220,691	111,925
288,457	3,508	220,312	111,927
289,472	3,194	220,199	111,630
290,487	2,853	219,944	111,243
291,501	2,781	219,788	111,101
292,516	2,813	219,780	111,110
293,530	2,836	219,620	111,036
294,545	2,964	219,375	110,996
295,560	3,013	219,449	111,059
296,574	3,245	219,241	111,112
297,589	3,042	219,083	110,875
298,603	3,399	218,883	111,022
299,618	3,212	218,917	110,895
300,633	3,387	218,596	110,848
301,647	3,389	218,679	110,882
302,662	3,462	218,398	110,782
303,676	3,725	218,095	110,808
304,691	3,575	218,151	110,719
305,706	3,554	217,928	110,581
306,720	3,404	217,947	110,472
307,735	3,352	217,608	110,253
308,749	3,061	217,413	109,936
309,764	3,332	217,438	110,133
310,779	3,483	217,409	110,217
311,793	3,324	217,182	109,978
312,808	3,403	217,034	109,950
313,822	3,268	216,833	109,741
314,837	3,141	216,707	109,577
315,852	3,052	216,649	109,474
316,866	3,237	216,441	109,492
317,881	3,366	216,369	109,538
318,895	3,428	216,279	109,526
319,910	3,192	215,917	109,165
320,925	2,966	215,677	108,873
321,939	2,920	215,677	108,830
322,954	2,999	215,527	108,801
323,968	3,321	215,433	108,973
324,983	3,089	215,272	108,718
325,997	3,037	215,237	108,653
327,012	3,126	215,205	108,690
328,027	3,507	215,020	108,858
329,041	3,759	214,880	108,956
330,056	3,844	214,790	108,961
331,070	3,483	214,552	108,574
332,085	3,068	214,262	108,125
333,100	3,352	214,235	108,302
334,114	3,317	214,143	108,221
335,129	3,309	214,059	108,164
336,143	3,197	213,850	107,970
337,158	3,129	213,588	107,779
338,173	3,307	213,596	107,899
339,187	3,129	213,426	107,679
340,202	2,891	213,200	107,388
341,216	2,963	213,017	107,336
342,231	3,180	213,050	107,496
343,246	3,005	212,773	107,224
344,260	2,809	212,728	107,054
345,275	3,297	212,721	107,383
346,289	3,219	212,436	107,175
347,304	3,482	212,250	107,256
348,319	3,113	212,250	106,988
349,333	3,252	212,084	106,992
350,348	3,380	211,874	106,966
351,362	3,646	211,860	107,136
352,377	3,088	211,795	106,703
353,392	3,277	211,783	106,820
354,406	3,311	211,424	106,652
355,421	196,682	1339,928	1421,051
356,435	157,155	1477,395	1421,022
