DTS Sentinel unit serial number:	SN410029Multiplexer serial number:	ORYXHardware model number:	OX2-SRSoftware version number:	ORYX F/W v4,00 Oryx Data Collector v3.7.2.0data status	okinstallation	B6 Nyhavnadifferential loss correction	single-endedforward channel	channel 2reverse channel	N/Adate	2023/12/10time	03:10:08forward acquisition time	300,00reverse acquisition time	0,00gamma	499,1914k internal	0,3125k external	0,3125temperature offset calibration	1,0000default loss term (dB/km)	0,3820temperature slope calibration	1,0000multiplexer offset coefficient	1,0000multiplexer slope coefficient	1,0000fibre end	0,00T internal ref (°C)	22,00T ext. ref 1 (°C)	5,82T ext. ref 2 (°C)	5,79length (m)	temperature (°C)	Stokes	anti-Stokes-744,400	609,628	0,063	-0,118
-743,385	800,000	-0,094	0,279
-742,371	-42,309	0,107	0,041
-741,356	27,711	-0,167	0,105
-740,342	165,387	-0,029	0,030
-739,327	187,711	-0,150	0,167
-738,312	-82,674	0,025	-0,006
-737,298	-42,112	-0,245	0,093
-736,283	800,000	0,024	-0,058
-735,269	-57,173	-0,198	0,064
-734,254	-200,000	-0,010	-0,062
-733,239	-49,607	-0,443	-0,156
-732,225	575,097	0,066	0,120
-731,210	301,582	0,028	-0,039
-730,196	352,934	-0,013	-0,020
-729,181	800,000	-0,011	-0,029
-728,167	-57,478	0,120	0,039
-727,152	-48,177	0,035	0,012
-726,137	92,608	-0,054	0,046
-725,123	-89,128	-0,117	-0,026
-724,108	516,529	-0,045	-0,079
-723,094	-68,346	-0,097	-0,028
-722,079	367,705	-0,070	-0,105
-721,064	-17,804	-0,124	-0,058
-720,050	177,744	-0,047	0,051
-719,035	800,000	0,050	0,111
-718,021	2,247	-0,102	0,055
-717,006	122,652	-0,035	-0,033
-715,991	70,092	-0,035	0,027
-714,977	-103,248	-0,221	0,038
-713,962	-113,276	-0,084	0,012
-712,948	-50,065	0,100	-0,035
-711,933	800,000	-0,050	-0,108
-710,918	-160,764	0,066	-0,003
-709,904	800,000	0,061	-0,144
-708,889	800,000	-0,020	-0,056
-707,875	800,000	-0,027	-0,060
-706,860	361,333	-0,034	-0,050
-705,845	-152,910	0,091	0,005
-704,831	230,809	-0,053	0,064
-703,816	340,826	0,034	0,049
-702,802	-200,000	0,012	0,060
-701,787	-200,000	-0,010	-0,094
-700,772	-146,651	-0,160	0,010
-699,758	-72,980	0,062	-0,017
-698,743	-107,457	-0,074	0,012
-697,729	519,368	-0,011	0,020
-696,714	788,512	-0,065	-0,133
-695,699	800,000	-0,064	-0,191
-694,685	800,000	-0,030	-0,067
-693,670	36,105	-0,127	0,083
-692,656	-1,357	-0,045	-0,023
-691,641	3,821	-0,074	0,040
-690,627	212,069	-0,118	0,138
-689,612	696,635	0,012	0,024
-688,597	-200,000	-0,001	-0,039
-687,583	-200,000	0,008	-0,093
-686,568	98,947	-0,086	-0,073
-685,554	161,068	0,022	0,023
-684,539	-200,000	0,000	0,046
-683,524	-76,958	-0,135	0,035
-682,510	-23,324	-0,078	-0,035
-681,495	-55,010	0,039	0,013
-680,481	292,744	-0,055	-0,074
-679,466	29,438	-0,100	-0,063
-678,451	-200,000	0,003	0,064
-677,437	800,000	0,035	0,094
-676,422	60,031	0,115	0,084
-675,408	-76,202	-0,088	-0,023
-674,393	-200,000	0,000	0,027
-673,378	-60,989	-0,053	-0,016
-672,364	800,000	0,016	0,041
-671,349	-200,000	0,044	-0,261
-670,335	19,652	0,093	0,055
-669,320	800,000	-0,032	-0,071
-668,305	150,457	-0,050	-0,050
-667,291	100,358	-0,088	-0,076
-666,276	-55,381	-0,163	-0,054
-665,262	-174,579	-0,118	0,002
-664,247	-110,235	-0,071	0,011
-663,232	3,180	0,114	-0,061
-662,218	-131,950	0,115	-0,011
-661,203	-200,000	0,027	0,087
-660,189	222,356	-0,098	0,117
-659,174	29,867	-0,059	0,037
-658,159	13,958	-0,014	-0,008
-657,145	-81,586	0,040	0,010
-656,130	-200,000	0,013	-0,050
-655,116	729,749	-0,032	0,064
-654,101	800,000	0,012	0,027
-653,086	-19,928	-0,034	-0,016
-652,072	-35,580	0,033	0,013
-651,057	549,769	0,037	0,065
-650,043	7,640	-0,061	0,034
-649,028	-160,942	-0,069	-0,003
-648,014	110,053	-0,077	-0,068
-646,999	146,354	0,031	0,031
-645,984	272,134	-0,080	0,104
-644,970	800,000	0,008	-0,024
-643,955	-200,000	-0,014	0,049
-642,941	800,000	0,042	-0,121
-641,926	-200,000	0,015	-0,097
-640,911	-200,000	0,009	0,156
-639,897	300,092	0,024	0,033
-638,882	227,830	-0,078	0,094
-637,868	-42,107	-0,031	0,012
-636,853	157,982	0,070	-0,072
-635,838	-26,534	-0,037	-0,016
-634,824	486,874	-0,063	-0,107
-633,809	-200,000	-0,016	0,071
-632,795	110,273	0,081	0,072
-631,780	12,078	0,064	0,037
-630,765	501,866	-0,045	0,077
-629,751	68,609	-0,018	-0,014
-628,736	55,736	-0,011	0,008
-627,722	272,318	0,110	-0,144
-626,707	11,602	0,035	-0,020
-625,692	560,716	0,039	0,070
-624,678	149,570	0,017	-0,017
-623,663	-48,325	-0,022	-0,008
-622,649	414,904	-0,038	0,061
-621,634	401,161	-0,009	-0,014
-620,619	778,760	0,045	-0,092
-619,605	800,000	0,024	-0,056
-618,590	-80,265	-0,094	0,023
-617,576	543,205	0,057	0,102
-616,561	407,111	0,029	-0,045
-615,546	-200,000	0,014	0,080
-614,532	-200,000	-0,019	-0,143
-613,517	58,661	-0,094	-0,068
-612,503	406,299	-0,020	-0,031
-611,488	81,573	-0,033	0,026
-610,474	800,000	0,042	0,111
-609,459	800,000	-0,069	0,156
-608,444	424,820	0,065	-0,104
-607,430	-200,000	-0,015	-0,142
-606,415	74,688	-0,078	-0,060
-605,401	-56,512	0,108	-0,035
-604,386	-13,511	0,117	-0,056
-603,371	50,352	-0,045	-0,031
-602,357	647,207	0,015	0,028
-601,342	800,000	-0,036	-0,112
-600,328	-34,280	-0,163	-0,066
-599,313	-103,600	0,114	-0,020
-598,298	-51,716	0,024	-0,008
-597,284	800,000	-0,025	-0,054
-596,269	-103,496	0,101	0,017
-595,255	388,867	0,034	0,052
-594,240	-200,000	0,009	0,042
-593,225	800,000	-0,051	-0,165
-592,211	-97,406	0,151	0,029
-591,196	395,316	-0,036	-0,056
-590,182	-17,911	0,093	-0,043
-589,167	-200,000	0,029	-0,118
-588,152	398,092	0,064	-0,100
-587,138	505,804	-0,030	0,052
-586,123	-105,571	-0,136	-0,023
-585,109	800,000	-0,047	-0,125
-584,094	-200,000	-0,003	-0,164
-583,079	-200,000	0,002	0,031
-582,065	318,350	0,042	0,059
-581,050	187,330	0,039	-0,043
-580,036	-37,335	-0,060	-0,024
-579,021	33,814	0,031	-0,020
-578,006	259,209	0,052	0,067
-576,992	-200,000	-0,002	0,139
-575,977	-153,158	0,025	0,001
-574,963	340,838	0,102	-0,148
-573,948	-200,000	0,011	-0,120
-572,934	49,353	-0,078	-0,054
-571,919	230,947	-0,140	-0,170
-570,904	800,000	0,012	-0,029
-569,890	-56,931	0,056	0,018
-568,875	-200,000	-0,015	-0,058
-567,861	800,000	0,040	0,101
-566,846	-200,000	-0,006	0,063
-565,831	136,989	-0,033	-0,032
-564,817	185,873	0,088	0,096
-563,802	473,834	-0,038	-0,064
-562,788	-200,000	-0,015	0,049
-561,773	-144,929	0,111	0,007
-560,758	58,921	0,042	-0,030
-559,744	-131,996	-0,142	-0,014
-558,729	22,683	-0,065	-0,039
-557,715	800,000	-0,026	-0,059
-556,700	523,016	-0,070	-0,122
-555,685	389,320	0,051	-0,079
-554,671	149,432	0,011	-0,011
-553,656	392,147	0,033	0,051
-552,642	-51,247	0,137	0,047
-551,627	-45,031	-0,013	-0,005
-550,612	-200,000	-0,003	-0,068
-549,598	-145,146	-0,126	-0,008
-548,583	-200,000	-0,014	0,047
-547,569	91,797	0,030	-0,025
-546,554	281,096	0,036	0,048
-545,539	122,523	-0,081	-0,075
-544,525	244,642	0,072	-0,090
-543,510	-12,921	0,105	0,050
-542,496	8,907	0,061	-0,034
-541,481	49,412	0,019	-0,014
-540,466	164,878	0,076	0,079
-539,452	800,000	-0,057	-0,148
-538,437	-95,062	0,051	0,010
-537,423	224,118	0,071	-0,085
-536,408	800,000	0,029	-0,072
-535,393	336,478	-0,008	0,011
-534,379	51,357	-0,065	-0,046
-533,364	132,464	0,009	0,008
-532,350	-5,642	0,022	-0,011
-531,335	27,344	0,043	-0,027
-530,321	-200,000	0,040	0,200
-529,306	-47,222	-0,084	0,030
-528,291	-71,543	0,023	-0,006
-527,277	-200,000	-0,009	0,121
-526,262	652,465	-0,051	0,097
-525,248	800,000	-0,006	-0,016
-524,233	-17,259	0,046	-0,021
-523,218	800,000	0,078	0,174
-522,204	-200,000	-0,044	0,164
-521,189	-153,512	0,072	-0,004
-520,175	-200,000	0,006	-0,169
-519,160	-125,602	0,062	-0,007
-518,145	-56,300	0,032	-0,010
-517,131	-200,000	-0,022	0,131
-516,116	-85,162	0,103	-0,024
-515,102	383,383	0,058	0,088
-514,087	571,921	0,064	0,115
-513,072	671,179	0,049	0,093
-512,058	-200,000	-0,047	0,167
-511,043	-20,506	0,170	0,077
-510,029	-200,000	0,028	0,123
-509,014	124,963	0,087	-0,081
-507,999	13,168	0,089	0,051
-506,985	800,000	-0,035	-0,090
-505,970	210,986	-0,096	-0,112
-504,956	27,674	-0,105	-0,065
-503,941	-200,000	0,004	-0,204
-502,926	-40,305	-0,107	-0,041
-501,912	-98,466	0,102	0,019
-500,897	288,994	-0,011	0,015
-499,883	756,858	-0,047	-0,095
-498,868	788,402	-0,068	-0,139
-497,853	294,891	0,036	0,049
-496,839	246,777	0,084	0,105
-495,824	-62,965	-0,176	0,053
-494,810	-200,000	-0,013	0,076
-493,795	-5,190	-0,089	0,045
-492,781	-179,342	-0,160	0,003
-491,766	-200,000	0,012	0,056
-490,751	545,622	-0,023	-0,041
-489,737	-200,000	-0,005	0,019
-488,722	-146,411	-0,060	-0,004
-487,708	-137,782	0,023	-0,002
-486,693	84,747	-0,076	-0,061
-485,678	376,342	0,078	0,117
-484,664	-200,000	0,000	-0,021
-483,649	-200,000	0,000	-0,029
-482,635	800,000	0,023	-0,050
-481,620	749,586	-0,037	0,074
-480,605	-115,822	0,154	-0,021
-479,591	-200,000	-0,008	0,038
-478,576	800,000	-0,062	0,133
-477,562	-200,000	0,012	0,045
-476,547	800,000	0,020	-0,043
-475,532	-133,768	-0,170	0,015
-474,518	800,000	0,038	-0,105
-473,503	254,765	0,056	-0,070
-472,489	33,635	0,040	0,025
-471,474	800,000	-0,002	0,005
-470,459	330,728	-0,060	-0,085
-469,445	-200,000	0,036	-0,128
-468,430	-200,000	-0,025	0,086
-467,416	800,000	-0,013	-0,040
-466,401	-30,760	-0,043	0,018
-465,386	-200,000	-0,015	-0,060
-464,372	14,477	-0,201	-0,115
-463,357	800,000	-0,033	-0,086
-462,343	27,177	-0,129	0,080
-461,328	-200,000	-0,012	-0,082
-460,313	244,724	-0,014	-0,017
-459,299	-200,000	0,003	0,040
-458,284	-89,400	-0,180	0,039
-457,270	-200,000	-0,025	0,102
-456,255	246,220	-0,043	-0,053
-455,241	800,000	0,038	-0,097
-454,226	-108,820	-0,131	0,020
-453,211	144,898	-0,013	-0,012
-452,197	233,292	0,033	-0,040
-451,182	-66,551	-0,058	0,017
-450,168	-200,000	0,024	0,131
-449,153	-122,573	-0,021	-0,002
-448,138	412,235	0,005	-0,007
-447,124	644,568	0,057	-0,107
-446,109	-124,083	-0,169	0,019
-445,095	-200,000	0,024	0,146
-444,080	-77,463	0,114	0,029
-443,065	143,218	0,097	-0,095
-442,051	800,000	-0,050	-0,119
-441,036	-200,000	-0,044	-0,189
-440,022	102,751	-0,069	-0,060
-439,007	-200,000	0,023	0,170
-437,992	158,266	-0,046	0,047
-436,978	800,000	-0,033	-0,076
-435,963	487,849	0,072	0,121
-434,949	521,565	0,095	0,164
-433,934	-165,604	0,108	-0,003
-432,919	-27,716	-0,200	0,085
-431,905	-200,000	-0,014	-0,141
-430,890	8,774	-0,075	0,042
-429,876	64,612	0,028	-0,021
-428,861	-200,000	0,004	0,045
-427,846	-152,452	-0,099	0,005
-426,832	-200,000	0,003	-0,068
-425,817	60,508	-0,094	-0,068
-424,803	-173,397	-0,137	-0,003
-423,788	-95,387	-0,093	-0,018
-422,773	800,000	-0,026	0,075
-421,759	-189,150	-0,084	0,001
-420,744	5,427	-0,022	0,012
-419,730	185,668	-0,068	0,074
-418,715	161,138	-0,093	0,096
-417,701	304,217	0,053	-0,073
-416,686	98,976	0,118	-0,100
-415,671	-120,453	0,084	0,010
-414,657	-200,000	-0,003	-0,129
-413,642	-37,253	0,105	0,041
-412,628	-43,279	-0,169	-0,063
-411,613	-200,000	-0,018	-0,070
-410,598	-200,000	0,007	-0,200
-409,584	-157,547	0,158	-0,007
-408,569	198,214	-0,039	0,044
-407,555	5,017	0,071	0,038
-406,540	538,152	0,051	-0,089
-405,525	180,546	-0,066	-0,071
-404,511	-13,132	-0,033	0,016
-403,496	97,145	0,012	-0,010
-402,482	-200,000	0,003	-0,063
-401,467	118,207	-0,044	0,039
-400,452	8,786	0,097	0,053
-399,438	363,086	-0,052	-0,077
-398,423	-94,008	-0,139	0,028
-397,409	-200,000	0,008	-0,037
-396,394	-109,381	0,035	0,005
-395,379	800,000	-0,046	-0,109
-394,365	-136,052	0,107	0,009
-393,350	171,198	0,065	-0,068
-392,336	232,746	0,012	0,014
-391,321	-37,393	-0,067	0,026
-390,306	-50,451	-0,076	0,026
-389,292	-200,000	0,025	-0,138
-388,277	-55,241	-0,114	-0,037
-387,263	-135,224	0,207	-0,018
-386,248	-0,593	0,044	0,023
-385,233	0,703	-0,102	-0,053
-384,219	-200,000	0,032	0,125
-383,204	492,353	0,075	-0,127
-382,190	799,115	-0,051	-0,103
-381,175	121,976	0,056	-0,051
-380,160	-52,889	-0,084	-0,028
-379,146	267,995	0,017	0,022
-378,131	234,640	-0,043	-0,052
-377,117	-200,000	-0,005	-0,047
-376,102	433,168	-0,053	0,086
-375,088	-166,296	0,104	-0,003
-374,073	800,000	-0,006	-0,015
-373,058	323,099	-0,062	-0,087
-372,044	57,848	0,075	0,054
-371,029	-72,066	0,087	0,024
-370,015	-24,762	0,128	0,055
-369,000	-200,000	0,007	0,038
-367,985	-9,323	-0,047	-0,023
-366,971	-200,000	0,003	-0,151
-365,956	-70,121	0,082	-0,023
-364,942	-95,680	0,047	-0,009
-363,927	11,468	-0,097	0,054
-362,912	-200,000	0,014	0,111
-361,898	-66,581	-0,014	0,004
-360,883	-200,000	0,005	-0,037
-359,869	-77,680	0,005	-0,001
-358,854	-131,100	0,015	0,001
-357,839	-18,823	0,254	-0,115
-356,825	800,000	-0,042	0,092
-355,810	621,611	-0,016	0,030
-354,796	-95,858	0,014	-0,003
-353,781	800,000	0,033	-0,086
-352,766	569,419	0,025	-0,044
-351,752	-200,000	0,000	0,066
-350,737	-33,352	0,144	0,058
-349,723	-116,829	0,067	-0,009
-348,708	-200,000	0,015	0,049
-347,693	-83,934	0,133	0,031
-346,679	-123,190	-0,099	-0,011
-345,664	26,258	0,104	-0,063
-344,650	800,000	0,050	-0,109
-343,635	-76,082	-0,146	0,038
-342,620	-84,377	-0,043	-0,010
-341,606	-200,000	0,025	-0,098
-340,591	-200,000	-0,027	0,111
-339,577	-200,000	-0,001	0,035
-338,562	114,368	0,033	-0,030
-337,548	208,470	-0,065	-0,075
-336,533	210,565	0,167	0,193
-335,518	-65,096	-0,104	0,031
-334,504	48,641	-0,035	-0,024
-333,489	-200,000	-0,005	0,079
-332,475	-72,093	-0,124	0,034
-331,460	524,734	0,047	-0,082
-330,445	183,282	-0,174	0,188
-329,431	-200,000	-0,011	-0,071
-328,416	-57,777	0,070	0,022
-327,402	800,000	0,023	-0,054
-326,387	34,464	-0,097	-0,062
-325,372	800,000	0,018	0,045
-324,358	-200,000	0,011	0,089
-323,343	800,000	0,043	0,101
-322,329	-200,000	0,021	0,083
-321,314	119,291	0,079	0,072
-320,299	727,101	-0,020	-0,038
-319,285	-200,000	0,006	0,101
-318,270	200,810	-0,079	0,089
-317,256	-200,000	0,029	0,111
-316,241	107,889	-0,074	0,064
-315,226	581,694	0,039	-0,071
-314,212	-200,000	0,005	-0,103
-313,197	-75,282	0,067	0,017
-312,183	-200,000	-0,013	-0,087
-311,168	-54,285	-0,155	-0,051
-310,153	627,475	-0,075	-0,139
-309,139	-91,254	0,052	0,011
-308,124	800,000	0,057	0,124
-307,110	489,651	-0,031	-0,052
-306,095	284,959	0,029	0,038
-305,080	-24,643	-0,208	0,090
-304,066	171,034	-0,054	0,056
-303,051	65,806	-0,091	-0,067
-302,037	-6,092	0,072	-0,036
-301,022	160,151	0,056	-0,058
-300,008	-200,000	0,012	0,041
-298,993	359,609	-0,067	0,098
-297,978	-13,514	-0,065	0,031
-296,964	-0,346	0,076	-0,039
-295,949	54,375	0,035	-0,024
-294,935	-117,880	0,081	0,011
-293,920	800,000	0,023	0,073
-292,905	-16,963	-0,135	0,062
-291,891	-89,937	0,019	-0,004
-290,876	-121,355	0,108	-0,013
-289,862	800,000	-0,035	-0,094
-288,847	-200,000	-0,011	-0,047
-287,832	-200,000	-0,023	-0,083
-286,818	800,000	-0,025	-0,081
-285,803	701,565	0,045	-0,087
-284,789	399,595	0,066	0,102
-283,774	6,113	-0,069	-0,038
-282,759	705,294	-0,094	0,182
-281,745	107,761	-0,091	-0,079
-280,730	369,460	-0,062	-0,092
-279,716	800,000	-0,042	0,103
-278,701	697,620	-0,018	-0,034
-277,686	0,398	0,136	-0,071
-276,672	-200,000	0,004	0,060
-275,657	273,386	0,047	0,061
-274,643	800,000	-0,015	0,035
-273,628	-65,262	-0,078	0,023
-272,613	-166,177	0,069	0,002
-271,599	62,894	0,102	-0,075
-270,584	-200,000	-0,017	0,101
-269,570	-200,000	-0,005	0,094
-268,555	-192,976	-0,131	-0,001
-267,540	-46,131	0,082	-0,029
-266,526	-200,000	-0,044	-0,143
-265,511	505,359	0,078	-0,133
-264,497	-5,289	0,074	-0,037
-263,482	-200,000	0,038	0,126
-262,467	47,052	0,102	0,069
-261,453	50,104	0,080	0,055
-260,438	-66,308	0,059	-0,017
-259,424	-200,000	-0,033	0,114
-258,409	-200,000	0,016	-0,077
-257,395	125,531	0,103	-0,095
-256,380	-200,000	0,010	-0,050
-255,365	189,170	0,026	0,028
-254,351	-200,000	-0,021	-0,134
-253,336	-160,949	0,048	0,002
-252,322	463,866	0,020	-0,033
-251,307	-38,492	-0,117	-0,045
-250,292	784,583	-0,064	0,129
-249,278	-65,686	0,025	-0,007
-248,263	-200,000	-0,015	-0,053
-247,249	-200,000	0,019	0,235
-246,234	-200,000	0,015	-0,070
-245,219	199,213	0,096	-0,108
-244,205	-200,000	0,006	0,102
-243,190	-200,000	-0,008	-0,048
-242,176	-20,467	0,113	-0,050
-241,161	70,534	0,141	0,106
-240,146	800,000	0,014	-0,046
-239,132	-117,858	-0,118	0,015
-238,117	229,701	0,079	-0,094
-237,103	-200,000	0,010	-0,217
-236,088	-79,473	0,121	-0,030
-235,073	-200,000	-0,020	0,075
-234,059	309,272	0,066	0,090
-233,044	-200,000	0,041	0,188
-232,030	520,908	0,064	-0,110
-231,015	-70,620	-0,111	-0,030
-230,000	-88,455	-0,090	0,019
-228,986	-200,000	-0,006	0,087
-227,971	-200,000	-0,010	0,035
-226,957	800,000	-0,045	0,124
-225,942	184,812	-0,120	0,130
-224,927	631,001	0,016	-0,030
-223,913	44,810	0,086	-0,058
-222,898	52,911	0,080	-0,056
-221,884	-48,751	-0,046	0,016
-220,869	-200,000	-0,009	0,036
-219,855	-40,203	0,097	0,037
-218,840	18,285	0,120	0,070
-217,825	-92,406	-0,215	-0,044
-216,811	249,380	-0,023	-0,028
-215,796	551,010	0,057	-0,101
-214,782	-200,000	-0,002	0,065
-213,767	19,607	0,085	0,050
-212,752	800,000	0,054	-0,127
-211,738	-121,418	0,055	0,007
-210,723	-122,742	-0,100	0,012
-209,709	-40,282	-0,113	-0,043
-208,694	-9,859	0,090	0,044
-207,679	800,000	-0,019	0,053
-206,665	800,000	-0,038	0,086
-205,650	191,041	0,038	-0,042
-204,636	-28,319	0,048	-0,020
-203,621	453,791	-0,083	0,134
-202,606	13,531	-0,067	-0,038
-201,592	800,000	0,045	-0,108
-200,577	107,614	-0,080	-0,070
-199,563	716,491	0,058	0,112
-198,548	800,000	-0,002	0,006
-197,533	-200,000	-0,014	-0,047
-196,519	-200,000	0,025	0,091
-195,504	427,102	-0,026	-0,040
-194,490	800,000	0,049	-0,147
-193,475	301,837	-0,092	0,124
-192,460	-200,000	0,005	0,020
-191,446	251,776	0,091	0,113
-190,431	700,391	-0,070	0,135
-189,417	-200,000	-0,022	0,076
-188,402	-123,344	0,208	0,024
-187,387	-200,000	-0,004	-0,063
-186,373	-82,339	-0,162	-0,038
-185,358	274,837	0,102	0,132
-184,344	800,000	0,013	0,040
-183,329	92,833	0,014	0,011
-182,315	473,706	0,075	0,124
-181,300	-200,000	-0,023	0,189
-180,285	144,404	-0,060	0,058
-179,271	390,567	-0,096	-0,145
-178,256	13,881	-0,133	0,075
-177,242	-71,700	0,149	-0,040
-176,227	-38,205	0,084	0,032
-175,212	697,578	-0,035	0,067
-174,198	-200,000	0,004	0,111
-173,183	800,000	0,012	0,031
-172,169	110,665	-0,050	-0,044
-171,154	251,746	0,060	0,075
-170,139	421,805	-0,092	0,144
-169,125	800,000	-0,036	0,085
-168,110	560,247	-0,063	0,111
-167,096	692,095	0,051	0,097
-166,081	150,980	-0,034	0,033
-165,066	-61,213	-0,063	-0,019
-164,052	800,000	-0,015	0,037
-163,037	-71,769	-0,063	-0,017
-162,023	47,273	0,034	0,023
-161,008	-60,804	0,090	-0,028
-159,993	252,080	-0,036	0,044
-158,979	165,583	-0,086	-0,089
-157,964	-38,091	0,093	0,036
-156,950	-49,660	-0,197	0,068
-155,935	800,000	0,040	0,113
-154,920	-13,483	-0,012	0,006
-153,906	121,647	0,077	-0,070
-152,891	-200,000	0,002	-0,039
-151,877	-200,000	-0,000	0,026
-150,862	-24,689	-0,140	0,060
-149,847	52,345	0,081	0,056
-148,833	251,029	-0,096	0,119
-147,818	502,439	0,051	-0,086
-146,804	-200,000	0,006	-0,039
-145,789	27,043	0,091	0,056
-144,775	-27,940	-0,121	-0,051
-143,760	128,900	0,138	0,128
-142,745	-200,000	-0,006	-0,089
-141,731	104,218	-0,035	-0,030
-140,716	-200,000	0,005	0,048
-139,702	-200,000	-0,020	0,086
-138,687	215,798	0,036	0,042
-137,672	26,886	-0,068	-0,041
-136,658	-19,462	-0,101	-0,046
-135,643	101,386	0,024	-0,020
-134,629	11,901	-0,061	-0,034
-133,614	-74,361	0,032	-0,008
-132,599	190,178	-0,095	0,103
-131,585	15,906	0,096	0,055
-130,570	-79,045	0,032	-0,008
-129,556	-10,520	-0,113	0,054
-128,541	-200,000	-0,002	-0,136
-127,526	800,000	-0,042	-0,097
-126,512	-200,000	0,002	0,026
-125,497	329,280	-0,038	0,053
-124,483	238,391	-0,125	-0,151
-123,468	-130,186	-0,138	-0,014
-122,453	-200,000	0,002	-0,056
-121,439	139,644	0,054	0,051
-120,424	-200,000	0,036	-0,239
-119,410	800,000	0,021	-0,056
-118,395	-124,574	0,058	0,007
-117,380	97,479	0,005	-0,004
-116,366	-50,207	-0,031	0,011
-115,351	177,349	-0,056	-0,059
-114,337	-200,000	-0,007	-0,060
-113,322	-64,375	0,076	-0,022
-112,307	-39,770	-0,101	0,038
-111,293	54,865	0,015	-0,010
-110,278	-44,552	-0,076	0,028
-109,264	781,158	0,046	-0,092
-108,249	-21,759	0,038	0,017
-107,234	-200,000	-0,017	-0,128
-106,220	-41,041	-0,090	-0,033
-105,205	800,000	-0,012	0,036
-104,191	800,000	-0,021	-0,049
-103,176	-115,934	0,074	-0,010
-102,162	366,366	0,018	-0,026
-101,147	-64,752	-0,053	0,016
-100,132	-200,000	0,012	0,076
-99,118	153,916	0,027	0,027
-98,103	-200,000	-0,018	0,072
-97,089	277,625	0,081	0,105
-96,074	21,090	-0,030	0,018
-95,059	85,632	-0,076	0,061
-94,045	800,000	-0,063	0,129
-93,030	800,000	-0,029	-0,075
-92,016	276,447	0,039	0,051
-91,001	450,951	0,038	0,061
-89,986	-166,421	0,164	0,005
-88,972	-110,824	-0,086	-0,013
-87,957	116,184	-0,077	-0,068
-86,943	129,893	0,020	0,018
-85,928	-139,679	0,074	0,006
-84,913	800,000	0,025	0,056
-83,899	-128,530	-0,160	0,016
-82,884	-94,436	-0,058	0,011
-81,870	-200,000	-0,008	0,307
-80,855	48,468	0,017	0,012
-79,840	-4,635	-0,073	0,037
-78,826	238,892	-0,099	0,120
-77,811	-11,826	-0,063	-0,030
-76,797	800,000	0,031	0,070
-75,782	800,000	0,024	0,064
-74,767	336,881	0,076	0,107
-73,753	-166,789	0,056	0,002
-72,738	96,299	0,104	0,086
-71,724	408,043	-0,077	-0,118
-70,709	269,207	-0,022	-0,028
-69,694	-200,000	-0,020	0,068
-68,680	519,011	0,070	0,120
-67,665	-200,000	-0,027	0,135
-66,651	110,191	-0,087	0,076
-65,636	41,352	-0,013	0,008
-64,622	124,426	-0,094	-0,086
-63,607	-73,626	-0,045	0,012
-62,592	-70,736	0,078	0,021
-61,578	31,828	-0,060	0,037
-60,563	346,257	0,060	-0,086
-59,549	800,000	0,064	0,138
-58,534	-143,322	-1,467	-0,100
-57,519	800,000	-0,715	-1,518
-56,505	-200,000	-0,851	-4,478
-55,490	-33,212	0,603	-0,241
-54,476	800,000	4,917	11,702
-53,461	-200,000	14,063	252,903
-52,446	-200,000	692,352	2240,839
-51,432	576,579	1623,308	2887,718
-50,417	117,758	1633,342	1457,985
-49,403	72,344	1287,222	971,430
-48,388	37,475	1023,479	656,721
-47,373	23,982	981,300	585,321
-46,359	23,227	970,741	576,526
-45,344	22,229	966,523	570,740
-44,330	22,156	965,071	569,623
-43,315	22,048	963,545	568,347
-42,300	22,064	962,619	567,832
-41,286	22,015	961,702	567,108
-40,271	22,039	960,595	566,512
-39,257	22,020	959,651	565,869
-38,242	21,976	958,890	565,258
-37,227	22,008	957,918	564,765
-36,213	21,973	957,111	564,154
-35,198	21,955	956,181	563,526
-34,184	22,037	955,549	563,395
-33,169	22,006	954,630	562,730
-32,154	22,047	953,772	562,333
-31,140	22,096	952,753	561,870
-30,125	22,048	951,972	561,231
-29,111	22,049	951,369	560,856
-28,096	22,070	950,656	560,480
-27,082	22,026	949,961	559,909
-26,067	22,039	949,155	559,453
-25,052	22,052	948,401	559,027
-24,038	22,056	947,758	558,641
-23,023	22,085	947,065	558,303
-22,009	22,081	946,437	557,897
-20,994	22,045	945,814	557,392
-19,979	22,051	945,282	557,076
-18,965	22,041	944,620	556,632
-17,950	22,074	943,976	556,336
-16,936	21,942	943,457	555,587
-15,921	21,981	942,607	555,188
-14,906	21,895	941,943	554,502
-13,892	22,002	941,279	554,430
-12,877	21,967	940,492	553,833
-11,863	21,893	939,902	553,228
-10,848	21,942	939,463	553,103
-9,833	22,007	939,163	553,112
-8,819	22,002	938,427	552,641
-7,804	21,931	937,683	551,956
-6,790	21,874	937,099	551,410
-5,775	21,897	936,566	551,146
-4,760	21,923	935,808	550,759
-3,746	21,875	935,360	550,323
-2,731	21,797	934,707	549,673
-1,717	21,721	934,006	548,997
-0,702	21,774	933,182	548,659
0,313	21,548	932,635	548,452
1,327	24,729	930,565	557,175
2,342	34,221	794,784	501,106
3,356	32,176	450,849	281,157
4,371	1,212	294,045	152,461
5,386	-3,571	274,953	138,021
6,400	-4,461	269,190	134,290
7,415	-4,782	266,882	132,831
8,429	-4,814	265,744	132,224
9,444	-4,731	264,789	131,813
10,459	-4,669	264,211	131,570
11,473	-4,887	263,577	131,044
12,488	-4,820	263,029	130,820
13,502	-5,023	262,618	130,420
14,517	-4,947	262,147	130,244
15,531	-4,820	261,728	130,139
16,546	-4,780	261,473	130,037
17,561	-5,039	261,025	129,569
18,575	-4,742	260,798	129,712
19,590	-4,820	260,269	129,367
20,604	-4,846	260,201	129,299
21,619	-4,948	259,746	128,970
22,634	-4,981	259,472	128,792
23,648	-4,926	259,076	128,633
24,663	-5,030	258,984	128,483
25,677	-4,855	258,669	128,472
26,692	-5,037	258,368	128,149
27,707	-4,869	258,162	128,184
28,721	-4,869	257,868	128,027
29,736	-4,945	257,707	127,868
30,750	-5,168	257,525	127,569
31,765	-4,850	256,993	127,575
32,780	-4,961	256,987	127,462
33,794	-4,982	256,596	127,239
34,809	-5,008	256,347	127,081
35,823	-4,883	256,150	127,082
36,838	-4,922	255,876	126,900
37,853	-5,014	255,659	126,701
38,867	-5,078	255,470	126,540
39,882	-5,052	255,298	126,466
40,896	-4,911	254,985	126,423
41,911	-5,035	254,872	126,248
42,926	-5,076	254,647	126,089
43,940	-5,056	254,315	125,930
44,955	-4,990	254,028	125,835
45,969	-5,223	254,009	125,610
46,984	-5,291	253,547	125,312
47,999	-5,503	253,471	125,078
49,013	-5,648	253,118	124,767
50,028	-5,683	252,921	124,628
51,042	-5,752	252,685	124,441
52,057	-5,684	252,333	124,315
53,071	-5,705	252,182	124,212
54,086	-5,567	252,073	124,266
55,101	-5,497	251,910	124,235
56,115	-5,202	251,782	124,416
57,130	-4,980	251,688	124,551
58,144	-4,801	251,556	124,629
59,159	-4,786	251,331	124,520
60,174	-4,734	251,167	124,472
61,188	-4,866	250,954	124,242
62,203	-4,830	250,740	124,155
63,217	-4,984	250,640	123,963
64,232	-4,945	250,176	123,756
65,247	-4,831	250,111	123,810
66,261	-4,914	249,762	123,556
67,276	-5,108	249,510	123,253
68,290	-5,193	249,380	123,106
69,305	-5,340	249,243	122,901
70,320	-5,105	248,849	122,897
71,334	-5,070	248,811	122,897
72,349	-4,828	248,730	123,052
73,363	-4,756	248,400	122,939
74,378	-4,812	248,201	122,782
75,393	-4,795	248,133	122,752
76,407	-4,833	247,829	122,559
77,422	-5,107	247,590	122,197
78,436	-4,815	247,321	122,301
79,451	-4,937	247,316	122,183
80,466	-4,906	246,851	121,969
81,480	-5,212	246,702	121,626
82,495	-4,984	246,527	121,722
83,509	-5,221	246,434	121,465
84,524	-5,076	246,251	121,486
85,539	-5,310	246,005	121,157
86,553	-5,236	245,705	121,060
87,568	-5,167	245,531	121,022
88,582	-5,006	245,385	121,075
89,597	-5,270	245,154	120,728
90,611	-5,164	245,210	120,834
91,626	-5,038	245,026	120,838
92,641	-4,787	244,696	120,875
93,655	-4,994	244,606	120,647
94,670	-5,083	244,414	120,467
95,684	-5,122	244,220	120,327
96,699	-5,115	243,969	120,199
97,714	-5,037	243,660	120,101
98,728	-5,096	243,634	120,029
99,743	-5,146	243,379	119,850
100,757	-5,187	243,120	119,678
101,772	-5,358	242,985	119,459
102,787	-5,353	242,852	119,387
103,801	-5,256	242,796	119,429
104,816	-5,240	242,620	119,345
105,830	-4,888	242,337	119,487
106,845	-4,822	242,129	119,429
107,860	-4,822	242,040	119,374
108,874	-5,087	241,697	118,975
109,889	-5,046	241,542	118,922
110,903	-5,176	241,551	118,808
111,918	-5,275	241,186	118,536
112,933	-5,047	241,056	118,651
113,947	-4,825	240,869	118,730
114,962	-5,005	240,711	118,494
115,976	-4,934	240,631	118,502
116,991	-4,853	240,396	118,442
118,006	-5,083	240,119	118,107
119,020	-5,058	240,207	118,160
120,035	-4,869	240,041	118,222
121,049	-5,022	239,784	117,960
122,064	-4,959	239,568	117,896
123,079	-5,121	239,374	117,657
124,093	-5,214	239,328	117,547
125,108	-5,080	239,003	117,487
126,122	-5,341	238,659	117,095
127,137	-5,517	238,603	116,914
128,151	-5,526	238,490	116,840
129,166	-5,103	238,185	117,024
130,181	-5,237	238,066	116,846
131,195	-5,257	237,757	116,668
132,210	-5,060	237,782	116,830
133,224	-5,169	237,599	116,641
134,239	-5,060	237,459	116,651
135,254	-4,895	237,264	116,678
136,268	-5,112	237,094	116,408
137,283	-5,285	236,807	116,117
138,297	-5,429	236,538	115,859
139,312	-5,282	236,357	115,879
140,327	-4,937	236,326	116,131
141,341	-4,863	236,459	116,246
142,356	-4,629	236,119	116,257
143,370	-4,531	235,973	116,253
144,385	-4,642	235,810	116,073
145,400	-4,653	235,682	115,991
146,414	-4,545	235,425	115,940
147,429	-4,659	235,395	115,824
148,443	-4,822	235,132	115,554
149,458	-4,813	235,089	115,530
150,473	-4,746	234,666	115,365
151,487	-4,713	234,593	115,345
152,502	-4,821	234,453	115,179
153,516	-4,654	234,372	115,263
154,531	-4,735	234,031	115,021
155,546	-4,922	234,027	114,859
156,560	-4,777	233,833	114,869
157,575	-4,816	233,563	114,695
158,589	-4,734	233,484	114,712
159,604	-4,641	233,353	114,711
160,619	-4,658	233,124	114,575
161,633	-4,677	233,004	114,490
162,648	-4,565	232,913	114,524
163,662	-4,727	232,734	114,297
164,677	-4,681	232,494	114,206
165,692	-4,599	232,439	114,233
166,706	-4,670	232,327	114,112
167,721	-4,614	232,092	114,031
168,735	-4,715	232,001	113,896
169,750	-4,571	231,817	113,909
170,764	-4,720	231,797	113,772
171,779	-4,582	231,505	113,727
172,794	-4,568	231,275	113,615
173,808	-4,632	231,133	113,484
174,823	-5,134	230,880	112,956
175,837	-5,171	230,632	112,796
176,852	-4,763	230,650	113,115
177,867	-4,861	230,670	113,037
178,881	-4,921	230,534	112,914
179,896	-4,505	230,201	113,066
180,910	-4,587	230,145	112,965
181,925	-4,576	229,919	112,852
182,940	-4,801	229,814	112,615
183,954	-4,711	229,679	112,609
184,969	-4,660	229,405	112,504
185,983	-4,491	229,335	112,592
186,998	-4,407	229,156	112,559
188,013	-4,420	229,052	112,487
189,027	-4,279	228,822	112,474
190,042	-4,456	228,702	112,267
191,056	-4,589	228,584	112,096
192,071	-4,393	228,443	112,170
193,086	-4,592	228,335	111,952
194,100	-4,567	228,103	111,848
195,115	-4,668	227,688	111,556
196,129	-5,043	227,399	111,115
197,144	-3,156	228,116	112,915
198,159	0,598	229,386	116,450
199,173	3,528	230,090	119,074
200,188	4,145	230,086	119,540
201,202	4,093	229,942	119,414
202,217	4,316	229,734	119,468
203,232	4,419	229,586	119,460
204,246	4,547	229,581	119,546
205,261	4,391	229,486	119,365
206,275	4,582	229,325	119,418
207,290	4,546	229,172	119,301
208,304	4,643	229,035	119,294
209,319	4,573	228,863	119,140
210,334	4,653	228,610	119,059
211,348	4,127	228,397	118,532
212,363	3,951	228,148	118,257
213,377	3,761	227,895	117,970
214,392	3,796	227,781	117,927
215,407	4,011	227,557	117,965
216,421	3,818	227,539	117,798
217,436	3,934	227,279	117,742
218,450	3,537	227,094	117,331
219,465	3,428	227,074	117,227
220,480	3,620	226,772	117,207
221,494	3,628	226,753	117,193
222,509	3,934	226,564	117,318
223,523	3,725	226,414	117,071
224,538	3,599	226,223	116,866
225,553	4,092	226,087	117,160
226,567	3,960	226,078	117,045
227,582	4,188	226,053	117,194
228,596	4,296	225,815	117,143
229,611	3,808	225,682	116,693
230,626	3,638	225,402	116,409
231,640	3,474	225,330	116,237
232,655	3,861	225,120	116,411
233,669	4,369	225,150	116,801
234,684	4,476	225,054	116,822
235,699	4,301	224,739	116,516
236,713	3,999	224,650	116,231
237,728	3,836	224,369	115,952
238,742	3,595	224,199	115,673
239,757	3,671	224,081	115,658
240,772	3,560	223,982	115,513
241,786	3,661	223,854	115,513
242,801	4,114	223,772	115,802
243,815	4,382	223,715	115,963
244,830	4,290	223,494	115,769
245,844	3,863	223,235	115,304
246,859	3,939	223,069	115,265
247,874	3,957	223,126	115,298
248,888	4,311	222,854	115,412
249,903	3,988	222,728	115,095
250,917	3,893	222,552	114,923
251,932	3,776	222,344	114,718
252,947	3,691	222,157	114,548
253,961	3,805	221,823	114,450
254,976	3,890	221,779	114,481
255,990	3,858	221,803	114,459
257,005	4,087	221,765	114,599
258,020	3,936	221,654	114,419
259,034	4,197	221,440	114,493
260,049	4,096	221,339	114,355
261,063	4,008	221,167	114,191
262,078	4,065	220,963	114,118
263,093	4,238	220,941	114,225
264,107	4,178	220,821	114,108
265,122	4,108	220,695	113,981
266,136	4,409	220,489	114,086
267,151	4,265	220,339	113,893
268,166	3,712	220,117	113,359
269,180	3,516	219,904	113,095
270,195	3,815	219,821	113,263
271,209	3,806	219,518	113,090
272,224	3,613	219,477	112,917
273,239	3,901	219,246	112,999
274,253	3,680	219,301	112,855
275,268	3,558	219,053	112,628
276,282	3,404	218,934	112,444
277,297	3,500	218,825	112,448
278,312	3,658	218,636	112,456
279,326	3,816	218,476	112,480
280,341	3,826	218,357	112,416
281,355	3,654	218,228	112,214
282,370	3,736	218,097	112,196
283,384	3,428	218,031	111,927
284,399	3,554	217,660	111,819
285,414	3,418	217,689	111,724
286,428	3,909	217,505	111,978
287,443	3,934	217,495	111,981
288,457	3,997	217,291	111,912
289,472	3,850	217,070	111,681
290,487	3,417	216,765	111,200
291,501	3,100	216,675	110,914
292,516	3,276	216,510	110,947
293,530	3,386	216,421	110,971
294,545	3,282	216,197	110,771
295,560	3,510	216,188	110,922
296,574	3,707	216,202	111,062
297,589	3,731	216,008	110,970
298,603	3,723	215,989	110,944
299,618	3,811	215,785	110,893
300,633	3,994	215,656	110,949
301,647	3,864	215,602	110,817
302,662	3,879	215,608	110,821
303,676	3,923	215,177	110,622
304,691	3,997	215,131	110,641
305,706	4,102	214,981	110,630
306,720	4,186	214,886	110,631
307,735	3,983	214,680	110,370
308,749	3,785	214,519	110,135
309,764	3,881	214,433	110,150
310,779	3,994	214,326	110,166
311,793	4,028	214,053	110,040
312,808	3,807	213,934	109,811
313,822	3,947	213,789	109,827
314,837	4,007	213,662	109,794
315,852	3,698	213,368	109,414
316,866	3,722	213,398	109,436
317,881	4,076	213,245	109,600
318,895	3,894	213,277	109,477
319,910	3,849	212,926	109,255
320,925	3,668	212,767	109,035
321,939	3,124	212,684	108,597
322,954	3,192	212,491	108,537
323,968	3,821	212,584	109,021
324,983	4,008	212,231	108,963
325,997	4,023	212,171	108,933
327,012	4,027	212,062	108,870
328,027	3,925	211,938	108,724
329,041	4,116	211,961	108,861
330,056	4,019	211,942	108,774
331,070	3,821	211,682	108,490
332,085	3,691	211,244	108,165
333,100	3,624	211,257	108,115
334,114	3,966	211,047	108,239
335,129	3,961	210,894	108,147
336,143	4,013	210,755	108,103
337,158	3,810	210,699	107,921
338,173	3,694	210,610	107,785
339,187	3,650	210,392	107,633
340,202	3,432	210,195	107,370
341,216	3,393	210,123	107,296
342,231	3,484	210,054	107,315
343,246	3,555	209,743	107,196
344,260	3,536	209,696	107,149
345,275	3,594	209,729	107,197
346,289	3,825	209,538	107,251
347,304	3,900	209,483	107,266
348,319	3,923	209,166	107,110
349,333	3,900	209,122	107,062
350,348	3,855	209,064	106,991
351,362	3,956	208,905	106,971
352,377	4,191	208,691	107,015
353,392	3,957	208,629	106,811
354,406	3,760	208,479	106,588
355,421	193,531	1344,412	1430,547
356,435	154,409	1482,900	1430,658
