DTS Sentinel unit serial number:	SN410029Multiplexer serial number:	ORYXHardware model number:	OX2-SRSoftware version number:	ORYX F/W v4,00 Oryx Data Collector v3.7.2.0data status	okinstallation	B6 Nyhavnadifferential loss correction	single-endedforward channel	channel 2reverse channel	N/Adate	2023/12/07time	22:00:08forward acquisition time	300,00reverse acquisition time	0,00gamma	499,1914k internal	0,3164k external	0,3164temperature offset calibration	1,0000default loss term (dB/km)	0,3820temperature slope calibration	1,0000multiplexer offset coefficient	1,0000multiplexer slope coefficient	1,0000fibre end	0,00T internal ref (°C)	13,63T ext. ref 1 (°C)	-3,31T ext. ref 2 (°C)	-3,32length (m)	temperature (°C)	Stokes	anti-Stokes-744,400	120,888	0,128	-0,117
-743,385	-123,830	-0,386	0,044
-742,371	272,882	0,104	0,136
-741,356	-200,000	-0,297	0,000
-740,342	-200,000	0,031	0,233
-739,327	-68,431	-0,245	-0,069
-738,312	800,000	0,066	0,141
-737,298	-102,724	-0,328	-0,057
-736,283	-36,713	0,232	0,091
-735,269	-138,639	-0,350	-0,028
-734,254	146,968	0,145	0,144
-733,239	-90,183	-0,521	-0,111
-732,225	92,473	0,196	0,162
-731,210	800,000	0,023	0,073
-730,196	-200,000	-0,014	-0,064
-729,181	-1,443	-0,078	-0,040
-728,167	-200,000	-0,032	-0,136
-727,152	-200,000	0,000	-0,128
-726,137	-55,517	-0,142	-0,046
-725,123	636,867	-0,049	-0,092
-724,108	160,954	-0,124	-0,127
-723,094	78,677	-0,213	-0,167
-722,079	800,000	0,046	-0,110
-721,064	303,090	0,024	-0,033
-720,050	-87,872	0,017	-0,004
-719,035	-200,000	-0,016	-0,103
-718,021	-200,000	-0,008	-0,093
-717,006	215,715	-0,127	-0,148
-715,991	-200,000	-0,011	-0,118
-714,977	43,720	0,104	0,070
-713,962	-200,000	0,005	0,095
-712,948	-102,150	0,010	-0,002
-711,933	800,000	0,045	0,099
-710,918	-117,250	-0,209	0,028
-709,904	800,000	-0,009	0,030
-708,889	-143,229	-0,161	0,011
-707,875	-200,000	0,027	-0,121
-706,860	-17,669	-0,090	-0,041
-705,845	683,284	0,034	-0,065
-704,831	256,239	-0,067	0,084
-703,816	-17,489	0,065	0,030
-702,802	451,646	-0,036	0,059
-701,787	195,782	-0,164	-0,183
-700,772	-46,792	0,073	-0,026
-699,758	3,202	-0,033	-0,018
-698,743	-200,000	-0,012	0,091
-697,729	101,091	-0,082	0,070
-696,714	-90,020	-0,122	-0,026
-695,699	-13,459	-0,043	0,020
-694,685	-200,000	-0,006	-0,065
-693,670	800,000	0,028	0,078
-692,656	-200,000	0,015	0,152
-691,641	11,451	0,118	-0,066
-690,627	-23,355	0,062	-0,027
-689,612	70,872	-0,022	-0,017
-688,597	251,671	-0,073	0,091
-687,583	47,206	0,097	0,066
-686,568	-175,224	-0,092	0,002
-685,554	-91,311	-0,038	0,008
-684,539	531,102	-0,059	0,104
-683,524	94,287	0,043	-0,035
-682,510	438,657	0,013	0,020
-681,495	-200,000	-0,002	-0,032
-680,481	-200,000	0,000	0,051
-679,466	646,433	-0,052	-0,098
-678,451	-137,219	-0,072	0,006
-677,437	449,682	0,025	0,040
-676,422	668,364	0,019	-0,036
-675,408	-40,118	0,053	0,020
-674,393	117,024	0,038	0,034
-673,378	-43,269	-0,183	0,067
-672,364	253,047	0,036	0,045
-671,349	-200,000	-0,008	-0,129
-670,335	272,003	-0,069	0,090
-669,320	-200,000	0,001	-0,024
-668,305	-200,000	0,009	-0,036
-667,291	-27,204	0,141	0,060
-666,276	800,000	-0,051	-0,130
-665,262	-200,000	0,020	-0,102
-664,247	12,046	-0,094	0,053
-663,232	800,000	-0,018	-0,058
-662,218	787,885	0,046	0,094
-661,203	553,668	-0,042	0,074
-660,189	152,639	-0,066	0,066
-659,174	357,486	-0,078	-0,114
-658,159	44,383	-0,033	0,022
-657,145	509,355	0,003	0,005
-656,130	-200,000	-0,070	0,242
-655,116	800,000	-0,016	-0,038
-654,101	-121,967	-0,073	0,009
-653,086	69,231	0,060	0,045
-652,072	125,914	-0,098	-0,090
-651,057	-100,181	-0,081	0,015
-650,043	607,585	0,030	-0,056
-649,028	-107,513	-0,073	0,012
-648,014	-200,000	0,003	0,111
-646,999	-19,922	0,088	-0,040
-645,984	-200,000	0,010	0,076
-644,970	-1,137	0,030	0,015
-643,955	-200,000	-0,009	-0,111
-642,941	65,314	-0,082	-0,060
-641,926	301,703	-0,046	-0,063
-640,911	86,780	-0,049	-0,039
-639,897	-78,670	-0,077	0,019
-638,882	-178,033	-0,031	0,001
-637,868	237,054	-0,067	-0,081
-636,853	602,308	-0,089	-0,162
-635,838	800,000	-0,046	-0,135
-634,824	207,429	-0,076	-0,087
-633,809	800,000	-0,032	0,092
-632,795	146,167	0,058	0,057
-631,780	-200,000	0,004	-0,116
-630,765	-62,584	-0,066	0,020
-629,751	97,400	-0,097	-0,082
-628,736	-200,000	-0,003	-0,011
-627,722	-200,000	-0,000	-0,068
-626,707	209,381	0,036	-0,041
-625,692	12,157	0,089	-0,050
-624,678	180,633	-0,014	-0,015
-623,663	55,045	-0,113	-0,080
-622,649	800,000	-0,031	-0,087
-621,634	3,528	0,019	0,010
-620,619	110,569	-0,066	-0,058
-619,605	548,309	-0,051	0,090
-618,590	36,153	-0,099	0,064
-617,576	186,068	0,136	-0,148
-616,561	136,101	-0,048	0,046
-615,546	-200,000	0,009	-0,093
-614,532	85,758	-0,050	0,040
-613,517	800,000	-0,077	0,177
-612,503	-143,104	0,115	0,008
-611,488	612,491	-0,119	0,220
-610,474	-102,105	0,118	0,021
-609,459	-56,479	0,029	0,009
-608,444	271,636	-0,055	-0,071
-607,430	-3,172	-0,066	0,034
-606,415	-119,939	-0,175	-0,022
-605,401	-45,211	0,133	-0,048
-604,386	-200,000	0,019	0,089
-603,371	162,125	0,076	0,078
-602,357	65,239	0,068	0,050
-601,342	435,438	0,077	0,123
-600,328	-124,268	0,055	-0,006
-599,313	800,000	-0,026	-0,056
-598,298	130,975	0,090	-0,085
-597,284	800,000	0,028	0,060
-596,269	-90,617	0,115	-0,024
-595,255	164,823	-0,152	-0,157
-594,240	800,000	-0,044	-0,104
-593,225	244,484	0,082	-0,102
-592,211	-125,572	-0,204	-0,022
-591,196	-200,000	0,011	-0,060
-590,182	-200,000	-0,022	-0,109
-589,167	800,000	-0,038	0,087
-588,152	38,851	-0,077	0,050
-587,138	800,000	0,053	0,133
-586,123	-155,364	-0,053	0,002
-585,109	47,605	-0,033	0,022
-584,094	237,364	-0,047	0,057
-583,079	-200,000	-0,010	0,136
-582,065	60,464	-0,116	-0,084
-581,050	-200,000	-0,024	-0,090
-580,036	-200,000	0,001	0,037
-579,021	468,180	-0,122	-0,201
-578,006	-200,000	-0,009	-0,064
-576,992	-144,484	0,065	-0,004
-575,977	-14,033	-0,072	-0,034
-574,963	800,000	0,035	0,085
-573,948	208,316	-0,026	-0,030
-572,934	-69,943	-0,119	0,033
-571,919	-151,600	-0,132	-0,007
-570,904	41,211	0,010	-0,007
-569,890	65,900	-0,115	-0,085
-568,875	539,348	0,045	-0,079
-567,861	-32,188	-0,064	-0,026
-566,846	-70,496	0,073	0,020
-565,831	-200,000	0,002	0,015
-564,817	-73,621	-0,071	0,019
-563,802	800,000	-0,045	-0,102
-562,788	-7,766	0,050	0,024
-561,773	-200,000	0,039	-0,193
-560,758	119,841	-0,054	0,049
-559,744	-40,328	-0,028	-0,011
-558,729	730,762	0,059	0,116
-557,715	800,000	0,009	-0,020
-556,700	800,000	-0,042	-0,110
-555,685	196,125	-0,050	0,056
-554,671	800,000	0,010	0,031
-553,656	745,237	0,063	-0,125
-552,642	81,581	0,060	0,047
-551,627	207,881	-0,035	0,040
-550,612	-15,666	-0,131	0,061
-549,598	130,838	-0,081	-0,076
-548,583	69,569	0,053	-0,040
-547,569	800,000	-0,059	-0,119
-546,554	152,430	-0,063	0,063
-545,539	8,124	0,012	0,006
-544,525	-59,930	-0,061	0,019
-543,510	800,000	-0,052	-0,124
-542,496	67,245	-0,009	-0,007
-541,481	-200,000	0,011	-0,063
-540,466	104,848	0,021	0,018
-539,452	-129,483	-0,028	-0,003
-538,437	800,000	-0,019	0,044
-537,423	306,798	-0,035	0,047
-536,408	139,472	-0,037	0,036
-535,393	731,132	-0,050	0,097
-534,379	-5,910	-0,056	0,028
-533,364	-4,316	-0,069	-0,035
-532,350	26,261	0,163	-0,099
-531,335	245,614	-0,025	0,031
-530,321	79,908	0,104	0,081
-529,306	-127,877	0,122	0,013
-528,291	142,350	0,075	-0,072
-527,277	490,174	-0,042	-0,070
-526,262	-104,550	0,112	-0,019
-525,248	-29,652	0,106	-0,044
-524,233	-163,852	-0,045	0,002
-523,218	-0,725	0,197	0,101
-522,204	22,300	-0,212	0,126
-521,189	723,226	-0,043	-0,083
-520,175	113,200	-0,075	-0,067
-519,160	-15,057	-0,100	-0,047
-518,145	-35,192	0,093	-0,037
-517,131	384,391	-0,050	0,075
-516,116	644,893	0,032	0,060
-515,102	800,000	0,016	-0,034
-514,087	-84,260	0,056	-0,013
-513,072	-79,743	-0,109	0,026
-512,058	58,471	-0,092	-0,066
-511,043	41,560	-0,049	0,032
-510,029	800,000	0,076	-0,154
-509,014	-172,243	-0,118	-0,003
-507,999	-145,771	-0,081	-0,005
-506,985	182,939	0,051	-0,055
-505,970	-200,000	-0,012	-0,123
-504,956	-200,000	-0,004	-0,025
-503,941	-200,000	0,028	0,118
-502,926	-10,111	0,039	-0,019
-501,912	479,240	0,026	-0,043
-500,897	-46,778	-0,084	0,030
-499,883	-80,168	0,122	-0,030
-498,868	-2,116	0,102	0,052
-497,853	329,126	-0,085	0,119
-496,839	-200,000	-0,015	-0,180
-495,824	8,544	-0,065	0,036
-494,810	-33,700	0,066	0,026
-493,795	-200,000	-0,010	0,038
-492,781	207,452	-0,016	0,018
-491,766	307,309	0,024	-0,033
-490,751	-137,259	0,111	0,009
-489,737	-66,851	-0,061	-0,017
-488,722	149,944	0,046	0,045
-487,708	-200,000	0,009	0,095
-486,693	-110,180	0,086	0,013
-485,678	-164,557	0,090	0,003
-484,664	-200,000	0,025	0,101
-483,649	800,000	-0,043	-0,108
-482,635	-44,618	-0,087	0,031
-481,620	380,538	-0,070	0,105
-480,605	-200,000	-0,013	0,122
-479,591	-200,000	0,033	-0,157
-478,576	683,757	0,077	0,148
-477,562	-200,000	0,006	0,126
-476,547	800,000	-0,027	-0,056
-475,532	213,651	0,026	-0,030
-474,518	-13,808	0,137	0,064
-473,503	626,173	0,033	0,061
-472,489	-200,000	0,023	0,096
-471,474	23,706	-0,090	-0,054
-470,459	250,079	-0,064	-0,079
-469,445	507,296	0,014	0,024
-468,430	281,951	-0,057	0,074
-467,416	170,404	0,019	0,019
-466,401	-200,000	0,008	0,137
-465,386	-200,000	0,007	-0,037
-464,372	-200,000	-0,007	0,080
-463,357	-38,774	-0,117	0,045
-462,343	348,119	-0,029	-0,042
-461,328	-200,000	-0,037	0,120
-460,313	-90,099	-0,042	0,009
-459,299	800,000	-0,018	-0,048
-458,284	-127,328	0,215	0,023
-457,270	-66,700	-0,058	0,017
-456,255	800,000	-0,020	0,061
-455,241	122,361	-0,037	-0,034
-454,226	-24,300	0,035	-0,015
-453,211	192,334	-0,032	0,035
-452,197	49,884	0,118	-0,081
-451,182	121,618	-0,034	-0,031
-450,168	738,871	0,035	0,069
-449,153	151,270	0,029	-0,029
-448,138	800,000	-0,015	-0,040
-447,124	-200,000	0,014	-0,154
-446,109	-90,938	0,096	0,020
-445,095	428,116	-0,039	-0,062
-444,080	-200,000	-0,035	0,115
-443,065	-149,884	0,149	0,008
-442,051	800,000	0,017	0,040
-441,036	-71,286	-0,044	-0,012
-440,022	-175,059	-0,125	0,002
-439,007	343,278	-0,022	0,032
-437,992	112,040	0,027	0,023
-436,978	194,176	0,200	0,220
-435,963	-39,940	-0,123	0,046
-434,949	783,151	-0,018	0,035
-433,934	-200,000	0,013	-0,080
-432,919	789,364	0,014	0,029
-431,905	222,640	-0,089	0,104
-430,890	364,816	-0,130	0,190
-429,876	-149,345	-0,171	0,010
-428,861	105,454	0,076	0,065
-427,846	140,908	0,074	0,072
-426,832	151,134	-0,145	-0,143
-425,817	-1,265	0,062	-0,032
-424,803	-200,000	0,025	-0,114
-423,788	129,610	0,021	-0,019
-422,773	-66,083	0,050	-0,014
-421,759	-200,000	0,008	-0,041
-420,744	141,040	0,040	-0,039
-419,730	156,470	0,037	-0,037
-418,715	130,055	-0,033	0,031
-417,701	-36,894	-0,025	-0,010
-416,686	-154,938	0,129	0,006
-415,671	183,838	-0,036	-0,038
-414,657	-16,772	-0,063	0,029
-413,642	-41,983	0,044	-0,016
-412,628	-32,626	-0,009	0,003
-411,613	800,000	-0,029	0,075
-410,598	800,000	-0,006	-0,017
-409,584	-43,776	0,063	0,023
-408,569	-142,645	0,151	-0,011
-407,555	124,070	0,038	0,035
-406,540	-200,000	0,041	0,139
-405,525	319,198	0,074	-0,102
-404,511	-117,617	-0,126	0,016
-403,496	-200,000	0,007	0,091
-402,482	-200,000	0,003	0,047
-401,467	248,003	-0,048	0,059
-400,452	501,878	-0,078	0,132
-399,438	498,598	-0,077	0,129
-398,423	800,000	-0,062	0,132
-397,409	19,510	-0,105	-0,061
-396,394	800,000	0,012	-0,039
-395,379	-200,000	0,024	0,107
-394,365	298,815	0,085	-0,114
-393,350	-200,000	0,015	0,083
-392,336	563,066	0,033	0,058
-391,321	-61,856	-0,055	0,017
-390,306	-200,000	0,031	-0,098
-389,292	800,000	0,025	0,063
-388,277	800,000	-0,008	0,018
-387,263	91,241	0,120	0,098
-386,248	140,709	0,033	0,032
-385,233	-42,015	-0,054	-0,020
-384,219	-63,374	0,101	-0,030
-383,204	199,563	-0,105	-0,117
-382,190	585,891	-0,058	-0,105
-381,175	800,000	0,044	-0,104
-380,160	-33,123	0,112	-0,045
-379,146	-200,000	-0,008	0,075
-378,131	-200,000	-0,007	0,047
-377,117	165,356	-0,016	-0,017
-376,102	94,799	-0,064	0,053
-375,088	15,494	0,160	0,091
-374,073	70,578	-0,057	0,042
-373,058	147,574	0,043	0,042
-372,044	-200,000	0,006	0,040
-371,029	100,722	-0,025	-0,021
-370,015	34,377	0,118	-0,074
-369,000	-20,637	-0,022	-0,010
-367,985	18,564	-0,075	0,043
-366,971	-9,773	-0,105	-0,051
-365,956	-53,218	0,038	0,012
-364,942	-111,944	0,124	-0,018
-363,927	-77,728	0,083	0,021
-362,912	800,000	-0,030	0,072
-361,898	-200,000	0,020	-0,079
-360,883	320,435	-0,065	-0,090
-359,869	-200,000	-0,008	-0,119
-358,854	800,000	-0,045	-0,095
-357,839	-101,398	0,125	0,022
-356,825	-38,108	0,148	0,056
-355,810	-200,000	0,008	0,055
-354,796	800,000	-0,043	-0,100
-353,781	98,418	0,066	-0,055
-352,766	38,225	-0,052	-0,034
-351,752	160,468	0,115	0,116
-350,737	800,000	0,021	0,054
-349,723	-40,150	0,095	0,036
-348,708	-200,000	-0,004	0,024
-347,693	-160,674	0,060	-0,002
-346,679	112,326	-0,072	0,063
-345,664	-110,280	-0,031	-0,005
-344,650	20,572	-0,132	0,077
-343,635	-31,944	-0,031	-0,013
-342,620	800,000	-0,006	-0,018
-341,606	-200,000	0,009	0,058
-340,591	43,620	-0,105	0,069
-339,577	-91,828	0,123	-0,025
-338,562	800,000	-0,004	0,009
-337,548	446,251	0,081	0,129
-336,533	402,006	0,050	0,076
-335,518	212,764	0,012	0,013
-334,504	222,156	-0,057	0,067
-333,489	-108,282	-0,085	-0,013
-332,475	117,537	0,081	-0,072
-331,460	800,000	-0,058	-0,174
-330,445	-200,000	0,011	-0,041
-329,431	-200,000	0,029	0,111
-328,416	-19,552	0,189	0,085
-327,402	131,580	-0,035	0,033
-326,387	94,261	-0,044	0,036
-325,372	448,259	-0,044	0,071
-324,358	179,679	-0,018	-0,019
-323,343	-19,562	-0,102	-0,045
-322,329	353,713	0,030	-0,043
-321,314	-200,000	0,002	0,042
-320,299	53,501	0,091	0,063
-319,285	-200,000	-0,019	-0,070
-318,270	-60,062	0,036	0,011
-317,256	-200,000	-0,014	0,047
-316,241	-200,000	-0,050	-0,170
-315,226	32,661	0,027	0,017
-314,212	-10,747	-0,049	0,023
-313,197	459,654	-0,054	0,087
-312,183	-115,927	0,111	0,015
-311,168	35,734	-0,093	0,059
-310,153	271,027	-0,032	0,041
-309,139	-102,510	-0,133	0,023
-308,124	207,980	0,014	-0,016
-307,110	800,000	-0,053	0,110
-306,095	7,339	0,137	0,074
-305,080	93,706	-0,124	0,102
-304,066	-5,815	-0,116	-0,057
-303,051	61,471	0,111	0,080
-302,037	102,248	-0,020	-0,017
-301,022	-200,000	-0,024	-0,115
-300,008	555,709	0,003	0,006
-298,993	600,970	0,038	-0,068
-297,978	577,076	-0,015	0,027
-296,964	-112,483	-0,045	-0,006
-295,949	18,290	0,131	-0,075
-294,935	-85,717	-0,058	-0,013
-293,920	-103,678	0,024	-0,004
-292,905	179,689	-0,089	-0,095
-291,891	45,959	0,116	-0,078
-290,876	290,961	-0,080	-0,105
-289,862	-82,222	-0,081	0,019
-288,847	-200,000	-0,012	-0,071
-287,832	-200,000	0,011	0,106
-286,818	158,811	0,080	-0,081
-285,803	222,293	0,088	0,102
-284,789	-200,000	-0,002	0,018
-283,774	800,000	0,024	0,057
-282,759	9,027	0,121	0,066
-281,745	-35,205	-0,089	-0,035
-280,730	-19,884	-0,018	0,008
-279,716	154,774	-0,053	0,053
-278,701	682,149	-0,023	-0,043
-277,686	-124,833	-0,032	-0,004
-276,672	800,000	0,064	0,153
-275,657	285,939	0,017	0,022
-274,643	-31,446	0,143	0,058
-273,628	37,094	-0,052	0,033
-272,613	137,075	-0,051	0,049
-271,599	800,000	-0,046	0,112
-270,584	800,000	-0,014	-0,028
-269,570	-153,728	0,051	-0,002
-268,555	-200,000	0,000	0,043
-267,540	-200,000	0,016	-0,051
-266,526	-160,421	-0,136	0,005
-265,511	-200,000	0,013	-0,108
-264,497	800,000	0,012	0,029
-263,482	111,776	0,131	-0,114
-262,467	151,833	-0,017	-0,017
-261,453	-135,598	-0,061	-0,005
-260,438	63,765	0,179	-0,130
-259,424	62,464	-0,127	0,091
-258,409	-200,000	0,010	-0,106
-257,395	-77,212	0,148	0,037
-256,380	250,645	0,059	0,072
-255,365	-68,699	-0,025	0,007
-254,351	60,193	0,075	0,054
-253,336	-200,000	-0,007	-0,109
-252,322	800,000	0,049	-0,103
-251,307	249,139	0,109	-0,133
-250,292	-29,923	0,063	-0,026
-249,278	267,807	0,050	-0,063
-248,263	-200,000	-0,013	-0,110
-247,249	79,508	0,024	-0,018
-246,234	-38,110	-0,028	0,011
-245,219	86,741	-0,104	-0,083
-244,205	-133,779	-0,043	0,004
-243,190	361,295	-0,065	0,094
-242,176	77,771	0,049	-0,037
-241,161	110,731	0,068	0,059
-240,146	800,000	0,019	-0,058
-239,132	256,655	-0,025	0,031
-238,117	-102,433	-0,028	-0,005
-237,103	399,864	0,076	-0,115
-236,088	800,000	-0,026	0,054
-235,073	736,996	-0,055	-0,107
-234,059	-3,954	0,126	-0,063
-233,044	-66,603	-0,053	0,015
-232,030	-21,044	-0,138	0,061
-231,015	-200,000	-0,011	0,040
-230,000	-96,742	-0,049	0,009
-228,986	-200,000	0,005	0,059
-227,971	-51,624	0,188	-0,063
-226,957	195,672	0,064	0,071
-225,942	800,000	0,023	-0,049
-224,927	99,711	0,160	-0,133
-223,913	67,696	-0,126	-0,093
-222,898	-200,000	0,001	-0,075
-221,884	51,709	-0,045	-0,031
-220,869	193,420	0,035	0,039
-219,855	-8,200	-0,051	0,025
-218,840	32,296	0,116	0,072
-217,825	106,293	0,034	-0,029
-216,811	-200,000	-0,021	0,079
-215,796	437,491	0,041	-0,065
-214,782	800,000	-0,033	0,070
-213,767	-39,841	-0,026	-0,010
-212,752	-76,121	0,127	0,032
-211,738	-52,954	-0,062	-0,020
-210,723	-63,623	0,193	0,057
-209,709	-200,000	-0,014	-0,071
-208,694	-200,000	-0,010	-0,077
-207,679	-71,574	-0,105	0,028
-206,665	-125,079	0,054	0,006
-205,650	-200,000	0,004	0,055
-204,636	-200,000	0,009	0,165
-203,621	-200,000	-0,022	-0,077
-202,606	196,462	0,096	-0,105
-201,592	-150,722	0,070	0,004
-200,577	-200,000	-0,014	-0,062
-199,563	-168,044	0,047	0,001
-198,548	96,788	-0,073	-0,060
-197,533	-200,000	0,004	-0,074
-196,519	-110,800	0,079	-0,012
-195,504	-86,180	0,092	0,020
-194,490	-49,350	-0,078	-0,027
-193,475	366,707	-0,101	-0,147
-192,460	-154,011	0,027	0,001
-191,446	29,193	0,080	-0,049
-190,431	194,549	0,098	-0,107
-189,417	13,591	0,095	0,053
-188,402	496,552	0,081	-0,135
-187,387	231,868	-0,075	-0,088
-186,373	504,188	-0,029	-0,048
-185,358	-89,298	0,097	-0,020
-184,344	-200,000	0,002	-0,060
-183,329	-200,000	-0,009	-0,035
-182,315	-121,524	0,046	-0,005
-181,300	-82,117	-0,192	-0,045
-180,285	800,000	-0,057	-0,116
-179,271	118,642	-0,105	-0,093
-178,256	114,067	0,100	0,087
-177,242	137,660	0,046	0,044
-176,227	-49,706	0,141	0,048
-175,212	-200,000	0,000	-0,075
-174,198	244,519	-0,026	-0,032
-173,183	-200,000	-0,001	-0,135
-172,169	445,877	-0,078	0,123
-171,154	6,094	-0,016	0,009
-170,139	169,284	-0,077	-0,079
-169,125	293,884	0,102	0,134
-168,110	800,000	-0,039	-0,087
-167,096	-83,971	0,100	-0,023
-166,081	80,864	-0,133	0,103
-165,066	-68,446	-0,095	-0,026
-164,052	349,591	0,046	0,066
-163,037	39,035	0,032	0,021
-162,023	178,834	0,085	0,089
-161,008	-46,018	0,038	0,013
-159,993	800,000	0,035	-0,074
-158,979	457,868	0,029	0,047
-157,964	-23,970	-0,086	0,037
-156,950	219,831	-0,070	0,081
-155,935	323,821	0,080	0,110
-154,920	-200,000	-0,019	0,089
-153,906	-200,000	0,012	0,201
-152,891	-200,000	0,048	0,155
-151,877	59,114	-0,062	-0,044
-150,862	18,219	0,071	0,040
-149,847	-200,000	0,038	-0,161
-148,833	-200,000	-0,001	0,054
-147,818	-200,000	-0,015	0,064
-146,804	-63,858	0,067	-0,020
-145,789	-68,844	0,165	-0,045
-144,775	-35,084	-0,078	-0,030
-143,760	-79,738	-0,164	0,039
-142,745	-29,437	0,065	0,027
-141,731	-100,484	0,009	-0,002
-140,716	800,000	0,061	0,166
-139,702	214,466	-0,052	0,060
-138,687	-133,228	-0,007	-0,001
-137,672	82,750	0,090	0,071
-136,658	-170,446	-0,145	-0,004
-135,643	-200,000	-0,002	-0,010
-134,629	800,000	0,063	-0,135
-133,614	-200,000	-0,010	0,078
-132,599	41,637	0,136	-0,089
-131,585	-120,891	-0,033	-0,004
-130,570	62,360	-0,144	0,103
-129,556	-200,000	0,000	0,039
-128,541	162,579	-0,045	0,045
-127,526	-200,000	0,046	-0,213
-126,512	20,084	-0,032	-0,019
-125,497	800,000	0,008	0,018
-124,483	718,744	0,021	0,040
-123,468	-184,771	0,106	0,001
-122,453	40,542	-0,118	-0,076
-121,439	-45,029	-0,111	-0,039
-120,424	-200,000	0,026	-0,094
-119,410	-200,000	-0,001	-0,047
-118,395	-148,038	0,149	0,009
-117,380	-101,517	0,105	0,018
-116,366	227,310	0,037	0,043
-115,351	-64,622	-0,113	0,033
-114,337	-32,568	0,106	-0,042
-113,322	-173,229	0,070	0,002
-112,307	477,359	0,089	0,145
-111,293	-5,979	0,060	0,029
-110,278	-200,000	-0,020	-0,094
-109,264	800,000	0,014	-0,032
-108,249	77,040	-0,053	-0,040
-107,234	-200,000	-0,009	-0,156
-106,220	272,530	-0,080	-0,102
-105,205	-200,000	-0,006	-0,040
-104,191	132,903	-0,074	-0,069
-103,176	-101,305	-0,199	-0,035
-102,162	484,008	0,033	-0,054
-101,147	800,000	-0,024	-0,061
-100,132	138,882	-0,061	-0,058
-99,118	-4,213	0,054	0,027
-98,103	226,924	0,066	-0,077
-97,089	90,770	0,046	0,037
-96,074	41,553	0,067	0,044
-95,059	800,000	0,020	-0,054
-94,045	524,819	-0,014	-0,024
-93,030	-200,000	0,016	-0,060
-92,016	218,137	-0,164	-0,187
-91,001	456,053	0,045	-0,072
-89,986	-200,000	-0,005	-0,077
-88,972	-50,382	0,077	-0,026
-87,957	556,934	0,025	-0,044
-86,943	-2,404	-0,101	0,050
-85,928	-39,882	-0,070	-0,026
-84,913	-200,000	0,017	-0,068
-83,899	-200,000	0,015	0,093
-82,884	-200,000	0,005	0,112
-81,870	-132,541	-0,043	-0,004
-80,855	247,286	-0,048	0,058
-79,840	8,386	0,103	0,055
-78,826	800,000	0,030	0,063
-77,811	-200,000	0,008	-0,072
-76,797	-82,520	0,107	-0,025
-75,782	-138,237	0,139	0,011
-74,767	-200,000	0,006	-0,055
-73,753	800,000	-0,014	-0,041
-72,738	330,187	-0,097	0,134
-71,724	-165,847	-0,075	0,002
-70,709	47,536	-0,075	-0,050
-69,694	-83,348	0,073	0,017
-68,680	87,425	0,057	-0,045
-67,665	227,193	0,027	0,031
-66,651	-185,495	0,081	0,001
-65,636	3,379	0,082	-0,042
-64,622	-106,237	-0,074	-0,012
-63,607	592,803	-0,011	-0,020
-62,592	2,521	-0,031	-0,016
-61,578	-200,000	-0,016	-0,106
-60,563	-150,367	0,074	0,004
-59,549	-200,000	-0,016	-0,064
-58,534	37,445	-2,224	-1,410
-57,519	-200,000	-0,071	-0,579
-56,505	-200,000	-1,498	-5,155
-55,490	99,928	0,917	0,761
-54,476	800,000	5,404	12,128
-53,461	-200,000	18,641	308,314
-52,446	800,000	739,007	2287,187
-51,432	540,941	1652,240	2829,256
-50,417	108,765	1636,296	1399,887
-49,403	72,283	1286,934	959,001
-48,388	29,698	1028,359	625,372
-47,373	19,682	990,748	569,448
-46,359	17,299	978,422	554,531
-45,344	14,014	974,447	541,504
-44,330	14,290	973,066	541,619
-43,315	13,723	971,098	538,651
-42,300	13,601	970,109	537,682
-41,286	13,656	969,177	537,325
-40,271	13,657	968,240	536,786
-39,257	13,643	967,417	536,264
-38,242	13,619	966,557	535,688
-37,227	13,636	965,615	535,200
-36,213	13,658	964,898	534,853
-35,198	13,646	963,800	534,183
-34,184	13,675	963,203	533,925
-33,169	13,634	962,334	533,290
-32,154	13,688	961,227	532,831
-31,140	13,624	960,634	532,273
-30,125	13,714	959,606	531,974
-29,111	13,672	959,042	531,502
-28,096	13,658	958,286	531,020
-27,082	13,632	957,722	530,601
-26,067	13,696	956,881	530,319
-25,052	13,709	955,863	529,775
-24,038	13,664	955,489	529,402
-23,023	13,611	954,736	528,795
-22,009	13,696	954,022	528,650
-20,994	13,720	953,391	528,357
-19,979	13,630	952,861	527,753
-18,965	13,681	952,058	527,453
-17,950	13,659	951,609	527,112
-16,936	13,601	950,989	526,562
-15,921	13,618	950,151	526,133
-14,906	13,591	949,430	525,626
-13,892	13,532	949,057	525,210
-12,877	13,547	948,218	524,772
-11,863	13,551	947,591	524,417
-10,848	13,540	947,162	524,123
-9,833	13,631	946,689	524,131
-8,819	13,614	945,970	523,658
-7,804	13,576	945,310	523,153
-6,790	13,538	944,763	522,708
-5,775	13,611	944,282	522,652
-4,760	13,579	943,464	522,077
-3,746	13,539	942,971	521,657
-2,731	13,396	942,335	520,832
-1,717	13,391	941,729	520,460
-0,702	13,343	940,980	519,873
0,313	13,236	940,319	519,955
1,327	16,560	938,137	529,179
2,342	25,589	789,548	469,130
3,356	21,758	444,114	258,193
4,371	-7,584	296,639	143,026
5,386	-11,393	278,468	130,630
6,400	-12,656	272,815	126,790
7,415	-12,736	270,517	125,637
8,429	-12,813	269,076	124,885
9,444	-12,857	268,105	124,383
10,459	-12,972	267,465	123,970
11,473	-12,996	266,830	123,642
12,488	-13,012	266,274	123,359
13,502	-13,246	265,738	122,888
14,517	-13,197	265,414	122,772
15,531	-12,986	264,794	122,664
16,546	-12,930	264,452	122,545
17,561	-13,023	264,197	122,332
18,575	-12,857	263,787	122,282
19,590	-13,093	263,464	121,909
20,604	-13,020	263,238	121,859
21,619	-13,015	262,829	121,663
22,634	-13,174	262,598	121,402
23,648	-13,210	262,293	121,218
24,663	-13,132	261,943	121,116
25,677	-13,218	261,616	120,877
26,692	-12,950	261,364	120,989
27,707	-13,045	261,172	120,804
28,721	-13,162	260,856	120,544
29,736	-13,179	260,630	120,414
30,750	-12,926	260,179	120,419
31,765	-13,129	260,040	120,163
32,780	-13,284	259,707	119,861
33,794	-13,014	259,467	119,979
34,809	-13,080	259,326	119,844
35,823	-13,040	258,995	119,717
36,838	-13,221	258,825	119,467
37,853	-13,313	258,704	119,320
38,867	-13,098	258,302	119,313
39,882	-13,259	258,048	119,043
40,896	-13,371	257,987	118,906
41,911	-13,249	257,666	118,855
42,926	-13,228	257,333	118,709
43,940	-13,366	257,105	118,472
44,955	-13,135	256,829	118,537
45,969	-13,204	256,618	118,368
46,984	-13,424	256,465	118,095
47,999	-13,701	256,125	117,687
49,013	-13,855	255,965	117,468
50,028	-13,945	255,522	117,176
51,042	-13,906	255,367	117,128
52,057	-14,051	255,173	116,903
53,071	-13,862	254,961	116,960
54,086	-13,610	254,758	117,074
55,101	-13,817	254,664	116,842
56,115	-13,489	254,359	116,975
57,130	-13,234	254,327	117,171
58,144	-12,917	254,172	117,363
59,159	-13,127	254,049	117,114
60,174	-13,160	253,737	116,931
61,188	-12,915	253,452	117,001
62,203	-13,262	253,445	116,688
63,217	-13,139	253,079	116,615
64,232	-13,061	252,918	116,597
65,247	-13,057	252,538	116,416
66,261	-13,016	252,336	116,347
67,276	-13,280	252,029	115,969
68,290	-13,416	251,706	115,694
69,305	-13,516	251,491	115,499
70,320	-13,335	251,402	115,602
71,334	-13,378	251,365	115,539
72,349	-13,171	251,181	115,620
73,363	-12,909	250,997	115,749
74,378	-13,132	250,783	115,450
75,393	-13,049	250,512	115,385
76,407	-12,973	250,195	115,294
77,422	-12,903	250,075	115,288
78,436	-13,245	250,113	115,004
79,451	-13,135	249,712	114,903
80,466	-13,282	249,480	114,661
81,480	-13,312	249,149	114,473
82,495	-13,180	248,938	114,478
83,509	-13,229	248,800	114,363
84,524	-13,565	248,691	114,019
85,539	-13,582	248,448	113,883
86,553	-13,334	248,062	113,905
87,568	-13,550	248,096	113,728
88,582	-13,316	247,873	113,813
89,597	-13,576	247,671	113,491
90,611	-13,329	247,514	113,617
91,626	-13,134	247,257	113,652
92,641	-13,156	247,017	113,513
93,655	-13,228	246,945	113,410
94,670	-13,253	246,610	113,225
95,684	-13,044	246,433	113,308
96,699	-13,247	246,161	113,004
97,714	-13,273	246,094	112,941
98,728	-13,617	245,902	112,556
99,743	-13,431	245,647	112,584
100,757	-13,419	245,407	112,474
101,772	-13,510	245,325	112,351
102,787	-13,406	245,124	112,335
103,801	-13,402	244,893	112,222
104,816	-13,403	244,764	112,152
105,830	-13,227	244,652	112,237
106,845	-13,077	244,410	112,240
107,860	-12,930	244,206	112,259
108,874	-13,263	244,141	111,943
109,889	-13,247	243,756	111,770
110,903	-13,174	243,553	111,727
111,918	-13,168	243,504	111,699
112,933	-13,450	243,399	111,409
113,947	-13,216	243,199	111,500
114,962	-13,306	243,157	111,397
115,976	-13,030	242,847	111,472
116,991	-13,091	242,512	111,258
118,006	-13,396	242,376	110,936
119,020	-13,094	242,167	111,078
120,035	-13,075	242,179	111,089
121,049	-13,270	241,933	110,807
122,064	-13,072	241,820	110,907
123,079	-12,952	241,511	110,853
124,093	-13,165	241,277	110,562
125,108	-13,519	241,137	110,199
126,122	-13,606	240,967	110,040
127,137	-13,706	240,790	109,868
128,151	-13,397	240,466	109,962
129,166	-13,446	240,287	109,831
130,181	-13,574	240,114	109,638
131,195	-13,434	239,996	109,688
132,210	-13,356	239,886	109,691
133,224	-13,248	239,663	109,667
134,239	-13,266	239,517	109,576
135,254	-13,216	239,324	109,518
136,268	-13,355	239,026	109,259
137,283	-13,497	238,912	109,083
138,297	-13,535	238,499	108,854
139,312	-13,807	238,419	108,589
140,327	-13,014	238,394	109,207
141,341	-12,892	238,316	109,260
142,356	-13,058	238,284	109,101
143,370	-12,936	238,019	109,068
144,385	-12,832	237,899	109,087
145,400	-12,973	237,737	108,890
146,414	-12,699	237,434	108,961
147,429	-13,101	237,342	108,587
148,443	-12,928	237,152	108,629
149,458	-12,977	236,877	108,454
150,473	-12,883	236,798	108,484
151,487	-12,971	236,574	108,301
152,502	-12,883	236,526	108,339
153,516	-12,836	236,191	108,214
154,531	-12,840	236,185	108,198
155,546	-12,842	235,857	108,037
156,560	-12,752	235,589	107,976
157,575	-12,949	235,407	107,726
158,589	-13,037	235,258	107,579
159,604	-12,748	235,142	107,745
160,619	-12,784	235,162	107,716
161,633	-12,926	234,938	107,492
162,648	-12,765	234,796	107,545
163,662	-13,223	234,687	107,123
164,677	-13,002	234,396	107,155
165,692	-12,846	234,231	107,193
166,706	-12,720	234,040	107,196
167,721	-12,484	234,065	107,384
168,735	-12,842	233,947	107,037
169,750	-12,973	233,675	106,800
170,764	-12,829	233,464	106,808
171,779	-12,912	233,387	106,698
172,794	-12,656	233,102	106,759
173,808	-12,763	232,955	106,598
174,823	-13,449	232,727	105,947
175,837	-13,496	232,483	105,789
176,852	-13,109	232,541	106,109
177,867	-12,937	232,411	106,175
178,881	-12,733	232,181	106,220
179,896	-12,576	232,043	106,270
180,910	-12,678	231,967	106,147
181,925	-12,895	231,814	105,897
182,940	-12,984	231,608	105,724
183,954	-12,702	231,447	105,861
184,969	-12,683	231,242	105,773
185,983	-12,673	231,112	105,712
186,998	-12,680	231,075	105,680
188,013	-12,794	230,907	105,505
189,027	-12,687	230,733	105,500
190,042	-12,867	230,536	105,260
191,056	-12,849	230,424	105,214
192,071	-12,743	230,199	105,184
193,086	-12,487	229,925	105,247
194,100	-12,670	229,817	105,046
195,115	-13,129	229,529	104,552
196,129	-13,049	229,670	104,668
197,144	-7,251	231,320	109,915
198,159	-1,762	233,104	115,040
199,173	2,047	233,899	118,399
200,188	2,285	234,036	118,642
201,202	2,122	233,945	118,458
202,217	2,150	233,670	118,331
203,232	2,477	233,555	118,517
204,246	2,459	233,491	118,459
205,261	2,702	233,375	118,579
206,275	3,022	233,185	118,720
207,290	2,985	233,152	118,665
208,304	2,809	232,972	118,426
209,319	2,821	232,669	118,270
210,334	2,531	232,627	118,013
211,348	2,553	232,251	117,830
212,363	2,274	231,940	117,446
213,377	1,976	231,930	117,199
214,392	1,942	231,678	117,036
215,407	2,095	231,668	117,138
216,421	2,051	231,411	116,964
217,436	2,107	231,346	116,964
218,450	1,816	231,129	116,620
219,465	1,869	230,836	116,502
220,480	1,711	230,904	116,405
221,494	1,771	230,704	116,340
222,509	2,210	230,661	116,645
223,523	2,163	230,400	116,466
224,538	2,152	230,055	116,273
225,553	1,988	230,008	116,113
226,567	2,136	229,871	116,147
227,582	2,261	229,928	116,261
228,596	2,616	229,725	116,420
229,611	2,301	229,407	116,007
230,626	1,709	229,313	115,498
231,640	1,880	229,196	115,560
232,655	2,283	229,109	115,812
233,669	2,634	228,976	116,001
234,684	2,575	228,984	115,951
235,699	2,490	228,659	115,711
236,713	2,248	228,494	115,434
237,728	2,167	228,342	115,285
238,742	1,748	228,163	114,866
239,757	2,134	227,987	115,060
240,772	2,252	227,792	115,040
241,786	2,069	227,623	114,806
242,801	2,284	227,683	114,989
243,815	2,535	227,658	115,157
244,830	2,375	227,529	114,959
245,844	2,241	227,065	114,614
246,859	2,151	226,938	114,472
247,874	2,352	226,778	114,532
248,888	2,342	226,725	114,488
249,903	2,305	226,572	114,373
250,917	2,096	226,516	114,177
251,932	2,226	226,127	114,068
252,947	1,939	226,086	113,822
253,961	1,786	225,961	113,635
254,976	1,869	225,672	113,541
255,990	2,329	225,760	113,919
257,005	2,233	225,620	113,767
258,020	2,131	225,422	113,581
259,034	2,483	225,257	113,750
260,049	2,352	225,097	113,561
261,063	2,252	225,022	113,440
262,078	2,422	225,035	113,563
263,093	2,470	224,829	113,484
264,107	2,546	224,566	113,398
265,122	2,732	224,383	113,434
266,136	2,690	224,402	113,402
267,151	2,523	224,252	113,192
268,166	2,397	223,921	112,921
269,180	1,877	223,663	112,395
270,195	2,048	223,497	112,429
271,209	2,070	223,475	112,424
272,224	2,147	223,454	112,460
273,239	2,003	223,295	112,264
274,253	2,378	222,850	112,307
275,268	1,997	222,769	111,975
276,282	1,821	222,623	111,762
277,297	1,835	222,478	111,689
278,312	2,156	222,432	111,893
279,326	1,919	222,397	111,691
280,341	2,338	222,203	111,892
281,355	2,256	222,078	111,759
282,370	2,248	221,949	111,678
283,384	2,026	221,763	111,411
284,399	1,599	221,604	111,008
285,414	1,602	221,302	110,849
286,428	2,157	221,357	111,273
287,443	2,334	221,223	111,325
288,457	2,207	221,193	111,207
289,472	1,932	220,962	110,881
290,487	1,556	220,672	110,451
291,501	1,816	220,392	110,490
292,516	1,898	220,345	110,517
293,530	1,785	220,345	110,424
294,545	1,910	220,064	110,365
295,560	2,111	220,033	110,486
296,574	2,173	219,933	110,471
297,589	2,187	219,678	110,343
298,603	2,249	219,569	110,323
299,618	2,224	219,606	110,314
300,633	2,380	219,347	110,287
301,647	2,325	219,310	110,219
302,662	2,389	219,176	110,188
303,676	2,327	219,042	110,066
304,691	2,437	218,821	110,025
305,706	2,125	218,869	109,813
306,720	2,243	218,702	109,805
307,735	2,326	218,331	109,669
308,749	2,018	218,156	109,349
309,764	2,340	218,131	109,558
310,779	2,677	217,976	109,714
311,793	2,185	217,908	109,316
312,808	2,167	217,771	109,224
313,822	2,450	217,511	109,288
314,837	2,227	217,352	109,038
315,852	2,234	217,198	108,956
316,866	2,232	217,046	108,868
317,881	2,415	217,129	109,031
318,895	2,362	216,860	108,848
319,910	2,387	216,501	108,676
320,925	1,750	216,482	108,202
321,939	1,632	216,175	107,955
322,954	1,728	216,101	107,976
323,968	2,045	216,284	108,285
324,983	2,375	216,137	108,437
325,997	2,598	216,126	108,581
327,012	2,413	215,952	108,352
328,027	2,246	215,761	108,128
329,041	2,483	215,605	108,208
330,056	2,592	215,365	108,155
331,070	2,066	215,123	107,651
332,085	2,098	215,004	107,605
333,100	2,060	214,877	107,505
334,114	2,494	214,829	107,778
335,129	2,364	214,519	107,521
336,143	2,104	214,388	107,262
337,158	2,370	214,315	107,404
338,173	2,282	214,138	107,243
339,187	1,713	214,072	106,800
340,202	1,710	213,850	106,677
341,216	2,106	213,822	106,933
342,231	2,532	213,707	107,165
343,246	2,294	213,603	106,937
344,260	2,287	213,444	106,842
345,275	2,301	213,525	106,883
346,289	2,390	213,314	106,831
347,304	2,585	213,087	106,844
348,319	2,291	212,978	106,574
349,333	2,267	212,770	106,443
350,348	2,253	212,618	106,348
351,362	2,451	212,497	106,417
352,377	2,381	212,382	106,301
353,392	2,345	212,234	106,192
354,406	2,374	212,011	106,091
355,421	196,979	1315,191	1393,092
356,435	157,543	1449,553	1393,037
