DTS Sentinel unit serial number:	SN410029Multiplexer serial number:	ORYXHardware model number:	OX2-SRSoftware version number:	ORYX F/W v4,00 Oryx Data Collector v3.7.2.0data status	okinstallation	B6 Nyhavnadifferential loss correction	single-endedforward channel	channel 2reverse channel	N/Adate	2023/12/09time	15:55:08forward acquisition time	300,00reverse acquisition time	0,00gamma	499,1914k internal	0,3132k external	0,3132temperature offset calibration	1,0000default loss term (dB/km)	0,3820temperature slope calibration	1,0000multiplexer offset coefficient	1,0000multiplexer slope coefficient	1,0000fibre end	0,00T internal ref (°C)	20,75T ext. ref 1 (°C)	4,69T ext. ref 2 (°C)	4,67length (m)	temperature (°C)	Stokes	anti-Stokes-744,400	-59,887	0,046	0,014
-743,385	-21,387	-0,296	0,134
-742,371	327,333	-0,041	0,059
-741,356	-20,072	-0,201	0,092
-740,342	800,000	-0,020	0,048
-739,327	-107,262	-0,278	0,045
-738,312	387,499	0,011	0,018
-737,298	-129,434	-0,306	-0,031
-736,283	-35,503	0,124	0,050
-735,269	77,862	-0,251	0,198
-734,254	800,000	-0,026	0,072
-733,239	-119,846	-0,404	0,051
-732,225	103,208	0,083	-0,072
-731,210	24,865	-0,124	-0,076
-730,196	-200,000	-0,007	-0,033
-729,181	-119,499	-0,097	-0,012
-728,167	11,163	-0,033	-0,019
-727,152	-200,000	0,011	-0,077
-726,137	81,221	-0,022	0,018
-725,123	492,616	-0,107	-0,184
-724,108	669,047	-0,080	-0,155
-723,094	26,325	0,071	0,044
-722,079	-200,000	-0,016	-0,081
-721,064	800,000	0,012	0,028
-720,050	92,914	0,069	0,058
-719,035	-200,000	-0,040	-0,136
-718,021	167,502	0,043	0,045
-717,006	741,983	-0,034	0,068
-715,991	800,000	-0,047	-0,123
-714,977	-61,310	-0,089	0,028
-713,962	800,000	0,044	0,109
-712,948	-121,857	-0,128	-0,015
-711,933	1,778	0,078	0,041
-710,918	-57,026	-0,096	-0,031
-709,904	-24,657	-0,117	-0,052
-708,889	-44,099	-0,212	-0,079
-707,875	93,014	-0,072	0,061
-706,860	103,377	0,090	-0,079
-705,845	85,002	-0,140	0,113
-704,831	557,893	-0,100	0,179
-703,816	52,136	-0,121	0,085
-702,802	800,000	0,009	0,018
-701,787	27,971	-0,073	-0,046
-700,772	385,005	-0,070	-0,107
-699,758	-200,000	-0,042	-0,221
-698,743	169,409	-0,008	-0,008
-697,729	800,000	0,040	0,116
-696,714	-119,222	0,069	-0,009
-695,699	-200,000	-0,014	-0,046
-694,685	120,435	-0,071	0,065
-693,670	-52,900	-0,105	0,036
-692,656	-136,361	0,127	-0,011
-691,641	-200,000	0,001	0,010
-690,627	24,491	0,100	-0,061
-689,612	800,000	0,032	-0,104
-688,597	30,260	-0,086	0,054
-687,583	-67,631	-0,034	-0,010
-686,568	-200,000	0,021	-0,096
-685,554	-200,000	-0,018	-0,111
-684,539	-117,199	-0,072	-0,010
-683,524	-7,283	0,180	-0,090
-682,510	-200,000	0,005	-0,056
-681,495	-111,606	-0,181	0,027
-680,481	-106,003	-0,073	-0,012
-679,466	130,213	-0,078	-0,074
-678,451	400,870	-0,024	-0,037
-677,437	-200,000	-0,005	0,027
-676,422	494,036	0,076	0,129
-675,408	295,762	0,015	-0,021
-674,393	-161,678	-0,118	0,004
-673,378	166,278	0,105	-0,110
-672,364	-200,000	0,045	-0,234
-671,349	324,800	0,029	0,041
-670,335	141,168	-0,098	0,096
-669,320	-96,642	-0,219	0,042
-668,305	-200,000	0,017	0,059
-667,291	-200,000	-0,003	-0,035
-666,276	800,000	0,058	-0,146
-665,262	800,000	0,062	-0,160
-664,247	800,000	-0,036	-0,088
-663,232	-182,157	-0,150	0,002
-662,218	-200,000	-0,001	0,020
-661,203	60,874	-0,031	0,023
-660,189	-200,000	0,018	0,065
-659,174	-200,000	-0,008	0,154
-658,159	-200,000	0,007	0,149
-657,145	-31,797	-0,155	-0,064
-656,130	151,115	-0,106	-0,107
-655,116	-200,000	0,012	-0,080
-654,101	57,746	0,072	-0,052
-653,086	-200,000	-0,119	-0,000
-652,072	-94,017	0,047	0,010
-651,057	3,798	-0,028	0,015
-650,043	672,995	0,017	0,033
-649,028	-155,237	0,027	0,001
-648,014	154,878	-0,031	-0,031
-646,999	576,914	-0,080	0,145
-645,984	-33,127	0,070	-0,029
-644,970	-54,094	0,096	0,032
-643,955	-51,943	0,065	-0,022
-642,941	668,338	-0,087	-0,167
-641,926	295,721	-0,089	-0,121
-640,911	-200,000	-0,001	-0,057
-639,897	474,464	0,027	0,045
-638,882	-200,000	-0,031	-0,107
-637,868	30,339	-0,070	-0,044
-636,853	546,430	-0,033	-0,058
-635,838	-200,000	0,016	-0,070
-634,824	-52,084	-0,083	-0,028
-633,809	30,210	-0,048	0,030
-632,795	150,276	0,074	-0,074
-631,780	-80,381	-0,055	-0,013
-630,765	-200,000	-0,017	-0,076
-629,751	-40,892	0,021	-0,008
-628,736	13,301	0,112	-0,064
-627,722	68,015	-0,048	-0,036
-626,707	-200,000	-0,016	-0,060
-625,692	304,393	0,052	-0,072
-624,678	-103,877	0,066	-0,011
-623,663	800,000	-0,032	-0,082
-622,649	-39,701	-0,010	-0,004
-621,634	-200,000	-0,004	0,090
-620,619	79,385	0,116	-0,092
-619,605	-200,000	0,002	0,026
-618,590	-200,000	-0,005	-0,016
-617,576	-63,083	-0,101	-0,031
-616,561	58,217	0,040	-0,029
-615,546	748,000	-0,010	-0,019
-614,532	-167,760	-0,101	0,003
-613,517	-56,799	0,069	-0,022
-612,503	-159,047	-0,163	-0,007
-611,488	261,467	0,014	-0,018
-610,474	61,143	-0,100	0,074
-609,459	-52,050	-0,057	0,020
-608,444	-200,000	-0,022	-0,229
-607,430	800,000	0,020	0,042
-606,415	-121,527	-0,088	-0,011
-605,401	-200,000	0,048	0,196
-604,386	-119,308	-0,118	0,015
-603,371	-7,118	0,077	-0,039
-602,357	117,574	-0,062	-0,057
-601,342	606,509	0,047	-0,087
-600,328	-109,209	0,087	0,013
-599,313	315,328	-0,090	-0,126
-598,298	-13,854	0,081	0,038
-597,284	32,916	-0,061	-0,039
-596,269	-25,347	-0,048	0,021
-595,255	-200,000	0,005	0,077
-594,240	-75,726	-0,160	0,042
-593,225	-81,401	0,096	0,023
-592,211	-200,000	0,010	-0,044
-591,196	24,116	0,157	0,096
-590,182	-200,000	0,005	0,058
-589,167	25,830	0,099	0,061
-588,152	-137,749	0,060	-0,005
-587,138	124,346	-0,094	-0,087
-586,123	-11,344	-0,133	-0,064
-585,109	205,675	-0,047	0,054
-584,094	46,539	-0,085	-0,058
-583,079	66,041	0,080	0,060
-582,065	-40,597	0,097	-0,037
-581,050	-200,000	-0,033	0,117
-580,036	27,532	0,205	0,127
-579,021	-200,000	0,036	-0,165
-578,006	-76,354	0,017	-0,004
-576,992	40,719	-0,124	0,083
-575,977	142,630	-0,055	0,054
-574,963	7,292	-0,113	0,062
-573,948	-16,433	0,028	-0,013
-572,934	-200,000	0,010	0,052
-571,919	-0,733	-0,070	-0,036
-570,904	283,815	-0,037	-0,049
-569,890	-53,996	0,038	-0,013
-568,875	-200,000	-0,011	0,042
-567,861	120,025	0,117	-0,107
-566,846	-200,000	-0,008	-0,031
-565,831	-46,501	-0,075	0,027
-564,817	-93,355	-0,124	-0,025
-563,802	33,332	0,068	-0,044
-562,788	-74,618	0,065	0,017
-561,773	800,000	-0,001	-0,004
-560,758	83,839	0,153	0,123
-559,744	800,000	0,066	0,166
-558,729	629,338	0,038	0,071
-557,715	-56,471	-0,108	0,035
-556,700	518,538	-0,024	-0,041
-555,685	98,458	-0,103	0,087
-554,671	-200,000	0,002	-0,063
-553,656	735,499	0,047	-0,093
-552,642	136,222	-0,045	-0,043
-551,627	227,009	-0,062	-0,075
-550,612	157,192	-0,029	0,029
-549,598	128,480	-0,081	-0,076
-548,583	800,000	-0,017	-0,036
-547,569	-47,390	0,148	0,053
-546,554	200,022	0,047	-0,053
-545,539	-200,000	-0,013	0,153
-544,525	-200,000	0,007	-0,041
-543,510	57,589	-0,004	-0,003
-542,496	-200,000	-0,011	-0,169
-541,481	-53,933	-0,065	0,022
-540,466	-200,000	0,035	-0,144
-539,452	76,154	-0,065	-0,051
-538,437	305,057	0,060	-0,082
-537,423	28,239	0,198	0,123
-536,408	64,570	0,012	-0,009
-535,393	-176,772	-0,076	0,001
-534,379	584,660	0,040	0,072
-533,364	10,287	-0,057	0,032
-532,350	178,257	0,052	-0,056
-531,335	58,673	0,003	-0,002
-530,321	72,619	0,091	0,070
-529,306	-200,000	0,004	-0,115
-528,291	180,943	0,078	-0,084
-527,277	421,555	0,024	0,037
-526,262	-200,000	0,008	0,029
-525,248	132,375	-0,070	0,067
-524,233	-20,974	0,192	0,086
-523,218	74,640	0,132	0,102
-522,204	-200,000	0,020	0,145
-521,189	-200,000	-0,004	-0,039
-520,175	-200,000	-0,009	-0,168
-519,160	-45,836	-0,059	-0,022
-518,145	14,170	0,054	-0,031
-517,131	-200,000	0,036	-0,129
-516,116	-200,000	0,014	-0,110
-515,102	-144,583	-0,072	0,005
-514,087	-200,000	-0,010	-0,098
-513,072	-200,000	-0,039	-0,154
-512,058	-200,000	-0,034	-0,244
-511,043	24,189	-0,039	0,023
-510,029	-200,000	-0,012	0,107
-509,014	-200,000	-0,010	0,079
-507,999	-200,000	0,016	0,062
-506,985	-200,000	0,008	-0,087
-505,970	155,931	-0,057	-0,057
-504,956	-200,000	0,034	0,124
-503,941	-200,000	-0,007	0,199
-502,926	800,000	0,030	0,096
-501,912	363,804	0,073	0,108
-500,897	800,000	0,051	0,105
-499,883	800,000	0,011	-0,034
-498,868	-86,720	-0,090	0,020
-497,853	-61,249	0,044	0,014
-496,839	230,119	-0,056	0,067
-495,824	258,366	-0,040	0,050
-494,810	145,131	-0,099	0,098
-493,795	-10,850	-0,040	-0,019
-492,781	64,144	-0,010	0,007
-491,766	114,511	-0,076	0,068
-490,751	-37,932	0,032	0,013
-489,737	239,499	0,062	0,076
-488,722	-200,000	0,008	-0,084
-487,708	-200,000	0,016	0,074
-486,693	-200,000	0,032	0,115
-485,678	-80,817	-0,126	0,031
-484,664	-40,680	0,016	-0,006
-483,649	41,567	0,042	0,028
-482,635	-143,214	-0,141	0,010
-481,620	46,269	0,021	0,014
-480,605	49,441	0,043	-0,030
-479,591	106,114	-0,024	0,021
-478,576	-200,000	0,003	-0,010
-477,562	61,092	-0,071	-0,051
-476,547	16,037	-0,004	-0,002
-475,532	-103,514	-0,063	-0,011
-474,518	-11,269	0,100	0,048
-473,503	210,214	0,037	-0,043
-472,489	-171,740	0,074	-0,002
-471,474	-10,454	-0,014	0,007
-470,459	-200,000	-0,011	0,101
-469,445	-103,768	-0,038	0,006
-468,430	63,646	0,147	-0,108
-467,416	608,343	-0,039	0,071
-466,401	-17,301	0,133	-0,061
-465,386	-63,012	0,124	-0,038
-464,372	261,107	-0,077	0,098
-463,357	-108,723	-0,090	-0,014
-462,343	-200,000	0,019	-0,163
-461,328	-200,000	-0,008	0,075
-460,313	-16,405	0,099	-0,046
-459,299	-200,000	0,019	-0,071
-458,284	14,292	-0,071	0,041
-457,270	-126,938	0,077	-0,008
-456,255	-200,000	0,001	-0,049
-455,241	-92,385	-0,131	-0,027
-454,226	-126,116	-0,068	-0,007
-453,211	-37,223	0,031	0,012
-452,197	86,810	-0,020	0,016
-451,182	501,839	-0,100	-0,170
-450,168	800,000	0,076	-0,198
-449,153	-3,824	-0,030	-0,015
-448,138	-94,493	0,158	0,031
-447,124	19,020	-0,044	-0,026
-446,109	136,755	-0,044	0,043
-445,095	322,702	0,098	0,137
-444,080	-42,170	0,134	-0,050
-443,065	356,087	-0,032	-0,047
-442,051	-70,724	-0,119	-0,033
-441,036	-98,197	-0,113	-0,021
-440,022	-96,052	0,035	0,007
-439,007	-200,000	-0,001	-0,100
-437,992	-143,321	-0,097	-0,007
-436,978	-79,821	0,261	0,064
-435,963	-81,940	-0,107	-0,026
-434,949	205,949	-0,035	0,040
-433,934	-200,000	-0,004	0,063
-432,919	-25,999	-0,060	-0,026
-431,905	-200,000	-0,004	-0,021
-430,890	644,488	-0,041	0,078
-429,876	-132,744	0,060	0,006
-428,861	-78,531	-0,112	-0,028
-427,846	800,000	-0,026	0,061
-426,832	3,041	-0,035	-0,019
-425,817	-200,000	0,009	-0,163
-424,803	-111,376	-0,095	-0,014
-423,788	800,000	-0,007	0,023
-422,773	77,936	0,183	0,143
-421,759	246,268	0,030	-0,037
-420,744	482,386	-0,075	-0,126
-419,730	-62,817	-0,161	-0,049
-418,715	-200,000	0,014	-0,075
-417,701	494,357	-0,010	0,017
-416,686	-200,000	0,001	-0,095
-415,671	-8,645	0,070	0,035
-414,657	199,614	0,151	-0,170
-413,642	800,000	0,045	0,119
-412,628	-38,030	-0,070	0,027
-411,613	64,470	0,017	-0,013
-410,598	97,406	-0,067	-0,056
-409,584	24,808	0,166	-0,100
-408,569	800,000	0,003	0,008
-407,555	-200,000	0,005	-0,040
-406,540	800,000	0,023	-0,074
-405,525	574,780	-0,039	-0,070
-404,511	158,976	0,077	-0,079
-403,496	-53,029	-0,130	-0,044
-402,482	-27,422	0,045	-0,019
-401,467	-84,599	0,192	-0,044
-400,452	-44,164	-0,033	0,012
-399,438	-200,000	-0,011	-0,068
-398,423	35,647	0,050	0,032
-397,409	-166,628	-0,109	-0,003
-396,394	-109,049	-0,166	-0,026
-395,379	-31,913	-0,080	0,033
-394,365	-200,000	-0,007	0,122
-393,350	-153,880	0,068	-0,003
-392,336	-200,000	0,029	0,146
-391,321	800,000	0,020	0,062
-390,306	-90,184	-0,033	0,007
-389,292	-200,000	-0,003	0,033
-388,277	-115,668	0,079	0,011
-387,263	-200,000	0,017	0,140
-386,248	103,138	0,165	0,142
-385,233	-40,390	0,132	0,050
-384,219	122,074	0,082	-0,075
-383,204	-160,811	-0,069	-0,003
-382,190	-200,000	-0,042	-0,168
-381,175	-74,221	0,045	0,012
-380,160	-200,000	0,010	0,056
-379,146	-200,000	0,017	0,117
-378,131	-31,019	-0,031	-0,013
-377,117	187,435	0,106	-0,116
-376,102	77,512	-0,050	-0,039
-375,088	-13,209	-0,167	-0,079
-374,073	-200,000	-0,013	-0,054
-373,058	56,607	-0,062	0,044
-372,044	-86,742	-0,042	-0,009
-371,029	70,939	0,115	0,087
-370,015	-15,394	-0,070	0,033
-369,000	103,191	-0,071	0,061
-367,985	-159,398	-0,010	0,000
-366,971	-200,000	-0,002	0,049
-365,956	387,760	0,026	0,040
-364,942	-200,000	0,024	0,133
-363,927	-45,077	-0,015	0,005
-362,912	800,000	-0,043	-0,117
-361,898	-131,967	0,083	-0,008
-360,883	232,921	0,084	-0,101
-359,869	-126,200	-0,095	-0,010
-358,854	460,223	0,098	-0,161
-357,839	83,583	-0,036	0,029
-356,825	800,000	0,029	0,074
-355,810	282,124	-0,055	0,072
-354,796	8,794	-0,110	-0,060
-353,781	259,376	-0,062	0,078
-352,766	-200,000	-0,003	-0,025
-351,752	-200,000	-0,019	-0,078
-350,737	-103,529	-0,052	-0,009
-349,723	40,482	-0,070	-0,046
-348,708	-119,434	0,067	0,008
-347,693	-98,565	-0,092	-0,017
-346,679	48,744	0,035	-0,024
-345,664	125,230	-0,051	0,047
-344,650	-200,000	0,008	0,062
-343,635	-200,000	-0,003	-0,012
-342,620	25,670	0,151	-0,092
-341,606	-200,000	-0,005	0,167
-340,591	1,950	-0,062	0,033
-339,577	53,032	0,030	-0,021
-338,562	-44,631	-0,103	0,037
-337,548	-200,000	-0,020	0,084
-336,533	-145,565	0,137	-0,009
-335,518	598,119	0,047	0,085
-334,504	-74,780	-0,098	0,025
-333,489	55,186	-0,080	0,057
-332,475	-106,328	-0,083	0,013
-331,460	800,000	0,062	-0,172
-330,445	-79,817	0,053	0,013
-329,431	5,876	0,035	0,019
-328,416	387,689	0,055	-0,083
-327,402	150,499	-0,024	0,024
-326,387	27,792	0,081	-0,050
-325,372	800,000	0,072	-0,160
-324,358	67,584	0,065	0,048
-323,343	-44,810	0,124	-0,045
-322,329	-200,000	0,037	-0,167
-321,314	-200,000	0,017	-0,061
-320,299	-200,000	-0,005	0,090
-319,285	-192,549	0,044	0,000
-318,270	175,448	0,060	-0,063
-317,256	78,044	-0,063	0,049
-316,241	-200,000	0,009	0,193
-315,226	800,000	0,019	-0,058
-314,212	-200,000	0,005	0,071
-313,197	-200,000	0,004	0,143
-312,183	-63,773	0,130	-0,039
-311,168	800,000	-0,024	-0,055
-310,153	800,000	-0,031	-0,084
-309,139	65,590	-0,064	-0,047
-308,124	-200,000	0,001	-0,149
-307,110	-170,406	-0,016	0,000
-306,095	-129,105	0,061	0,006
-305,080	-8,007	0,073	-0,036
-304,066	157,864	0,018	0,018
-303,051	-200,000	-0,023	-0,107
-302,037	-52,541	-0,080	0,027
-301,022	76,720	0,037	-0,029
-300,008	800,000	-0,070	0,179
-298,993	-200,000	0,017	0,188
-297,978	-200,000	0,023	0,110
-296,964	-66,476	0,076	0,022
-295,949	463,479	-0,032	0,053
-294,935	288,043	0,025	0,033
-293,920	800,000	-0,033	0,083
-292,905	-170,575	-0,036	-0,001
-291,891	-200,000	0,013	0,056
-290,876	-161,667	0,070	0,003
-289,862	-70,238	0,140	0,039
-288,847	100,985	-0,037	0,032
-287,832	211,020	-0,077	-0,089
-286,818	-183,000	0,088	-0,001
-285,803	-111,141	-0,149	0,022
-284,789	98,890	0,080	0,068
-283,774	-200,000	0,027	0,111
-282,759	455,627	0,008	0,012
-281,745	-156,909	-0,169	0,007
-280,730	-200,000	0,034	-0,155
-279,716	129,391	0,059	0,055
-278,701	117,221	0,053	-0,048
-277,686	150,374	0,023	0,023
-276,672	-200,000	0,008	0,054
-275,657	800,000	-0,027	-0,073
-274,643	-200,000	-0,006	0,034
-273,628	-200,000	0,035	-0,171
-272,613	71,353	0,095	0,072
-271,599	-200,000	0,013	-0,042
-270,584	40,480	0,036	0,024
-269,570	718,968	-0,029	0,056
-268,555	-19,853	0,082	-0,037
-267,540	-200,000	-0,014	-0,051
-266,526	-200,000	0,005	-0,128
-265,511	668,953	-0,034	0,065
-264,497	379,895	0,087	0,130
-263,482	800,000	-0,018	0,045
-262,467	-200,000	0,001	-0,026
-261,453	78,711	0,101	0,079
-260,438	-200,000	0,011	0,100
-259,424	-84,071	-0,149	-0,034
-258,409	-200,000	-0,004	-0,095
-257,395	386,536	0,023	0,036
-256,380	-200,000	-0,011	-0,044
-255,365	-200,000	-0,014	0,137
-254,351	229,172	0,082	-0,098
-253,336	-15,322	-0,074	0,034
-252,322	347,547	-0,061	-0,088
-251,307	-200,000	0,011	-0,133
-250,292	-72,559	0,052	-0,014
-249,278	-89,571	0,066	-0,014
-248,263	-114,570	-0,022	-0,003
-247,249	-200,000	-0,017	-0,096
-246,234	-200,000	0,010	-0,051
-245,219	-200,000	0,027	-0,111
-244,205	73,059	-0,127	-0,097
-243,190	-116,373	0,112	0,015
-242,176	296,965	0,109	0,146
-241,161	-17,760	0,126	0,057
-240,146	121,078	-0,078	0,071
-239,132	398,470	0,031	-0,048
-238,117	-200,000	-0,018	-0,067
-237,103	-200,000	-0,009	0,067
-236,088	-200,000	0,001	0,084
-235,073	365,960	0,013	-0,020
-234,059	-97,862	0,049	0,009
-233,044	800,000	-0,056	-0,141
-232,030	34,418	-0,059	0,037
-231,015	58,805	0,104	-0,074
-230,000	-39,574	-0,084	0,032
-228,986	107,230	-0,058	0,051
-227,971	-77,263	0,099	0,025
-226,957	800,000	-0,029	0,063
-225,942	-200,000	-0,026	0,109
-224,927	-200,000	-0,010	-0,127
-223,913	341,012	0,062	-0,088
-222,898	39,307	0,058	0,038
-221,884	800,000	-0,064	-0,137
-220,869	-40,454	-0,017	0,006
-219,855	-128,813	0,212	0,021
-218,840	-200,000	0,054	0,226
-217,825	800,000	0,011	-0,022
-216,811	17,856	0,019	-0,011
-215,796	169,244	-0,071	-0,074
-214,782	-200,000	-0,001	-0,139
-213,767	350,246	-0,078	0,112
-212,752	-200,000	0,055	0,201
-211,738	-139,510	-0,135	0,010
-210,723	600,779	-0,058	-0,106
-209,709	-200,000	-0,007	0,048
-208,694	-200,000	-0,003	-0,148
-207,679	800,000	-0,038	0,080
-206,665	-200,000	0,014	0,056
-205,650	-7,492	0,031	-0,015
-204,636	398,506	0,061	0,093
-203,621	-200,000	0,002	0,119
-202,606	-49,599	-0,052	0,018
-201,592	151,426	-0,047	-0,047
-200,577	242,867	0,018	-0,022
-199,563	-200,000	0,019	0,109
-198,548	277,263	-0,067	0,087
-197,533	800,000	0,071	0,159
-196,519	-136,911	-0,056	0,005
-195,504	-78,839	0,045	-0,011
-194,490	800,000	-0,063	-0,127
-193,475	800,000	-0,044	0,103
-192,460	-200,000	0,007	0,059
-191,446	-200,000	-0,003	-0,102
-190,431	88,689	-0,039	0,031
-189,417	-102,288	-0,049	-0,008
-188,402	132,465	0,080	0,075
-187,387	588,308	-0,052	-0,093
-186,373	426,084	0,056	-0,088
-185,358	-200,000	-0,028	0,121
-184,344	-28,681	-0,168	0,070
-183,329	20,647	-0,045	0,026
-182,315	-17,819	-0,061	0,028
-181,300	800,000	0,053	-0,128
-180,285	48,713	-0,125	0,085
-179,271	65,456	-0,100	-0,074
-178,256	-125,038	-0,014	-0,002
-177,242	-200,000	0,011	0,048
-176,227	85,466	0,147	0,117
-175,212	-200,000	-0,037	0,123
-174,198	800,000	0,055	0,124
-173,183	-104,710	-0,112	-0,019
-172,169	-118,320	-0,220	-0,028
-171,154	-95,460	-0,059	-0,011
-170,139	-200,000	-0,026	-0,253
-169,125	-136,355	0,011	-0,001
-168,110	286,020	-0,086	0,113
-167,096	288,457	-0,140	0,185
-166,081	68,662	-0,040	0,030
-165,066	-119,134	-0,112	0,014
-164,052	800,000	-0,015	0,036
-163,037	523,908	-0,047	0,080
-162,023	531,689	0,085	0,147
-161,008	-88,370	0,107	0,023
-159,993	-86,091	0,009	-0,002
-158,979	-200,000	0,014	0,046
-157,964	-63,745	0,094	-0,028
-156,950	201,750	0,068	-0,076
-155,935	45,321	0,098	-0,066
-154,920	152,673	0,067	0,067
-153,906	-48,290	-0,024	0,009
-152,891	156,215	-0,093	-0,094
-151,877	-125,001	-0,059	0,006
-150,862	219,567	-0,069	-0,080
-149,847	107,589	0,026	0,023
-148,833	-32,207	-0,040	0,016
-147,818	201,317	0,025	0,028
-146,804	166,465	0,121	0,125
-145,789	-200,000	-0,016	0,110
-144,775	-34,773	-0,101	0,040
-143,760	212,983	0,103	0,118
-142,745	-200,000	-0,013	-0,190
-141,731	-200,000	0,007	-0,068
-140,716	746,958	0,008	-0,015
-139,702	-108,133	0,065	-0,010
-138,687	-27,724	-0,038	-0,016
-137,672	101,244	0,039	0,033
-136,658	466,080	-0,073	-0,120
-135,643	80,419	-0,042	0,033
-134,629	-200,000	-0,001	-0,022
-133,614	93,338	-0,047	0,038
-132,599	430,271	0,045	-0,070
-131,585	-200,000	-0,035	0,159
-130,570	64,356	-0,056	0,041
-129,556	779,735	-0,029	-0,057
-128,541	-200,000	-0,007	0,052
-127,526	-175,562	-0,072	0,001
-126,512	800,000	-0,040	0,124
-125,497	270,454	0,078	0,100
-124,483	283,657	-0,085	0,111
-123,468	800,000	0,050	-0,128
-122,453	145,005	-0,091	-0,088
-121,439	-200,000	-0,012	0,118
-120,424	-200,000	0,000	-0,030
-119,410	800,000	0,054	0,110
-118,395	-200,000	0,024	0,099
-117,380	-178,635	0,105	0,002
-116,366	-92,005	0,047	-0,010
-115,351	800,000	-0,060	-0,126
-114,337	-79,167	-0,106	-0,026
-113,322	513,019	-0,049	-0,083
-112,307	46,677	-0,103	-0,069
-111,293	-21,513	0,045	-0,020
-110,278	693,000	0,055	0,106
-109,264	-200,000	0,017	-0,095
-108,249	111,549	0,025	-0,022
-107,234	-200,000	0,023	0,105
-106,220	-131,669	-0,078	0,007
-105,205	-5,800	-0,092	-0,046
-104,191	-147,394	0,011	-0,001
-103,176	800,000	0,069	0,145
-102,162	-200,000	0,006	0,201
-101,147	-125,342	-0,070	0,008
-100,132	800,000	-0,026	0,077
-99,118	132,343	-0,068	0,064
-98,103	-200,000	-0,014	0,100
-97,089	-121,380	0,107	0,013
-96,074	-200,000	0,020	0,079
-95,059	-86,743	0,084	-0,018
-94,045	274,551	-0,102	-0,131
-93,030	-200,000	-0,001	-0,017
-92,016	-31,747	-0,126	-0,051
-91,001	10,073	0,040	0,022
-89,986	-75,563	0,069	0,018
-88,972	-200,000	0,006	0,088
-87,957	-3,081	-0,033	0,016
-86,943	-200,000	0,024	0,084
-85,928	-200,000	-0,019	0,091
-84,913	226,551	0,010	0,012
-83,899	-200,000	0,012	-0,132
-82,884	334,753	0,048	-0,067
-81,870	-200,000	-0,017	0,087
-80,855	800,000	-0,026	0,080
-79,840	800,000	-0,026	0,063
-78,826	219,207	0,054	-0,062
-77,811	251,680	0,035	0,043
-76,797	-200,000	-0,014	-0,049
-75,782	-200,000	-0,011	0,073
-74,767	16,454	-0,061	-0,035
-73,753	-200,000	-0,023	0,082
-72,738	63,357	-0,074	0,053
-71,724	-87,708	-0,043	-0,009
-70,709	-200,000	-0,003	-0,010
-69,694	108,244	0,063	0,055
-68,680	-48,313	0,160	0,055
-67,665	-139,270	-0,159	-0,012
-66,651	-91,089	0,066	-0,014
-65,636	-200,000	-0,034	-0,140
-64,622	269,811	0,028	-0,036
-63,607	29,535	0,036	-0,022
-62,592	-105,277	-0,116	0,019
-61,578	-200,000	0,000	0,086
-60,563	800,000	0,037	0,103
-59,549	446,586	-0,049	0,078
-58,534	-105,982	-1,566	-0,253
-57,519	800,000	-0,636	-1,310
-56,505	-200,000	-0,950	-4,522
-55,490	-123,319	0,711	-0,081
-54,476	800,000	4,983	11,747
-53,461	-200,000	14,713	260,621
-52,446	-200,000	696,555	2235,958
-51,432	565,755	1621,370	2856,304
-50,417	118,350	1629,154	1453,907
-49,403	75,574	1283,277	979,380
-48,388	37,435	1022,291	654,405
-47,373	23,061	981,589	581,182
-46,359	22,189	970,882	571,968
-45,344	20,999	966,591	565,535
-44,330	20,963	965,488	564,750
-43,315	20,823	963,802	563,287
-42,300	20,831	962,836	562,725
-41,286	20,763	961,913	561,943
-40,271	20,817	960,710	561,393
-39,257	20,777	959,776	560,696
-38,242	20,794	958,952	560,249
-37,227	20,724	958,266	559,598
-36,213	20,772	957,137	559,072
-35,198	20,753	956,182	558,431
-34,184	20,737	955,467	557,939
-33,169	20,703	954,756	557,393
-32,154	20,841	953,708	557,204
-31,140	20,734	952,963	556,402
-30,125	20,795	952,185	556,119
-29,111	20,765	951,334	555,505
-28,096	20,816	950,786	555,325
-27,082	20,767	949,878	554,618
-26,067	20,789	949,156	554,245
-25,052	20,802	948,590	553,934
-24,038	20,778	947,799	553,372
-23,023	20,785	947,248	553,052
-22,009	20,794	946,584	552,669
-20,994	20,878	945,873	552,502
-19,979	20,802	945,458	551,994
-18,965	20,781	944,740	551,488
-17,950	20,771	944,126	551,075
-16,936	20,682	943,509	550,411
-15,921	20,733	942,737	550,098
-14,906	20,716	942,029	549,610
-13,892	20,716	941,278	549,149
-12,877	20,663	940,694	548,621
-11,863	20,678	940,128	548,317
-10,848	20,687	939,644	548,039
-9,833	20,803	939,149	548,098
-8,819	20,717	938,765	547,578
-7,804	20,736	937,845	547,080
-6,790	20,650	937,510	546,590
-5,775	20,729	936,828	546,421
-4,760	20,761	936,044	546,044
-3,746	20,702	935,579	545,565
-2,731	20,536	934,800	544,567
-1,717	20,469	934,177	543,970
-0,702	20,522	933,473	543,704
0,313	20,316	932,865	543,525
1,327	23,283	931,060	551,738
2,342	32,502	793,947	494,955
3,356	29,858	451,333	277,361
4,371	0,101	295,853	151,940
5,386	-4,192	277,050	138,182
6,400	-5,501	271,348	134,102
7,415	-5,837	268,862	132,550
8,429	-5,630	267,591	132,103
9,444	-5,681	266,788	131,648
10,459	-5,574	266,195	131,442
11,473	-5,727	265,653	131,022
12,488	-5,959	265,007	130,480
13,502	-5,882	264,434	130,256
14,517	-6,126	264,059	129,839
15,531	-5,932	263,597	129,776
16,546	-5,850	263,252	129,669
17,561	-5,914	262,972	129,461
18,575	-6,023	262,713	129,224
19,590	-5,965	262,298	129,060
20,604	-5,961	262,106	128,958
21,619	-6,029	261,730	128,701
22,634	-5,908	261,211	128,543
23,648	-5,960	260,992	128,377
24,663	-6,033	260,749	128,180
25,677	-6,037	260,477	128,031
26,692	-6,131	260,307	127,853
27,707	-6,185	260,080	127,681
28,721	-6,029	259,591	127,569
29,736	-6,140	259,392	127,360
30,750	-6,267	259,181	127,133
31,765	-6,188	258,899	127,053
32,780	-5,919	258,708	127,187
33,794	-5,994	258,363	126,940
34,809	-6,162	258,349	126,773
35,823	-6,168	257,993	126,581
36,838	-6,302	257,834	126,374
37,853	-6,200	257,439	126,258
38,867	-6,221	257,338	126,179
39,882	-6,190	257,075	126,066
40,896	-6,312	256,921	125,872
41,911	-6,276	256,652	125,761
42,926	-6,195	256,262	125,630
43,940	-6,262	256,049	125,455
44,955	-6,260	255,900	125,372
45,969	-6,375	255,687	125,156
46,984	-6,564	255,332	124,806
47,999	-6,790	255,109	124,488
49,013	-6,962	254,879	124,214
50,028	-6,857	254,651	124,184
51,042	-7,082	254,403	123,854
52,057	-7,086	254,167	123,726
53,071	-7,121	253,978	123,592
54,086	-7,060	253,807	123,551
55,101	-6,948	253,766	123,617
56,115	-6,554	253,564	123,850
57,130	-6,012	253,526	124,292
58,144	-5,884	253,279	124,271
59,159	-5,970	253,181	124,138
60,174	-5,915	252,822	123,998
61,188	-6,153	252,749	123,745
62,203	-6,005	252,362	123,672
63,217	-6,153	252,171	123,440
64,232	-5,997	251,986	123,473
65,247	-6,069	251,862	123,339
66,261	-5,877	251,696	123,413
67,276	-6,281	251,267	122,843
68,290	-6,515	250,951	122,476
69,305	-6,606	250,753	122,291
70,320	-6,552	250,616	122,260
71,334	-6,268	250,590	122,480
72,349	-5,988	250,497	122,663
73,363	-5,704	250,170	122,736
74,378	-5,946	249,986	122,427
75,393	-5,979	249,749	122,273
76,407	-6,097	249,611	122,093
77,422	-6,163	249,332	121,889
78,436	-6,045	249,062	121,847
79,451	-6,040	248,921	121,772
80,466	-6,448	248,752	121,330
81,480	-6,310	248,311	121,222
82,495	-6,349	248,168	121,108
83,509	-6,520	248,195	120,965
84,524	-6,364	247,914	120,950
85,539	-6,323	247,605	120,824
86,553	-6,566	247,414	120,514
87,568	-6,341	247,279	120,628
88,582	-6,493	247,069	120,386
89,597	-6,289	246,885	120,458
90,611	-6,116	246,618	120,463
91,626	-6,159	246,713	120,462
92,641	-5,951	246,246	120,398
93,655	-6,318	246,189	120,051
94,670	-6,246	246,020	120,018
95,684	-6,185	245,902	120,001
96,699	-6,251	245,700	119,837
97,714	-6,332	245,434	119,628
98,728	-6,367	245,209	119,479
99,743	-6,489	245,022	119,275
100,757	-6,604	244,870	119,094
101,772	-6,484	244,701	119,101
102,787	-6,370	244,436	119,056
103,801	-6,361	244,378	119,025
104,816	-6,197	244,135	119,033
105,830	-6,140	244,153	119,079
106,845	-5,881	243,895	119,158
107,860	-5,967	243,624	118,943
108,874	-6,224	243,506	118,662
109,889	-6,225	243,258	118,529
110,903	-6,256	243,190	118,459
111,918	-6,228	242,868	118,316
112,933	-6,193	242,687	118,246
113,947	-6,090	242,581	118,269
114,962	-6,343	242,377	117,950
115,976	-6,269	242,246	117,936
116,991	-6,057	242,031	117,997
118,006	-6,205	241,765	117,735
119,020	-6,134	241,680	117,741
120,035	-6,192	241,742	117,713
121,049	-6,089	241,433	117,637
122,064	-5,983	241,344	117,670
123,079	-6,221	241,121	117,356
124,093	-6,203	240,902	117,253
125,108	-6,363	240,543	116,937
126,122	-6,594	240,317	116,627
127,137	-6,812	240,248	116,404
128,151	-6,696	240,086	116,410
129,166	-6,519	240,007	116,507
130,181	-6,547	239,639	116,295
131,195	-6,421	239,477	116,308
132,210	-6,176	239,218	116,372
133,224	-6,050	239,120	116,416
134,239	-5,901	238,977	116,458
135,254	-6,079	238,860	116,246
136,268	-6,443	238,759	115,890
137,283	-6,615	238,383	115,557
138,297	-6,775	238,104	115,283
139,312	-6,671	237,989	115,301
140,327	-6,421	237,948	115,473
141,341	-5,673	237,783	115,988
142,356	-5,816	237,703	115,824
143,370	-5,805	237,633	115,788
144,385	-6,011	237,410	115,502
145,400	-5,730	237,270	115,651
146,414	-5,890	237,097	115,427
147,429	-5,812	236,887	115,377
148,443	-5,961	236,698	115,155
149,458	-5,710	236,540	115,270
150,473	-5,873	236,345	115,034
151,487	-5,941	236,186	114,891
152,502	-6,016	236,003	114,732
153,516	-5,942	235,927	114,744
154,531	-5,732	235,739	114,811
155,546	-5,971	235,544	114,514
156,560	-5,806	235,222	114,479
157,575	-6,150	235,187	114,177
158,589	-5,823	234,926	114,301
159,604	-5,871	234,808	114,196
160,619	-5,807	234,783	114,224
161,633	-5,574	234,475	114,249
162,648	-5,667	234,296	114,078
163,662	-5,674	234,390	114,108
164,677	-5,972	234,114	113,727
165,692	-5,711	233,837	113,789
166,706	-5,731	233,955	113,821
167,721	-5,596	233,640	113,764
168,735	-5,487	233,454	113,750
169,750	-5,702	233,323	113,506
170,764	-5,697	233,164	113,422
171,779	-5,936	233,039	113,162
172,794	-5,742	232,893	113,235
173,808	-5,844	232,516	112,961
174,823	-6,354	232,349	112,468
175,837	-6,438	232,141	112,291
176,852	-6,125	232,266	112,588
177,867	-5,755	231,960	112,721
178,881	-5,621	231,992	112,831
179,896	-5,780	231,760	112,584
180,910	-5,807	231,613	112,481
181,925	-5,696	231,548	112,527
182,940	-5,650	231,251	112,408
183,954	-5,497	231,137	112,463
184,969	-5,558	230,965	112,321
185,983	-5,623	230,791	112,175
186,998	-5,551	230,783	112,218
188,013	-5,554	230,603	112,118
189,027	-5,670	230,367	111,903
190,042	-5,653	230,310	111,879
191,056	-5,507	230,070	111,866
192,071	-5,618	229,978	111,724
193,086	-5,568	229,828	111,681
194,100	-5,322	229,586	111,744
195,115	-5,584	229,288	111,386
196,129	-6,132	229,178	110,897
197,144	-3,148	230,144	113,680
198,159	1,097	231,349	117,582
199,173	3,521	232,014	119,805
200,188	3,843	231,900	119,986
201,202	3,851	231,857	119,960
202,217	4,092	231,695	120,053
203,232	4,377	231,416	120,120
204,246	4,332	231,420	120,076
205,261	4,483	231,351	120,147
206,275	4,529	231,103	120,043
207,290	4,481	231,059	119,973
208,304	4,449	230,951	119,881
209,319	4,650	230,714	119,903
210,334	4,241	230,482	119,454
211,348	4,246	230,244	119,324
212,363	4,108	229,810	118,982
213,377	3,617	229,780	118,577
214,392	3,596	229,579	118,447
215,407	3,649	229,475	118,423
216,421	3,992	229,206	118,538
217,436	3,884	229,075	118,376
218,450	3,534	228,854	117,982
219,465	3,468	228,650	117,816
220,480	3,506	228,678	117,849
221,494	3,345	228,575	117,662
222,509	3,793	228,407	117,909
223,523	3,761	228,118	117,724
224,538	3,649	227,923	117,528
225,553	3,733	227,875	117,557
226,567	3,781	227,806	117,547
227,582	3,769	227,829	117,540
228,596	4,128	227,624	117,698
229,611	3,611	227,523	117,240
230,626	3,783	227,146	117,166
231,640	3,420	227,020	116,815
232,655	3,833	227,131	117,176
233,669	4,025	227,010	117,250
234,684	4,529	226,748	117,487
235,699	3,934	226,664	116,981
236,713	3,798	226,379	116,720
237,728	3,543	226,178	116,412
238,742	3,519	225,975	116,279
239,757	3,623	225,799	116,257
240,772	3,509	225,835	116,179
241,786	3,595	225,728	116,178
242,801	3,771	225,503	116,186
243,815	3,940	225,402	116,251
244,830	4,116	225,157	116,247
245,844	3,905	225,018	116,005
246,859	3,818	224,820	115,827
247,874	3,763	224,828	115,780
248,888	3,850	224,586	115,710
249,903	3,713	224,423	115,513
250,917	3,318	224,516	115,254
251,932	3,523	224,198	115,234
252,947	3,665	224,011	115,234
253,961	3,781	223,730	115,166
254,976	3,651	223,679	115,032
255,990	3,787	223,551	115,058
257,005	3,913	223,557	115,145
258,020	3,667	223,439	114,890
259,034	4,190	223,300	115,199
260,049	4,055	223,074	114,972
261,063	3,943	222,901	114,789
262,078	4,155	222,817	114,893
263,093	4,136	222,752	114,836
264,107	4,093	222,355	114,589
265,122	4,043	222,410	114,570
266,136	4,171	222,294	114,595
267,151	4,119	222,167	114,480
268,166	3,500	221,877	113,862
269,180	3,478	221,586	113,685
270,195	3,324	221,437	113,484
271,209	3,542	221,293	113,562
272,224	3,824	221,197	113,711
273,239	3,760	221,104	113,606
274,253	3,451	220,998	113,314
275,268	3,407	220,795	113,166
276,282	3,390	220,518	113,002
277,297	3,475	220,401	112,994
278,312	3,470	220,281	112,919
279,326	3,711	220,202	113,046
280,341	3,737	220,152	113,030
281,355	3,959	219,866	113,036
282,370	3,739	219,801	112,831
283,384	3,346	219,677	112,468
284,399	3,410	219,519	112,425
285,414	3,370	219,295	112,270
286,428	3,637	219,270	112,443
287,443	3,864	219,082	112,503
288,457	3,981	219,001	112,537
289,472	3,431	218,945	112,096
290,487	3,378	218,571	111,856
291,501	3,324	218,409	111,723
292,516	3,338	218,285	111,660
293,530	3,260	218,225	111,563
294,545	3,164	218,119	111,429
295,560	3,607	217,961	111,660
296,574	3,805	217,761	111,692
297,589	3,609	217,806	111,562
298,603	3,734	217,536	111,505
299,618	3,597	217,500	111,377
300,633	3,522	217,401	111,262
301,647	3,874	217,296	111,454
302,662	4,049	217,018	111,428
303,676	4,025	216,917	111,349
304,691	3,859	216,758	111,137
305,706	3,657	216,644	110,923
306,720	3,996	216,579	111,124
307,735	3,951	216,397	110,989
308,749	3,619	216,291	110,685
309,764	3,912	216,110	110,794
310,779	4,008	216,070	110,833
311,793	3,736	215,772	110,474
312,808	3,834	215,613	110,453
313,822	3,695	215,567	110,320
314,837	3,626	215,397	110,173
315,852	3,552	215,246	110,033
316,866	3,528	215,090	109,927
317,881	3,753	215,016	110,040
318,895	3,899	214,836	110,043
319,910	3,792	214,689	109,881
320,925	3,407	214,501	109,500
321,939	3,377	214,279	109,355
322,954	3,356	214,103	109,241
323,968	3,692	214,241	109,541
324,983	3,935	214,096	109,630
325,997	3,976	213,941	109,571
327,012	3,701	213,730	109,257
328,027	3,796	213,642	109,270
329,041	4,006	213,608	109,392
330,056	4,021	213,475	109,325
331,070	3,883	213,196	109,074
332,085	3,484	212,935	108,649
333,100	3,470	212,745	108,532
334,114	3,432	212,776	108,511
335,129	3,882	212,628	108,744
336,143	3,569	212,488	108,441
337,158	3,395	212,406	108,267
338,173	3,736	212,221	108,404
339,187	3,490	212,151	108,185
340,202	3,583	211,806	108,065
341,216	3,297	211,655	107,777
342,231	3,551	211,602	107,920
343,246	3,313	211,521	107,701
344,260	3,372	211,358	107,650
345,275	3,537	211,265	107,709
346,289	3,791	211,220	107,854
347,304	3,844	211,036	107,788
348,319	3,608	210,913	107,550
349,333	3,839	210,706	107,596
350,348	3,973	210,571	107,612
351,362	4,066	210,514	107,638
352,377	4,042	210,374	107,540
353,392	3,840	210,127	107,264
354,406	3,860	210,062	107,235
355,421	195,309	1343,280	1432,052
356,435	155,952	1481,414	1432,136
