DTS Sentinel unit serial number:	SN410029Multiplexer serial number:	ORYXHardware model number:	OX2-SRSoftware version number:	ORYX F/W v4,00 Oryx Data Collector v3.7.2.0data status	okinstallation	B6 Nyhavnadifferential loss correction	single-endedforward channel	channel 2reverse channel	N/Adate	2023/12/10time	08:45:08forward acquisition time	300,00reverse acquisition time	0,00gamma	499,1914k internal	0,3123k external	0,3123temperature offset calibration	1,0000default loss term (dB/km)	0,3820temperature slope calibration	1,0000multiplexer offset coefficient	1,0000multiplexer slope coefficient	1,0000fibre end	0,00T internal ref (°C)	22,57T ext. ref 1 (°C)	6,30T ext. ref 2 (°C)	6,32length (m)	temperature (°C)	Stokes	anti-Stokes-744,400	-121,130	0,164	-0,020
-743,385	-50,780	-0,106	0,037
-742,371	45,794	0,106	-0,073
-741,356	150,235	-0,197	0,200
-740,342	-86,811	0,123	-0,028
-739,327	58,550	-0,173	0,126
-738,312	-13,935	0,128	0,061
-737,298	-44,787	-0,337	0,125
-736,283	133,324	0,113	-0,109
-735,269	-125,391	-0,229	0,026
-734,254	-82,015	0,051	-0,012
-733,239	-76,569	-0,378	-0,098
-732,225	800,000	0,042	0,093
-731,210	800,000	-0,074	0,169
-730,196	115,764	-0,067	0,061
-729,181	800,000	0,028	0,065
-728,167	92,647	0,048	0,040
-727,152	-16,609	0,040	0,019
-726,137	-70,010	-0,108	-0,031
-725,123	0,978	0,095	-0,051
-724,108	168,427	-0,133	-0,141
-723,094	-200,000	-0,055	-0,221
-722,079	-114,890	-0,062	-0,009
-721,064	772,350	-0,047	0,097
-720,050	-93,974	0,087	-0,018
-719,035	-97,867	-0,166	-0,032
-718,021	-200,000	0,001	-0,005
-717,006	94,524	-0,062	-0,052
-715,991	250,993	-0,071	-0,090
-714,977	-93,659	0,070	-0,014
-713,962	157,457	-0,066	0,068
-712,948	-200,000	-0,004	-0,036
-711,933	-145,775	0,038	0,002
-710,918	-85,577	-0,071	0,016
-709,904	-39,630	-0,097	0,038
-708,889	-116,732	-0,062	-0,008
-707,875	800,000	0,054	-0,147
-706,860	461,593	-0,035	0,058
-705,845	141,369	-0,036	0,036
-704,831	-200,000	0,009	-0,112
-703,816	800,000	0,032	-0,086
-702,802	-200,000	0,019	0,071
-701,787	143,796	-0,152	-0,150
-700,772	-200,000	0,010	-0,038
-699,758	-200,000	0,018	0,062
-698,743	40,490	0,020	0,013
-697,729	-200,000	-0,017	0,124
-696,714	-200,000	-0,009	0,107
-695,699	-200,000	-0,004	-0,153
-694,685	800,000	-0,036	-0,084
-693,670	169,877	0,063	-0,067
-692,656	-47,253	0,022	-0,008
-691,641	126,889	0,034	-0,032
-690,627	-181,820	0,038	0,001
-689,612	-151,067	0,167	0,009
-688,597	101,042	0,017	-0,015
-687,583	131,482	0,089	-0,085
-686,568	294,085	0,025	0,034
-685,554	-15,941	-0,108	0,051
-684,539	-200,000	0,045	0,151
-683,524	-200,000	0,020	-0,107
-682,510	-200,000	-0,017	-0,069
-681,495	81,210	-0,060	-0,048
-680,481	-200,000	0,000	-0,106
-679,466	-58,610	-0,055	-0,017
-678,451	250,060	-0,064	0,081
-677,437	741,820	-0,051	-0,103
-676,422	738,602	0,062	0,123
-675,408	57,180	-0,125	-0,090
-674,393	800,000	-0,013	-0,030
-673,378	206,295	0,056	-0,065
-672,364	87,401	-0,027	-0,022
-671,349	155,347	-0,047	-0,048
-670,335	-200,000	0,016	0,064
-669,320	335,748	-0,036	-0,052
-668,305	800,000	-0,027	-0,058
-667,291	-200,000	-0,019	-0,077
-666,276	-104,476	-0,150	-0,025
-665,262	439,781	-0,044	0,072
-664,247	-16,933	-0,191	-0,089
-663,232	251,383	0,029	0,036
-662,218	134,211	0,078	0,075
-661,203	-27,665	-0,142	-0,061
-660,189	800,000	-0,032	-0,079
-659,174	-28,633	-0,085	-0,036
-658,159	79,027	0,126	-0,100
-657,145	182,796	-0,093	-0,102
-656,130	-2,452	0,065	0,034
-655,116	-200,000	0,019	-0,133
-654,101	30,330	-0,089	0,056
-653,086	453,944	-0,049	-0,080
-652,072	800,000	0,001	-0,002
-651,057	-200,000	0,015	-0,102
-650,043	-200,000	0,003	0,072
-649,028	51,060	-0,044	0,031
-648,014	800,000	0,032	-0,071
-646,999	82,119	0,042	-0,034
-645,984	722,094	-0,054	-0,108
-644,970	-129,732	-0,150	-0,015
-643,955	226,967	0,054	-0,065
-642,941	238,559	0,070	-0,086
-641,926	313,033	0,032	-0,045
-640,911	18,281	-0,104	0,062
-639,897	790,890	0,033	-0,068
-638,882	-23,651	0,035	0,015
-637,868	278,630	-0,087	0,116
-636,853	58,147	-0,044	0,032
-635,838	23,231	-0,040	-0,024
-634,824	250,374	-0,093	0,118
-633,809	73,913	-0,062	-0,049
-632,795	-200,000	-0,026	0,087
-631,780	36,462	0,040	0,026
-630,765	-80,922	-0,094	-0,023
-629,751	95,980	-0,187	-0,158
-628,736	24,294	-0,111	-0,068
-627,722	239,027	0,019	0,024
-626,707	26,055	0,066	0,041
-625,692	800,000	0,043	-0,094
-624,678	-88,527	0,024	-0,005
-623,663	-150,042	-0,059	0,003
-622,649	224,899	-0,066	0,079
-621,634	-38,840	-0,115	-0,045
-620,619	-8,467	-0,045	-0,022
-619,605	144,446	-0,069	0,069
-618,590	-51,593	-0,027	0,009
-617,576	7,984	-0,069	-0,038
-616,561	-200,000	0,005	0,226
-615,546	110,624	-0,103	0,091
-614,532	-200,000	0,012	-0,139
-613,517	-200,000	-0,004	-0,096
-612,503	10,183	0,142	-0,080
-611,488	-200,000	-0,018	-0,061
-610,474	800,000	-0,029	0,088
-609,459	253,623	-0,043	0,054
-608,444	478,869	0,048	-0,081
-607,430	800,000	-0,023	-0,068
-606,415	-200,000	-0,020	-0,178
-605,401	800,000	0,022	-0,057
-604,386	125,086	0,038	-0,036
-603,371	-200,000	0,005	0,086
-602,357	31,013	0,051	-0,032
-601,342	-101,819	-0,085	0,015
-600,328	64,952	-0,035	-0,026
-599,313	-200,000	0,000	0,078
-598,298	187,665	0,034	0,037
-597,284	14,613	0,141	0,081
-596,269	-38,673	0,068	0,026
-595,255	291,558	-0,079	-0,106
-594,240	-78,340	0,018	0,004
-593,225	765,817	-0,049	-0,099
-592,211	-34,756	-0,036	0,014
-591,196	800,000	0,028	0,084
-590,182	207,121	-0,037	0,043
-589,167	94,631	-0,050	-0,042
-588,152	800,000	0,040	-0,104
-587,138	44,781	-0,086	-0,058
-586,123	47,541	-0,098	-0,068
-585,109	633,274	-0,047	-0,088
-584,094	-26,280	-0,025	0,011
-583,079	326,029	0,041	-0,059
-582,065	800,000	0,012	0,025
-581,050	22,667	-0,075	-0,046
-580,036	-120,316	-0,076	0,009
-579,021	-171,022	-0,092	-0,002
-578,006	252,054	-0,043	-0,054
-576,992	728,148	0,028	0,056
-575,977	-196,055	-0,066	-0,000
-574,963	64,957	-0,038	0,029
-573,948	-57,270	0,116	-0,038
-572,934	252,951	0,087	-0,110
-571,919	800,000	0,018	-0,053
-570,904	315,387	-0,021	0,030
-569,890	-60,828	-0,109	-0,034
-568,875	39,738	0,081	-0,054
-567,861	7,785	0,158	0,087
-566,846	-132,998	-0,084	-0,008
-565,831	418,548	0,022	-0,036
-564,817	163,978	-0,078	0,082
-563,802	-200,000	-0,001	-0,017
-562,788	-162,649	0,043	-0,002
-561,773	-200,000	-0,003	-0,053
-560,758	-5,729	0,080	-0,040
-559,744	-200,000	-0,001	0,069
-558,729	-200,000	0,002	-0,032
-557,715	208,257	-0,111	0,128
-556,700	225,445	-0,020	0,024
-555,685	800,000	-0,033	-0,094
-554,671	383,252	-0,033	0,051
-553,656	800,000	0,068	0,180
-552,642	-105,151	0,055	-0,009
-551,627	129,223	0,022	-0,021
-550,612	-124,601	0,131	0,015
-549,598	-161,588	-0,070	-0,003
-548,583	502,783	-0,044	0,075
-547,569	800,000	-0,024	-0,053
-546,554	639,965	0,035	-0,066
-545,539	61,660	-0,152	-0,112
-544,525	800,000	0,036	0,089
-543,510	-200,000	-0,012	-0,057
-542,496	-84,439	-0,065	0,015
-541,481	62,629	0,102	0,075
-540,466	800,000	-0,020	-0,044
-539,452	1,221	0,171	-0,091
-538,437	-139,380	0,149	0,012
-537,423	-200,000	0,015	0,071
-536,408	-96,905	0,028	-0,005
-535,393	208,390	0,056	-0,065
-534,379	800,000	-0,067	-0,157
-533,364	-200,000	0,013	-0,042
-532,350	800,000	0,032	0,096
-531,335	243,836	-0,135	0,168
-530,321	82,951	0,033	-0,027
-529,306	-81,508	-0,148	0,036
-528,291	371,101	0,072	0,108
-527,277	800,000	0,043	0,130
-526,262	193,647	-0,059	-0,066
-525,248	214,494	-0,057	0,067
-524,233	-118,566	0,120	0,016
-523,218	800,000	0,053	0,159
-522,204	-8,448	-0,049	-0,024
-521,189	76,829	-0,025	-0,019
-520,175	148,587	-0,059	-0,059
-519,160	344,380	-0,064	-0,094
-518,145	124,995	0,071	0,066
-517,131	171,078	0,008	0,009
-516,116	-200,000	0,008	-0,058
-515,102	-200,000	0,024	-0,093
-514,087	-78,955	-0,077	-0,019
-513,072	-200,000	-0,004	0,040
-512,058	-120,973	-0,129	0,016
-511,043	-64,867	0,114	0,034
-510,029	544,575	-0,021	0,038
-509,014	256,697	0,047	0,060
-507,999	-132,453	-0,025	0,002
-506,985	800,000	-0,039	-0,093
-505,970	127,073	-0,057	-0,054
-504,956	293,569	-0,068	-0,092
-503,941	771,593	0,026	0,053
-502,926	444,938	0,073	-0,119
-501,912	175,906	-0,066	-0,071
-500,897	337,593	0,058	0,083
-499,883	133,600	-0,048	0,046
-498,868	683,138	-0,086	-0,166
-497,853	-97,752	-0,044	0,008
-496,839	363,311	-0,076	-0,113
-495,824	-39,885	-0,099	-0,038
-494,810	168,767	-0,025	0,026
-493,795	-200,000	0,025	0,151
-492,781	-165,015	-0,117	0,004
-491,766	-200,000	0,017	-0,058
-490,751	-51,494	-0,109	-0,037
-489,737	-109,326	-0,106	0,016
-488,722	2,862	0,079	-0,042
-487,708	400,239	0,062	-0,096
-486,693	-200,000	0,007	0,073
-485,678	-93,489	-0,196	0,040
-484,664	800,000	0,011	-0,034
-483,649	800,000	0,027	0,080
-482,635	42,773	0,066	-0,044
-481,620	-200,000	0,012	-0,173
-480,605	-20,975	0,036	0,016
-479,591	-200,000	0,024	0,101
-478,576	446,884	0,068	-0,111
-477,562	73,323	0,058	-0,045
-476,547	617,962	-0,060	0,111
-475,532	-143,253	-0,008	0,001
-474,518	-80,462	-0,065	0,016
-473,503	800,000	0,090	0,240
-472,489	800,000	-0,045	-0,123
-471,474	164,830	-0,055	-0,058
-470,459	209,828	-0,080	-0,093
-469,445	184,758	-0,095	-0,104
-468,430	120,644	0,129	-0,119
-467,416	447,897	0,060	-0,098
-466,401	-2,989	-0,075	0,038
-465,386	-200,000	-0,005	-0,192
-464,372	800,000	-0,027	-0,078
-463,357	16,824	0,050	-0,029
-462,343	574,017	0,040	-0,072
-461,328	179,432	-0,045	-0,048
-460,313	-50,749	-0,109	0,037
-459,299	-49,645	0,051	-0,018
-458,284	732,442	-0,026	-0,051
-457,270	250,065	0,076	-0,095
-456,255	-54,377	-0,020	-0,006
-455,241	-19,472	0,047	-0,021
-454,226	-96,923	-0,021	-0,004
-453,211	800,000	0,029	-0,067
-452,197	411,777	-0,022	-0,035
-451,182	800,000	0,047	0,109
-450,168	48,340	0,064	-0,044
-449,153	-145,419	-0,020	-0,001
-448,138	246,264	0,035	0,043
-447,124	672,585	0,035	-0,068
-446,109	60,316	-0,075	0,054
-445,095	126,270	-0,042	-0,040
-444,080	449,814	-0,055	-0,089
-443,065	30,323	0,119	-0,075
-442,051	-35,192	-0,076	0,030
-441,036	-200,000	0,016	-0,066
-440,022	-55,972	0,053	-0,017
-439,007	-28,108	0,042	0,018
-437,992	62,456	0,092	0,068
-436,978	225,500	0,061	0,073
-435,963	4,121	-0,090	0,048
-434,949	-63,049	-0,093	-0,028
-433,934	-125,109	0,061	-0,007
-432,919	-200,000	-0,011	0,043
-431,905	800,000	-0,021	-0,067
-430,890	224,601	-0,032	-0,038
-429,876	16,729	0,110	0,064
-428,861	-200,000	-0,000	0,119
-427,846	-9,278	-0,077	0,038
-426,832	72,240	-0,069	-0,053
-425,817	-1,143	-0,064	0,033
-424,803	168,113	0,046	-0,048
-423,788	-200,000	-0,004	0,025
-422,773	-200,000	0,015	-0,060
-421,759	-55,018	0,033	0,011
-420,744	-18,120	-0,055	0,025
-419,730	189,376	-0,058	0,064
-418,715	-168,635	-0,138	0,004
-417,701	69,609	-0,049	0,037
-416,686	-46,570	0,090	-0,032
-415,671	14,521	0,145	0,083
-414,657	-200,000	-0,006	0,036
-413,642	-200,000	-0,000	0,011
-412,628	264,338	-0,013	-0,016
-411,613	-200,000	0,003	-0,051
-410,598	552,183	-0,033	0,059
-409,584	27,087	0,140	0,086
-408,569	423,400	0,082	0,130
-407,555	327,086	0,048	0,068
-406,540	-200,000	0,011	-0,058
-405,525	-200,000	-0,005	0,088
-404,511	51,253	-0,017	0,012
-403,496	-200,000	-0,024	-0,148
-402,482	583,195	-0,025	-0,045
-401,467	-200,000	0,001	0,012
-400,452	57,616	0,055	-0,040
-399,438	-200,000	-0,031	-0,121
-398,423	36,377	-0,084	-0,054
-397,409	142,375	0,066	0,064
-396,394	-9,606	-0,031	-0,015
-395,379	-97,825	0,096	-0,018
-394,365	-75,110	-0,007	0,002
-393,350	392,119	-0,088	0,135
-392,336	-135,852	0,102	-0,009
-391,321	-68,443	-0,066	0,019
-390,306	800,000	0,039	-0,093
-389,292	440,901	0,024	0,039
-388,277	-78,481	0,161	-0,040
-387,263	51,884	0,026	0,018
-386,248	118,005	-0,011	0,010
-385,233	102,115	0,069	-0,060
-384,219	-200,000	-0,020	-0,069
-383,204	110,618	0,053	-0,047
-382,190	571,443	-0,025	0,045
-381,175	800,000	-0,022	0,064
-380,160	526,022	0,056	0,098
-379,146	16,754	0,058	0,034
-378,131	-200,000	-0,018	0,076
-377,117	737,163	0,065	-0,128
-376,102	800,000	0,002	0,008
-375,088	54,706	-0,138	-0,098
-374,073	800,000	-0,048	0,129
-373,058	-84,322	-0,090	-0,021
-372,044	-200,000	-0,028	0,187
-371,029	-200,000	-0,021	-0,122
-370,015	405,865	0,106	-0,165
-369,000	-8,723	-0,112	-0,055
-367,985	-200,000	-0,007	-0,048
-366,971	-26,745	-0,032	-0,014
-365,956	-200,000	-0,008	-0,033
-364,942	405,639	-0,062	0,097
-363,927	177,945	0,103	0,110
-362,912	-200,000	-0,012	0,044
-361,898	289,210	0,059	-0,078
-360,883	141,741	-0,007	-0,007
-359,869	272,356	-0,032	0,041
-358,854	146,693	-0,058	0,057
-357,839	741,013	-0,032	0,064
-356,825	30,296	-0,031	0,019
-355,810	10,545	-0,030	0,017
-354,796	-103,468	0,129	-0,022
-353,781	-200,000	-0,014	-0,062
-352,766	-41,906	-0,051	-0,019
-351,752	-145,669	0,084	-0,005
-350,737	531,070	-0,004	-0,008
-349,723	712,570	0,010	-0,020
-348,708	-137,058	-0,025	0,002
-347,693	800,000	0,026	-0,072
-346,679	-200,000	-0,011	0,057
-345,664	405,005	-0,055	-0,085
-344,650	-200,000	0,031	-0,144
-343,635	80,135	0,091	-0,072
-342,620	4,167	0,057	0,031
-341,606	800,000	0,019	0,056
-340,591	-57,595	0,091	0,029
-339,577	800,000	0,045	0,110
-338,562	-154,847	0,120	-0,006
-337,548	99,388	-0,079	0,067
-336,533	-121,894	-0,161	0,019
-335,518	-46,756	-0,100	0,036
-334,504	-200,000	0,043	0,230
-333,489	284,740	0,056	-0,074
-332,475	20,308	-0,107	0,063
-331,460	304,807	-0,018	-0,025
-330,445	382,434	-0,065	-0,098
-329,431	258,261	-0,011	0,013
-328,416	109,511	0,082	-0,072
-327,402	-200,000	-0,009	0,224
-326,387	39,411	-0,068	0,044
-325,372	-200,000	0,006	0,046
-324,358	-200,000	-0,038	-0,146
-323,343	-154,284	0,060	-0,003
-322,329	800,000	-0,031	-0,083
-321,314	262,300	0,053	-0,068
-320,299	-85,703	-0,134	-0,030
-319,285	43,388	0,092	0,062
-318,270	-88,976	0,089	-0,019
-317,256	39,786	-0,074	0,048
-316,241	62,819	0,051	-0,038
-315,226	-32,453	0,128	0,052
-314,212	447,996	-0,040	-0,064
-313,197	-95,884	0,074	0,014
-312,183	61,420	0,075	-0,054
-311,168	800,000	-0,011	-0,029
-310,153	-76,711	-0,011	0,003
-309,139	374,586	0,057	0,085
-308,124	222,446	0,054	-0,064
-307,110	-200,000	0,004	0,177
-306,095	-53,812	0,116	0,039
-305,080	-200,000	0,016	0,073
-304,066	240,231	-0,059	-0,072
-303,051	101,938	-0,018	-0,016
-302,037	-200,000	0,015	0,106
-301,022	101,565	0,092	0,079
-300,008	159,429	-0,022	0,023
-298,993	-200,000	-0,013	0,093
-297,978	-78,612	-0,093	0,023
-296,964	-200,000	-0,010	0,038
-295,949	763,479	-0,036	0,072
-294,935	312,990	0,039	-0,054
-293,920	508,685	0,063	0,108
-292,905	-101,503	-0,005	-0,001
-291,891	-200,000	0,003	0,043
-290,876	5,380	0,106	0,057
-289,862	140,157	-0,054	0,052
-288,847	-119,139	-0,090	0,011
-287,832	-114,139	0,123	-0,017
-286,818	-75,602	-0,077	-0,020
-285,803	50,937	0,036	0,025
-284,789	-60,666	0,100	-0,031
-283,774	-200,000	-0,007	-0,076
-282,759	800,000	0,012	-0,033
-281,745	415,685	0,058	-0,090
-280,730	-200,000	-0,019	0,072
-279,716	800,000	0,048	-0,153
-278,701	-200,000	0,004	0,020
-277,686	249,295	-0,024	0,030
-276,672	-178,519	0,058	0,001
-275,657	-200,000	-0,034	-0,139
-274,643	800,000	0,042	-0,109
-273,628	134,810	-0,119	-0,113
-272,613	-51,703	0,078	0,026
-271,599	-200,000	0,005	-0,111
-270,584	-200,000	0,013	-0,082
-269,570	16,340	0,104	-0,060
-268,555	-106,225	0,037	-0,006
-267,540	86,608	0,055	0,045
-266,526	-200,000	-0,021	0,086
-265,511	36,247	-0,011	-0,007
-264,497	-130,478	0,192	0,019
-263,482	-61,329	0,072	0,022
-262,467	800,000	0,019	0,057
-261,453	-84,963	0,108	-0,025
-260,438	95,449	-0,118	-0,098
-259,424	-10,499	-0,028	0,013
-258,409	800,000	-0,013	0,041
-257,395	-200,000	-0,018	0,075
-256,380	52,234	-0,062	-0,043
-255,365	29,514	0,038	0,024
-254,351	-27,119	0,099	-0,042
-253,336	-5,865	-0,029	-0,014
-252,322	-34,070	-0,158	-0,063
-251,307	232,977	0,083	0,100
-250,292	90,405	-0,039	-0,032
-249,278	175,083	0,088	0,093
-248,263	800,000	-0,012	-0,033
-247,249	800,000	0,036	0,088
-246,234	-89,326	-0,043	0,009
-245,219	-39,449	-0,089	0,034
-244,205	123,070	0,082	0,075
-243,190	-21,117	-0,091	-0,041
-242,176	275,044	0,055	-0,072
-241,161	732,524	0,062	0,122
-240,146	-65,543	0,064	-0,019
-239,132	-91,962	0,034	-0,007
-238,117	710,429	-0,008	0,016
-237,103	800,000	-0,005	0,014
-236,088	-109,350	-0,040	0,006
-235,073	181,858	0,080	-0,086
-234,059	57,940	0,051	0,036
-233,044	157,866	0,032	-0,032
-232,030	-200,000	-0,007	-0,105
-231,015	92,844	-0,042	0,035
-230,000	193,056	-0,062	-0,068
-228,986	-27,179	-0,071	-0,030
-227,971	-104,193	0,053	-0,009
-226,957	23,455	0,090	0,054
-225,942	-200,000	-0,020	0,085
-224,927	49,097	-0,095	-0,065
-223,913	-200,000	0,003	-0,071
-222,898	-200,000	0,012	-0,069
-221,884	-107,515	0,030	-0,005
-220,869	8,342	0,125	-0,069
-219,855	-38,858	-0,159	0,061
-218,840	800,000	-0,050	0,106
-217,825	109,422	-0,011	0,010
-216,811	-161,411	-0,085	-0,003
-215,796	-130,471	0,016	-0,002
-214,782	800,000	-0,036	-0,098
-213,767	-200,000	-0,001	-0,022
-212,752	274,915	-0,061	0,079
-211,738	-200,000	-0,003	-0,028
-210,723	105,256	0,031	-0,027
-209,709	14,618	-0,076	0,043
-208,694	-200,000	0,008	-0,058
-207,679	375,504	0,053	0,079
-206,665	800,000	0,032	-0,084
-205,650	277,355	-0,026	0,034
-204,636	85,900	0,098	0,079
-203,621	17,274	0,085	-0,049
-202,606	-200,000	0,034	0,146
-201,592	-30,676	-0,055	0,022
-200,577	60,495	-0,064	-0,046
-199,563	270,800	0,011	-0,014
-198,548	-200,000	-0,009	0,180
-197,533	-3,613	0,035	0,018
-196,519	800,000	0,039	-0,094
-195,504	800,000	0,070	0,158
-194,490	-149,727	0,111	-0,006
-193,475	-200,000	-0,007	0,027
-192,460	130,859	0,088	0,083
-191,446	800,000	-0,033	-0,089
-190,431	116,164	0,154	0,138
-189,417	132,080	-0,057	0,053
-188,402	318,175	-0,018	-0,025
-187,387	-155,472	-0,079	-0,004
-186,373	800,000	0,060	-0,162
-185,358	800,000	0,037	0,109
-184,344	256,670	0,063	0,079
-183,329	110,050	0,048	0,042
-182,315	-200,000	-0,014	0,061
-181,300	-200,000	0,018	-0,079
-180,285	800,000	0,045	0,138
-179,271	131,107	0,182	0,171
-178,256	354,405	0,035	-0,051
-177,242	491,203	0,039	0,066
-176,227	-172,014	0,084	0,002
-175,212	139,078	-0,091	0,088
-174,198	28,935	-0,067	0,041
-173,183	-74,887	-0,020	0,005
-172,169	167,274	-0,054	0,056
-171,154	-30,857	0,127	0,052
-170,139	-200,000	-0,004	-0,042
-169,125	413,943	-0,035	-0,054
-168,110	-200,000	0,020	0,255
-167,096	-200,000	0,024	0,168
-166,081	-68,991	-0,032	0,009
-165,066	-160,520	-0,068	0,003
-164,052	800,000	0,026	0,074
-163,037	167,043	-0,044	0,045
-162,023	-157,297	-0,077	0,003
-161,008	800,000	-0,052	0,111
-159,993	-80,540	0,076	0,018
-158,979	2,005	-0,112	-0,059
-157,964	-200,000	-0,002	0,107
-156,950	-8,209	-0,046	-0,022
-155,935	-200,000	-0,017	-0,078
-154,920	800,000	0,052	-0,148
-153,906	-56,370	0,040	-0,013
-152,891	800,000	-0,005	0,011
-151,877	-200,000	-0,014	-0,069
-150,862	-200,000	-0,013	0,090
-149,847	123,018	-0,066	-0,060
-148,833	121,302	-0,068	-0,062
-147,818	-67,437	0,153	-0,044
-146,804	-103,627	0,029	-0,005
-145,789	117,192	0,103	0,092
-144,775	-124,538	0,131	-0,015
-143,760	-57,821	-0,080	-0,025
-142,745	379,100	0,058	0,087
-141,731	-89,954	0,047	-0,010
-140,716	488,884	-0,041	0,068
-139,702	-132,392	-0,064	0,006
-138,687	351,509	0,032	0,046
-137,672	-200,000	0,000	0,052
-136,658	-78,313	-0,091	0,022
-135,643	-44,838	0,024	0,009
-134,629	-118,629	-0,110	0,014
-133,614	525,827	0,068	0,117
-132,599	-74,883	0,151	-0,039
-131,585	-200,000	-0,003	0,089
-130,570	-89,265	-0,098	0,021
-129,556	-137,836	0,120	-0,010
-128,541	-166,125	-0,100	-0,003
-127,526	62,690	-0,107	-0,077
-126,512	-78,729	-0,092	0,023
-125,497	800,000	-0,038	-0,100
-124,483	-33,544	-0,047	-0,019
-123,468	-0,312	-0,011	0,005
-122,453	800,000	-0,028	-0,069
-121,439	-200,000	0,010	-0,112
-120,424	-200,000	0,002	-0,110
-119,410	92,442	0,126	0,103
-118,395	155,507	0,038	-0,038
-117,380	247,217	0,064	0,079
-116,366	-200,000	0,009	-0,035
-115,351	-200,000	-0,016	0,052
-114,337	134,318	-0,070	-0,066
-113,322	384,229	0,047	0,070
-112,307	15,391	-0,016	0,009
-111,293	-200,000	-0,007	-0,039
-110,278	6,375	0,089	-0,048
-109,264	-50,221	-0,022	-0,008
-108,249	-200,000	-0,001	-0,065
-107,234	800,000	-0,046	-0,133
-106,220	-68,697	-0,114	-0,032
-105,205	192,259	0,021	-0,023
-104,191	-123,558	-0,124	0,014
-103,176	-200,000	0,024	0,197
-102,162	-123,199	-0,068	-0,008
-101,147	-30,030	0,115	-0,047
-100,132	-20,440	-0,043	0,019
-99,118	-147,196	0,027	-0,002
-98,103	570,124	0,030	-0,053
-97,089	44,113	0,069	0,046
-96,074	-200,000	-0,020	-0,070
-95,059	-147,567	-0,011	-0,001
-94,045	-82,403	-0,061	-0,014
-93,030	-200,000	0,008	-0,049
-92,016	800,000	-0,047	-0,131
-91,001	-200,000	-0,014	0,088
-89,986	-200,000	-0,007	0,106
-88,972	-71,434	-0,112	-0,030
-87,957	70,085	-0,091	-0,068
-86,943	-200,000	0,004	0,055
-85,928	-7,852	-0,155	-0,076
-84,913	200,613	0,093	0,104
-83,899	-23,963	0,132	-0,057
-82,884	800,000	0,057	-0,126
-81,870	-200,000	-0,016	0,099
-80,855	190,994	0,048	0,052
-79,840	-200,000	-0,003	0,022
-78,826	-200,000	-0,001	-0,066
-77,811	-49,568	-0,069	0,024
-76,797	8,522	-0,029	0,016
-75,782	800,000	0,053	0,135
-74,767	-174,550	0,011	-0,000
-73,753	310,979	0,024	0,033
-72,738	-28,435	-0,036	-0,015
-71,724	19,029	-0,071	-0,041
-70,709	-74,039	0,041	-0,011
-69,694	85,040	0,047	-0,037
-68,680	63,341	0,043	-0,031
-67,665	-20,621	0,070	0,031
-66,651	3,026	-0,027	0,014
-65,636	55,029	-0,157	-0,110
-64,622	-200,000	0,029	-0,134
-63,607	-18,978	-0,083	-0,037
-62,592	-200,000	0,016	-0,139
-61,578	-200,000	0,008	-0,089
-60,563	-32,988	-0,019	-0,008
-59,549	-86,774	0,115	-0,025
-58,534	-102,827	-1,287	-0,220
-57,519	800,000	-0,785	-1,588
-56,505	-200,000	-0,888	-4,457
-55,490	82,358	0,493	-0,388
-54,476	800,000	4,948	11,993
-53,461	-200,000	13,456	253,247
-52,446	-200,000	688,865	2267,925
-51,432	595,462	1622,909	2926,044
-50,417	120,698	1636,286	1475,576
-49,403	73,595	1290,117	979,352
-48,388	38,364	1025,147	661,251
-47,373	24,544	982,372	588,209
-46,359	23,694	972,279	579,352
-45,344	22,778	968,056	573,818
-44,330	22,738	966,535	572,764
-43,315	22,553	965,169	571,331
-42,300	22,531	964,252	570,692
-41,286	22,612	963,096	570,247
-40,271	22,569	962,279	569,602
-39,257	22,615	961,188	569,085
-38,242	22,535	960,489	568,388
-37,227	22,600	959,398	567,931
-36,213	22,588	958,583	567,386
-35,198	22,470	957,991	566,633
-34,184	22,541	957,450	566,519
-33,169	22,525	956,297	565,762
-32,154	22,596	955,377	565,426
-31,140	22,567	954,539	564,813
-30,125	22,590	953,628	564,327
-29,111	22,632	952,854	563,979
-28,096	22,642	952,171	563,584
-27,082	22,589	951,685	563,105
-26,067	22,601	950,773	562,581
-25,052	22,593	949,961	562,052
-24,038	22,621	949,461	561,826
-23,023	22,562	948,829	561,239
-22,009	22,666	948,073	561,102
-20,994	22,639	947,400	560,595
-19,979	22,667	946,878	560,354
-18,965	22,690	946,104	559,947
-17,950	22,634	945,622	559,460
-16,936	22,555	944,893	558,756
-15,921	22,502	944,365	558,251
-14,906	22,567	943,331	557,825
-13,892	22,504	942,937	557,372
-12,877	22,480	942,250	556,867
-11,863	22,473	941,586	556,429
-10,848	22,504	941,143	556,245
-9,833	22,587	940,598	556,161
-8,819	22,579	940,057	555,795
-7,804	22,553	939,242	555,209
-6,790	22,517	938,600	554,695
-5,775	22,509	938,063	554,330
-4,760	22,557	937,437	554,090
-3,746	22,534	936,749	553,589
-2,731	22,400	936,134	552,778
-1,717	22,284	935,580	552,065
-0,702	22,343	934,651	551,680
0,313	22,091	934,227	551,469
1,327	25,145	932,191	559,824
2,342	34,807	796,917	504,339
3,356	32,710	452,149	282,961
4,371	1,837	293,666	152,997
5,386	-2,550	274,602	138,903
6,400	-4,074	268,825	134,555
7,415	-4,713	266,546	132,815
8,429	-4,250	265,201	132,557
9,444	-4,014	264,220	132,269
10,459	-4,304	263,714	131,741
11,473	-4,281	262,985	131,385
12,488	-4,434	262,551	131,019
13,502	-4,602	262,131	130,645
14,517	-4,567	261,734	130,468
15,531	-4,487	261,153	130,238
16,546	-4,398	260,930	130,196
17,561	-4,360	260,504	130,006
18,575	-4,324	260,346	129,947
19,590	-4,356	259,938	129,704
20,604	-4,357	259,713	129,579
21,619	-4,413	259,310	129,316
22,634	-4,472	259,171	129,182
23,648	-4,451	258,603	128,906
24,663	-4,430	258,501	128,863
25,677	-4,477	258,238	128,679
26,692	-4,598	258,133	128,508
27,707	-4,521	257,701	128,349
28,721	-4,285	257,288	128,341
29,736	-4,536	257,232	128,079
30,750	-4,541	256,963	127,930
31,765	-4,435	256,705	127,883
32,780	-4,543	256,458	127,653
33,794	-4,514	256,421	127,649
34,809	-4,392	255,919	127,495
35,823	-4,299	255,746	127,480
36,838	-4,525	255,481	127,138
37,853	-4,482	255,272	127,060
38,867	-4,503	255,016	126,903
39,882	-4,623	254,740	126,649
40,896	-4,657	254,569	126,523
41,911	-4,419	254,338	126,606
42,926	-4,510	254,157	126,425
43,940	-4,394	253,870	126,372
44,955	-4,514	253,594	126,118
45,969	-4,715	253,438	125,854
46,984	-4,957	253,229	125,528
47,999	-5,095	252,990	125,278
49,013	-5,219	252,687	125,009
50,028	-5,291	252,434	124,811
51,042	-5,359	252,145	124,598
52,057	-5,343	251,920	124,489
53,071	-5,297	251,860	124,488
54,086	-5,278	251,760	124,444
55,101	-5,180	251,524	124,402
56,115	-4,965	251,357	124,493
57,130	-4,571	251,283	124,786
58,144	-4,280	251,096	124,933
59,159	-4,195	250,820	124,858
60,174	-4,216	250,614	124,726
61,188	-4,308	250,515	124,587
62,203	-4,392	250,415	124,453
63,217	-4,351	250,118	124,330
64,232	-4,433	249,849	124,115
65,247	-4,324	249,661	124,104
66,261	-4,422	249,432	123,895
67,276	-4,447	249,055	123,676
68,290	-4,653	248,917	123,420
69,305	-4,878	248,642	123,080
70,320	-5,027	248,546	122,895
71,334	-4,441	248,426	123,323
72,349	-4,278	248,178	123,329
73,363	-4,354	248,093	123,211
74,378	-4,235	247,773	123,142
75,393	-4,275	247,712	123,067
76,407	-4,361	247,449	122,852
77,422	-4,333	247,200	122,741
78,436	-4,468	247,142	122,588
79,451	-4,307	246,819	122,552
80,466	-4,422	246,548	122,310
81,480	-4,753	246,291	121,891
82,495	-4,632	246,131	121,903
83,509	-4,797	246,071	121,724
84,524	-4,770	245,858	121,630
85,539	-4,788	245,535	121,445
86,553	-4,760	245,332	121,357
87,568	-4,830	245,420	121,331
88,582	-4,586	245,072	121,353
89,597	-4,681	244,781	121,119
90,611	-4,548	244,700	121,179
91,626	-4,379	244,546	121,233
92,641	-4,311	244,506	121,260
93,655	-4,574	244,138	120,846
94,670	-4,619	243,960	120,710
95,684	-4,525	243,752	120,674
96,699	-4,553	243,579	120,555
97,714	-4,608	243,502	120,460
98,728	-4,831	243,417	120,221
99,743	-4,779	242,956	120,027
100,757	-4,809	242,759	119,893
101,772	-4,866	242,692	119,802
102,787	-4,654	242,473	119,859
103,801	-4,714	242,376	119,751
104,816	-4,562	242,288	119,823
105,830	-4,359	242,005	119,840
106,845	-4,360	241,847	119,750
107,860	-4,589	241,677	119,467
108,874	-4,665	241,494	119,303
109,889	-4,684	241,249	119,155
110,903	-4,788	241,142	119,006
111,918	-4,567	240,880	119,048
112,933	-4,553	240,614	118,917
113,947	-4,537	240,681	118,953
114,962	-4,451	240,409	118,878
115,976	-4,336	240,209	118,864
116,991	-4,678	240,087	118,512
118,006	-4,436	239,868	118,592
119,020	-4,514	239,841	118,504
120,035	-4,517	239,598	118,371
121,049	-4,451	239,553	118,392
122,064	-4,449	239,365	118,290
123,079	-4,506	239,055	118,080
124,093	-4,553	238,878	117,944
125,108	-4,906	238,729	117,572
126,122	-4,906	238,432	117,415
127,137	-4,985	238,390	117,319
128,151	-4,864	238,043	117,236
129,166	-4,572	237,927	117,406
130,181	-4,803	237,773	117,133
131,195	-4,945	237,493	116,869
132,210	-4,683	237,452	117,051
133,224	-4,597	237,331	117,050
134,239	-4,486	237,163	117,047
135,254	-4,570	236,918	116,848
136,268	-4,682	236,755	116,666
137,283	-4,909	236,624	116,408
138,297	-4,950	236,345	116,227
139,312	-4,911	236,139	116,146
140,327	-4,655	235,947	116,248
141,341	-4,248	236,012	116,598
142,356	-4,051	235,994	116,737
143,370	-4,121	235,689	116,519
144,385	-4,071	235,667	116,538
145,400	-4,049	235,305	116,366
146,414	-4,201	235,173	116,169
147,429	-4,209	234,980	116,057
148,443	-4,366	234,816	115,840
149,458	-4,243	234,855	115,947
150,473	-4,082	234,543	115,911
151,487	-4,263	234,418	115,694
152,502	-4,363	234,242	115,518
153,516	-4,307	233,991	115,428
154,531	-4,244	233,983	115,464
155,546	-4,080	233,660	115,425
156,560	-4,268	233,573	115,222
157,575	-4,337	233,403	115,073
158,589	-4,428	233,127	114,854
159,604	-4,229	233,069	114,974
160,619	-4,268	232,830	114,815
161,633	-4,184	232,732	114,822
162,648	-4,137	232,676	114,822
163,662	-4,233	232,460	114,629
164,677	-4,325	232,253	114,444
165,692	-4,212	232,136	114,466
166,706	-4,321	232,018	114,311
167,721	-4,129	231,774	114,332
168,735	-3,996	231,688	114,384
169,750	-4,035	231,470	114,235
170,764	-4,318	231,463	113,999
171,779	-4,129	231,171	113,994
172,794	-3,992	231,052	114,032
173,808	-4,208	230,676	113,668
174,823	-4,691	230,526	113,205
175,837	-4,841	230,341	112,987
176,852	-4,485	230,393	113,281
177,867	-4,316	230,417	113,415
178,881	-4,166	230,112	113,372
179,896	-4,048	229,940	113,370
180,910	-4,067	229,730	113,241
181,925	-4,195	229,808	113,169
182,940	-3,922	229,494	113,218
183,954	-4,162	229,352	112,950
184,969	-4,102	229,295	112,959
185,983	-4,034	229,090	112,900
186,998	-4,170	228,886	112,684
188,013	-3,913	228,762	112,813
189,027	-3,791	228,519	112,778
190,042	-3,868	228,436	112,667
191,056	-3,725	228,213	112,657
192,071	-4,064	228,155	112,357
193,086	-3,964	228,084	112,389
194,100	-3,788	227,801	112,375
195,115	-4,230	227,505	111,879
196,129	-4,916	227,259	111,218
197,144	-1,714	228,269	114,182
198,159	2,476	229,335	117,957
199,173	4,003	229,518	119,224
200,188	4,164	229,554	119,357
201,202	4,127	229,344	119,209
202,217	4,628	229,271	119,548
203,232	4,511	229,384	119,505
204,246	4,733	229,047	119,491
205,261	4,583	229,125	119,404
206,275	4,892	228,887	119,508
207,290	4,667	228,860	119,310
208,304	4,749	228,730	119,295
209,319	4,664	228,478	119,087
210,334	4,653	228,209	118,928
211,348	4,444	227,940	118,617
212,363	4,141	227,736	118,267
213,377	3,879	227,451	117,907
214,392	3,961	227,321	117,893
215,407	3,812	227,312	117,763
216,421	4,109	227,151	117,897
217,436	3,840	226,894	117,547
218,450	3,880	226,596	117,413
219,465	3,604	226,515	117,150
220,480	3,711	226,440	117,182
221,494	3,468	226,270	116,899
222,509	3,749	226,255	117,095
223,523	3,756	226,114	117,017
224,538	3,684	225,834	116,807
225,553	3,972	225,745	116,969
226,567	3,912	225,703	116,891
227,582	4,161	225,478	116,953
228,596	4,474	225,416	117,148
229,611	3,945	225,192	116,620
230,626	3,739	224,977	116,343
231,640	3,826	224,721	116,266
232,655	4,064	224,845	116,499
233,669	4,296	224,862	116,673
234,684	4,723	224,601	116,850
235,699	4,406	224,348	116,469
236,713	4,133	224,220	116,186
237,728	4,021	223,856	115,903
238,742	3,847	223,802	115,734
239,757	4,022	223,650	115,777
240,772	4,041	223,475	115,690
241,786	3,754	223,500	115,476
242,801	4,121	223,287	115,632
243,815	4,443	223,354	115,898
244,830	4,470	223,050	115,750
245,844	4,039	222,832	115,304
246,859	4,033	222,718	115,230
247,874	4,148	222,567	115,228
248,888	4,472	222,407	115,377
249,903	4,259	222,332	115,169
250,917	3,935	222,162	114,828
251,932	3,845	222,068	114,702
252,947	3,815	221,832	114,547
253,961	3,888	221,618	114,481
254,976	3,905	221,398	114,370
255,990	4,136	221,465	114,566
257,005	4,020	221,321	114,396
258,020	4,017	221,309	114,377
259,034	4,129	221,220	114,404
260,049	4,150	221,033	114,313
261,063	4,172	220,770	114,183
262,078	4,179	220,746	114,165
263,093	4,425	220,534	114,228
264,107	4,081	220,436	113,912
265,122	4,324	220,271	113,996
266,136	4,451	220,151	114,018
267,151	4,635	219,910	114,018
268,166	4,035	219,720	113,468
269,180	3,674	219,443	113,048
270,195	3,671	219,349	112,988
271,209	3,751	219,296	113,010
272,224	3,781	219,197	112,970
273,239	3,744	219,192	112,930
274,253	4,005	218,834	112,927
275,268	3,576	218,719	112,543
276,282	3,728	218,453	112,508
277,297	3,616	218,429	112,404
278,312	3,724	218,258	112,385
279,326	3,998	218,157	112,523
280,341	3,762	218,036	112,277
281,355	4,011	217,874	112,366
282,370	4,144	217,648	112,337
283,384	3,845	217,529	112,047
284,399	3,493	217,302	111,664
285,414	3,629	217,233	111,717
286,428	3,830	217,129	111,800
287,443	3,877	217,072	111,796
288,457	3,943	216,981	111,787
289,472	4,021	216,739	111,709
290,487	3,599	216,451	111,244
291,501	3,377	216,259	110,975
292,516	3,692	216,216	111,170
293,530	3,715	216,154	111,146
294,545	3,665	215,860	110,949
295,560	3,753	215,858	111,001
296,574	3,993	215,713	111,090
297,589	3,810	215,678	110,930
298,603	4,060	215,583	111,052
299,618	3,956	215,333	110,838
300,633	3,978	215,190	110,770
301,647	4,212	215,164	110,915
302,662	4,233	214,968	110,820
303,676	4,175	214,957	110,763
304,691	4,085	214,756	110,584
305,706	4,237	214,568	110,587
306,720	4,131	214,378	110,403
307,735	3,956	214,311	110,233
308,749	3,996	214,139	110,163
309,764	3,904	214,096	110,066
310,779	4,201	213,874	110,154
311,793	4,191	213,740	110,068
312,808	3,862	213,645	109,775
313,822	4,143	213,391	109,835
314,837	3,887	213,268	109,579
315,852	3,715	213,114	109,368
316,866	4,029	212,874	109,458
317,881	4,167	212,909	109,564
318,895	4,224	212,733	109,505
319,910	3,947	212,697	109,279
320,925	3,581	212,426	108,871
321,939	3,389	212,215	108,617
322,954	3,436	212,295	108,681
323,968	3,933	212,143	108,946
324,983	3,962	211,962	108,864
325,997	3,937	211,971	108,841
327,012	3,812	211,729	108,619
328,027	4,028	211,579	108,685
329,041	4,490	211,526	108,974
330,056	4,309	211,534	108,841
331,070	3,790	211,202	108,295
332,085	3,732	210,902	108,090
333,100	3,816	210,797	108,086
334,114	4,288	210,600	108,306
335,129	3,776	210,603	107,939
336,143	3,759	210,462	107,845
337,158	3,662	210,369	107,720
338,173	3,914	210,158	107,779
339,187	3,852	210,075	107,683
340,202	3,714	209,747	107,409
341,216	3,602	209,657	107,275
342,231	3,706	209,438	107,226
343,246	3,727	209,420	107,222
344,260	3,784	209,280	107,180
345,275	3,857	209,288	107,225
346,289	3,952	209,191	107,233
347,304	4,048	209,108	107,248
348,319	4,080	208,724	107,063
349,333	3,825	208,862	106,947
350,348	3,988	208,700	106,968
351,362	4,130	208,452	106,929
352,377	4,069	208,427	106,865
353,392	3,899	208,228	106,635
354,406	3,998	208,187	106,674
355,421	192,920	1346,466	1431,668
356,435	153,878	1485,255	1431,794
