DTS Sentinel unit serial number:	SN410029Multiplexer serial number:	ORYXHardware model number:	OX2-SRSoftware version number:	ORYX F/W v4,00 Oryx Data Collector v3.7.2.0data status	okinstallation	B6 Nyhavnadifferential loss correction	single-endedforward channel	channel 2reverse channel	N/Adate	2023/12/10time	08:25:08forward acquisition time	300,00reverse acquisition time	0,00gamma	499,1914k internal	0,3123k external	0,3123temperature offset calibration	1,0000default loss term (dB/km)	0,3820temperature slope calibration	1,0000multiplexer offset coefficient	1,0000multiplexer slope coefficient	1,0000fibre end	0,00T internal ref (°C)	22,57T ext. ref 1 (°C)	6,33T ext. ref 2 (°C)	6,32length (m)	temperature (°C)	Stokes	anti-Stokes-744,400	195,904	-0,068	-0,077
-743,385	-146,967	-0,139	-0,009
-742,371	31,747	0,058	-0,037
-741,356	-34,768	-0,159	0,064
-740,342	117,879	-0,101	-0,093
-739,327	-83,368	-0,234	0,056
-738,312	-200,000	-0,014	-0,048
-737,298	-133,104	-0,297	-0,028
-736,283	-32,110	0,015	-0,006
-735,269	-86,353	-0,118	0,027
-734,254	-200,000	0,006	0,055
-733,239	-60,123	-0,444	-0,140
-732,225	800,000	-0,007	-0,020
-731,210	250,522	0,047	0,060
-730,196	-200,000	-0,006	-0,048
-729,181	-66,350	0,106	0,031
-728,167	-200,000	0,018	0,059
-727,152	-113,908	0,102	0,015
-726,137	-63,253	-0,073	0,022
-725,123	-200,000	0,001	0,069
-724,108	800,000	0,020	-0,045
-723,094	175,846	-0,092	-0,100
-722,079	800,000	-0,040	-0,087
-721,064	752,018	-0,026	-0,053
-720,050	-200,000	-0,011	-0,050
-719,035	-145,464	-0,177	0,012
-718,021	-48,633	-0,110	-0,039
-717,006	2,835	-0,107	0,057
-715,991	68,229	-0,140	0,106
-714,977	25,371	-0,085	-0,052
-713,962	-14,273	0,117	-0,056
-712,948	424,300	-0,044	-0,071
-711,933	303,535	0,012	-0,016
-710,918	-200,000	-0,003	0,132
-709,904	-168,475	-0,121	-0,003
-708,889	-200,000	0,009	0,057
-707,875	-71,231	-0,133	0,037
-706,860	-78,226	0,051	0,013
-705,845	154,511	0,110	-0,112
-704,831	43,987	-0,056	-0,038
-703,816	15,366	-0,032	-0,019
-702,802	-11,257	-0,059	0,029
-701,787	27,811	0,038	-0,024
-700,772	29,320	-0,095	0,060
-699,758	-161,986	0,139	-0,005
-698,743	-130,073	0,106	-0,011
-697,729	-149,988	-0,080	-0,005
-696,714	800,000	-0,065	0,171
-695,699	-140,781	-0,073	-0,006
-694,685	215,689	0,067	-0,080
-693,670	-200,000	-0,037	0,192
-692,656	118,424	0,077	0,070
-691,641	0,386	0,116	-0,061
-690,627	240,561	0,032	0,040
-689,612	647,045	0,072	0,137
-688,597	-57,882	0,058	0,019
-687,583	-200,000	0,004	-0,039
-686,568	381,300	0,049	-0,075
-685,554	800,000	-0,051	-0,125
-684,539	728,356	-0,071	0,141
-683,524	-200,000	0,000	0,061
-682,510	-168,908	-0,119	-0,003
-681,495	591,421	-0,012	-0,022
-680,481	800,000	-0,063	-0,144
-679,466	233,683	-0,050	-0,062
-678,451	-200,000	-0,017	-0,132
-677,437	-32,871	-0,153	0,063
-676,422	-87,068	-0,067	-0,015
-675,408	-200,000	-0,010	0,069
-674,393	-69,434	0,085	0,024
-673,378	390,681	-0,043	-0,067
-672,364	800,000	-0,014	0,034
-671,349	-125,931	-0,093	0,010
-670,335	-200,000	0,017	-0,065
-669,320	-4,341	-0,194	-0,100
-668,305	408,580	-0,020	0,032
-667,291	-32,141	-0,066	0,027
-666,276	-200,000	0,021	-0,088
-665,262	81,243	-0,077	0,061
-664,247	800,000	0,065	-0,146
-663,232	86,615	-0,035	0,028
-662,218	-109,166	-0,076	-0,012
-661,203	-107,910	0,101	0,016
-660,189	670,585	-0,041	0,079
-659,174	-200,000	0,008	0,038
-658,159	-200,000	-0,047	-0,161
-657,145	616,115	-0,058	-0,109
-656,130	276,401	-0,083	0,110
-655,116	174,000	-0,074	0,080
-654,101	60,989	0,088	-0,065
-653,086	148,791	0,050	-0,051
-652,072	596,302	0,055	-0,102
-651,057	184,635	0,022	0,024
-650,043	-56,854	-0,009	0,003
-649,028	-147,782	0,023	-0,001
-648,014	115,304	-0,015	0,014
-646,999	-200,000	-0,036	0,140
-645,984	-41,635	-0,125	-0,047
-644,970	-55,009	-0,050	-0,017
-643,955	-170,853	-0,064	0,002
-642,941	564,269	-0,066	-0,119
-641,926	-153,869	-0,116	0,006
-640,911	164,941	0,065	0,069
-639,897	-200,000	0,022	-0,087
-638,882	-200,000	0,019	0,063
-637,868	-4,822	-0,173	-0,088
-636,853	468,908	0,034	0,058
-635,838	365,646	-0,025	-0,038
-634,824	-200,000	-0,005	0,029
-633,809	800,000	0,008	-0,018
-632,795	-200,000	-0,004	-0,095
-631,780	517,104	-0,017	-0,030
-630,765	-200,000	0,000	-0,036
-629,751	-200,000	-0,014	-0,058
-628,736	173,599	-0,070	-0,075
-627,722	-120,659	-0,037	-0,005
-626,707	94,742	0,052	-0,044
-625,692	591,621	0,077	0,141
-624,678	252,742	-0,024	0,031
-623,663	356,283	0,019	0,028
-622,649	-200,000	0,001	0,151
-621,634	-200,000	-0,020	-0,162
-620,619	-200,000	-0,023	-0,075
-619,605	-200,000	0,004	0,066
-618,590	-84,731	-0,135	0,031
-617,576	-0,519	-0,109	-0,057
-616,561	89,675	-0,100	0,083
-615,546	-200,000	0,005	-0,086
-614,532	800,000	-0,032	-0,089
-613,517	-96,793	-0,242	0,047
-612,503	800,000	0,060	-0,124
-611,488	322,212	0,038	0,054
-610,474	33,746	0,083	0,054
-609,459	67,846	0,078	0,059
-608,444	-5,553	-0,099	-0,050
-607,430	-135,037	-0,082	-0,007
-606,415	205,477	0,104	0,120
-605,401	-112,027	0,059	0,009
-604,386	-57,863	-0,048	-0,016
-603,371	260,694	0,057	-0,073
-602,357	-105,829	-0,047	0,008
-601,342	167,249	-0,057	-0,060
-600,328	800,000	-0,054	-0,112
-599,313	287,318	0,077	-0,104
-598,298	147,596	-0,083	-0,083
-597,284	-46,724	-0,033	-0,012
-596,269	298,068	-0,050	-0,069
-595,255	73,221	-0,090	0,069
-594,240	-82,897	-0,117	-0,028
-593,225	-41,919	-0,112	0,042
-592,211	-194,198	0,134	-0,001
-591,196	165,604	0,056	-0,059
-590,182	40,885	-0,047	-0,031
-589,167	167,546	-0,097	0,103
-588,152	447,981	0,052	0,085
-587,138	20,867	0,093	0,056
-586,123	-200,000	-0,075	-0,285
-585,109	-200,000	-0,009	-0,051
-584,094	161,367	0,103	-0,107
-583,079	-200,000	-0,020	0,151
-582,065	800,000	-0,040	0,123
-581,050	34,267	0,089	0,058
-580,036	-144,422	-0,063	0,004
-579,021	-157,979	-0,159	-0,007
-578,006	-200,000	0,030	-0,143
-576,992	800,000	-0,013	-0,042
-575,977	-136,431	0,106	-0,009
-574,963	-200,000	-0,011	-0,045
-573,948	800,000	-0,016	-0,036
-572,934	-110,219	-0,101	0,015
-571,919	69,418	-0,074	0,056
-570,904	-74,802	-0,157	-0,041
-569,890	143,545	0,047	-0,046
-568,875	-200,000	0,003	0,047
-567,861	-133,516	-0,074	0,007
-566,846	-200,000	-0,007	0,068
-565,831	37,049	-0,073	-0,048
-564,817	-42,131	-0,084	0,032
-563,802	-200,000	0,022	0,138
-562,788	-200,000	-0,046	-0,184
-561,773	26,242	0,005	-0,003
-560,758	12,815	-0,086	-0,049
-559,744	800,000	0,032	-0,092
-558,729	800,000	-0,010	-0,022
-557,715	80,866	-0,010	0,008
-556,700	-13,304	-0,072	-0,034
-555,685	96,616	0,046	-0,039
-554,671	-200,000	0,002	-0,102
-553,656	12,651	0,165	0,094
-552,642	6,502	0,090	-0,049
-551,627	-95,842	-0,155	-0,030
-550,612	-200,000	-0,007	0,031
-549,598	-11,020	-0,065	-0,032
-548,583	101,480	0,020	-0,017
-547,569	-200,000	-0,034	-0,121
-546,554	335,220	0,062	0,089
-545,539	-53,345	-0,038	-0,013
-544,525	272,690	0,064	-0,084
-543,510	125,105	0,040	-0,037
-542,496	-200,000	-0,032	-0,122
-541,481	-57,599	-0,087	0,028
-540,466	-88,350	0,034	0,007
-539,452	766,606	-0,026	0,053
-538,437	800,000	0,031	0,100
-537,423	71,188	0,059	-0,045
-536,408	-200,000	0,007	-0,058
-535,393	205,246	-0,037	0,042
-534,379	72,544	0,010	0,008
-533,364	-200,000	-0,006	-0,079
-532,350	165,985	0,043	0,045
-531,335	-109,752	-0,086	0,013
-530,321	-53,833	0,108	0,036
-529,306	713,223	0,020	-0,039
-528,291	-200,000	-0,041	-0,166
-527,277	453,001	-0,081	-0,134
-526,262	712,119	-0,070	-0,138
-525,248	-200,000	0,024	-0,122
-524,233	258,054	0,044	-0,057
-523,218	13,783	-0,024	-0,014
-522,204	-42,972	-0,149	-0,056
-521,189	-200,000	-0,005	0,055
-520,175	-148,801	0,056	0,003
-519,160	234,119	-0,038	0,046
-518,145	-200,000	0,006	0,035
-517,131	87,542	0,108	0,088
-516,116	467,997	0,032	-0,054
-515,102	-85,719	-0,122	-0,028
-514,087	-6,366	0,012	-0,006
-513,072	800,000	-0,013	0,038
-512,058	800,000	-0,074	0,152
-511,043	-8,341	0,084	-0,041
-510,029	223,457	-0,032	0,038
-509,014	-37,094	0,099	0,039
-507,999	-88,747	-0,043	-0,009
-506,985	142,265	-0,054	-0,052
-505,970	206,842	-0,064	-0,074
-504,956	-200,000	0,006	-0,114
-503,941	-200,000	0,017	0,065
-502,926	-40,078	-0,064	-0,024
-501,912	-98,161	0,139	0,026
-500,897	-12,490	0,068	0,032
-499,883	-124,690	-0,085	0,010
-498,868	21,604	-0,151	-0,091
-497,853	-200,000	0,028	-0,094
-496,839	462,298	0,029	-0,048
-495,824	-15,626	0,025	0,012
-494,810	-200,000	0,006	-0,029
-493,795	-200,000	0,016	0,075
-492,781	-12,299	0,123	-0,059
-491,766	30,868	0,064	-0,040
-490,751	-200,000	0,007	-0,101
-489,737	194,503	0,036	-0,040
-488,722	77,021	-0,102	0,080
-487,708	-52,981	0,175	0,059
-486,693	77,033	0,013	-0,010
-485,678	-200,000	0,004	0,060
-484,664	-135,657	0,050	0,004
-483,649	23,763	0,021	-0,013
-482,635	800,000	0,034	-0,094
-481,620	-41,588	0,027	0,010
-480,605	-9,636	-0,018	-0,009
-479,591	-94,659	-0,070	-0,014
-478,576	128,562	-0,122	-0,115
-477,562	-49,887	0,094	-0,033
-476,547	442,121	0,048	-0,078
-475,532	413,168	-0,030	0,048
-474,518	118,262	0,078	-0,071
-473,503	800,000	0,065	0,136
-472,489	358,249	0,063	-0,093
-471,474	353,405	0,063	-0,093
-470,459	-74,445	0,031	-0,008
-469,445	800,000	-0,010	0,028
-468,430	78,416	0,044	-0,034
-467,416	29,395	-0,088	-0,055
-466,401	-200,000	-0,007	-0,041
-465,386	23,921	0,136	-0,083
-464,372	175,436	-0,114	0,122
-463,357	120,956	-0,119	0,109
-462,343	-101,753	-0,127	0,023
-461,328	20,579	-0,087	-0,052
-460,313	-109,738	0,108	-0,017
-459,299	-200,000	-0,027	-0,095
-458,284	687,828	0,059	-0,114
-457,270	0,571	0,091	0,048
-456,255	774,790	-0,040	0,081
-455,241	173,425	0,068	-0,072
-454,226	800,000	-0,026	-0,082
-453,211	-105,091	-0,087	-0,015
-452,197	-200,000	0,012	0,063
-451,182	-200,000	0,014	0,121
-450,168	-88,504	0,063	-0,014
-449,153	-37,094	-0,088	0,035
-448,138	-111,543	-0,064	-0,009
-447,124	181,089	0,031	-0,034
-446,109	-16,833	-0,061	0,028
-445,095	58,611	0,104	0,075
-444,080	-102,273	0,083	-0,015
-443,065	-200,000	0,056	0,205
-442,051	-52,877	0,127	0,043
-441,036	203,398	-0,129	0,147
-440,022	247,308	-0,035	0,044
-439,007	226,303	-0,116	-0,139
-437,992	133,491	0,065	0,062
-436,978	53,622	0,075	0,053
-435,963	-148,671	0,058	0,003
-434,949	242,036	0,071	0,088
-433,934	20,231	0,030	0,018
-432,919	-200,000	-0,003	0,017
-431,905	551,800	0,063	0,112
-430,890	264,707	0,118	0,152
-429,876	114,732	0,082	0,073
-428,861	77,868	0,049	0,038
-427,846	1,713	-0,074	-0,039
-426,832	120,568	-0,043	-0,039
-425,817	303,068	0,059	-0,081
-424,803	800,000	-0,067	-0,140
-423,788	17,945	0,059	0,034
-422,773	800,000	-0,011	0,030
-421,759	800,000	-0,044	0,127
-420,744	6,926	-0,046	0,025
-419,730	43,759	-0,133	-0,089
-418,715	-200,000	-0,021	-0,165
-417,701	45,901	0,102	0,069
-416,686	310,387	-0,033	-0,046
-415,671	-200,000	0,056	0,192
-414,657	-85,786	0,066	0,015
-413,642	-200,000	0,033	0,129
-412,628	66,778	-0,030	0,023
-411,613	-72,242	0,134	-0,036
-410,598	-136,720	0,120	0,010
-409,584	800,000	-0,019	-0,039
-408,569	-200,000	-0,007	0,120
-407,555	-14,173	0,102	-0,048
-406,540	-200,000	-0,013	-0,081
-405,525	351,072	-0,065	-0,095
-404,511	-88,547	-0,035	0,008
-403,496	-200,000	0,029	0,101
-402,482	400,500	0,021	0,033
-401,467	-59,827	0,221	0,069
-400,452	415,887	-0,018	0,028
-399,438	647,413	-0,061	0,115
-398,423	-25,948	0,042	-0,018
-397,409	800,000	-0,023	-0,068
-396,394	-31,634	-0,092	-0,038
-395,379	356,895	-0,031	-0,046
-394,365	-200,000	0,005	-0,095
-393,350	128,264	0,064	-0,060
-392,336	-88,420	-0,079	0,017
-391,321	800,000	-0,034	0,098
-390,306	18,426	-0,023	-0,014
-389,292	800,000	-0,030	-0,076
-388,277	89,073	-0,121	-0,099
-387,263	24,631	-0,087	0,053
-386,248	-72,380	0,140	0,038
-385,233	37,702	0,085	0,055
-384,219	-85,678	-0,049	0,011
-383,204	-67,705	-0,081	0,023
-382,190	800,000	-0,017	-0,043
-381,175	-200,000	0,002	-0,027
-380,160	-200,000	0,007	-0,032
-379,146	673,214	-0,061	0,117
-378,131	-32,869	0,092	0,038
-377,117	-110,791	0,048	-0,007
-376,102	-182,885	-0,074	0,001
-375,088	-200,000	0,012	-0,112
-374,073	-200,000	-0,003	-0,070
-373,058	56,830	0,073	0,052
-372,044	84,163	0,137	0,110
-371,029	-47,831	0,072	0,025
-370,015	327,834	-0,057	0,080
-369,000	-170,264	-0,063	0,002
-367,985	800,000	-0,049	-0,148
-366,971	-168,860	-0,099	0,003
-365,956	-200,000	-0,021	0,117
-364,942	-200,000	-0,019	-0,078
-363,927	-56,338	-0,070	-0,023
-362,912	-92,752	-0,146	-0,030
-361,898	-200,000	-0,038	-0,136
-360,883	99,112	-0,165	-0,140
-359,869	174,364	0,014	0,014
-358,854	-164,565	0,070	-0,002
-357,839	800,000	-0,009	0,028
-356,825	-200,000	-0,013	-0,161
-355,810	-200,000	-0,044	0,207
-354,796	800,000	0,053	0,139
-353,781	-21,293	-0,106	-0,047
-352,766	-177,428	0,100	-0,002
-351,752	800,000	0,053	0,134
-350,737	800,000	-0,066	0,139
-349,723	-171,655	0,163	0,004
-348,708	142,708	0,053	-0,051
-347,693	-55,747	-0,113	-0,037
-346,679	-74,092	-0,113	-0,030
-345,664	-200,000	0,014	-0,230
-344,650	-200,000	-0,014	0,048
-343,635	31,502	0,106	0,067
-342,620	-159,159	0,083	-0,003
-341,606	696,573	-0,056	-0,108
-340,591	43,706	0,068	0,046
-339,577	-31,220	-0,088	-0,036
-338,562	604,438	-0,012	-0,022
-337,548	362,618	0,041	-0,061
-336,533	-38,558	-0,064	0,025
-335,518	800,000	-0,009	0,028
-334,504	21,927	-0,034	-0,021
-333,489	-200,000	0,004	-0,026
-332,475	582,877	-0,042	-0,077
-331,460	-200,000	-0,003	-0,034
-330,445	-146,556	-0,109	-0,007
-329,431	-200,000	0,056	0,183
-328,416	-151,980	0,149	0,008
-327,402	-101,495	0,116	0,020
-326,387	800,000	0,025	-0,064
-325,372	76,268	0,114	-0,088
-324,358	800,000	0,059	-0,121
-323,343	-78,881	0,086	0,021
-322,329	-200,000	0,007	0,128
-321,314	-166,607	0,087	-0,003
-320,299	-104,188	0,094	-0,016
-319,285	800,000	-0,011	0,031
-318,270	42,081	0,047	0,031
-317,256	207,512	0,044	0,051
-316,241	-25,713	-0,116	0,050
-315,226	-200,000	-0,009	0,055
-314,212	-148,119	0,167	-0,010
-313,197	800,000	-0,017	0,041
-312,183	-200,000	0,002	0,116
-311,168	-118,715	-0,037	-0,005
-310,153	50,313	-0,038	0,026
-309,139	-57,635	0,172	0,055
-308,124	800,000	-0,084	0,210
-307,110	-29,417	0,206	0,086
-306,095	-200,000	0,032	0,139
-305,080	800,000	0,054	0,162
-304,066	-200,000	-0,006	0,103
-303,051	-145,020	-0,095	0,006
-302,037	-110,555	-0,066	-0,010
-301,022	-111,028	0,030	0,005
-300,008	800,000	-0,017	0,046
-298,993	-200,000	-0,003	-0,017
-297,978	-151,765	-0,025	-0,001
-296,964	-200,000	-0,031	0,101
-295,949	800,000	0,058	0,123
-294,935	-114,120	-0,076	0,011
-293,920	-131,783	-0,068	0,006
-292,905	394,292	0,077	0,118
-291,891	-200,000	0,004	0,075
-290,876	89,671	0,085	0,069
-289,862	-115,728	-0,069	-0,009
-288,847	61,737	-0,116	-0,084
-287,832	-200,000	0,044	-0,239
-286,818	89,490	0,090	0,073
-285,803	59,724	0,081	-0,058
-284,789	91,055	-0,039	0,032
-283,774	85,327	0,078	0,062
-282,759	-200,000	0,028	-0,140
-281,745	-174,097	-0,107	0,002
-280,730	13,916	-0,132	-0,075
-279,716	590,767	0,036	-0,065
-278,701	-126,088	0,049	0,005
-277,686	-104,215	0,079	0,013
-276,672	91,081	0,139	0,114
-275,657	-119,126	-0,059	-0,007
-274,643	19,166	0,030	0,018
-273,628	-200,000	0,003	0,050
-272,613	163,490	0,032	0,033
-271,599	-69,346	0,145	0,040
-270,584	-39,422	-0,058	0,022
-269,570	-200,000	0,011	0,062
-268,555	-113,645	0,121	0,017
-267,540	52,957	-0,024	0,017
-266,526	-200,000	-0,013	0,059
-265,511	-89,745	0,058	0,012
-264,497	800,000	0,027	0,059
-263,482	83,387	0,126	0,100
-262,467	-90,376	0,067	0,014
-261,453	-49,737	-0,105	0,036
-260,438	98,335	0,067	0,057
-259,424	112,389	-0,090	-0,079
-258,409	769,888	0,036	-0,073
-257,395	111,979	0,065	-0,057
-256,380	-200,000	0,015	0,095
-255,365	800,000	0,043	0,107
-254,351	51,619	0,078	0,054
-253,336	675,688	-0,035	0,067
-252,322	-200,000	-0,017	0,159
-251,307	89,948	-0,098	-0,080
-250,292	-200,000	0,019	0,201
-249,278	-81,821	-0,078	0,019
-248,263	-11,099	-0,084	0,040
-247,249	-200,000	0,009	0,073
-246,234	-200,000	-0,016	0,073
-245,219	800,000	0,045	-0,114
-244,205	800,000	-0,006	-0,018
-243,190	186,079	0,008	0,009
-242,176	185,013	-0,040	-0,044
-241,161	-68,598	0,075	0,021
-240,146	-200,000	-0,018	-0,070
-239,132	-200,000	0,004	-0,056
-238,117	-200,000	0,005	-0,202
-237,103	177,371	-0,065	-0,069
-236,088	163,244	-0,078	-0,080
-235,073	-200,000	0,024	0,087
-234,059	-69,071	-0,121	-0,034
-233,044	-146,973	0,048	0,003
-232,030	-143,999	-0,067	-0,005
-231,015	-200,000	-0,013	0,072
-230,000	800,000	0,023	-0,048
-228,986	35,572	-0,088	0,057
-227,971	0,030	0,148	0,077
-226,957	62,969	0,065	0,048
-225,942	-81,983	0,121	0,029
-224,927	-37,205	0,038	-0,015
-223,913	-5,422	0,125	-0,062
-222,898	547,139	-0,032	-0,056
-221,884	173,920	0,107	-0,113
-220,869	-200,000	0,001	0,006
-219,855	158,030	-0,042	-0,042
-218,840	-200,000	-0,021	0,112
-217,825	679,880	0,030	0,057
-216,811	-77,839	0,078	0,020
-215,796	800,000	0,029	-0,074
-214,782	800,000	0,043	0,108
-213,767	-200,000	0,005	-0,025
-212,752	800,000	0,075	0,160
-211,738	-167,791	-0,054	-0,002
-210,723	-84,930	-0,085	-0,019
-209,709	800,000	-0,031	0,066
-208,694	-68,317	0,055	0,016
-207,679	-27,524	0,045	0,019
-206,665	88,348	0,016	0,013
-205,650	-15,926	-0,046	-0,021
-204,636	436,186	0,134	0,214
-203,621	62,532	-0,039	-0,029
-202,606	215,899	0,075	-0,087
-201,592	279,731	-0,060	-0,078
-200,577	17,026	0,105	-0,061
-199,563	800,000	-0,016	0,050
-198,548	-200,000	-0,008	-0,054
-197,533	-200,000	0,010	0,137
-196,519	151,952	-0,128	0,127
-195,504	800,000	-0,028	-0,069
-194,490	-33,234	-0,075	-0,030
-193,475	800,000	-0,063	-0,150
-192,460	384,683	-0,051	0,077
-191,446	-200,000	-0,020	0,197
-190,431	773,945	-0,025	0,049
-189,417	16,513	-0,029	0,016
-188,402	800,000	0,018	0,053
-187,387	288,489	-0,015	-0,019
-186,373	-40,453	-0,064	0,024
-185,358	-200,000	0,031	-0,165
-184,344	179,318	0,056	0,060
-183,329	264,668	0,026	0,033
-182,315	-200,000	0,021	-0,088
-181,300	-200,000	-0,004	-0,173
-180,285	-30,110	0,039	0,016
-179,271	-200,000	-0,023	0,086
-178,256	800,000	0,055	-0,140
-177,242	-93,609	0,114	0,023
-176,227	-141,009	-0,094	-0,007
-175,212	-184,603	0,021	-0,000
-174,198	38,757	-0,006	0,004
-173,183	800,000	-0,019	-0,050
-172,169	-8,534	-0,055	-0,027
-171,154	-125,320	0,078	0,009
-170,139	-200,000	0,006	0,135
-169,125	-22,573	0,099	0,044
-168,110	-126,633	-0,031	-0,003
-167,096	800,000	0,048	0,117
-166,081	-200,000	-0,013	-0,061
-165,066	-200,000	0,016	-0,105
-164,052	-200,000	-0,005	-0,028
-163,037	448,575	-0,063	-0,101
-162,023	-61,094	-0,083	-0,025
-161,008	296,806	-0,050	-0,067
-159,993	33,942	0,129	-0,082
-158,979	-200,000	-0,029	-0,117
-157,964	458,491	-0,104	-0,169
-156,950	81,681	-0,087	-0,069
-155,935	-200,000	-0,006	-0,030
-154,920	800,000	0,034	0,102
-153,906	-102,351	-0,022	-0,004
-152,891	-134,412	-0,058	-0,005
-151,877	800,000	-0,029	-0,090
-150,862	-109,677	0,112	0,017
-149,847	90,724	-0,127	0,104
-148,833	-149,112	-0,064	-0,004
-147,818	800,000	0,070	0,152
-146,804	195,371	0,101	0,112
-145,789	6,436	0,063	-0,034
-144,775	800,000	0,033	0,074
-143,760	-128,256	-0,116	0,012
-142,745	-95,251	-0,035	-0,007
-141,731	-125,438	0,064	-0,007
-140,716	-200,000	0,003	-0,059
-139,702	103,850	-0,058	0,050
-138,687	800,000	0,074	-0,191
-137,672	-8,480	0,011	-0,005
-136,658	800,000	-0,034	-0,094
-135,643	-200,000	-0,016	-0,068
-134,629	800,000	-0,028	-0,062
-133,614	102,260	-0,054	0,046
-132,599	-200,000	0,022	0,103
-131,585	112,666	0,078	-0,069
-130,570	27,155	-0,065	-0,039
-129,556	5,104	0,105	-0,056
-128,541	-121,132	-0,093	-0,011
-127,526	-156,336	0,194	-0,009
-126,512	69,670	0,070	0,052
-125,497	-105,950	0,085	0,014
-124,483	800,000	-0,013	0,034
-123,468	800,000	-0,034	-0,070
-122,453	365,538	-0,099	-0,146
-121,439	-21,197	0,078	0,035
-120,424	800,000	0,040	-0,120
-119,410	800,000	0,024	-0,050
-118,395	-196,515	0,199	0,001
-117,380	-200,000	0,016	0,164
-116,366	59,687	-0,026	0,019
-115,351	800,000	0,044	0,137
-114,337	-19,640	-0,085	0,038
-113,322	-2,029	-0,096	-0,049
-112,307	268,571	0,062	-0,079
-111,293	-200,000	0,026	0,094
-110,278	-35,162	0,154	-0,061
-109,264	-200,000	0,007	0,060
-108,249	-64,269	0,061	0,018
-107,234	-37,978	-0,141	-0,054
-106,220	-2,427	-0,071	-0,036
-105,205	225,921	-0,101	0,120
-104,191	99,088	0,159	-0,133
-103,176	18,271	0,068	0,039
-102,162	44,006	-0,014	-0,009
-101,147	34,655	0,075	0,048
-100,132	703,007	-0,016	0,031
-99,118	-89,395	0,145	-0,031
-98,103	337,056	0,094	-0,133
-97,089	800,000	-0,051	-0,116
-96,074	11,239	-0,147	-0,082
-95,059	387,799	0,008	0,012
-94,045	-102,037	-0,082	-0,014
-93,030	800,000	-0,034	-0,078
-92,016	-168,239	0,062	0,002
-91,001	285,467	0,066	-0,086
-89,986	-117,624	-0,100	-0,013
-88,972	82,321	-0,166	-0,130
-87,957	800,000	-0,013	-0,041
-86,943	155,713	0,080	-0,080
-85,928	-200,000	-0,008	-0,043
-84,913	151,125	-0,036	-0,035
-83,899	800,000	-0,009	0,024
-82,884	76,591	-0,076	-0,059
-81,870	713,970	0,055	-0,107
-80,855	5,909	0,084	0,045
-79,840	-200,000	-0,012	-0,113
-78,826	-200,000	0,001	-0,231
-77,811	414,715	-0,066	-0,102
-76,797	-200,000	0,014	0,063
-75,782	401,746	0,007	0,011
-74,767	369,117	-0,065	0,095
-73,753	16,043	0,116	-0,066
-72,738	205,825	-0,028	-0,032
-71,724	-82,383	0,112	0,026
-70,709	114,117	-0,039	-0,034
-69,694	-200,000	-0,012	-0,086
-68,680	405,100	0,081	0,124
-67,665	-2,211	-0,105	-0,054
-66,651	-78,449	0,034	-0,008
-65,636	-6,606	0,046	0,023
-64,622	-96,783	-0,003	-0,001
-63,607	-28,687	-0,104	0,043
-62,592	-200,000	-0,011	0,118
-61,578	152,264	0,038	0,038
-60,563	151,589	0,095	0,094
-59,549	-128,218	-0,243	-0,025
-58,534	-130,293	-1,501	-0,146
-57,519	800,000	-0,741	-1,529
-56,505	-200,000	-0,886	-4,566
-55,490	88,285	0,605	-0,487
-54,476	800,000	4,926	11,676
-53,461	-200,000	13,619	253,040
-52,446	-200,000	688,752	2268,124
-51,432	596,051	1622,849	2927,313
-50,417	120,714	1636,331	1475,815
-49,403	73,576	1290,255	979,458
-48,388	38,423	1024,980	661,400
-47,373	24,510	982,659	588,315
-46,359	23,763	972,455	579,733
-45,344	22,793	968,006	573,887
-44,330	22,729	966,568	572,802
-43,315	22,653	965,161	571,697
-42,300	22,564	964,482	570,983
-41,286	22,629	963,189	570,405
-40,271	22,563	962,386	569,694
-39,257	22,572	961,222	569,009
-38,242	22,522	960,518	568,407
-37,227	22,634	959,495	568,142
-36,213	22,562	958,755	567,451
-35,198	22,464	957,975	566,650
-34,184	22,595	957,248	566,620
-33,169	22,597	956,145	565,950
-32,154	22,648	955,460	565,686
-31,140	22,574	954,625	564,932
-30,125	22,572	953,860	564,451
-29,111	22,579	952,941	563,907
-28,096	22,629	952,229	563,625
-27,082	22,637	951,452	563,169
-26,067	22,579	950,699	562,513
-25,052	22,606	950,073	562,205
-24,038	22,601	949,442	561,794
-23,023	22,650	948,618	561,442
-22,009	22,629	947,998	560,987
-20,994	22,610	947,525	560,622
-19,979	22,668	946,729	560,313
-18,965	22,598	946,296	559,813
-17,950	22,644	945,538	559,490
-16,936	22,512	945,181	558,834
-15,921	22,568	944,301	558,469
-14,906	22,462	943,466	557,617
-13,892	22,489	942,835	557,306
-12,877	22,515	942,242	557,017
-11,863	22,503	941,554	556,550
-10,848	22,463	941,060	556,108
-9,833	22,566	940,631	556,161
-8,819	22,603	939,861	555,802
-7,804	22,449	939,379	555,006
-6,790	22,513	938,757	554,818
-5,775	22,576	938,165	554,647
-4,760	22,478	937,649	554,009
-3,746	22,417	937,058	553,445
-2,731	22,374	936,159	552,757
-1,717	22,292	935,651	552,174
-0,702	22,279	934,849	551,638
0,313	22,166	934,152	551,705
1,327	25,099	932,238	559,753
2,342	34,689	796,880	504,045
3,356	32,799	451,885	282,953
4,371	1,870	293,742	153,082
5,386	-2,528	274,601	138,934
6,400	-4,106	268,743	134,495
7,415	-4,733	266,525	132,797
8,429	-4,331	265,299	132,542
9,444	-4,211	264,312	132,147
10,459	-4,284	263,716	131,771
11,473	-4,350	262,966	131,324
12,488	-4,480	262,575	131,000
13,502	-4,455	261,918	130,683
14,517	-4,301	261,568	130,635
15,531	-4,585	261,304	130,235
16,546	-4,490	260,834	130,076
17,561	-4,408	260,543	129,993
18,575	-4,200	260,076	129,934
19,590	-4,313	259,856	129,712
20,604	-4,383	259,620	129,520
21,619	-4,263	259,152	129,382
22,634	-4,465	258,861	129,045
23,648	-4,435	258,450	128,855
24,663	-4,466	258,430	128,805
25,677	-4,371	258,159	128,744
26,692	-4,540	257,954	128,480
27,707	-4,510	257,629	128,334
28,721	-4,310	257,254	128,313
29,736	-4,586	257,069	127,964
30,750	-4,533	256,858	127,894
31,765	-4,489	256,722	127,854
32,780	-4,456	256,504	127,764
33,794	-4,390	256,077	127,598
34,809	-4,464	255,969	127,467
35,823	-4,611	255,633	127,159
36,838	-4,423	255,308	127,151
37,853	-4,589	255,189	126,935
38,867	-4,602	254,952	126,794
39,882	-4,622	254,852	126,716
40,896	-4,529	254,728	126,725
41,911	-4,530	254,377	126,538
42,926	-4,537	254,028	126,347
43,940	-4,436	253,635	126,228
44,955	-4,759	253,563	125,899
45,969	-4,724	253,358	125,817
46,984	-4,892	253,160	125,562
47,999	-4,881	252,692	125,327
49,013	-5,186	252,607	125,009
50,028	-5,131	252,371	124,928
51,042	-5,284	252,114	124,657
52,057	-5,336	252,023	124,556
53,071	-5,313	251,842	124,476
54,086	-5,053	251,598	124,569
55,101	-4,919	251,443	124,597
56,115	-4,863	251,495	124,660
57,130	-4,314	251,139	124,947
58,144	-4,236	250,967	124,916
59,159	-4,283	250,903	124,833
60,174	-4,402	250,743	124,640
61,188	-4,333	250,596	124,616
62,203	-4,291	250,264	124,475
63,217	-4,470	250,160	124,259
64,232	-4,485	249,811	124,061
65,247	-4,280	249,465	124,054
66,261	-4,552	249,440	123,797
67,276	-4,425	249,100	123,727
68,290	-4,873	248,824	123,195
69,305	-4,962	248,612	123,004
70,320	-4,770	248,413	123,058
71,334	-4,559	248,390	123,216
72,349	-4,679	248,355	123,085
73,363	-4,336	248,103	123,241
74,378	-4,183	247,848	123,233
75,393	-4,306	247,735	123,062
76,407	-4,409	247,432	122,813
77,422	-4,341	247,280	122,784
78,436	-4,321	247,075	122,688
79,451	-4,381	246,885	122,532
80,466	-4,308	246,462	122,373
81,480	-4,534	246,268	122,075
82,495	-4,659	246,102	121,876
83,509	-4,605	245,973	121,847
84,524	-4,618	245,759	121,719
85,539	-4,889	245,549	121,377
86,553	-4,973	245,404	121,223
87,568	-4,742	245,253	121,332
88,582	-4,750	245,121	121,249
89,597	-4,737	244,797	121,088
90,611	-4,531	244,659	121,183
91,626	-4,396	244,572	121,242
92,641	-4,378	244,299	121,111
93,655	-4,681	244,156	120,776
94,670	-4,527	243,878	120,756
95,684	-4,629	243,735	120,589
96,699	-4,774	243,639	120,410
97,714	-4,805	243,455	120,282
98,728	-4,812	243,256	120,168
99,743	-4,723	242,949	120,079
100,757	-4,842	242,929	119,960
101,772	-4,706	242,543	119,871
102,787	-4,651	242,478	119,874
103,801	-4,681	242,294	119,747
104,816	-4,669	242,198	119,699
105,830	-4,599	242,044	119,671
106,845	-4,384	241,777	119,705
107,860	-4,402	241,525	119,556
108,874	-4,801	241,547	119,226
109,889	-4,560	241,088	119,187
110,903	-4,649	241,026	119,073
111,918	-4,688	240,850	118,943
112,933	-4,558	240,709	118,970
113,947	-4,742	240,668	118,788
114,962	-4,386	240,317	118,897
115,976	-4,420	240,173	118,787
116,991	-4,533	240,002	118,599
118,006	-4,533	239,950	118,562
119,020	-4,756	239,764	118,277
120,035	-4,381	239,667	118,526
121,049	-4,260	239,447	118,505
122,064	-4,336	239,301	118,360
123,079	-4,563	239,122	118,076
124,093	-4,475	238,889	118,022
125,108	-4,704	238,620	117,692
126,122	-5,040	238,436	117,317
127,137	-5,006	238,345	117,290
128,151	-4,830	238,156	117,330
129,166	-4,658	237,903	117,334
130,181	-4,785	237,840	117,189
131,195	-4,860	237,469	116,935
132,210	-4,694	237,515	117,082
133,224	-4,393	237,286	117,203
134,239	-4,480	237,170	117,065
135,254	-4,519	237,003	116,940
136,268	-4,387	236,514	116,795
137,283	-4,874	236,467	116,368
138,297	-4,947	236,231	116,183
139,312	-4,971	236,210	116,143
140,327	-4,574	236,028	116,363
141,341	-4,291	235,951	116,542
142,356	-4,344	235,939	116,483
143,370	-4,168	235,763	116,528
144,385	-4,055	235,616	116,536
145,400	-4,136	235,354	116,330
146,414	-4,213	235,205	116,184
147,429	-4,303	235,011	116,006
148,443	-4,293	234,972	115,985
149,458	-4,197	234,612	115,873
150,473	-4,220	234,364	115,722
151,487	-4,290	234,350	115,649
152,502	-4,278	234,084	115,517
153,516	-4,204	234,074	115,560
154,531	-4,287	233,893	115,395
155,546	-4,218	233,596	115,293
156,560	-4,300	233,439	115,140
157,575	-4,394	233,313	114,993
158,589	-4,521	233,129	114,792
159,604	-4,317	232,963	114,861
160,619	-4,221	232,782	114,838
161,633	-4,136	232,668	114,839
162,648	-4,195	232,558	114,728
163,662	-4,179	232,371	114,638
164,677	-4,180	232,180	114,532
165,692	-4,250	232,056	114,405
166,706	-4,296	231,919	114,291
167,721	-3,978	231,746	114,447
168,735	-3,937	231,659	114,426
169,750	-4,084	231,461	114,203
170,764	-4,213	231,366	114,043
171,779	-4,241	231,216	113,938
172,794	-4,026	230,964	113,972
173,808	-4,245	230,835	113,727
174,823	-4,629	230,435	113,218
175,837	-4,677	230,393	113,149
176,852	-4,324	230,223	113,333
177,867	-4,314	230,234	113,336
178,881	-3,959	230,004	113,490
179,896	-4,168	229,927	113,278
180,910	-4,036	229,696	113,258
181,925	-4,126	229,682	113,170
182,940	-4,228	229,510	112,996
183,954	-3,936	229,281	113,101
184,969	-3,861	229,123	113,071
185,983	-4,031	229,128	112,931
186,998	-4,028	228,863	112,793
188,013	-4,008	228,709	112,722
189,027	-3,987	228,592	112,671
190,042	-3,984	228,424	112,581
191,056	-3,960	228,182	112,470
192,071	-4,100	228,248	112,383
193,086	-4,231	228,063	112,182
194,100	-4,214	227,749	112,030
195,115	-4,275	227,485	111,843
196,129	-4,591	227,331	111,513
197,144	-1,798	228,081	114,032
198,159	1,986	229,237	117,536
199,173	3,848	229,677	119,197
200,188	4,173	229,416	119,302
201,202	4,262	229,347	119,325
202,217	4,415	229,361	119,439
203,232	4,662	229,080	119,473
204,246	4,595	229,161	119,453
205,261	4,373	229,043	119,209
206,275	4,670	228,847	119,326
207,290	4,763	228,737	119,329
208,304	4,830	228,494	119,243
209,319	4,897	228,221	119,142
210,334	4,683	228,116	118,913
211,348	4,411	227,928	118,595
212,363	4,174	227,650	118,258
213,377	3,990	227,524	118,041
214,392	3,829	227,343	117,813
215,407	4,050	227,227	117,911
216,421	4,147	227,057	117,886
217,436	4,005	226,847	117,659
218,450	3,839	226,708	117,449
219,465	3,604	226,579	117,192
220,480	3,698	226,396	117,159
221,494	3,723	226,203	117,068
222,509	3,903	226,131	117,157
223,523	4,085	226,057	117,247
224,538	3,741	225,848	116,867
225,553	3,724	225,704	116,769
226,567	3,981	225,638	116,920
227,582	4,293	225,563	117,107
228,596	4,306	225,454	117,050
229,611	4,192	225,157	116,799
230,626	3,638	224,981	116,278
231,640	3,764	224,728	116,232
232,655	3,935	224,700	116,336
233,669	4,533	224,815	116,838
234,684	4,531	224,667	116,749
235,699	4,351	224,406	116,467
236,713	3,928	224,202	116,032
237,728	4,007	223,894	115,922
238,742	3,835	223,774	115,720
239,757	3,796	223,639	115,610
240,772	3,831	223,445	115,526
241,786	3,918	223,333	115,523
242,801	4,050	223,261	115,574
243,815	4,164	223,234	115,635
244,830	4,284	222,944	115,565
245,844	4,286	222,786	115,475
246,859	3,990	222,669	115,182
247,874	4,166	222,566	115,250
248,888	4,009	222,376	115,024
249,903	3,966	222,343	114,965
250,917	4,106	222,205	114,987
251,932	4,094	221,904	114,812
252,947	3,788	221,774	114,507
253,961	3,821	221,650	114,457
254,976	3,979	221,506	114,491
255,990	4,142	221,384	114,539
257,005	3,866	221,381	114,321
258,020	4,052	221,090	114,298
259,034	4,398	221,020	114,510
260,049	4,149	220,878	114,241
261,063	4,182	220,787	114,208
262,078	4,236	220,568	114,124
263,093	4,321	220,483	114,133
264,107	4,233	220,316	113,972
265,122	4,208	220,219	113,893
266,136	4,352	220,124	113,940
267,151	4,572	219,832	113,941
268,166	3,972	219,655	113,397
269,180	3,746	219,408	113,093
270,195	3,919	219,361	113,186
271,209	3,919	218,991	112,985
272,224	3,910	219,236	113,095
273,239	4,069	218,883	113,019
274,253	3,785	218,769	112,742
275,268	3,496	218,616	112,441
276,282	3,688	218,323	112,421
277,297	3,589	218,262	112,307
278,312	3,783	218,120	112,366
279,326	3,777	218,044	112,312
280,341	3,993	217,937	112,405
281,355	4,042	217,911	112,417
282,370	3,770	217,659	112,079
283,384	3,610	217,555	111,899
284,399	3,649	217,294	111,782
285,414	3,676	217,066	111,675
286,428	3,964	217,167	111,927
287,443	4,101	216,934	111,896
288,457	4,126	216,867	111,870
289,472	3,996	216,620	111,638
290,487	3,765	216,268	111,279
291,501	3,412	216,275	111,017
292,516	3,533	216,189	111,051
293,530	3,732	216,121	111,150
294,545	3,637	215,996	111,007
295,560	3,485	215,878	110,827
296,574	3,578	215,667	110,776
297,589	3,888	215,599	110,955
298,603	4,045	215,375	110,943
299,618	4,135	215,230	110,923
300,633	4,063	215,114	110,801
301,647	4,263	215,087	110,922
302,662	4,515	214,842	110,967
303,676	4,183	214,742	110,666
304,691	4,160	214,641	110,588
305,706	4,096	214,451	110,435
306,720	3,956	214,441	110,319
307,735	3,598	214,286	109,973
308,749	3,693	214,118	109,945
309,764	4,018	213,909	110,060
310,779	4,412	213,798	110,275
311,793	4,171	213,749	110,067
312,808	3,994	213,500	109,803
313,822	4,112	213,330	109,790
314,837	4,188	213,129	109,731
315,852	3,724	213,089	109,370
316,866	3,876	212,863	109,353
317,881	4,153	212,876	109,546
318,895	3,963	212,733	109,328
319,910	3,998	212,615	109,283
320,925	3,778	212,256	108,932
321,939	3,373	212,088	108,549
322,954	3,646	211,994	108,685
323,968	3,874	212,019	108,849
324,983	4,034	211,880	108,881
325,997	4,296	211,794	109,013
327,012	4,080	211,690	108,797
328,027	4,061	211,479	108,665
329,041	4,404	211,421	108,868
330,056	4,484	211,293	108,849
331,070	4,016	211,192	108,457
332,085	3,724	210,901	108,093
333,100	3,922	210,690	108,114
334,114	3,978	210,629	108,112
335,129	3,864	210,492	107,952
336,143	3,752	210,406	107,820
337,158	4,002	210,223	107,892
338,173	3,775	210,171	107,697
339,187	3,730	209,929	107,532
340,202	3,573	209,763	107,327
341,216	3,546	209,655	107,244
342,231	3,747	209,583	107,337
343,246	3,634	209,371	107,140
344,260	3,673	209,333	107,139
345,275	3,810	209,196	107,155
346,289	3,945	209,218	107,250
347,304	3,928	209,062	107,149
348,319	3,757	208,866	106,920
349,333	3,915	208,648	106,908
350,348	3,957	208,494	106,850
351,362	4,201	208,479	107,001
352,377	3,959	208,458	106,813
353,392	3,780	208,220	106,558
354,406	4,081	208,041	106,665
355,421	194,391	1346,778	1436,949
356,435	155,100	1485,634	1437,063
