DTS Sentinel unit serial number:	SN410029Multiplexer serial number:	ORYXHardware model number:	OX2-SRSoftware version number:	ORYX F/W v4,00 Oryx Data Collector v3.7.2.0data status	okinstallation	B6 Nyhavnadifferential loss correction	single-endedforward channel	channel 2reverse channel	N/Adate	2023/12/09time	20:25:08forward acquisition time	300,00reverse acquisition time	0,00gamma	499,1914k internal	0,3130k external	0,3130temperature offset calibration	1,0000default loss term (dB/km)	0,3820temperature slope calibration	1,0000multiplexer offset coefficient	1,0000multiplexer slope coefficient	1,0000fibre end	0,00T internal ref (°C)	21,31T ext. ref 1 (°C)	5,39T ext. ref 2 (°C)	5,37length (m)	temperature (°C)	Stokes	anti-Stokes-744,400	65,007	0,143	-0,107
-743,385	151,065	-0,206	0,209
-742,371	800,000	0,033	0,075
-741,356	-151,293	-0,191	0,010
-740,342	151,850	0,033	0,034
-739,327	-5,907	-0,221	0,112
-738,312	-200,000	-0,039	-0,203
-737,298	87,520	-0,259	0,213
-736,283	-200,000	0,025	-0,087
-735,269	-8,739	-0,248	0,123
-734,254	25,612	-0,079	-0,049
-733,239	-114,636	-0,404	-0,057
-732,225	-109,007	0,198	-0,031
-731,210	800,000	0,018	0,048
-730,196	800,000	-0,009	0,024
-729,181	210,199	0,011	0,013
-728,167	-200,000	0,000	-0,050
-727,152	-122,054	-0,189	0,023
-726,137	36,370	-0,031	-0,020
-725,123	32,636	-0,159	0,102
-724,108	800,000	-0,032	-0,079
-723,094	140,724	0,018	-0,018
-722,079	459,584	-0,095	-0,157
-721,064	800,000	-0,006	-0,014
-720,050	800,000	-0,055	-0,165
-719,035	10,774	-0,143	-0,081
-718,021	800,000	-0,032	0,071
-717,006	-38,533	-0,043	-0,017
-715,991	-130,083	0,113	0,011
-714,977	25,082	-0,068	-0,042
-713,962	-200,000	-0,016	-0,088
-712,948	201,383	-0,047	-0,053
-711,933	229,522	0,102	-0,124
-710,918	248,982	-0,100	0,126
-709,904	109,982	-0,069	-0,062
-708,889	308,977	-0,052	-0,073
-707,875	-119,340	-0,161	-0,021
-706,860	-200,000	-0,011	-0,120
-705,845	-62,770	-0,131	-0,040
-704,831	-127,275	-0,091	-0,010
-703,816	436,136	-0,049	0,079
-702,802	-200,000	-0,029	-0,112
-701,787	-15,100	-0,135	-0,064
-700,772	23,439	-0,047	0,028
-699,758	-35,723	0,014	-0,006
-698,743	-161,091	0,024	-0,001
-697,729	-2,577	-0,053	-0,027
-696,714	-200,000	0,023	0,091
-695,699	-94,962	-0,143	-0,028
-694,685	777,161	0,021	-0,043
-693,670	651,897	0,048	-0,093
-692,656	266,993	0,038	0,050
-691,641	-200,000	0,029	-0,108
-690,627	-45,241	-0,081	0,030
-689,612	-88,648	-0,029	-0,006
-688,597	382,230	-0,030	0,045
-687,583	-200,000	-0,005	-0,082
-686,568	-200,000	-0,005	-0,102
-685,554	-200,000	-0,039	-0,155
-684,539	204,851	0,109	-0,126
-683,524	-200,000	0,030	-0,119
-682,510	-86,669	-0,010	-0,002
-681,495	-200,000	-0,009	-0,112
-680,481	121,358	-0,056	-0,051
-679,466	-4,226	0,102	-0,052
-678,451	-135,310	0,072	0,006
-677,437	-105,933	-0,171	-0,028
-676,422	24,153	0,147	0,090
-675,408	-200,000	-0,002	-0,080
-674,393	112,009	0,016	-0,014
-673,378	-52,513	-0,058	0,020
-672,364	-200,000	0,003	-0,192
-671,349	76,174	-0,092	-0,072
-670,335	-72,708	-0,110	-0,030
-669,320	800,000	-0,033	-0,071
-668,305	-200,000	0,022	0,128
-667,291	417,365	-0,009	0,014
-666,276	-74,333	-0,181	-0,048
-665,262	800,000	-0,046	-0,134
-664,247	63,292	0,017	0,012
-663,232	800,000	-0,035	0,094
-662,218	78,777	0,136	0,108
-661,203	796,072	0,099	0,204
-660,189	88,702	-0,028	-0,023
-659,174	-200,000	-0,024	-0,197
-658,159	-125,395	0,089	0,010
-657,145	60,925	-0,094	0,069
-656,130	800,000	-0,020	-0,051
-655,116	-75,212	-0,180	-0,047
-654,101	-88,205	0,199	-0,044
-653,086	-200,000	-0,011	0,040
-652,072	396,188	-0,031	-0,049
-651,057	-64,049	-0,091	-0,027
-650,043	338,626	-0,103	0,149
-649,028	800,000	-0,033	-0,084
-648,014	296,950	0,034	0,047
-646,999	-104,729	-0,115	0,019
-645,984	141,161	-0,106	0,104
-644,970	800,000	-0,037	-0,115
-643,955	-200,000	-0,003	-0,197
-642,941	800,000	-0,032	-0,101
-641,926	280,883	-0,082	0,109
-640,911	-200,000	0,012	0,083
-639,897	-200,000	0,016	0,193
-638,882	-200,000	0,030	-0,114
-637,868	-200,000	-0,003	-0,078
-636,853	-200,000	0,027	-0,134
-635,838	122,738	-0,050	-0,046
-634,824	411,001	0,043	-0,068
-633,809	748,268	0,044	-0,088
-632,795	9,433	-0,062	-0,035
-631,780	219,636	0,051	0,061
-630,765	800,000	0,025	-0,055
-629,751	498,951	-0,072	-0,124
-628,736	-200,000	-0,008	-0,047
-627,722	83,560	0,133	-0,107
-626,707	17,589	-0,026	0,015
-625,692	-44,287	0,049	-0,018
-624,678	19,357	0,096	-0,057
-623,663	97,187	-0,084	-0,072
-622,649	-58,217	-0,053	-0,017
-621,634	-72,734	-0,119	0,032
-620,619	-73,314	-0,114	-0,031
-619,605	119,829	-0,052	-0,048
-618,590	-38,491	-0,054	0,021
-617,576	800,000	0,007	-0,020
-616,561	3,021	-0,155	-0,083
-615,546	591,795	-0,040	-0,073
-614,532	-37,029	-0,072	-0,028
-613,517	255,978	0,042	-0,053
-612,503	245,124	0,024	-0,030
-611,488	-25,030	-0,094	-0,041
-610,474	-54,521	-0,143	-0,048
-609,459	-62,995	-0,099	-0,030
-608,444	-94,568	-0,027	0,005
-607,430	-200,000	-0,027	-0,104
-606,415	-200,000	0,036	0,144
-605,401	-4,529	0,066	-0,034
-604,386	-80,794	-0,085	-0,021
-603,371	-38,727	0,061	0,024
-602,357	268,596	0,047	-0,061
-601,342	-73,909	-0,084	-0,022
-600,328	-200,000	0,027	0,112
-599,313	-200,000	-0,013	0,056
-598,298	215,923	0,042	-0,050
-597,284	-166,365	0,069	0,002
-596,269	745,152	0,016	-0,031
-595,255	47,814	-0,099	0,068
-594,240	-122,154	-0,052	-0,006
-593,225	-200,000	-0,001	-0,075
-592,211	-180,863	-0,086	0,001
-591,196	4,127	-0,081	-0,044
-590,182	82,576	0,016	0,012
-589,167	-200,000	-0,022	0,082
-588,152	24,203	0,151	-0,092
-587,138	-99,564	-0,105	-0,019
-586,123	273,662	-0,053	-0,070
-585,109	30,939	-0,142	-0,090
-584,094	36,469	-0,148	-0,097
-583,079	739,321	0,008	-0,017
-582,065	320,932	-0,049	0,068
-581,050	800,000	-0,050	0,145
-580,036	-126,350	-0,053	-0,006
-579,021	-96,980	-0,090	-0,017
-578,006	800,000	0,034	0,080
-576,992	-62,392	0,138	0,042
-575,977	-62,294	-0,040	-0,012
-574,963	130,543	0,043	0,041
-573,948	-92,942	0,103	0,021
-572,934	-200,000	-0,020	0,098
-571,919	-200,000	-0,007	-0,062
-570,904	-51,788	0,058	-0,020
-569,890	262,631	-0,058	0,075
-568,875	800,000	0,020	0,050
-567,861	-14,672	0,151	0,071
-566,846	96,438	0,085	0,072
-565,831	73,416	-0,034	0,026
-564,817	46,713	-0,074	-0,051
-563,802	611,570	-0,033	0,061
-562,788	-104,190	-0,070	-0,012
-561,773	34,493	0,083	0,054
-560,758	-148,137	-0,071	0,004
-559,744	7,637	0,067	0,037
-558,729	-121,738	0,145	0,017
-557,715	-20,630	-0,059	-0,027
-556,700	-11,798	-0,086	0,042
-555,685	-200,000	0,013	-0,114
-554,671	291,466	-0,017	0,023
-553,656	213,981	0,070	0,081
-552,642	531,935	0,041	-0,071
-551,627	380,286	0,079	-0,120
-550,612	-54,931	-0,073	-0,024
-549,598	-31,220	-0,087	-0,036
-548,583	-200,000	0,007	0,085
-547,569	155,104	0,075	-0,076
-546,554	-200,000	0,013	0,096
-545,539	-200,000	0,001	0,123
-544,525	800,000	-0,052	-0,116
-543,510	-5,746	0,017	0,008
-542,496	-168,225	-0,017	-0,000
-541,481	-200,000	-0,014	0,074
-540,466	532,324	0,027	0,047
-539,452	-200,000	-0,022	0,100
-538,437	216,241	-0,034	0,040
-537,423	-85,375	-0,090	-0,021
-536,408	-115,058	0,065	0,009
-535,393	-8,913	0,040	-0,020
-534,379	-38,333	-0,123	-0,048
-533,364	-33,248	-0,022	0,009
-532,350	149,541	0,101	0,101
-531,335	-200,000	0,021	0,157
-530,321	464,840	0,055	0,091
-529,306	-25,395	0,087	0,038
-528,291	48,310	-0,098	-0,068
-527,277	85,456	-0,096	-0,077
-526,262	-80,240	-0,029	0,007
-525,248	-167,736	0,097	0,003
-524,233	140,097	0,016	0,016
-523,218	-15,613	0,122	-0,057
-522,204	800,000	-0,051	-0,113
-521,189	-200,000	-0,012	-0,098
-520,175	-71,927	-0,075	0,020
-519,160	673,824	-0,041	-0,078
-518,145	-84,038	0,222	0,052
-517,131	800,000	0,035	0,074
-516,116	-200,000	0,009	0,081
-515,102	-200,000	-0,020	0,093
-514,087	-131,421	-0,069	0,007
-513,072	688,260	-0,033	-0,064
-512,058	-200,000	-0,010	-0,049
-511,043	-200,000	-0,002	-0,040
-510,029	800,000	-0,042	-0,112
-509,014	800,000	0,081	0,171
-507,999	-58,392	-0,027	0,008
-506,985	-120,559	-0,110	-0,014
-505,970	87,540	0,039	-0,031
-504,956	38,468	0,090	-0,059
-503,941	-200,000	-0,006	-0,155
-502,926	-75,041	0,017	0,004
-501,912	-200,000	-0,016	0,069
-500,897	-10,074	0,051	-0,025
-499,883	6,681	0,053	-0,029
-498,868	255,996	-0,090	-0,114
-497,853	-127,351	-0,037	-0,004
-496,839	-90,531	0,027	0,006
-495,824	-67,075	0,051	0,015
-494,810	-140,304	-0,140	0,011
-493,795	574,783	0,036	0,065
-492,781	-195,653	-0,028	-0,000
-491,766	-175,419	-0,030	-0,001
-490,751	-88,400	0,030	0,007
-489,737	595,094	0,019	-0,035
-488,722	800,000	0,069	0,187
-487,708	640,303	-0,029	0,055
-486,693	-200,000	0,021	0,174
-485,678	354,461	0,029	-0,043
-484,664	800,000	-0,038	0,122
-483,649	-200,000	0,018	0,087
-482,635	-200,000	0,031	0,104
-481,620	76,630	0,073	0,057
-480,605	-200,000	0,018	0,130
-479,591	-9,644	0,144	0,070
-478,576	-200,000	0,005	-0,129
-477,562	800,000	-0,019	-0,039
-476,547	-200,000	0,004	0,126
-475,532	-200,000	0,003	-0,162
-474,518	-200,000	0,008	0,129
-473,503	-47,751	0,099	-0,035
-472,489	145,965	0,068	-0,067
-471,474	191,785	0,087	0,096
-470,459	-92,250	-0,085	-0,018
-469,445	-200,000	0,027	-0,097
-468,430	339,082	0,099	-0,142
-467,416	225,237	0,045	0,053
-466,401	-27,859	0,104	-0,044
-465,386	413,231	-0,052	0,082
-464,372	130,620	-0,055	-0,052
-463,357	-200,000	-0,006	-0,038
-462,343	53,476	-0,093	0,066
-461,328	-25,951	-0,035	0,015
-460,313	-200,000	0,062	-0,212
-459,299	304,061	-0,046	0,063
-458,284	89,745	0,141	0,116
-457,270	-39,257	-0,020	-0,008
-456,255	266,576	-0,107	-0,137
-455,241	-65,218	0,036	0,011
-454,226	800,000	-0,008	0,020
-453,211	-73,985	0,079	0,021
-452,197	-200,000	-0,022	-0,097
-451,182	800,000	0,060	0,152
-450,168	59,326	-0,107	0,077
-449,153	43,957	-0,045	0,030
-448,138	82,202	-0,161	-0,129
-447,124	-102,264	0,034	0,006
-446,109	-200,000	0,006	-0,061
-445,095	119,685	-0,074	0,067
-444,080	-179,162	0,130	-0,002
-443,065	-200,000	0,000	0,024
-442,051	4,848	-0,143	-0,077
-441,036	-174,595	-0,108	0,002
-440,022	800,000	-0,038	-0,083
-439,007	-15,053	0,032	-0,015
-437,992	698,976	-0,032	0,062
-436,978	-148,354	0,090	0,005
-435,963	-200,000	0,001	0,008
-434,949	800,000	-0,006	0,019
-433,934	-12,354	-0,086	-0,041
-432,919	94,278	-0,103	-0,086
-431,905	-200,000	0,146	0,000
-430,890	397,085	-0,049	0,075
-429,876	318,412	-0,030	0,042
-428,861	-200,000	0,008	-0,031
-427,846	100,590	0,068	-0,058
-426,832	33,079	-0,043	-0,027
-425,817	-157,017	0,127	0,006
-424,803	-180,327	-0,054	0,001
-423,788	-200,000	-0,012	-0,117
-422,773	78,384	0,044	0,034
-421,759	706,157	0,045	0,088
-420,744	132,219	-0,109	0,103
-419,730	-200,000	0,021	-0,072
-418,715	-200,000	0,003	-0,240
-417,701	70,762	-0,093	-0,070
-416,686	-170,024	-0,049	-0,001
-415,671	-200,000	-0,026	-0,091
-414,657	-2,333	-0,043	0,022
-413,642	106,732	-0,158	-0,138
-412,628	-200,000	0,008	-0,072
-411,613	93,067	-0,168	-0,139
-410,598	-200,000	0,006	-0,089
-409,584	-184,733	-0,126	-0,001
-408,569	419,163	0,072	0,114
-407,555	-90,729	0,177	0,037
-406,540	221,364	-0,069	0,081
-405,525	78,527	-0,212	-0,166
-404,511	-11,813	0,047	-0,023
-403,496	11,658	-0,044	-0,025
-402,482	800,000	0,028	0,081
-401,467	50,949	0,085	0,059
-400,452	98,203	0,107	0,091
-399,438	-200,000	0,003	0,079
-398,423	49,372	-0,158	0,109
-397,409	7,362	0,085	0,046
-396,394	-102,748	-0,046	-0,008
-395,379	-200,000	-0,016	0,063
-394,365	-22,309	0,073	0,032
-393,350	-200,000	-0,001	0,069
-392,336	-137,575	0,198	-0,016
-391,321	110,777	-0,112	0,098
-390,306	397,058	0,025	0,038
-389,292	-200,000	0,010	0,037
-388,277	-24,169	0,075	-0,033
-387,263	582,529	-0,061	0,109
-386,248	-200,000	-0,002	-0,144
-385,233	148,575	0,062	-0,061
-384,219	200,639	0,052	0,058
-383,204	359,795	-0,046	0,068
-382,190	29,780	0,065	-0,041
-381,175	6,980	0,097	0,053
-380,160	-86,534	0,122	0,027
-379,146	35,532	-0,100	0,064
-378,131	800,000	0,036	0,091
-377,117	-66,797	0,126	-0,036
-376,102	-200,000	0,042	-0,153
-375,088	299,335	-0,052	-0,071
-374,073	715,404	0,050	0,098
-373,058	-200,000	0,015	-0,057
-372,044	-200,000	0,036	0,125
-371,029	800,000	0,022	0,071
-370,015	-139,357	-0,061	0,005
-369,000	123,486	-0,133	0,122
-367,985	-53,019	-0,081	-0,027
-366,971	0,175	-0,094	-0,049
-365,956	-117,551	0,108	-0,014
-364,942	-200,000	0,009	0,145
-363,927	-200,000	-0,009	0,132
-362,912	800,000	-0,009	-0,019
-361,898	-181,163	0,049	0,001
-360,883	204,085	0,098	0,112
-359,869	354,693	-0,067	-0,098
-358,854	201,133	0,075	-0,085
-357,839	-200,000	0,002	-0,054
-356,825	206,465	0,046	-0,053
-355,810	333,205	0,058	-0,082
-354,796	800,000	0,017	0,037
-353,781	201,501	0,017	-0,020
-352,766	-84,921	-0,167	-0,038
-351,752	247,102	0,019	-0,023
-350,737	-90,384	0,087	0,018
-349,723	304,464	0,049	-0,067
-348,708	-200,000	-0,006	0,036
-347,693	-17,763	-0,048	0,022
-346,679	18,596	0,103	-0,060
-345,664	266,409	-0,045	-0,058
-344,650	-200,000	0,009	-0,087
-343,635	-127,357	0,110	-0,012
-342,620	210,869	-0,015	0,018
-341,606	800,000	0,048	-0,142
-340,591	-129,453	-0,175	-0,018
-339,577	32,222	-0,080	0,050
-338,562	-200,000	-0,035	-0,228
-337,548	281,868	0,082	-0,108
-336,533	-200,000	0,008	-0,065
-335,518	77,911	-0,112	0,087
-334,504	-200,000	-0,031	0,119
-333,489	76,360	-0,040	-0,031
-332,475	471,944	0,050	0,083
-331,460	-115,646	0,093	0,013
-330,445	800,000	-0,050	-0,140
-329,431	-200,000	-0,028	-0,163
-328,416	315,019	-0,041	-0,057
-327,402	-200,000	-0,043	0,228
-326,387	-84,506	-0,009	0,002
-325,372	349,523	0,021	0,030
-324,358	-90,969	-0,090	-0,019
-323,343	-200,000	0,030	0,118
-322,329	3,613	0,093	0,049
-321,314	46,743	-0,102	-0,069
-320,299	600,807	-0,026	0,047
-319,285	800,000	0,014	0,035
-318,270	800,000	-0,031	-0,085
-317,256	475,594	-0,069	-0,114
-316,241	-121,058	0,060	-0,007
-315,226	338,985	0,047	0,067
-314,212	193,472	0,143	0,159
-313,197	343,085	-0,058	0,084
-312,183	185,160	0,092	0,100
-311,168	54,270	0,029	0,020
-310,153	-200,000	-0,010	-0,052
-309,139	486,805	0,033	-0,056
-308,124	415,463	-0,043	0,067
-307,110	-13,491	0,052	0,024
-306,095	-200,000	-0,010	0,126
-305,080	627,493	0,049	0,090
-304,066	3,805	-0,058	0,031
-303,051	-200,000	0,002	-0,115
-302,037	-105,644	-0,052	-0,009
-301,022	11,247	0,103	-0,057
-300,008	-200,000	-0,009	0,117
-298,993	264,914	-0,020	0,025
-297,978	195,756	0,039	0,043
-296,964	800,000	0,037	0,087
-295,949	-46,111	0,055	0,020
-294,935	39,850	0,029	0,019
-293,920	-200,000	-0,010	-0,073
-292,905	-200,000	-0,000	0,217
-291,891	-136,207	-0,098	0,008
-290,876	800,000	0,024	-0,054
-289,862	-109,034	0,050	0,008
-288,847	-200,000	0,002	0,029
-287,832	-13,387	-0,038	0,018
-286,818	162,869	-0,048	0,050
-285,803	70,622	0,012	0,009
-284,789	153,048	-0,065	0,065
-283,774	73,033	0,131	0,100
-282,759	71,761	0,141	-0,107
-281,745	17,014	-0,095	-0,055
-280,730	-116,685	0,149	-0,020
-279,716	800,000	0,029	0,094
-278,701	-119,006	0,057	0,007
-277,686	447,152	0,043	0,069
-276,672	488,135	0,014	0,024
-275,657	-6,101	0,037	0,019
-274,643	355,845	-0,026	-0,038
-273,628	800,000	0,015	0,047
-272,613	-200,000	0,000	-0,048
-271,599	-110,513	0,094	-0,014
-270,584	-200,000	0,020	-0,163
-269,570	185,614	0,006	-0,007
-268,555	-34,777	0,057	0,023
-267,540	54,543	-0,151	-0,106
-266,526	-200,000	-0,013	-0,059
-265,511	800,000	-0,020	0,062
-264,497	340,819	0,018	0,026
-263,482	127,129	0,037	0,035
-262,467	324,246	0,055	-0,076
-261,453	57,620	0,083	0,059
-260,438	430,651	-0,025	0,039
-259,424	335,829	-0,055	-0,078
-258,409	-135,085	-0,087	0,008
-257,395	154,183	-0,025	-0,025
-256,380	73,494	0,110	-0,084
-255,365	56,546	0,024	-0,017
-254,351	-200,000	0,003	0,075
-253,336	78,610	-0,090	-0,070
-252,322	-104,857	-0,039	0,006
-251,307	-162,450	0,139	0,005
-250,292	-54,407	-0,104	-0,034
-249,278	46,339	0,099	-0,067
-248,263	792,451	-0,043	-0,086
-247,249	113,307	-0,104	0,092
-246,234	748,842	0,071	-0,141
-245,219	-3,424	-0,022	0,011
-244,205	800,000	-0,011	0,031
-243,190	26,476	0,149	0,090
-242,176	356,629	0,049	-0,072
-241,161	86,413	0,029	0,024
-240,146	-48,381	-0,049	-0,017
-239,132	-25,101	0,099	-0,043
-238,117	-200,000	0,002	-0,012
-237,103	28,250	-0,020	0,013
-236,088	-200,000	-0,020	-0,075
-235,073	-39,181	0,131	0,050
-234,059	175,815	0,047	0,050
-233,044	67,503	-0,039	-0,029
-232,030	-2,216	-0,056	0,029
-231,015	-17,122	0,144	0,066
-230,000	95,301	-0,085	-0,070
-228,986	-145,925	0,072	-0,005
-227,971	-6,395	0,101	0,050
-226,957	147,374	0,035	-0,034
-225,942	-200,000	0,009	0,160
-224,927	163,323	0,078	0,080
-223,913	-200,000	-0,007	-0,105
-222,898	114,739	0,095	-0,084
-221,884	800,000	0,044	-0,113
-220,869	40,171	-0,108	-0,071
-219,855	19,160	-0,080	-0,047
-218,840	421,238	0,044	0,070
-217,825	158,364	-0,028	-0,028
-216,811	56,472	-0,085	0,060
-215,796	285,767	-0,008	-0,010
-214,782	-94,357	-0,112	0,022
-213,767	-200,000	-0,004	-0,108
-212,752	402,934	0,075	-0,116
-211,738	-11,074	-0,131	-0,063
-210,723	-90,638	-0,123	-0,026
-209,709	-112,890	-0,143	-0,020
-208,694	392,238	-0,074	-0,113
-207,679	800,000	-0,092	-0,201
-206,665	189,266	0,068	0,074
-205,650	-200,000	-0,004	-0,038
-204,636	363,075	-0,052	0,076
-203,621	-63,199	0,092	-0,028
-202,606	-105,306	-0,150	0,025
-201,592	-116,798	-0,037	0,005
-200,577	-200,000	-0,005	0,040
-199,563	800,000	-0,051	0,107
-198,548	53,268	0,055	-0,038
-197,533	-6,935	0,204	0,101
-196,519	-150,328	0,145	-0,008
-195,504	800,000	0,012	0,036
-194,490	169,218	0,019	-0,020
-193,475	175,272	-0,106	0,112
-192,460	99,040	0,040	-0,034
-191,446	-128,057	-0,106	-0,011
-190,431	501,192	0,061	0,103
-189,417	-119,471	0,138	0,017
-188,402	-46,601	0,120	-0,043
-187,387	165,758	-0,138	-0,142
-186,373	229,108	-0,038	-0,045
-185,358	-200,000	-0,023	0,151
-184,344	14,050	-0,082	0,046
-183,329	-129,852	0,106	-0,010
-182,315	-200,000	-0,015	0,179
-181,300	-112,971	-0,069	0,010
-180,285	800,000	0,018	0,058
-179,271	800,000	-0,048	-0,153
-178,256	76,095	0,072	-0,056
-177,242	-200,000	0,049	0,251
-176,227	-47,788	0,135	-0,047
-175,212	463,900	0,023	-0,037
-174,198	-142,036	-0,034	0,002
-173,183	204,261	-0,065	-0,073
-172,169	402,648	-0,048	0,074
-171,154	620,090	-0,041	0,075
-170,139	-200,000	0,010	-0,036
-169,125	485,786	0,048	0,080
-168,110	-40,006	0,057	-0,022
-167,096	-200,000	-0,006	0,102
-166,081	166,379	0,149	-0,153
-165,066	-200,000	0,004	0,015
-164,052	140,979	-0,114	0,109
-163,037	-109,172	-0,052	0,008
-162,023	514,095	0,032	-0,054
-161,008	-28,870	-0,061	0,026
-159,993	151,328	0,107	0,106
-158,979	-85,647	0,097	-0,022
-157,964	-54,671	-0,163	-0,053
-156,950	139,885	0,013	-0,012
-155,935	213,336	0,112	0,128
-154,920	-98,609	-0,036	0,007
-153,906	-200,000	0,016	-0,057
-152,891	336,421	0,067	0,095
-151,877	-72,706	-0,106	0,028
-150,862	65,031	0,019	-0,014
-149,847	-200,000	-0,021	-0,069
-148,833	-200,000	-0,023	0,113
-147,818	-200,000	-0,036	0,149
-146,804	336,197	-0,074	0,105
-145,789	800,000	-0,025	0,052
-144,775	800,000	-0,029	-0,079
-143,760	14,029	0,124	0,070
-142,745	743,270	-0,022	0,043
-141,731	421,062	-0,044	-0,068
-140,716	-136,507	0,051	-0,004
-139,702	-200,000	-0,041	0,176
-138,687	442,800	0,108	0,173
-137,672	189,894	-0,090	0,098
-136,658	-148,138	0,052	0,003
-135,643	800,000	-0,040	0,092
-134,629	710,832	0,040	0,077
-133,614	151,862	0,088	0,087
-132,599	228,798	-0,024	0,029
-131,585	35,032	-0,063	-0,040
-130,570	789,872	0,098	-0,196
-129,556	-200,000	0,003	-0,081
-128,541	-200,000	-0,009	-0,106
-127,526	-38,375	-0,035	-0,013
-126,512	-147,802	0,151	-0,009
-125,497	-58,474	0,049	-0,015
-124,483	-200,000	0,013	-0,090
-123,468	307,132	-0,070	-0,095
-122,453	560,310	0,069	-0,121
-121,439	-132,588	-0,043	0,004
-120,424	-200,000	-0,020	0,074
-119,410	211,602	0,037	-0,043
-118,395	9,616	-0,080	0,044
-117,380	800,000	-0,020	-0,050
-116,366	191,776	-0,042	0,046
-115,351	84,380	-0,044	-0,035
-114,337	157,895	-0,066	0,067
-113,322	-66,228	0,016	0,004
-112,307	641,917	0,046	0,086
-111,293	-133,396	-0,026	-0,002
-110,278	-200,000	0,002	-0,025
-109,264	53,784	0,067	0,047
-108,249	30,411	-0,069	-0,043
-107,234	800,000	0,042	-0,088
-106,220	-200,000	-0,009	0,112
-105,205	175,981	0,070	-0,074
-104,191	317,569	0,022	-0,030
-103,176	250,364	0,094	0,116
-102,162	-200,000	0,014	-0,227
-101,147	-200,000	0,006	-0,050
-100,132	-200,000	-0,027	-0,120
-99,118	-200,000	-0,015	-0,099
-98,103	800,000	-0,038	-0,095
-97,089	800,000	0,070	0,191
-96,074	98,908	-0,036	0,030
-95,059	240,896	0,036	-0,043
-94,045	130,005	0,078	0,073
-93,030	800,000	-0,037	0,105
-92,016	225,248	0,061	-0,071
-91,001	-34,874	-0,141	-0,056
-89,986	258,863	0,142	0,178
-88,972	28,153	-0,146	-0,089
-87,957	92,412	0,045	-0,037
-86,943	-52,573	0,123	0,041
-85,928	114,335	-0,018	0,016
-84,913	47,796	-0,029	0,020
-83,899	-200,000	0,013	-0,068
-82,884	-200,000	0,005	-0,030
-81,870	-97,274	0,065	0,012
-80,855	55,619	-0,013	-0,009
-79,840	124,462	0,069	-0,063
-78,826	665,879	-0,035	0,066
-77,811	367,420	-0,031	0,046
-76,797	186,395	0,031	-0,034
-75,782	800,000	0,038	0,112
-74,767	-200,000	0,001	0,042
-73,753	-129,560	0,116	0,011
-72,738	-131,577	0,053	-0,005
-71,724	-200,000	0,002	-0,010
-70,709	-22,005	0,038	0,017
-69,694	-200,000	0,030	0,119
-68,680	-125,906	0,084	0,009
-67,665	-38,061	0,054	-0,021
-66,651	10,265	0,090	0,049
-65,636	-19,109	0,107	0,048
-64,622	-200,000	-0,002	-0,024
-63,607	800,000	0,047	-0,142
-62,592	-200,000	-0,017	-0,180
-61,578	75,074	0,027	-0,020
-60,563	-200,000	-0,011	-0,047
-59,549	84,197	-0,108	-0,086
-58,534	-76,532	-1,440	-0,363
-57,519	561,458	-0,720	-1,265
-56,505	-200,000	-1,031	-4,439
-55,490	-25,642	0,634	-0,270
-54,476	800,000	4,910	11,845
-53,461	-200,000	14,408	256,122
-52,446	-200,000	697,241	2229,484
-51,432	564,052	1624,371	2860,462
-50,417	116,934	1630,866	1449,900
-49,403	73,752	1284,560	973,813
-48,388	37,430	1022,593	655,116
-47,373	23,425	981,422	582,764
-46,359	22,677	970,635	573,886
-45,344	21,597	966,319	567,790
-44,330	21,520	964,931	566,704
-43,315	21,348	963,623	565,353
-42,300	21,389	962,372	564,729
-41,286	21,398	961,486	564,216
-40,271	21,339	960,565	563,462
-39,257	21,359	959,492	562,875
-38,242	21,310	958,679	562,215
-37,227	21,368	957,754	561,839
-36,213	21,262	956,952	561,005
-35,198	21,241	956,215	560,482
-34,184	21,395	955,423	560,493
-33,169	21,296	954,530	559,626
-32,154	21,334	953,605	559,184
-31,140	21,363	952,712	558,732
-30,125	21,378	952,066	558,380
-29,111	21,386	951,056	557,789
-28,096	21,323	950,539	557,264
-27,082	21,376	949,775	556,962
-26,067	21,397	948,989	556,547
-25,052	21,429	948,259	556,200
-24,038	21,348	947,613	555,539
-23,023	21,294	947,129	555,060
-22,009	21,367	946,309	554,792
-20,994	21,423	945,621	554,544
-19,979	21,359	945,169	554,053
-18,965	21,338	944,521	553,586
-17,950	21,367	943,991	553,345
-16,936	21,278	943,381	552,683
-15,921	21,296	942,487	552,193
-14,906	21,239	941,757	551,563
-13,892	21,205	941,349	551,195
-12,877	21,233	940,537	550,787
-11,863	21,158	940,161	550,305
-10,848	21,161	939,564	549,944
-9,833	21,303	938,987	550,035
-8,819	21,327	938,406	549,749
-7,804	21,207	937,981	549,097
-6,790	21,270	937,063	548,737
-5,775	21,281	936,642	548,503
-4,760	21,293	935,836	548,047
-3,746	21,241	935,198	547,488
-2,731	21,104	934,565	546,664
-1,717	21,048	933,873	546,063
-0,702	21,024	933,359	545,665
0,313	20,860	932,367	545,392
1,327	23,965	930,744	554,141
2,342	33,637	793,715	498,217
3,356	31,406	450,692	279,524
4,371	0,652	294,740	152,050
5,386	-3,735	275,679	138,044
6,400	-4,966	269,985	134,036
7,415	-5,238	267,573	132,576
8,429	-5,130	266,422	132,092
9,444	-5,099	265,580	131,692
10,459	-5,213	264,981	131,279
11,473	-5,127	264,400	131,057
12,488	-5,373	263,771	130,510
13,502	-5,561	263,162	130,028
14,517	-5,287	262,804	130,087
15,531	-5,368	262,379	129,791
16,546	-5,452	262,093	129,563
17,561	-5,395	261,575	129,346
18,575	-5,438	261,398	129,209
19,590	-5,613	261,163	128,923
20,604	-5,385	260,776	128,926
21,619	-5,249	260,379	128,840
22,634	-5,509	260,148	128,481
23,648	-5,436	259,843	128,384
24,663	-5,478	259,411	128,122
25,677	-5,282	259,234	128,198
26,692	-5,290	258,958	128,043
27,707	-5,554	258,771	127,704
28,721	-5,548	258,465	127,547
29,736	-5,456	258,198	127,486
30,750	-5,620	257,908	127,185
31,765	-5,562	257,664	127,105
32,780	-5,369	257,460	127,164
33,794	-5,501	257,331	126,972
34,809	-5,674	257,043	126,666
35,823	-5,677	256,831	126,548
36,838	-5,657	256,715	126,497
37,853	-5,685	256,347	126,280
38,867	-5,599	256,023	126,185
39,882	-5,730	256,067	126,080
40,896	-5,641	255,647	125,940
41,911	-5,491	255,425	125,951
42,926	-5,642	255,105	125,650
43,940	-5,874	255,068	125,417
44,955	-5,731	254,756	125,377
45,969	-5,716	254,485	125,246
46,984	-5,886	254,312	125,001
47,999	-6,033	253,972	124,694
49,013	-6,073	253,680	124,505
50,028	-6,100	253,531	124,398
51,042	-6,351	253,314	124,062
52,057	-6,547	253,131	123,790
53,071	-6,288	252,791	123,838
54,086	-6,209	252,606	123,805
55,101	-5,938	252,465	123,960
56,115	-5,891	252,485	123,999
57,130	-5,403	252,116	124,229
58,144	-5,154	252,064	124,407
59,159	-5,288	251,876	124,187
60,174	-5,329	251,747	124,078
61,188	-5,321	251,507	123,955
62,203	-5,324	251,278	123,829
63,217	-5,443	250,961	123,560
64,232	-5,375	250,860	123,557
65,247	-5,543	250,550	123,249
66,261	-5,445	250,554	123,324
67,276	-5,607	250,115	122,958
68,290	-5,835	249,761	122,578
69,305	-5,943	249,748	122,468
70,320	-5,824	249,496	122,436
71,334	-5,663	249,388	122,509
72,349	-5,431	249,251	122,629
73,363	-5,119	248,971	122,747
74,378	-5,345	249,009	122,562
75,393	-5,476	248,548	122,212
76,407	-5,597	248,410	122,030
77,422	-5,623	248,169	121,879
78,436	-5,496	248,063	121,924
79,451	-5,297	247,670	121,889
80,466	-5,539	247,541	121,610
81,480	-5,678	247,221	121,324
82,495	-5,795	247,210	121,208
83,509	-5,625	247,080	121,278
84,524	-5,658	246,738	121,071
85,539	-5,686	246,530	120,935
86,553	-5,895	246,339	120,654
87,568	-5,827	246,160	120,613
88,582	-5,746	245,987	120,585
89,597	-5,908	245,866	120,379
90,611	-5,557	245,622	120,544
91,626	-5,529	245,585	120,538
92,641	-5,482	245,349	120,451
93,655	-5,565	245,090	120,244
94,670	-5,650	244,804	120,022
95,684	-5,496	244,652	120,065
96,699	-5,552	244,508	119,937
97,714	-5,810	244,355	119,636
98,728	-5,665	244,090	119,616
99,743	-5,803	243,979	119,436
100,757	-5,789	243,706	119,304
101,772	-5,720	243,513	119,256
102,787	-5,738	243,315	119,133
103,801	-5,811	243,204	119,008
104,816	-5,434	242,972	119,196
105,830	-5,222	243,047	119,399
106,845	-5,468	242,913	119,118
107,860	-5,377	242,575	119,018
108,874	-5,498	242,456	118,848
109,889	-5,628	242,217	118,613
110,903	-5,559	241,951	118,528
111,918	-5,783	241,864	118,290
112,933	-5,491	241,727	118,454
113,947	-5,474	241,472	118,332
114,962	-5,545	241,395	118,225
115,976	-5,408	241,032	118,150
116,991	-5,425	240,946	118,084
118,006	-5,652	240,666	117,749
119,020	-5,330	240,616	117,979
120,035	-5,430	240,527	117,843
121,049	-5,339	240,388	117,838
122,064	-5,384	240,173	117,686
123,079	-5,424	240,013	117,564
124,093	-5,479	239,677	117,344
125,108	-5,653	239,502	117,106
126,122	-5,971	239,222	116,699
127,137	-5,811	239,149	116,784
128,151	-5,849	239,094	116,716
129,166	-5,578	238,764	116,765
130,181	-5,788	238,584	116,495
131,195	-5,692	238,376	116,462
132,210	-5,800	238,380	116,365
133,224	-5,541	238,194	116,474
134,239	-5,704	238,115	116,292
135,254	-5,511	237,776	116,273
136,268	-5,719	237,620	116,018
137,283	-5,713	237,135	115,776
138,297	-5,879	237,046	115,588
139,312	-5,704	236,948	115,671
140,327	-5,649	237,002	115,731
141,341	-5,171	236,933	116,073
142,356	-5,046	236,604	116,003
143,370	-4,978	236,535	116,013
144,385	-5,105	236,324	115,797
145,400	-5,156	236,235	115,702
146,414	-5,288	236,040	115,490
147,429	-5,293	235,817	115,367
148,443	-5,221	235,579	115,298
149,458	-5,354	235,537	115,161
150,473	-5,027	235,375	115,333
151,487	-5,421	235,254	114,948
152,502	-5,370	234,995	114,852
153,516	-5,124	234,845	114,965
154,531	-5,159	234,657	114,835
155,546	-5,206	234,380	114,651
156,560	-5,571	234,278	114,301
157,575	-5,191	234,025	114,469
158,589	-5,451	233,998	114,239
159,604	-5,223	233,779	114,303
160,619	-5,247	233,710	114,240
161,633	-4,962	233,539	114,372
162,648	-4,960	233,243	114,219
163,662	-5,121	233,073	113,998
164,677	-5,224	232,974	113,858
165,692	-4,956	232,802	113,976
166,706	-5,229	232,743	113,721
167,721	-4,969	232,501	113,798
168,735	-5,188	232,620	113,673
169,750	-5,060	232,354	113,633
170,764	-5,281	232,241	113,393
171,779	-5,304	232,139	113,316
172,794	-5,226	231,852	113,227
173,808	-5,212	231,624	113,117
174,823	-5,790	231,258	112,473
175,837	-5,825	231,161	112,389
176,852	-5,217	231,192	112,871
177,867	-5,297	231,201	112,803
178,881	-5,095	230,921	112,815
179,896	-5,061	230,779	112,762
180,910	-5,106	230,556	112,608
181,925	-4,946	230,410	112,652
182,940	-5,081	230,265	112,465
183,954	-4,998	230,076	112,427
184,969	-4,961	229,936	112,378
185,983	-5,032	229,748	112,220
186,998	-4,802	229,588	112,311
188,013	-4,993	229,491	112,105
189,027	-4,985	229,374	112,045
190,042	-4,886	229,090	111,972
191,056	-4,942	229,135	111,942
192,071	-5,021	228,942	111,776
193,086	-5,002	228,634	111,630
194,100	-4,815	228,606	111,751
195,115	-4,938	228,258	111,476
196,129	-5,513	228,228	111,006
197,144	-2,492	229,209	113,819
198,159	1,935	230,141	117,714
199,173	3,734	230,688	119,383
200,188	4,017	230,766	119,633
201,202	3,870	230,549	119,395
202,217	4,165	230,451	119,563
203,232	4,252	230,280	119,531
204,246	4,433	230,253	119,646
205,261	4,475	230,077	119,577
206,275	4,589	229,879	119,552
207,290	4,699	229,730	119,548
208,304	4,480	229,654	119,328
209,319	4,576	229,402	119,261
210,334	4,593	229,160	119,138
211,348	4,313	228,934	118,794
212,363	3,878	228,754	118,356
213,377	3,576	228,486	117,974
214,392	3,617	228,293	117,895
215,407	3,749	228,251	117,965
216,421	3,746	228,039	117,842
217,436	3,647	227,960	117,715
218,450	3,510	227,739	117,486
219,465	3,505	227,597	117,397
220,480	3,409	227,295	117,158
221,494	3,492	227,286	117,206
222,509	3,510	227,269	117,201
223,523	3,707	226,996	117,200
224,538	3,613	226,790	117,012
225,553	3,770	226,658	117,053
226,567	3,717	226,606	116,975
227,582	3,995	226,613	117,180
228,596	3,939	226,401	117,018
229,611	3,623	226,262	116,695
230,626	3,368	225,923	116,316
231,640	3,597	225,749	116,389
232,655	3,809	225,720	116,525
233,669	4,292	225,705	116,873
234,684	4,600	225,517	116,999
235,699	4,213	225,259	116,562
236,713	4,023	225,149	116,350
237,728	3,966	224,781	116,107
238,742	3,680	224,889	115,937
239,757	3,626	224,549	115,710
240,772	3,544	224,546	115,637
241,786	3,660	224,307	115,590
242,801	3,764	224,388	115,701
243,815	4,171	224,245	115,923
244,830	4,199	223,948	115,780
245,844	3,833	223,709	115,371
246,859	3,942	223,549	115,360
247,874	3,963	223,467	115,324
248,888	3,993	223,280	115,239
249,903	3,649	223,267	114,964
250,917	3,964	223,059	115,083
251,932	3,639	223,011	114,804
252,947	3,483	222,809	114,574
253,961	3,496	222,591	114,461
254,976	3,519	222,593	114,469
255,990	3,699	222,546	114,569
257,005	3,648	222,451	114,472
258,020	3,859	222,195	114,487
259,034	4,196	222,020	114,637
260,049	4,098	221,805	114,443
261,063	4,063	221,637	114,320
262,078	4,126	221,616	114,346
263,093	4,122	221,480	114,263
264,107	4,061	221,285	114,107
265,122	4,209	221,091	114,106
266,136	4,204	221,106	114,100
267,151	4,132	220,987	113,975
268,166	3,894	220,695	113,639
269,180	3,694	220,410	113,334
270,195	3,690	220,272	113,249
271,209	3,637	220,278	113,204
272,224	3,704	220,052	113,127
273,239	4,017	219,799	113,217
274,253	3,637	219,759	112,907
275,268	3,293	219,543	112,533
276,282	3,174	219,311	112,317
277,297	3,522	219,260	112,536
278,312	3,579	219,158	112,516
279,326	3,602	219,127	112,507
280,341	3,925	218,867	112,600
281,355	3,844	218,745	112,467
282,370	3,528	218,702	112,204
283,384	3,663	218,352	112,113
284,399	3,525	218,326	111,989
285,414	3,330	218,164	111,754
286,428	3,783	218,000	111,990
287,443	3,830	218,039	112,034
288,457	3,971	217,788	111,998
289,472	3,824	217,680	111,825
290,487	3,363	217,411	111,342
291,501	3,322	217,145	111,166
292,516	3,249	217,153	111,108
293,530	3,038	217,187	110,962
294,545	3,329	217,044	111,090
295,560	3,471	216,877	111,097
296,574	3,671	216,633	111,107
297,589	3,682	216,575	111,075
298,603	3,896	216,364	111,112
299,618	3,593	216,210	110,805
300,633	3,748	216,223	110,913
301,647	4,002	216,154	111,051
302,662	3,928	215,943	110,879
303,676	3,986	215,793	110,834
304,691	3,933	215,819	110,799
305,706	3,976	215,591	110,704
306,720	3,801	215,321	110,429
307,735	3,528	215,254	110,189
308,749	3,807	214,870	110,183
309,764	3,820	215,004	110,251
310,779	4,039	214,749	110,267
311,793	3,804	214,711	110,069
312,808	3,814	214,523	109,970
313,822	3,793	214,459	109,912
314,837	3,647	214,188	109,660
315,852	3,583	213,990	109,503
316,866	3,823	213,863	109,599
317,881	3,853	213,907	109,634
318,895	3,860	213,651	109,497
319,910	3,676	213,529	109,294
320,925	3,418	213,230	108,948
321,939	3,181	213,159	108,734
322,954	3,372	213,036	108,797
323,968	3,796	213,062	109,102
324,983	3,774	213,064	109,077
325,997	4,099	212,777	109,151
327,012	3,791	212,604	108,834
328,027	3,851	212,447	108,786
329,041	4,071	212,400	108,909
330,056	4,203	212,253	108,916
331,070	3,675	212,089	108,450
332,085	3,472	211,730	108,114
333,100	3,451	211,683	108,065
334,114	3,864	211,643	108,326
335,129	3,781	211,467	108,168
336,143	3,545	211,345	107,930
337,158	3,636	211,087	107,852
338,173	3,824	210,972	107,916
339,187	3,574	210,821	107,654
340,202	3,531	210,709	107,557
341,216	3,675	210,569	107,577
342,231	3,711	210,559	107,587
343,246	3,498	210,369	107,332
344,260	3,663	210,230	107,366
345,275	3,825	210,116	107,412
346,289	3,868	210,020	107,383
347,304	3,758	209,932	107,251
348,319	3,632	209,852	107,114
349,333	3,706	209,508	106,980
350,348	3,807	209,348	106,959
351,362	3,778	209,520	107,017
352,377	4,068	209,276	107,085
353,392	3,810	209,060	106,785
354,406	3,932	208,971	106,815
355,421	194,850	1343,126	1431,562
356,435	155,534	1481,397	1431,663
