DTS Sentinel unit serial number:	SN410029Multiplexer serial number:	ORYXHardware model number:	OX2-SRSoftware version number:	ORYX F/W v4,00 Oryx Data Collector v3.7.2.0data status	okinstallation	B6 Nyhavnadifferential loss correction	single-endedforward channel	channel 2reverse channel	N/Adate	2023/12/09time	22:55:08forward acquisition time	300,00reverse acquisition time	0,00gamma	499,1914k internal	0,3127k external	0,3127temperature offset calibration	1,0000default loss term (dB/km)	0,3820temperature slope calibration	1,0000multiplexer offset coefficient	1,0000multiplexer slope coefficient	1,0000fibre end	0,00T internal ref (°C)	21,69T ext. ref 1 (°C)	5,43T ext. ref 2 (°C)	5,42length (m)	temperature (°C)	Stokes	anti-Stokes-744,400	84,670	-0,019	0,015
-743,385	44,059	-0,221	0,151
-742,371	-124,057	0,168	0,019
-741,356	10,387	-0,206	0,117
-740,342	-85,721	-0,043	0,010
-739,327	175,674	-0,193	0,209
-738,312	-200,000	0,018	-0,070
-737,298	-86,412	-0,290	0,066
-736,283	649,660	0,039	-0,074
-735,269	800,000	-0,038	0,082
-734,254	-133,354	0,081	0,007
-733,239	-54,872	-0,451	-0,151
-732,225	600,987	0,034	0,064
-731,210	362,441	-0,095	0,142
-730,196	-91,388	-0,118	0,025
-729,181	-177,464	-0,131	0,002
-728,167	127,175	-0,068	0,064
-727,152	-200,000	-0,011	-0,057
-726,137	-67,840	-0,042	0,012
-725,123	-200,000	-0,021	-0,081
-724,108	-88,735	-0,077	0,017
-723,094	-84,334	-0,112	0,026
-722,079	-97,572	-0,186	0,036
-721,064	405,324	0,086	-0,136
-720,050	800,000	-0,009	0,023
-719,035	-200,000	0,035	-0,115
-718,021	-200,000	-0,014	-0,082
-717,006	320,662	-0,039	-0,055
-715,991	-134,589	-0,088	-0,008
-714,977	-32,311	-0,142	-0,059
-713,962	-181,597	-0,079	0,001
-712,948	-114,577	0,050	0,007
-711,933	800,000	0,013	0,042
-710,918	-200,000	0,031	0,254
-709,904	800,000	0,026	-0,066
-708,889	-200,000	0,004	-0,116
-707,875	800,000	-0,035	-0,095
-706,860	518,049	0,009	0,015
-705,845	-62,454	-0,119	-0,037
-704,831	-200,000	0,015	-0,053
-703,816	-116,206	-0,057	-0,008
-702,802	56,085	0,062	-0,044
-701,787	-200,000	-0,008	-0,173
-700,772	-48,375	-0,090	0,032
-699,758	22,821	-0,067	0,041
-698,743	83,452	0,101	0,082
-697,729	-200,000	0,036	-0,157
-696,714	123,352	-0,117	-0,109
-695,699	-126,501	-0,218	0,024
-694,685	-200,000	-0,009	-0,147
-693,670	-126,311	-0,178	-0,020
-692,656	800,000	-0,041	-0,090
-691,641	273,432	-0,050	0,066
-690,627	-89,829	0,145	0,031
-689,612	-200,000	-0,003	0,064
-688,597	90,347	0,065	0,054
-687,583	-200,000	-0,025	-0,108
-686,568	78,226	-0,086	0,068
-685,554	72,291	0,074	-0,057
-684,539	-20,639	-0,045	-0,021
-683,524	496,197	-0,020	-0,035
-682,510	-200,000	-0,032	-0,207
-681,495	32,987	-0,087	0,056
-680,481	-26,282	-0,045	0,020
-679,466	-200,000	0,012	-0,159
-678,451	-91,518	-0,020	0,004
-677,437	800,000	0,017	-0,040
-676,422	471,214	0,014	0,024
-675,408	19,131	0,039	0,023
-674,393	-118,247	-0,063	0,008
-673,378	169,758	-0,118	-0,125
-672,364	131,441	-0,035	-0,034
-671,349	-7,796	-0,092	0,046
-670,335	18,222	0,015	0,009
-669,320	800,000	0,032	0,076
-668,305	-167,223	0,124	0,004
-667,291	-113,371	-0,150	-0,022
-666,276	-6,987	-0,163	0,082
-665,262	442,908	-0,061	-0,099
-664,247	-200,000	-0,013	-0,081
-663,232	13,159	-0,133	0,076
-662,218	86,424	0,049	-0,040
-661,203	-129,708	-0,121	-0,012
-660,189	134,943	-0,111	-0,107
-659,174	-77,545	-0,162	-0,041
-658,159	288,715	0,040	0,054
-657,145	79,444	-0,063	-0,050
-656,130	-200,000	-0,001	-0,034
-655,116	-178,692	0,112	0,002
-654,101	-59,432	0,037	-0,012
-653,086	-6,688	-0,041	-0,021
-652,072	188,806	-0,076	-0,084
-651,057	-168,751	-0,090	-0,002
-650,043	-14,196	-0,115	0,055
-649,028	69,997	-0,119	0,091
-648,014	-99,871	0,146	-0,027
-646,999	390,775	-0,027	0,042
-645,984	-200,000	0,018	-0,136
-644,970	24,341	-0,063	0,039
-643,955	-130,742	-0,082	0,008
-642,941	-200,000	-0,007	-0,146
-641,926	8,951	0,029	0,016
-640,911	256,636	0,029	0,038
-639,897	-11,727	-0,046	0,023
-638,882	800,000	-0,022	0,059
-637,868	-200,000	0,000	0,046
-636,853	-4,085	-0,114	-0,058
-635,838	-27,073	-0,141	0,061
-634,824	249,644	0,051	-0,064
-633,809	-160,518	-0,084	-0,003
-632,795	-200,000	0,007	0,034
-631,780	-6,876	-0,030	0,015
-630,765	352,267	0,033	-0,048
-629,751	-200,000	-0,007	-0,051
-628,736	-200,000	0,008	-0,102
-627,722	800,000	0,040	-0,099
-626,707	800,000	-0,023	0,071
-625,692	-200,000	-0,008	0,033
-624,678	-16,079	-0,042	-0,020
-623,663	-110,987	0,035	-0,005
-622,649	-134,472	-0,057	0,005
-621,634	-129,298	0,063	-0,006
-620,619	74,116	-0,162	-0,126
-619,605	800,000	0,017	0,036
-618,590	244,362	0,037	-0,046
-617,576	358,684	0,052	-0,077
-616,561	-200,000	-0,029	0,161
-615,546	-84,068	0,161	0,038
-614,532	-200,000	0,007	-0,048
-613,517	102,103	-0,049	-0,042
-612,503	102,810	-0,047	0,041
-611,488	-200,000	0,031	0,216
-610,474	-200,000	-0,044	0,156
-609,459	-31,971	0,012	-0,005
-608,444	52,620	0,039	0,027
-607,430	-200,000	0,010	-0,097
-606,415	184,150	-0,063	-0,069
-605,401	-50,594	0,098	0,034
-604,386	-200,000	-0,011	-0,055
-603,371	-30,223	0,078	-0,033
-602,357	413,569	0,067	0,106
-601,342	88,558	-0,107	-0,088
-600,328	800,000	0,053	-0,124
-599,313	-100,239	-0,097	0,018
-598,298	540,696	-0,019	0,033
-597,284	211,613	0,010	0,012
-596,269	-153,556	0,062	-0,003
-595,255	-200,000	-0,005	0,121
-594,240	-200,000	-0,000	0,068
-593,225	68,206	-0,012	0,009
-592,211	-200,000	0,006	-0,106
-591,196	-110,262	-0,107	-0,016
-590,182	-93,408	0,164	-0,033
-589,167	-148,637	0,010	-0,001
-588,152	-155,129	0,096	0,005
-587,138	-91,841	-0,138	-0,029
-586,123	-200,000	-0,029	-0,130
-585,109	52,080	-0,121	-0,085
-584,094	-25,863	-0,121	0,052
-583,079	91,588	-0,025	0,021
-582,065	368,250	-0,051	0,076
-581,050	154,428	0,023	-0,023
-580,036	57,435	0,053	-0,038
-579,021	-70,858	0,094	-0,026
-578,006	232,689	0,055	-0,067
-576,992	800,000	-0,011	0,024
-575,977	-43,652	0,032	-0,012
-574,963	24,707	0,021	0,013
-573,948	800,000	0,020	0,053
-572,934	-200,000	0,001	-0,041
-571,919	800,000	0,022	0,072
-570,904	12,772	-0,162	-0,092
-569,890	240,150	-0,027	-0,034
-568,875	-100,459	-0,040	0,007
-567,861	63,381	0,101	-0,075
-566,846	391,242	-0,038	-0,058
-565,831	-200,000	-0,004	0,045
-564,817	-200,000	-0,036	-0,119
-563,802	-90,089	-0,103	-0,022
-562,788	673,415	0,020	0,039
-561,773	-68,998	-0,097	-0,028
-560,758	276,118	-0,042	0,055
-559,744	-200,000	-0,045	0,167
-558,729	762,191	-0,016	0,033
-557,715	715,974	-0,047	0,093
-556,700	42,873	-0,116	0,078
-555,685	405,371	-0,042	0,065
-554,671	-84,003	0,142	0,033
-553,656	-200,000	-0,010	-0,039
-552,642	-200,000	-0,016	0,071
-551,627	-51,805	0,121	-0,041
-550,612	117,983	0,043	-0,039
-549,598	-200,000	0,027	-0,178
-548,583	-200,000	0,031	0,115
-547,569	15,686	0,094	0,054
-546,554	-200,000	0,000	0,096
-545,539	120,547	-0,099	0,091
-544,525	15,395	0,050	-0,029
-543,510	8,346	-0,045	-0,025
-542,496	123,177	0,102	-0,095
-541,481	-200,000	0,034	-0,143
-540,466	-200,000	0,001	-0,029
-539,452	510,848	-0,029	0,051
-538,437	-38,082	-0,030	0,012
-537,423	800,000	0,016	-0,037
-536,408	-160,066	0,048	0,002
-535,393	51,903	-0,104	-0,073
-534,379	549,811	-0,044	-0,078
-533,364	172,633	0,023	-0,025
-532,350	-200,000	0,018	0,074
-531,335	-161,849	-0,130	0,005
-530,321	-97,136	0,006	0,001
-529,306	594,093	-0,023	0,043
-528,291	508,399	0,069	-0,118
-527,277	-110,622	-0,107	-0,016
-526,262	177,416	0,070	0,076
-525,248	9,327	0,055	-0,031
-524,233	-25,034	-0,075	-0,033
-523,218	-200,000	0,022	0,105
-522,204	-112,545	-0,053	0,008
-521,189	-200,000	0,002	-0,031
-520,175	-200,000	-0,000	-0,023
-519,160	-88,258	-0,204	-0,045
-518,145	78,034	0,062	0,049
-517,131	153,567	0,046	-0,047
-516,116	-15,183	-0,137	0,065
-515,102	109,170	-0,121	-0,107
-514,087	-200,000	0,020	0,141
-513,072	8,635	-0,063	-0,035
-512,058	-26,889	0,064	0,027
-511,043	559,780	0,019	0,034
-510,029	-200,000	0,022	0,135
-509,014	87,436	0,067	-0,055
-507,999	-200,000	-0,001	-0,049
-506,985	20,165	-0,087	-0,052
-505,970	800,000	0,040	-0,128
-504,956	-23,008	-0,129	-0,057
-503,941	150,991	0,014	-0,015
-502,926	-200,000	0,003	-0,030
-501,912	800,000	0,056	-0,144
-500,897	134,514	0,044	0,042
-499,883	-200,000	-0,005	-0,029
-498,868	232,961	0,037	0,045
-497,853	-34,903	-0,035	0,014
-496,839	800,000	0,033	0,078
-495,824	187,802	0,044	0,049
-494,810	-94,468	-0,008	-0,002
-493,795	-40,148	0,118	-0,045
-492,781	-132,191	-0,090	-0,009
-491,766	407,745	0,101	-0,158
-490,751	-113,237	-0,108	0,015
-489,737	800,000	0,051	-0,112
-488,722	-200,000	-0,006	0,123
-487,708	149,334	-0,038	0,038
-486,693	224,533	0,063	-0,075
-485,678	441,953	-0,039	-0,064
-484,664	21,603	-0,120	0,072
-483,649	196,113	-0,053	-0,059
-482,635	224,820	-0,044	-0,053
-481,620	689,526	0,057	-0,111
-480,605	-200,000	0,007	0,026
-479,591	55,673	-0,019	-0,014
-478,576	-200,000	0,027	0,089
-477,562	800,000	-0,031	0,067
-476,547	352,578	-0,105	-0,154
-475,532	148,525	-0,074	-0,073
-474,518	53,140	0,029	0,021
-473,503	-107,505	0,112	-0,018
-472,489	34,746	0,089	0,057
-471,474	-187,248	0,137	-0,001
-470,459	10,558	-0,085	0,048
-469,445	130,013	-0,090	0,085
-468,430	577,116	0,053	-0,097
-467,416	332,594	0,051	-0,073
-466,401	800,000	-0,044	0,137
-465,386	177,097	0,076	-0,082
-464,372	800,000	-0,041	0,091
-463,357	193,442	0,109	0,122
-462,343	-200,000	0,014	-0,105
-461,328	-200,000	0,043	-0,143
-460,313	586,287	0,029	-0,052
-459,299	70,391	-0,057	-0,043
-458,284	13,906	0,119	0,068
-457,270	800,000	0,036	-0,089
-456,255	-200,000	-0,015	0,079
-455,241	126,166	-0,097	0,090
-454,226	-129,688	0,109	-0,011
-453,211	60,151	-0,051	-0,037
-452,197	-200,000	-0,011	-0,086
-451,182	-50,182	-0,115	0,040
-450,168	-125,277	0,062	-0,007
-449,153	51,741	-0,058	0,041
-448,138	-66,564	-0,102	0,030
-447,124	-200,000	0,025	0,181
-446,109	379,407	0,058	-0,087
-445,095	-10,194	-0,047	-0,023
-444,080	800,000	0,008	0,021
-443,065	356,905	0,064	0,094
-442,051	-159,675	0,094	-0,004
-441,036	63,693	-0,062	-0,046
-440,022	193,543	-0,068	-0,076
-439,007	2,709	0,148	0,079
-437,992	388,272	0,040	-0,060
-436,978	-200,000	-0,009	0,033
-435,963	-28,750	0,085	-0,036
-434,949	-36,218	-0,090	-0,035
-433,934	64,716	-0,087	-0,064
-432,919	170,986	0,065	-0,069
-431,905	-200,000	-0,028	-0,181
-430,890	507,849	0,017	-0,029
-429,876	-29,801	0,135	0,056
-428,861	260,408	-0,072	0,091
-427,846	55,245	-0,016	-0,011
-426,832	800,000	0,029	0,092
-425,817	-200,000	0,010	-0,037
-424,803	627,038	0,026	-0,048
-423,788	-200,000	0,017	-0,057
-422,773	170,882	0,075	0,079
-421,759	53,446	0,033	0,023
-420,744	-200,000	-0,014	-0,077
-419,730	-45,824	-0,087	-0,031
-418,715	-153,469	0,185	0,009
-417,701	800,000	-0,049	-0,128
-416,686	800,000	-0,018	0,043
-415,671	-200,000	0,025	0,138
-414,657	10,582	0,076	0,042
-413,642	-200,000	0,009	0,044
-412,628	-200,000	-0,000	0,013
-411,613	-200,000	0,002	0,051
-410,598	409,644	-0,095	-0,148
-409,584	46,818	0,093	0,063
-408,569	31,673	-0,045	0,028
-407,555	6,130	0,116	0,063
-406,540	279,424	-0,055	-0,073
-405,525	396,611	0,099	-0,153
-404,511	-200,000	-0,001	0,045
-403,496	47,476	-0,055	-0,037
-402,482	-38,296	-0,019	0,007
-401,467	-200,000	-0,022	0,140
-400,452	800,000	-0,018	-0,055
-399,438	433,124	0,081	0,129
-398,423	33,237	-0,061	-0,039
-397,409	800,000	0,037	-0,105
-396,394	-68,827	0,039	0,011
-395,379	-63,962	-0,074	0,022
-394,365	-200,000	0,038	0,147
-393,350	258,578	0,069	-0,088
-392,336	-200,000	0,005	0,075
-391,321	-97,002	-0,111	-0,021
-390,306	201,344	0,033	0,038
-389,292	-152,309	0,035	-0,002
-388,277	-114,680	0,102	0,014
-387,263	42,787	0,065	0,044
-386,248	-200,000	0,005	0,095
-385,233	-200,000	-0,102	0,000
-384,219	-155,272	-0,056	-0,003
-383,204	39,926	-0,027	0,018
-382,190	147,332	-0,086	-0,085
-381,175	-20,035	0,055	-0,025
-380,160	-200,000	0,018	0,115
-379,146	-200,000	0,014	0,140
-378,131	800,000	-0,035	0,113
-377,117	-160,468	0,173	-0,007
-376,102	-200,000	0,005	0,074
-375,088	800,000	0,074	-0,164
-374,073	96,559	0,058	0,049
-373,058	-77,456	0,148	-0,037
-372,044	-39,507	-0,028	0,011
-371,029	136,590	-0,054	0,052
-370,015	11,944	-0,054	-0,030
-369,000	8,505	-0,030	-0,017
-367,985	-96,278	0,042	-0,008
-366,971	-200,000	0,017	-0,074
-365,956	238,265	-0,049	-0,060
-364,942	-180,614	0,138	-0,002
-363,927	-34,320	0,067	0,027
-362,912	-123,294	-0,207	-0,024
-361,898	-126,882	-0,104	0,011
-360,883	800,000	-0,041	-0,108
-359,869	-64,925	0,105	0,031
-358,854	-6,553	-0,068	0,034
-357,839	-49,893	0,203	0,070
-356,825	424,316	-0,035	0,056
-355,810	62,169	0,120	-0,088
-354,796	9,506	0,085	0,047
-353,781	-47,816	-0,063	-0,022
-352,766	542,479	0,038	0,066
-351,752	-62,617	-0,078	-0,024
-350,737	61,934	0,096	0,070
-349,723	-200,000	0,022	0,089
-348,708	32,194	-0,057	0,036
-347,693	184,810	-0,085	-0,092
-346,679	-200,000	-0,011	-0,062
-345,664	-200,000	0,039	0,133
-344,650	30,528	-0,046	-0,029
-343,635	282,908	-0,034	0,045
-342,620	10,051	0,022	-0,012
-341,606	-200,000	0,001	-0,113
-340,591	76,833	0,052	-0,040
-339,577	147,108	0,125	-0,123
-338,562	800,000	-0,053	-0,127
-337,548	33,711	-0,077	-0,049
-336,533	-132,512	0,183	0,017
-335,518	28,585	-0,077	0,048
-334,504	759,303	-0,065	0,129
-333,489	74,562	-0,087	-0,067
-332,475	604,997	0,035	-0,065
-331,460	800,000	-0,024	-0,062
-330,445	145,260	-0,105	-0,103
-329,431	-200,000	0,005	-0,150
-328,416	-200,000	0,005	0,148
-327,402	-38,941	0,093	-0,036
-326,387	157,214	-0,075	-0,076
-325,372	-39,267	-0,182	-0,069
-324,358	74,314	0,105	0,081
-323,343	378,918	-0,042	-0,063
-322,329	-200,000	-0,017	-0,074
-321,314	-169,758	-0,114	-0,003
-320,299	255,137	0,100	0,126
-319,285	-180,853	0,042	0,001
-318,270	119,020	-0,150	-0,136
-317,256	103,411	0,059	-0,051
-316,241	-27,956	-0,040	0,017
-315,226	-200,000	-0,032	0,130
-314,212	-105,075	-0,077	-0,013
-313,197	-114,282	0,136	-0,019
-312,183	-200,000	0,014	0,050
-311,168	800,000	-0,026	0,065
-310,153	675,932	-0,045	0,085
-309,139	-181,014	-0,088	0,001
-308,124	-99,931	-0,090	0,016
-307,110	108,023	-0,071	0,062
-306,095	-200,000	-0,027	0,119
-305,080	-59,518	-0,064	-0,020
-304,066	236,068	0,019	0,023
-303,051	-200,000	-0,027	-0,118
-302,037	-118,281	0,110	0,014
-301,022	-200,000	-0,013	-0,097
-300,008	-200,000	0,007	0,049
-298,993	-111,064	-0,120	-0,018
-297,978	-200,000	-0,019	-0,060
-296,964	-48,037	-0,140	-0,049
-295,949	-200,000	0,008	0,205
-294,935	182,165	-0,048	0,052
-293,920	-111,488	0,090	0,013
-292,905	477,434	-0,031	0,052
-291,891	-140,382	0,072	0,005
-290,876	319,698	0,054	0,076
-289,862	-57,947	0,007	0,002
-288,847	328,908	-0,101	0,142
-287,832	-200,000	-0,006	-0,168
-286,818	800,000	0,025	-0,063
-285,803	20,571	-0,032	-0,019
-284,789	34,444	0,093	0,060
-283,774	-59,571	-0,037	-0,011
-282,759	800,000	-0,041	0,132
-281,745	800,000	0,020	0,050
-280,730	668,199	-0,075	0,143
-279,716	233,869	0,067	0,080
-278,701	89,470	-0,007	0,005
-277,686	548,585	-0,039	-0,069
-276,672	-116,417	0,075	0,010
-275,657	38,813	-0,044	0,029
-274,643	44,837	-0,201	-0,135
-273,628	800,000	0,029	-0,065
-272,613	-117,815	-0,015	0,002
-271,599	-157,084	0,146	0,006
-270,584	-7,213	0,092	0,046
-269,570	-77,868	-0,054	0,013
-268,555	530,599	0,039	0,068
-267,540	-7,481	-0,035	0,017
-266,526	800,000	-0,024	-0,060
-265,511	-25,718	0,110	-0,047
-264,497	57,453	-0,043	0,031
-263,482	-95,160	0,086	0,017
-262,467	650,922	-0,031	-0,059
-261,453	-42,345	-0,041	-0,015
-260,438	407,627	-0,107	0,165
-259,424	105,135	-0,103	0,089
-258,409	-200,000	-0,027	-0,163
-257,395	-200,000	-0,004	-0,036
-256,380	-139,607	0,056	0,004
-255,365	323,331	0,074	-0,104
-254,351	-80,243	-0,074	0,018
-253,336	-65,221	-0,085	0,025
-252,322	117,853	-0,109	0,098
-251,307	800,000	0,045	-0,124
-250,292	-200,000	-0,006	-0,057
-249,278	331,581	0,059	-0,083
-248,263	401,703	-0,086	0,132
-247,249	-200,000	-0,005	0,041
-246,234	-100,636	0,025	0,004
-245,219	-124,553	0,129	0,014
-244,205	-200,000	-0,022	-0,126
-243,190	132,741	-0,036	-0,034
-242,176	416,656	-0,041	0,064
-241,161	64,120	0,110	-0,081
-240,146	-200,000	-0,010	-0,065
-239,132	494,221	0,053	0,089
-238,117	414,502	-0,010	-0,016
-237,103	-200,000	0,010	-0,079
-236,088	29,992	0,112	-0,070
-235,073	-75,703	-0,071	-0,018
-234,059	185,999	0,063	0,069
-233,044	32,367	0,064	0,040
-232,030	25,789	0,123	0,074
-231,015	78,952	-0,114	-0,089
-230,000	-141,525	0,133	0,010
-228,986	800,000	0,045	-0,096
-227,971	55,227	-0,008	0,006
-226,957	505,055	0,098	0,166
-225,942	-200,000	-0,032	0,119
-224,927	-142,616	-0,077	0,005
-223,913	173,186	-0,037	-0,039
-222,898	77,047	-0,084	0,065
-221,884	620,976	0,008	0,014
-220,869	-18,730	0,115	-0,052
-219,855	-41,339	0,085	0,032
-218,840	-200,000	-0,020	0,071
-217,825	57,106	0,060	0,043
-216,811	-174,577	-0,020	-0,000
-215,796	-14,653	-0,051	-0,024
-214,782	385,368	0,120	0,182
-213,767	800,000	-0,025	0,056
-212,752	-2,964	0,119	0,060
-211,738	-200,000	-0,011	0,083
-210,723	97,553	-0,090	0,075
-209,709	-200,000	0,006	0,077
-208,694	659,237	0,034	0,064
-207,679	-200,000	-0,036	0,204
-206,665	-115,667	0,056	-0,008
-205,650	-87,474	0,105	-0,023
-204,636	-200,000	0,032	0,185
-203,621	56,769	0,144	0,102
-202,606	121,978	0,032	-0,030
-201,592	-200,000	-0,010	-0,066
-200,577	-22,723	-0,055	0,024
-199,563	-200,000	-0,001	-0,094
-198,548	800,000	0,016	0,043
-197,533	-139,775	0,085	0,006
-196,519	426,863	0,068	0,107
-195,504	256,697	-0,024	0,030
-194,490	-200,000	0,013	-0,135
-193,475	73,085	0,010	0,008
-192,460	-48,849	0,053	0,018
-191,446	578,948	-0,017	-0,030
-190,431	-200,000	-0,007	0,112
-189,417	63,976	0,116	-0,085
-188,402	-200,000	-0,029	0,126
-187,387	73,124	0,094	-0,071
-186,373	294,504	0,082	-0,110
-185,358	-200,000	0,009	-0,073
-184,344	5,192	0,018	-0,010
-183,329	-139,511	0,101	0,008
-182,315	353,288	-0,055	0,079
-181,300	-68,348	-0,091	0,026
-180,285	-5,429	-0,083	-0,042
-179,271	131,030	-0,080	-0,075
-178,256	12,659	-0,132	0,074
-177,242	800,000	0,012	-0,027
-176,227	-95,695	0,065	-0,013
-175,212	72,359	-0,086	-0,065
-174,198	246,233	0,036	0,045
-173,183	93,768	-0,142	-0,117
-172,169	691,789	0,058	-0,111
-171,154	800,000	0,024	-0,074
-170,139	-200,000	-0,033	-0,122
-169,125	-200,000	0,027	0,106
-168,110	-178,189	-0,060	0,001
-167,096	-171,802	-0,062	-0,001
-166,081	-200,000	0,000	-0,096
-165,066	742,932	-0,077	-0,152
-164,052	77,315	-0,033	-0,026
-163,037	-200,000	-0,012	0,105
-162,023	800,000	0,017	0,042
-161,008	97,847	0,115	0,096
-159,993	-200,000	-0,004	0,076
-158,979	-84,958	0,229	0,052
-157,964	88,311	-0,177	-0,143
-156,950	800,000	0,042	-0,130
-155,935	800,000	-0,009	-0,018
-154,920	-42,937	0,053	-0,019
-153,906	-200,000	0,009	0,103
-152,891	800,000	-0,040	-0,092
-151,877	-96,001	-0,176	-0,034
-150,862	-172,077	0,139	0,003
-149,847	438,880	-0,052	-0,083
-148,833	-7,855	-0,085	0,042
-147,818	207,154	0,059	0,067
-146,804	102,148	-0,043	-0,036
-145,789	87,603	0,047	0,038
-144,775	-96,406	-0,020	0,004
-143,760	-158,064	0,101	0,004
-142,745	-115,857	0,070	-0,009
-141,731	-19,505	0,155	-0,070
-140,716	137,257	-0,069	-0,065
-139,702	800,000	0,030	0,093
-138,687	-67,912	0,050	0,014
-137,672	-200,000	0,028	0,093
-136,658	173,992	0,050	-0,052
-135,643	-29,013	-0,085	-0,035
-134,629	-200,000	0,000	0,080
-133,614	800,000	-0,055	0,127
-132,599	-200,000	0,050	0,205
-131,585	257,201	0,031	0,039
-130,570	430,842	0,033	-0,053
-129,556	-200,000	0,015	-0,058
-128,541	-200,000	-0,021	-0,105
-127,526	-67,919	0,086	-0,024
-126,512	-200,000	-0,001	-0,104
-125,497	-22,648	0,146	0,064
-124,483	105,074	-0,132	0,113
-123,468	745,284	-0,053	0,104
-122,453	-200,000	-0,003	-0,048
-121,439	50,621	0,106	-0,073
-120,424	-74,804	0,083	-0,021
-119,410	-177,594	0,033	0,001
-118,395	-151,333	0,126	-0,007
-117,380	667,024	-0,072	0,136
-116,366	-120,443	0,092	-0,011
-115,351	-20,725	-0,136	-0,061
-114,337	-65,637	-0,139	-0,040
-113,322	460,744	-0,017	-0,028
-112,307	-83,093	0,057	0,013
-111,293	171,157	0,087	0,091
-110,278	-127,156	0,111	-0,012
-109,264	380,624	-0,087	0,129
-108,249	158,804	-0,080	-0,081
-107,234	-128,363	0,141	0,014
-106,220	744,978	0,022	-0,043
-105,205	-76,323	0,008	-0,002
-104,191	800,000	0,022	-0,047
-103,176	98,598	-0,060	0,050
-102,162	-134,814	-0,086	-0,007
-101,147	-83,419	-0,085	0,020
-100,132	39,042	-0,104	-0,068
-99,118	-200,000	-0,060	-0,263
-98,103	-200,000	0,009	0,048
-97,089	455,473	-0,051	0,083
-96,074	47,185	-0,061	-0,041
-95,059	278,650	0,006	-0,008
-94,045	-200,000	0,003	0,077
-93,030	-200,000	-0,021	0,106
-92,016	-200,000	0,037	-0,174
-91,001	-39,395	-0,039	-0,015
-89,986	-23,180	-0,064	-0,028
-88,972	-148,233	-0,135	-0,008
-87,957	57,633	-0,092	-0,065
-86,943	259,608	0,058	0,073
-85,928	-120,180	-0,014	-0,002
-84,913	-200,000	-0,013	-0,104
-83,899	184,264	0,076	-0,082
-82,884	149,056	0,076	0,075
-81,870	-21,516	0,064	-0,028
-80,855	449,494	-0,067	-0,107
-79,840	441,765	-0,020	0,032
-78,826	275,309	-0,048	0,062
-77,811	62,961	-0,046	0,033
-76,797	-41,281	-0,052	0,019
-75,782	-5,875	0,115	-0,057
-74,767	-162,711	0,061	-0,002
-73,753	13,173	0,020	-0,011
-72,738	-18,080	-0,087	0,039
-71,724	0,068	-0,083	-0,043
-70,709	-200,000	-0,045	-0,168
-69,694	-200,000	0,004	0,057
-68,680	-88,508	0,158	0,034
-67,665	800,000	-0,043	0,105
-66,651	335,103	-0,019	-0,027
-65,636	-136,583	-0,097	0,008
-64,622	-34,994	-0,099	-0,039
-63,607	-200,000	-0,016	-0,142
-62,592	84,820	0,053	0,042
-61,578	207,404	0,112	-0,127
-60,563	75,438	0,094	-0,072
-59,549	44,878	-0,088	0,059
-58,534	-95,540	-1,457	-0,281
-57,519	671,111	-0,767	-1,446
-56,505	-200,000	-0,966	-4,456
-55,490	-36,080	0,598	-0,233
-54,476	800,000	4,995	11,799
-53,461	-200,000	14,222	253,939
-52,446	-200,000	695,695	2234,233
-51,432	569,095	1624,722	2873,942
-50,417	117,094	1632,038	1453,031
-49,403	72,916	1285,500	972,033
-48,388	37,474	1022,678	655,920
-47,373	23,731	981,359	584,272
-46,359	22,977	970,739	575,458
-45,344	21,910	966,484	569,431
-44,330	21,865	965,060	568,423
-43,315	21,745	963,602	567,151
-42,300	21,747	962,592	566,538
-41,286	21,734	961,413	565,780
-40,271	21,677	960,556	565,068
-39,257	21,724	959,548	564,607
-38,242	21,674	958,672	563,907
-37,227	21,673	957,952	563,458
-36,213	21,634	956,977	562,736
-35,198	21,631	956,050	562,159
-34,184	21,732	955,559	562,172
-33,169	21,668	954,541	561,345
-32,154	21,724	953,601	560,950
-31,140	21,689	952,773	560,329
-30,125	21,719	952,019	559,959
-29,111	21,765	951,088	559,538
-28,096	21,797	950,315	559,163
-27,082	21,708	949,738	558,515
-26,067	21,708	949,062	558,097
-25,052	21,742	948,176	557,661
-24,038	21,715	947,689	557,268
-23,023	21,677	947,165	556,815
-22,009	21,727	946,321	556,458
-20,994	21,755	945,724	556,173
-19,979	21,806	944,869	555,811
-18,965	21,745	944,569	555,417
-17,950	21,753	943,738	554,931
-16,936	21,685	943,161	554,355
-15,921	21,694	942,402	553,914
-14,906	21,636	941,577	553,222
-13,892	21,614	941,111	552,858
-12,877	21,554	940,689	552,399
-11,863	21,596	939,824	552,000
-10,848	21,624	939,317	551,769
-9,833	21,688	938,911	551,711
-8,819	21,719	938,311	551,436
-7,804	21,660	937,654	550,840
-6,790	21,664	937,071	550,490
-5,775	21,629	936,424	549,979
-4,760	21,574	935,756	549,391
-3,746	21,562	935,270	549,043
-2,731	21,477	934,549	548,331
-1,717	21,400	933,788	547,619
-0,702	21,385	933,099	547,147
0,313	21,215	932,427	547,043
1,327	24,189	930,310	555,089
2,342	33,364	793,890	498,061
3,356	30,922	450,616	279,003
4,371	0,737	294,495	152,147
5,386	-3,735	275,626	138,143
6,400	-4,871	269,886	134,197
7,415	-5,198	267,498	132,697
8,429	-5,015	266,222	132,220
9,444	-4,970	265,501	131,891
10,459	-4,883	264,816	131,619
11,473	-5,144	264,310	131,117
12,488	-5,111	263,755	130,860
13,502	-5,212	263,242	130,502
14,517	-5,056	262,831	130,429
15,531	-5,035	262,465	130,254
16,546	-5,187	262,175	129,961
17,561	-5,278	261,804	129,684
18,575	-5,042	261,495	129,732
19,590	-5,140	260,990	129,381
20,604	-5,060	260,691	129,293
21,619	-5,110	260,586	129,185
22,634	-5,150	260,086	128,890
23,648	-5,285	259,800	128,616
24,663	-5,223	259,478	128,500
25,677	-5,195	259,353	128,452
26,692	-5,084	258,910	128,320
27,707	-5,178	258,780	128,160
28,721	-5,198	258,566	128,026
29,736	-5,242	258,353	127,869
30,750	-5,251	257,986	127,668
31,765	-5,104	257,799	127,695
32,780	-5,239	257,568	127,449
33,794	-5,178	257,165	127,292
34,809	-5,169	257,004	127,210
35,823	-4,956	256,658	127,215
36,838	-5,205	256,485	126,898
37,853	-5,242	256,330	126,778
38,867	-5,121	255,952	126,685
39,882	-5,304	255,862	126,469
40,896	-5,234	255,748	126,462
41,911	-5,206	255,359	126,284
42,926	-5,450	255,189	125,974
43,940	-5,199	254,957	126,068
44,955	-5,292	254,791	125,894
45,969	-5,272	254,458	125,735
46,984	-5,505	254,249	125,417
47,999	-5,657	254,097	125,198
49,013	-5,874	253,908	124,905
50,028	-5,911	253,609	124,715
51,042	-5,892	253,222	124,529
52,057	-5,937	253,067	124,403
53,071	-5,661	252,761	124,481
54,086	-5,975	252,722	124,178
55,101	-5,515	252,524	124,469
56,115	-5,561	252,442	124,377
57,130	-5,237	252,351	124,603
58,144	-4,939	252,179	124,765
59,159	-4,871	251,860	124,654
60,174	-4,873	251,599	124,512
61,188	-5,058	251,404	124,245
62,203	-5,077	251,209	124,121
63,217	-5,168	250,962	123,909
64,232	-5,233	250,926	123,825
65,247	-4,994	250,646	123,881
66,261	-5,094	250,517	123,721
67,276	-5,339	250,195	123,340
68,290	-5,577	249,861	122,960
69,305	-5,498	249,603	122,890
70,320	-5,441	249,496	122,875
71,334	-5,309	249,457	122,958
72,349	-4,960	249,175	123,106
73,363	-4,967	249,017	123,012
74,378	-5,117	248,920	122,824
75,393	-4,949	248,682	122,839
76,407	-5,054	248,357	122,578
77,422	-5,229	248,244	122,362
78,436	-5,108	247,921	122,295
79,451	-5,109	247,801	122,224
80,466	-5,177	247,439	121,977
81,480	-5,310	247,388	121,828
82,495	-5,557	247,166	121,499
83,509	-5,416	247,014	121,533
84,524	-5,443	246,938	121,462
85,539	-5,563	246,493	121,131
86,553	-5,503	246,421	121,135
87,568	-5,416	246,237	121,107
88,582	-5,273	246,087	121,143
89,597	-5,522	245,765	120,765
90,611	-5,370	245,637	120,819
91,626	-5,159	245,478	120,907
92,641	-5,174	245,517	120,903
93,655	-5,451	245,206	120,507
94,670	-5,107	244,756	120,563
95,684	-5,356	244,900	120,414
96,699	-5,231	244,489	120,306
97,714	-5,245	244,274	120,178
98,728	-5,427	244,225	119,991
99,743	-5,342	243,811	119,847
100,757	-5,594	243,861	119,651
101,772	-5,392	243,590	119,676
102,787	-5,337	243,364	119,600
103,801	-5,316	243,299	119,575
104,816	-5,230	243,030	119,503
105,830	-5,033	242,915	119,600
106,845	-5,084	242,807	119,494
107,860	-5,013	242,412	119,347
108,874	-5,370	242,512	119,090
109,889	-5,358	242,138	118,906
110,903	-5,417	242,077	118,816
111,918	-5,399	241,880	118,724
112,933	-5,255	241,588	118,689
113,947	-5,363	241,614	118,602
114,962	-5,225	241,465	118,632
115,976	-4,997	241,066	118,613
116,991	-5,337	240,999	118,290
118,006	-5,200	240,862	118,325
119,020	-5,164	240,552	118,191
120,035	-5,295	240,588	118,091
121,049	-5,130	240,463	118,155
122,064	-5,136	240,287	118,053
123,079	-5,214	239,930	117,803
124,093	-5,268	239,837	117,703
125,108	-5,313	239,624	117,551
126,122	-5,530	239,294	117,201
127,137	-5,494	239,273	117,210
128,151	-5,335	239,129	117,259
129,166	-5,555	238,988	116,999
130,181	-5,431	238,603	116,902
131,195	-5,537	238,584	116,796
132,210	-5,363	238,276	116,776
133,224	-5,160	238,194	116,890
134,239	-5,288	237,989	116,675
135,254	-5,256	237,945	116,669
136,268	-5,392	237,715	116,436
137,283	-5,470	237,335	116,176
138,297	-5,667	237,161	115,921
139,312	-5,689	237,053	115,840
140,327	-5,309	236,942	116,083
141,341	-4,873	236,880	116,394
142,356	-5,087	236,892	116,217
143,370	-4,881	236,482	116,171
144,385	-4,805	236,434	116,198
145,400	-4,974	236,396	116,033
146,414	-4,761	236,161	116,079
147,429	-5,021	236,040	115,800
148,443	-4,833	235,662	115,755
149,458	-4,955	235,602	115,618
150,473	-4,972	235,468	115,528
151,487	-4,934	235,289	115,460
152,502	-5,216	235,050	115,107
153,516	-5,043	234,774	115,100
154,531	-4,859	234,667	115,184
155,546	-4,956	234,504	115,016
156,560	-4,973	234,337	114,911
157,575	-5,378	234,148	114,485
158,589	-5,070	233,926	114,611
159,604	-5,027	233,904	114,625
160,619	-4,804	233,656	114,670
161,633	-4,835	233,568	114,592
162,648	-4,890	233,386	114,449
163,662	-4,875	233,304	114,411
164,677	-5,160	233,185	114,116
165,692	-5,092	232,947	114,043
166,706	-4,958	232,873	114,103
167,721	-4,963	232,759	114,033
168,735	-4,643	232,544	114,170
169,750	-4,825	232,382	113,937
170,764	-4,829	232,125	113,798
171,779	-4,975	232,146	113,682
172,794	-4,839	231,903	113,661
173,808	-5,026	231,727	113,417
174,823	-5,275	231,430	113,066
175,837	-5,500	231,198	112,765
176,852	-5,129	231,214	113,055
177,867	-5,152	231,084	112,962
178,881	-4,769	230,997	113,210
179,896	-4,741	230,824	113,138
180,910	-4,845	230,731	113,000
181,925	-4,772	230,541	112,954
182,940	-4,756	230,309	112,844
183,954	-4,808	230,236	112,757
184,969	-4,857	230,137	112,660
185,983	-4,613	229,898	112,723
186,998	-4,517	229,675	112,679
188,013	-4,620	229,591	112,547
189,027	-4,703	229,472	112,414
190,042	-4,801	229,263	112,226
191,056	-4,676	229,111	112,238
192,071	-4,474	228,928	112,295
193,086	-4,700	228,653	111,975
194,100	-4,868	228,718	111,867
195,115	-5,010	228,312	111,549
196,129	-5,588	228,014	110,946
197,144	-2,979	228,936	113,410
198,159	1,271	230,256	117,364
199,173	3,750	230,776	119,550
200,188	3,715	230,889	119,571
201,202	3,955	230,395	119,491
202,217	4,343	230,296	119,730
203,232	4,414	230,358	119,806
204,246	4,521	230,163	119,777
205,261	4,489	230,015	119,665
206,275	4,761	229,952	119,832
207,290	4,878	229,691	119,776
208,304	4,557	229,602	119,470
209,319	4,398	229,419	119,242
210,334	4,590	229,196	119,263
211,348	4,391	229,075	119,036
212,363	4,001	228,692	118,526
213,377	3,698	228,624	118,247
214,392	3,688	228,509	118,170
215,407	3,941	228,308	118,250
216,421	3,906	228,139	118,124
217,436	3,830	227,789	117,874
218,450	3,497	227,779	117,603
219,465	3,517	227,553	117,492
220,480	3,696	227,489	117,585
221,494	3,635	227,319	117,440
222,509	3,749	227,217	117,464
223,523	4,029	226,982	117,546
224,538	3,789	227,022	117,373
225,553	3,728	226,790	117,196
226,567	3,969	226,675	117,310
227,582	4,132	226,546	117,357
228,596	4,333	226,517	117,484
229,611	3,880	226,217	116,974
230,626	3,622	225,993	116,651
231,640	3,778	225,787	116,653
232,655	3,949	225,916	116,840
233,669	4,183	225,835	116,965
234,684	4,591	225,675	117,180
235,699	4,218	225,404	116,747
236,713	3,960	225,160	116,415
237,728	3,815	224,859	116,139
238,742	3,673	224,837	116,011
239,757	3,812	224,672	116,020
240,772	3,630	224,458	115,762
241,786	3,653	224,414	115,746
242,801	3,968	224,452	115,993
243,815	4,290	224,190	116,090
244,830	4,043	224,171	115,883
245,844	3,855	223,957	115,621
246,859	3,778	223,747	115,444
247,874	3,990	223,514	115,473
248,888	3,926	223,519	115,417
249,903	3,850	223,348	115,261
250,917	3,739	223,250	115,118
251,932	3,800	223,003	115,026
252,947	3,758	222,730	114,844
253,961	3,527	222,641	114,614
254,976	3,666	222,540	114,656
255,990	4,005	222,513	114,885
257,005	4,084	222,350	114,850
258,020	4,056	222,161	114,721
259,034	4,259	222,154	114,858
260,049	4,185	221,918	114,671
261,063	3,972	221,813	114,448
262,078	4,173	221,594	114,474
263,093	4,244	221,580	114,510
264,107	4,047	221,372	114,245
265,122	4,136	221,206	114,216
266,136	4,223	221,198	114,266
267,151	4,082	221,041	114,070
268,166	3,755	220,647	113,615
269,180	3,900	220,316	113,542
270,195	3,873	220,242	113,474
271,209	3,535	220,264	113,225
272,224	3,800	220,067	113,309
273,239	3,947	219,967	113,356
274,253	3,853	219,893	113,238
275,268	3,747	219,552	112,974
276,282	3,675	219,464	112,866
277,297	3,380	219,340	112,576
278,312	3,512	219,171	112,576
279,326	3,543	219,219	112,613
280,341	3,701	219,014	112,614
281,355	3,706	219,114	112,659
282,370	3,939	218,637	112,574
283,384	3,550	218,420	112,168
284,399	3,699	218,197	112,153
285,414	3,643	218,098	112,050
286,428	3,871	218,164	112,241
287,443	3,897	218,116	112,225
288,457	3,884	217,962	112,127
289,472	3,664	217,780	111,863
290,487	3,568	217,419	111,597
291,501	3,396	217,273	111,387
292,516	3,702	217,134	111,528
293,530	3,420	217,132	111,313
294,545	3,664	216,884	111,352
295,560	3,686	216,950	111,392
296,574	3,557	216,689	111,155
297,589	3,719	216,581	111,207
298,603	3,928	216,557	111,336
299,618	3,773	216,374	111,120
300,633	3,611	216,297	110,953
301,647	4,291	216,231	111,401
302,662	4,160	215,984	111,169
303,676	4,102	215,820	111,033
304,691	3,997	215,753	110,913
305,706	4,283	215,631	111,047
306,720	4,089	215,538	110,849
307,735	3,806	215,280	110,503
308,749	3,592	215,027	110,209
309,764	4,021	215,033	110,511
310,779	4,198	214,767	110,491
311,793	4,261	214,679	110,481
312,808	3,820	214,539	110,084
313,822	3,872	214,471	110,076
314,837	3,740	214,249	109,858
315,852	3,733	214,034	109,733
316,866	3,810	214,100	109,812
317,881	3,961	213,879	109,797
318,895	4,179	213,685	109,842
319,910	3,825	213,606	109,540
320,925	3,586	213,305	109,206
321,939	3,251	213,250	108,930
322,954	3,338	213,131	108,921
323,968	3,842	213,075	109,241
324,983	4,157	212,937	109,383
325,997	4,037	212,867	109,253
327,012	4,152	212,560	109,167
328,027	3,712	212,535	108,833
329,041	3,974	212,615	109,050
330,056	4,360	212,359	109,182
331,070	3,844	212,123	108,686
332,085	3,464	212,031	108,361
333,100	3,780	211,834	108,473
334,114	4,037	211,636	108,543
335,129	3,800	211,487	108,290
336,143	3,803	211,300	108,187
337,158	3,716	211,149	108,039
338,173	3,872	211,079	108,103
339,187	3,607	211,077	107,906
340,202	3,492	210,763	107,655
341,216	3,347	210,664	107,493
342,231	3,361	210,555	107,438
343,246	3,665	210,392	107,558
344,260	3,654	210,426	107,558
345,275	3,514	210,164	107,317
346,289	3,761	210,113	107,454
347,304	3,848	210,038	107,467
348,319	3,658	209,852	107,229
349,333	3,793	209,626	107,199
350,348	3,888	209,479	107,180
351,362	3,986	209,511	107,256
352,377	3,770	209,362	107,019
353,392	3,749	209,095	106,859
354,406	4,006	209,066	107,013
355,421	193,537	1346,195	1431,843
356,435	154,416	1484,840	1431,937
