DTS Sentinel unit serial number:	SN410029Multiplexer serial number:	ORYXHardware model number:	OX2-SRSoftware version number:	ORYX F/W v4,00 Oryx Data Collector v3.7.2.0data status	okinstallation	B6 Nyhavnadifferential loss correction	single-endedforward channel	channel 2reverse channel	N/Adate	2023/12/08time	12:40:08forward acquisition time	300,00reverse acquisition time	0,00gamma	499,1914k internal	0,3159k external	0,3159temperature offset calibration	1,0000default loss term (dB/km)	0,3820temperature slope calibration	1,0000multiplexer offset coefficient	1,0000multiplexer slope coefficient	1,0000fibre end	0,00T internal ref (°C)	15,06T ext. ref 1 (°C)	-1,52T ext. ref 2 (°C)	-1,52length (m)	temperature (°C)	Stokes	anti-Stokes-744,400	-110,597	0,162	-0,024
-743,385	-92,615	-0,175	0,036
-742,371	131,895	0,135	-0,128
-741,356	-100,137	-0,251	-0,046
-740,342	-93,393	0,082	0,017
-739,327	-115,521	-0,415	-0,057
-738,312	-200,000	-0,022	-0,078
-737,298	-80,348	-0,293	-0,072
-736,283	630,416	0,062	-0,116
-735,269	-157,885	-0,314	-0,013
-734,254	621,461	-0,017	0,031
-733,239	-146,577	-0,471	-0,030
-732,225	57,175	0,145	0,104
-731,210	-200,000	-0,009	0,033
-730,196	-200,000	0,008	-0,026
-729,181	98,467	-0,073	0,062
-728,167	382,962	-0,036	-0,054
-727,152	-7,328	0,134	-0,067
-726,137	48,300	-0,114	0,079
-725,123	800,000	-0,056	-0,129
-724,108	-200,000	-0,001	0,010
-723,094	8,612	-0,060	-0,033
-722,079	710,685	0,032	-0,062
-721,064	-200,000	-0,032	-0,124
-720,050	-76,634	-0,013	-0,003
-719,035	256,102	-0,096	0,121
-718,021	-16,923	-0,211	0,098
-717,006	800,000	-0,013	-0,040
-715,991	97,017	-0,146	-0,123
-714,977	-122,268	-0,104	0,012
-713,962	294,906	-0,072	-0,098
-712,948	-107,185	0,021	0,003
-711,933	800,000	0,028	-0,073
-710,918	800,000	0,007	-0,019
-709,904	29,247	-0,119	0,074
-708,889	34,239	0,029	0,019
-707,875	-119,954	-0,069	0,009
-706,860	-3,217	0,135	-0,069
-705,845	367,533	-0,053	-0,079
-704,831	39,381	0,107	-0,070
-703,816	-200,000	-0,046	0,182
-702,802	60,244	-0,101	0,073
-701,787	202,897	-0,109	-0,124
-700,772	800,000	-0,047	-0,116
-699,758	-200,000	-0,003	-0,077
-698,743	-84,805	-0,072	-0,017
-697,729	284,750	-0,037	-0,049
-696,714	-200,000	-0,003	0,025
-695,699	11,050	0,105	0,059
-694,685	-200,000	0,027	-0,107
-693,670	-200,000	0,012	-0,139
-692,656	556,645	-0,081	-0,145
-691,641	800,000	0,003	-0,010
-690,627	-26,260	0,054	0,023
-689,612	167,806	0,009	0,009
-688,597	-72,943	-0,095	0,026
-687,583	100,488	-0,096	-0,082
-686,568	-25,600	0,055	0,024
-685,554	800,000	-0,026	-0,057
-684,539	20,331	0,047	-0,028
-683,524	-51,369	-0,079	0,027
-682,510	-24,923	0,024	-0,010
-681,495	-57,676	0,074	0,024
-680,481	-200,000	-0,022	-0,109
-679,466	57,575	-0,025	-0,018
-678,451	-116,945	-0,073	-0,010
-677,437	-200,000	0,008	0,025
-676,422	236,202	-0,029	-0,035
-675,408	-31,586	0,130	-0,053
-674,393	52,162	-0,054	-0,038
-673,378	20,098	-0,163	-0,096
-672,364	-200,000	-0,029	-0,178
-671,349	-14,839	-0,129	-0,061
-670,335	-200,000	0,008	-0,028
-669,320	800,000	-0,034	-0,090
-668,305	116,617	0,045	0,040
-667,291	-36,802	0,084	0,033
-666,276	7,151	0,063	-0,034
-665,262	180,948	0,056	-0,061
-664,247	519,080	0,047	-0,082
-663,232	800,000	-0,036	-0,112
-662,218	39,143	-0,012	-0,008
-661,203	104,790	-0,079	0,068
-660,189	-118,304	0,137	0,018
-659,174	-73,000	0,079	0,021
-658,159	-189,114	-0,072	-0,001
-657,145	39,104	0,089	-0,058
-656,130	-200,000	0,008	-0,098
-655,116	-95,808	-0,035	-0,007
-654,101	243,247	-0,011	-0,013
-653,086	326,184	-0,035	-0,050
-652,072	-56,699	-0,066	0,021
-651,057	268,763	-0,118	-0,152
-650,043	354,328	0,078	-0,114
-649,028	800,000	-0,023	0,063
-648,014	280,846	-0,018	-0,024
-646,999	-41,604	-0,125	-0,047
-645,984	-64,596	-0,083	-0,024
-644,970	800,000	0,025	-0,082
-643,955	800,000	0,016	-0,053
-642,941	513,835	-0,049	0,084
-641,926	-78,611	-0,043	0,011
-640,911	-81,040	0,179	0,043
-639,897	-89,158	0,138	0,030
-638,882	546,330	0,034	-0,060
-637,868	-200,000	-0,021	0,087
-636,853	12,328	-0,179	-0,101
-635,838	-200,000	-0,009	0,063
-634,824	800,000	-0,017	0,049
-633,809	22,549	-0,162	0,097
-632,795	-143,261	-0,077	0,005
-631,780	-60,259	-0,058	-0,018
-630,765	-63,055	0,068	-0,020
-629,751	-169,196	0,005	0,000
-628,736	184,494	-0,090	0,098
-627,722	65,119	-0,017	-0,012
-626,707	-200,000	0,004	0,021
-625,692	-21,661	0,071	-0,031
-624,678	-57,972	0,176	0,056
-623,663	-158,633	-0,108	0,004
-622,649	-200,000	0,011	-0,084
-621,634	60,860	0,037	0,027
-620,619	-121,628	-0,134	-0,016
-619,605	384,103	-0,018	0,028
-618,590	157,462	-0,056	-0,057
-617,576	37,177	0,104	0,067
-616,561	-200,000	-0,004	-0,019
-615,546	79,037	0,040	-0,031
-614,532	521,349	0,034	-0,058
-613,517	312,254	0,042	-0,058
-612,503	800,000	0,039	-0,098
-611,488	-45,013	-0,071	0,026
-610,474	95,939	-0,101	0,084
-609,459	-127,609	0,146	-0,015
-608,444	800,000	0,036	-0,093
-607,430	4,860	-0,098	0,053
-606,415	-2,162	-0,116	-0,059
-605,401	800,000	0,022	0,063
-604,386	800,000	0,057	0,148
-603,371	125,717	0,033	-0,030
-602,357	-137,379	-0,156	-0,013
-601,342	245,271	-0,048	0,059
-600,328	60,736	-0,094	0,068
-599,313	129,585	0,079	-0,074
-598,298	-200,000	0,006	-0,035
-597,284	265,681	0,040	-0,051
-596,269	-140,836	0,136	0,010
-595,255	-200,000	-0,010	-0,145
-594,240	-107,797	-0,054	-0,008
-593,225	-91,290	-0,106	-0,022
-592,211	-200,000	-0,014	0,072
-591,196	258,063	0,011	0,014
-590,182	222,799	-0,070	0,083
-589,167	-185,155	-0,162	-0,002
-588,152	2,609	-0,121	0,064
-587,138	-123,356	-0,105	0,012
-586,123	737,716	0,003	0,006
-585,109	6,953	-0,175	-0,095
-584,094	-200,000	0,019	-0,084
-583,079	-132,909	0,139	0,013
-582,065	-200,000	-0,005	0,045
-581,050	-25,412	-0,025	-0,011
-580,036	-69,192	-0,009	-0,003
-579,021	-66,658	0,051	-0,015
-578,006	-200,000	-0,001	-0,138
-576,992	-200,000	0,003	0,067
-575,977	-200,000	-0,003	-0,010
-574,963	28,091	0,114	-0,070
-573,948	127,284	-0,067	-0,062
-572,934	800,000	0,021	-0,042
-571,919	86,299	-0,080	-0,064
-570,904	800,000	-0,038	-0,088
-569,890	-17,859	-0,021	0,010
-568,875	9,653	0,054	0,030
-567,861	36,354	0,086	0,056
-566,846	-42,176	-0,077	0,029
-565,831	166,595	0,117	0,122
-564,817	486,809	0,054	-0,091
-563,802	671,941	-0,014	-0,027
-562,788	-200,000	0,024	-0,081
-561,773	186,857	-0,046	0,050
-560,758	368,788	0,101	0,150
-559,744	-13,666	-0,125	-0,059
-558,729	-200,000	-0,013	0,041
-557,715	427,157	-0,044	-0,070
-556,700	4,881	-0,055	0,029
-555,685	-200,000	0,006	0,033
-554,671	800,000	0,036	-0,087
-553,656	104,064	-0,050	0,043
-552,642	520,861	-0,061	0,105
-551,627	-121,458	-0,061	-0,007
-550,612	-27,243	0,090	-0,038
-549,598	800,000	-0,080	-0,180
-548,583	209,053	0,104	0,119
-547,569	800,000	0,012	-0,036
-546,554	250,428	-0,078	0,098
-545,539	-111,728	-0,109	0,016
-544,525	74,898	-0,114	-0,088
-543,510	-200,000	-0,001	-0,147
-542,496	-137,679	-0,062	-0,005
-541,481	-200,000	-0,018	-0,090
-540,466	201,164	0,062	-0,069
-539,452	10,423	-0,053	-0,029
-538,437	588,661	0,102	0,184
-537,423	-174,597	-0,044	0,001
-536,408	520,041	0,027	0,046
-535,393	-200,000	0,005	-0,095
-534,379	-200,000	-0,031	-0,148
-533,364	94,246	-0,041	0,034
-532,350	-108,128	0,158	-0,025
-531,335	-117,056	0,183	-0,024
-530,321	-179,393	-0,098	0,002
-529,306	800,000	0,009	0,026
-528,291	-126,480	-0,157	0,017
-527,277	-200,000	0,007	-0,079
-526,262	-128,129	-0,140	-0,014
-525,248	-27,562	0,048	-0,020
-524,233	33,441	0,096	0,061
-523,218	800,000	0,011	0,025
-522,204	-96,403	0,091	-0,017
-521,189	800,000	0,050	-0,113
-520,175	-41,561	-0,002	-0,001
-519,160	76,994	0,060	0,046
-518,145	161,457	-0,059	0,061
-517,131	-200,000	0,015	-0,094
-516,116	276,700	0,100	0,130
-515,102	-37,441	-0,039	0,015
-514,087	-200,000	0,013	0,043
-513,072	-59,040	-0,132	-0,041
-512,058	-200,000	-0,006	0,019
-511,043	172,281	0,019	0,019
-510,029	-70,334	0,013	0,004
-509,014	5,583	0,105	-0,057
-507,999	-87,187	-0,066	-0,015
-506,985	109,417	0,093	-0,081
-505,970	-76,582	-0,015	0,004
-504,956	-200,000	-0,011	-0,063
-503,941	800,000	-0,070	-0,155
-502,926	-200,000	0,019	0,102
-501,912	-200,000	-0,012	0,082
-500,897	-34,333	-0,103	-0,041
-499,883	715,705	-0,036	0,071
-498,868	51,042	0,056	-0,038
-497,853	368,735	0,051	-0,076
-496,839	184,205	-0,026	0,028
-495,824	427,151	0,037	0,059
-494,810	135,670	0,027	0,025
-493,795	-200,000	-0,028	0,097
-492,781	-26,718	0,057	0,024
-491,766	800,000	0,046	0,125
-490,751	-200,000	-0,016	0,056
-489,737	771,643	0,055	0,110
-488,722	-65,858	0,082	-0,024
-487,708	-200,000	0,010	0,035
-486,693	-53,403	-0,020	-0,007
-485,678	-200,000	-0,025	-0,139
-484,664	-75,004	0,055	0,014
-483,649	79,801	0,004	-0,003
-482,635	474,267	-0,084	0,139
-481,620	-7,458	0,085	0,042
-480,605	-200,000	0,011	0,118
-479,591	-25,709	-0,142	0,061
-478,576	-67,373	0,133	-0,038
-477,562	-152,295	-0,133	-0,007
-476,547	800,000	-0,019	-0,059
-475,532	-200,000	-0,031	0,111
-474,518	6,945	-0,149	0,081
-473,503	-200,000	0,030	0,118
-472,489	-200,000	-0,005	0,048
-471,474	43,679	0,021	-0,014
-470,459	726,589	-0,029	-0,056
-469,445	800,000	-0,019	-0,059
-468,430	-200,000	-0,004	-0,060
-467,416	-72,796	0,141	0,038
-466,401	444,414	0,054	-0,087
-465,386	-118,159	0,121	0,016
-464,372	306,888	-0,039	-0,053
-463,357	94,930	-0,040	0,033
-462,343	127,971	0,045	0,042
-461,328	-135,913	0,091	0,008
-460,313	800,000	-0,012	-0,028
-459,299	-67,253	0,068	-0,019
-458,284	671,925	0,047	0,089
-457,270	434,473	-0,058	0,092
-456,255	394,055	0,051	-0,078
-455,241	-5,203	-0,100	0,050
-454,226	-200,000	-0,014	-0,081
-453,211	30,401	0,099	0,061
-452,197	800,000	-0,068	0,142
-451,182	118,394	-0,161	-0,144
-450,168	406,884	-0,034	0,052
-449,153	-72,377	0,187	-0,050
-448,138	-39,907	-0,103	-0,039
-447,124	-98,783	-0,051	-0,009
-446,109	-200,000	0,019	0,079
-445,095	-170,945	-0,025	-0,001
-444,080	222,180	-0,046	-0,054
-443,065	332,745	-0,041	0,058
-442,051	-200,000	-0,017	0,145
-441,036	800,000	0,020	-0,047
-440,022	550,356	0,066	0,116
-439,007	46,754	0,015	-0,010
-437,992	-200,000	0,013	-0,069
-436,978	-200,000	0,005	-0,023
-435,963	545,973	-0,033	0,057
-434,949	390,263	0,059	0,089
-433,934	-123,537	-0,180	-0,021
-432,919	-42,634	-0,032	0,012
-431,905	175,426	0,065	0,068
-430,890	132,080	-0,002	-0,002
-429,876	-200,000	0,024	0,169
-428,861	-200,000	-0,034	0,222
-427,846	83,812	0,110	0,087
-426,832	-97,497	-0,095	0,018
-425,817	-200,000	0,002	-0,145
-424,803	78,269	0,045	-0,035
-423,788	-24,251	0,063	0,027
-422,773	800,000	-0,016	-0,045
-421,759	80,750	0,104	0,081
-420,744	-200,000	0,011	0,038
-419,730	-128,072	0,043	-0,004
-418,715	387,681	-0,033	-0,050
-417,701	-15,827	0,072	-0,033
-416,686	134,990	0,093	0,088
-415,671	-56,320	-0,079	0,025
-414,657	270,503	0,049	0,062
-413,642	-200,000	-0,023	-0,120
-412,628	116,526	-0,041	-0,037
-411,613	105,912	-0,078	0,067
-410,598	194,724	0,131	-0,145
-409,584	-200,000	0,001	0,127
-408,569	-200,000	-0,007	0,042
-407,555	-200,000	0,013	0,102
-406,540	136,744	-0,016	-0,015
-405,525	-200,000	-0,029	-0,096
-404,511	-200,000	-0,029	-0,164
-403,496	800,000	0,067	-0,199
-402,482	800,000	0,014	0,038
-401,467	-200,000	-0,010	0,048
-400,452	311,084	-0,018	-0,025
-399,438	800,000	-0,015	0,037
-398,423	192,865	-0,139	-0,153
-397,409	-200,000	-0,041	-0,148
-396,394	544,803	-0,022	-0,039
-395,379	64,323	0,057	-0,041
-394,365	-143,747	-0,014	-0,001
-393,350	-179,399	-0,030	0,000
-392,336	-148,692	0,064	-0,004
-391,321	357,539	0,025	-0,037
-390,306	-186,151	-0,097	0,001
-389,292	-116,073	0,149	-0,020
-388,277	-50,027	-0,141	0,048
-387,263	-41,862	0,080	0,030
-386,248	75,198	-0,027	0,021
-385,233	-57,592	-0,047	-0,015
-384,219	344,161	-0,063	0,090
-383,204	60,898	-0,105	0,076
-382,190	-200,000	-0,029	0,106
-381,175	800,000	-0,023	0,065
-380,160	-200,000	0,001	-0,094
-379,146	-200,000	-0,025	0,222
-378,131	557,321	-0,083	0,147
-377,117	62,123	-0,053	0,038
-376,102	-131,375	-0,074	0,007
-375,088	-113,755	0,064	0,009
-374,073	-200,000	0,005	-0,041
-373,058	139,406	0,124	0,119
-372,044	378,576	0,072	-0,108
-371,029	-67,220	-0,074	0,021
-370,015	800,000	0,032	0,086
-369,000	7,180	0,039	0,021
-367,985	142,886	0,182	-0,176
-366,971	147,079	-0,076	-0,074
-365,956	579,039	-0,075	0,135
-364,942	-200,000	-0,015	0,065
-363,927	0,039	0,115	0,059
-362,912	222,365	-0,025	-0,030
-361,898	800,000	0,013	0,030
-360,883	800,000	-0,061	-0,137
-359,869	18,702	0,055	0,032
-358,854	-200,000	-0,004	-0,044
-357,839	785,197	-0,034	-0,068
-356,825	154,418	0,037	-0,037
-355,810	132,610	-0,079	-0,074
-354,796	-106,726	-0,112	-0,018
-353,781	800,000	-0,069	-0,164
-352,766	800,000	-0,021	-0,057
-351,752	8,495	-0,155	-0,084
-350,737	-100,908	0,069	-0,012
-349,723	-200,000	0,022	-0,095
-348,708	505,935	0,048	-0,082
-347,693	-200,000	-0,033	-0,112
-346,679	508,835	-0,028	-0,047
-345,664	-78,022	0,026	0,006
-344,650	-200,000	0,015	0,055
-343,635	266,755	0,111	0,141
-342,620	-200,000	0,007	0,072
-341,606	435,386	0,053	0,084
-340,591	379,985	-0,023	0,034
-339,577	14,295	-0,056	-0,032
-338,562	-30,057	-0,133	0,055
-337,548	-200,000	0,004	0,131
-336,533	75,660	0,099	0,076
-335,518	283,929	-0,024	-0,031
-334,504	457,120	0,049	0,079
-333,489	453,391	0,068	-0,109
-332,475	169,541	-0,099	0,103
-331,460	-20,563	0,128	-0,057
-330,445	-7,975	0,050	0,025
-329,431	316,124	0,063	0,086
-328,416	-113,428	0,119	-0,017
-327,402	-74,972	0,067	-0,017
-326,387	800,000	-0,067	-0,194
-325,372	-200,000	0,029	-0,177
-324,358	19,641	0,130	-0,075
-323,343	800,000	0,044	-0,095
-322,329	-64,409	-0,029	-0,008
-321,314	-154,062	-0,074	0,004
-320,299	800,000	0,007	0,014
-319,285	-200,000	0,000	0,176
-318,270	340,478	-0,027	-0,038
-317,256	6,264	-0,055	-0,029
-316,241	800,000	-0,016	0,038
-315,226	-89,087	-0,076	0,016
-314,212	-49,639	0,044	0,015
-313,197	-200,000	0,031	0,185
-312,183	20,402	-0,119	0,070
-311,168	100,535	-0,013	0,011
-310,153	-104,975	-0,078	-0,013
-309,139	-31,539	0,067	0,027
-308,124	-145,103	0,039	0,003
-307,110	281,094	0,056	-0,073
-306,095	34,135	-0,187	0,118
-305,080	-200,000	-0,004	0,158
-304,066	-200,000	-0,013	0,123
-303,051	-200,000	-0,007	-0,182
-302,037	800,000	0,036	-0,083
-301,022	-118,428	0,031	0,004
-300,008	119,231	0,123	-0,110
-298,993	-134,401	-0,092	0,008
-297,978	-119,632	-0,093	0,011
-296,964	-35,710	0,058	-0,023
-295,949	228,059	0,085	-0,100
-294,935	57,421	-0,165	-0,116
-293,920	-103,337	0,150	-0,025
-292,905	-200,000	-0,020	-0,077
-291,891	-19,588	0,177	0,079
-290,876	39,633	0,076	0,049
-289,862	800,000	-0,039	-0,079
-288,847	102,464	-0,153	-0,129
-287,832	-200,000	0,005	-0,026
-286,818	-200,000	0,006	0,060
-285,803	38,557	0,094	0,060
-284,789	-200,000	-0,010	-0,057
-283,774	154,302	0,054	-0,054
-282,759	293,389	-0,060	-0,079
-281,745	54,284	0,105	0,073
-280,730	163,700	-0,070	0,071
-279,716	800,000	-0,022	-0,051
-278,701	800,000	-0,027	-0,057
-277,686	-108,820	0,153	-0,023
-276,672	-200,000	0,001	0,118
-275,657	125,335	0,066	0,060
-274,643	-200,000	-0,005	-0,071
-273,628	-200,000	-0,003	0,057
-272,613	117,848	-0,060	0,053
-271,599	-95,630	-0,057	-0,011
-270,584	-31,159	0,047	-0,019
-269,570	-51,128	0,123	-0,042
-268,555	140,409	-0,087	-0,083
-267,540	588,258	0,040	0,072
-266,526	-33,019	0,206	-0,082
-265,511	296,895	-0,146	-0,194
-264,497	-49,865	0,141	-0,048
-263,482	179,177	-0,047	0,050
-262,467	800,000	0,036	0,086
-261,453	17,814	0,056	0,032
-260,438	800,000	-0,032	-0,100
-259,424	-157,904	0,052	0,002
-258,409	-200,000	0,003	-0,062
-257,395	-72,504	0,056	-0,015
-256,380	153,858	0,020	-0,020
-255,365	800,000	-0,014	0,040
-254,351	-200,000	0,002	0,075
-253,336	-49,209	0,078	-0,027
-252,322	800,000	0,031	-0,069
-251,307	800,000	0,038	0,089
-250,292	258,860	0,087	0,109
-249,278	-153,000	-0,062	-0,003
-248,263	-54,156	0,049	-0,016
-247,249	114,897	-0,037	0,032
-246,234	265,252	0,058	0,074
-245,219	-200,000	-0,014	-0,156
-244,205	663,823	-0,079	-0,148
-243,190	-200,000	0,001	-0,036
-242,176	454,264	0,072	0,115
-241,161	-200,000	0,007	0,129
-240,146	-200,000	0,000	-0,010
-239,132	-200,000	-0,013	0,068
-238,117	111,730	-0,085	-0,074
-237,103	-200,000	-0,017	-0,155
-236,088	-92,448	0,116	0,023
-235,073	-5,648	-0,064	0,032
-234,059	234,711	0,097	0,115
-233,044	-57,196	0,120	0,038
-232,030	-200,000	-0,001	-0,088
-231,015	-155,112	-0,108	0,005
-230,000	775,266	-0,019	0,038
-228,986	-133,200	-0,089	-0,008
-227,971	-25,196	0,105	0,045
-226,957	130,272	0,097	0,090
-225,942	-96,350	-0,059	0,011
-224,927	-147,245	-0,015	-0,001
-223,913	466,168	-0,045	0,073
-222,898	-200,000	0,000	0,063
-221,884	69,187	-0,170	-0,126
-220,869	766,969	0,026	-0,051
-219,855	459,746	0,116	0,187
-218,840	169,449	-0,054	0,056
-217,825	-10,850	-0,060	-0,029
-216,811	148,367	-0,096	0,094
-215,796	-200,000	-0,022	-0,079
-214,782	800,000	0,062	-0,153
-213,767	-200,000	-0,006	0,138
-212,752	339,039	0,123	-0,174
-211,738	740,697	0,020	-0,039
-210,723	-200,000	0,013	0,156
-209,709	376,571	0,022	-0,033
-208,694	63,539	0,051	-0,037
-207,679	-0,155	-0,089	-0,045
-206,665	-126,941	-0,088	0,009
-205,650	43,522	-0,021	0,014
-204,636	-44,510	0,053	0,019
-203,621	-200,000	-0,040	-0,157
-202,606	-200,000	-0,019	-0,087
-201,592	21,246	-0,046	-0,027
-200,577	49,333	0,075	-0,051
-199,563	-32,501	0,098	-0,039
-198,548	560,434	0,073	-0,127
-197,533	633,092	-0,024	0,044
-196,519	-200,000	0,015	0,149
-195,504	-200,000	-0,006	-0,052
-194,490	-200,000	0,022	0,088
-193,475	800,000	-0,015	-0,042
-192,460	-9,234	0,050	-0,024
-191,446	98,709	-0,026	0,022
-190,431	224,045	0,059	0,069
-189,417	223,141	-0,025	-0,029
-188,402	-200,000	0,020	-0,108
-187,387	-200,000	0,013	-0,094
-186,373	222,950	0,117	-0,136
-185,358	-132,308	-0,014	-0,001
-184,344	11,473	0,047	0,026
-183,329	800,000	0,023	0,064
-182,315	428,229	-0,036	0,056
-181,300	-9,152	0,087	0,042
-180,285	800,000	-0,036	-0,092
-179,271	-200,000	0,009	-0,165
-178,256	800,000	-0,017	-0,050
-177,242	209,624	-0,116	-0,132
-176,227	78,036	0,076	0,058
-175,212	-200,000	0,042	0,160
-174,198	-200,000	-0,007	0,047
-173,183	800,000	0,020	0,052
-172,169	317,876	-0,042	-0,058
-171,154	-200,000	-0,001	-0,042
-170,139	-200,000	-0,016	0,097
-169,125	489,490	0,076	0,125
-168,110	141,148	0,033	0,031
-167,096	-200,000	-0,012	0,049
-166,081	-94,688	-0,110	0,021
-165,066	-71,772	-0,123	-0,033
-164,052	-100,929	0,044	-0,008
-163,037	142,245	0,151	0,144
-162,023	114,235	0,098	0,086
-161,008	800,000	0,021	-0,052
-159,993	-5,591	0,048	0,023
-158,979	-35,906	0,094	-0,037
-157,964	-121,788	-0,249	-0,029
-156,950	800,000	-0,028	-0,061
-155,935	49,299	-0,026	-0,018
-154,920	800,000	0,030	-0,081
-153,906	213,227	-0,087	0,100
-152,891	-25,337	-0,038	-0,016
-151,877	-200,000	0,018	0,070
-150,862	-200,000	0,049	0,158
-149,847	443,505	0,006	-0,010
-148,833	-63,023	0,089	-0,026
-147,818	81,316	-0,019	-0,015
-146,804	-126,967	-0,085	-0,009
-145,789	65,853	0,098	0,072
-144,775	339,632	-0,008	0,011
-143,760	-89,998	-0,083	0,017
-142,745	297,719	0,027	-0,035
-141,731	-200,000	0,016	0,084
-140,716	-200,000	0,034	0,220
-139,702	241,013	0,109	0,131
-138,687	-200,000	0,010	0,051
-137,672	-200,000	-0,013	0,115
-136,658	186,828	0,018	-0,020
-135,643	-200,000	-0,058	-0,232
-134,629	119,229	0,022	-0,020
-133,614	800,000	-0,025	0,062
-132,599	-142,872	0,121	0,008
-131,585	-200,000	0,005	-0,080
-130,570	-64,423	0,122	0,036
-129,556	587,003	0,021	-0,037
-128,541	-200,000	-0,008	-0,071
-127,526	-200,000	-0,020	-0,081
-126,512	205,957	-0,055	-0,062
-125,497	-155,873	0,068	0,003
-124,483	800,000	0,037	0,088
-123,468	195,837	-0,018	-0,020
-122,453	265,702	0,094	0,119
-121,439	-24,925	0,072	-0,031
-120,424	64,966	0,095	-0,069
-119,410	-200,000	-0,039	-0,141
-118,395	-22,002	0,133	-0,058
-117,380	-200,000	-0,024	0,107
-116,366	59,692	-0,059	0,042
-115,351	-200,000	0,010	-0,035
-114,337	525,353	-0,044	-0,075
-113,322	800,000	0,076	-0,155
-112,307	-200,000	-0,020	0,072
-111,293	-200,000	0,017	0,069
-110,278	-9,074	-0,169	-0,081
-109,264	54,323	0,016	0,011
-108,249	-12,304	0,026	0,012
-107,234	109,712	-0,038	0,032
-106,220	131,081	-0,066	-0,061
-105,205	460,355	-0,066	0,107
-104,191	-19,844	-0,052	0,023
-103,176	-200,000	-0,036	0,119
-102,162	-83,993	-0,127	-0,029
-101,147	-27,762	0,082	-0,034
-100,132	-200,000	-0,016	-0,082
-99,118	189,722	0,037	-0,040
-98,103	-72,534	-0,035	0,009
-97,089	42,228	0,034	0,022
-96,074	95,113	-0,048	-0,039
-95,059	146,415	-0,022	0,021
-94,045	-14,427	-0,024	-0,011
-93,030	333,845	-0,091	-0,126
-92,016	43,431	-0,018	-0,012
-91,001	16,534	0,058	-0,033
-89,986	573,413	0,069	-0,121
-88,972	-11,716	0,069	-0,032
-87,957	291,171	-0,016	-0,020
-86,943	22,922	0,126	-0,074
-85,928	800,000	-0,038	-0,078
-84,913	-63,690	-0,060	-0,017
-83,899	5,774	-0,071	0,038
-82,884	800,000	0,043	0,110
-81,870	731,295	0,065	-0,125
-80,855	-200,000	-0,003	0,032
-79,840	-132,208	-0,138	0,013
-78,826	800,000	-0,037	0,077
-77,811	68,297	-0,102	0,075
-76,797	73,511	0,067	-0,050
-75,782	33,013	-0,047	0,029
-74,767	633,619	-0,079	0,144
-73,753	129,561	0,019	0,018
-72,738	-44,168	-0,130	-0,047
-71,724	264,466	0,076	-0,096
-70,709	134,679	0,059	0,055
-69,694	-200,000	0,009	0,053
-68,680	-163,881	0,048	-0,002
-67,665	-200,000	-0,018	0,070
-66,651	800,000	-0,045	0,134
-65,636	-11,341	-0,061	0,029
-64,622	10,773	0,054	0,030
-63,607	127,878	-0,062	-0,057
-62,592	-136,722	0,052	0,004
-61,578	-200,000	-0,001	-0,038
-60,563	231,663	0,121	0,143
-59,549	-200,000	-0,004	0,116
-58,534	15,511	-2,032	-1,142
-57,519	-200,000	-0,137	-0,789
-56,505	-200,000	-1,305	-5,054
-55,490	49,623	0,835	0,564
-54,476	800,000	5,378	12,215
-53,461	-200,000	17,932	289,717
-52,446	800,000	727,625	2224,224
-51,432	532,736	1640,281	2796,159
-50,417	108,788	1629,331	1396,466
-49,403	72,489	1282,932	958,508
-48,388	31,163	1025,673	629,803
-47,373	19,856	987,731	569,280
-46,359	18,134	975,815	556,755
-45,344	15,390	971,765	545,459
-44,330	15,570	970,458	545,291
-43,315	15,123	968,523	542,725
-42,300	15,057	967,534	541,934
-41,286	15,074	966,559	541,422
-40,271	15,085	965,313	540,738
-39,257	15,117	964,619	540,432
-38,242	15,066	963,820	539,798
-37,227	15,097	963,037	539,438
-36,213	15,102	962,201	538,963
-35,198	15,066	961,265	538,304
-34,184	15,112	960,527	538,016
-33,169	15,054	959,400	537,175
-32,154	15,076	958,598	536,778
-31,140	15,130	957,536	536,337
-30,125	15,098	957,187	536,017
-29,111	15,065	956,122	535,292
-28,096	15,132	955,525	535,152
-27,082	15,154	954,771	534,780
-26,067	15,079	953,989	534,079
-25,052	15,100	953,189	533,678
-24,038	15,054	952,609	533,183
-23,023	15,046	952,023	532,808
-22,009	15,092	951,243	532,497
-20,994	15,095	950,826	532,254
-19,979	15,052	950,189	531,738
-18,965	15,066	949,511	531,382
-17,950	15,075	948,821	531,004
-16,936	15,032	948,234	530,518
-15,921	15,034	947,498	530,092
-14,906	14,969	946,880	529,518
-13,892	15,018	946,270	529,310
-12,877	14,967	945,525	528,710
-11,863	14,925	945,047	528,289
-10,848	14,952	944,386	527,985
-9,833	15,106	943,872	528,166
-8,819	15,013	943,363	527,564
-7,804	15,003	942,617	527,095
-6,790	15,047	942,069	526,906
-5,775	15,064	941,633	526,696
-4,760	15,048	940,765	526,138
-3,746	14,992	940,270	525,665
-2,731	14,884	939,441	524,838
-1,717	14,833	938,826	524,313
-0,702	14,825	938,281	523,962
0,313	14,681	937,532	523,880
1,327	18,109	935,511	533,484
2,342	27,490	789,086	474,663
3,356	24,144	443,876	262,039
4,371	-5,550	294,998	144,534
5,386	-9,807	276,872	131,611
6,400	-11,107	271,215	127,704
7,415	-11,173	268,869	126,527
8,429	-11,024	267,441	125,980
9,444	-10,954	266,539	125,608
10,459	-11,114	266,056	125,224
11,473	-11,166	265,177	124,751
12,488	-11,124	264,810	124,607
13,502	-11,456	264,191	124,004
14,517	-11,410	263,795	123,848
15,531	-11,385	263,529	123,735
16,546	-11,195	262,968	123,631
17,561	-11,296	262,605	123,359
18,575	-11,189	262,281	123,291
19,590	-11,172	262,024	123,174
20,604	-11,210	261,854	123,050
21,619	-11,381	261,514	122,726
22,634	-11,444	261,035	122,435
23,648	-11,468	260,859	122,319
24,663	-11,407	260,588	122,236
25,677	-11,288	260,228	122,162
26,692	-11,291	259,897	121,994
27,707	-11,247	259,764	121,959
28,721	-11,275	259,358	121,732
29,736	-11,400	259,116	121,498
30,750	-11,446	258,914	121,351
31,765	-11,251	258,607	121,369
32,780	-11,277	258,462	121,267
33,794	-11,363	258,270	121,090
34,809	-11,347	258,033	120,983
35,823	-11,471	257,733	120,722
36,838	-11,303	257,290	120,651
37,853	-11,617	257,211	120,328
38,867	-11,364	256,835	120,362
39,882	-11,423	256,737	120,255
40,896	-11,399	256,430	120,121
41,911	-11,388	256,111	119,970
42,926	-11,263	255,958	119,997
43,940	-11,467	255,876	119,770
44,955	-11,399	255,619	119,699
45,969	-11,604	255,278	119,350
46,984	-11,884	255,064	118,995
47,999	-12,153	254,831	118,642
49,013	-11,912	254,544	118,707
50,028	-12,334	254,270	118,202
51,042	-12,421	254,091	118,033
52,057	-12,239	253,794	118,043
53,071	-12,043	253,376	118,007
54,086	-12,211	253,492	117,905
55,101	-12,138	253,291	117,864
56,115	-11,981	253,118	117,908
57,130	-11,520	253,097	118,286
58,144	-11,292	252,872	118,367
59,159	-11,065	252,672	118,458
60,174	-11,179	252,336	118,192
61,188	-11,295	252,124	117,983
62,203	-11,278	252,092	117,972
63,217	-11,167	251,804	117,922
64,232	-11,135	251,572	117,830
65,247	-11,138	251,378	117,726
66,261	-11,315	251,151	117,458
67,276	-11,532	250,883	117,136
68,290	-11,658	250,619	116,896
69,305	-11,896	250,426	116,592
70,320	-11,882	250,244	116,509
71,334	-11,618	249,981	116,600
72,349	-11,278	249,928	116,855
73,363	-11,199	249,790	116,847
74,378	-11,262	249,536	116,664
75,393	-11,268	249,281	116,530
76,407	-11,410	249,179	116,350
77,422	-11,326	248,934	116,297
78,436	-11,469	248,625	116,022
79,451	-11,487	248,520	115,947
80,466	-11,405	248,034	115,779
81,480	-11,670	248,027	115,542
82,495	-11,499	247,657	115,504
83,509	-11,500	247,606	115,469
84,524	-11,674	247,519	115,272
85,539	-11,581	247,028	115,110
86,553	-11,872	247,051	114,867
87,568	-11,599	246,945	115,036
88,582	-11,589	246,541	114,846
89,597	-11,736	246,459	114,674
90,611	-11,477	246,258	114,787
91,626	-11,568	246,226	114,686
92,641	-11,353	245,978	114,740
93,655	-11,535	245,674	114,436
94,670	-11,567	245,460	114,300
95,684	-11,358	245,215	114,350
96,699	-11,561	245,123	114,127
97,714	-11,604	245,037	114,041
98,728	-11,787	244,789	113,764
99,743	-11,633	244,476	113,736
100,757	-11,770	244,185	113,477
101,772	-11,832	244,171	113,408
102,787	-11,500	243,957	113,574
103,801	-11,635	243,716	113,340
104,816	-11,497	243,495	113,341
105,830	-11,486	243,491	113,338
106,845	-11,343	243,347	113,379
107,860	-11,282	243,061	113,286
108,874	-11,431	242,841	113,051
109,889	-11,522	242,556	112,833
110,903	-11,706	242,401	112,600
111,918	-11,769	242,291	112,487
112,933	-11,529	242,128	112,598
113,947	-11,592	241,946	112,452
114,962	-11,419	241,772	112,503
115,976	-11,365	241,651	112,481
116,991	-11,581	241,533	112,239
118,006	-11,471	241,211	112,169
119,020	-11,489	241,137	112,110
120,035	-11,256	240,920	112,189
121,049	-11,135	240,864	112,252
122,064	-11,224	240,763	112,122
123,079	-11,451	240,372	111,746
124,093	-11,623	240,184	111,508
125,108	-11,665	240,040	111,397
126,122	-11,831	239,814	111,147
127,137	-12,133	239,523	110,757
128,151	-11,853	239,426	110,930
129,166	-11,625	239,174	110,988
130,181	-11,934	239,093	110,690
131,195	-11,746	238,800	110,697
132,210	-11,705	238,735	110,690
133,224	-11,635	238,554	110,653
134,239	-11,338	238,507	110,861
135,254	-11,353	237,958	110,583
136,268	-11,497	237,860	110,412
137,283	-11,777	237,777	110,139
138,297	-11,876	237,476	109,910
139,312	-11,996	237,429	109,782
140,327	-11,670	237,275	109,963
141,341	-11,348	237,283	110,215
142,356	-11,043	237,143	110,385
143,370	-10,965	236,988	110,365
144,385	-11,229	236,932	110,118
145,400	-11,023	236,623	110,129
146,414	-11,094	236,529	110,019
147,429	-11,343	236,307	109,707
148,443	-11,194	236,209	109,771
149,458	-11,188	235,884	109,615
150,473	-11,090	235,722	109,608
151,487	-11,166	235,501	109,435
152,502	-11,250	235,521	109,367
153,516	-11,035	235,133	109,348
154,531	-10,940	234,895	109,303
155,546	-11,361	234,973	108,995
156,560	-11,289	234,719	108,925
157,575	-11,344	234,568	108,801
158,589	-11,198	234,197	108,735
159,604	-11,075	234,128	108,790
160,619	-10,985	234,132	108,854
161,633	-10,994	233,777	108,672
162,648	-11,189	233,872	108,553
163,662	-11,163	233,502	108,392
164,677	-11,095	233,372	108,375
165,692	-11,077	233,267	108,331
166,706	-10,924	233,051	108,342
167,721	-10,906	233,025	108,334
168,735	-11,099	233,007	108,165
169,750	-11,054	232,717	108,055
170,764	-11,240	232,538	107,817
171,779	-10,978	232,292	107,898
172,794	-11,130	232,278	107,763
173,808	-11,054	231,916	107,645
174,823	-11,641	231,785	107,116
175,837	-11,767	231,563	106,905
176,852	-11,380	231,515	107,175
177,867	-11,110	231,374	107,312
178,881	-10,956	231,230	107,355
179,896	-11,006	231,039	107,218
180,910	-10,936	230,979	107,235
181,925	-11,244	230,942	106,968
182,940	-11,109	230,689	106,947
183,954	-10,820	230,374	107,016
184,969	-10,969	230,391	106,898
185,983	-10,781	230,160	106,927
186,998	-11,073	230,220	106,719
188,013	-10,935	229,902	106,669
189,027	-10,869	229,694	106,614
190,042	-11,125	229,690	106,405
191,056	-11,045	229,524	106,380
192,071	-10,825	229,149	106,367
193,086	-10,815	229,019	106,305
194,100	-11,077	229,034	106,100
195,115	-11,289	228,501	105,680
196,129	-11,310	228,777	105,782
197,144	-6,307	230,309	110,357
198,159	-0,703	231,745	115,390
199,173	2,593	232,792	118,468
200,188	3,080	232,632	118,754
201,202	2,993	232,587	118,653
202,217	3,213	232,567	118,803
203,232	3,523	232,394	118,944
204,246	3,462	232,295	118,836
205,261	3,720	232,131	118,941
206,275	3,941	231,986	119,027
207,290	3,906	231,829	118,909
208,304	3,791	231,719	118,753
209,319	3,740	231,515	118,599
210,334	3,688	231,343	118,460
211,348	3,513	231,027	118,153
212,363	3,006	230,855	117,664
213,377	2,879	230,655	117,454
214,392	2,969	230,554	117,461
215,407	2,932	230,390	117,338
216,421	3,080	230,252	117,371
217,436	3,019	230,124	117,249
218,450	2,799	229,937	116,974
219,465	2,734	229,570	116,728
220,480	2,999	229,470	116,869
221,494	2,814	229,446	116,705
222,509	3,070	229,313	116,823
223,523	3,132	229,193	116,798
224,538	2,814	229,143	116,519
225,553	3,185	228,631	116,531
226,567	2,906	228,770	116,379
227,582	3,255	228,666	116,582
228,596	3,328	228,615	116,601
229,611	3,159	228,201	116,251
230,626	3,047	228,013	116,060
231,640	2,817	227,795	115,764
232,655	3,025	227,927	115,979
233,669	3,489	227,794	116,253
234,684	3,568	227,624	116,215
235,699	3,328	227,582	116,002
236,713	3,022	227,274	115,603
237,728	3,036	226,981	115,454
238,742	2,907	226,800	115,254
239,757	2,885	226,707	115,180
240,772	2,925	226,489	115,089
241,786	2,958	226,464	115,091
242,801	3,153	226,390	115,191
243,815	3,447	226,380	115,396
244,830	3,406	226,211	115,269
245,844	3,035	225,916	114,829
246,859	3,030	225,755	114,733
247,874	3,283	225,619	114,844
248,888	3,359	225,507	114,834
249,903	3,427	225,293	114,766
250,917	2,980	225,204	114,376
251,932	3,112	224,989	114,355
252,947	2,894	224,834	114,102
253,961	2,774	224,748	113,959
254,976	3,132	224,509	114,095
255,990	3,300	224,558	114,235
257,005	3,054	224,439	113,981
258,020	3,243	224,402	114,093
259,034	3,451	224,020	114,043
260,049	3,257	223,931	113,844
261,063	3,097	223,776	113,636
262,078	3,470	223,631	113,829
263,093	3,292	223,561	113,651
264,107	3,308	223,444	113,593
265,122	3,326	223,327	113,537
266,136	3,411	223,224	113,538
267,151	3,530	222,919	113,461
268,166	3,122	222,726	113,050
269,180	2,643	222,656	112,651
270,195	2,971	222,450	112,779
271,209	3,073	222,192	112,713
272,224	2,828	222,310	112,582
273,239	3,232	221,919	112,671
274,253	3,055	221,808	112,475
275,268	2,898	221,588	112,238
276,282	2,752	221,599	112,126
277,297	2,888	221,394	112,112
278,312	2,897	221,118	111,969
279,326	2,955	221,193	112,040
280,341	3,130	221,026	112,073
281,355	3,111	220,838	111,954
282,370	3,085	220,693	111,852
283,384	2,760	220,483	111,497
284,399	2,604	220,340	111,301
285,414	2,631	220,152	111,216
286,428	2,947	220,147	111,435
287,443	2,924	220,207	111,438
288,457	3,506	219,891	111,692
289,472	2,920	219,758	111,188
290,487	2,309	219,512	110,609
291,501	2,689	219,374	110,806
292,516	2,789	219,130	110,746
293,530	2,943	219,013	110,788
294,545	2,778	219,004	110,654
295,560	2,847	218,908	110,646
296,574	3,067	218,703	110,692
297,589	3,049	218,709	110,672
298,603	3,061	218,520	110,575
299,618	3,062	218,295	110,452
300,633	3,097	218,321	110,481
301,647	3,364	218,254	110,630
302,662	3,404	217,927	110,483
303,676	3,103	217,888	110,237
304,691	3,258	217,778	110,283
305,706	3,417	217,491	110,242
306,720	3,163	217,519	110,063
307,735	2,908	217,180	109,699
308,749	2,921	217,067	109,641
309,764	3,219	216,965	109,794
310,779	3,259	216,946	109,803
311,793	3,070	216,796	109,582
312,808	3,134	216,695	109,567
313,822	3,348	216,226	109,473
314,837	2,908	216,216	109,144
315,852	2,711	216,114	108,942
316,866	2,979	215,921	109,026
317,881	3,227	215,833	109,149
318,895	3,015	215,875	109,009
319,910	2,779	215,633	108,709
320,925	2,797	215,229	108,508
321,939	2,572	215,120	108,283
322,954	2,732	215,028	108,342
323,968	3,030	214,964	108,511
324,983	3,365	214,732	108,622
325,997	3,490	214,676	108,673
327,012	3,050	214,617	108,321
328,027	3,010	214,478	108,213
329,041	3,279	214,466	108,388
330,056	3,310	214,242	108,287
331,070	2,854	213,980	107,823
332,085	2,485	213,843	107,483
333,100	2,525	213,672	107,416
334,114	2,883	213,694	107,670
335,129	3,271	213,453	107,813
336,143	3,011	213,330	107,557
337,158	3,072	213,189	107,520
338,173	3,107	213,069	107,474
339,187	2,902	212,969	107,271
340,202	2,767	212,714	107,037
341,216	2,804	212,607	107,000
342,231	2,977	212,635	107,126
343,246	2,873	212,302	106,876
344,260	2,808	212,431	106,886
345,275	3,157	212,231	107,019
346,289	3,338	212,157	107,099
347,304	3,044	211,974	106,792
348,319	3,039	211,789	106,686
349,333	2,880	211,488	106,414
350,348	3,108	211,553	106,596
351,362	3,503	211,442	106,806
352,377	3,306	211,243	106,559
353,392	3,108	211,050	106,314
354,406	3,043	210,914	106,191
355,421	196,119	1340,688	1419,807
356,435	156,665	1478,301	1419,771
