DTS Sentinel unit serial number:	SN410029Multiplexer serial number:	ORYXHardware model number:	OX2-SRSoftware version number:	ORYX F/W v4,00 Oryx Data Collector v3.7.2.0data status	okinstallation	B6 Nyhavnadifferential loss correction	single-endedforward channel	channel 2reverse channel	N/Adate	2023/12/07time	15:05:08forward acquisition time	300,00reverse acquisition time	0,00gamma	499,1914k internal	0,3144k external	0,3144temperature offset calibration	1,0000default loss term (dB/km)	0,3820temperature slope calibration	1,0000multiplexer offset coefficient	1,0000multiplexer slope coefficient	1,0000fibre end	0,00T internal ref (°C)	14,20T ext. ref 1 (°C)	-1,85T ext. ref 2 (°C)	-1,84length (m)	temperature (°C)	Stokes	anti-Stokes-744,400	76,742	0,104	0,082
-743,385	-125,773	-0,222	-0,025
-742,371	-200,000	0,035	0,135
-741,356	-162,677	-0,344	-0,012
-740,342	54,307	0,188	0,134
-739,327	-145,786	-0,234	-0,015
-738,312	585,455	0,050	0,091
-737,298	-146,990	-0,331	0,021
-736,283	-130,322	-0,016	-0,002
-735,269	-16,249	-0,248	-0,116
-734,254	173,437	0,132	0,141
-733,239	-32,265	-0,508	-0,209
-732,225	-99,022	0,205	0,038
-731,210	-200,000	-0,007	0,240
-730,196	-104,982	-0,133	0,022
-729,181	534,730	0,078	-0,138
-728,167	-150,256	-0,124	-0,007
-727,152	151,156	-0,043	-0,043
-726,137	-53,109	-0,135	-0,046
-725,123	14,323	-0,134	0,077
-724,108	800,000	-0,023	-0,074
-723,094	-110,276	-0,191	0,029
-722,079	-145,047	-0,095	-0,006
-721,064	391,922	-0,078	0,120
-720,050	-161,985	0,111	-0,004
-719,035	-200,000	0,034	-0,120
-718,021	158,458	-0,068	0,070
-717,006	-200,000	-0,008	0,030
-715,991	-200,000	-0,005	0,086
-714,977	289,243	-0,094	0,127
-713,962	-44,017	0,085	-0,031
-712,948	800,000	0,017	-0,053
-711,933	800,000	-0,059	-0,127
-710,918	800,000	0,013	0,035
-709,904	206,857	-0,049	0,057
-708,889	334,614	-0,075	-0,107
-707,875	34,318	-0,064	-0,041
-706,860	-36,449	0,171	0,068
-705,845	800,000	-0,071	-0,192
-704,831	800,000	-0,010	0,030
-703,816	-197,976	-0,141	-0,001
-702,802	104,653	-0,084	0,073
-701,787	-200,000	-0,015	-0,050
-700,772	576,311	0,060	-0,108
-699,758	-49,891	-0,216	-0,075
-698,743	-200,000	0,002	0,013
-697,729	434,009	0,094	0,152
-696,714	146,854	-0,095	-0,095
-695,699	98,942	0,070	-0,060
-694,685	-200,000	-0,033	0,000
-693,670	-43,573	-0,028	-0,011
-692,656	-71,743	-0,034	0,009
-691,641	-200,000	0,027	0,131
-690,627	-178,388	0,144	-0,002
-689,612	-98,737	-0,064	-0,012
-688,597	800,000	0,028	-0,065
-687,583	764,104	-0,023	-0,046
-686,568	447,385	0,106	-0,172
-685,554	310,616	-0,048	-0,067
-684,539	41,760	-0,070	-0,047
-683,524	260,555	-0,056	0,071
-682,510	-175,366	0,107	0,002
-681,495	224,671	-0,101	-0,121
-680,481	-200,000	0,008	0,064
-679,466	-200,000	-0,009	-0,066
-678,451	800,000	-0,049	-0,160
-677,437	304,599	-0,073	0,101
-676,422	-14,883	0,016	0,008
-675,408	22,670	-0,038	-0,023
-674,393	33,402	-0,156	-0,100
-673,378	396,467	-0,040	-0,062
-672,364	-200,000	-0,002	0,048
-671,349	800,000	0,044	-0,129
-670,335	-80,568	-0,087	0,021
-669,320	800,000	-0,042	-0,089
-668,305	-47,625	-0,064	-0,023
-667,291	306,052	0,041	-0,057
-666,276	434,087	-0,051	-0,082
-665,262	-200,000	0,014	-0,064
-664,247	167,663	0,042	-0,044
-663,232	111,989	0,101	-0,090
-662,218	4,816	0,116	-0,063
-661,203	1,404	0,029	0,016
-660,189	-200,000	0,005	-0,118
-659,174	-43,264	-0,039	0,014
-658,159	197,788	-0,031	0,035
-657,145	-200,000	0,000	0,044
-656,130	150,737	0,110	-0,110
-655,116	-200,000	-0,005	-0,017
-654,101	14,948	0,031	-0,018
-653,086	-98,234	-0,067	0,013
-652,072	-22,245	0,102	0,045
-651,057	-72,293	-0,190	0,052
-650,043	296,052	-0,067	-0,090
-649,028	-7,148	0,035	-0,017
-648,014	-76,202	-0,188	0,049
-646,999	-200,000	-0,029	0,104
-645,984	236,706	0,038	-0,046
-644,970	45,855	-0,153	-0,104
-643,955	-29,906	-0,200	-0,084
-642,941	280,924	0,035	-0,046
-641,926	-19,583	0,007	0,003
-640,911	-120,384	-0,092	-0,011
-639,897	-200,000	-0,002	-0,053
-638,882	-200,000	0,013	-0,054
-637,868	-111,205	-0,179	0,027
-636,853	494,186	-0,029	0,049
-635,838	-144,601	-0,099	-0,007
-634,824	336,755	0,063	-0,091
-633,809	478,205	0,051	0,086
-632,795	-29,348	0,042	-0,018
-631,780	-37,056	-0,023	-0,009
-630,765	68,824	0,038	0,029
-629,751	800,000	-0,025	0,058
-628,736	800,000	0,022	0,065
-627,722	-42,631	-0,095	-0,036
-626,707	-27,983	-0,105	-0,045
-625,692	-59,576	0,043	0,014
-624,678	800,000	-0,023	0,059
-623,663	-62,382	0,162	0,049
-622,649	138,989	-0,075	-0,073
-621,634	-50,456	-0,116	0,040
-620,619	-96,204	-0,156	-0,030
-619,605	327,869	0,091	-0,129
-618,590	-2,707	0,060	-0,031
-617,576	-46,206	0,120	0,043
-616,561	-200,000	-0,048	-0,177
-615,546	-200,000	-0,004	-0,038
-614,532	364,990	-0,056	0,083
-613,517	396,767	0,028	-0,043
-612,503	800,000	0,020	0,053
-611,488	-67,028	0,019	0,006
-610,474	-39,564	-0,050	-0,019
-609,459	721,966	0,020	0,040
-608,444	64,414	0,067	-0,050
-607,430	48,712	-0,091	-0,063
-606,415	-67,402	0,099	0,029
-605,401	290,748	-0,070	-0,095
-604,386	1,744	-0,047	-0,025
-603,371	-102,463	0,054	0,009
-602,357	-107,074	-0,065	-0,010
-601,342	518,654	-0,074	-0,128
-600,328	3,729	0,145	-0,077
-599,313	40,101	0,052	0,034
-598,298	-200,000	0,002	0,030
-597,284	5,470	-0,041	-0,022
-596,269	-200,000	0,024	0,140
-595,255	-70,751	0,230	0,064
-594,240	494,877	-0,045	-0,077
-593,225	-200,000	-0,034	0,137
-592,211	86,360	-0,127	-0,103
-591,196	800,000	-0,030	0,096
-590,182	134,412	-0,109	-0,104
-589,167	522,310	-0,042	0,074
-588,152	-200,000	0,047	0,170
-587,138	-200,000	-0,039	0,155
-586,123	241,719	0,096	-0,119
-585,109	3,528	-0,080	-0,043
-584,094	39,133	0,049	-0,032
-583,079	458,037	-0,078	0,128
-582,065	703,546	0,026	-0,051
-581,050	270,811	0,038	0,050
-580,036	800,000	-0,069	0,173
-579,021	379,632	-0,005	0,007
-578,006	-200,000	-0,005	0,023
-576,992	281,485	-0,043	-0,057
-575,977	800,000	0,017	0,053
-574,963	243,011	0,014	0,018
-573,948	793,075	-0,023	0,047
-572,934	-56,113	0,074	0,024
-571,919	-30,093	-0,099	0,041
-570,904	-200,000	-0,018	-0,067
-569,890	-200,000	-0,023	-0,099
-568,875	-200,000	-0,006	0,092
-567,861	28,829	0,061	0,038
-566,846	-200,000	0,013	0,200
-565,831	-120,689	0,101	0,012
-564,817	273,574	-0,058	-0,076
-563,802	116,408	-0,061	-0,055
-562,788	800,000	-0,020	0,042
-561,773	96,260	0,046	0,039
-560,758	-112,110	-0,052	-0,008
-559,744	800,000	-0,010	0,032
-558,729	29,464	-0,026	-0,016
-557,715	-200,000	-0,007	0,057
-556,700	529,900	0,045	-0,078
-555,685	-45,840	-0,237	-0,086
-554,671	798,391	-0,038	0,076
-553,656	118,100	0,054	0,049
-552,642	130,625	0,036	-0,034
-551,627	800,000	-0,011	0,023
-550,612	800,000	-0,058	0,168
-549,598	365,655	-0,038	0,057
-548,583	-190,478	-0,092	0,001
-547,569	-200,000	-0,020	0,131
-546,554	650,652	0,073	0,139
-545,539	-77,026	0,135	0,034
-544,525	-200,000	0,016	-0,069
-543,510	800,000	0,031	0,072
-542,496	-200,000	-0,024	-0,080
-541,481	-85,425	-0,103	-0,023
-540,466	59,410	-0,083	0,060
-539,452	800,000	-0,039	0,088
-538,437	-32,575	0,029	-0,012
-537,423	-200,000	-0,005	0,044
-536,408	99,907	0,114	-0,097
-535,393	-200,000	0,002	-0,035
-534,379	129,569	-0,111	-0,105
-533,364	-200,000	-0,035	-0,113
-532,350	-200,000	0,033	-0,140
-531,335	800,000	-0,014	-0,043
-530,321	24,990	0,055	0,034
-529,306	136,307	-0,094	0,091
-528,291	-60,971	0,140	0,043
-527,277	210,752	0,045	0,052
-526,262	183,060	-0,059	-0,065
-525,248	-200,000	0,021	0,119
-524,233	-200,000	-0,021	0,095
-523,218	24,627	-0,108	0,065
-522,204	81,340	0,080	-0,064
-521,189	631,527	-0,077	-0,143
-520,175	62,511	0,028	-0,021
-519,160	-200,000	-0,003	0,115
-518,145	-200,000	-0,010	-0,119
-517,131	-200,000	-0,005	-0,020
-516,116	178,787	0,079	0,085
-515,102	213,480	0,027	0,031
-514,087	-200,000	-0,011	-0,151
-513,072	19,771	0,091	-0,053
-512,058	-200,000	-0,014	-0,093
-511,043	-200,000	-0,017	0,061
-510,029	104,409	0,104	0,090
-509,014	-46,097	0,108	-0,039
-507,999	68,113	-0,048	-0,036
-506,985	-86,970	0,053	-0,012
-505,970	326,995	-0,150	-0,212
-504,956	-66,383	0,089	-0,026
-503,941	800,000	-0,047	-0,096
-502,926	-161,965	-0,123	0,004
-501,912	-200,000	-0,000	-0,003
-500,897	-89,408	-0,078	0,017
-499,883	-105,457	-0,186	0,031
-498,868	91,751	-0,123	-0,102
-497,853	-200,000	-0,020	-0,143
-496,839	-101,060	0,168	-0,030
-495,824	-187,056	0,049	-0,000
-494,810	-86,214	0,189	0,042
-493,795	212,059	-0,056	-0,065
-492,781	107,730	-0,080	0,070
-491,766	22,756	0,054	-0,032
-490,751	-73,009	-0,096	-0,026
-489,737	172,276	0,097	0,102
-488,722	217,877	0,091	0,107
-487,708	792,718	-0,064	0,130
-486,693	322,333	-0,083	0,117
-485,678	16,717	-0,021	-0,012
-484,664	800,000	-0,063	-0,199
-483,649	-57,492	-0,199	-0,064
-482,635	-160,937	-0,118	0,004
-481,620	668,174	0,071	0,135
-480,605	-189,408	-0,059	-0,000
-479,591	-43,452	0,134	0,049
-478,576	-123,904	-0,159	-0,018
-477,562	-78,731	-0,151	-0,038
-476,547	-200,000	0,025	-0,083
-475,532	661,287	0,014	0,027
-474,518	-26,417	0,103	-0,044
-473,503	51,344	-0,011	-0,008
-472,489	66,272	-0,084	0,062
-471,474	79,341	0,092	-0,072
-470,459	418,102	0,071	-0,112
-469,445	-88,720	-0,225	0,049
-468,430	31,019	0,090	-0,057
-467,416	-200,000	-0,013	-0,196
-466,401	12,123	0,066	-0,037
-465,386	-200,000	0,018	0,125
-464,372	800,000	0,046	0,097
-463,357	800,000	-0,047	0,136
-462,343	255,987	0,032	-0,040
-461,328	-46,228	0,028	-0,010
-460,313	-57,641	0,052	0,017
-459,299	-23,418	-0,129	0,057
-458,284	144,458	0,093	0,091
-457,270	-33,953	-0,022	0,009
-456,255	800,000	-0,042	0,123
-455,241	186,658	-0,080	-0,087
-454,226	800,000	0,043	0,110
-453,211	-200,000	-0,017	-0,082
-452,197	58,015	0,088	0,063
-451,182	800,000	-0,023	0,059
-450,168	-200,000	-0,009	-0,080
-449,153	-20,841	0,119	-0,053
-448,138	-97,184	-0,039	-0,007
-447,124	-31,729	-0,082	-0,034
-446,109	209,204	0,070	0,080
-445,095	800,000	0,005	0,011
-444,080	-200,000	-0,023	0,124
-443,065	733,171	0,012	0,025
-442,051	79,883	0,096	0,075
-441,036	-180,461	-0,047	-0,001
-440,022	-200,000	-0,001	-0,028
-439,007	800,000	-0,014	-0,046
-437,992	488,174	-0,002	-0,003
-436,978	172,446	0,166	0,175
-435,963	-88,947	-0,069	-0,015
-434,949	-163,327	-0,165	-0,006
-433,934	73,307	-0,161	-0,123
-432,919	-200,000	-0,005	-0,058
-431,905	702,409	0,074	0,143
-430,890	800,000	0,029	0,062
-429,876	-80,719	0,044	0,011
-428,861	-67,389	0,088	-0,025
-427,846	-200,000	-0,011	0,152
-426,832	67,084	0,022	-0,016
-425,817	-200,000	-0,029	-0,131
-424,803	354,562	0,009	0,013
-423,788	-164,700	0,125	0,004
-422,773	179,970	0,021	0,022
-421,759	-5,466	0,050	-0,025
-420,744	48,754	-0,078	-0,054
-419,730	48,303	0,022	0,015
-418,715	689,015	0,035	0,068
-417,701	-103,162	-0,120	-0,020
-416,686	-154,529	0,073	0,004
-415,671	800,000	0,049	-0,139
-414,657	-91,737	0,037	-0,008
-413,642	684,503	0,042	-0,080
-412,628	800,000	0,036	0,093
-411,613	-102,126	-0,067	-0,012
-410,598	349,655	-0,082	0,119
-409,584	8,420	0,032	-0,017
-408,569	181,390	-0,040	-0,043
-407,555	17,816	0,098	0,057
-406,540	-104,213	0,036	0,006
-405,525	-118,388	-0,148	0,019
-404,511	278,486	-0,111	-0,145
-403,496	95,897	-0,101	-0,084
-402,482	59,239	-0,040	0,029
-401,467	-31,544	0,124	-0,051
-400,452	-42,061	0,111	-0,041
-399,438	-118,180	0,160	0,021
-398,423	800,000	-0,033	-0,095
-397,409	-26,554	-0,039	0,017
-396,394	-5,814	0,128	0,064
-395,379	-200,000	0,031	0,118
-394,365	-129,896	0,196	0,019
-393,350	364,670	0,044	-0,065
-392,336	-200,000	-0,006	0,199
-391,321	-37,430	-0,074	0,029
-390,306	-8,891	0,024	0,012
-389,292	800,000	-0,022	-0,054
-388,277	223,691	0,082	0,097
-387,263	401,021	0,006	-0,009
-386,248	-101,508	-0,051	0,009
-385,233	-82,494	-0,052	0,012
-384,219	-200,000	0,008	0,032
-383,204	-200,000	0,000	0,044
-382,190	800,000	-0,035	-0,095
-381,175	800,000	-0,018	-0,047
-380,160	100,774	0,073	0,062
-379,146	283,848	-0,060	-0,079
-378,131	800,000	0,065	0,167
-377,117	-11,894	-0,127	0,061
-376,102	193,879	0,047	-0,052
-375,088	800,000	0,030	-0,084
-374,073	70,491	-0,056	0,042
-373,058	-200,000	0,021	0,118
-372,044	800,000	0,068	0,160
-371,029	105,598	-0,099	-0,085
-370,015	49,043	0,104	0,071
-369,000	-120,888	0,071	0,009
-367,985	800,000	-0,014	-0,042
-366,971	403,142	-0,036	0,055
-365,956	-150,076	0,071	0,004
-364,942	-200,000	-0,004	0,133
-363,927	119,895	0,101	0,091
-362,912	-200,000	-0,022	0,192
-361,898	206,296	-0,074	0,084
-360,883	117,671	0,173	-0,155
-359,869	-81,937	0,104	0,025
-358,854	125,727	-0,074	0,068
-357,839	-28,477	0,096	-0,040
-356,825	-200,000	0,002	0,109
-355,810	-200,000	0,012	-0,052
-354,796	307,850	0,039	-0,053
-353,781	-200,000	0,003	-0,077
-352,766	-6,320	0,028	0,014
-351,752	-200,000	-0,007	-0,109
-350,737	800,000	0,025	0,075
-349,723	429,452	-0,040	0,063
-348,708	-105,059	0,031	0,005
-347,693	-200,000	0,019	-0,068
-346,679	-105,483	0,056	-0,009
-345,664	128,109	-0,085	-0,079
-344,650	800,000	-0,014	0,042
-343,635	288,009	0,039	0,052
-342,620	190,753	0,096	0,105
-341,606	-170,986	-0,100	-0,002
-340,591	64,581	0,057	-0,042
-339,577	55,229	-0,134	-0,094
-338,562	-12,954	-0,063	0,030
-337,548	-184,510	0,088	-0,001
-336,533	171,779	0,071	-0,075
-335,518	-200,000	-0,030	0,123
-334,504	29,456	-0,027	-0,017
-333,489	800,000	0,078	-0,184
-332,475	-200,000	-0,021	-0,084
-331,460	191,207	-0,197	-0,216
-330,445	800,000	-0,061	-0,169
-329,431	2,771	-0,047	-0,025
-328,416	443,045	-0,015	0,024
-327,402	782,144	0,030	0,060
-326,387	-37,631	-0,093	0,036
-325,372	-200,000	0,028	-0,152
-324,358	-200,000	0,049	0,162
-323,343	14,441	0,040	-0,023
-322,329	303,857	0,038	-0,051
-321,314	800,000	0,079	0,166
-320,299	-200,000	0,027	0,169
-319,285	-118,148	0,118	0,015
-318,270	-200,000	-0,015	-0,096
-317,256	32,010	0,087	-0,054
-316,241	-14,610	-0,053	0,025
-315,226	182,058	0,055	0,059
-314,212	242,200	0,042	0,052
-313,197	-200,000	0,012	0,115
-312,183	56,357	0,055	0,039
-311,168	-200,000	0,025	0,126
-310,153	14,502	0,087	-0,050
-309,139	-153,215	-0,163	-0,008
-308,124	-194,433	0,141	0,001
-307,110	-128,950	0,057	-0,006
-306,095	39,776	-0,061	0,040
-305,080	-72,264	0,202	0,054
-304,066	800,000	-0,056	-0,121
-303,051	251,465	-0,034	-0,042
-302,037	-200,000	-0,022	-0,080
-301,022	800,000	0,036	-0,079
-300,008	-1,979	-0,136	-0,070
-298,993	800,000	-0,029	0,063
-297,978	91,670	-0,108	0,089
-296,964	-163,244	-0,121	-0,004
-295,949	-200,000	-0,014	0,065
-294,935	800,000	-0,007	0,021
-293,920	-160,465	-0,100	0,004
-292,905	-21,097	-0,041	-0,018
-291,891	-151,983	-0,094	0,005
-290,876	-2,253	0,044	-0,022
-289,862	-128,352	-0,154	-0,016
-288,847	-132,993	0,093	0,008
-287,832	98,617	-0,057	-0,048
-286,818	-200,000	-0,008	0,124
-285,803	800,000	0,058	0,159
-284,789	-200,000	-0,012	0,117
-283,774	-37,063	-0,187	-0,073
-282,759	-80,247	0,070	-0,017
-281,745	-200,000	-0,005	-0,069
-280,730	-200,000	0,036	-0,121
-279,716	71,587	0,060	-0,045
-278,701	93,339	0,034	-0,028
-277,686	334,872	-0,039	0,054
-276,672	32,736	0,064	0,040
-275,657	-200,000	-0,017	0,139
-274,643	399,080	-0,079	-0,121
-273,628	800,000	0,019	0,039
-272,613	-200,000	0,014	0,048
-271,599	-80,367	0,043	0,010
-270,584	-200,000	-0,006	0,152
-269,570	-200,000	0,024	0,081
-268,555	675,284	-0,025	0,048
-267,540	-130,018	-0,209	-0,020
-266,526	-200,000	0,010	-0,046
-265,511	-137,576	-0,067	0,005
-264,497	216,424	0,048	0,055
-263,482	136,742	0,014	-0,013
-262,467	-137,014	-0,077	0,006
-261,453	356,368	-0,039	-0,057
-260,438	41,384	-0,078	-0,051
-259,424	800,000	-0,024	-0,052
-258,409	270,292	0,046	0,059
-257,395	-30,265	0,054	-0,022
-256,380	800,000	-0,028	-0,089
-255,365	641,820	0,029	-0,055
-254,351	800,000	-0,056	-0,172
-253,336	800,000	0,072	-0,154
-252,322	134,477	0,055	0,052
-251,307	681,960	0,061	-0,116
-250,292	-151,128	0,082	0,004
-249,278	-99,766	0,051	-0,009
-248,263	-9,494	0,135	-0,065
-247,249	-200,000	-0,004	-0,013
-246,234	306,329	-0,074	-0,101
-245,219	184,443	-0,052	0,056
-244,205	-107,803	-0,118	-0,019
-243,190	-144,730	0,014	0,001
-242,176	800,000	0,027	-0,066
-241,161	-23,674	-0,022	-0,009
-240,146	-1,125	-0,044	-0,022
-239,132	413,072	-0,053	0,081
-238,117	267,780	-0,067	-0,086
-237,103	95,802	-0,146	-0,121
-236,088	736,533	0,021	0,041
-235,073	0,533	0,134	0,069
-234,059	800,000	0,024	-0,054
-233,044	-200,000	-0,010	0,059
-232,030	800,000	0,005	-0,012
-231,015	270,428	0,047	-0,061
-230,000	800,000	-0,016	-0,042
-228,986	-200,000	-0,022	-0,079
-227,971	95,788	0,049	-0,040
-226,957	74,169	0,152	0,116
-225,942	-200,000	0,016	0,171
-224,927	-200,000	-0,017	-0,111
-223,913	202,206	-0,043	0,048
-222,898	-134,657	0,061	-0,005
-221,884	599,416	-0,069	-0,125
-220,869	703,869	0,066	-0,126
-219,855	-170,460	-0,177	0,004
-218,840	-139,202	-0,071	-0,005
-217,825	-200,000	-0,001	0,111
-216,811	800,000	-0,036	0,078
-215,796	389,865	-0,105	-0,158
-214,782	-128,432	-0,098	-0,010
-213,767	201,566	-0,010	0,011
-212,752	136,529	0,098	-0,093
-211,738	800,000	0,027	-0,070
-210,723	59,038	0,043	-0,031
-209,709	119,908	-0,051	0,046
-208,694	615,057	-0,039	-0,071
-207,679	-168,256	0,034	0,001
-206,665	24,372	0,044	-0,026
-205,650	800,000	-0,027	0,064
-204,636	-88,740	-0,043	0,009
-203,621	23,725	-0,067	-0,040
-202,606	272,110	0,062	0,080
-201,592	48,659	0,015	-0,010
-200,577	518,426	-0,048	-0,082
-199,563	379,946	0,086	-0,129
-198,548	76,430	0,146	0,112
-197,533	-200,000	0,012	0,156
-196,519	800,000	0,023	0,072
-195,504	800,000	0,012	-0,025
-194,490	322,770	0,115	-0,160
-193,475	-50,303	0,111	-0,038
-192,460	-142,151	0,100	-0,007
-191,446	-13,135	0,043	0,020
-190,431	2,644	0,156	-0,081
-189,417	-139,707	-0,042	-0,003
-188,402	-200,000	0,106	0,000
-187,387	-139,673	-0,063	-0,005
-186,373	322,999	0,038	0,053
-185,358	800,000	0,049	-0,125
-184,344	-32,666	0,159	-0,064
-183,329	50,517	0,102	-0,070
-182,315	131,884	0,029	-0,027
-181,300	800,000	0,054	-0,110
-180,285	-200,000	-0,031	-0,126
-179,271	-200,000	0,023	-0,099
-178,256	212,453	0,039	0,044
-177,242	-12,888	-0,096	-0,045
-176,227	-114,054	0,161	-0,022
-175,212	-200,000	0,052	0,197
-174,198	-148,614	-0,103	0,006
-173,183	-200,000	-0,017	0,088
-172,169	-86,627	-0,046	0,010
-171,154	-200,000	0,041	-0,143
-170,139	680,408	0,038	-0,072
-169,125	381,776	0,054	-0,081
-168,110	537,928	0,033	0,057
-167,096	-200,000	-0,014	-0,081
-166,081	-200,000	0,027	-0,110
-165,066	800,000	-0,029	0,061
-164,052	-44,812	-0,104	0,037
-163,037	89,990	0,080	-0,065
-162,023	-46,079	0,093	0,033
-161,008	127,675	0,112	0,103
-159,993	-4,658	0,072	-0,036
-158,979	31,625	-0,141	0,088
-157,964	-5,548	-0,040	-0,020
-156,950	-69,516	0,087	0,024
-155,935	47,953	-0,183	0,124
-154,920	-200,000	0,014	0,171
-153,906	-68,079	0,074	-0,021
-152,891	-161,934	0,074	0,003
-151,877	19,427	-0,073	-0,042
-150,862	-200,000	-0,010	-0,181
-149,847	-200,000	0,028	-0,219
-148,833	-200,000	0,020	0,097
-147,818	-65,499	-0,041	0,012
-146,804	70,359	-0,006	0,005
-145,789	-33,012	0,091	0,036
-144,775	-0,528	-0,063	0,032
-143,760	-200,000	0,062	0,228
-142,745	-69,432	-0,072	0,020
-141,731	800,000	-0,062	-0,140
-140,716	800,000	0,020	0,054
-139,702	-50,970	0,069	0,023
-138,687	-73,177	0,018	0,005
-137,672	-9,468	0,057	0,027
-136,658	-200,000	-0,003	-0,082
-135,643	-180,147	-0,040	-0,001
-134,629	-153,334	-0,086	0,004
-133,614	-172,922	0,205	-0,004
-132,599	380,917	0,033	-0,049
-131,585	580,577	-0,037	0,065
-130,570	76,077	-0,055	-0,042
-129,556	26,873	-0,106	-0,064
-128,541	-200,000	-0,018	-0,071
-127,526	-106,656	-0,086	0,014
-126,512	51,310	-0,103	0,070
-125,497	-144,430	-0,037	-0,002
-124,483	-111,727	0,034	0,005
-123,468	-27,448	-0,075	-0,031
-122,453	285,965	-0,006	-0,007
-121,439	777,447	-0,031	-0,062
-120,424	483,344	-0,003	-0,005
-119,410	-200,000	0,000	-0,052
-118,395	-54,260	0,131	0,043
-117,380	800,000	0,034	-0,106
-116,366	-200,000	-0,005	-0,048
-115,351	224,851	-0,026	-0,031
-114,337	366,250	0,084	-0,123
-113,322	569,693	0,040	-0,071
-112,307	137,708	-0,064	0,061
-111,293	-128,149	0,130	0,013
-110,278	34,707	-0,133	-0,084
-109,264	169,454	0,045	-0,047
-108,249	800,000	0,027	-0,079
-107,234	-155,988	-0,145	-0,007
-106,220	195,651	0,031	-0,034
-105,205	-47,247	0,097	-0,034
-104,191	800,000	-0,036	0,080
-103,176	-28,273	0,173	0,072
-102,162	-70,116	-0,045	0,012
-101,147	96,713	0,124	-0,103
-100,132	486,513	-0,017	-0,028
-99,118	-200,000	0,019	0,100
-98,103	16,236	0,085	0,048
-97,089	800,000	-0,025	0,054
-96,074	185,425	-0,015	0,016
-95,059	-51,479	-0,075	0,025
-94,045	-186,445	0,071	0,001
-93,030	800,000	-0,035	-0,097
-92,016	561,280	0,030	0,053
-91,001	-200,000	-0,006	0,033
-89,986	-200,000	-0,012	0,050
-88,972	66,933	0,032	0,023
-87,957	223,420	0,051	-0,060
-86,943	-190,918	-0,094	0,001
-85,928	135,266	0,022	-0,020
-84,913	-16,373	-0,059	0,027
-83,899	-87,775	0,093	-0,020
-82,884	62,281	0,019	-0,014
-81,870	21,029	0,118	-0,069
-80,855	756,771	0,076	0,149
-79,840	-69,385	0,085	-0,023
-78,826	-36,520	0,081	0,031
-77,811	800,000	-0,019	0,061
-76,797	-106,523	-0,082	0,013
-75,782	800,000	0,050	-0,128
-74,767	-200,000	0,009	0,077
-73,753	247,017	-0,023	-0,028
-72,738	-129,737	0,054	0,005
-71,724	609,789	-0,065	0,117
-70,709	-60,647	-0,083	0,025
-69,694	-115,199	-0,135	-0,018
-68,680	208,500	-0,054	0,061
-67,665	90,943	0,050	-0,041
-66,651	544,850	-0,041	0,071
-65,636	51,596	-0,082	0,056
-64,622	-84,598	-0,077	-0,017
-63,607	800,000	0,034	0,074
-62,592	-53,181	-0,102	0,033
-61,578	-109,415	0,143	0,022
-60,563	102,493	-0,075	0,064
-59,549	-141,376	-0,140	-0,010
-58,534	35,516	-2,023	-1,278
-57,519	-200,000	-0,201	-0,646
-56,505	-200,000	-1,365	-5,153
-55,490	56,978	0,938	0,658
-54,476	800,000	5,327	12,049
-53,461	-200,000	18,272	296,091
-52,446	800,000	730,600	2228,921
-51,432	513,940	1643,576	2774,124
-50,417	76,006	1624,015	1237,186
-49,403	23,573	1316,054	778,718
-48,388	16,707	1111,229	631,810
-47,373	18,754	1083,731	623,638
-46,359	17,896	1071,510	613,480
-45,344	14,373	1066,619	597,957
-44,330	14,224	1065,286	596,645
-43,315	14,236	1064,072	595,987
-42,300	14,186	1063,176	595,281
-41,286	14,184	1062,422	594,829
-40,271	14,180	1061,147	594,077
-39,257	14,127	1060,142	593,298
-38,242	14,115	1059,338	592,784
-37,227	14,172	1058,335	592,404
-36,213	14,218	1056,926	591,754
-35,198	14,124	1056,166	590,969
-34,184	14,219	1055,114	590,696
-33,169	14,145	1054,108	589,847
-32,154	14,305	1052,822	589,674
-31,140	14,261	1051,876	588,962
-30,125	14,275	1051,173	588,597
-29,111	14,248	1050,152	587,906
-28,096	14,257	1049,337	587,459
-27,082	14,215	1048,701	586,928
-26,067	14,249	1047,731	586,485
-25,052	14,250	1046,830	585,960
-24,038	14,173	1046,232	585,331
-23,023	14,240	1045,136	584,929
-22,009	14,263	1044,440	584,597
-20,994	14,274	1043,621	584,154
-19,979	14,295	1043,055	583,891
-18,965	14,234	1042,452	583,312
-17,950	14,295	1041,596	583,027
-16,936	14,261	1040,784	582,430
-15,921	14,193	1040,356	581,929
-14,906	14,101	1039,322	581,002
-13,892	14,105	1038,813	580,709
-12,877	14,122	1037,827	580,193
-11,863	14,129	1037,264	579,881
-10,848	14,132	1036,603	579,498
-9,833	14,206	1036,028	579,415
-8,819	14,284	1035,132	579,163
-7,804	14,180	1034,592	578,476
-6,790	14,132	1034,044	577,978
-5,775	14,153	1033,670	577,817
-4,760	14,159	1032,771	577,314
-3,746	14,208	1031,926	576,989
-2,731	14,013	1031,413	576,000
-1,717	13,965	1030,601	575,358
-0,702	13,952	1029,743	574,809
0,313	13,731	1029,268	574,644
1,327	17,134	1026,534	584,874
2,342	26,019	863,471	517,700
3,356	21,913	483,585	283,258
4,371	-7,701	320,886	155,615
5,386	-11,343	300,961	142,171
6,400	-12,684	294,697	137,839
7,415	-12,946	292,263	136,425
8,429	-12,953	290,758	135,704
9,444	-13,318	290,055	134,999
10,459	-13,181	289,136	134,695
11,473	-13,199	288,429	134,337
12,488	-13,370	287,817	133,870
13,502	-13,641	287,389	133,391
14,517	-13,651	286,756	133,075
15,531	-13,762	286,279	132,733
16,546	-13,664	285,938	132,660
17,561	-13,664	285,475	132,433
18,575	-13,613	285,203	132,345
19,590	-13,775	284,648	131,917
20,604	-13,647	284,435	131,932
21,619	-13,791	284,079	131,615
22,634	-13,812	283,670	131,393
23,648	-13,829	283,261	131,175
24,663	-13,731	283,125	131,196
25,677	-13,693	282,892	131,113
26,692	-13,751	282,476	130,852
27,707	-13,688	282,182	130,765
28,721	-13,838	281,929	130,491
29,736	-13,827	281,521	130,302
30,750	-13,924	281,308	130,097
31,765	-13,782	281,007	130,084
32,780	-13,884	280,718	129,840
33,794	-13,895	280,492	129,713
34,809	-13,860	280,227	129,613
35,823	-13,984	280,033	129,392
36,838	-13,922	279,683	129,278
37,853	-13,915	279,298	129,096
38,867	-14,004	279,009	128,866
39,882	-14,033	278,865	128,759
40,896	-13,896	278,565	128,740
41,911	-13,902	278,220	128,564
42,926	-13,888	278,208	128,561
43,940	-13,851	277,790	128,390
44,955	-14,131	277,702	128,071
45,969	-13,843	277,113	128,063
46,984	-14,164	277,001	127,695
47,999	-14,372	276,682	127,339
49,013	-14,398	276,504	127,221
50,028	-14,591	276,234	126,902
51,042	-14,615	276,060	126,788
52,057	-14,592	275,647	126,609
53,071	-14,662	275,422	126,428
54,086	-14,485	275,303	126,529
55,101	-14,362	275,071	126,528
56,115	-14,188	274,953	126,626
57,130	-13,801	274,911	126,960
58,144	-13,457	274,716	127,183
59,159	-13,734	274,510	126,816
60,174	-13,614	274,082	126,720
61,188	-13,523	273,940	126,727
62,203	-13,622	273,662	126,494
63,217	-13,790	273,501	126,251
64,232	-13,682	273,184	126,196
65,247	-13,583	273,059	126,219
66,261	-13,668	272,769	125,994
67,276	-13,994	272,458	125,535
68,290	-14,188	272,260	125,252
69,305	-14,206	271,919	125,067
70,320	-14,142	271,758	125,042
71,334	-13,999	271,564	125,074
72,349	-13,638	271,372	125,309
73,363	-13,593	271,208	125,264
74,378	-13,707	270,977	125,041
75,393	-13,699	270,717	124,917
76,407	-13,737	270,462	124,753
77,422	-13,696	270,108	124,616
78,436	-13,803	270,146	124,524
79,451	-13,795	269,871	124,394
80,466	-13,979	269,535	124,058
81,480	-14,174	269,425	123,816
82,495	-13,912	269,055	123,877
83,509	-13,933	268,901	123,776
84,524	-13,989	268,614	123,581
85,539	-14,147	268,383	123,318
86,553	-14,249	268,301	123,176
87,568	-13,995	268,091	123,302
88,582	-13,957	267,808	123,195
89,597	-14,163	267,599	122,900
90,611	-13,950	267,406	122,995
91,626	-13,972	267,257	122,895
92,641	-13,658	266,940	123,025
93,655	-13,749	266,830	122,881
94,670	-14,069	266,618	122,480
95,684	-13,857	266,351	122,540
96,699	-13,969	266,182	122,350
97,714	-13,956	265,880	122,211
98,728	-13,999	265,743	122,098
99,743	-14,122	265,506	121,867
100,757	-14,372	265,337	121,552
101,772	-14,107	265,155	121,698
102,787	-13,929	264,998	121,776
103,801	-13,850	264,658	121,680
104,816	-13,908	264,500	121,544
105,830	-13,877	264,416	121,522
106,845	-13,702	264,068	121,510
107,860	-13,669	264,027	121,510
108,874	-13,893	263,938	121,256
109,889	-13,817	263,510	121,117
110,903	-13,895	263,350	120,963
111,918	-14,032	263,245	120,780
112,933	-13,803	263,004	120,865
113,947	-13,704	262,792	120,845
114,962	-13,858	262,641	120,628
115,976	-13,777	262,543	120,644
116,991	-13,758	262,203	120,494
118,006	-13,853	262,033	120,321
119,020	-13,813	262,023	120,341
120,035	-13,731	261,668	120,239
121,049	-13,547	261,560	120,343
122,064	-13,819	261,449	120,039
123,079	-13,786	261,148	119,920
124,093	-13,808	260,938	119,793
125,108	-14,018	260,637	119,457
126,122	-13,988	260,377	119,354
127,137	-14,070	260,139	119,162
128,151	-14,292	260,064	118,921
129,166	-14,076	259,975	119,061
130,181	-13,888	259,602	119,045
131,195	-14,212	259,399	118,655
132,210	-13,753	259,140	118,931
133,224	-13,868	259,155	118,826
134,239	-13,568	258,704	118,873
135,254	-13,777	258,724	118,688
136,268	-13,867	258,512	118,500
137,283	-14,142	258,076	118,049
138,297	-14,190	258,022	117,971
139,312	-14,238	257,825	117,829
140,327	-13,576	257,686	118,335
141,341	-13,390	257,721	118,504
142,356	-13,370	257,532	118,424
143,370	-13,662	257,345	118,072
144,385	-13,444	257,086	118,133
145,400	-13,373	256,927	118,111
146,414	-13,516	256,808	117,921
147,429	-13,554	256,635	117,798
148,443	-13,407	256,319	117,770
149,458	-13,385	256,163	117,707
150,473	-13,490	255,984	117,523
151,487	-13,675	255,785	117,261
152,502	-13,521	255,542	117,273
153,516	-13,377	255,372	117,309
154,531	-13,469	255,196	117,138
155,546	-13,547	255,049	116,993
156,560	-13,681	254,941	116,817
157,575	-13,745	254,379	116,493
158,589	-13,545	254,448	116,687
159,604	-13,438	254,426	116,759
160,619	-13,310	254,245	116,776
161,633	-13,324	254,065	116,671
162,648	-13,271	253,812	116,590
163,662	-13,495	253,561	116,272
164,677	-13,389	253,330	116,247
165,692	-13,389	253,361	116,250
166,706	-13,529	253,220	116,055
167,721	-13,246	252,984	116,179
168,735	-13,140	252,854	116,200
169,750	-13,419	252,688	115,874
170,764	-13,381	252,623	115,867
171,779	-13,249	252,280	115,812
172,794	-13,271	252,231	115,761
173,808	-13,652	251,895	115,271
174,823	-14,025	251,625	114,818
175,837	-14,175	251,274	114,520
176,852	-13,609	251,342	115,023
177,867	-13,520	251,353	115,093
178,881	-13,558	251,141	114,955
179,896	-13,534	250,959	114,881
180,910	-13,341	250,706	114,918
181,925	-13,471	250,532	114,718
182,940	-13,126	250,353	114,919
183,954	-13,436	250,222	114,586
184,969	-13,446	250,319	114,611
185,983	-13,002	249,926	114,797
186,998	-12,922	249,680	114,742
188,013	-13,149	249,471	114,444
189,027	-13,162	249,476	114,425
190,042	-13,232	249,075	114,172
191,056	-13,149	249,062	114,225
192,071	-13,206	249,042	114,158
193,086	-13,432	248,823	113,857
194,100	-12,917	248,676	114,213
195,115	-12,868	248,308	114,076
196,129	-12,895	248,393	114,081
197,144	-8,435	250,026	118,593
198,159	-4,369	251,320	122,645
199,173	-0,765	252,542	126,295
200,188	-0,052	252,470	126,854
201,202	-0,164	252,201	126,613
202,217	-0,313	252,016	126,382
203,232	0,029	251,886	126,595
204,246	0,030	251,819	126,551
205,261	0,134	251,604	126,520
206,275	0,337	251,461	126,609
207,290	0,278	251,530	126,582
208,304	0,344	251,151	126,436
209,319	0,304	251,006	126,318
210,334	0,159	250,890	126,126
211,348	0,191	250,525	125,958
212,363	-0,088	250,220	125,559
213,377	-0,455	250,291	125,274
214,392	-0,265	250,145	125,350
215,407	0,051	249,897	125,480
216,421	0,132	249,688	125,432
217,436	-0,054	249,311	125,075
218,450	-0,356	249,313	124,813
219,465	-0,399	249,216	124,716
220,480	-0,221	249,143	124,818
221,494	-0,368	248,975	124,599
222,509	-0,011	248,981	124,890
223,523	-0,144	248,698	124,626
224,538	-0,096	248,239	124,425
225,553	-0,243	248,205	124,274
226,567	-0,388	248,187	124,133
227,582	0,043	248,056	124,416
228,596	0,269	248,010	124,569
229,611	-0,021	247,659	124,141
230,626	-0,321	247,495	123,798
231,640	-0,413	247,231	123,579
232,655	-0,065	247,327	123,905
233,669	0,104	247,092	123,916
234,684	0,438	247,035	124,153
235,699	0,385	246,701	123,930
236,713	-0,079	246,628	123,499
237,728	-0,210	246,398	123,264
238,742	-0,285	245,994	122,990
239,757	-0,282	245,827	122,898
240,772	-0,125	245,686	122,946
241,786	-0,321	245,645	122,753
242,801	0,090	245,675	123,095
243,815	0,545	245,651	123,447
244,830	0,405	245,257	123,123
245,844	-0,264	245,084	122,475
246,859	-0,261	244,889	122,370
247,874	-0,141	244,868	122,447
248,888	0,114	244,714	122,567
249,903	0,082	244,440	122,393
250,917	-0,002	244,176	122,182
251,932	-0,249	244,117	121,940
252,947	-0,376	243,903	121,717
253,961	-0,303	243,713	121,671
254,976	-0,292	243,581	121,604
255,990	-0,172	243,651	121,726
257,005	0,236	243,320	121,881
258,020	-0,017	243,223	121,616
259,034	0,056	243,142	121,624
260,049	0,079	242,888	121,505
261,063	0,135	242,749	121,470
262,078	0,192	242,624	121,443
263,093	0,243	242,580	121,451
264,107	0,271	242,255	121,301
265,122	-0,065	242,181	120,981
266,136	0,480	241,986	121,314
267,151	0,361	241,827	121,127
268,166	-0,166	241,569	120,561
269,180	-0,319	241,276	120,281
270,195	-0,155	241,285	120,407
271,209	-0,049	240,992	120,336
272,224	-0,199	241,054	120,235
273,239	0,147	240,829	120,390
274,253	0,227	240,548	120,304
275,268	-0,191	240,378	119,872
276,282	-0,582	240,387	119,551
277,297	-0,452	240,046	119,475
278,312	-0,279	240,171	119,666
279,326	0,169	239,823	119,841
280,341	-0,124	239,789	119,578
281,355	-0,037	239,612	119,550
282,370	0,071	239,366	119,502
283,384	-0,098	239,093	119,220
284,399	-0,471	239,007	118,869
285,414	-0,255	238,698	118,876
286,428	-0,321	238,856	118,892
287,443	-0,037	238,703	119,032
288,457	-0,065	238,549	118,922
289,472	-0,186	238,355	118,718
290,487	-0,361	238,061	118,423
291,501	-0,477	237,954	118,266
292,516	-0,417	237,764	118,210
293,530	-0,380	237,552	118,123
294,545	-0,053	237,553	118,372
295,560	0,043	237,332	118,327
296,574	-0,077	237,179	118,145
297,589	-0,007	237,227	118,214
298,603	-0,205	237,027	117,947
299,618	-0,031	236,724	117,923
300,633	0,029	236,749	117,972
301,647	0,172	236,641	118,021
302,662	0,177	236,455	117,922
303,676	0,330	236,336	117,972
304,691	0,193	236,191	117,781
305,706	0,240	236,105	117,765
306,720	0,255	235,852	117,640
307,735	0,047	235,487	117,285
308,749	-0,164	235,615	117,172
309,764	0,024	235,508	117,256
310,779	-0,033	235,285	117,090
311,793	-0,085	234,877	116,836
312,808	0,133	234,840	116,977
313,822	0,149	234,668	116,894
314,837	-0,198	234,580	116,568
315,852	-0,209	234,266	116,394
316,866	-0,039	234,399	116,582
317,881	0,304	234,090	116,685
318,895	0,091	233,904	116,416
319,910	-0,135	233,776	116,166
320,925	-0,485	233,532	115,762
321,939	-0,767	233,294	115,415
322,954	-0,313	233,250	115,736
323,968	-0,163	233,389	115,911
324,983	0,295	233,153	116,138
325,997	0,423	233,144	116,222
327,012	0,393	232,871	116,053
328,027	0,152	232,712	115,777
329,041	0,308	232,619	115,841
330,056	0,176	232,413	115,626
331,070	-0,177	232,165	115,221
332,085	-0,288	231,736	114,911
333,100	0,077	231,946	115,286
334,114	0,379	231,726	115,400
335,129	0,254	231,575	115,218
336,143	-0,120	231,603	114,934
337,158	0,316	231,370	115,143
338,173	0,023	231,036	114,741
339,187	0,039	231,157	114,804
340,202	-0,167	230,753	114,435
341,216	-0,092	230,652	114,433
342,231	-0,009	230,568	114,444
343,246	-0,018	230,324	114,306
344,260	-0,036	230,142	114,191
345,275	-0,014	230,276	114,264
346,289	0,168	230,025	114,269
347,304	0,111	229,946	114,176
348,319	0,485	229,803	114,380
349,333	0,308	229,570	114,119
350,348	0,410	229,494	114,149
351,362	0,478	229,481	114,184
352,377	0,648	229,247	114,186
353,392	0,082	229,113	113,679
354,406	0,200	228,765	113,586
355,421	194,071	1317,923	1395,991
356,435	155,605	1450,592	1395,951
