DTS Sentinel unit serial number:	SN410029Multiplexer serial number:	ORYXHardware model number:	OX2-SRSoftware version number:	ORYX F/W v4,00 Oryx Data Collector v3.7.2.0data status	okinstallation	B6 Nyhavnadifferential loss correction	single-endedforward channel	channel 2reverse channel	N/Adate	2023/12/10time	18:45:08forward acquisition time	300,00reverse acquisition time	0,00gamma	499,1914k internal	0,3123k external	0,3123temperature offset calibration	1,0000default loss term (dB/km)	0,3820temperature slope calibration	1,0000multiplexer offset coefficient	1,0000multiplexer slope coefficient	1,0000fibre end	0,00T internal ref (°C)	22,34T ext. ref 1 (°C)	6,01T ext. ref 2 (°C)	6,01length (m)	temperature (°C)	Stokes	anti-Stokes-744,400	-200,000	-0,002	-0,027
-743,385	-24,173	-0,288	0,128
-742,371	498,682	0,003	-0,006
-741,356	-94,326	-0,251	0,051
-740,342	208,182	0,024	0,028
-739,327	70,115	-0,176	0,136
-738,312	468,859	0,068	-0,115
-737,298	-42,541	-0,274	0,103
-736,283	800,000	0,082	0,180
-735,269	-4,284	-0,256	0,132
-734,254	392,679	0,072	0,112
-733,239	-63,595	-0,581	-0,177
-732,225	-133,895	0,132	-0,012
-731,210	800,000	0,053	0,114
-730,196	-200,000	0,015	-0,202
-729,181	16,256	0,077	-0,045
-728,167	-200,000	-0,013	-0,167
-727,152	375,740	0,084	0,127
-726,137	34,982	-0,132	0,086
-725,123	-92,857	-0,070	-0,015
-724,108	704,398	0,014	0,029
-723,094	-83,478	-0,072	-0,017
-722,079	-200,000	0,008	-0,130
-721,064	-200,000	-0,031	0,104
-720,050	-73,516	-0,091	0,025
-719,035	-38,484	-0,092	-0,036
-718,021	800,000	0,006	-0,018
-717,006	-200,000	-0,041	-0,173
-715,991	-114,218	0,111	-0,016
-714,977	800,000	-0,046	-0,136
-713,962	-200,000	0,018	-0,086
-712,948	-200,000	0,030	0,126
-711,933	109,940	0,024	0,021
-710,918	30,037	0,041	-0,026
-709,904	800,000	-0,043	0,128
-708,889	11,702	-0,126	-0,072
-707,875	545,860	0,025	-0,044
-706,860	211,817	-0,079	0,092
-705,845	145,309	0,020	-0,020
-704,831	800,000	-0,010	-0,024
-703,816	5,718	-0,121	-0,066
-702,802	800,000	-0,046	0,127
-701,787	-142,762	0,140	-0,010
-700,772	235,450	-0,092	-0,113
-699,758	101,013	-0,025	-0,021
-698,743	-96,829	0,013	-0,002
-697,729	115,681	0,075	-0,068
-696,714	-23,273	-0,081	0,036
-695,699	-186,676	-0,143	0,001
-694,685	-200,000	-0,019	-0,067
-693,670	-46,133	-0,051	-0,019
-692,656	-119,338	0,033	-0,004
-691,641	-71,879	-0,123	-0,034
-690,627	54,558	-0,037	0,026
-689,612	242,898	0,056	0,070
-688,597	800,000	-0,030	0,064
-687,583	29,717	-0,036	0,023
-686,568	54,222	-0,126	-0,090
-685,554	89,874	0,072	0,059
-684,539	263,170	-0,034	0,045
-683,524	800,000	-0,036	-0,112
-682,510	800,000	-0,020	0,061
-681,495	193,391	-0,023	0,026
-680,481	-152,199	-0,058	-0,003
-679,466	800,000	0,018	-0,040
-678,451	88,128	0,035	-0,029
-677,437	-200,000	0,029	-0,125
-676,422	800,000	0,009	-0,022
-675,408	-25,779	0,016	-0,007
-674,393	-123,234	-0,105	0,012
-673,378	112,279	-0,036	-0,032
-672,364	800,000	-0,027	-0,085
-671,349	25,525	-0,093	-0,057
-670,335	-16,046	0,169	0,080
-669,320	-88,808	-0,074	-0,016
-668,305	-200,000	0,006	0,049
-667,291	-106,226	-0,103	0,017
-666,276	45,855	-0,087	-0,059
-665,262	36,103	-0,076	0,050
-664,247	181,771	-0,009	0,010
-663,232	-200,000	0,002	-0,077
-662,218	800,000	-0,045	0,106
-661,203	800,000	0,055	-0,118
-660,189	279,585	-0,054	-0,072
-659,174	200,405	0,032	-0,037
-658,159	-37,960	-0,095	-0,037
-657,145	-200,000	-0,048	-0,170
-656,130	-182,326	0,027	0,000
-655,116	253,148	-0,037	0,047
-654,101	-110,424	0,113	-0,017
-653,086	800,000	-0,060	0,135
-652,072	-200,000	0,030	-0,110
-651,057	287,809	-0,108	-0,146
-650,043	194,940	-0,086	-0,097
-649,028	75,310	0,104	-0,082
-648,014	-86,095	0,062	0,014
-646,999	-200,000	-0,016	0,144
-645,984	360,601	0,029	0,043
-644,970	-151,738	0,090	0,005
-643,955	-200,000	-0,015	0,095
-642,941	219,082	-0,129	-0,153
-641,926	800,000	-0,008	-0,026
-640,911	800,000	-0,048	0,139
-639,897	97,657	-0,104	0,088
-638,882	-200,000	-0,026	-0,087
-637,868	-200,000	0,005	0,029
-636,853	33,176	-0,131	-0,084
-635,838	-200,000	0,035	0,172
-634,824	-49,520	-0,035	0,012
-633,809	90,666	0,017	-0,014
-632,795	349,986	-0,026	-0,039
-631,780	-132,722	0,039	-0,004
-630,765	134,393	0,164	-0,158
-629,751	137,416	-0,041	0,040
-628,736	-13,889	0,066	0,031
-627,722	49,869	0,078	-0,054
-626,707	-133,056	-0,054	0,005
-625,692	-200,000	-0,001	0,118
-624,678	-3,837	0,029	0,015
-623,663	-91,529	-0,168	-0,035
-622,649	-115,678	-0,193	-0,027
-621,634	392,432	0,057	-0,088
-620,619	584,783	-0,059	-0,108
-619,605	-200,000	0,037	-0,148
-618,590	272,669	-0,068	0,090
-617,576	591,395	-0,067	0,123
-616,561	800,000	-0,030	-0,097
-615,546	39,099	-0,051	0,034
-614,532	-200,000	-0,019	-0,186
-613,517	-200,000	-0,003	-0,092
-612,503	93,323	-0,046	-0,038
-611,488	-200,000	0,019	0,107
-610,474	-72,734	-0,026	-0,007
-609,459	-118,659	-0,040	0,005
-608,444	17,297	-0,130	0,076
-607,430	32,232	-0,115	-0,073
-606,415	-29,633	-0,173	-0,073
-605,401	249,944	-0,033	-0,041
-604,386	-200,000	-0,026	0,149
-603,371	-200,000	-0,004	0,030
-602,357	-87,120	-0,067	-0,015
-601,342	-126,943	-0,154	-0,017
-600,328	800,000	0,019	-0,048
-599,313	-71,450	-0,139	0,038
-598,298	-49,224	-0,060	0,021
-597,284	50,245	0,082	0,057
-596,269	-44,866	-0,056	-0,021
-595,255	-200,000	0,001	0,047
-594,240	800,000	0,022	-0,050
-593,225	-200,000	-0,018	-0,175
-592,211	615,381	0,056	0,104
-591,196	-200,000	0,014	-0,048
-590,182	194,423	0,041	0,046
-589,167	-200,000	0,037	0,162
-588,152	-200,000	0,005	-0,066
-587,138	-200,000	0,001	0,056
-586,123	800,000	0,027	-0,076
-585,109	800,000	-0,044	-0,141
-584,094	36,726	-0,058	-0,038
-583,079	15,944	-0,039	-0,023
-582,065	800,000	0,030	-0,064
-581,050	-200,000	0,013	0,152
-580,036	67,479	0,189	0,143
-579,021	-55,724	0,058	0,019
-578,006	31,834	-0,100	-0,063
-576,992	-102,591	0,242	0,042
-575,977	-60,866	0,047	0,015
-574,963	-54,691	-0,075	0,025
-573,948	-200,000	-0,039	0,145
-572,934	-78,018	0,089	-0,023
-571,919	-200,000	-0,039	0,133
-570,904	-66,882	0,146	0,042
-569,890	800,000	-0,025	0,066
-568,875	31,353	0,078	0,049
-567,861	800,000	0,036	0,117
-566,846	212,683	0,040	-0,047
-565,831	-195,807	-0,157	-0,001
-564,817	140,129	0,052	-0,051
-563,802	255,434	-0,025	-0,032
-562,788	-128,941	-0,028	0,003
-561,773	609,384	-0,015	-0,027
-560,758	25,990	0,040	0,025
-559,744	-200,000	-0,003	0,036
-558,729	800,000	0,035	-0,090
-557,715	-114,264	-0,136	-0,019
-556,700	-200,000	-0,010	-0,059
-555,685	55,734	0,092	0,066
-554,671	-41,265	0,105	-0,040
-553,656	-30,799	0,048	0,020
-552,642	126,685	0,030	0,028
-551,627	-14,549	-0,044	-0,021
-550,612	109,989	-0,062	0,055
-549,598	-8,321	-0,108	0,054
-548,583	800,000	0,020	-0,063
-547,569	-142,506	-0,031	-0,002
-546,554	263,967	-0,053	0,068
-545,539	-137,017	0,166	-0,014
-544,525	9,616	0,116	0,065
-543,510	-100,228	-0,176	-0,032
-542,496	-35,343	-0,113	-0,045
-541,481	31,172	0,048	-0,030
-540,466	800,000	-0,008	0,018
-539,452	800,000	0,006	-0,020
-538,437	-200,000	0,016	0,073
-537,423	66,763	-0,104	0,078
-536,408	-101,504	0,056	-0,010
-535,393	18,747	-0,083	-0,049
-534,379	-150,895	-0,128	0,007
-533,364	331,325	0,009	0,013
-532,350	-70,734	0,060	-0,017
-531,335	-66,621	-0,103	-0,030
-530,321	-155,034	0,033	0,002
-529,306	-45,061	-0,070	0,026
-528,291	361,977	-0,028	-0,042
-527,277	-9,366	-0,073	0,036
-526,262	-159,425	0,031	-0,001
-525,248	45,114	0,079	0,054
-524,233	332,498	-0,077	0,110
-523,218	800,000	-0,045	0,146
-522,204	-89,736	-0,129	0,028
-521,189	-200,000	-0,023	0,138
-520,175	122,762	-0,018	-0,017
-519,160	-63,116	0,127	0,039
-518,145	-4,822	-0,028	-0,014
-517,131	-77,830	0,099	0,025
-516,116	73,742	0,104	0,080
-515,102	-200,000	0,006	-0,071
-514,087	-200,000	0,004	0,037
-513,072	206,423	0,037	-0,043
-512,058	584,799	-0,043	-0,078
-511,043	321,442	-0,059	-0,084
-510,029	-11,295	0,053	0,026
-509,014	-49,519	0,105	-0,037
-507,999	37,673	0,102	0,067
-506,985	8,294	0,013	0,007
-505,970	6,820	0,120	-0,066
-504,956	-200,000	-0,024	-0,227
-503,941	-60,816	-0,091	0,028
-502,926	627,989	-0,015	-0,028
-501,912	-21,194	0,038	-0,017
-500,897	91,648	0,028	-0,023
-499,883	-119,708	-0,118	0,015
-498,868	800,000	-0,041	-0,097
-497,853	40,519	0,060	-0,040
-496,839	-30,056	-0,152	-0,064
-495,824	-200,000	-0,010	0,091
-494,810	-200,000	-0,014	0,176
-493,795	-43,669	0,083	-0,031
-492,781	800,000	0,021	0,060
-491,766	-0,481	-0,112	0,058
-490,751	-66,784	0,180	0,052
-489,737	-4,290	0,086	-0,044
-488,722	-142,831	-0,092	0,007
-487,708	7,456	0,036	-0,020
-486,693	-76,617	-0,069	-0,018
-485,678	276,110	0,050	0,065
-484,664	57,872	0,018	-0,013
-483,649	223,928	0,018	-0,022
-482,635	800,000	0,030	-0,093
-481,620	-50,640	0,050	-0,017
-480,605	-200,000	0,004	0,116
-479,591	-200,000	0,011	0,070
-478,576	-200,000	0,000	-0,114
-477,562	-84,304	0,025	0,006
-476,547	-74,605	-0,175	0,046
-475,532	301,645	-0,041	0,056
-474,518	-4,639	0,072	0,037
-473,503	585,684	-0,048	0,087
-472,489	-125,559	0,099	-0,011
-471,474	43,432	-0,036	-0,024
-470,459	-200,000	0,006	-0,138
-469,445	131,082	-0,106	-0,100
-468,430	-200,000	-0,016	0,100
-467,416	-200,000	0,030	0,223
-466,401	126,671	0,129	0,121
-465,386	-8,036	-0,076	0,038
-464,372	-22,063	0,090	-0,040
-463,357	-23,087	-0,042	-0,019
-462,343	118,728	0,021	0,019
-461,328	800,000	-0,063	0,150
-460,313	162,384	0,048	-0,050
-459,299	71,037	0,100	0,076
-458,284	422,034	0,142	0,225
-457,270	-200,000	-0,011	0,073
-456,255	380,147	0,084	-0,127
-455,241	177,377	-0,026	-0,028
-454,226	-61,520	-0,078	0,024
-453,211	321,096	-0,151	-0,213
-452,197	1,338	0,173	-0,091
-451,182	131,952	0,079	0,075
-450,168	290,283	-0,083	-0,111
-449,153	-200,000	0,009	-0,034
-448,138	-200,000	0,007	0,038
-447,124	-3,781	-0,140	-0,071
-446,109	-200,000	0,008	-0,029
-445,095	534,023	0,038	-0,067
-444,080	-60,137	0,199	0,062
-443,065	-156,938	0,045	-0,002
-442,051	-20,118	-0,087	0,039
-441,036	-26,611	-0,093	-0,040
-440,022	-200,000	-0,016	0,100
-439,007	325,828	-0,064	0,090
-437,992	-9,180	-0,094	0,046
-436,978	-200,000	0,006	-0,032
-435,963	58,131	-0,104	0,075
-434,949	-9,524	-0,101	0,049
-433,934	-137,525	0,063	-0,005
-432,919	397,278	-0,028	-0,044
-431,905	23,582	0,043	-0,026
-430,890	-30,524	0,011	-0,004
-429,876	-86,284	0,166	0,037
-428,861	-102,303	-0,166	0,029
-427,846	375,729	-0,083	-0,125
-426,832	-41,575	0,073	-0,028
-425,817	182,393	-0,133	0,144
-424,803	9,098	0,084	-0,046
-423,788	418,019	-0,029	0,046
-422,773	800,000	-0,028	0,080
-421,759	259,248	-0,031	-0,039
-420,744	3,912	-0,111	-0,060
-419,730	169,498	0,139	-0,146
-418,715	-80,899	0,056	0,014
-417,701	800,000	0,023	-0,053
-416,686	58,990	0,069	0,050
-415,671	43,186	0,146	-0,098
-414,657	-45,500	0,033	-0,012
-413,642	-200,000	0,015	0,104
-412,628	-200,000	-0,028	-0,182
-411,613	-99,215	-0,082	-0,015
-410,598	259,784	-0,035	0,044
-409,584	-200,000	0,024	0,107
-408,569	-54,517	0,067	-0,022
-407,555	800,000	-0,045	0,133
-406,540	192,409	-0,063	0,070
-405,525	-200,000	0,018	-0,073
-404,511	129,778	-0,052	-0,049
-403,496	99,075	0,071	-0,061
-402,482	-200,000	-0,010	-0,073
-401,467	148,000	-0,113	-0,112
-400,452	19,136	-0,154	0,091
-399,438	-112,505	0,076	0,011
-398,423	-200,000	-0,010	-0,044
-397,409	-169,553	-0,080	-0,002
-396,394	800,000	0,004	0,009
-395,379	10,879	-0,126	-0,070
-394,365	629,111	-0,026	0,049
-393,350	-5,239	-0,056	-0,028
-392,336	-200,000	0,036	0,123
-391,321	325,060	0,026	-0,036
-390,306	73,376	0,085	-0,065
-389,292	-94,232	-0,131	-0,026
-388,277	-10,148	0,182	-0,089
-387,263	-19,102	0,065	-0,030
-386,248	8,011	0,088	0,048
-385,233	320,590	-0,058	0,081
-384,219	582,533	-0,013	0,023
-383,204	-200,000	0,013	-0,182
-382,190	-200,000	0,008	0,076
-381,175	-200,000	-0,016	-0,076
-380,160	-104,189	-0,040	-0,007
-379,146	-123,265	0,127	0,015
-378,131	-104,587	-0,102	0,017
-377,117	-79,175	0,085	0,021
-376,102	-200,000	0,011	-0,147
-375,088	-70,750	0,079	0,022
-374,073	2,437	0,052	0,027
-373,058	278,045	0,095	0,125
-372,044	14,036	0,004	0,002
-371,029	800,000	0,017	0,038
-370,015	-135,353	0,086	0,007
-369,000	-200,000	-0,031	-0,158
-367,985	160,818	-0,018	-0,018
-366,971	-39,445	-0,109	-0,042
-365,956	63,097	0,082	0,060
-364,942	175,897	-0,035	0,037
-363,927	212,238	-0,047	-0,054
-362,912	32,826	0,049	0,031
-361,898	-200,000	0,012	-0,185
-360,883	226,069	-0,067	-0,080
-359,869	-123,439	-0,049	-0,006
-358,854	800,000	0,030	0,067
-357,839	95,725	-0,100	0,084
-356,825	-200,000	0,003	0,099
-355,810	-164,952	0,056	-0,002
-354,796	0,387	-0,069	0,036
-353,781	-106,385	-0,110	-0,018
-352,766	-13,260	-0,075	0,036
-351,752	513,629	-0,080	0,137
-350,737	709,923	-0,017	-0,032
-349,723	-200,000	-0,014	0,097
-348,708	-41,209	0,060	-0,023
-347,693	-200,000	-0,015	-0,103
-346,679	549,572	-0,047	0,083
-345,664	18,312	0,075	0,044
-344,650	-200,000	-0,028	-0,146
-343,635	18,952	0,043	-0,025
-342,620	75,076	0,098	-0,076
-341,606	800,000	-0,031	-0,080
-340,591	683,961	-0,027	0,053
-339,577	-200,000	-0,003	-0,069
-338,562	386,634	-0,010	-0,016
-337,548	800,000	-0,010	-0,025
-336,533	107,354	0,096	0,084
-335,518	-13,787	0,049	-0,023
-334,504	64,564	0,029	0,021
-333,489	46,461	0,018	-0,012
-332,475	7,962	-0,063	-0,035
-331,460	-114,669	0,032	-0,004
-330,445	25,336	0,050	-0,031
-329,431	-26,836	0,119	0,051
-328,416	-107,326	0,091	0,015
-327,402	-48,346	-0,014	0,005
-326,387	-200,000	0,026	0,128
-325,372	-146,788	-0,056	-0,004
-324,358	-200,000	0,017	-0,119
-323,343	94,195	-0,145	-0,121
-322,329	125,082	-0,134	-0,124
-321,314	-110,758	0,055	-0,008
-320,299	-42,989	-0,078	-0,029
-319,285	158,284	0,041	-0,042
-318,270	-157,936	0,111	0,005
-317,256	-175,563	0,024	0,000
-316,241	-200,000	0,035	-0,121
-315,226	-111,660	-0,041	0,006
-314,212	190,648	0,030	0,033
-313,197	63,327	-0,024	0,018
-312,183	-114,064	-0,070	0,010
-311,168	-200,000	0,011	-0,078
-310,153	-200,000	0,028	0,146
-309,139	289,407	-0,010	-0,013
-308,124	133,268	-0,059	-0,056
-307,110	-119,798	0,127	0,016
-306,095	-119,913	0,148	-0,018
-305,080	154,455	0,026	0,026
-304,066	-200,000	-0,024	0,124
-303,051	-200,000	-0,010	-0,054
-302,037	-200,000	0,037	-0,142
-301,022	-200,000	-0,020	0,067
-300,008	-200,000	0,005	0,076
-298,993	38,326	0,056	-0,036
-297,978	-1,051	0,036	0,019
-296,964	795,986	-0,047	-0,094
-295,949	-84,773	0,093	-0,021
-294,935	800,000	-0,038	-0,080
-293,920	248,951	-0,055	0,069
-292,905	-200,000	0,015	0,059
-291,891	40,434	0,079	0,052
-290,876	3,939	0,073	-0,039
-289,862	192,283	0,036	-0,040
-288,847	-57,892	-0,022	-0,007
-287,832	800,000	-0,039	-0,099
-286,818	-190,279	0,036	-0,000
-285,803	-200,000	-0,023	0,088
-284,789	-200,000	0,021	-0,095
-283,774	800,000	-0,032	0,068
-282,759	-200,000	-0,001	0,011
-281,745	-2,636	-0,106	-0,054
-280,730	222,084	-0,076	-0,090
-279,716	230,945	0,057	-0,069
-278,701	-24,246	0,132	0,057
-277,686	-24,988	-0,047	0,020
-276,672	-200,000	-0,024	-0,092
-275,657	-43,764	0,078	0,029
-274,643	-79,084	-0,066	-0,016
-273,628	-140,781	0,089	-0,007
-272,613	-110,612	0,049	0,007
-271,599	-200,000	-0,014	-0,092
-270,584	-80,037	-0,088	-0,022
-269,570	28,232	0,110	0,068
-268,555	128,528	0,073	0,068
-267,540	276,029	0,068	0,089
-266,526	34,915	0,081	0,052
-265,511	-200,000	-0,027	-0,106
-264,497	108,538	-0,045	0,039
-263,482	127,583	-0,067	-0,062
-262,467	-4,718	0,096	-0,049
-261,453	-200,000	0,016	0,074
-260,438	362,028	0,049	0,072
-259,424	-125,956	-0,160	-0,017
-258,409	-119,043	0,156	0,020
-257,395	-64,253	-0,089	0,026
-256,380	800,000	0,052	0,152
-255,365	187,595	0,032	0,035
-254,351	507,462	-0,068	-0,117
-253,336	393,458	0,012	0,018
-252,322	-122,443	0,112	-0,013
-251,307	69,566	0,088	0,066
-250,292	-44,485	0,031	-0,011
-249,278	-74,350	0,060	0,016
-248,263	-200,000	-0,014	0,110
-247,249	-93,487	-0,097	0,019
-246,234	-200,000	0,009	-0,046
-245,219	520,473	0,037	-0,063
-244,205	-123,430	-0,037	-0,004
-243,190	800,000	-0,029	-0,089
-242,176	-37,930	0,115	0,045
-241,161	19,195	-0,032	-0,019
-240,146	-200,000	0,016	-0,068
-239,132	237,276	0,084	-0,101
-238,117	-127,643	-0,048	-0,005
-237,103	17,902	-0,032	-0,019
-236,088	-10,038	0,103	-0,050
-235,073	-38,630	0,129	-0,050
-234,059	-200,000	-0,021	-0,144
-233,044	529,304	0,028	-0,048
-232,030	54,403	-0,095	-0,067
-231,015	-200,000	0,034	-0,136
-230,000	293,176	-0,058	-0,078
-228,986	34,242	0,052	0,033
-227,971	3,237	0,052	0,028
-226,957	143,688	0,085	0,083
-225,942	-200,000	-0,005	0,035
-224,927	75,532	-0,081	0,063
-223,913	-15,469	0,149	0,069
-222,898	31,239	-0,191	-0,120
-221,884	3,906	-0,082	-0,044
-220,869	800,000	0,040	0,125
-219,855	156,058	0,036	0,036
-218,840	-65,229	-0,035	0,010
-217,825	413,333	0,021	-0,033
-216,811	13,897	-0,078	-0,044
-215,796	-200,000	0,016	-0,080
-214,782	800,000	0,023	0,047
-213,767	128,230	-0,037	0,034
-212,752	113,782	0,056	-0,050
-211,738	-200,000	0,004	-0,035
-210,723	-80,521	0,012	0,003
-209,709	-66,200	-0,186	-0,054
-208,694	634,151	-0,038	0,071
-207,679	-57,015	-0,123	0,039
-206,665	549,992	0,028	0,050
-205,650	478,637	-0,022	-0,036
-204,636	-124,992	0,074	0,008
-203,621	204,821	-0,048	-0,054
-202,606	800,000	0,041	0,115
-201,592	710,224	-0,029	0,056
-200,577	-200,000	0,005	-0,147
-199,563	13,269	0,057	0,032
-198,548	167,933	0,035	0,036
-197,533	401,818	-0,062	0,096
-196,519	467,536	-0,030	0,049
-195,504	31,841	-0,045	0,028
-194,490	-33,303	-0,210	-0,084
-193,475	-200,000	0,027	-0,096
-192,460	243,016	0,066	-0,080
-191,446	-49,721	0,143	-0,049
-190,431	-200,000	0,013	0,129
-189,417	-200,000	0,030	0,103
-188,402	-200,000	0,019	-0,103
-187,387	-87,230	0,048	0,011
-186,373	162,329	-0,080	-0,082
-185,358	12,080	-0,021	0,012
-184,344	-200,000	0,023	0,103
-183,329	67,839	-0,136	-0,101
-182,315	435,651	0,035	0,056
-181,300	-200,000	-0,003	0,049
-180,285	31,141	0,066	-0,041
-179,271	-200,000	-0,002	-0,043
-178,256	-200,000	0,012	0,051
-177,242	82,706	-0,066	0,052
-176,227	-9,475	0,099	0,048
-175,212	65,357	0,059	-0,043
-174,198	463,339	-0,043	0,070
-173,183	306,524	-0,126	-0,172
-172,169	-200,000	0,011	-0,063
-171,154	-127,039	0,045	-0,005
-170,139	300,695	-0,017	-0,024
-169,125	-85,645	-0,115	-0,026
-168,110	182,327	0,082	0,088
-167,096	136,104	0,116	0,110
-166,081	-136,398	0,076	0,006
-165,066	9,036	-0,117	0,064
-164,052	559,030	0,018	0,032
-163,037	800,000	-0,023	0,074
-162,023	-200,000	0,009	0,172
-161,008	399,439	0,037	-0,057
-159,993	-156,018	0,039	-0,002
-158,979	800,000	-0,012	0,026
-157,964	800,000	0,023	-0,058
-156,950	-123,080	0,061	-0,007
-155,935	-200,000	-0,023	0,106
-154,920	24,331	0,022	0,013
-153,906	-57,968	0,026	-0,008
-152,891	-200,000	0,005	-0,127
-151,877	-200,000	-0,004	-0,037
-150,862	558,386	-0,031	-0,054
-149,847	686,751	0,023	-0,044
-148,833	-200,000	-0,006	-0,136
-147,818	-18,962	0,065	-0,030
-146,804	800,000	0,041	0,099
-145,789	-50,169	0,059	0,020
-144,775	352,655	0,022	-0,032
-143,760	511,928	-0,049	0,083
-142,745	42,084	-0,094	-0,062
-141,731	-36,026	-0,029	0,012
-140,716	147,781	-0,004	-0,004
-139,702	190,952	0,100	-0,110
-138,687	-200,000	0,058	0,195
-137,672	800,000	0,013	-0,032
-136,658	-200,000	0,008	-0,034
-135,643	-200,000	0,034	-0,111
-134,629	800,000	0,056	-0,116
-133,614	34,780	0,029	-0,019
-132,599	-200,000	-0,002	-0,113
-131,585	800,000	0,041	0,120
-130,570	380,005	-0,032	0,048
-129,556	58,084	-0,080	-0,057
-128,541	375,115	-0,085	0,126
-127,526	800,000	0,008	-0,023
-126,512	387,293	0,057	0,086
-125,497	-16,245	0,124	0,057
-124,483	134,412	-0,079	0,074
-123,468	-137,570	0,124	0,010
-122,453	-44,690	-0,092	-0,033
-121,439	621,816	-0,015	-0,028
-120,424	738,559	-0,067	-0,131
-119,410	475,474	-0,013	-0,022
-118,395	-19,262	-0,054	-0,024
-117,380	-103,262	-0,078	-0,013
-116,366	-93,562	-0,039	-0,008
-115,351	-52,769	-0,126	-0,042
-114,337	-8,896	0,145	-0,070
-113,322	293,373	-0,071	0,094
-112,307	391,059	-0,055	0,084
-111,293	0,570	0,056	0,029
-110,278	-8,143	-0,057	0,028
-109,264	800,000	-0,042	0,090
-108,249	-52,721	-0,110	-0,037
-107,234	-13,308	-0,063	0,030
-106,220	130,043	-0,122	0,113
-105,205	-50,987	-0,085	-0,029
-104,191	641,473	-0,002	0,003
-103,176	-200,000	0,017	0,059
-102,162	487,061	0,055	-0,092
-101,147	800,000	-0,035	-0,076
-100,132	89,309	0,042	-0,034
-99,118	-107,237	-0,075	-0,012
-98,103	-189,003	0,084	-0,001
-97,089	-200,000	-0,002	0,139
-96,074	-148,346	0,034	0,002
-95,059	-200,000	0,002	-0,035
-94,045	-200,000	0,036	-0,124
-93,030	160,912	-0,077	-0,078
-92,016	45,052	-0,068	-0,045
-91,001	54,494	-0,145	-0,101
-89,986	-200,000	0,020	-0,133
-88,972	800,000	0,020	-0,042
-87,957	-200,000	0,000	0,086
-86,943	-151,276	-0,082	-0,004
-85,928	800,000	0,055	-0,130
-84,913	-49,506	-0,111	0,038
-83,899	-200,000	0,004	-0,054
-82,884	-200,000	-0,021	-0,067
-81,870	-161,044	0,086	-0,003
-80,855	-200,000	0,050	0,180
-79,840	800,000	-0,054	-0,126
-78,826	2,589	0,158	0,083
-77,811	-24,345	-0,127	-0,055
-76,797	-200,000	-0,008	0,086
-75,782	-88,365	0,085	0,018
-74,767	64,469	0,104	-0,076
-73,753	120,403	0,157	-0,141
-72,738	-115,090	-0,132	0,018
-71,724	80,390	-0,115	-0,090
-70,709	103,632	-0,079	-0,068
-69,694	82,043	-0,138	-0,108
-68,680	-15,849	-0,124	-0,057
-67,665	30,560	-0,111	-0,069
-66,651	-200,000	-0,000	0,107
-65,636	507,886	-0,059	0,099
-64,622	-33,061	0,063	-0,025
-63,607	-200,000	0,020	-0,090
-62,592	800,000	0,064	-0,176
-61,578	567,324	-0,017	0,031
-60,563	-200,000	-0,002	0,083
-59,549	357,226	0,037	0,054
-58,534	-111,177	-1,273	-0,187
-57,519	618,690	-0,810	-1,483
-56,505	-200,000	-0,870	-4,473
-55,490	157,577	0,519	-0,522
-54,476	800,000	4,948	11,960
-53,461	-200,000	13,568	252,632
-52,446	-200,000	689,351	2257,928
-51,432	591,080	1622,119	2916,795
-50,417	119,256	1635,125	1468,021
-49,403	73,233	1289,133	977,361
-48,388	38,001	1024,434	659,713
-47,373	24,367	981,767	587,399
-46,359	23,531	971,744	578,636
-45,344	22,539	967,378	572,770
-44,330	22,532	965,795	571,788
-43,315	22,349	964,328	570,300
-42,300	22,383	963,192	569,718
-41,286	22,418	962,369	569,321
-40,271	22,320	961,450	568,437
-39,257	22,385	960,407	568,010
-38,242	22,370	959,525	567,415
-37,227	22,318	958,798	566,793
-36,213	22,271	957,865	566,068
-35,198	22,293	956,994	565,603
-34,184	22,351	956,429	565,434
-33,169	22,327	955,415	564,733
-32,154	22,356	954,654	564,354
-31,140	22,378	953,588	563,775
-30,125	22,433	952,861	563,499
-29,111	22,427	951,833	562,849
-28,096	22,390	951,311	562,400
-27,082	22,348	950,797	561,938
-26,067	22,418	949,830	561,569
-25,052	22,399	949,125	561,070
-24,038	22,374	948,691	560,709
-23,023	22,359	948,062	560,267
-22,009	22,404	947,296	559,936
-20,994	22,414	946,746	559,621
-19,979	22,448	946,041	559,290
-18,965	22,388	945,377	558,685
-17,950	22,392	944,657	558,250
-16,936	22,297	944,201	557,654
-15,921	22,317	943,486	557,275
-14,906	22,316	942,675	556,769
-13,892	22,200	942,172	556,083
-12,877	22,273	941,472	555,880
-11,863	22,211	940,781	555,253
-10,848	22,305	940,270	555,226
-9,833	22,390	939,797	555,196
-8,819	22,356	939,205	554,717
-7,804	22,291	938,494	554,067
-6,790	22,262	937,978	553,647
-5,775	22,281	937,370	553,327
-4,760	22,295	936,721	552,967
-3,746	22,287	935,953	552,466
-2,731	22,173	935,427	551,776
-1,717	22,053	934,792	551,000
-0,702	22,119	933,826	550,617
0,313	21,855	933,586	550,474
1,327	25,051	931,361	559,163
2,342	34,786	796,116	503,895
3,356	32,735	451,900	282,909
4,371	1,817	293,916	153,142
5,386	-2,740	274,749	138,830
6,400	-4,369	268,941	134,371
7,415	-4,774	266,551	132,792
8,429	-4,515	265,287	132,389
9,444	-4,437	264,567	132,089
10,459	-4,562	263,928	131,644
11,473	-4,606	263,261	131,259
12,488	-4,575	262,725	131,009
13,502	-4,784	262,234	130,563
14,517	-4,671	261,635	130,355
15,531	-4,815	261,406	130,100
16,546	-4,560	261,120	130,175
17,561	-4,611	260,678	129,897
18,575	-4,682	260,335	129,651
19,590	-4,678	260,037	129,495
20,604	-4,684	259,755	129,337
21,619	-4,874	259,446	129,002
22,634	-4,624	258,920	128,952
23,648	-4,675	258,751	128,811
24,663	-4,655	258,552	128,718
25,677	-4,808	258,459	128,524
26,692	-4,545	257,889	128,463
27,707	-4,847	257,810	128,144
28,721	-4,728	257,513	128,091
29,736	-4,772	257,323	127,945
30,750	-4,931	257,065	127,665
31,765	-4,909	256,779	127,531
32,780	-4,820	256,527	127,473
33,794	-4,740	256,430	127,484
34,809	-4,738	255,995	127,258
35,823	-4,836	255,687	127,008
36,838	-4,892	255,623	126,915
37,853	-4,912	255,319	126,735
38,867	-4,815	255,148	126,725
39,882	-4,804	254,954	126,626
40,896	-4,828	254,618	126,427
41,911	-5,016	254,395	126,140
42,926	-4,897	254,182	126,128
43,940	-4,857	254,045	126,084
44,955	-4,946	253,777	125,862
45,969	-4,964	253,510	125,703
46,984	-4,920	253,076	125,514
47,999	-5,136	252,950	125,252
49,013	-5,457	252,668	124,822
50,028	-5,762	252,603	124,515
51,042	-5,776	252,264	124,323
52,057	-5,672	252,032	124,288
53,071	-5,860	251,900	124,050
54,086	-5,590	251,803	124,224
55,101	-5,303	251,413	124,269
56,115	-5,247	251,468	124,334
57,130	-4,641	251,202	124,715
58,144	-4,628	251,121	124,675
59,159	-4,500	250,936	124,682
60,174	-4,699	250,855	124,459
61,188	-4,475	250,460	124,445
62,203	-4,641	250,417	124,270
63,217	-4,709	250,081	124,033
64,232	-4,822	249,873	123,822
65,247	-4,436	249,606	124,009
66,261	-4,617	249,504	123,793
67,276	-4,960	249,256	123,364
68,290	-5,032	248,951	123,142
69,305	-5,400	248,779	122,731
70,320	-5,207	248,580	122,787
71,334	-4,856	248,444	123,007
72,349	-4,731	248,356	123,060
73,363	-4,599	248,036	123,003
74,378	-4,745	247,927	122,813
75,393	-4,692	247,724	122,748
76,407	-4,565	247,449	122,707
77,422	-4,743	247,288	122,466
78,436	-4,630	247,155	122,485
79,451	-4,848	247,005	122,215
80,466	-4,753	246,596	122,082
81,480	-4,879	246,359	121,847
82,495	-5,096	246,289	121,619
83,509	-4,892	246,001	121,638
84,524	-5,011	246,095	121,573
85,539	-5,073	245,591	121,261
86,553	-5,096	245,514	121,192
87,568	-5,086	245,222	121,046
88,582	-5,112	245,172	120,989
89,597	-4,937	244,838	120,960
90,611	-5,047	244,868	120,872
91,626	-4,836	244,793	121,001
92,641	-4,690	244,333	120,885
93,655	-4,965	244,335	120,645
94,670	-4,888	244,024	120,545
95,684	-4,925	243,707	120,347
96,699	-4,748	243,613	120,437
97,714	-4,921	243,402	120,178
98,728	-5,069	243,260	119,974
99,743	-5,025	243,050	119,897
100,757	-5,344	242,854	119,523
101,772	-5,177	242,612	119,533
102,787	-5,218	242,564	119,464
103,801	-4,939	242,266	119,538
104,816	-4,901	242,185	119,519
105,830	-4,756	242,115	119,594
106,845	-4,663	241,872	119,541
107,860	-4,785	241,649	119,318
108,874	-4,988	241,465	119,049
109,889	-4,789	241,254	119,099
110,903	-5,046	241,042	118,772
111,918	-5,032	240,884	118,694
112,933	-4,941	240,871	118,752
113,947	-4,917	240,673	118,664
114,962	-4,723	240,429	118,693
115,976	-4,912	240,320	118,473
116,991	-4,664	240,128	118,572
118,006	-4,985	240,055	118,261
119,020	-4,772	239,831	118,315
120,035	-4,652	239,713	118,345
121,049	-4,588	239,383	118,224
122,064	-4,818	239,445	118,056
123,079	-4,777	239,280	117,998
124,093	-4,837	238,946	117,773
125,108	-5,042	238,748	117,498
126,122	-5,164	238,421	117,227
127,137	-5,497	238,366	116,918
128,151	-5,417	238,270	116,926
129,166	-4,939	237,937	117,141
130,181	-5,242	237,754	116,794
131,195	-5,092	237,562	116,811
132,210	-5,000	237,458	116,824
133,224	-4,910	237,316	116,817
134,239	-4,826	237,284	116,858
135,254	-4,800	236,949	116,704
136,268	-5,021	236,735	116,410
137,283	-5,156	236,540	116,195
138,297	-5,108	236,239	116,075
139,312	-5,208	236,179	115,954
140,327	-5,019	236,058	116,037
141,341	-4,431	235,931	116,437
142,356	-4,350	235,921	116,488
143,370	-4,652	235,792	116,170
144,385	-4,540	235,741	116,225
145,400	-4,308	235,432	116,249
146,414	-4,379	235,250	116,091
147,429	-4,599	235,103	115,832
148,443	-4,461	234,810	115,788
149,458	-4,526	234,674	115,659
150,473	-4,463	234,514	115,620
151,487	-4,573	234,286	115,409
152,502	-4,780	234,309	115,245
153,516	-4,290	233,984	115,465
154,531	-4,615	233,914	115,162
155,546	-4,592	233,669	115,049
156,560	-4,655	233,426	114,869
157,575	-4,738	233,338	114,750
158,589	-4,802	233,187	114,614
159,604	-4,496	233,005	114,758
160,619	-4,325	232,948	114,855
161,633	-4,320	232,866	114,808
162,648	-4,376	232,607	114,626
163,662	-4,502	232,468	114,447
164,677	-4,822	232,303	114,103
165,692	-4,697	232,186	114,134
166,706	-4,465	231,967	114,199
167,721	-4,445	231,968	114,205
168,735	-4,259	231,707	114,214
169,750	-4,386	231,601	114,050
170,764	-4,479	231,472	113,904
171,779	-4,514	231,369	113,816
172,794	-4,320	231,256	113,903
173,808	-4,477	230,893	113,591
174,823	-4,930	230,631	113,096
175,837	-5,282	230,490	112,741
176,852	-4,905	230,374	112,969
177,867	-4,539	230,379	113,249
178,881	-4,423	230,220	113,251
179,896	-4,343	230,037	113,213
180,910	-4,505	229,925	113,021
181,925	-4,429	229,700	112,960
182,940	-4,186	229,388	112,986
183,954	-4,311	229,396	112,882
184,969	-4,253	229,205	112,823
185,983	-4,241	229,154	112,798
186,998	-4,104	229,019	112,828
188,013	-4,094	228,884	112,759
189,027	-4,045	228,631	112,662
190,042	-4,285	228,467	112,385
191,056	-4,015	228,398	112,551
192,071	-4,079	228,158	112,373
193,086	-4,442	228,030	112,019
194,100	-4,472	227,834	111,889
195,115	-4,617	227,513	111,609
196,129	-5,329	227,184	110,889
197,144	-2,192	228,198	113,803
198,159	2,138	229,391	117,751
199,173	4,184	229,994	119,640
200,188	4,506	229,865	119,812
201,202	4,359	229,784	119,645
202,217	4,512	229,563	119,638
203,232	4,791	229,459	119,789
204,246	4,714	229,504	119,742
205,261	4,825	229,196	119,657
206,275	5,078	229,128	119,806
207,290	5,113	228,981	119,746
208,304	4,986	228,794	119,539
209,319	4,935	228,549	119,361
210,334	4,851	228,342	119,178
211,348	4,610	228,180	118,897
212,363	4,145	228,024	118,448
213,377	3,874	227,681	118,051
214,392	3,960	227,584	118,056
215,407	4,131	227,553	118,161
216,421	4,137	227,429	118,090
217,436	4,179	227,134	117,959
218,450	3,966	226,782	117,603
219,465	3,728	226,776	117,407
220,480	3,957	226,585	117,473
221,494	3,886	226,491	117,359
222,509	4,186	226,435	117,549
223,523	4,010	226,175	117,270
224,538	3,940	226,092	117,163
225,553	3,852	226,097	117,087
226,567	4,068	225,929	117,154
227,582	4,150	225,861	117,171
228,596	4,389	225,695	117,256
229,611	4,056	225,420	116,850
230,626	3,991	225,216	116,685
231,640	4,027	225,070	116,626
232,655	4,102	225,049	116,661
233,669	4,505	225,028	116,945
234,684	4,726	224,950	117,061
235,699	4,500	224,634	116,716
236,713	4,468	224,340	116,529
237,728	4,081	224,261	116,185
238,742	4,139	224,013	116,090
239,757	4,110	223,806	115,950
240,772	4,139	223,603	115,857
241,786	4,209	223,531	115,862
242,801	4,347	223,581	115,981
243,815	4,496	223,444	116,011
244,830	4,487	223,272	115,905
245,844	3,992	223,124	115,447
246,859	4,113	222,917	115,420
247,874	4,347	222,830	115,540
248,888	4,264	222,680	115,390
249,903	4,105	222,474	115,154
250,917	4,092	222,423	115,108
251,932	4,242	222,251	115,120
252,947	4,201	222,009	114,954
253,961	3,930	221,874	114,672
254,976	4,300	221,670	114,832
255,990	4,132	221,755	114,741
257,005	4,373	221,523	114,790
258,020	4,272	221,428	114,655
259,034	4,488	221,400	114,791
260,049	4,074	221,170	114,354
261,063	4,126	220,963	114,275
262,078	4,530	220,840	114,501
263,093	4,433	220,937	114,469
264,107	4,634	220,460	114,360
265,122	4,353	220,477	114,151
266,136	4,468	220,353	114,162
267,151	4,489	220,266	114,122
268,166	4,010	219,865	113,551
269,180	3,862	219,859	113,428
270,195	4,000	219,559	113,365
271,209	3,942	219,376	113,218
272,224	4,069	219,361	113,293
273,239	4,176	219,280	113,321
274,253	3,989	219,056	113,057
275,268	4,176	218,729	113,015
276,282	3,790	218,612	112,662
277,297	3,714	218,519	112,548
278,312	4,044	218,455	112,747
279,326	4,044	218,472	112,745
280,341	4,023	218,260	112,610
281,355	3,972	218,057	112,459
282,370	4,011	217,877	112,384
283,384	4,188	217,648	112,385
284,399	3,742	217,540	111,995
285,414	3,783	217,627	112,059
286,428	4,222	217,256	112,178
287,443	4,149	217,201	112,086
288,457	4,028	217,104	111,938
289,472	4,043	216,933	111,851
290,487	3,869	216,635	111,560
291,501	3,615	216,617	111,357
292,516	3,721	216,535	111,382
293,530	3,644	216,598	111,349
294,545	3,800	216,292	111,295
295,560	4,156	216,105	111,446
296,574	4,007	216,039	111,294
297,589	4,201	215,892	111,349
298,603	4,055	215,816	111,194
299,618	4,164	215,606	111,155
300,633	4,145	215,463	111,058
301,647	4,386	215,384	111,181
302,662	4,406	215,264	111,123
303,676	4,332	215,201	111,027
304,691	4,390	214,918	110,914
305,706	4,195	214,906	110,757
306,720	4,362	214,679	110,750
307,735	4,176	214,543	110,537
308,749	4,049	214,501	110,414
309,764	4,212	214,441	110,490
310,779	4,374	214,218	110,481
311,793	4,444	213,928	110,372
312,808	4,126	213,935	110,138
313,822	4,127	213,611	109,962
314,837	4,234	213,428	109,935
315,852	3,932	213,170	109,577
316,866	4,007	213,255	109,664
317,881	4,272	213,108	109,768
318,895	4,423	212,917	109,766
319,910	4,119	212,857	109,510
320,925	3,847	212,552	109,150
321,939	3,794	212,382	109,015
322,954	3,736	212,472	109,010
323,968	4,159	212,368	109,248
324,983	4,150	212,269	109,181
325,997	4,405	212,014	109,220
327,012	4,192	211,828	108,964
328,027	4,428	211,795	109,104
329,041	4,566	211,806	109,197
330,056	4,466	211,827	109,128
331,070	4,073	211,335	108,588
332,085	3,838	211,227	108,356
333,100	3,974	210,993	108,323
334,114	4,075	211,064	108,421
335,129	3,927	210,829	108,187
336,143	4,138	210,687	108,252
337,158	4,000	210,461	108,030
338,173	4,017	210,451	108,027
339,187	3,939	210,291	107,880
340,202	3,760	210,118	107,656
341,216	3,744	209,796	107,471
342,231	3,958	209,880	107,654
343,246	3,842	209,747	107,495
344,260	3,789	209,633	107,390
345,275	4,060	209,325	107,411
346,289	4,185	209,375	107,515
347,304	4,213	209,141	107,405
348,319	4,187	209,123	107,367
349,333	4,243	208,989	107,328
350,348	4,285	208,818	107,260
351,362	4,224	208,792	107,195
352,377	4,127	208,602	107,020
353,392	4,266	208,416	107,012
354,406	4,115	208,365	106,871
355,421	194,016	1345,009	1434,053
356,435	154,808	1483,600	1434,176
