DTS Sentinel unit serial number:	SN410029Multiplexer serial number:	ORYXHardware model number:	OX2-SRSoftware version number:	ORYX F/W v4,00 Oryx Data Collector v3.7.2.0data status	okinstallation	B6 Nyhavnadifferential loss correction	single-endedforward channel	channel 2reverse channel	N/Adate	2023/12/11time	03:30:08forward acquisition time	300,00reverse acquisition time	0,00gamma	499,1914k internal	0,3124k external	0,3124temperature offset calibration	1,0000default loss term (dB/km)	0,3820temperature slope calibration	1,0000multiplexer offset coefficient	1,0000multiplexer slope coefficient	1,0000fibre end	0,00T internal ref (°C)	21,15T ext. ref 1 (°C)	3,93T ext. ref 2 (°C)	3,94length (m)	temperature (°C)	Stokes	anti-Stokes-744,400	73,512	0,030	-0,024
-743,385	25,782	-0,204	0,127
-742,371	800,000	0,030	-0,077
-741,356	-107,405	-0,320	0,052
-740,342	28,060	-0,026	-0,016
-739,327	81,250	-0,123	0,099
-738,312	800,000	0,062	-0,158
-737,298	-85,049	-0,195	-0,045
-736,283	83,632	0,151	-0,123
-735,269	-98,327	-0,285	0,054
-734,254	-87,867	-0,066	0,015
-733,239	-94,848	-0,400	-0,080
-732,225	-110,498	0,162	0,025
-731,210	190,387	0,062	0,070
-730,196	-3,165	0,143	-0,074
-729,181	-200,000	0,004	0,015
-728,167	172,893	0,062	0,067
-727,152	-8,326	0,092	-0,046
-726,137	-200,000	-0,027	0,091
-725,123	800,000	0,034	-0,095
-724,108	-92,906	-0,186	-0,038
-723,094	188,390	-0,136	-0,151
-722,079	-200,000	-0,119	-0,000
-721,064	161,065	0,012	0,012
-720,050	229,645	-0,090	-0,109
-719,035	212,291	-0,065	-0,077
-718,021	-20,331	0,034	0,016
-717,006	162,686	-0,112	-0,117
-715,991	-42,645	-0,193	-0,073
-714,977	318,890	-0,037	-0,052
-713,962	-143,851	0,089	0,006
-712,948	-20,087	0,102	0,047
-711,933	703,786	-0,012	-0,025
-710,918	-200,000	0,035	-0,207
-709,904	-200,000	-0,039	-0,129
-708,889	88,682	-0,131	0,108
-707,875	-54,998	-0,052	0,017
-706,860	239,072	0,058	0,072
-705,845	-17,418	0,036	0,017
-704,831	-67,004	0,112	0,033
-703,816	104,750	-0,015	-0,013
-702,802	800,000	-0,025	-0,052
-701,787	-0,005	0,131	0,069
-700,772	20,129	0,064	-0,039
-699,758	373,513	-0,075	-0,114
-698,743	-14,885	-0,074	-0,035
-697,729	-166,942	-0,061	0,002
-696,714	163,759	-0,090	0,095
-695,699	12,460	0,029	0,017
-694,685	-200,000	-0,000	-0,077
-693,670	-40,561	-0,189	-0,072
-692,656	-58,285	0,088	-0,028
-691,641	-200,000	-0,014	-0,161
-690,627	492,821	-0,061	0,105
-689,612	-200,000	-0,005	0,042
-688,597	282,037	-0,092	-0,123
-687,583	-200,000	-0,003	0,017
-686,568	150,557	-0,025	-0,025
-685,554	-35,340	-0,182	-0,073
-684,539	-35,931	0,026	-0,010
-683,524	308,326	0,071	-0,099
-682,510	4,909	0,117	-0,064
-681,495	83,872	-0,075	-0,060
-680,481	320,766	0,031	0,044
-679,466	-200,000	-0,042	-0,153
-678,451	-154,186	-0,194	-0,010
-677,437	-84,803	-0,054	0,012
-676,422	-200,000	-0,026	0,133
-675,408	-200,000	-0,022	0,079
-674,393	2,366	-0,018	-0,010
-673,378	800,000	-0,015	-0,050
-672,364	186,739	-0,098	-0,109
-671,349	-149,480	0,011	-0,001
-670,335	71,968	0,070	-0,054
-669,320	56,613	-0,046	-0,033
-668,305	463,100	-0,021	0,035
-667,291	260,863	-0,037	0,047
-666,276	131,433	-0,089	0,085
-665,262	-37,599	-0,090	-0,036
-664,247	622,818	-0,078	-0,146
-663,232	125,518	-0,029	-0,027
-662,218	306,479	0,015	-0,020
-661,203	143,844	-0,042	-0,042
-660,189	-86,575	-0,081	0,018
-659,174	800,000	-0,069	-0,158
-658,159	-35,696	-0,067	-0,027
-657,145	-112,756	-0,135	-0,020
-656,130	-8,940	0,066	0,033
-655,116	241,018	-0,006	0,008
-654,101	-200,000	0,023	0,094
-653,086	-26,603	0,060	-0,026
-652,072	-28,291	0,068	0,029
-651,057	800,000	-0,061	-0,127
-650,043	800,000	0,071	-0,165
-649,028	-86,955	-0,085	-0,019
-648,014	-21,326	-0,114	-0,051
-646,999	-98,226	-0,022	-0,004
-645,984	-16,309	0,050	0,023
-644,970	-38,764	-0,043	0,017
-643,955	2,102	-0,055	-0,029
-642,941	-86,719	-0,038	0,009
-641,926	134,225	-0,161	0,155
-640,911	-51,354	0,080	0,028
-639,897	-185,738	0,087	-0,001
-638,882	800,000	0,030	-0,092
-637,868	800,000	-0,020	-0,055
-636,853	463,672	-0,033	-0,054
-635,838	144,387	-0,019	-0,019
-634,824	-200,000	0,015	-0,110
-633,809	178,280	0,133	-0,144
-632,795	-119,218	0,016	-0,002
-631,780	-170,287	0,096	-0,002
-630,765	-200,000	0,019	0,167
-629,751	-0,607	-0,073	0,038
-628,736	93,831	-0,117	0,098
-627,722	-103,182	-0,106	-0,018
-626,707	-61,334	0,131	-0,041
-625,692	-34,631	0,073	-0,029
-624,678	-161,251	0,083	-0,003
-623,663	-118,194	-0,049	-0,006
-622,649	252,133	-0,053	-0,067
-621,634	-48,743	-0,055	-0,020
-620,619	1,559	-0,018	-0,009
-619,605	-200,000	0,025	0,274
-618,590	146,812	0,052	-0,052
-617,576	225,817	0,080	0,097
-616,561	721,852	0,011	0,021
-615,546	42,583	-0,142	-0,096
-614,532	338,505	0,046	-0,067
-613,517	-157,065	-0,103	0,005
-612,503	23,265	-0,103	0,063
-611,488	800,000	-0,039	0,097
-610,474	-118,162	-0,005	-0,001
-609,459	-200,000	-0,014	0,098
-608,444	-200,000	0,002	-0,019
-607,430	-8,194	0,046	-0,023
-606,415	-52,588	0,030	-0,010
-605,401	-48,425	-0,100	-0,035
-604,386	2,876	0,064	-0,034
-603,371	-67,924	-0,106	-0,030
-602,357	4,604	0,080	-0,043
-601,342	-200,000	0,008	-0,102
-600,328	-200,000	-0,010	0,055
-599,313	-188,863	-0,083	-0,001
-598,298	102,498	0,050	-0,044
-597,284	800,000	-0,048	0,135
-596,269	23,175	-0,032	0,020
-595,255	58,976	-0,067	0,049
-594,240	-0,388	-0,024	0,013
-593,225	30,636	0,044	0,028
-592,211	800,000	-0,050	-0,142
-591,196	173,856	-0,021	-0,022
-590,182	189,882	-0,041	0,046
-589,167	-200,000	-0,002	-0,031
-588,152	49,147	0,043	0,030
-587,138	61,944	0,073	0,053
-586,123	67,565	-0,036	0,027
-585,109	-65,262	-0,129	-0,038
-584,094	800,000	-0,048	0,154
-583,079	787,876	-0,045	0,091
-582,065	-55,340	-0,127	0,042
-581,050	-200,000	0,007	-0,027
-580,036	-36,581	-0,171	0,068
-579,021	117,247	-0,055	-0,050
-578,006	800,000	-0,021	-0,067
-576,992	-28,578	-0,057	-0,024
-575,977	-83,073	-0,044	0,010
-574,963	78,262	0,226	0,179
-573,948	9,110	-0,138	-0,077
-572,934	352,572	-0,074	0,109
-571,919	301,571	0,028	-0,038
-570,904	359,907	0,133	-0,197
-569,890	122,769	-0,073	-0,067
-568,875	228,736	-0,017	-0,021
-567,861	800,000	0,031	0,098
-566,846	-31,697	-0,082	0,034
-565,831	35,212	0,126	-0,082
-564,817	-0,904	-0,093	-0,048
-563,802	525,732	-0,049	-0,086
-562,788	495,752	-0,010	0,017
-561,773	175,355	0,114	-0,123
-560,758	97,193	0,039	-0,033
-559,744	-200,000	-0,001	-0,011
-558,729	-81,039	-0,044	0,011
-557,715	800,000	-0,067	-0,139
-556,700	-200,000	0,023	-0,083
-555,685	-54,589	-0,154	-0,051
-554,671	65,821	-0,051	0,038
-553,656	-200,000	-0,011	0,067
-552,642	219,836	0,037	0,044
-551,627	800,000	0,016	-0,052
-550,612	246,916	0,062	-0,078
-549,598	-200,000	0,012	-0,093
-548,583	-200,000	0,063	0,000
-547,569	738,768	0,044	-0,088
-546,554	291,223	-0,063	-0,085
-545,539	-95,474	0,089	0,018
-544,525	201,904	0,037	0,042
-543,510	-127,063	-0,128	0,014
-542,496	-6,464	0,162	-0,082
-541,481	213,341	-0,047	-0,055
-540,466	-74,417	0,128	0,034
-539,452	-200,000	0,003	0,069
-538,437	102,032	0,019	-0,016
-537,423	472,481	-0,063	-0,105
-536,408	1,164	-0,077	0,041
-535,393	94,516	-0,046	0,038
-534,379	-200,000	-0,002	-0,098
-533,364	800,000	-0,045	0,128
-532,350	-172,250	0,160	0,004
-531,335	-60,736	0,120	0,037
-530,321	-94,325	0,090	0,018
-529,306	800,000	0,017	0,039
-528,291	-200,000	-0,004	-0,016
-527,277	572,170	-0,012	-0,022
-526,262	771,398	-0,043	-0,087
-525,248	800,000	0,015	-0,047
-524,233	-40,303	0,079	0,030
-523,218	122,034	0,051	0,047
-522,204	61,014	-0,181	-0,132
-521,189	800,000	-0,002	-0,006
-520,175	191,503	-0,092	0,102
-519,160	496,204	0,092	-0,157
-518,145	131,225	-0,033	-0,031
-517,131	800,000	-0,050	-0,112
-516,116	800,000	-0,047	-0,098
-515,102	-200,000	0,007	-0,065
-514,087	-32,283	-0,066	-0,027
-513,072	-108,800	-0,095	0,015
-512,058	-200,000	0,016	0,074
-511,043	592,252	-0,041	0,076
-510,029	-200,000	-0,002	0,201
-509,014	-9,587	0,112	0,055
-507,999	233,026	0,062	0,075
-506,985	-90,684	-0,183	-0,039
-505,970	800,000	-0,071	-0,204
-504,956	-200,000	0,000	-0,045
-503,941	34,406	0,145	0,093
-502,926	-57,283	0,094	0,030
-501,912	775,654	-0,067	0,136
-500,897	-22,486	0,072	-0,032
-499,883	-134,857	-0,219	0,019
-498,868	800,000	-0,035	-0,081
-497,853	-200,000	0,051	0,000
-496,839	800,000	-0,056	-0,132
-495,824	800,000	-0,024	0,075
-494,810	28,271	0,069	0,043
-493,795	273,211	-0,119	-0,156
-492,781	0,895	-0,099	-0,052
-491,766	-200,000	-0,022	-0,084
-490,751	-200,000	-0,025	-0,178
-489,737	800,000	0,027	0,083
-488,722	-200,000	0,008	-0,034
-487,708	258,069	0,079	0,101
-486,693	-200,000	0,013	0,079
-485,678	-46,804	0,079	-0,028
-484,664	98,738	0,089	0,075
-483,649	193,779	0,023	-0,026
-482,635	189,868	0,009	-0,010
-481,620	-168,671	-0,058	-0,002
-480,605	-102,494	0,091	0,016
-479,591	57,194	0,100	0,072
-478,576	513,914	-0,059	-0,103
-477,562	14,598	0,061	-0,035
-476,547	565,372	0,016	-0,028
-475,532	8,080	-0,031	-0,017
-474,518	53,188	-0,049	-0,035
-473,503	-76,391	-0,117	0,030
-472,489	113,732	0,064	0,057
-471,474	-200,000	-0,012	-0,135
-470,459	-200,000	-0,007	0,068
-469,445	-200,000	0,029	-0,095
-468,430	184,545	0,122	-0,133
-467,416	93,531	0,071	0,060
-466,401	-16,411	-0,003	0,001
-465,386	41,236	0,017	0,011
-464,372	-200,000	-0,015	0,081
-463,357	-112,281	-0,114	0,017
-462,343	-73,834	0,087	-0,023
-461,328	-200,000	0,012	-0,057
-460,313	34,933	-0,083	0,053
-459,299	800,000	0,035	0,104
-458,284	96,472	0,085	-0,071
-457,270	-125,660	0,086	-0,009
-456,255	285,633	-0,068	0,091
-455,241	295,434	0,016	-0,022
-454,226	57,594	-0,130	0,094
-453,211	800,000	0,038	0,089
-452,197	-200,000	-0,020	0,083
-451,182	800,000	-0,006	0,017
-450,168	341,366	0,015	0,022
-449,153	108,505	0,015	-0,013
-448,138	1,194	-0,037	-0,019
-447,124	-200,000	-0,003	-0,240
-446,109	-49,741	-0,062	-0,022
-445,095	-200,000	-0,020	-0,088
-444,080	-200,000	-0,004	0,044
-443,065	800,000	-0,038	0,107
-442,051	-75,954	-0,093	0,024
-441,036	-200,000	0,014	0,065
-440,022	77,531	-0,112	0,088
-439,007	800,000	-0,025	-0,069
-437,992	13,135	-0,060	-0,034
-436,978	-80,507	-0,111	0,027
-435,963	-101,625	0,166	0,029
-434,949	236,986	-0,059	-0,072
-433,934	800,000	-0,026	-0,070
-432,919	408,052	-0,115	-0,180
-431,905	479,393	0,091	-0,152
-430,890	800,000	0,037	0,082
-429,876	-65,607	0,022	-0,007
-428,861	126,399	-0,083	-0,077
-427,846	-119,972	0,071	-0,009
-426,832	131,596	0,083	-0,079
-425,817	345,859	-0,059	-0,086
-424,803	800,000	0,021	0,054
-423,788	277,790	0,076	0,100
-422,773	800,000	0,038	0,080
-421,759	312,507	-0,063	0,088
-420,744	114,496	-0,025	-0,022
-419,730	-56,902	0,024	-0,008
-418,715	-83,211	0,108	0,025
-417,701	-128,842	-0,140	-0,014
-416,686	-200,000	-0,012	0,063
-415,671	254,882	0,078	0,098
-414,657	477,790	0,010	0,017
-413,642	-200,000	0,002	0,076
-412,628	-200,000	0,009	0,065
-411,613	33,063	-0,071	-0,045
-410,598	48,452	0,098	-0,068
-409,584	800,000	0,021	0,063
-408,569	277,970	0,024	-0,031
-407,555	-200,000	-0,007	0,046
-406,540	-164,566	-0,088	-0,003
-405,525	425,593	-0,033	0,052
-404,511	-200,000	-0,004	-0,198
-403,496	-200,000	0,003	-0,060
-402,482	-1,229	-0,040	-0,021
-401,467	228,438	0,094	0,113
-400,452	1,285	0,056	0,030
-399,438	-78,791	-0,031	-0,008
-398,423	-133,534	-0,123	-0,011
-397,409	-200,000	0,008	0,030
-396,394	161,649	0,013	0,013
-395,379	-28,469	0,016	0,007
-394,365	-200,000	0,006	-0,024
-393,350	148,690	0,058	-0,057
-392,336	800,000	0,035	0,095
-391,321	-200,000	0,000	-0,006
-390,306	-54,904	-0,076	-0,025
-389,292	135,780	-0,022	-0,021
-388,277	800,000	0,033	0,104
-387,263	222,768	0,060	-0,071
-386,248	662,120	0,027	0,051
-385,233	376,706	0,062	0,093
-384,219	245,356	-0,035	0,044
-383,204	800,000	-0,046	-0,113
-382,190	-104,751	0,070	-0,012
-381,175	-166,378	-0,060	0,002
-380,160	-200,000	0,011	0,054
-379,146	-3,526	0,101	0,051
-378,131	-47,302	-0,027	-0,010
-377,117	-200,000	0,013	0,097
-376,102	161,210	-0,035	0,036
-375,088	254,462	0,099	-0,125
-374,073	800,000	0,005	0,014
-373,058	57,805	0,024	-0,017
-372,044	800,000	0,033	-0,074
-371,029	74,262	-0,157	-0,121
-370,015	-200,000	0,010	-0,035
-369,000	249,661	-0,081	0,101
-367,985	221,502	-0,063	0,074
-366,971	123,953	-0,033	0,031
-365,956	-200,000	0,012	-0,059
-364,942	-200,000	0,030	0,102
-363,927	800,000	-0,026	0,073
-362,912	459,993	0,018	0,029
-361,898	-41,492	0,118	-0,044
-360,883	-200,000	0,027	-0,089
-359,869	-200,000	0,006	0,034
-358,854	800,000	-0,014	-0,045
-357,839	62,837	-0,094	0,069
-356,825	-200,000	-0,005	0,126
-355,810	-14,405	0,146	-0,069
-354,796	-120,935	-0,111	0,013
-353,781	-86,820	-0,044	0,010
-352,766	3,257	-0,133	0,071
-351,752	14,001	-0,047	0,027
-350,737	241,044	0,091	0,111
-349,723	12,806	0,085	-0,048
-348,708	-200,000	0,010	0,053
-347,693	114,627	0,058	-0,052
-346,679	-67,580	-0,154	0,044
-345,664	71,692	0,098	-0,075
-344,650	86,801	-0,077	0,062
-343,635	-0,637	0,129	-0,067
-342,620	45,756	0,132	0,089
-341,606	-35,114	-0,111	0,044
-340,591	-200,000	-0,013	-0,072
-339,577	774,154	-0,041	-0,083
-338,562	322,576	0,047	-0,066
-337,548	-200,000	-0,011	0,046
-336,533	-200,000	-0,007	-0,096
-335,518	-4,443	0,059	-0,030
-334,504	-113,725	0,117	0,017
-333,489	-94,257	0,017	-0,003
-332,475	-200,000	0,008	-0,113
-331,460	259,493	-0,039	0,049
-330,445	5,528	-0,108	-0,058
-329,431	-200,000	0,011	0,088
-328,416	800,000	0,026	0,074
-327,402	746,829	0,046	-0,092
-326,387	-59,696	0,026	-0,008
-325,372	50,277	-0,103	-0,072
-324,358	-148,725	-0,116	0,007
-323,343	-169,306	-0,048	-0,001
-322,329	-112,867	0,114	-0,016
-321,314	-112,100	0,067	0,010
-320,299	800,000	0,023	0,058
-319,285	-200,000	0,011	-0,089
-318,270	66,765	-0,092	0,068
-317,256	74,799	0,074	0,057
-316,241	-2,610	0,088	0,045
-315,226	800,000	0,021	0,066
-314,212	-200,000	-0,027	-0,107
-313,197	565,711	-0,023	-0,042
-312,183	-37,735	0,095	-0,037
-311,168	-200,000	0,010	-0,102
-310,153	-73,958	0,090	0,024
-309,139	-200,000	-0,019	-0,119
-308,124	800,000	-0,010	-0,032
-307,110	-200,000	0,014	-0,073
-306,095	-200,000	0,022	-0,119
-305,080	225,374	-0,132	0,157
-304,066	-200,000	0,027	0,109
-303,051	221,471	-0,017	0,020
-302,037	-200,000	-0,004	0,122
-301,022	800,000	0,039	0,103
-300,008	-133,893	-0,148	0,013
-298,993	-111,706	0,031	0,005
-297,978	12,591	-0,069	-0,039
-296,964	164,226	0,061	0,063
-295,949	-200,000	0,005	0,043
-294,935	130,146	-0,101	0,094
-293,920	160,097	0,024	-0,025
-292,905	33,513	-0,024	-0,015
-291,891	-200,000	0,032	-0,126
-290,876	60,369	0,050	-0,036
-289,862	-47,506	0,065	-0,023
-288,847	34,026	-0,075	0,048
-287,832	-120,466	-0,055	0,007
-286,818	180,791	-0,029	-0,031
-285,803	114,751	-0,035	-0,031
-284,789	123,860	0,079	0,073
-283,774	39,462	-0,032	0,021
-282,759	6,254	-0,046	0,025
-281,745	129,152	-0,019	-0,018
-280,730	-4,263	0,065	-0,033
-279,716	-200,000	0,000	0,146
-278,701	-4,961	0,064	0,032
-277,686	434,561	-0,032	-0,051
-276,672	-25,221	-0,091	0,039
-275,657	-41,530	0,148	0,055
-274,643	10,733	0,039	0,022
-273,628	-200,000	0,041	-0,144
-272,613	-200,000	0,007	-0,054
-271,599	190,269	0,073	0,080
-270,584	77,714	0,136	-0,106
-269,570	-200,000	-0,016	0,067
-268,555	-185,218	0,164	-0,002
-267,540	-200,000	0,000	-0,087
-266,526	-60,171	-0,038	0,012
-265,511	333,676	0,027	-0,038
-264,497	115,621	0,108	0,096
-263,482	718,763	-0,019	-0,037
-262,467	-117,180	0,118	-0,016
-261,453	184,511	0,076	0,082
-260,438	-200,000	0,014	-0,186
-259,424	-33,201	0,154	-0,062
-258,409	496,364	-0,078	0,131
-257,395	25,000	-0,023	0,014
-256,380	62,077	-0,020	-0,014
-255,365	245,730	0,077	0,095
-254,351	468,381	-0,069	0,114
-253,336	-200,000	-0,005	0,079
-252,322	-56,917	0,098	0,031
-251,307	84,497	0,024	0,019
-250,292	-32,891	0,111	-0,045
-249,278	-200,000	0,018	-0,102
-248,263	221,002	-0,060	0,070
-247,249	-0,343	0,030	-0,016
-246,234	195,069	0,085	-0,094
-245,219	800,000	-0,025	0,066
-244,205	-200,000	-0,024	-0,120
-243,190	800,000	0,036	-0,087
-242,176	252,689	-0,030	0,038
-241,161	241,478	-0,047	0,058
-240,146	-200,000	0,003	-0,092
-239,132	-200,000	-0,009	-0,055
-238,117	120,752	-0,086	-0,078
-237,103	-2,891	-0,127	-0,065
-236,088	135,831	0,055	0,052
-235,073	82,884	0,124	0,099
-234,059	-200,000	-0,007	-0,040
-233,044	-118,991	0,143	-0,018
-232,030	-102,909	-0,053	0,009
-231,015	800,000	0,039	-0,117
-230,000	153,674	-0,035	-0,035
-228,986	308,414	0,049	0,067
-227,971	-200,000	0,004	0,074
-226,957	141,454	-0,015	-0,015
-225,942	-41,801	-0,041	0,015
-224,927	800,000	0,010	0,030
-223,913	28,608	-0,083	0,051
-222,898	517,331	-0,019	-0,033
-221,884	-200,000	0,039	0,144
-220,869	800,000	0,033	0,106
-219,855	-83,815	0,117	0,027
-218,840	-18,205	-0,032	0,015
-217,825	-200,000	0,021	0,144
-216,811	87,794	-0,035	0,028
-215,796	-41,087	-0,040	-0,015
-214,782	221,636	0,033	-0,038
-213,767	56,991	0,065	0,046
-212,752	-200,000	0,024	0,136
-211,738	-200,000	-0,014	0,097
-210,723	-24,549	0,075	-0,032
-209,709	247,102	-0,069	0,085
-208,694	-4,350	-0,072	0,036
-207,679	800,000	-0,020	0,063
-206,665	-54,103	0,123	0,040
-205,650	12,710	0,123	-0,069
-204,636	-2,396	0,041	0,021
-203,621	-200,000	-0,006	0,111
-202,606	800,000	0,042	-0,086
-201,592	-35,598	-0,088	-0,035
-200,577	228,348	-0,065	-0,078
-199,563	-200,000	0,011	-0,068
-198,548	-52,256	0,094	0,032
-197,533	-94,640	0,113	-0,022
-196,519	176,416	0,063	-0,067
-195,504	302,413	0,122	-0,165
-194,490	-200,000	-0,121	0,000
-193,475	169,774	0,117	-0,122
-192,460	-157,891	-0,038	0,002
-191,446	-200,000	-0,002	0,035
-190,431	-148,903	0,065	0,004
-189,417	800,000	0,076	0,187
-188,402	-41,474	-0,095	0,035
-187,387	-72,196	-0,080	0,021
-186,373	529,495	-0,079	0,136
-185,358	-95,041	-0,109	0,021
-184,344	-200,000	0,033	0,109
-183,329	273,713	0,056	0,072
-182,315	-70,304	-0,144	0,040
-181,300	177,290	-0,068	-0,072
-180,285	17,301	-0,055	0,032
-179,271	-84,474	0,098	-0,022
-178,256	62,066	0,155	-0,112
-177,242	-47,003	-0,037	-0,013
-176,227	-200,000	-0,018	0,071
-175,212	311,358	-0,014	-0,019
-174,198	-200,000	0,006	0,049
-173,183	-200,000	0,005	-0,052
-172,169	-120,799	0,025	-0,003
-171,154	276,065	0,012	0,015
-170,139	-200,000	-0,005	0,022
-169,125	101,672	0,081	0,068
-168,110	641,444	-0,070	0,131
-167,096	218,521	0,056	0,066
-166,081	800,000	0,031	0,075
-165,066	800,000	-0,088	-0,207
-164,052	34,459	-0,080	-0,051
-163,037	-200,000	0,018	0,077
-162,023	-200,000	-0,022	-0,098
-161,008	800,000	-0,030	-0,087
-159,993	29,914	-0,002	-0,001
-158,979	-118,259	-0,145	0,019
-157,964	66,906	-0,077	-0,057
-156,950	307,610	0,029	-0,039
-155,935	276,751	0,119	0,155
-154,920	46,827	-0,079	-0,053
-153,906	130,119	0,050	-0,047
-152,891	455,980	-0,037	-0,060
-151,877	-157,204	-0,057	0,002
-150,862	-55,535	-0,046	0,015
-149,847	-200,000	0,001	0,114
-148,833	-41,430	0,096	-0,036
-147,818	712,054	-0,032	0,061
-146,804	-115,799	0,055	0,007
-145,789	-33,261	0,069	0,028
-144,775	-200,000	0,020	-0,094
-143,760	-186,665	0,131	-0,001
-142,745	-116,327	0,166	-0,022
-141,731	800,000	0,015	0,040
-140,716	800,000	-0,051	-0,145
-139,702	-24,478	0,007	0,003
-138,687	-200,000	0,002	0,041
-137,672	71,764	-0,090	-0,068
-136,658	-200,000	-0,023	-0,202
-135,643	142,018	-0,064	-0,062
-134,629	65,898	0,107	0,079
-133,614	102,119	0,040	0,034
-132,599	494,946	0,070	-0,117
-131,585	141,609	0,046	0,045
-130,570	84,986	-0,010	-0,008
-129,556	800,000	0,049	0,106
-128,541	-49,263	-0,021	-0,007
-127,526	182,816	-0,028	0,030
-126,512	800,000	-0,059	-0,147
-125,497	-200,000	0,002	0,037
-124,483	-200,000	0,056	0,223
-123,468	-31,544	-0,079	0,032
-122,453	-13,608	0,035	0,017
-121,439	239,380	-0,059	0,072
-120,424	800,000	-0,028	-0,069
-119,410	2,361	0,096	0,050
-118,395	-114,868	0,127	-0,017
-117,380	-79,953	-0,053	0,013
-116,366	-62,292	0,122	0,037
-115,351	403,212	-0,017	-0,026
-114,337	-200,000	0,004	-0,193
-113,322	707,418	0,047	-0,090
-112,307	138,758	0,051	-0,049
-111,293	-200,000	-0,007	0,132
-110,278	-200,000	0,005	0,049
-109,264	-3,382	-0,061	0,031
-108,249	800,000	-0,022	0,069
-107,234	-169,537	0,025	0,001
-106,220	24,725	-0,029	-0,017
-105,205	-200,000	-0,008	0,064
-104,191	-99,021	0,173	-0,032
-103,176	-116,517	-0,132	0,017
-102,162	208,600	-0,068	-0,078
-101,147	226,136	0,025	-0,029
-100,132	-200,000	0,005	0,046
-99,118	800,000	0,041	0,102
-98,103	8,715	-0,100	0,055
-97,089	181,780	-0,054	-0,058
-96,074	-200,000	0,011	-0,043
-95,059	40,016	0,088	0,057
-94,045	-71,806	0,026	0,007
-93,030	28,172	-0,102	0,062
-92,016	16,751	-0,142	-0,082
-91,001	361,659	-0,082	-0,119
-89,986	427,232	0,012	0,019
-88,972	75,246	-0,097	0,075
-87,957	-118,773	0,117	0,015
-86,943	-148,073	-0,130	-0,008
-85,928	-200,000	-0,022	0,136
-84,913	-151,473	0,025	-0,001
-83,899	-200,000	-0,040	-0,150
-82,884	327,920	0,066	0,093
-81,870	800,000	-0,035	-0,077
-80,855	-200,000	-0,016	0,081
-79,840	430,825	0,060	-0,095
-78,826	-200,000	-0,001	-0,022
-77,811	-200,000	0,015	-0,149
-76,797	330,259	0,081	0,114
-75,782	-200,000	0,034	-0,126
-74,767	196,273	0,092	0,101
-73,753	47,853	0,017	-0,012
-72,738	-123,020	-0,127	0,015
-71,724	56,416	-0,012	0,009
-70,709	-200,000	0,010	0,058
-69,694	685,326	0,034	0,064
-68,680	25,108	0,032	0,019
-67,665	-59,005	-0,133	0,041
-66,651	262,438	0,030	0,038
-65,636	591,223	-0,052	0,093
-64,622	800,000	-0,032	-0,074
-63,607	-90,559	-0,134	-0,028
-62,592	-200,000	0,025	-0,194
-61,578	-160,255	0,123	-0,005
-60,563	-79,745	0,079	-0,019
-59,549	612,162	-0,032	-0,059
-58,534	-113,200	-1,452	-0,205
-57,519	800,000	-0,695	-1,406
-56,505	-200,000	-0,974	-4,437
-55,490	-85,078	0,493	-0,111
-54,476	800,000	5,014	11,887
-53,461	-200,000	14,513	261,807
-52,446	-200,000	695,131	2269,206
-51,432	588,962	1622,659	2912,468
-50,417	119,896	1632,085	1467,746
-49,403	76,865	1286,006	989,286
-48,388	37,898	1023,665	658,606
-47,373	23,423	982,620	584,543
-46,359	22,505	971,922	575,144
-45,344	21,409	967,568	568,959
-44,330	21,379	966,109	567,981
-43,315	21,200	964,757	566,579
-42,300	21,201	963,692	565,934
-41,286	21,203	962,810	565,398
-40,271	21,163	961,715	564,604
-39,257	21,224	960,711	564,189
-38,242	21,175	959,791	563,469
-37,227	21,187	958,891	562,956
-36,213	21,146	958,174	562,382
-35,198	21,129	957,210	561,737
-34,184	21,209	956,541	561,582
-33,169	21,156	955,651	560,865
-32,154	21,146	954,824	560,326
-31,140	21,244	953,885	560,070
-30,125	21,204	953,076	559,443
-29,111	21,182	952,422	558,966
-28,096	21,176	951,583	558,431
-27,082	21,180	950,937	558,043
-26,067	21,201	950,076	557,583
-25,052	21,214	949,264	557,126
-24,038	21,207	948,746	556,777
-23,023	21,168	948,097	556,248
-22,009	21,220	947,466	556,024
-20,994	21,209	946,867	555,614
-19,979	21,197	946,185	555,155
-18,965	21,187	945,700	554,815
-17,950	21,205	945,098	554,499
-16,936	21,132	944,374	553,817
-15,921	21,109	943,657	553,302
-14,906	21,111	942,894	552,840
-13,892	21,119	942,202	552,437
-12,877	20,995	941,930	551,862
-11,863	21,039	941,018	551,445
-10,848	21,039	940,623	551,192
-9,833	21,130	940,136	551,172
-8,819	21,075	939,538	550,625
-7,804	21,109	938,806	550,283
-6,790	21,115	938,213	549,933
-5,775	21,121	937,566	549,552
-4,760	21,100	936,956	549,105
-3,746	21,066	936,480	548,698
-2,731	20,975	935,627	547,887
-1,717	20,818	935,100	547,060
-0,702	20,893	934,347	546,837
0,313	20,724	933,632	546,710
1,327	23,695	931,800	554,944
2,342	32,989	795,266	498,391
3,356	30,443	451,817	279,283
4,371	-0,299	295,215	151,609
5,386	-4,487	276,062	137,774
6,400	-6,300	270,458	133,272
7,415	-6,612	268,000	131,760
8,429	-6,123	266,925	131,670
9,444	-6,005	265,983	131,303
10,459	-6,073	265,414	130,948
11,473	-6,164	264,830	130,565
12,488	-6,294	264,195	130,122
13,502	-6,282	263,764	129,908
14,517	-6,246	263,468	129,784
15,531	-5,803	263,052	129,970
16,546	-5,594	262,581	129,915
17,561	-5,894	262,294	129,490
18,575	-5,872	262,155	129,429
19,590	-5,815	261,687	129,239
20,604	-5,761	261,398	129,133
21,619	-5,880	261,073	128,853
22,634	-5,773	260,673	128,741
23,648	-5,875	260,479	128,542
24,663	-6,074	260,356	128,291
25,677	-5,893	259,997	128,266
26,692	-5,998	259,615	127,971
27,707	-5,871	259,383	127,959
28,721	-5,945	259,159	127,771
29,736	-6,011	259,033	127,639
30,750	-5,929	258,705	127,539
31,765	-6,087	258,586	127,328
32,780	-5,869	258,210	127,325
33,794	-5,601	257,742	127,321
34,809	-6,043	257,630	126,862
35,823	-6,017	257,490	126,805
36,838	-5,889	257,125	126,727
37,853	-5,909	256,858	126,566
38,867	-6,043	256,815	126,415
39,882	-5,951	256,556	126,359
40,896	-5,867	256,286	126,288
41,911	-5,989	256,089	126,072
42,926	-5,888	255,901	126,057
43,940	-6,140	255,712	125,731
44,955	-6,149	255,482	125,599
45,969	-6,167	255,113	125,391
46,984	-6,208	254,852	125,216
47,999	-6,492	254,648	124,855
49,013	-6,406	254,443	124,819
50,028	-6,529	254,055	124,509
51,042	-6,542	253,829	124,376
52,057	-6,773	253,769	124,134
53,071	-6,657	253,518	124,101
54,086	-6,519	253,410	124,157
55,101	-6,619	253,104	123,910
56,115	-6,321	253,023	124,118
57,130	-6,080	252,935	124,274
58,144	-5,842	252,641	124,325
59,159	-5,929	252,518	124,178
60,174	-5,871	252,220	124,071
61,188	-5,982	252,225	123,966
62,203	-5,877	251,954	123,912
63,217	-5,801	251,613	123,800
64,232	-6,019	251,564	123,576
65,247	-5,931	251,158	123,441
66,261	-6,033	250,962	123,246
67,276	-6,218	250,741	122,967
68,290	-6,326	250,633	122,810
69,305	-6,184	250,172	122,695
70,320	-6,117	250,126	122,720
71,334	-5,979	249,980	122,755
72,349	-5,810	249,818	122,810
73,363	-5,734	249,527	122,721
74,378	-5,787	249,445	122,624
75,393	-5,996	249,050	122,240
76,407	-5,945	248,951	122,224
77,422	-5,876	248,692	122,145
78,436	-5,829	248,562	122,111
79,451	-5,967	248,360	121,883
80,466	-6,189	248,230	121,619
81,480	-6,079	247,873	121,527
82,495	-6,201	247,813	121,383
83,509	-5,994	247,721	121,503
84,524	-6,101	247,318	121,204
85,539	-6,240	247,178	121,006
86,553	-6,069	246,994	121,050
87,568	-6,093	246,696	120,873
88,582	-6,136	246,663	120,810
89,597	-6,116	246,407	120,690
90,611	-6,207	246,314	120,558
91,626	-6,117	246,187	120,561
92,641	-6,012	245,922	120,508
93,655	-6,065	245,620	120,305
94,670	-6,055	245,539	120,263
95,684	-6,156	245,337	120,069
96,699	-6,060	245,021	119,984
97,714	-6,178	244,914	119,822
98,728	-6,083	244,684	119,778
99,743	-6,227	244,485	119,549
100,757	-6,290	244,396	119,442
101,772	-6,281	244,144	119,316
102,787	-6,298	243,984	119,213
103,801	-6,165	243,857	119,252
104,816	-5,989	243,705	119,313
105,830	-6,044	243,612	119,212
106,845	-6,135	243,460	119,050
107,860	-6,026	243,093	118,951
108,874	-6,123	242,916	118,774
109,889	-6,307	242,751	118,529
110,903	-6,197	242,471	118,473
111,918	-6,328	242,314	118,277
112,933	-6,197	242,385	118,410
113,947	-6,093	242,115	118,354
114,962	-6,274	241,996	118,135
115,976	-6,125	241,748	118,127
116,991	-6,058	241,457	118,029
118,006	-5,909	241,340	118,085
119,020	-5,886	241,307	118,077
120,035	-6,086	241,173	117,836
121,049	-5,955	241,022	117,860
122,064	-5,924	240,722	117,729
123,079	-6,135	240,549	117,460
124,093	-6,349	240,492	117,245
125,108	-6,224	240,093	117,143
126,122	-6,445	239,786	116,801
127,137	-6,551	239,820	116,721
128,151	-6,141	239,525	116,902
129,166	-6,311	239,394	116,689
130,181	-6,405	239,212	116,513
131,195	-6,320	238,985	116,461
132,210	-6,305	238,971	116,457
133,224	-6,120	238,714	116,471
134,239	-6,037	238,501	116,425
135,254	-6,152	238,507	116,324
136,268	-6,261	238,134	116,043
137,283	-6,417	238,028	115,854
138,297	-6,668	237,680	115,470
139,312	-6,544	237,485	115,466
140,327	-6,358	237,621	115,672
141,341	-5,890	237,495	115,980
142,356	-5,741	237,277	115,985
143,370	-5,929	237,177	115,773
144,385	-5,817	237,010	115,772
145,400	-5,834	236,750	115,620
146,414	-5,648	236,598	115,686
147,429	-5,758	236,479	115,529
148,443	-5,805	236,157	115,324
149,458	-5,869	236,205	115,285
150,473	-5,964	236,048	115,122
151,487	-5,969	235,721	114,948
152,502	-5,824	235,555	114,973
153,516	-5,945	235,501	114,840
154,531	-5,909	235,172	114,698
155,546	-5,916	235,202	114,697
156,560	-6,005	234,816	114,427
157,575	-6,128	234,636	114,231
158,589	-6,038	234,431	114,192
159,604	-5,909	234,338	114,239
160,619	-5,666	234,222	114,367
161,633	-5,609	233,937	114,263
162,648	-5,644	233,858	114,186
163,662	-5,950	233,845	113,926
164,677	-6,028	233,629	113,749
165,692	-5,881	233,457	113,771
166,706	-5,807	233,394	113,790
167,721	-5,732	233,275	113,781
168,735	-5,700	232,998	113,661
169,750	-5,898	232,816	113,405
170,764	-6,164	232,828	113,190
171,779	-5,758	232,528	113,355
172,794	-5,916	232,423	113,170
173,808	-5,886	232,163	113,056
174,823	-6,260	231,867	112,607
175,837	-6,252	231,579	112,464
176,852	-6,084	231,628	112,610
177,867	-5,908	231,659	112,754
178,881	-5,889	231,300	112,584
179,896	-5,726	231,324	112,714
180,910	-5,797	231,009	112,494
181,925	-5,888	231,006	112,411
182,940	-5,871	230,850	112,339
183,954	-5,736	230,658	112,341
184,969	-5,681	230,457	112,276
185,983	-5,764	230,451	112,198
186,998	-5,489	230,160	112,262
188,013	-5,336	230,051	112,318
189,027	-5,346	229,928	112,240
190,042	-5,637	229,787	111,934
191,056	-5,492	229,546	111,920
192,071	-5,893	229,402	111,527
193,086	-5,921	229,227	111,410
194,100	-5,894	228,974	111,299
195,115	-6,463	228,497	110,615
196,129	-7,413	228,166	109,708
197,144	-3,941	229,226	112,911
198,159	0,824	230,882	117,443
199,173	4,006	231,795	120,390
200,188	4,622	231,603	120,761
201,202	4,442	231,392	120,499
202,217	4,562	231,328	120,549
203,232	4,705	231,243	120,605
204,246	4,924	231,101	120,691
205,261	4,935	230,919	120,594
206,275	4,959	230,813	120,547
207,290	4,998	230,684	120,499
208,304	5,166	230,580	120,564
209,319	5,019	230,394	120,342
210,334	4,801	230,230	120,076
211,348	4,544	229,941	119,715
212,363	4,363	229,568	119,371
213,377	4,178	229,466	119,164
214,392	4,347	229,245	119,169
215,407	4,104	229,227	118,962
216,421	4,230	229,137	119,002
217,436	4,227	228,859	118,845
218,450	4,027	228,661	118,577
219,465	3,833	228,490	118,328
220,480	3,940	228,464	118,387
221,494	3,821	228,174	118,134
222,509	4,272	228,128	118,446
223,523	4,078	227,909	118,174
224,538	4,171	227,800	118,178
225,553	4,107	227,598	118,013
226,567	4,303	227,608	118,158
227,582	4,387	227,537	118,175
228,596	4,452	227,353	118,119
229,611	4,331	227,059	117,863
230,626	4,075	227,006	117,629
231,640	3,973	226,847	117,459
232,655	4,481	226,605	117,710
233,669	4,648	226,557	117,802
234,684	4,713	226,342	117,729
235,699	4,643	226,327	117,658
236,713	4,284	226,120	117,266
237,728	4,082	225,974	117,027
238,742	3,978	225,827	116,861
239,757	4,141	225,521	116,816
240,772	4,076	225,478	116,734
241,786	4,070	225,280	116,617
242,801	4,499	225,236	116,908
243,815	4,545	225,176	116,901
244,830	4,496	224,933	116,727
245,844	4,127	224,722	116,329
246,859	4,302	224,687	116,433
247,874	4,379	224,562	116,416
248,888	4,678	224,314	116,502
249,903	4,360	224,267	116,228
250,917	4,209	224,019	115,975
251,932	4,039	223,779	115,713
252,947	4,240	223,606	115,764
253,961	4,145	223,506	115,631
254,976	4,007	223,437	115,481
255,990	4,309	223,386	115,671
257,005	4,346	223,158	115,571
258,020	4,265	223,048	115,443
259,034	4,685	222,912	115,677
260,049	4,576	222,786	115,519
261,063	4,412	222,634	115,307
262,078	4,567	222,573	115,381
263,093	4,612	222,393	115,312
264,107	4,620	222,327	115,273
265,122	4,396	222,096	114,975
266,136	4,519	222,010	115,012
267,151	4,676	221,864	115,043
268,166	4,251	221,530	114,544
269,180	4,128	221,340	114,344
270,195	4,029	221,217	114,197
271,209	3,868	221,185	114,051
272,224	4,086	220,987	114,101
273,239	4,177	220,815	114,069
274,253	4,108	220,602	113,898
275,268	4,015	220,483	113,758
276,282	3,937	220,358	113,625
277,297	3,914	220,136	113,483
278,312	3,810	220,124	113,390
279,326	3,868	220,058	113,389
280,341	4,107	219,851	113,448
281,355	4,197	219,653	113,403
282,370	4,277	219,557	113,401
283,384	4,023	219,440	113,144
284,399	4,010	219,129	112,964
285,414	4,095	218,925	112,911
286,428	4,235	218,942	113,013
287,443	4,372	218,829	113,044
288,457	4,310	218,764	112,955
289,472	4,157	218,599	112,748
290,487	3,769	218,295	112,297
291,501	3,526	218,222	112,073
292,516	3,967	218,037	112,290
293,530	4,078	218,038	112,361
294,545	3,900	217,705	112,050
295,560	3,841	217,700	111,995
296,574	4,087	217,556	112,089
297,589	3,981	217,529	111,988
298,603	4,185	217,279	111,998
299,618	4,281	217,248	112,042
300,633	4,179	217,145	111,904
301,647	4,432	217,021	112,014
302,662	4,299	216,983	111,888
303,676	4,434	216,676	111,817
304,691	4,494	216,446	111,732
305,706	4,467	216,380	111,669
306,720	4,412	216,357	111,607
307,735	4,044	216,275	111,289
308,749	4,042	215,837	111,052
309,764	4,285	215,980	111,291
310,779	4,231	215,715	111,106
311,793	4,458	215,562	111,181
312,808	4,298	215,474	111,010
313,822	4,394	215,153	110,904
314,837	4,042	214,941	110,532
315,852	3,924	214,936	110,435
316,866	4,003	214,838	110,431
317,881	4,557	214,728	110,762
318,895	4,444	214,630	110,621
319,910	4,107	214,380	110,241
320,925	3,876	214,276	110,013
321,939	3,842	214,030	109,852
322,954	3,751	214,040	109,782
323,968	3,902	213,955	109,836
324,983	4,314	213,690	109,985
325,997	4,310	213,763	110,009
327,012	4,245	213,339	109,735
328,027	4,105	213,459	109,688
329,041	4,573	213,300	109,929
330,056	4,862	213,242	110,095
331,070	4,258	212,903	109,481
332,085	3,905	212,755	109,145
333,100	4,017	212,612	109,141
334,114	4,155	212,544	109,195
335,129	4,387	212,265	109,205
336,143	3,856	212,227	108,800
337,158	3,790	212,069	108,663
338,173	4,164	212,004	108,884
339,187	3,993	211,750	108,623
340,202	3,808	211,532	108,371
341,216	3,791	211,444	108,305
342,231	3,939	211,416	108,385
343,246	3,885	211,255	108,254
344,260	4,085	211,110	108,312
345,275	4,387	210,999	108,457
346,289	4,314	210,934	108,363
347,304	4,350	210,778	108,298
348,319	4,184	210,670	108,117
349,333	4,227	210,524	108,062
350,348	4,226	210,387	107,981
351,362	4,278	210,246	107,936
352,377	4,434	210,090	107,955
353,392	4,010	210,004	107,605
354,406	4,248	209,944	107,731
355,421	192,591	1345,961	1429,815
356,435	153,650	1484,470	1429,911
