DTS Sentinel unit serial number:	SN410029Multiplexer serial number:	ORYXHardware model number:	OX2-SRSoftware version number:	ORYX F/W v4,00 Oryx Data Collector v3.7.2.0data status	okinstallation	B6 Nyhavnadifferential loss correction	single-endedforward channel	channel 2reverse channel	N/Adate	2023/12/07time	15:20:08forward acquisition time	300,00reverse acquisition time	0,00gamma	499,1914k internal	0,3101k external	0,3101temperature offset calibration	1,0000default loss term (dB/km)	0,3820temperature slope calibration	1,0000multiplexer offset coefficient	1,0000multiplexer slope coefficient	1,0000fibre end	0,00T internal ref (°C)	14,32T ext. ref 1 (°C)	-1,88T ext. ref 2 (°C)	-1,86length (m)	temperature (°C)	Stokes	anti-Stokes-744,400	800,000	0,029	-0,062
-743,385	-128,807	-0,341	-0,036
-742,371	-80,357	0,189	0,047
-741,356	-79,042	-0,280	0,071
-740,342	-187,972	0,135	0,001
-739,327	-99,505	-0,314	0,059
-738,312	800,000	0,013	0,042
-737,298	-175,681	-0,271	-0,005
-736,283	-73,872	0,153	-0,041
-735,269	59,338	-0,107	0,079
-734,254	800,000	0,052	0,147
-733,239	8,179	-0,511	-0,287
-732,225	-8,418	0,243	0,122
-731,210	-38,326	0,207	0,082
-730,196	137,532	-0,027	-0,027
-729,181	-169,913	-0,089	-0,002
-728,167	-200,000	-0,017	-0,068
-727,152	480,244	-0,090	-0,153
-726,137	-169,850	-0,073	0,002
-725,123	-158,567	-0,119	-0,005
-724,108	85,899	-0,167	-0,137
-723,094	-200,000	0,001	0,076
-722,079	435,935	-0,107	-0,176
-721,064	-200,000	-0,002	0,068
-720,050	91,912	-0,141	-0,119
-719,035	-15,307	-0,110	0,052
-718,021	22,851	-0,095	-0,058
-717,006	165,182	0,040	0,042
-715,991	42,044	-0,049	-0,033
-714,977	800,000	-0,033	0,077
-713,962	-200,000	-0,009	-0,115
-712,948	-40,741	0,052	0,020
-711,933	-59,282	-0,023	0,007
-710,918	32,664	-0,042	0,027
-709,904	-58,116	-0,157	0,051
-708,889	-200,000	0,017	-0,093
-707,875	-78,857	-0,078	-0,020
-706,860	-200,000	-0,004	0,042
-705,845	-77,298	-0,118	-0,030
-704,831	-164,660	-0,060	0,002
-703,816	-37,052	0,075	0,030
-702,802	345,168	-0,012	-0,018
-701,787	-134,412	-0,076	0,007
-700,772	-93,128	-0,141	0,029
-699,758	-29,129	-0,175	-0,075
-698,743	389,162	-0,033	0,051
-697,729	4,589	0,172	-0,094
-696,714	-21,508	-0,110	-0,050
-695,699	463,539	-0,055	-0,093
-694,685	257,004	-0,065	-0,084
-693,670	800,000	-0,006	0,016
-692,656	-19,342	-0,127	0,059
-691,641	-116,227	-0,052	-0,007
-690,627	-200,000	0,004	0,027
-689,612	-175,046	-0,059	-0,001
-688,597	800,000	-0,032	0,067
-687,583	-155,619	-0,068	0,003
-686,568	-27,912	-0,118	0,051
-685,554	-200,000	0,015	-0,132
-684,539	-42,948	0,059	0,022
-683,524	1,854	0,118	0,064
-682,510	-8,587	-0,040	0,020
-681,495	266,434	-0,032	-0,042
-680,481	-200,000	-0,029	0,126
-679,466	61,138	-0,181	-0,135
-678,451	-145,487	0,113	-0,008
-677,437	-59,861	-0,043	0,014
-676,422	55,165	-0,005	-0,004
-675,408	734,393	-0,038	-0,077
-674,393	-23,334	-0,093	-0,042
-673,378	-112,192	-0,231	-0,034
-672,364	-58,838	-0,078	-0,025
-671,349	800,000	-0,053	-0,152
-670,335	-45,920	-0,100	-0,037
-669,320	-200,000	-0,006	0,032
-668,305	800,000	-0,036	0,087
-667,291	200,037	0,040	0,046
-666,276	-200,000	-0,006	-0,073
-665,262	384,509	0,058	-0,089
-664,247	-200,000	-0,000	0,037
-663,232	738,593	-0,044	-0,088
-662,218	785,174	-0,032	0,067
-661,203	236,700	0,078	-0,097
-660,189	-15,849	-0,102	-0,048
-659,174	516,068	0,077	-0,135
-658,159	800,000	0,039	-0,125
-657,145	-200,000	-0,029	-0,144
-656,130	-200,000	0,003	0,123
-655,116	-200,000	0,030	0,106
-654,101	401,648	-0,074	0,117
-653,086	-82,547	-0,137	0,033
-652,072	-16,040	-0,154	-0,073
-651,057	-91,507	0,078	-0,016
-650,043	-107,204	-0,064	0,010
-649,028	-49,646	-0,059	0,021
-648,014	-176,155	0,114	0,002
-646,999	-200,000	-0,011	0,070
-645,984	-200,000	-0,002	-0,042
-644,970	-140,768	-0,108	-0,008
-643,955	-200,000	0,040	-0,134
-642,941	-200,000	0,003	-0,152
-641,926	-147,843	0,046	0,003
-640,911	-95,984	0,052	-0,010
-639,897	693,812	0,035	0,070
-638,882	-104,711	0,055	0,009
-637,868	800,000	-0,070	-0,179
-636,853	161,988	0,053	-0,056
-635,838	-123,608	-0,062	0,007
-634,824	-87,005	-0,119	-0,027
-633,809	17,269	0,123	0,073
-632,795	1,022	-0,120	0,064
-631,780	315,469	0,024	-0,033
-630,765	99,029	0,044	-0,038
-629,751	73,748	-0,057	0,045
-628,736	-89,223	-0,100	-0,022
-627,722	-200,000	0,006	-0,071
-626,707	129,059	0,043	0,041
-625,692	-200,000	-0,011	-0,046
-624,678	19,851	-0,109	0,066
-623,663	516,491	0,032	-0,056
-622,649	-82,319	0,054	-0,013
-621,634	278,569	-0,011	0,015
-620,619	-24,533	0,065	-0,029
-619,605	104,349	-0,018	0,016
-618,590	-116,634	-0,122	-0,017
-617,576	-200,000	0,006	0,099
-616,561	-200,000	0,015	0,099
-615,546	-200,000	-0,022	0,110
-614,532	63,998	0,038	-0,028
-613,517	-113,520	0,048	-0,007
-612,503	-200,000	0,001	0,091
-611,488	-170,240	-0,064	0,002
-610,474	724,876	0,014	0,027
-609,459	-102,704	0,103	0,018
-608,444	139,113	-0,039	-0,038
-607,430	-200,000	0,005	-0,039
-606,415	-164,396	-0,061	0,002
-605,401	-72,153	0,061	-0,017
-604,386	16,144	-0,046	0,027
-603,371	-200,000	0,031	0,197
-602,357	-200,000	-0,006	-0,033
-601,342	-22,884	-0,032	0,014
-600,328	131,126	-0,070	0,067
-599,313	-200,000	0,006	-0,187
-598,298	30,766	-0,043	-0,027
-597,284	212,166	0,030	0,036
-596,269	-200,000	-0,030	0,105
-595,255	800,000	-0,035	0,078
-594,240	-200,000	0,015	-0,069
-593,225	118,470	-0,013	0,012
-592,211	-108,418	0,056	0,009
-591,196	27,490	0,072	-0,045
-590,182	595,710	0,065	-0,120
-589,167	-93,422	0,106	-0,022
-588,152	86,933	0,069	0,057
-587,138	38,583	-0,073	-0,049
-586,123	-200,000	-0,009	-0,040
-585,109	471,487	-0,026	-0,044
-584,094	800,000	-0,027	-0,080
-583,079	-91,905	-0,051	0,011
-582,065	800,000	-0,024	-0,065
-581,050	-200,000	0,015	0,078
-580,036	-200,000	-0,009	0,090
-579,021	800,000	-0,020	-0,061
-578,006	-200,000	0,015	0,051
-576,992	39,771	0,104	0,070
-575,977	-11,097	-0,154	-0,075
-574,963	-188,541	0,139	-0,001
-573,948	800,000	-0,054	0,139
-572,934	62,994	-0,116	-0,086
-571,919	-27,650	0,109	-0,047
-570,904	-200,000	0,013	0,053
-569,890	-80,933	-0,166	0,041
-568,875	800,000	0,018	0,048
-567,861	142,306	0,057	-0,056
-566,846	800,000	0,021	-0,060
-565,831	800,000	0,042	0,094
-564,817	-200,000	0,002	-0,035
-563,802	67,698	0,085	-0,065
-562,788	173,427	-0,068	-0,073
-561,773	250,130	-0,017	0,022
-560,758	228,739	-0,031	0,037
-559,744	10,628	0,163	0,092
-558,729	16,563	0,137	0,080
-557,715	73,884	-0,064	0,050
-556,700	613,216	-0,035	-0,066
-555,685	16,527	0,023	-0,013
-554,671	271,794	-0,037	0,049
-553,656	199,041	0,045	-0,052
-552,642	-200,000	-0,001	0,046
-551,627	128,019	0,046	-0,044
-550,612	506,250	-0,055	-0,095
-549,598	-200,000	0,002	-0,137
-548,583	800,000	-0,035	-0,110
-547,569	-200,000	-0,019	0,072
-546,554	183,975	-0,046	0,051
-545,539	415,016	0,053	-0,084
-544,525	-200,000	0,011	0,098
-543,510	152,143	0,015	0,016
-542,496	800,000	-0,020	0,058
-541,481	53,430	-0,061	-0,044
-540,466	-49,768	0,077	0,027
-539,452	-78,000	0,160	0,041
-538,437	-200,000	-0,029	0,129
-537,423	-117,221	-0,061	0,008
-536,408	-105,028	-0,087	0,015
-535,393	800,000	0,008	0,022
-534,379	30,576	0,063	-0,040
-533,364	800,000	-0,062	-0,136
-532,350	-200,000	0,012	0,110
-531,335	-117,867	0,052	-0,007
-530,321	349,176	-0,089	0,131
-529,306	330,221	-0,021	-0,030
-528,291	379,235	-0,046	0,071
-527,277	800,000	0,006	0,014
-526,262	800,000	0,019	-0,051
-525,248	-200,000	0,045	-0,172
-524,233	-89,897	0,137	-0,030
-523,218	300,054	0,020	0,028
-522,204	800,000	0,074	-0,217
-521,189	-200,000	-0,008	-0,076
-520,175	-162,476	0,005	-0,000
-519,160	-119,587	-0,035	0,005
-518,145	-35,760	0,071	-0,029
-517,131	-200,000	0,004	0,033
-516,116	367,977	0,097	0,146
-515,102	-46,214	-0,079	0,029
-514,087	79,080	-0,045	0,036
-513,072	-200,000	-0,018	-0,093
-512,058	-200,000	0,011	-0,046
-511,043	-94,442	-0,106	-0,021
-510,029	-200,000	0,009	-0,098
-509,014	16,371	0,050	-0,029
-507,999	-15,007	-0,120	-0,057
-506,985	-200,000	0,001	0,014
-505,970	328,378	-0,127	0,181
-504,956	-14,636	-0,050	0,024
-503,941	6,640	-0,091	-0,050
-502,926	62,130	0,053	0,039
-501,912	-73,498	-0,104	0,028
-500,897	16,952	0,097	0,057
-499,883	486,092	-0,061	-0,103
-498,868	-200,000	0,028	-0,122
-497,853	-25,762	0,067	-0,029
-496,839	-200,000	-0,003	-0,052
-495,824	800,000	0,041	0,099
-494,810	-200,000	0,005	0,127
-493,795	-200,000	0,001	0,017
-492,781	-13,180	-0,161	-0,077
-491,766	-79,043	0,049	0,012
-490,751	84,396	-0,218	-0,177
-489,737	146,024	-0,024	0,024
-488,722	-200,000	0,009	0,047
-487,708	-131,434	-0,138	-0,013
-486,693	-200,000	-0,003	-0,010
-485,678	-140,620	-0,022	-0,002
-484,664	800,000	0,024	0,075
-483,649	-200,000	0,022	-0,106
-482,635	-200,000	0,002	-0,135
-481,620	-200,000	0,028	0,110
-480,605	641,547	-0,056	0,106
-479,591	-200,000	0,001	-0,135
-478,576	12,772	-0,110	-0,063
-477,562	800,000	-0,045	0,149
-476,547	45,996	0,032	-0,022
-475,532	606,474	-0,003	-0,006
-474,518	-145,193	0,038	-0,003
-473,503	-81,251	-0,158	-0,039
-472,489	167,626	0,068	-0,072
-471,474	59,816	0,047	-0,034
-470,459	-113,430	-0,043	0,006
-469,445	385,575	-0,028	-0,044
-468,430	800,000	0,031	0,075
-467,416	465,077	-0,013	-0,022
-466,401	800,000	0,033	-0,070
-465,386	-200,000	-0,022	0,086
-464,372	539,162	0,023	0,041
-463,357	-57,224	-0,254	-0,082
-462,343	-200,000	-0,001	-0,064
-461,328	-9,217	-0,176	-0,087
-460,313	329,158	0,029	-0,041
-459,299	-125,289	-0,031	0,003
-458,284	101,227	0,084	0,072
-457,270	296,508	0,048	-0,065
-456,255	-130,984	-0,095	-0,009
-455,241	800,000	0,032	-0,074
-454,226	-35,191	-0,085	-0,034
-453,211	267,976	-0,142	-0,185
-452,197	-87,051	0,048	-0,011
-451,182	800,000	0,062	0,151
-450,168	163,326	-0,032	0,034
-449,153	800,000	-0,028	0,089
-448,138	-101,219	0,081	0,015
-447,124	629,755	0,006	0,012
-446,109	353,233	0,046	-0,068
-445,095	748,087	0,017	-0,033
-444,080	608,693	0,012	0,022
-443,065	-200,000	0,026	0,089
-442,051	75,528	0,063	-0,049
-441,036	30,144	-0,118	-0,075
-440,022	156,896	-0,160	-0,164
-439,007	800,000	-0,023	0,060
-437,992	-200,000	-0,003	0,066
-436,978	123,668	0,084	0,078
-435,963	35,686	-0,012	-0,008
-434,949	470,722	-0,057	0,095
-433,934	261,097	-0,025	-0,032
-432,919	714,805	0,056	-0,110
-431,905	-65,821	0,154	-0,045
-430,890	-127,031	-0,094	-0,010
-429,876	-200,000	-0,018	0,106
-428,861	-166,798	0,095	0,003
-427,846	-200,000	0,059	-0,197
-426,832	-71,420	-0,074	-0,020
-425,817	800,000	-0,011	0,032
-424,803	214,241	0,064	-0,075
-423,788	-17,831	-0,139	-0,064
-422,773	-35,238	0,079	0,032
-421,759	-200,000	0,004	-0,044
-420,744	-200,000	-0,023	0,105
-419,730	168,557	-0,082	0,086
-418,715	800,000	-0,042	-0,104
-417,701	31,925	-0,035	-0,022
-416,686	-30,928	0,017	-0,007
-415,671	230,993	0,102	0,124
-414,657	800,000	-0,034	0,076
-413,642	-200,000	-0,024	0,084
-412,628	15,653	-0,124	-0,072
-411,613	266,115	-0,054	-0,071
-410,598	199,665	-0,016	0,018
-409,584	-55,477	-0,150	-0,050
-408,569	135,496	0,111	0,107
-407,555	338,002	-0,075	0,109
-406,540	211,157	0,034	0,040
-405,525	-200,000	0,004	-0,026
-404,511	309,576	-0,035	-0,049
-403,496	172,626	-0,075	-0,080
-402,482	-200,000	0,024	0,104
-401,467	545,398	-0,015	0,027
-400,452	-52,238	0,157	0,053
-399,438	-76,875	0,035	-0,009
-398,423	-200,000	-0,003	-0,047
-397,409	-200,000	0,009	-0,110
-396,394	-36,017	-0,080	0,032
-395,379	133,710	0,121	-0,116
-394,365	800,000	0,039	-0,106
-393,350	-200,000	-0,007	0,036
-392,336	175,796	0,044	-0,047
-391,321	12,466	0,105	0,060
-390,306	800,000	-0,011	-0,027
-389,292	800,000	0,039	-0,110
-388,277	152,586	0,041	-0,041
-387,263	430,508	0,034	0,055
-386,248	800,000	-0,008	0,021
-385,233	-200,000	-0,000	0,019
-384,219	-200,000	-0,036	-0,127
-383,204	-200,000	-0,017	-0,085
-382,190	800,000	0,077	-0,178
-381,175	-68,944	-0,056	-0,016
-380,160	277,260	0,045	-0,060
-379,146	-110,703	-0,030	0,005
-378,131	-200,000	0,002	-0,009
-377,117	800,000	-0,035	-0,077
-376,102	-200,000	-0,005	0,094
-375,088	103,375	0,106	-0,092
-374,073	103,122	0,038	0,033
-373,058	155,923	0,080	0,082
-372,044	230,593	0,123	0,149
-371,029	-125,695	0,071	-0,008
-370,015	800,000	0,020	-0,052
-369,000	-200,000	-0,015	-0,166
-367,985	39,659	-0,022	0,015
-366,971	-93,721	0,056	0,011
-365,956	-200,000	0,023	-0,081
-364,942	-32,402	0,156	0,064
-363,927	200,049	-0,078	0,089
-362,912	228,023	-0,027	0,033
-361,898	-200,000	0,003	-0,065
-360,883	640,781	-0,043	-0,081
-359,869	-200,000	-0,014	-0,129
-358,854	114,533	-0,130	0,118
-357,839	136,535	0,036	-0,035
-356,825	-138,499	0,111	-0,009
-355,810	67,411	0,066	-0,049
-354,796	35,338	-0,099	-0,064
-353,781	85,955	-0,054	-0,044
-352,766	759,212	-0,065	0,131
-351,752	-109,376	-0,098	-0,015
-350,737	-200,000	0,002	-0,095
-349,723	800,000	0,032	-0,094
-348,708	290,316	0,031	-0,042
-347,693	-3,380	0,099	0,051
-346,679	-200,000	0,027	-0,137
-345,664	-39,090	0,077	-0,030
-344,650	291,279	0,093	0,125
-343,635	100,686	0,071	0,061
-342,620	-200,000	0,006	0,051
-341,606	121,011	0,095	-0,087
-340,591	-200,000	0,001	0,012
-339,577	-85,769	0,079	-0,018
-338,562	551,172	-0,032	0,057
-337,548	628,460	0,028	-0,053
-336,533	-200,000	0,012	-0,137
-335,518	-117,794	-0,052	0,007
-334,504	276,601	0,041	0,054
-333,489	800,000	0,008	0,019
-332,475	-200,000	-0,026	-0,120
-331,460	6,825	0,015	-0,008
-330,445	-3,256	-0,100	0,051
-329,431	517,344	-0,040	0,069
-328,416	54,684	0,133	0,095
-327,402	-200,000	0,009	0,068
-326,387	-94,453	0,016	0,003
-325,372	623,727	-0,089	-0,167
-324,358	800,000	-0,036	-0,109
-323,343	-200,000	0,011	-0,081
-322,329	482,582	0,080	0,135
-321,314	-200,000	0,015	0,072
-320,299	176,280	0,010	-0,011
-319,285	108,009	-0,048	0,042
-318,270	-67,201	-0,031	-0,009
-317,256	-134,669	-0,138	0,012
-316,241	26,711	-0,105	-0,065
-315,226	-122,071	0,092	0,011
-314,212	527,676	-0,029	0,050
-313,197	-200,000	0,014	0,125
-312,183	332,024	0,082	0,117
-311,168	271,415	0,065	0,084
-310,153	-200,000	0,054	0,000
-309,139	-200,000	-0,022	0,081
-308,124	-160,962	-0,138	0,005
-307,110	-95,650	0,075	-0,015
-306,095	412,770	0,046	0,073
-305,080	-200,000	0,022	0,110
-304,066	-135,569	0,033	-0,003
-303,051	551,839	0,033	-0,060
-302,037	325,878	0,106	0,150
-301,022	-71,706	0,058	-0,016
-300,008	18,031	0,139	0,082
-298,993	800,000	-0,057	-0,161
-297,978	-155,006	0,105	-0,005
-296,964	474,954	-0,035	0,059
-295,949	800,000	-0,033	-0,082
-294,935	-200,000	0,028	-0,180
-293,920	-15,458	0,095	-0,045
-292,905	-200,000	-0,003	-0,062
-291,891	10,817	-0,056	0,032
-290,876	-200,000	0,004	0,016
-289,862	-200,000	-0,010	-0,045
-288,847	13,585	-0,079	-0,045
-287,832	-200,000	-0,007	-0,119
-286,818	800,000	0,028	-0,068
-285,803	800,000	0,060	0,129
-284,789	214,059	0,160	-0,187
-283,774	13,507	-0,131	-0,075
-282,759	-72,127	0,053	-0,014
-281,745	-200,000	0,031	0,113
-280,730	-124,930	-0,121	-0,014
-279,716	800,000	-0,003	-0,009
-278,701	-147,306	0,086	0,005
-277,686	800,000	0,023	0,058
-276,672	-132,459	0,196	-0,018
-275,657	-82,940	0,076	-0,018
-274,643	151,582	-0,125	0,126
-273,628	-200,000	0,018	-0,061
-272,613	-200,000	-0,009	-0,105
-271,599	52,683	0,185	0,130
-270,584	245,898	-0,060	0,075
-269,570	145,036	-0,042	-0,042
-268,555	-81,409	0,146	0,035
-267,540	271,375	-0,059	-0,077
-266,526	-166,766	-0,092	0,003
-265,511	800,000	-0,020	0,059
-264,497	19,140	0,061	0,036
-263,482	-150,274	0,097	-0,005
-262,467	-59,516	-0,124	-0,039
-261,453	-200,000	0,020	0,093
-260,438	138,534	-0,044	-0,043
-259,424	800,000	0,013	-0,038
-258,409	1,501	-0,134	-0,071
-257,395	-62,708	0,136	-0,041
-256,380	-16,315	0,107	-0,050
-255,365	-123,776	0,043	0,005
-254,351	-200,000	0,015	-0,095
-253,336	526,864	-0,044	0,077
-252,322	-106,482	0,035	0,006
-251,307	800,000	-0,023	-0,055
-250,292	85,518	-0,050	-0,041
-249,278	185,490	0,082	0,090
-248,263	159,191	0,058	0,060
-247,249	-200,000	-0,003	0,050
-246,234	-200,000	0,002	0,075
-245,219	64,690	-0,135	0,100
-244,205	167,956	-0,046	0,048
-243,190	-95,405	0,050	0,010
-242,176	-116,486	0,113	-0,015
-241,161	-200,000	-0,000	0,026
-240,146	-200,000	0,010	-0,113
-239,132	175,975	-0,020	-0,021
-238,117	800,000	-0,016	0,050
-237,103	-46,062	-0,041	0,015
-236,088	-111,708	0,103	-0,015
-235,073	282,945	0,068	0,090
-234,059	-200,000	-0,020	0,105
-233,044	-75,975	0,103	0,027
-232,030	800,000	-0,055	0,118
-231,015	120,328	0,058	-0,053
-230,000	-200,000	-0,012	-0,054
-228,986	449,334	-0,072	0,117
-227,971	299,564	0,046	0,063
-226,957	800,000	-0,030	0,095
-225,942	-43,899	-0,062	-0,023
-224,927	-200,000	0,002	-0,176
-223,913	-155,424	0,055	-0,003
-222,898	76,375	-0,078	0,061
-221,884	432,418	-0,048	0,077
-220,869	791,491	-0,054	-0,110
-219,855	800,000	0,037	-0,094
-218,840	228,255	0,097	0,116
-217,825	-200,000	-0,005	-0,044
-216,811	-183,329	-0,157	-0,002
-215,796	800,000	0,006	0,018
-214,782	800,000	-0,046	0,117
-213,767	268,496	0,066	0,085
-212,752	454,711	-0,050	0,081
-211,738	750,940	-0,008	0,016
-210,723	571,090	-0,024	-0,044
-209,709	-42,995	-0,084	-0,031
-208,694	-200,000	0,006	0,124
-207,679	-200,000	-0,029	0,139
-206,665	-159,971	0,039	-0,002
-205,650	-200,000	0,013	0,215
-204,636	-200,000	0,010	0,120
-203,621	-200,000	0,009	-0,042
-202,606	130,071	-0,103	-0,097
-201,592	-152,952	0,056	0,003
-200,577	135,405	-0,056	0,054
-199,563	45,666	0,092	0,063
-198,548	166,485	0,101	-0,105
-197,533	-19,672	0,134	0,061
-196,519	83,732	-0,099	0,079
-195,504	-20,369	-0,084	-0,038
-194,490	43,680	0,053	-0,036
-193,475	-200,000	0,021	-0,088
-192,460	-36,635	0,151	0,059
-191,446	268,642	0,073	0,095
-190,431	-200,000	-0,015	0,203
-189,417	-76,217	-0,063	0,016
-188,402	-200,000	0,019	-0,069
-187,387	-51,023	-0,150	0,051
-186,373	-98,832	-0,042	0,008
-185,358	-94,319	-0,199	0,040
-184,344	-117,715	0,136	0,018
-183,329	800,000	0,053	0,116
-182,315	-200,000	-0,011	0,063
-181,300	800,000	-0,049	0,123
-180,285	-200,000	0,031	-0,150
-179,271	-69,233	-0,067	-0,019
-178,256	426,088	0,038	-0,061
-177,242	-200,000	0,007	0,035
-176,227	-200,000	0,026	0,111
-175,212	-77,522	0,075	0,019
-174,198	-24,693	-0,155	-0,067
-173,183	74,047	0,058	-0,045
-172,169	58,181	-0,077	0,056
-171,154	800,000	-0,056	-0,117
-170,139	-200,000	-0,005	-0,021
-169,125	-2,525	-0,078	0,040
-168,110	-74,651	0,081	-0,021
-167,096	222,717	0,049	0,058
-166,081	800,000	-0,004	0,011
-165,066	-99,902	-0,234	-0,042
-164,052	-68,222	-0,108	-0,031
-163,037	-200,000	-0,025	0,097
-162,023	800,000	0,033	0,066
-161,008	-170,495	-0,080	-0,002
-159,993	-161,243	0,040	0,001
-158,979	119,528	-0,029	-0,026
-157,964	40,829	-0,040	-0,026
-156,950	664,781	0,046	-0,088
-155,935	-9,012	0,075	0,037
-154,920	-200,000	0,020	0,128
-153,906	-63,125	-0,157	0,047
-152,891	-137,245	0,098	0,008
-151,877	3,935	-0,073	-0,039
-150,862	136,557	-0,149	-0,142
-149,847	320,045	0,033	-0,046
-148,833	800,000	0,012	0,026
-147,818	-163,955	0,178	-0,006
-146,804	-6,135	0,027	0,013
-145,789	800,000	-0,016	0,042
-144,775	5,180	-0,015	0,008
-143,760	800,000	0,032	-0,070
-142,745	-200,000	-0,031	-0,120
-141,731	-136,258	0,037	0,003
-140,716	-73,636	0,121	0,032
-139,702	-42,147	-0,113	0,042
-138,687	168,724	0,038	0,040
-137,672	434,951	-0,015	0,023
-136,658	-65,159	-0,050	-0,015
-135,643	-200,000	0,037	-0,153
-134,629	88,433	0,109	0,089
-133,614	41,270	0,080	-0,053
-132,599	800,000	0,028	-0,058
-131,585	81,081	0,104	-0,083
-130,570	-200,000	-0,006	-0,050
-129,556	30,503	0,127	-0,079
-128,541	-142,234	0,043	0,003
-127,526	-200,000	0,016	0,055
-126,512	78,532	0,109	-0,085
-125,497	-200,000	-0,027	-0,121
-124,483	428,337	0,034	0,054
-123,468	-200,000	0,024	-0,119
-122,453	207,303	-0,054	-0,062
-121,439	-200,000	0,003	-0,043
-120,424	800,000	-0,012	-0,029
-119,410	800,000	0,043	-0,114
-118,395	152,530	-0,065	-0,065
-117,380	-69,193	0,115	0,032
-116,366	287,126	-0,092	0,122
-115,351	295,552	0,041	-0,056
-114,337	-200,000	-0,005	-0,031
-113,322	-200,000	-0,039	-0,135
-112,307	-152,672	0,026	0,001
-111,293	676,411	-0,046	0,087
-110,278	-200,000	0,021	0,136
-109,264	-200,000	-0,025	0,103
-108,249	-19,399	0,153	-0,069
-107,234	-27,897	0,141	-0,060
-106,220	-200,000	-0,024	0,098
-105,205	177,015	-0,052	0,056
-104,191	800,000	-0,037	0,103
-103,176	-4,438	0,011	-0,006
-102,162	800,000	-0,049	0,128
-101,147	-188,475	-0,099	-0,001
-100,132	187,114	-0,130	-0,142
-99,118	800,000	0,008	-0,024
-98,103	-61,063	-0,048	-0,015
-97,089	-151,425	0,083	-0,004
-96,074	308,183	0,164	0,224
-95,059	-200,000	0,023	0,080
-94,045	800,000	0,041	0,086
-93,030	76,359	0,063	-0,049
-92,016	-7,761	0,129	-0,064
-91,001	787,078	-0,004	0,009
-89,986	-200,000	-0,015	-0,084
-88,972	-200,000	0,023	-0,090
-87,957	-200,000	-0,002	-0,108
-86,943	-200,000	0,006	0,032
-85,928	800,000	-0,014	0,036
-84,913	-34,109	0,095	-0,038
-83,899	533,403	-0,023	0,040
-82,884	-79,272	0,012	-0,003
-81,870	-200,000	-0,001	-0,060
-80,855	-200,000	0,009	0,109
-79,840	-200,000	0,003	-0,064
-78,826	359,214	-0,067	-0,098
-77,811	800,000	-0,046	0,100
-76,797	800,000	0,042	-0,106
-75,782	392,159	-0,056	0,086
-74,767	-200,000	0,003	0,012
-73,753	-115,415	0,089	-0,012
-72,738	664,059	-0,082	0,155
-71,724	800,000	-0,043	0,105
-70,709	20,974	-0,110	0,065
-69,694	65,515	0,098	0,072
-68,680	800,000	0,015	-0,042
-67,665	-200,000	0,021	0,084
-66,651	119,316	0,057	0,052
-65,636	417,175	-0,110	-0,172
-64,622	-200,000	-0,015	-0,144
-63,607	-200,000	-0,002	-0,135
-62,592	181,740	-0,108	0,116
-61,578	203,612	0,034	0,038
-60,563	309,419	0,059	0,081
-59,549	-5,469	-0,127	0,063
-58,534	9,967	-2,148	-1,189
-57,519	-200,000	-0,193	-0,796
-56,505	-200,000	-1,360	-5,109
-55,490	126,629	0,780	0,722
-54,476	800,000	5,156	12,055
-53,461	-200,000	18,171	295,261
-52,446	800,000	730,224	2224,894
-51,432	498,040	1642,859	2774,312
-50,417	90,708	1538,177	1258,453
-49,403	61,878	817,702	594,478
-48,388	41,146	322,448	212,471
-47,373	33,126	262,207	165,731
-46,359	29,150	247,513	153,120
-45,344	15,123	243,306	138,890
-44,330	15,649	242,243	138,715
-43,315	14,434	241,408	137,226
-42,300	14,427	241,133	137,058
-41,286	14,312	240,846	136,794
-40,271	14,270	240,552	136,588
-39,257	14,449	240,338	136,608
-38,242	14,279	240,010	136,276
-37,227	14,270	239,829	136,161
-36,213	14,376	239,658	136,145
-35,198	14,148	239,305	135,752
-34,184	14,258	239,233	135,797
-33,169	14,175	238,916	135,543
-32,154	14,300	238,793	135,570
-31,140	14,223	238,375	135,265
-30,125	14,399	238,170	135,286
-29,111	14,354	237,883	135,081
-28,096	14,317	237,789	134,992
-27,082	14,341	237,575	134,885
-26,067	14,288	237,383	134,727
-25,052	14,303	237,129	134,590
-24,038	14,335	236,966	134,519
-23,023	14,242	236,812	134,350
-22,009	14,408	236,593	134,356
-20,994	14,289	236,560	134,235
-19,979	14,251	236,332	134,069
-18,965	14,209	236,027	133,857
-17,950	14,256	235,944	133,843
-16,936	14,416	235,651	133,800
-15,921	14,484	235,656	133,853
-14,906	14,408	235,422	133,653
-13,892	14,573	235,057	133,574
-12,877	14,354	234,865	133,283
-11,863	14,119	234,854	133,082
-10,848	14,331	234,828	133,233
-9,833	14,461	234,689	133,253
-8,819	14,302	234,483	133,003
-7,804	14,447	234,196	132,952
-6,790	14,286	234,204	132,822
-5,775	14,339	233,906	132,689
-4,760	14,190	233,956	132,593
-3,746	14,258	233,734	132,517
-2,731	14,016	233,578	132,229
-1,717	14,271	233,282	132,261
-0,702	13,886	233,212	131,908
0,313	13,751	233,092	131,931
1,327	17,379	232,372	134,400
2,342	26,427	194,972	118,765
3,356	22,743	108,644	64,814
4,371	-6,861	71,749	35,480
5,386	-10,838	67,107	32,252
6,400	-12,491	65,762	31,224
7,415	-12,288	64,988	30,899
8,429	-12,185	64,778	30,820
9,444	-12,352	64,444	30,621
10,459	-12,832	64,449	30,513
11,473	-12,382	64,080	30,436
12,488	-12,842	64,063	30,322
13,502	-12,419	63,858	30,317
14,517	-12,936	63,792	30,168
15,531	-12,500	63,637	30,189
16,546	-12,533	63,621	30,171
17,561	-12,683	63,364	30,013
18,575	-12,816	63,443	30,019
19,590	-13,423	63,313	29,821
20,604	-13,309	63,241	29,809
21,619	-12,612	63,262	29,970
22,634	-12,848	63,170	29,872
23,648	-13,110	63,046	29,753
24,663	-13,008	63,068	29,783
25,677	-13,089	62,927	29,696
26,692	-12,905	62,774	29,662
27,707	-12,696	62,863	29,747
28,721	-13,456	62,777	29,537
29,736	-13,373	62,716	29,524
30,750	-12,972	62,657	29,581
31,765	-13,056	62,525	29,498
32,780	-12,867	62,474	29,512
33,794	-12,798	62,470	29,523
34,809	-13,305	62,441	29,396
35,823	-12,760	62,354	29,471
36,838	-12,954	62,317	29,409
37,853	-12,924	62,069	29,296
38,867	-13,167	62,250	29,326
39,882	-12,809	62,025	29,294
40,896	-13,324	61,985	29,162
41,911	-13,253	62,009	29,186
42,926	-12,819	61,831	29,193
43,940	-12,786	61,782	29,174
44,955	-13,460	61,805	29,037
45,969	-12,734	61,521	29,057
46,984	-13,951	61,846	28,946
47,999	-13,806	61,621	28,869
49,013	-13,129	61,517	28,963
50,028	-13,611	61,468	28,834
51,042	-13,108	61,293	28,856
52,057	-13,737	61,368	28,755
53,071	-14,404	61,327	28,591
54,086	-13,526	61,324	28,774
55,101	-13,703	61,301	28,723
56,115	-13,123	61,073	28,737
57,130	-12,232	61,043	28,909
58,144	-12,558	61,070	28,850
59,159	-12,443	61,097	28,885
60,174	-12,904	61,080	28,777
61,188	-12,924	61,093	28,776
62,203	-12,726	60,864	28,707
63,217	-12,823	60,928	28,715
64,232	-12,624	60,789	28,688
65,247	-11,891	60,601	28,751
66,261	-12,921	60,706	28,581
67,276	-13,265	60,621	28,467
68,290	-13,691	60,511	28,323
69,305	-13,650	60,544	28,344
70,320	-13,246	60,522	28,416
71,334	-12,420	60,442	28,550
72,349	-13,092	60,382	28,378
73,363	-12,878	60,259	28,362
74,378	-13,257	60,297	28,298
75,393	-13,508	60,272	28,231
76,407	-12,927	60,176	28,305
77,422	-13,538	60,148	28,162
78,436	-12,777	60,054	28,274
79,451	-12,995	59,995	28,198
80,466	-13,147	59,939	28,138
81,480	-12,972	59,925	28,165
82,495	-12,890	59,897	28,167
83,509	-12,468	59,800	28,206
84,524	-13,682	59,839	27,970
85,539	-12,866	59,760	28,100
86,553	-12,831	59,553	28,007
87,568	-13,294	59,663	27,960
88,582	-13,381	59,548	27,886
89,597	-12,915	59,630	28,018
90,611	-13,258	59,476	27,873
91,626	-13,305	59,582	27,910
92,641	-13,190	59,399	27,846
93,655	-13,041	59,400	27,875
94,670	-12,351	59,244	27,940
95,684	-13,678	59,244	27,665
96,699	-12,957	59,233	27,806
97,714	-12,870	59,270	27,839
98,728	-13,136	59,205	27,751
99,743	-13,213	59,150	27,707
100,757	-13,800	58,956	27,494
101,772	-13,263	59,102	27,669
102,787	-13,046	58,913	27,623
103,801	-13,249	58,918	27,581
104,816	-13,093	58,763	27,538
105,830	-13,548	58,885	27,500
106,845	-12,744	58,822	27,632
107,860	-13,466	58,797	27,471
108,874	-13,119	58,624	27,458
109,889	-13,186	58,624	27,442
110,903	-13,366	58,611	27,397
111,918	-13,611	58,594	27,337
112,933	-12,298	58,483	27,548
113,947	-12,362	58,485	27,534
114,962	-12,813	58,455	27,426
115,976	-12,616	58,276	27,379
116,991	-12,858	58,225	27,304
118,006	-13,211	58,394	27,309
119,020	-12,993	58,133	27,229
120,035	-12,858	58,184	27,277
121,049	-12,221	58,115	27,370
122,064	-12,492	58,104	27,309
123,079	-12,374	58,134	27,344
124,093	-12,452	58,013	27,269
125,108	-13,177	57,769	27,007
126,122	-13,459	57,894	27,007
127,137	-13,152	57,850	27,045
128,151	-13,663	57,871	26,950
129,166	-13,334	57,816	26,988
130,181	-14,505	57,845	26,766
131,195	-13,624	57,683	26,864
132,210	-13,234	57,513	26,860
133,224	-13,468	57,705	26,900
134,239	-13,166	57,669	26,941
135,254	-13,108	57,701	26,965
136,268	-12,991	57,531	26,906
137,283	-13,924	57,523	26,715
138,297	-13,759	57,402	26,689
139,312	-13,590	57,329	26,686
140,327	-13,238	57,272	26,727
141,341	-12,706	57,426	26,902
142,356	-12,458	57,281	26,881
143,370	-13,123	57,203	26,710
144,385	-12,487	57,143	26,805
145,400	-12,845	57,113	26,718
146,414	-12,653	57,108	26,751
147,429	-13,058	56,978	26,608
148,443	-12,889	57,020	26,659
149,458	-13,130	57,035	26,616
150,473	-12,864	56,977	26,639
151,487	-12,624	56,826	26,613
152,502	-11,751	56,606	26,678
153,516	-13,099	56,961	26,578
154,531	-12,282	56,712	26,619
155,546	-12,651	56,652	26,517
156,560	-12,920	56,683	26,476
157,575	-12,240	56,560	26,549
158,589	-13,288	56,646	26,383
159,604	-12,621	56,469	26,427
160,619	-12,267	56,524	26,520
161,633	-13,073	56,489	26,344
162,648	-12,269	56,474	26,491
163,662	-12,609	56,513	26,441
164,677	-12,136	56,312	26,436
165,692	-12,688	56,456	26,394
166,706	-12,609	56,234	26,303
167,721	-13,186	56,323	26,231
168,735	-12,540	56,278	26,332
169,750	-13,186	56,204	26,171
170,764	-12,748	56,153	26,229
171,779	-12,586	56,152	26,258
172,794	-12,957	56,127	26,172
173,808	-12,445	56,033	26,225
174,823	-13,313	55,992	26,036
175,837	-13,285	55,913	26,002
176,852	-12,454	55,697	26,059
177,867	-13,208	55,955	26,032
178,881	-12,929	55,850	26,035
179,896	-12,523	55,816	26,094
180,910	-12,307	55,694	26,076
181,925	-12,589	55,731	26,037
182,940	-12,771	55,585	25,932
183,954	-13,130	55,765	25,945
184,969	-12,166	55,436	25,973
185,983	-12,622	55,540	25,932
186,998	-12,101	55,564	26,040
188,013	-12,497	55,529	25,946
189,027	-12,458	55,462	25,920
190,042	-13,112	55,437	25,782
191,056	-12,310	55,373	25,902
192,071	-12,668	55,510	25,896
193,086	-12,294	55,289	25,861
194,100	-12,034	55,202	25,867
195,115	-11,963	55,201	25,878
196,129	-11,860	55,298	25,941
197,144	-8,211	55,520	26,737
198,159	-3,582	55,845	27,775
199,173	0,084	56,173	28,639
200,188	1,108	56,101	28,796
201,202	1,487	56,070	28,849
202,217	0,639	56,013	28,655
203,232	0,191	56,111	28,617
204,246	0,581	55,926	28,595
205,261	1,050	56,022	28,731
206,275	1,337	55,844	28,692
207,290	1,483	55,943	28,768
208,304	1,950	55,877	28,820
209,319	0,141	55,907	28,488
210,334	1,158	55,719	28,583
211,348	0,278	55,794	28,452
212,363	0,558	55,587	28,397
213,377	0,511	55,622	28,403
214,392	0,900	55,641	28,484
215,407	1,090	55,527	28,459
216,421	1,177	55,521	28,470
217,436	0,652	55,364	28,288
218,450	0,471	55,396	28,268
219,465	0,761	55,403	28,324
220,480	-0,100	55,512	28,214
221,494	0,890	55,385	28,333
222,509	0,369	55,330	28,205
223,523	0,452	55,307	28,206
224,538	0,887	55,273	28,268
225,553	1,498	55,068	28,275
226,567	0,972	55,168	28,225
227,582	-0,015	55,257	28,083
228,596	0,824	55,165	28,191
229,611	0,899	55,198	28,219
230,626	0,757	54,996	28,087
231,640	0,557	55,005	28,052
232,655	1,365	54,936	28,165
233,669	1,752	54,903	28,217
234,684	1,118	55,014	28,154
235,699	1,820	54,862	28,204
236,713	1,275	54,657	27,995
237,728	0,061	54,759	27,819
238,742	0,494	54,829	27,933
239,757	0,824	54,639	27,895
240,772	0,887	54,588	27,878
241,786	0,220	54,652	27,784
242,801	1,585	54,501	27,957
243,815	1,243	54,591	27,938
244,830	1,140	54,525	27,883
245,844	1,230	54,508	27,888
246,859	0,142	54,379	27,619
247,874	0,524	54,238	27,615
248,888	1,275	54,302	27,784
249,903	1,434	54,348	27,834
250,917	0,783	54,350	27,712
251,932	1,211	54,337	27,782
252,947	0,263	54,234	27,553
253,961	1,107	54,044	27,609
254,976	1,026	54,062	27,600
255,990	0,773	54,074	27,558
257,005	1,553	54,007	27,664
258,020	1,397	54,042	27,650
259,034	1,625	54,021	27,679
260,049	-0,024	54,101	27,415
261,063	0,896	53,988	27,524
262,078	1,798	53,820	27,600
263,093	0,705	53,821	27,399
264,107	1,486	53,860	27,559
265,122	1,434	53,812	27,522
266,136	0,980	53,780	27,421
267,151	0,636	53,866	27,400
268,166	0,260	53,666	27,227
269,180	0,709	53,685	27,316
270,195	0,622	53,630	27,270
271,209	0,270	53,572	27,174
272,224	0,551	53,650	27,262
273,239	0,896	53,565	27,279
274,253	0,995	53,480	27,252
275,268	0,162	53,462	27,089
276,282	1,232	53,389	27,243
277,297	0,258	53,303	27,021
278,312	0,785	53,341	27,133
279,326	1,821	53,311	27,302
280,341	0,444	53,344	27,068
281,355	1,165	53,245	27,145
282,370	0,784	53,199	27,051
283,384	0,096	53,151	26,900
284,399	0,345	52,994	26,863
285,414	0,260	53,086	26,892
286,428	0,897	53,021	26,971
287,443	0,355	53,075	26,899
288,457	1,533	52,973	27,055
289,472	0,949	52,984	26,954
290,487	0,538	53,028	26,901
291,501	-0,221	52,884	26,689
292,516	-0,692	52,960	26,641
293,530	0,363	52,878	26,786
294,545	0,771	52,920	26,877
295,560	0,921	52,793	26,838
296,574	0,537	52,736	26,738
297,589	0,075	52,696	26,633
298,603	0,733	52,670	26,735
299,618	1,092	52,589	26,755
300,633	0,512	52,724	26,718
301,647	1,159	52,639	26,787
302,662	0,733	52,596	26,687
303,676	1,023	52,568	26,722
304,691	0,512	52,464	26,577
305,706	1,125	52,477	26,689
306,720	0,987	52,368	26,607
307,735	0,689	52,316	26,526
308,749	1,231	52,388	26,655
309,764	1,019	52,279	26,560
310,779	0,509	52,298	26,478
311,793	0,611	52,263	26,476
312,808	1,962	52,025	26,590
313,822	1,541	52,093	26,548
314,837	0,956	52,152	26,473
315,852	0,520	52,082	26,359
316,866	1,047	52,213	26,515
317,881	0,432	52,118	26,357
318,895	1,133	51,979	26,407
319,910	0,750	52,014	26,355
320,925	0,101	51,940	26,201
321,939	0,027	51,860	26,146
322,954	-0,221	51,859	26,100
323,968	0,888	51,830	26,277
324,983	0,902	51,786	26,254
325,997	0,974	51,799	26,271
327,012	0,289	51,880	26,190
328,027	0,711	51,710	26,175
329,041	1,280	51,706	26,270
330,056	0,667	51,681	26,148
331,070	0,976	51,690	26,204
332,085	0,890	51,559	26,121
333,100	1,409	51,581	26,220
334,114	1,052	51,461	26,094
335,129	1,871	51,368	26,187
336,143	1,005	51,460	26,081
337,158	0,808	51,498	26,064
338,173	1,223	51,394	26,081
339,187	0,696	51,336	25,958
340,202	0,835	51,377	26,000
341,216	0,298	51,307	25,870
342,231	0,282	51,262	25,843
343,246	0,334	51,185	25,810
344,260	0,282	51,169	25,791
345,275	0,217	51,169	25,777
346,289	0,835	51,058	25,825
347,304	1,003	51,089	25,868
348,319	1,168	51,070	25,884
349,333	1,035	51,184	25,917
350,348	1,843	50,896	25,907
351,362	0,860	50,962	25,770
352,377	0,700	50,950	25,734
353,392	1,594	50,849	25,833
354,406	1,083	50,889	25,764
355,421	194,162	1298,435	1394,445
356,435	150,304	1450,432	1394,411
