DTS Sentinel unit serial number:	SN410029Multiplexer serial number:	ORYXHardware model number:	OX2-SRSoftware version number:	ORYX F/W v4,00 Oryx Data Collector v3.7.2.0data status	okinstallation	B6 Nyhavnadifferential loss correction	single-endedforward channel	channel 2reverse channel	N/Adate	2023/12/08time	08:15:08forward acquisition time	300,00reverse acquisition time	0,00gamma	499,1914k internal	0,3180k external	0,3180temperature offset calibration	1,0000default loss term (dB/km)	0,3820temperature slope calibration	1,0000multiplexer offset coefficient	1,0000multiplexer slope coefficient	1,0000fibre end	0,00T internal ref (°C)	11,01T ext. ref 1 (°C)	-2,49T ext. ref 2 (°C)	-2,47length (m)	temperature (°C)	Stokes	anti-Stokes-744,400	-39,543	0,165	0,063
-743,385	-16,521	-0,337	-0,156
-742,371	800,000	0,115	0,296
-741,356	-59,884	-0,295	-0,092
-740,342	16,785	0,137	0,079
-739,327	-153,263	-0,430	-0,022
-738,312	233,862	0,091	0,110
-737,298	1,265	-0,380	-0,199
-736,283	-200,000	0,026	0,162
-735,269	-69,412	-0,325	0,091
-734,254	-112,692	0,190	0,027
-733,239	-80,767	-0,522	-0,126
-732,225	-75,656	0,246	-0,063
-731,210	334,896	0,057	-0,080
-730,196	242,723	-0,056	0,068
-729,181	-104,501	-0,088	0,015
-728,167	518,514	-0,081	0,139
-727,152	68,142	0,041	-0,030
-726,137	-50,603	0,066	0,022
-725,123	-200,000	0,010	0,070
-724,108	-115,143	-0,134	-0,018
-723,094	-69,528	-0,154	-0,043
-722,079	86,198	0,104	0,084
-721,064	-102,157	0,079	0,014
-720,050	-200,000	-0,005	-0,056
-719,035	-40,589	-0,052	0,020
-718,021	800,000	-0,023	0,048
-717,006	-200,000	0,020	-0,071
-715,991	-200,000	-0,028	-0,090
-714,977	-200,000	0,016	-0,118
-713,962	800,000	0,010	-0,022
-712,948	-58,011	-0,090	0,029
-711,933	114,677	0,057	0,051
-710,918	-143,576	-0,166	-0,011
-709,904	137,951	-0,054	-0,052
-708,889	60,780	-0,058	0,042
-707,875	-104,300	-0,083	-0,014
-706,860	1,762	0,091	0,048
-705,845	-46,459	0,124	0,044
-704,831	-200,000	-0,001	0,023
-703,816	375,374	0,057	0,085
-702,802	-21,246	0,028	0,012
-701,787	208,756	-0,043	-0,050
-700,772	41,966	-0,141	0,093
-699,758	48,201	0,026	-0,018
-698,743	800,000	-0,120	0,246
-697,729	-200,000	0,028	0,183
-696,714	800,000	0,041	0,088
-695,699	386,386	0,010	0,015
-694,685	-59,735	-0,154	-0,048
-693,670	-88,018	-0,072	-0,016
-692,656	224,656	0,068	-0,081
-691,641	-200,000	0,011	0,068
-690,627	725,391	0,009	0,018
-689,612	156,821	-0,085	0,086
-688,597	-200,000	-0,022	0,082
-687,583	13,972	-0,085	-0,048
-686,568	-2,079	0,058	-0,030
-685,554	-200,000	-0,012	0,090
-684,539	275,344	-0,117	0,152
-683,524	-11,792	0,190	0,091
-682,510	800,000	-0,036	0,085
-681,495	219,439	-0,157	-0,184
-680,481	-51,798	-0,139	0,047
-679,466	800,000	-0,055	-0,149
-678,451	-115,151	-0,067	-0,009
-677,437	18,430	0,052	0,030
-676,422	305,003	0,090	-0,122
-675,408	-52,334	-0,098	0,033
-674,393	595,619	0,090	0,164
-673,378	69,098	0,083	0,062
-672,364	-1,674	-0,115	0,059
-671,349	789,459	-0,041	0,083
-670,335	-95,809	-0,110	0,021
-669,320	21,480	0,097	-0,057
-668,305	-114,450	-0,058	0,008
-667,291	-23,468	-0,071	-0,031
-666,276	800,000	-0,015	-0,032
-665,262	-156,584	0,071	0,003
-664,247	800,000	-0,010	-0,026
-663,232	-200,000	-0,011	0,137
-662,218	-134,002	0,055	0,005
-661,203	25,914	0,078	0,047
-660,189	-92,356	-0,142	-0,029
-659,174	10,960	0,032	-0,018
-658,159	36,242	-0,114	-0,073
-657,145	622,057	-0,012	-0,023
-656,130	-22,896	-0,122	0,053
-655,116	227,200	-0,083	0,099
-654,101	173,597	-0,099	-0,105
-653,086	-47,348	-0,133	0,047
-652,072	702,921	-0,047	0,091
-651,057	800,000	0,050	-0,111
-650,043	143,967	-0,087	-0,085
-649,028	402,155	-0,072	-0,111
-648,014	-164,057	-0,180	-0,006
-646,999	-11,516	-0,015	-0,007
-645,984	134,541	-0,049	0,046
-644,970	-200,000	0,043	-0,149
-643,955	800,000	0,053	-0,113
-642,941	528,428	-0,067	0,116
-641,926	1,861	-0,066	-0,035
-640,911	211,916	0,005	0,006
-639,897	-200,000	0,020	-0,069
-638,882	-32,902	-0,142	0,057
-637,868	-200,000	0,003	0,083
-636,853	205,572	0,107	-0,121
-635,838	-32,951	0,067	-0,027
-634,824	800,000	-0,030	-0,090
-633,809	-153,818	0,049	-0,002
-632,795	13,985	0,099	0,056
-631,780	41,106	-0,094	0,062
-630,765	800,000	0,020	-0,049
-629,751	-200,000	0,005	-0,064
-628,736	-67,348	-0,135	0,038
-627,722	34,382	0,161	-0,102
-626,707	800,000	0,050	0,147
-625,692	522,769	0,041	-0,070
-624,678	800,000	0,008	0,022
-623,663	471,486	-0,063	-0,103
-622,649	91,590	-0,050	-0,041
-621,634	-99,157	-0,102	-0,019
-620,619	-200,000	0,011	-0,104
-619,605	58,370	0,058	-0,042
-618,590	40,320	0,048	-0,032
-617,576	33,276	0,021	-0,013
-616,561	-86,086	-0,073	-0,016
-615,546	3,114	-0,046	-0,024
-614,532	-200,000	0,006	-0,022
-613,517	17,614	-0,083	0,048
-612,503	-200,000	-0,027	0,171
-611,488	24,961	0,062	-0,037
-610,474	144,784	-0,131	-0,128
-609,459	-175,840	0,112	0,002
-608,444	-200,000	-0,005	-0,093
-607,430	-200,000	-0,004	-0,103
-606,415	-200,000	0,047	-0,199
-605,401	271,561	0,041	0,053
-604,386	731,372	0,042	0,082
-603,371	528,472	0,055	-0,095
-602,357	103,941	0,066	0,057
-601,342	-89,845	-0,105	0,022
-600,328	-200,000	0,002	-0,087
-599,313	262,861	0,060	0,076
-598,298	137,011	-0,049	0,047
-597,284	154,358	-0,055	0,055
-596,269	-80,833	0,096	0,023
-595,255	-200,000	0,019	-0,160
-594,240	18,402	-0,085	0,049
-593,225	531,810	-0,057	-0,099
-592,211	-69,633	-0,057	0,016
-591,196	-17,046	0,053	0,024
-590,182	-200,000	0,043	0,159
-589,167	-200,000	-0,011	0,041
-588,152	727,622	-0,078	0,152
-587,138	-3,865	-0,077	-0,039
-586,123	325,279	-0,136	-0,189
-585,109	-200,000	0,007	0,047
-584,094	-200,000	-0,022	0,116
-583,079	490,375	-0,024	-0,041
-582,065	-200,000	0,028	0,165
-581,050	277,797	0,084	0,109
-580,036	800,000	-0,038	0,118
-579,021	-189,118	-0,144	-0,001
-578,006	63,590	-0,075	-0,055
-576,992	-123,563	-0,097	-0,011
-575,977	-200,000	0,024	0,116
-574,963	260,426	0,019	0,024
-573,948	-5,401	-0,141	-0,070
-572,934	800,000	0,031	0,070
-571,919	800,000	-0,010	-0,031
-570,904	-105,954	-0,113	-0,018
-569,890	692,846	0,112	-0,214
-568,875	288,819	0,044	0,059
-567,861	-47,521	-0,054	0,019
-566,846	77,331	0,205	0,159
-565,831	-56,541	-0,053	0,017
-564,817	239,159	-0,043	0,052
-563,802	21,823	-0,140	-0,082
-562,788	-77,362	0,031	0,008
-561,773	-12,235	0,089	0,042
-560,758	800,000	-0,033	-0,084
-559,744	-4,357	-0,074	0,037
-558,729	-47,274	-0,077	-0,027
-557,715	641,684	-0,025	-0,046
-556,700	92,901	-0,063	-0,052
-555,685	139,146	-0,100	-0,096
-554,671	-130,604	0,169	0,016
-553,656	-102,354	0,107	-0,018
-552,642	159,203	0,125	-0,126
-551,627	410,387	-0,053	-0,081
-550,612	-200,000	0,012	-0,101
-549,598	541,131	0,050	-0,087
-548,583	98,563	0,143	-0,120
-547,569	-102,567	-0,082	0,014
-546,554	800,000	0,007	0,018
-545,539	32,707	-0,134	0,084
-544,525	-11,856	-0,039	-0,019
-543,510	-2,081	0,129	-0,066
-542,496	-200,000	-0,024	-0,175
-541,481	245,972	0,023	0,028
-540,466	800,000	0,018	-0,039
-539,452	-200,000	-0,009	-0,096
-538,437	-200,000	0,008	-0,028
-537,423	408,550	0,044	-0,068
-536,408	-174,856	-0,045	-0,001
-535,393	-200,000	-0,020	0,000
-534,379	773,843	-0,010	0,019
-533,364	2,952	-0,107	-0,056
-532,350	-35,730	0,156	0,061
-531,335	-99,190	-0,130	0,024
-530,321	-114,959	0,078	-0,011
-529,306	676,929	-0,038	-0,072
-528,291	-6,883	-0,100	-0,049
-527,277	330,098	-0,069	0,097
-526,262	-12,264	-0,201	0,095
-525,248	635,275	0,044	-0,081
-524,233	-148,778	0,134	0,008
-523,218	-66,740	0,107	-0,030
-522,204	-169,567	-0,201	-0,005
-521,189	534,473	-0,021	-0,035
-520,175	-8,053	-0,109	0,053
-519,160	181,953	-0,033	0,035
-518,145	470,968	-0,079	-0,129
-517,131	292,936	-0,064	0,085
-516,116	800,000	-0,050	0,155
-515,102	-72,970	-0,037	-0,010
-514,087	187,530	0,079	0,086
-513,072	-136,040	-0,052	0,004
-512,058	213,740	0,068	0,079
-511,043	109,985	-0,045	0,039
-510,029	291,392	0,067	-0,088
-509,014	-56,682	0,096	0,031
-507,999	168,386	-0,119	-0,123
-506,985	18,082	-0,074	0,043
-505,970	295,039	-0,042	-0,056
-504,956	6,187	-0,094	-0,050
-503,941	1,750	0,147	-0,077
-502,926	271,233	0,060	0,077
-501,912	-115,415	0,149	0,020
-500,897	-94,525	0,102	0,020
-499,883	34,056	0,044	0,028
-498,868	429,281	-0,022	-0,035
-497,853	10,356	-0,053	-0,029
-496,839	-10,120	0,066	-0,031
-495,824	546,361	-0,053	-0,092
-494,810	-200,000	0,013	0,152
-493,795	800,000	0,020	0,045
-492,781	-161,053	0,045	-0,002
-491,766	243,340	0,064	0,078
-490,751	800,000	-0,052	0,118
-489,737	-38,459	0,090	-0,034
-488,722	-11,524	-0,040	0,019
-487,708	-200,000	-0,006	0,114
-486,693	81,547	0,040	-0,031
-485,678	35,902	0,027	0,017
-484,664	-200,000	0,000	-0,018
-483,649	67,537	0,089	-0,066
-482,635	108,913	0,046	0,039
-481,620	143,613	-0,025	0,025
-480,605	-104,968	0,078	0,013
-479,591	92,443	0,023	0,019
-478,576	-200,000	0,008	0,037
-477,562	-48,322	-0,067	-0,023
-476,547	-200,000	-0,023	-0,097
-475,532	-200,000	0,003	0,024
-474,518	578,108	0,008	-0,014
-473,503	-200,000	0,013	-0,058
-472,489	-194,212	0,063	0,000
-471,474	136,111	0,106	0,100
-470,459	800,000	0,034	0,087
-469,445	488,306	-0,021	0,035
-468,430	30,559	-0,103	0,063
-467,416	-71,926	0,046	-0,012
-466,401	-58,451	0,086	0,027
-465,386	403,490	-0,021	0,032
-464,372	800,000	0,028	0,062
-463,357	-200,000	0,007	-0,075
-462,343	-54,207	-0,013	-0,004
-461,328	111,659	-0,039	-0,034
-460,313	-72,728	0,041	-0,011
-459,299	-200,000	0,056	0,200
-458,284	3,492	-0,058	-0,031
-457,270	-150,276	-0,184	0,010
-456,255	399,606	-0,018	-0,028
-455,241	-147,277	-0,196	0,012
-454,226	-69,245	0,207	-0,057
-453,211	-83,438	-0,062	-0,014
-452,197	-52,482	0,181	-0,060
-451,182	800,000	0,040	-0,104
-450,168	368,033	0,042	0,061
-449,153	-9,679	0,063	0,030
-448,138	800,000	0,030	-0,093
-447,124	-200,000	-0,002	0,023
-446,109	272,524	0,067	0,086
-445,095	3,087	0,052	-0,027
-444,080	22,277	0,043	0,025
-443,065	626,735	0,033	-0,061
-442,051	800,000	0,024	0,058
-441,036	-200,000	-0,002	-0,074
-440,022	186,452	0,047	-0,050
-439,007	800,000	-0,045	0,091
-437,992	-143,854	-0,080	-0,005
-436,978	444,492	0,087	0,139
-435,963	800,000	0,041	0,090
-434,949	-200,000	0,003	0,105
-433,934	800,000	0,051	-0,160
-432,919	650,427	0,016	-0,030
-431,905	-200,000	0,002	0,136
-430,890	-41,813	0,117	-0,043
-429,876	622,088	0,028	0,052
-428,861	152,266	0,083	0,082
-427,846	-96,362	-0,106	-0,020
-426,832	-143,008	0,039	0,003
-425,817	-28,342	0,049	0,020
-424,803	-54,541	0,063	0,021
-423,788	-157,684	0,053	-0,002
-422,773	-134,955	-0,055	0,005
-421,759	-200,000	0,024	0,105
-420,744	275,519	-0,091	-0,117
-419,730	5,352	-0,050	0,027
-418,715	215,367	0,002	0,002
-417,701	719,896	-0,039	0,076
-416,686	-200,000	0,002	0,087
-415,671	469,547	0,045	0,074
-414,657	83,376	-0,025	0,020
-413,642	-117,018	0,067	0,009
-412,628	-63,713	-0,131	0,038
-411,613	260,156	-0,115	0,144
-410,598	-200,000	-0,004	0,017
-409,584	204,800	0,081	-0,091
-408,569	677,571	-0,029	0,054
-407,555	-17,827	0,042	-0,019
-406,540	-200,000	0,002	-0,021
-405,525	-200,000	-0,010	-0,154
-404,511	-178,998	0,199	-0,003
-403,496	285,370	0,062	-0,081
-402,482	-200,000	-0,017	0,087
-401,467	525,020	-0,020	0,033
-400,452	675,562	0,020	-0,037
-399,438	800,000	-0,039	0,094
-398,423	290,266	0,055	-0,072
-397,409	-200,000	0,045	-0,245
-396,394	295,284	-0,079	0,105
-395,379	790,446	0,059	0,119
-394,365	800,000	0,078	0,165
-393,350	800,000	0,040	0,094
-392,336	-200,000	-0,002	0,116
-391,321	-91,390	0,062	0,013
-390,306	800,000	0,026	0,051
-389,292	577,340	-0,083	0,147
-388,277	800,000	-0,014	-0,043
-387,263	225,596	-0,037	0,043
-386,248	67,737	0,047	-0,035
-385,233	-98,025	-0,124	0,023
-384,219	-163,525	-0,076	0,003
-383,204	192,006	-0,039	-0,042
-382,190	326,897	0,015	-0,021
-381,175	-77,718	0,087	-0,022
-380,160	-15,249	-0,076	0,035
-379,146	-10,000	0,079	0,038
-378,131	85,481	0,043	-0,034
-377,117	263,900	0,082	-0,103
-376,102	-200,000	-0,000	0,089
-375,088	-81,580	-0,057	0,013
-374,073	155,586	0,058	-0,058
-373,058	800,000	0,011	-0,026
-372,044	565,052	-0,014	-0,025
-371,029	-200,000	-0,006	-0,118
-370,015	-69,206	-0,136	0,037
-369,000	235,633	-0,050	-0,060
-367,985	800,000	0,033	-0,105
-366,971	-200,000	0,002	-0,021
-365,956	800,000	-0,036	0,096
-364,942	88,713	0,037	0,029
-363,927	-14,976	-0,142	0,065
-362,912	-200,000	0,003	-0,023
-361,898	-200,000	-0,009	-0,076
-360,883	800,000	-0,075	-0,177
-359,869	800,000	0,030	0,077
-358,854	-26,152	0,037	0,015
-357,839	-4,023	0,021	0,011
-356,825	219,120	0,113	0,130
-355,810	341,534	-0,052	0,073
-354,796	-200,000	-0,005	-0,058
-353,781	-39,512	-0,152	0,057
-352,766	-48,111	0,078	-0,027
-351,752	-200,000	0,022	0,079
-350,737	800,000	-0,016	0,041
-349,723	800,000	0,064	0,155
-348,708	-200,000	0,044	0,181
-347,693	-114,893	-0,051	0,007
-346,679	800,000	-0,020	-0,058
-345,664	-96,724	0,005	-0,001
-344,650	11,352	0,056	0,031
-343,635	-108,908	0,105	-0,016
-342,620	-200,000	-0,003	0,039
-341,606	-200,000	0,005	0,040
-340,591	-84,534	0,097	-0,022
-339,577	21,528	-0,108	-0,063
-338,562	366,264	-0,081	-0,118
-337,548	-174,392	-0,036	0,001
-336,533	17,193	-0,111	0,063
-335,518	34,963	0,159	0,100
-334,504	173,577	-0,019	0,020
-333,489	-128,544	-0,037	-0,004
-332,475	94,092	0,065	0,053
-331,460	211,227	0,050	-0,057
-330,445	-200,000	0,008	-0,073
-329,431	-134,394	-0,060	-0,005
-328,416	71,903	-0,062	0,046
-327,402	64,152	0,063	-0,046
-326,387	-200,000	-0,011	0,057
-325,372	89,211	0,147	-0,118
-324,358	-47,685	-0,048	0,017
-323,343	-169,412	0,158	0,004
-322,329	800,000	-0,021	-0,064
-321,314	-200,000	-0,044	0,182
-320,299	800,000	0,005	0,015
-319,285	-200,000	0,002	0,199
-318,270	-117,638	0,010	-0,001
-317,256	712,714	0,021	0,041
-316,241	13,842	-0,160	0,089
-315,226	33,391	0,124	-0,077
-314,212	-39,227	-0,025	-0,009
-313,197	-13,613	-0,095	0,044
-312,183	-200,000	0,001	0,047
-311,168	465,780	-0,051	-0,082
-310,153	-31,791	0,095	-0,038
-309,139	216,172	-0,061	0,070
-308,124	-93,273	0,102	0,020
-307,110	282,466	-0,078	0,101
-306,095	240,655	0,113	0,136
-305,080	-142,241	0,124	0,009
-304,066	222,402	0,098	-0,114
-303,051	260,795	-0,055	-0,068
-302,037	52,060	0,089	-0,061
-301,022	563,580	0,024	0,041
-300,008	-8,220	-0,034	-0,017
-298,993	270,634	-0,071	0,090
-297,978	-200,000	-0,000	0,042
-296,964	13,468	-0,068	-0,038
-295,949	397,007	-0,076	-0,114
-294,935	46,402	-0,107	-0,071
-293,920	-200,000	0,011	0,062
-292,905	-200,000	-0,014	-0,126
-291,891	479,053	-0,012	0,019
-290,876	184,022	-0,017	-0,018
-289,862	70,680	0,091	-0,067
-288,847	-1,769	0,050	-0,025
-287,832	41,263	-0,114	-0,074
-286,818	409,432	0,021	-0,032
-285,803	-167,785	0,123	-0,003
-284,789	573,134	0,075	0,132
-283,774	800,000	0,047	0,117
-282,759	800,000	-0,040	-0,108
-281,745	-200,000	-0,048	-0,153
-280,730	54,136	0,147	-0,102
-279,716	58,022	-0,068	0,048
-278,701	201,590	-0,125	0,138
-277,686	800,000	0,063	0,199
-276,672	-62,728	0,074	-0,022
-275,657	-153,010	-0,077	0,004
-274,643	-89,904	-0,077	-0,016
-273,628	-197,266	0,058	0,000
-272,613	752,121	-0,099	-0,192
-271,599	-156,159	0,091	-0,004
-270,584	-200,000	-0,008	0,153
-269,570	-101,487	-0,043	-0,007
-268,555	69,122	0,069	0,051
-267,540	115,570	-0,070	-0,061
-266,526	800,000	-0,059	-0,133
-265,511	-200,000	0,031	-0,238
-264,497	-89,940	0,143	-0,030
-263,482	-37,887	0,158	0,060
-262,467	-41,929	0,123	0,045
-261,453	25,388	0,097	0,058
-260,438	800,000	-0,029	0,085
-259,424	800,000	0,034	-0,085
-258,409	378,390	0,053	-0,078
-257,395	95,905	0,054	0,044
-256,380	-200,000	-0,012	0,102
-255,365	800,000	-0,036	-0,092
-254,351	-200,000	-0,007	-0,115
-253,336	-52,147	0,050	-0,017
-252,322	100,558	-0,050	-0,042
-251,307	459,844	0,036	0,057
-250,292	-200,000	0,015	-0,088
-249,278	-200,000	-0,018	0,100
-248,263	-43,976	0,027	0,010
-247,249	-200,000	-0,015	0,091
-246,234	237,763	-0,026	0,031
-245,219	-200,000	-0,020	0,083
-244,205	-200,000	-0,037	-0,123
-243,190	696,296	0,025	0,047
-242,176	8,599	0,039	0,021
-241,161	-75,928	0,083	-0,021
-240,146	800,000	-0,046	0,112
-239,132	800,000	0,017	-0,054
-238,117	-6,309	0,044	0,021
-237,103	162,515	-0,103	-0,104
-236,088	-200,000	0,006	0,046
-235,073	-26,911	0,055	-0,023
-234,059	-83,307	-0,053	-0,012
-233,044	-200,000	0,009	0,046
-232,030	-200,000	-0,018	0,104
-231,015	-56,973	-0,088	0,028
-230,000	211,180	-0,027	0,031
-228,986	-200,000	0,017	-0,068
-227,971	13,981	-0,098	0,055
-226,957	-161,616	0,127	0,005
-225,942	800,000	0,008	-0,025
-224,927	-36,081	-0,071	0,027
-223,913	800,000	-0,035	-0,097
-222,898	-200,000	-0,031	-0,155
-221,884	161,726	0,055	0,055
-220,869	686,833	-0,045	0,085
-219,855	800,000	0,049	-0,110
-218,840	-200,000	-0,026	0,204
-217,825	374,087	-0,080	-0,118
-216,811	-200,000	0,044	-0,151
-215,796	-128,344	-0,078	0,008
-214,782	-71,104	-0,216	-0,058
-213,767	-200,000	0,022	-0,099
-212,752	800,000	-0,068	0,151
-211,738	51,944	-0,068	0,047
-210,723	631,916	0,073	0,133
-209,709	-10,314	0,028	-0,013
-208,694	800,000	-0,012	0,035
-207,679	-200,000	-0,001	-0,178
-206,665	-200,000	-0,037	-0,194
-205,650	-200,000	-0,029	-0,104
-204,636	800,000	0,008	0,020
-203,621	-89,257	-0,124	-0,026
-202,606	-200,000	0,018	0,059
-201,592	-8,238	-0,029	-0,014
-200,577	150,295	-0,081	0,079
-199,563	122,290	0,061	-0,055
-198,548	-200,000	0,006	-0,054
-197,533	-200,000	-0,005	-0,063
-196,519	342,933	0,030	-0,043
-195,504	-51,578	0,041	0,013
-194,490	455,780	-0,018	-0,028
-193,475	-90,593	-0,111	0,023
-192,460	88,858	-0,026	-0,021
-191,446	-144,976	0,021	-0,001
-190,431	199,275	0,013	0,014
-189,417	68,938	0,121	0,089
-188,402	-200,000	0,000	0,059
-187,387	800,000	-0,046	-0,099
-186,373	-200,000	0,040	-0,228
-185,358	64,640	-0,088	0,063
-184,344	800,000	0,007	0,019
-183,329	-200,000	-0,031	-0,098
-182,315	-83,528	0,026	-0,006
-181,300	11,360	0,091	-0,050
-180,285	448,402	-0,082	-0,130
-179,271	-15,852	-0,110	-0,050
-178,256	144,099	-0,080	-0,076
-177,242	-38,383	0,086	0,032
-176,227	-14,600	0,106	0,048
-175,212	-200,000	-0,067	0,260
-174,198	132,836	-0,037	-0,034
-173,183	252,195	-0,101	0,123
-172,169	250,998	-0,034	-0,041
-171,154	112,520	0,021	-0,018
-170,139	-200,000	-0,024	0,078
-169,125	-200,000	0,019	0,075
-168,110	-30,971	-0,071	-0,028
-167,096	109,964	0,043	-0,037
-166,081	-17,248	-0,074	0,033
-165,066	-15,589	0,127	-0,058
-164,052	213,266	0,037	-0,042
-163,037	-112,997	-0,109	0,015
-162,023	92,918	0,035	0,028
-161,008	-200,000	0,019	0,073
-159,993	800,000	-0,033	0,104
-158,979	456,446	0,062	-0,099
-157,964	369,213	0,017	-0,025
-156,950	270,313	-0,032	0,041
-155,935	800,000	-0,032	-0,078
-154,920	28,957	0,085	-0,051
-153,906	-200,000	0,002	0,031
-152,891	-55,367	0,030	0,010
-151,877	12,059	0,044	-0,024
-150,862	290,072	-0,105	-0,136
-149,847	800,000	-0,032	0,072
-148,833	-93,172	-0,058	-0,011
-147,818	800,000	-0,030	0,071
-146,804	35,410	-0,020	-0,012
-145,789	800,000	0,040	0,127
-144,775	-200,000	0,000	-0,013
-143,760	-200,000	0,000	-0,068
-142,745	168,398	-0,097	-0,099
-141,731	-100,422	-0,049	0,009
-140,716	-44,170	-0,076	-0,027
-139,702	-40,970	0,067	-0,025
-138,687	800,000	0,013	-0,038
-137,672	-35,656	-0,135	-0,052
-136,658	-200,000	0,013	0,084
-135,643	70,950	-0,033	0,025
-134,629	72,129	-0,119	-0,089
-133,614	113,292	0,164	-0,142
-132,599	-114,201	0,023	-0,003
-131,585	258,852	-0,084	0,104
-130,570	800,000	-0,022	-0,049
-129,556	-5,610	-0,040	0,019
-128,541	14,316	-0,095	-0,053
-127,526	-45,243	0,086	-0,030
-126,512	548,880	0,043	0,074
-125,497	524,383	-0,010	-0,016
-124,483	14,637	-0,097	-0,054
-123,468	-200,000	0,005	0,153
-122,453	-108,814	-0,070	0,011
-121,439	-200,000	0,019	-0,084
-120,424	-174,042	-0,033	-0,001
-119,410	451,054	0,062	0,099
-118,395	-90,140	0,127	0,026
-117,380	800,000	-0,021	0,048
-116,366	-200,000	-0,006	0,126
-115,351	163,806	0,114	0,114
-114,337	-200,000	-0,011	-0,067
-113,322	-68,835	-0,109	-0,030
-112,307	6,979	-0,028	-0,015
-111,293	52,851	-0,069	0,047
-110,278	11,489	-0,058	-0,032
-109,264	800,000	-0,063	-0,133
-108,249	-69,395	-0,141	-0,038
-107,234	-200,000	0,010	-0,167
-106,220	-184,938	0,042	-0,000
-105,205	-55,730	0,110	-0,035
-104,191	-0,812	0,080	-0,040
-103,176	-200,000	-0,000	0,197
-102,162	188,617	-0,045	0,048
-101,147	281,553	-0,035	0,045
-100,132	150,949	-0,089	-0,087
-99,118	800,000	-0,018	-0,051
-98,103	59,241	-0,047	-0,033
-97,089	799,613	-0,036	-0,071
-96,074	59,011	-0,042	-0,029
-95,059	-55,055	-0,082	-0,026
-94,045	-169,751	-0,029	0,001
-93,030	-200,000	0,014	-0,066
-92,016	16,682	-0,115	0,065
-91,001	-193,524	-0,102	-0,001
-89,986	378,249	-0,026	0,037
-88,972	-132,273	0,067	-0,006
-87,957	595,675	-0,006	0,011
-86,943	156,207	-0,026	-0,026
-85,928	-200,000	0,017	-0,097
-84,913	442,940	0,066	-0,103
-83,899	239,907	0,082	0,097
-82,884	-18,851	0,127	0,056
-81,870	330,462	0,075	-0,103
-80,855	-174,556	-0,067	0,001
-79,840	141,374	-0,103	-0,097
-78,826	107,135	-0,020	-0,017
-77,811	-108,796	-0,109	-0,016
-76,797	800,000	-0,046	0,123
-75,782	-105,025	0,046	0,007
-74,767	300,069	-0,036	-0,048
-73,753	-200,000	-0,007	-0,065
-72,738	-171,127	0,090	-0,002
-71,724	800,000	0,050	0,154
-70,709	43,198	-0,121	0,079
-69,694	-200,000	-0,001	0,037
-68,680	617,880	0,035	-0,063
-67,665	10,243	-0,067	0,036
-66,651	133,570	0,060	-0,055
-65,636	117,730	0,022	-0,019
-64,622	95,108	-0,066	-0,053
-63,607	-200,000	-0,028	-0,137
-62,592	-200,000	0,001	0,035
-61,578	-57,826	0,056	-0,017
-60,563	-69,194	0,111	0,030
-59,549	304,953	-0,081	0,108
-58,534	87,345	-2,476	-1,951
-57,519	396,097	0,243	-0,363
-56,505	-200,000	-1,572	-5,419
-55,490	333,217	0,843	1,164
-54,476	800,000	5,548	12,292
-53,461	-200,000	20,791	331,673
-52,446	800,000	761,307	2310,715
-51,432	530,761	1666,302	2817,550
-50,417	113,226	1636,284	1414,275
-49,403	82,115	1282,574	989,931
-48,388	29,524	1023,263	618,674
-47,373	19,158	986,562	562,573
-46,359	15,114	974,242	542,377
-45,344	11,544	970,927	528,899
-44,330	11,960	968,853	529,099
-43,315	11,119	966,824	525,242
-42,300	11,027	965,938	524,443
-41,286	11,046	965,015	523,981
-40,271	11,024	964,045	523,362
-39,257	11,074	963,058	522,969
-38,242	11,059	962,247	522,459
-37,227	11,056	961,433	521,987
-36,213	11,010	960,709	521,423
-35,198	10,999	959,725	520,833
-34,184	11,083	958,876	520,621
-33,169	10,959	958,155	519,813
-32,154	11,042	957,158	519,518
-31,140	11,017	956,366	518,986
-30,125	11,099	955,311	518,656
-29,111	11,018	954,668	518,027
-28,096	11,029	954,228	517,801
-27,082	11,075	953,304	517,429
-26,067	11,106	952,466	517,053
-25,052	11,030	951,799	516,426
-24,038	11,039	950,957	515,978
-23,023	11,004	950,188	515,427
-22,009	11,049	949,619	515,242
-20,994	11,067	949,012	514,950
-19,979	11,045	948,449	514,553
-18,965	11,036	947,798	514,151
-17,950	11,061	947,249	513,912
-16,936	10,992	946,707	513,378
-15,921	11,021	946,127	513,137
-14,906	10,936	945,282	512,390
-13,892	10,962	944,611	512,088
-12,877	10,932	943,953	511,613
-11,863	10,942	943,243	511,240
-10,848	10,960	942,927	511,105
-9,833	10,978	942,367	510,839
-8,819	10,935	941,731	510,340
-7,804	10,930	941,043	509,931
-6,790	10,901	940,674	509,620
-5,775	11,019	939,828	509,513
-4,760	10,963	939,467	509,119
-3,746	10,975	938,651	508,694
-2,731	10,829	937,976	507,851
-1,717	10,824	937,386	507,494
-0,702	10,817	936,819	507,146
0,313	10,644	935,955	506,901
1,327	14,541	933,886	517,930
2,342	24,445	781,990	459,428
3,356	21,446	439,185	253,636
4,371	-7,103	295,781	142,404
5,386	-10,458	277,767	130,553
6,400	-11,567	272,179	126,889
7,415	-11,427	269,595	125,801
8,429	-11,770	267,882	124,679
9,444	-12,077	266,982	123,970
10,459	-11,950	266,355	123,783
11,473	-12,340	265,798	123,161
12,488	-12,106	265,093	123,034
13,502	-12,617	264,592	122,331
14,517	-12,530	264,081	122,162
15,531	-12,792	263,671	121,726
16,546	-12,701	263,274	121,614
17,561	-12,630	262,748	121,423
18,575	-12,668	262,659	121,337
19,590	-12,648	262,019	121,049
20,604	-12,725	261,954	120,939
21,619	-12,756	261,557	120,718
22,634	-12,753	261,248	120,567
23,648	-12,696	260,830	120,414
24,663	-12,830	260,570	120,165
25,677	-12,752	260,456	120,171
26,692	-12,806	260,191	119,990
27,707	-12,684	259,716	119,867
28,721	-12,684	259,458	119,738
29,736	-12,797	259,226	119,521
30,750	-12,782	258,856	119,352
31,765	-13,052	258,859	119,106
32,780	-13,037	258,456	118,923
33,794	-12,883	258,209	118,933
34,809	-12,713	258,020	118,985
35,823	-12,946	257,763	118,652
36,838	-12,883	257,489	118,570
37,853	-12,838	257,214	118,472
38,867	-13,065	257,114	118,218
39,882	-12,991	256,803	118,129
40,896	-12,926	256,648	118,104
41,911	-12,935	256,227	117,891
42,926	-12,940	256,167	117,849
43,940	-13,010	255,807	117,612
44,955	-13,005	255,635	117,526
45,969	-13,087	255,252	117,269
46,984	-13,185	255,110	117,108
47,999	-13,508	254,713	116,637
49,013	-13,609	254,577	116,478
50,028	-13,865	254,270	116,106
51,042	-13,732	254,075	116,121
52,057	-13,768	253,710	115,913
53,071	-13,781	253,647	115,862
54,086	-13,629	253,386	115,864
55,101	-13,443	253,291	115,969
56,115	-13,382	253,238	115,987
57,130	-12,755	253,079	116,441
58,144	-12,674	252,970	116,451
59,159	-12,568	252,726	116,418
60,174	-12,627	252,461	116,236
61,188	-12,673	252,181	116,057
62,203	-12,671	252,079	116,001
63,217	-12,658	251,763	115,857
64,232	-12,912	251,564	115,538
65,247	-12,623	251,369	115,685
66,261	-12,659	251,147	115,541
67,276	-12,960	250,896	115,160
68,290	-13,053	250,556	114,914
69,305	-13,360	250,395	114,571
70,320	-13,339	250,166	114,473
71,334	-12,872	249,983	114,774
72,349	-12,674	250,035	114,956
73,363	-12,593	249,785	114,899
74,378	-12,695	249,625	114,729
75,393	-12,499	249,251	114,712
76,407	-12,785	249,173	114,425
77,422	-12,502	248,610	114,394
78,436	-12,701	248,759	114,285
79,451	-12,553	248,397	114,233
80,466	-12,820	248,023	113,826
81,480	-13,064	247,912	113,561
82,495	-13,056	247,647	113,436
83,509	-13,109	247,598	113,360
84,524	-13,138	247,321	113,199
85,539	-13,316	247,039	112,910
86,553	-13,418	246,921	112,762
87,568	-13,182	246,845	112,913
88,582	-13,054	246,475	112,841
89,597	-13,301	246,485	112,630
90,611	-12,930	246,283	112,836
91,626	-12,801	246,063	112,832
92,641	-12,710	245,875	112,811
93,655	-12,960	245,670	112,500
94,670	-13,004	245,489	112,371
95,684	-12,971	245,208	112,259
96,699	-13,027	245,015	112,114
97,714	-13,150	244,859	111,931
98,728	-13,240	244,744	111,795
99,743	-13,272	244,513	111,653
100,757	-13,241	244,096	111,478
101,772	-13,003	244,067	111,650
102,787	-13,075	243,915	111,512
103,801	-13,131	243,903	111,450
104,816	-12,758	243,488	111,557
105,830	-12,780	243,547	111,557
106,845	-12,742	243,280	111,455
107,860	-12,885	243,124	111,256
108,874	-12,897	242,822	111,098
109,889	-12,758	242,605	111,103
110,903	-12,827	242,379	110,933
111,918	-12,901	242,271	110,814
112,933	-12,979	242,141	110,680
113,947	-12,901	241,864	110,607
114,962	-12,619	241,684	110,745
115,976	-12,821	241,742	110,597
116,991	-12,977	241,394	110,301
118,006	-12,941	241,280	110,269
119,020	-12,897	241,189	110,253
120,035	-12,682	240,979	110,322
121,049	-12,775	240,827	110,166
122,064	-12,585	240,615	110,214
123,079	-12,942	240,305	109,773
124,093	-12,885	240,239	109,779
125,108	-13,262	239,944	109,330
126,122	-13,317	239,667	109,150
127,137	-13,498	239,486	108,912
128,151	-13,403	239,348	108,916
129,166	-13,180	239,318	109,072
130,181	-13,191	238,920	108,873
131,195	-13,146	238,779	108,835
132,210	-13,016	238,661	108,875
133,224	-12,892	238,521	108,901
134,239	-12,880	238,411	108,851
135,254	-12,853	238,233	108,782
136,268	-12,850	238,003	108,669
137,283	-13,245	237,689	108,200
138,297	-13,452	237,505	107,942
139,312	-13,472	237,251	107,800
140,327	-12,924	237,261	108,233
141,341	-12,394	237,070	108,559
142,356	-12,538	237,019	108,411
143,370	-12,644	236,934	108,277
144,385	-12,339	236,686	108,398
145,400	-12,577	236,401	108,068
146,414	-12,459	236,426	108,163
147,429	-12,549	236,183	107,971
148,443	-12,415	236,075	108,019
149,458	-12,605	235,917	107,786
150,473	-12,399	235,692	107,837
151,487	-12,323	235,331	107,722
152,502	-12,483	235,306	107,575
153,516	-12,290	235,011	107,582
154,531	-12,503	234,962	107,383
155,546	-12,589	234,841	107,250
156,560	-12,429	234,528	107,223
157,575	-12,907	234,492	106,821
158,589	-12,502	234,237	107,014
159,604	-12,317	234,177	107,122
160,619	-12,357	234,003	107,001
161,633	-12,400	233,827	106,878
162,648	-12,252	233,785	106,965
163,662	-12,494	233,419	106,599
164,677	-12,557	233,266	106,470
165,692	-12,409	233,247	106,568
166,706	-12,255	233,033	106,580
167,721	-12,397	232,838	106,371
168,735	-12,290	232,872	106,461
169,750	-12,259	232,539	106,323
170,764	-12,314	232,491	106,249
171,779	-12,392	232,371	106,124
172,794	-12,117	232,154	106,229
173,808	-12,522	232,040	105,852
174,823	-13,012	231,624	105,273
175,837	-13,094	231,346	105,073
176,852	-12,543	231,439	105,534
177,867	-12,497	231,387	105,536
178,881	-12,328	231,370	105,650
179,896	-12,204	230,930	105,536
180,910	-12,351	230,858	105,380
181,925	-12,149	230,781	105,492
182,940	-12,328	230,632	105,276
183,954	-12,306	230,532	105,238
184,969	-12,171	230,345	105,248
185,983	-12,172	230,267	105,201
186,998	-12,235	230,061	105,049
188,013	-12,209	229,891	104,982
189,027	-12,319	229,694	104,799
190,042	-12,165	229,463	104,801
191,056	-12,145	229,444	104,799
192,071	-12,024	229,215	104,778
193,086	-11,911	229,082	104,795
194,100	-11,956	229,122	104,769
195,115	-11,710	228,702	104,756
196,129	-10,904	229,229	105,606
197,144	-5,226	230,879	110,734
198,159	0,232	232,386	115,671
199,173	2,664	233,015	117,856
200,188	2,697	233,119	117,924
201,202	2,813	232,833	117,858
202,217	3,015	232,778	117,976
203,232	3,498	232,671	118,284
204,246	3,399	232,523	118,121
205,261	3,514	232,381	118,128
206,275	3,690	232,343	118,233
207,290	3,607	232,196	118,084
208,304	3,712	231,968	118,039
209,319	3,623	231,881	117,915
210,334	3,478	231,594	117,647
211,348	3,304	231,343	117,376
212,363	3,094	231,133	117,098
213,377	2,819	230,937	116,778
214,392	2,840	230,730	116,679
215,407	2,818	230,710	116,642
216,421	2,892	230,579	116,622
217,436	2,841	230,245	116,404
218,450	2,640	230,098	116,165
219,465	2,627	230,036	116,114
220,480	2,625	229,848	116,007
221,494	2,741	229,661	115,991
222,509	2,779	229,670	116,014
223,523	2,696	229,659	115,934
224,538	2,666	229,334	115,738
225,553	2,779	229,059	115,674
226,567	2,905	229,061	115,760
227,582	3,191	228,969	115,920
228,596	3,141	228,953	115,864
229,611	2,909	228,818	115,610
230,626	2,583	228,394	115,139
231,640	2,373	228,258	114,901
232,655	2,853	228,330	115,290
233,669	3,264	228,094	115,470
234,684	3,247	227,956	115,378
235,699	3,334	227,608	115,257
236,713	3,049	227,445	114,949
237,728	2,826	227,415	114,757
238,742	2,943	227,075	114,662
239,757	2,955	227,083	114,665
240,772	2,715	226,805	114,334
241,786	2,761	226,721	114,316
242,801	2,839	226,697	114,353
243,815	3,135	226,733	114,582
244,830	3,196	226,495	114,498
245,844	3,067	226,015	114,148
246,859	2,799	226,129	113,995
247,874	3,213	225,965	114,212
248,888	3,063	225,907	114,060
249,903	2,946	225,630	113,824
250,917	2,964	225,362	113,691
251,932	3,023	225,203	113,645
252,947	2,682	225,093	113,326
253,961	2,566	224,922	113,143
254,976	2,836	224,912	113,328
255,990	3,210	224,741	113,510
257,005	2,899	224,723	113,260
258,020	3,024	224,525	113,243
259,034	3,080	224,316	113,169
260,049	3,033	224,220	113,075
261,063	2,933	224,093	112,927
262,078	3,132	223,937	112,985
263,093	3,272	223,827	113,024
264,107	3,224	223,782	112,955
265,122	2,998	223,667	112,720
266,136	3,248	223,544	112,833
267,151	3,252	223,299	112,702
268,166	2,980	223,103	112,393
269,180	2,848	222,666	112,066
270,195	2,797	222,632	112,001
271,209	2,639	222,597	111,858
272,224	2,820	222,651	112,007
273,239	2,982	222,228	111,904
274,253	2,626	222,124	111,580
275,268	2,678	221,850	111,471
276,282	2,659	221,796	111,420
277,297	2,524	221,540	111,183
278,312	2,572	221,587	111,232
279,326	2,926	221,446	111,409
280,341	2,690	221,403	111,206
281,355	2,912	221,299	111,305
282,370	2,630	221,083	110,981
283,384	2,534	220,826	110,772
284,399	2,592	220,680	110,731
285,414	2,554	220,553	110,630
286,428	2,921	220,377	110,799
287,443	3,007	220,371	110,848
288,457	2,918	220,200	110,688
289,472	2,834	219,940	110,486
290,487	2,266	219,686	109,938
291,501	2,290	219,579	109,892
292,516	2,263	219,452	109,799
293,530	2,616	219,337	109,986
294,545	2,364	219,365	109,809
295,560	2,873	219,111	110,039
296,574	2,808	219,088	109,971
297,589	2,881	218,842	109,890
298,603	3,077	218,656	109,928
299,618	2,805	218,561	109,675
300,633	3,079	218,523	109,843
301,647	3,179	218,449	109,867
302,662	3,059	218,249	109,671
303,676	2,963	217,985	109,460
304,691	2,940	217,975	109,428
305,706	2,858	217,819	109,281
306,720	2,988	217,654	109,282
307,735	2,599	217,455	108,895
308,749	2,385	217,388	108,698
309,764	2,980	217,174	109,007
310,779	2,925	217,195	108,968
311,793	2,956	217,072	108,919
312,808	3,052	216,808	108,844
313,822	3,054	216,706	108,785
314,837	2,819	216,594	108,552
315,852	2,771	216,314	108,368
316,866	2,866	216,226	108,381
317,881	3,029	216,029	108,389
318,895	3,188	215,985	108,470
319,910	2,781	215,785	108,072
320,925	2,562	215,538	107,783
321,939	2,440	215,309	107,573
322,954	2,792	215,316	107,816
323,968	3,059	215,255	107,964
324,983	2,911	215,309	107,877
325,997	3,013	215,171	107,870
327,012	2,876	214,914	107,635
328,027	2,842	214,820	107,554
329,041	3,321	214,707	107,826
330,056	3,140	214,763	107,717
331,070	2,909	214,447	107,386
332,085	2,363	214,078	106,808
333,100	2,571	213,885	106,848
334,114	2,460	213,759	106,698
335,129	2,955	213,822	107,067
336,143	3,010	213,784	107,077
337,158	3,049	213,462	106,934
338,173	2,846	213,435	106,769
339,187	2,704	213,110	106,497
340,202	2,607	213,078	106,404
341,216	2,410	212,908	106,172
342,231	2,803	212,799	106,383
343,246	2,702	212,718	106,262
344,260	2,997	212,504	106,351
345,275	2,863	212,591	106,292
346,289	2,877	212,489	106,241
347,304	2,967	212,270	106,185
348,319	2,810	211,872	105,867
349,333	2,921	211,800	105,898
350,348	2,680	211,808	105,726
351,362	3,244	211,789	106,099
352,377	2,924	211,654	105,800
353,392	2,999	211,379	105,704
354,406	2,753	211,346	105,508
355,421	198,030	1331,798	1407,176
356,435	158,321	1468,182	1407,038
