DTS Sentinel unit serial number:	SN410029Multiplexer serial number:	ORYXHardware model number:	OX2-SRSoftware version number:	ORYX F/W v4,00 Oryx Data Collector v3.7.2.0data status	okinstallation	B6 Nyhavnadifferential loss correction	single-endedforward channel	channel 2reverse channel	N/Adate	2023/12/08time	01:15:08forward acquisition time	300,00reverse acquisition time	0,00gamma	499,1914k internal	0,3165k external	0,3165temperature offset calibration	1,0000default loss term (dB/km)	0,3820temperature slope calibration	1,0000multiplexer offset coefficient	1,0000multiplexer slope coefficient	1,0000fibre end	0,00T internal ref (°C)	13,26T ext. ref 1 (°C)	-3,60T ext. ref 2 (°C)	-3,60length (m)	temperature (°C)	Stokes	anti-Stokes-744,400	800,000	-0,067	-0,202
-743,385	-115,174	-0,361	-0,050
-742,371	49,169	0,089	-0,061
-741,356	-37,327	-0,270	-0,105
-740,342	-92,535	0,112	-0,023
-739,327	-127,799	-0,356	0,037
-738,312	104,050	0,058	-0,050
-737,298	-62,145	-0,324	-0,099
-736,283	-46,070	0,145	-0,052
-735,269	-152,033	-0,247	0,013
-734,254	-25,397	0,174	0,075
-733,239	-12,272	-0,480	-0,230
-732,225	-27,086	0,224	-0,096
-731,210	-33,852	-0,093	-0,037
-730,196	-200,000	-0,000	-0,163
-729,181	-200,000	-0,015	-0,057
-728,167	-30,822	0,034	0,014
-727,152	-200,000	-0,002	0,071
-726,137	-110,399	-0,095	-0,014
-725,123	-34,671	-0,050	-0,020
-724,108	-161,831	-0,107	-0,004
-723,094	38,058	-0,082	0,053
-722,079	-200,000	0,001	-0,016
-721,064	148,627	0,074	-0,074
-720,050	-200,000	-0,017	-0,173
-719,035	145,641	-0,026	0,026
-718,021	308,637	0,089	-0,122
-717,006	-200,000	0,004	-0,136
-715,991	325,150	-0,077	-0,108
-714,977	800,000	0,026	0,063
-713,962	-200,000	-0,016	-0,076
-712,948	27,562	-0,055	0,034
-711,933	-200,000	0,020	-0,079
-710,918	-200,000	0,005	-0,059
-709,904	-41,209	-0,149	-0,056
-708,889	-178,875	-0,214	0,003
-707,875	17,376	-0,095	0,055
-706,860	800,000	0,025	0,062
-705,845	649,395	0,104	0,196
-704,831	-200,000	0,002	0,030
-703,816	195,096	0,008	-0,009
-702,802	229,883	0,146	-0,175
-701,787	-200,000	0,024	-0,110
-700,772	643,307	-0,029	-0,054
-699,758	-105,015	-0,065	-0,011
-698,743	-164,254	-0,040	0,001
-697,729	-124,740	0,124	-0,014
-696,714	303,292	-0,051	0,070
-695,699	23,408	-0,078	0,047
-694,685	-27,845	-0,087	-0,037
-693,670	-143,029	-0,072	-0,005
-692,656	249,869	0,051	-0,064
-691,641	-200,000	0,040	-0,142
-690,627	-200,000	0,026	0,095
-689,612	526,313	-0,024	0,042
-688,597	-108,223	-0,067	0,010
-687,583	756,377	-0,051	-0,101
-686,568	-200,000	0,006	-0,044
-685,554	217,452	0,044	-0,051
-684,539	-2,616	0,092	-0,047
-683,524	286,672	0,053	0,070
-682,510	290,589	-0,079	-0,106
-681,495	22,838	-0,145	-0,087
-680,481	800,000	0,042	-0,100
-679,466	800,000	-0,035	-0,101
-678,451	51,496	-0,086	0,060
-677,437	348,227	-0,057	0,082
-676,422	226,893	0,017	0,021
-675,408	-2,488	-0,109	-0,056
-674,393	48,419	-0,060	0,041
-673,378	384,667	-0,076	-0,115
-672,364	-200,000	-0,023	-0,152
-671,349	459,598	-0,064	0,105
-670,335	162,372	-0,075	0,077
-669,320	394,887	-0,074	0,113
-668,305	-200,000	0,006	0,026
-667,291	-200,000	0,013	-0,052
-666,276	476,539	-0,059	-0,098
-665,262	800,000	-0,034	-0,080
-664,247	-200,000	0,012	-0,172
-663,232	468,473	-0,045	0,074
-662,218	-91,361	-0,136	-0,028
-661,203	-43,342	0,076	0,028
-660,189	202,543	0,041	0,047
-659,174	138,375	-0,042	0,041
-658,159	-18,155	-0,044	0,020
-657,145	219,977	0,127	-0,150
-656,130	-31,831	-0,231	-0,094
-655,116	131,558	-0,056	0,053
-654,101	-108,371	0,144	0,023
-653,086	493,074	-0,047	0,079
-652,072	-200,000	0,007	-0,071
-651,057	-0,847	-0,055	-0,028
-650,043	331,102	-0,083	-0,117
-649,028	-28,833	-0,102	-0,043
-648,014	800,000	0,031	-0,090
-646,999	-153,923	-0,124	-0,006
-645,984	-200,000	0,008	-0,067
-644,970	158,162	-0,053	0,054
-643,955	12,560	-0,122	0,069
-642,941	538,622	-0,051	0,090
-641,926	-200,000	0,008	-0,135
-640,911	169,667	0,047	-0,049
-639,897	-200,000	-0,005	-0,035
-638,882	351,770	-0,046	-0,066
-637,868	750,243	-0,014	-0,028
-636,853	500,561	-0,054	-0,092
-635,838	6,099	-0,064	-0,035
-634,824	-200,000	0,022	-0,077
-633,809	205,929	0,022	-0,025
-632,795	-65,293	-0,119	0,035
-631,780	-71,716	-0,026	-0,007
-630,765	-135,764	-0,040	0,003
-629,751	109,061	-0,108	0,094
-628,736	800,000	-0,032	-0,085
-627,722	-200,000	0,025	-0,226
-626,707	-200,000	0,016	0,133
-625,692	-28,506	-0,094	-0,039
-624,678	79,421	-0,067	0,052
-623,663	-200,000	0,009	0,075
-622,649	-108,303	-0,116	0,018
-621,634	-200,000	0,011	-0,052
-620,619	-200,000	-0,017	0,085
-619,605	-21,426	-0,045	0,020
-618,590	220,609	0,016	0,019
-617,576	-86,044	0,004	-0,001
-616,561	183,347	-0,043	0,047
-615,546	69,633	-0,088	-0,066
-614,532	73,897	-0,122	-0,093
-613,517	800,000	-0,063	0,140
-612,503	183,694	-0,061	-0,066
-611,488	-200,000	0,030	0,119
-610,474	400,533	0,051	0,079
-609,459	-49,149	0,084	-0,029
-608,444	-49,567	-0,108	0,037
-607,430	800,000	0,048	-0,100
-606,415	-200,000	-0,014	-0,224
-605,401	17,225	-0,085	-0,049
-604,386	59,506	0,080	0,058
-603,371	-123,567	0,049	-0,006
-602,357	-200,000	0,005	-0,065
-601,342	-120,973	-0,067	-0,008
-600,328	-137,083	-0,084	-0,007
-599,313	800,000	-0,029	-0,074
-598,298	-78,943	0,097	0,024
-597,284	-200,000	0,010	0,114
-596,269	-200,000	0,002	0,018
-595,255	800,000	0,037	0,116
-594,240	-155,760	-0,088	0,004
-593,225	98,002	-0,060	0,050
-592,211	800,000	-0,047	-0,122
-591,196	800,000	-0,027	-0,062
-590,182	-104,695	-0,119	-0,020
-589,167	103,638	-0,052	0,045
-588,152	-8,436	0,068	-0,033
-587,138	498,629	0,032	-0,055
-586,123	107,821	-0,123	-0,107
-585,109	262,169	-0,025	0,032
-584,094	-200,000	0,019	-0,209
-583,079	-80,341	0,072	0,017
-582,065	275,249	0,052	-0,067
-581,050	155,443	0,009	-0,009
-580,036	800,000	-0,019	-0,041
-579,021	130,977	-0,037	-0,035
-578,006	-200,000	0,006	-0,081
-576,992	-124,516	0,126	-0,014
-575,977	32,333	-0,082	0,052
-574,963	276,355	-0,046	-0,060
-573,948	12,011	0,064	-0,036
-572,934	-200,000	-0,010	-0,039
-571,919	-200,000	0,007	-0,080
-570,904	800,000	0,016	-0,050
-569,890	-111,317	-0,160	-0,024
-568,875	68,387	-0,069	-0,052
-567,861	792,013	0,069	-0,140
-566,846	-54,792	-0,087	0,029
-565,831	-124,780	-0,051	-0,006
-564,817	28,135	-0,082	-0,050
-563,802	-3,773	-0,153	-0,077
-562,788	-200,000	-0,042	0,000
-561,773	30,712	0,112	-0,070
-560,758	-102,027	0,004	-0,001
-559,744	466,768	-0,085	0,140
-558,729	-200,000	-0,004	0,126
-557,715	226,593	0,011	0,014
-556,700	42,074	0,123	-0,082
-555,685	6,401	-0,050	-0,027
-554,671	62,947	-0,068	-0,050
-553,656	123,151	0,108	-0,099
-552,642	283,728	0,072	0,095
-551,627	239,658	-0,062	0,076
-550,612	800,000	0,014	-0,046
-549,598	-200,000	0,013	-0,111
-548,583	-5,878	0,067	-0,033
-547,569	-155,316	0,062	0,003
-546,554	-30,582	0,038	-0,016
-545,539	-68,672	-0,056	0,016
-544,525	-200,000	-0,014	0,049
-543,510	799,971	-0,049	-0,100
-542,496	-41,283	-0,131	-0,049
-541,481	-125,196	-0,020	-0,002
-540,466	-104,041	-0,059	0,010
-539,452	-165,487	0,171	-0,005
-538,437	103,471	0,035	-0,030
-537,423	506,477	-0,045	0,076
-536,408	37,177	-0,102	0,066
-535,393	-200,000	0,019	-0,083
-534,379	-200,000	-0,013	-0,088
-533,364	-63,428	-0,040	0,012
-532,350	-178,470	0,129	-0,002
-531,335	44,301	-0,104	0,070
-530,321	-200,000	-0,020	0,155
-529,306	-129,435	-0,147	0,015
-528,291	-111,754	0,021	-0,003
-527,277	-117,600	-0,161	-0,021
-526,262	-200,000	0,007	0,122
-525,248	298,622	0,012	0,016
-524,233	800,000	-0,053	-0,109
-523,218	-124,934	-0,100	0,011
-522,204	40,544	0,049	-0,032
-521,189	480,262	-0,047	-0,079
-520,175	-200,000	-0,016	-0,067
-519,160	800,000	-0,043	-0,103
-518,145	-179,861	0,136	0,002
-517,131	800,000	0,018	-0,056
-516,116	255,930	-0,018	-0,023
-515,102	-91,923	0,074	-0,015
-514,087	-76,029	-0,011	-0,003
-513,072	-200,000	-0,022	-0,116
-512,058	-200,000	0,018	0,072
-511,043	-200,000	0,016	0,114
-510,029	800,000	-0,066	0,157
-509,014	800,000	0,022	-0,063
-507,999	800,000	0,015	-0,042
-506,985	800,000	-0,067	-0,194
-505,970	63,086	-0,082	-0,060
-504,956	-35,072	0,061	-0,024
-503,941	-150,329	-0,033	-0,002
-502,926	553,249	0,030	-0,054
-501,912	446,757	0,028	0,045
-500,897	-200,000	-0,008	-0,140
-499,883	-200,000	-0,014	-0,052
-498,868	145,224	-0,047	0,046
-497,853	-200,000	0,010	0,035
-496,839	631,730	0,043	-0,080
-495,824	-147,804	-0,048	-0,003
-494,810	25,563	0,111	0,067
-493,795	-95,221	-0,039	-0,008
-492,781	532,516	-0,101	0,174
-491,766	70,796	0,067	0,050
-490,751	-11,885	-0,188	0,090
-489,737	800,000	-0,042	0,085
-488,722	800,000	0,007	0,017
-487,708	-4,408	0,037	0,019
-486,693	-140,680	0,151	0,011
-485,678	87,056	-0,056	0,045
-484,664	-200,000	-0,004	-0,080
-483,649	-200,000	0,011	-0,092
-482,635	-200,000	0,002	-0,084
-481,620	-200,000	-0,007	-0,100
-480,605	-3,575	0,159	0,080
-479,591	50,420	-0,033	-0,023
-478,576	-125,813	-0,166	-0,018
-477,562	800,000	-0,006	-0,019
-476,547	-200,000	0,022	-0,074
-475,532	97,009	0,049	-0,041
-474,518	-200,000	-0,020	-0,081
-473,503	679,718	0,029	0,056
-472,489	-2,988	-0,066	0,033
-471,474	800,000	0,002	-0,005
-470,459	-200,000	-0,007	-0,037
-469,445	103,998	-0,012	0,010
-468,430	-107,807	0,087	-0,014
-467,416	-200,000	0,004	-0,100
-466,401	287,367	0,009	-0,011
-465,386	-142,256	-0,055	0,004
-464,372	800,000	-0,030	0,069
-463,357	800,000	0,012	0,030
-462,343	299,582	0,064	-0,086
-461,328	-57,555	-0,116	0,037
-460,313	-99,604	0,118	0,021
-459,299	-151,399	0,142	0,008
-458,284	69,156	0,113	0,085
-457,270	-40,569	-0,145	0,054
-456,255	-105,584	0,043	-0,007
-455,241	-115,425	-0,100	-0,014
-454,226	-200,000	0,022	0,082
-453,211	303,554	-0,077	-0,103
-452,197	56,335	-0,147	0,104
-451,182	-200,000	0,091	-0,000
-450,168	-142,966	0,083	0,006
-449,153	-200,000	-0,011	-0,038
-448,138	261,182	-0,091	-0,115
-447,124	-191,595	-0,110	0,001
-446,109	150,713	0,021	0,021
-445,095	191,736	0,004	-0,004
-444,080	-200,000	0,003	0,066
-443,065	2,139	-0,050	-0,026
-442,051	127,019	0,049	0,045
-441,036	7,046	-0,141	0,076
-440,022	175,255	0,121	0,128
-439,007	-14,777	0,037	0,017
-437,992	-32,146	0,106	-0,043
-436,978	30,047	-0,087	-0,054
-435,963	-126,427	0,061	-0,007
-434,949	590,866	-0,024	0,042
-433,934	-200,000	-0,046	-0,176
-432,919	616,189	-0,065	0,119
-431,905	-200,000	-0,012	0,068
-430,890	-12,046	0,069	0,033
-429,876	202,905	0,071	-0,080
-428,861	30,749	0,105	-0,065
-427,846	800,000	-0,010	0,030
-426,832	-200,000	-0,013	0,058
-425,817	-90,926	-0,091	0,019
-424,803	-8,504	-0,104	-0,051
-423,788	-118,961	-0,063	-0,008
-422,773	-200,000	0,011	-0,055
-421,759	800,000	0,009	0,020
-420,744	280,122	0,053	0,070
-419,730	375,826	0,031	0,046
-418,715	-200,000	-0,016	-0,090
-417,701	-67,188	-0,089	-0,025
-416,686	800,000	-0,019	0,054
-415,671	-110,981	-0,061	-0,009
-414,657	-200,000	0,016	0,112
-413,642	315,806	0,047	0,065
-412,628	800,000	0,016	0,043
-411,613	9,015	-0,184	-0,101
-410,598	-117,532	0,081	-0,011
-409,584	-70,211	0,179	0,049
-408,569	-100,806	0,046	-0,008
-407,555	555,929	0,013	-0,023
-406,540	95,078	0,070	0,058
-405,525	71,829	-0,056	0,042
-404,511	-48,056	-0,081	0,028
-403,496	305,366	0,069	-0,094
-402,482	-121,105	0,087	-0,010
-401,467	800,000	-0,022	-0,059
-400,452	-200,000	0,019	0,091
-399,438	-41,003	-0,103	-0,038
-398,423	-200,000	-0,010	-0,059
-397,409	130,819	0,029	-0,027
-396,394	236,629	-0,033	0,039
-395,379	-200,000	0,010	0,089
-394,365	261,244	0,024	0,030
-393,350	-64,295	0,229	-0,067
-392,336	613,988	-0,042	0,077
-391,321	-200,000	-0,010	0,045
-390,306	480,461	-0,102	-0,169
-389,292	114,535	-0,076	-0,067
-388,277	620,227	-0,027	-0,049
-387,263	238,618	0,002	-0,003
-386,248	-19,483	0,078	-0,035
-385,233	-10,969	-0,055	-0,026
-384,219	-200,000	0,014	0,061
-383,204	12,014	-0,090	-0,050
-382,190	-77,789	-0,121	-0,030
-381,175	-9,362	-0,082	-0,039
-380,160	-43,952	0,138	0,050
-379,146	67,015	0,030	-0,022
-378,131	-22,580	0,099	0,043
-377,117	-200,000	0,011	0,074
-376,102	-45,389	-0,071	0,025
-375,088	88,952	-0,166	-0,134
-374,073	164,348	-0,118	-0,121
-373,058	-56,360	0,196	0,063
-372,044	-200,000	0,008	0,107
-371,029	101,938	0,191	0,162
-370,015	-55,232	0,087	-0,028
-369,000	464,610	-0,091	-0,149
-367,985	-22,794	-0,013	0,006
-366,971	206,282	-0,053	0,060
-365,956	15,566	0,137	0,078
-364,942	118,117	0,022	-0,019
-363,927	-80,663	0,194	0,046
-362,912	355,851	-0,103	0,148
-361,898	-15,161	-0,053	0,025
-360,883	146,613	0,039	-0,038
-359,869	-200,000	0,011	-0,092
-358,854	800,000	-0,035	0,080
-357,839	62,582	-0,076	0,055
-356,825	800,000	0,034	0,106
-355,810	-200,000	0,007	-0,046
-354,796	325,350	-0,070	0,097
-353,781	800,000	-0,077	-0,165
-352,766	800,000	0,071	0,190
-351,752	-54,607	0,107	0,035
-350,737	-200,000	0,017	0,249
-349,723	-200,000	0,008	0,114
-348,708	-200,000	-0,003	0,053
-347,693	750,097	0,065	0,128
-346,679	-54,845	-0,071	0,023
-345,664	352,579	-0,045	0,065
-344,650	-141,760	0,180	-0,013
-343,635	-132,534	0,054	0,005
-342,620	-64,946	0,177	-0,051
-341,606	-85,412	0,048	0,011
-340,591	-88,778	-0,082	0,018
-339,577	800,000	-0,027	-0,069
-338,562	710,405	-0,041	0,080
-337,548	0,672	0,038	-0,019
-336,533	800,000	0,020	0,042
-335,518	-89,848	-0,062	0,013
-334,504	-200,000	0,020	-0,085
-333,489	3,689	-0,015	0,008
-332,475	-200,000	0,005	-0,138
-331,460	303,635	-0,054	0,072
-330,445	800,000	-0,024	0,050
-329,431	-200,000	0,009	0,057
-328,416	299,272	0,132	0,176
-327,402	-200,000	0,024	0,155
-326,387	36,156	0,061	0,039
-325,372	467,967	-0,054	-0,089
-324,358	800,000	0,057	-0,132
-323,343	231,256	-0,019	-0,023
-322,329	713,270	0,063	0,121
-321,314	-200,000	0,055	0,000
-320,299	800,000	0,043	0,099
-319,285	800,000	0,038	0,091
-318,270	-200,000	-0,017	0,135
-317,256	800,000	0,074	-0,168
-316,241	800,000	0,046	-0,099
-315,226	43,300	0,180	0,119
-314,212	-2,438	0,074	-0,038
-313,197	44,059	0,059	0,039
-312,183	-63,858	-0,059	-0,017
-311,168	-105,286	0,075	-0,012
-310,153	-200,000	-0,013	-0,097
-309,139	-200,000	-0,013	0,062
-308,124	0,070	0,107	-0,055
-307,110	511,977	0,070	0,119
-306,095	-178,174	-0,030	0,000
-305,080	-14,640	0,128	-0,059
-304,066	93,498	-0,094	0,077
-303,051	599,788	-0,073	0,131
-302,037	699,223	0,055	-0,106
-301,022	-38,615	-0,065	-0,025
-300,008	-20,865	0,049	0,022
-298,993	800,000	0,022	0,053
-297,978	-17,008	0,074	0,034
-296,964	-107,665	-0,058	0,009
-295,949	67,845	0,065	-0,048
-294,935	-200,000	0,001	0,057
-293,920	800,000	0,018	0,045
-292,905	602,029	0,030	0,054
-291,891	-143,061	0,199	-0,014
-290,876	175,392	0,074	0,077
-289,862	81,539	-0,101	-0,079
-288,847	143,982	0,143	-0,138
-287,832	800,000	-0,010	-0,023
-286,818	160,589	-0,093	-0,094
-285,803	-200,000	0,016	0,155
-284,789	-200,000	-0,004	0,097
-283,774	130,260	-0,134	0,124
-282,759	-22,487	-0,116	0,050
-281,745	510,232	0,047	-0,078
-280,730	42,459	-0,047	0,031
-279,716	-200,000	0,004	-0,039
-278,701	-71,226	0,063	-0,017
-277,686	63,539	0,055	-0,039
-276,672	-10,747	0,048	-0,023
-275,657	258,957	0,006	0,008
-274,643	-82,336	-0,105	-0,024
-273,628	-200,000	0,007	0,084
-272,613	-112,099	0,098	-0,014
-271,599	-200,000	-0,001	0,089
-270,584	59,374	-0,044	0,031
-269,570	-52,708	0,136	0,045
-268,555	372,046	-0,031	0,046
-267,540	422,488	0,018	-0,028
-266,526	-200,000	0,022	0,070
-265,511	-200,000	0,038	-0,131
-264,497	800,000	0,076	-0,181
-263,482	800,000	0,030	0,065
-262,467	118,128	-0,016	0,014
-261,453	126,490	-0,057	0,052
-260,438	800,000	0,068	-0,167
-259,424	142,804	-0,101	0,097
-258,409	-26,751	0,148	0,062
-257,395	800,000	0,020	-0,042
-256,380	-47,399	0,136	0,047
-255,365	800,000	-0,020	0,052
-254,351	-104,105	0,175	0,029
-253,336	-200,000	-0,008	-0,068
-252,322	337,358	-0,064	-0,090
-251,307	-35,700	0,120	0,047
-250,292	-192,760	0,030	-0,000
-249,278	156,399	-0,022	0,022
-248,263	-115,640	0,137	0,018
-247,249	-200,000	0,002	-0,028
-246,234	-197,610	-0,145	-0,001
-245,219	-30,369	-0,143	-0,058
-244,205	-28,106	0,070	-0,029
-243,190	178,917	-0,059	-0,062
-242,176	114,318	0,108	-0,095
-241,161	27,013	0,056	0,034
-240,146	117,104	-0,077	0,069
-239,132	-93,407	0,039	-0,008
-238,117	-200,000	0,006	-0,069
-237,103	-200,000	-0,032	-0,115
-236,088	-135,755	-0,085	0,007
-235,073	-85,082	0,086	0,019
-234,059	-74,246	-0,182	-0,047
-233,044	-129,084	-0,068	-0,007
-232,030	515,020	-0,004	0,007
-231,015	800,000	0,016	0,040
-230,000	368,340	0,071	-0,103
-228,986	-200,000	-0,003	-0,065
-227,971	-137,958	0,079	0,006
-226,957	-156,206	-0,067	0,003
-225,942	-200,000	0,008	0,111
-224,927	800,000	0,055	0,133
-223,913	-99,501	-0,159	-0,028
-222,898	552,515	0,084	0,146
-221,884	-200,000	0,001	-0,055
-220,869	-200,000	-0,023	-0,078
-219,855	-74,224	0,089	0,023
-218,840	-200,000	-0,036	0,269
-217,825	222,391	-0,041	-0,048
-216,811	-111,909	-0,067	0,010
-215,796	800,000	0,071	0,157
-214,782	-115,493	-0,057	-0,008
-213,767	148,939	-0,037	0,036
-212,752	51,742	-0,037	0,025
-211,738	-88,527	0,038	0,008
-210,723	522,864	-0,022	0,037
-209,709	-200,000	0,086	0,000
-208,694	800,000	-0,017	0,037
-207,679	241,648	-0,097	-0,117
-206,665	-200,000	-0,005	0,130
-205,650	-133,901	0,061	0,005
-204,636	800,000	0,025	0,064
-203,621	-182,194	-0,154	-0,002
-202,606	32,594	-0,048	0,030
-201,592	160,585	0,056	0,056
-200,577	440,614	-0,014	0,023
-199,563	-1,891	0,036	0,018
-198,548	58,983	0,107	0,076
-197,533	-200,000	-0,071	-0,000
-196,519	-47,000	0,067	-0,024
-195,504	-50,804	-0,234	0,079
-194,490	461,875	0,140	-0,226
-193,475	-153,308	-0,050	-0,002
-192,460	-80,203	0,104	-0,025
-191,446	442,951	-0,046	-0,073
-190,431	-200,000	-0,016	0,100
-189,417	-120,583	-0,111	-0,013
-188,402	121,627	0,013	0,012
-187,387	518,158	0,067	-0,113
-186,373	800,000	-0,036	-0,107
-185,358	800,000	0,039	0,083
-184,344	800,000	0,031	0,096
-183,329	350,950	0,031	0,044
-182,315	191,866	0,084	0,091
-181,300	-199,553	-0,024	0,000
-180,285	91,194	0,086	0,070
-179,271	-173,957	-0,032	0,001
-178,256	-3,353	0,073	-0,036
-177,242	-200,000	0,009	-0,215
-176,227	-43,028	0,070	0,026
-175,212	122,237	0,122	0,109
-174,198	321,432	-0,011	0,015
-173,183	206,389	-0,074	-0,083
-172,169	-160,636	0,045	0,002
-171,154	276,689	0,044	-0,056
-170,139	586,226	0,035	-0,063
-169,125	344,602	0,063	-0,089
-168,110	0,629	0,136	-0,070
-167,096	-142,663	-0,021	0,001
-166,081	-48,043	0,063	-0,022
-165,066	-48,204	-0,048	0,017
-164,052	-200,000	-0,027	-0,101
-163,037	-200,000	-0,003	0,062
-162,023	-8,949	-0,054	0,026
-161,008	34,891	0,045	0,028
-159,993	800,000	0,018	0,038
-158,979	-115,196	-0,051	-0,007
-157,964	46,197	-0,045	-0,030
-156,950	-200,000	-0,013	-0,076
-155,935	-200,000	-0,015	0,135
-154,920	-146,479	0,137	0,008
-153,906	-200,000	0,009	0,071
-152,891	14,749	0,121	-0,068
-151,877	-200,000	-0,002	-0,076
-150,862	210,868	-0,089	-0,100
-149,847	800,000	-0,042	0,098
-148,833	520,950	0,134	0,228
-147,818	373,422	0,113	0,166
-146,804	15,583	0,030	0,017
-145,789	-200,000	0,014	0,050
-144,775	-106,383	-0,131	0,021
-143,760	-55,129	-0,063	-0,020
-142,745	-200,000	-0,038	-0,144
-141,731	272,918	-0,024	0,030
-140,716	800,000	0,024	0,048
-139,702	125,210	-0,036	0,033
-138,687	-51,681	0,155	0,052
-137,672	269,007	0,051	0,064
-136,658	58,503	-0,094	-0,066
-135,643	800,000	-0,017	0,053
-134,629	800,000	-0,032	-0,098
-133,614	705,512	0,056	0,107
-132,599	-124,706	0,078	0,009
-131,585	-114,224	0,072	0,010
-130,570	-106,977	-0,140	0,022
-129,556	-74,573	0,121	-0,031
-128,541	-10,491	-0,052	-0,025
-127,526	203,506	0,094	-0,104
-126,512	-53,431	0,083	-0,027
-125,497	486,125	0,024	-0,040
-124,483	-200,000	0,009	0,113
-123,468	288,136	-0,046	0,060
-122,453	-10,516	-0,112	0,053
-121,439	186,227	0,093	0,100
-120,424	-120,863	0,072	0,009
-119,410	-200,000	-0,021	0,075
-118,395	-200,000	-0,017	0,110
-117,380	-34,617	0,118	0,046
-116,366	-85,911	-0,029	-0,006
-115,351	10,939	-0,110	0,060
-114,337	-21,670	0,199	0,086
-113,322	-200,000	-0,028	-0,093
-112,307	-54,851	0,097	-0,031
-111,293	-200,000	-0,008	0,090
-110,278	800,000	-0,039	0,084
-109,264	73,408	-0,086	-0,064
-108,249	302,036	-0,054	-0,072
-107,234	-56,284	0,055	0,018
-106,220	-84,557	0,092	0,021
-105,205	800,000	-0,057	-0,180
-104,191	-89,572	0,046	-0,010
-103,176	-200,000	-0,008	-0,050
-102,162	-107,801	0,037	-0,006
-101,147	800,000	0,024	0,059
-100,132	-200,000	0,003	0,021
-99,118	511,376	-0,076	-0,128
-98,103	-181,982	0,063	-0,001
-97,089	69,590	-0,081	-0,060
-96,074	315,444	0,111	0,151
-95,059	800,000	0,018	-0,041
-94,045	-200,000	0,005	0,088
-93,030	36,701	0,052	0,033
-92,016	-1,840	0,140	-0,070
-91,001	-200,000	-0,001	-0,095
-89,986	70,089	0,077	-0,057
-88,972	-22,811	-0,026	0,011
-87,957	590,436	0,049	-0,087
-86,943	-172,508	-0,139	0,003
-85,928	-200,000	0,021	-0,111
-84,913	-200,000	-0,020	-0,071
-83,899	39,874	-0,054	-0,035
-82,884	-167,414	0,040	-0,001
-81,870	52,370	0,087	0,060
-80,855	-200,000	-0,017	-0,183
-79,840	-200,000	-0,001	-0,006
-78,826	-103,647	-0,048	-0,008
-77,811	512,933	-0,040	-0,067
-76,797	-104,271	-0,035	0,006
-75,782	-117,494	0,117	0,015
-74,767	-200,000	0,005	0,065
-73,753	176,576	0,083	-0,086
-72,738	74,922	-0,082	-0,062
-71,724	-200,000	0,008	-0,038
-70,709	-200,000	-0,018	-0,098
-69,694	300,440	-0,059	-0,078
-68,680	66,728	-0,125	0,091
-67,665	-153,140	0,140	0,007
-66,651	187,073	0,065	-0,070
-65,636	478,713	0,030	0,049
-64,622	135,656	0,061	-0,057
-63,607	-158,129	-0,079	0,003
-62,592	800,000	0,047	-0,132
-61,578	387,751	0,023	0,035
-60,563	-200,000	0,005	0,063
-59,549	-200,000	-0,001	0,032
-58,534	30,516	-2,208	-1,349
-57,519	-200,000	0,022	-0,682
-56,505	-200,000	-1,471	-5,133
-55,490	62,183	0,994	0,709
-54,476	800,000	5,425	12,036
-53,461	-200,000	18,936	319,136
-52,446	800,000	741,591	2323,332
-51,432	549,079	1654,990	2850,718
-50,417	109,946	1637,596	1406,408
-49,403	73,568	1288,168	964,905
-48,388	29,673	1029,650	625,961
-47,373	19,631	992,693	570,298
-46,359	16,989	980,316	554,489
-45,344	13,686	976,352	541,393
-44,330	13,979	974,805	541,474
-43,315	13,344	972,927	538,329
-42,300	13,215	971,971	537,359
-41,286	13,216	970,929	536,764
-40,271	13,201	970,166	536,271
-39,257	13,304	969,141	536,019
-38,242	13,301	968,282	535,515
-37,227	13,233	967,425	534,797
-36,213	13,267	966,425	534,333
-35,198	13,213	965,594	533,678
-34,184	13,294	964,997	533,590
-33,169	13,259	963,989	532,897
-32,154	13,305	962,942	532,448
-31,140	13,344	962,064	532,066
-30,125	13,346	961,292	531,624
-29,111	13,281	960,594	531,008
-28,096	13,267	960,094	530,665
-27,082	13,264	959,251	530,169
-26,067	13,352	958,379	529,949
-25,052	13,313	957,453	529,291
-24,038	13,305	957,091	529,043
-23,023	13,246	956,442	528,474
-22,009	13,313	955,937	528,389
-20,994	13,301	955,221	527,933
-19,979	13,300	954,611	527,573
-18,965	13,300	953,972	527,199
-17,950	13,290	953,312	526,782
-16,936	13,224	952,734	526,229
-15,921	13,225	951,961	525,783
-14,906	13,232	951,123	525,325
-13,892	13,177	950,684	524,883
-12,877	13,210	949,853	524,510
-11,863	13,142	949,439	524,042
-10,848	13,194	948,742	523,804
-9,833	13,311	948,216	523,866
-8,819	13,262	947,691	523,398
-7,804	13,222	947,054	522,899
-6,790	13,225	946,471	522,564
-5,775	13,150	946,142	522,126
-4,760	13,206	945,243	521,785
-3,746	13,230	944,610	521,492
-2,731	13,060	943,847	520,509
-1,717	13,001	943,218	519,955
-0,702	13,041	942,506	519,669
0,313	12,797	941,961	519,380
1,327	16,313	939,625	529,148
2,342	25,536	790,203	469,298
3,356	21,573	444,591	258,150
4,371	-7,717	297,748	143,400
5,386	-11,509	279,569	131,013
6,400	-12,988	273,805	126,916
7,415	-13,012	271,542	125,834
8,429	-12,962	269,995	125,152
9,444	-13,167	269,090	124,533
10,459	-13,034	268,421	124,334
11,473	-13,272	267,850	123,842
12,488	-13,287	267,355	123,587
13,502	-13,355	266,704	123,213
14,517	-13,437	266,299	122,941
15,531	-13,427	265,872	122,742
16,546	-13,247	265,465	122,706
17,561	-13,337	265,031	122,413
18,575	-13,055	264,727	122,517
19,590	-13,267	264,509	122,214
20,604	-13,158	264,090	122,108
21,619	-13,445	263,803	121,705
22,634	-13,342	263,455	121,627
23,648	-13,230	262,994	121,504
24,663	-13,432	262,913	121,274
25,677	-13,308	262,520	121,193
26,692	-13,402	262,388	121,037
27,707	-13,240	262,065	121,022
28,721	-13,352	261,835	120,805
29,736	-13,428	261,491	120,567
30,750	-13,556	261,210	120,313
31,765	-13,543	260,987	120,212
32,780	-13,387	260,769	120,239
33,794	-13,415	260,515	120,086
34,809	-13,461	260,223	119,900
35,823	-13,340	259,853	119,826
36,838	-13,503	259,789	119,641
37,853	-13,574	259,529	119,448
38,867	-13,575	259,299	119,331
39,882	-13,619	259,159	119,217
40,896	-13,596	258,870	119,093
41,911	-13,411	258,530	119,089
42,926	-13,402	258,270	118,968
43,940	-13,426	258,114	118,864
44,955	-13,620	257,926	118,596
45,969	-13,585	257,579	118,457
46,984	-13,776	257,287	118,144
47,999	-14,072	256,994	117,740
49,013	-14,469	257,090	117,426
50,028	-14,119	256,467	117,437
51,042	-14,276	256,277	117,202
52,057	-14,266	255,950	117,051
53,071	-14,262	255,933	117,036
54,086	-14,178	255,697	116,991
55,101	-14,065	255,705	117,082
56,115	-13,760	255,260	117,134
57,130	-13,363	255,403	117,533
58,144	-13,089	255,061	117,604
59,159	-12,989	254,891	117,601
60,174	-13,277	254,689	117,248
61,188	-13,154	254,401	117,211
62,203	-13,275	254,257	117,031
63,217	-13,490	254,129	116,775
64,232	-13,323	253,704	116,713
65,247	-13,366	253,545	116,592
66,261	-13,256	253,323	116,575
67,276	-13,560	253,068	116,185
68,290	-13,850	252,807	115,806
69,305	-13,951	252,588	115,608
70,320	-13,765	252,328	115,639
71,334	-13,586	252,248	115,745
72,349	-13,339	251,941	115,805
73,363	-13,267	251,884	115,831
74,378	-13,347	251,621	115,632
75,393	-13,322	251,473	115,574
76,407	-13,421	251,216	115,361
77,422	-13,543	251,038	115,165
78,436	-13,350	250,832	115,225
79,451	-13,401	250,674	115,099
80,466	-13,334	250,226	114,940
81,480	-13,431	249,948	114,720
82,495	-13,632	249,853	114,495
83,509	-13,518	249,638	114,483
84,524	-13,662	249,500	114,288
85,539	-13,771	249,172	114,035
86,553	-13,904	249,090	113,875
87,568	-13,578	248,793	114,004
88,582	-13,692	248,716	113,862
89,597	-13,657	248,528	113,796
90,611	-13,532	248,292	113,783
91,626	-13,393	248,176	113,837
92,641	-13,475	248,007	113,680
93,655	-13,554	247,843	113,528
94,670	-13,707	247,699	113,324
95,684	-13,691	247,468	113,221
96,699	-13,582	247,248	113,202
97,714	-13,617	246,948	113,025
98,728	-13,803	246,852	112,816
99,743	-13,968	246,510	112,511
100,757	-13,685	246,246	112,617
101,772	-13,921	246,238	112,406
102,787	-13,727	245,979	112,439
103,801	-13,450	245,800	112,578
104,816	-13,522	245,787	112,503
105,830	-13,486	245,545	112,412
106,845	-13,362	245,469	112,470
107,860	-13,142	245,102	112,475
108,874	-13,508	244,921	112,078
109,889	-13,566	244,810	111,968
110,903	-13,544	244,550	111,858
111,918	-13,664	244,441	111,699
112,933	-13,648	244,322	111,648
113,947	-13,604	244,214	111,625
114,962	-13,410	243,756	111,566
115,976	-13,292	243,648	111,604
116,991	-13,526	243,601	111,380
118,006	-13,349	243,183	111,324
119,020	-13,484	243,277	111,246
120,035	-13,646	243,116	111,029
121,049	-13,249	242,825	111,213
122,064	-13,287	242,682	111,106
123,079	-13,445	242,496	110,882
124,093	-13,444	242,139	110,708
125,108	-13,849	242,121	110,359
126,122	-13,894	241,763	110,149
127,137	-13,933	241,487	109,982
128,151	-13,890	241,464	109,997
129,166	-13,756	241,152	109,954
130,181	-13,762	240,995	109,868
131,195	-13,768	240,872	109,797
132,210	-13,652	240,706	109,806
133,224	-13,608	240,432	109,707
134,239	-13,378	240,359	109,851
135,254	-13,637	240,406	109,652
136,268	-13,459	239,787	109,504
137,283	-13,887	239,694	109,105
138,297	-13,879	239,534	109,029
139,312	-13,869	239,164	108,859
140,327	-13,611	239,190	109,069
141,341	-13,251	239,183	109,347
142,356	-13,046	239,005	109,422
143,370	-13,193	238,971	109,278
144,385	-13,157	238,743	109,193
145,400	-13,185	238,519	109,058
146,414	-13,214	238,360	108,952
147,429	-13,057	238,033	108,919
148,443	-13,191	238,011	108,792
149,458	-13,194	237,841	108,703
150,473	-13,072	237,526	108,647
151,487	-13,501	237,396	108,233
152,502	-13,274	237,194	108,313
153,516	-13,163	237,121	108,359
154,531	-13,091	236,811	108,266
155,546	-13,268	236,762	108,092
156,560	-13,264	236,545	107,987
157,575	-13,358	236,231	107,758
158,589	-13,491	236,266	107,659
159,604	-13,046	235,911	107,842
160,619	-12,886	235,877	107,943
161,633	-12,877	235,761	107,888
162,648	-12,834	235,553	107,818
163,662	-13,283	235,556	107,453
164,677	-13,285	235,315	107,332
165,692	-13,506	235,242	107,114
166,706	-13,118	234,927	107,267
167,721	-12,853	234,795	107,407
168,735	-12,829	234,769	107,405
169,750	-13,192	234,614	107,038
170,764	-13,212	234,390	106,910
171,779	-13,242	234,338	106,853
172,794	-13,042	234,087	106,887
173,808	-13,281	233,769	106,544
174,823	-13,761	233,470	106,021
175,837	-14,049	233,284	105,700
176,852	-13,439	233,418	106,231
177,867	-13,079	233,265	106,435
178,881	-13,133	232,978	106,252
179,896	-13,016	232,920	106,308
180,910	-12,963	232,863	106,314
181,925	-12,879	232,544	106,225
182,940	-12,996	232,458	106,085
183,954	-13,129	232,436	105,961
184,969	-12,959	232,251	106,000
185,983	-12,907	231,912	105,877
186,998	-13,010	231,786	105,729
188,013	-12,903	231,692	105,761
189,027	-12,919	231,547	105,672
190,042	-13,161	231,340	105,380
191,056	-13,066	231,296	105,424
192,071	-12,781	231,011	105,507
193,086	-13,007	230,973	105,304
194,100	-13,018	230,826	105,220
195,115	-13,232	230,222	104,769
196,129	-13,650	230,490	104,557
197,144	-7,830	232,061	109,797
198,159	-2,593	233,829	114,727
199,173	1,760	235,003	118,711
200,188	2,762	235,137	119,553
201,202	2,650	235,005	119,389
202,217	2,838	234,809	119,425
203,232	2,896	234,720	119,415
204,246	2,904	234,624	119,362
205,261	2,787	234,534	119,214
206,275	3,225	234,328	119,440
207,290	2,966	234,241	119,183
208,304	3,241	233,906	119,216
209,319	3,032	233,861	119,020
210,334	2,981	233,606	118,840
211,348	2,869	233,347	118,610
212,363	2,407	233,280	118,207
213,377	2,386	232,818	117,946
214,392	2,264	232,800	117,832
215,407	2,443	232,586	117,851
216,421	2,347	232,557	117,752
217,436	2,427	232,367	117,707
218,450	2,149	232,125	117,359
219,465	2,247	231,920	117,321
220,480	2,044	231,932	117,160
221,494	2,242	231,720	117,195
222,509	2,377	231,686	117,271
223,523	2,507	231,477	117,255
224,538	2,297	231,258	116,973
225,553	2,407	231,080	116,956
226,567	2,219	231,050	116,787
227,582	2,505	230,937	116,938
228,596	2,544	230,868	116,923
229,611	2,532	230,615	116,775
230,626	2,277	230,203	116,361
231,640	2,187	230,275	116,318
232,655	2,561	230,117	116,514
233,669	2,719	229,982	116,556
234,684	2,690	230,096	116,581
235,699	2,849	229,810	116,548
236,713	2,333	229,608	116,041
237,728	2,366	229,315	115,908
238,742	2,224	229,194	115,728
239,757	2,385	229,028	115,756
240,772	2,220	228,811	115,511
241,786	2,395	228,631	115,543
242,801	2,492	228,688	115,635
243,815	2,939	228,545	115,891
244,830	2,914	228,307	115,742
245,844	2,517	228,077	115,314
246,859	2,492	228,111	115,302
247,874	2,632	227,935	115,309
248,888	2,655	227,700	115,196
249,903	2,506	227,598	115,023
250,917	2,457	227,470	114,910
251,932	2,413	227,359	114,811
252,947	2,256	227,007	114,505
253,961	2,203	226,893	114,397
254,976	2,358	226,671	114,391
255,990	2,627	226,632	114,564
257,005	2,518	226,588	114,450
258,020	2,414	226,549	114,341
259,034	2,553	226,315	114,317
260,049	2,601	226,168	114,269
261,063	2,466	226,019	114,083
262,078	2,824	225,885	114,273
263,093	2,943	225,741	114,278
264,107	2,647	225,597	113,975
265,122	2,748	225,462	113,971
266,136	2,820	225,417	113,993
267,151	2,741	225,173	113,800
268,166	2,336	224,936	113,368
269,180	2,152	224,614	113,058
270,195	2,472	224,532	113,245
271,209	2,299	224,514	113,097
272,224	2,337	224,378	113,047
273,239	2,498	224,257	113,096
274,253	2,437	224,057	112,939
275,268	2,374	223,660	112,683
276,282	2,152	223,636	112,496
277,297	2,056	223,420	112,306
278,312	2,350	223,485	112,546
279,326	2,454	223,340	112,540
280,341	2,556	223,191	112,530
281,355	2,501	222,999	112,383
282,370	2,412	222,983	112,300
283,384	2,338	222,748	112,116
284,399	1,893	222,601	111,705
285,414	2,124	222,482	111,805
286,428	2,516	222,360	112,022
287,443	2,370	222,438	111,944
288,457	2,313	222,259	111,802
289,472	1,983	221,954	111,396
290,487	1,974	221,842	111,324
291,501	1,814	221,684	111,117
292,516	1,942	221,319	111,017
293,530	2,003	221,289	111,037
294,545	2,107	221,030	110,974
295,560	2,140	221,166	111,056
296,574	2,496	220,863	111,154
297,589	2,506	220,604	111,021
298,603	2,464	220,571	110,963
299,618	2,360	220,441	110,813
300,633	2,500	220,491	110,930
301,647	2,788	220,398	111,083
302,662	2,683	220,162	110,878
303,676	2,429	220,051	110,628
304,691	2,528	219,946	110,637
305,706	2,708	219,782	110,675
306,720	2,552	219,720	110,521
307,735	2,314	219,275	110,115
308,749	2,398	219,350	110,204
309,764	2,577	219,105	110,200
310,779	2,745	218,942	110,230
311,793	2,678	218,774	110,087
312,808	2,635	218,645	109,981
313,822	2,369	218,656	109,785
314,837	2,437	218,293	109,642
315,852	2,258	218,257	109,485
316,866	2,526	218,030	109,554
317,881	2,677	217,833	109,554
318,895	2,575	217,907	109,508
319,910	2,091	217,609	109,002
320,925	1,967	217,399	108,797
321,939	1,603	217,198	108,426
322,954	1,893	217,123	108,586
323,968	2,464	217,202	109,026
324,983	2,589	217,102	109,055
325,997	2,652	216,948	109,013
327,012	2,454	216,705	108,740
328,027	2,671	216,568	108,816
329,041	2,803	216,669	108,952
330,056	2,551	216,517	108,686
331,070	2,415	216,195	108,418
332,085	2,262	215,936	108,169
333,100	2,483	215,935	108,316
334,114	2,463	215,783	108,216
335,129	2,425	215,736	108,156
336,143	2,310	215,383	107,888
337,158	2,335	215,286	107,847
338,173	2,527	215,073	107,867
339,187	2,045	215,086	107,522
340,202	2,335	214,873	107,611
341,216	2,584	214,771	107,727
342,231	2,627	214,742	107,733
343,246	2,535	214,512	107,543
344,260	2,380	214,505	107,421
345,275	2,677	214,458	107,597
346,289	2,713	214,233	107,500
347,304	2,697	214,028	107,376
348,319	2,573	213,945	107,238
349,333	2,520	213,719	107,077
350,348	2,375	213,721	106,967
351,362	2,491	213,577	106,967
352,377	2,584	213,401	106,934
353,392	2,572	213,257	106,845
354,406	2,501	213,177	106,745
355,421	197,788	1312,581	1392,620
356,435	158,273	1446,474	1392,561
