DTS Sentinel unit serial number:	SN410029Multiplexer serial number:	ORYXHardware model number:	OX2-SRSoftware version number:	ORYX F/W v4,00 Oryx Data Collector v3.7.2.0data status	okinstallation	B6 Nyhavnadifferential loss correction	single-endedforward channel	channel 2reverse channel	N/Adate	2023/12/10time	00:55:08forward acquisition time	300,00reverse acquisition time	0,00gamma	499,1914k internal	0,3126k external	0,3126temperature offset calibration	1,0000default loss term (dB/km)	0,3820temperature slope calibration	1,0000multiplexer offset coefficient	1,0000multiplexer slope coefficient	1,0000fibre end	0,00T internal ref (°C)	21,88T ext. ref 1 (°C)	5,68T ext. ref 2 (°C)	5,67length (m)	temperature (°C)	Stokes	anti-Stokes-744,400	-200,000	0,020	-0,067
-743,385	-131,417	-0,314	0,030
-742,371	-19,123	0,033	-0,015
-741,356	112,107	-0,135	0,121
-740,342	-73,324	0,134	0,036
-739,327	31,676	-0,272	0,174
-738,312	800,000	0,022	0,070
-737,298	-23,629	-0,118	0,053
-736,283	-76,135	0,058	0,015
-735,269	-7,135	-0,238	0,120
-734,254	-200,000	0,016	0,061
-733,239	-93,248	-0,434	-0,089
-732,225	12,393	0,064	-0,037
-731,210	-25,067	-0,043	0,019
-730,196	-63,739	-0,115	0,035
-729,181	-144,414	0,040	0,003
-728,167	-200,000	-0,017	-0,083
-727,152	215,552	-0,033	0,039
-726,137	-0,235	-0,070	0,037
-725,123	-200,000	0,004	0,057
-724,108	800,000	-0,031	0,088
-723,094	-78,774	-0,160	-0,040
-722,079	362,412	0,039	0,058
-721,064	-200,000	-0,034	-0,153
-720,050	78,099	0,037	-0,029
-719,035	171,095	-0,126	-0,135
-718,021	-52,889	0,071	0,024
-717,006	59,050	-0,249	-0,182
-715,991	612,668	-0,084	-0,157
-714,977	-2,104	0,191	-0,099
-713,962	192,671	-0,034	-0,038
-712,948	800,000	0,002	-0,004
-711,933	800,000	-0,039	0,123
-710,918	-28,517	-0,032	0,014
-709,904	6,101	-0,155	-0,085
-708,889	-129,920	-0,173	-0,017
-707,875	-63,337	-0,141	-0,043
-706,860	70,827	-0,059	-0,046
-705,845	43,595	0,036	0,025
-704,831	54,359	-0,096	-0,069
-703,816	-29,757	-0,115	0,048
-702,802	46,568	0,062	-0,042
-701,787	-200,000	-0,001	-0,029
-700,772	-54,214	0,074	-0,025
-699,758	104,203	-0,052	-0,045
-698,743	-138,460	0,069	0,006
-697,729	-200,000	0,016	0,090
-696,714	-1,144	-0,100	-0,053
-695,699	163,500	0,063	-0,066
-694,685	-159,205	-0,157	-0,006
-693,670	800,000	0,042	-0,131
-692,656	-13,306	0,052	-0,025
-691,641	-23,547	0,155	0,069
-690,627	294,892	0,059	0,081
-689,612	68,665	0,088	-0,067
-688,597	289,376	0,060	-0,081
-687,583	-47,039	-0,215	-0,078
-686,568	800,000	-0,036	-0,108
-685,554	-118,127	0,057	0,007
-684,539	800,000	0,026	-0,066
-683,524	-9,709	-0,113	-0,056
-682,510	-137,877	0,078	0,006
-681,495	10,771	-0,051	0,029
-680,481	107,952	-0,062	-0,054
-679,466	326,099	-0,045	-0,064
-678,451	-200,000	0,001	-0,174
-677,437	340,239	0,085	-0,124
-676,422	323,276	0,083	0,118
-675,408	-200,000	-0,001	-0,016
-674,393	-94,573	-0,110	0,022
-673,378	-200,000	-0,022	-0,121
-672,364	147,815	-0,141	0,141
-671,349	705,175	-0,015	-0,029
-670,335	65,097	0,068	0,051
-669,320	-105,354	-0,082	0,014
-668,305	324,253	0,046	-0,065
-667,291	83,958	0,024	-0,019
-666,276	-97,047	-0,162	-0,031
-665,262	-200,000	0,017	-0,100
-664,247	311,991	0,023	0,032
-663,232	800,000	0,018	0,057
-662,218	-200,000	0,015	0,228
-661,203	-107,697	0,062	0,010
-660,189	403,510	-0,058	0,091
-659,174	207,902	-0,031	0,036
-658,159	-200,000	0,012	-0,143
-657,145	-60,547	0,048	-0,015
-656,130	-200,000	-0,001	0,127
-655,116	11,763	0,097	0,055
-654,101	-200,000	-0,006	0,118
-653,086	411,600	-0,042	0,066
-652,072	-200,000	-0,029	-0,120
-651,057	101,078	-0,046	-0,040
-650,043	-200,000	-0,014	-0,057
-649,028	635,126	-0,103	-0,195
-648,014	281,595	0,167	-0,222
-646,999	-4,767	0,045	0,023
-645,984	268,892	-0,075	-0,097
-644,970	304,855	-0,049	-0,068
-643,955	-200,000	0,003	-0,025
-642,941	560,092	-0,074	0,134
-641,926	388,141	-0,025	-0,038
-640,911	393,926	-0,027	0,042
-639,897	-200,000	0,027	0,191
-638,882	-26,950	-0,072	0,031
-637,868	-200,000	-0,010	0,101
-636,853	143,689	-0,048	0,048
-635,838	217,103	-0,085	-0,100
-634,824	-20,514	0,094	-0,043
-633,809	-69,002	-0,031	0,009
-632,795	800,000	0,051	0,110
-631,780	-111,675	-0,137	-0,020
-630,765	12,749	-0,007	0,004
-629,751	-71,640	-0,152	-0,042
-628,736	139,185	-0,084	0,082
-627,722	364,745	0,065	0,097
-626,707	800,000	0,023	-0,062
-625,692	289,528	-0,023	-0,032
-624,678	-91,349	0,033	0,007
-623,663	146,289	-0,042	0,042
-622,649	-200,000	-0,010	-0,047
-621,634	-143,965	-0,059	-0,004
-620,619	800,000	-0,072	-0,177
-619,605	-26,574	0,150	0,065
-618,590	-23,706	-0,146	0,065
-617,576	-168,316	-0,114	-0,003
-616,561	-117,490	0,021	-0,003
-615,546	-200,000	0,010	-0,088
-614,532	-180,390	-0,064	-0,001
-613,517	-28,014	0,105	0,045
-612,503	161,881	-0,028	-0,029
-611,488	111,848	0,108	0,097
-610,474	800,000	-0,073	0,189
-609,459	-103,604	-0,019	-0,003
-608,444	-14,064	-0,103	-0,049
-607,430	800,000	0,030	0,093
-606,415	-32,863	-0,050	-0,021
-605,401	800,000	0,083	-0,219
-604,386	131,452	0,072	0,069
-603,371	800,000	-0,026	0,074
-602,357	-45,591	-0,168	0,061
-601,342	-98,617	-0,030	-0,006
-600,328	-158,624	-0,140	0,006
-599,313	-200,000	-0,057	-0,198
-598,298	-200,000	0,007	-0,105
-597,284	-125,701	0,047	0,005
-596,269	-67,295	0,077	0,022
-595,255	800,000	0,014	-0,037
-594,240	144,437	-0,052	-0,051
-593,225	95,955	-0,127	-0,108
-592,211	-200,000	0,008	-0,111
-591,196	-200,000	-0,026	0,101
-590,182	289,844	0,058	0,078
-589,167	273,260	-0,065	0,085
-588,152	165,190	-0,072	0,075
-587,138	-200,000	0,030	0,109
-586,123	193,495	-0,085	0,096
-585,109	-200,000	0,008	0,092
-584,094	-150,639	-0,060	0,003
-583,079	-200,000	-0,002	-0,053
-582,065	-81,253	-0,104	-0,025
-581,050	273,899	0,034	0,045
-580,036	-91,465	-0,042	0,009
-579,021	27,295	-0,082	0,051
-578,006	800,000	-0,079	0,165
-576,992	800,000	0,082	0,176
-575,977	433,034	0,058	-0,093
-574,963	271,703	0,028	-0,037
-573,948	-200,000	-0,028	-0,151
-572,934	339,203	-0,082	-0,119
-571,919	-65,789	-0,116	0,034
-570,904	-53,584	-0,084	-0,028
-569,890	233,383	0,011	0,014
-568,875	-200,000	-0,022	-0,125
-567,861	800,000	0,014	0,032
-566,846	169,816	-0,069	0,073
-565,831	800,000	-0,033	-0,081
-564,817	-39,965	-0,118	-0,045
-563,802	-38,724	-0,112	0,044
-562,788	67,782	-0,128	-0,097
-561,773	-200,000	-0,000	-0,029
-560,758	-200,000	-0,021	0,143
-559,744	-127,675	0,111	-0,012
-558,729	120,352	-0,073	-0,067
-557,715	113,218	-0,077	-0,069
-556,700	-200,000	-0,018	-0,084
-555,685	-79,021	-0,045	0,011
-554,671	-43,727	0,122	-0,045
-553,656	-88,678	-0,059	-0,013
-552,642	-129,055	0,058	-0,006
-551,627	503,176	0,002	-0,003
-550,612	263,635	0,027	0,035
-549,598	800,000	-0,072	-0,174
-548,583	192,239	0,064	0,072
-547,569	272,695	0,059	0,077
-546,554	41,803	0,074	0,049
-545,539	523,809	-0,033	-0,057
-544,525	-94,913	-0,128	0,025
-543,510	22,262	-0,090	0,054
-542,496	28,149	0,143	0,089
-541,481	284,902	-0,074	0,099
-540,466	-75,122	0,054	0,014
-539,452	140,075	-0,068	0,067
-538,437	724,508	-0,019	0,037
-537,423	400,614	0,011	0,018
-536,408	535,535	-0,097	0,171
-535,393	54,190	0,082	0,058
-534,379	339,006	0,017	-0,024
-533,364	-131,168	-0,129	-0,013
-532,350	-103,316	0,027	-0,005
-531,335	-200,000	-0,008	0,095
-530,321	193,536	-0,022	0,025
-529,306	75,825	0,105	-0,082
-528,291	40,171	-0,133	-0,088
-527,277	-93,095	0,065	0,013
-526,262	200,990	0,089	-0,101
-525,248	-115,276	-0,120	-0,017
-524,233	-200,000	0,032	0,111
-523,218	800,000	-0,064	0,177
-522,204	41,980	-0,047	-0,032
-521,189	-81,608	-0,129	0,031
-520,175	-95,626	-0,147	0,029
-519,160	-156,585	-0,103	-0,005
-518,145	97,031	0,038	-0,032
-517,131	239,115	0,066	0,082
-516,116	-200,000	0,027	0,100
-515,102	-200,000	-0,013	0,126
-514,087	-89,156	-0,123	0,026
-513,072	-200,000	0,000	-0,048
-512,058	47,881	-0,058	-0,040
-511,043	-200,000	0,031	0,158
-510,029	-200,000	0,005	0,084
-509,014	-74,308	-0,141	-0,037
-507,999	800,000	0,013	0,032
-506,985	-106,321	-0,106	0,017
-505,970	-79,558	0,053	0,013
-504,956	-200,000	-0,010	-0,146
-503,941	-128,253	-0,035	0,004
-502,926	-50,708	0,141	-0,049
-501,912	205,345	0,096	0,110
-500,897	203,416	-0,039	-0,045
-499,883	-200,000	0,052	-0,192
-498,868	10,213	-0,152	-0,085
-497,853	800,000	0,026	0,065
-496,839	75,959	-0,033	-0,026
-495,824	88,242	-0,071	0,058
-494,810	-200,000	0,026	0,092
-493,795	-179,743	-0,058	0,001
-492,781	197,601	-0,058	-0,066
-491,766	422,622	-0,030	-0,048
-490,751	-67,725	0,133	-0,038
-489,737	-71,744	-0,020	-0,006
-488,722	-200,000	0,095	0,000
-487,708	-200,000	0,003	0,043
-486,693	-24,267	0,084	0,037
-485,678	-4,386	0,022	-0,011
-484,664	-53,793	-0,093	-0,031
-483,649	-200,000	0,009	-0,143
-482,635	800,000	0,049	-0,122
-481,620	-175,815	0,047	0,001
-480,605	108,209	0,021	0,019
-479,591	457,260	0,013	0,021
-478,576	245,691	-0,016	-0,020
-477,562	-200,000	-0,004	-0,015
-476,547	800,000	0,036	-0,115
-475,532	93,807	0,032	0,026
-474,518	447,059	0,092	-0,150
-473,503	-73,336	-0,018	0,005
-472,489	327,482	0,076	0,108
-471,474	172,247	-0,063	0,067
-470,459	-200,000	0,005	0,056
-469,445	163,620	0,030	0,031
-468,430	-0,124	0,081	-0,042
-467,416	-115,498	0,066	-0,009
-466,401	-19,805	0,044	-0,020
-465,386	-200,000	0,036	0,127
-464,372	4,550	-0,121	0,065
-463,357	-77,871	0,098	0,025
-462,343	-95,941	0,076	0,015
-461,328	-200,000	-0,001	0,004
-460,313	174,101	0,149	0,159
-459,299	-200,000	0,002	-0,006
-458,284	296,559	-0,062	-0,084
-457,270	800,000	-0,040	0,091
-456,255	-200,000	-0,002	-0,031
-455,241	800,000	-0,080	0,169
-454,226	53,567	-0,056	-0,040
-453,211	-6,960	0,090	-0,045
-452,197	-200,000	-0,003	0,116
-451,182	109,058	0,113	0,099
-450,168	557,164	0,078	0,139
-449,153	-168,457	-0,249	-0,007
-448,138	4,733	-0,101	-0,055
-447,124	800,000	-0,046	-0,110
-446,109	-69,412	-0,087	0,024
-445,095	-159,348	-0,114	-0,005
-444,080	-9,188	0,111	0,055
-443,065	-58,043	0,063	-0,020
-442,051	263,104	-0,064	-0,083
-441,036	800,000	-0,014	0,041
-440,022	-200,000	0,000	-0,087
-439,007	-42,640	0,055	-0,020
-437,992	433,101	0,063	0,101
-436,978	382,858	0,087	0,132
-435,963	130,905	0,068	-0,064
-434,949	-200,000	0,003	-0,050
-433,934	197,619	-0,044	0,049
-432,919	-184,151	-0,105	-0,001
-431,905	-200,000	0,039	-0,193
-430,890	-7,523	-0,025	-0,012
-429,876	-163,512	0,101	0,003
-428,861	-200,000	-0,014	0,140
-427,846	-200,000	0,034	-0,129
-426,832	-176,412	0,085	-0,002
-425,817	12,803	-0,036	-0,021
-424,803	-200,000	-0,001	0,016
-423,788	-200,000	-0,003	-0,022
-422,773	2,599	-0,070	0,037
-421,759	-200,000	0,017	-0,055
-420,744	-200,000	-0,048	-0,161
-419,730	-3,912	0,173	-0,088
-418,715	-131,892	-0,094	0,009
-417,701	434,362	0,032	-0,051
-416,686	-3,630	0,083	-0,042
-415,671	54,808	0,127	-0,090
-414,657	-200,000	0,035	-0,129
-413,642	111,152	0,089	0,078
-412,628	354,188	-0,054	0,080
-411,613	-140,880	-0,074	0,006
-410,598	-43,973	-0,044	-0,016
-409,584	-46,299	0,056	0,020
-408,569	800,000	0,034	0,098
-407,555	800,000	0,055	0,156
-406,540	-126,024	0,097	0,011
-405,525	-200,000	0,012	-0,044
-404,511	-200,000	-0,013	-0,095
-403,496	-74,374	0,107	-0,028
-402,482	-200,000	-0,014	0,071
-401,467	-48,061	0,103	-0,036
-400,452	313,439	0,055	0,076
-399,438	10,985	0,207	0,116
-398,423	85,786	-0,040	-0,032
-397,409	800,000	-0,032	-0,095
-396,394	-200,000	-0,013	0,092
-395,379	91,150	-0,053	0,044
-394,365	113,798	0,092	0,082
-393,350	-44,444	0,165	0,060
-392,336	196,442	0,078	0,087
-391,321	-43,934	-0,090	-0,033
-390,306	655,488	0,041	-0,078
-389,292	10,279	-0,220	-0,123
-388,277	-131,537	-0,087	0,008
-387,263	257,051	0,032	-0,040
-386,248	-102,608	0,108	-0,019
-385,233	-200,000	-0,018	-0,073
-384,219	-200,000	-0,032	-0,132
-383,204	-29,790	-0,076	-0,032
-382,190	405,821	-0,080	-0,124
-381,175	340,979	-0,044	0,063
-380,160	753,434	-0,042	-0,084
-379,146	7,173	0,113	-0,062
-378,131	148,364	-0,075	0,075
-377,117	414,208	-0,026	-0,040
-376,102	-156,190	0,101	-0,005
-375,088	-200,000	-0,009	-0,037
-374,073	-41,503	0,089	-0,034
-373,058	-200,000	-0,049	0,163
-372,044	-166,072	-0,122	-0,004
-371,029	456,613	0,064	0,105
-370,015	-3,693	-0,054	-0,027
-369,000	-139,588	-0,125	0,010
-367,985	-45,272	-0,092	0,033
-366,971	178,226	0,064	-0,069
-365,956	800,000	-0,021	0,061
-364,942	-119,213	0,103	-0,013
-363,927	-200,000	-0,027	-0,132
-362,912	-103,086	0,105	0,018
-361,898	601,217	0,028	0,052
-360,883	-58,539	-0,143	-0,045
-359,869	-98,892	-0,107	0,020
-358,854	547,750	0,073	0,129
-357,839	239,862	0,099	0,121
-356,825	249,342	0,075	-0,094
-355,810	-200,000	-0,001	-0,071
-354,796	126,932	0,043	-0,040
-353,781	-144,739	0,086	-0,006
-352,766	86,321	-0,116	-0,094
-351,752	-28,408	0,107	-0,045
-350,737	61,805	0,054	-0,039
-349,723	87,254	0,046	0,037
-348,708	-200,000	0,016	-0,189
-347,693	744,333	0,019	-0,038
-346,679	83,474	-0,057	-0,045
-345,664	-200,000	-0,020	-0,087
-344,650	-67,710	0,053	0,015
-343,635	154,387	-0,065	0,065
-342,620	15,864	0,087	0,050
-341,606	-6,525	-0,044	-0,022
-340,591	-83,096	-0,072	-0,017
-339,577	800,000	-0,043	-0,105
-338,562	-200,000	-0,007	-0,094
-337,548	800,000	-0,021	0,045
-336,533	360,135	0,054	0,079
-335,518	104,197	0,086	0,075
-334,504	-164,864	0,074	0,002
-333,489	-200,000	0,029	0,114
-332,475	111,547	-0,152	0,134
-331,460	800,000	-0,048	-0,142
-330,445	-200,000	0,032	-0,129
-329,431	-200,000	-0,001	-0,047
-328,416	-200,000	0,007	0,127
-327,402	26,164	0,113	0,069
-326,387	160,472	0,038	0,039
-325,372	27,590	0,035	-0,021
-324,358	75,079	-0,036	0,028
-323,343	-93,678	-0,117	-0,023
-322,329	-200,000	-0,016	0,144
-321,314	-200,000	0,000	0,173
-320,299	-79,231	0,128	0,032
-319,285	476,758	-0,058	0,097
-318,270	-150,865	0,041	-0,002
-317,256	-39,883	-0,135	-0,051
-316,241	800,000	-0,028	-0,067
-315,226	-200,000	0,002	0,026
-314,212	-144,924	0,187	-0,012
-313,197	4,780	0,139	-0,075
-312,183	-200,000	-0,008	0,144
-311,168	84,586	-0,088	-0,071
-310,153	216,851	0,040	0,047
-309,139	71,034	-0,031	-0,023
-308,124	800,000	-0,067	0,155
-307,110	-200,000	-0,011	0,107
-306,095	480,376	0,054	0,090
-305,080	-200,000	-0,008	0,058
-304,066	-39,427	-0,004	-0,002
-303,051	205,051	-0,079	-0,090
-302,037	-31,457	0,043	0,018
-301,022	-69,865	-0,076	0,021
-300,008	195,014	-0,033	0,037
-298,993	-68,901	0,037	-0,010
-297,978	742,425	0,091	-0,181
-296,964	-82,225	-0,069	-0,016
-295,949	-43,950	-0,145	-0,053
-294,935	307,002	0,084	-0,114
-293,920	607,261	0,083	0,152
-292,905	-54,842	0,205	0,067
-291,891	800,000	0,067	0,182
-290,876	-20,316	0,151	0,068
-289,862	-32,957	0,079	0,032
-288,847	-200,000	0,026	-0,144
-287,832	800,000	0,030	-0,067
-286,818	69,436	0,057	-0,043
-285,803	-3,201	-0,072	0,036
-284,789	-54,354	-0,010	0,003
-283,774	-200,000	-0,008	-0,069
-282,759	-61,218	-0,050	-0,015
-281,745	62,362	0,119	-0,087
-280,730	27,623	-0,045	-0,028
-279,716	97,035	-0,017	0,014
-278,701	-200,000	-0,010	0,048
-277,686	-77,062	0,079	0,020
-276,672	-200,000	0,024	0,137
-275,657	-200,000	0,005	0,034
-274,643	353,976	0,081	0,117
-273,628	174,339	0,013	-0,014
-272,613	-44,090	-0,048	-0,018
-271,599	-56,513	0,064	0,021
-270,584	31,809	0,115	0,072
-269,570	22,351	-0,071	0,042
-268,555	68,248	-0,024	0,018
-267,540	-200,000	-0,008	-0,072
-266,526	-200,000	-0,003	-0,015
-265,511	-43,061	-0,025	-0,009
-264,497	38,915	0,133	-0,087
-263,482	284,415	0,081	0,107
-262,467	-200,000	0,001	-0,026
-261,453	259,704	0,074	0,094
-260,438	-200,000	-0,000	-0,044
-259,424	-130,344	-0,164	0,016
-258,409	327,251	0,093	-0,130
-257,395	525,568	-0,023	0,040
-256,380	-36,209	0,050	-0,020
-255,365	-200,000	-0,001	-0,021
-254,351	-63,648	0,083	-0,025
-253,336	-110,060	0,012	0,002
-252,322	-200,000	-0,012	-0,107
-251,307	-200,000	-0,001	-0,045
-250,292	41,042	-0,103	-0,068
-249,278	251,918	0,035	-0,043
-248,263	124,270	0,080	0,074
-247,249	20,217	-0,094	0,055
-246,234	-107,302	0,150	-0,024
-245,219	-33,525	-0,069	0,028
-244,205	359,859	-0,017	0,024
-243,190	168,833	-0,020	-0,021
-242,176	-25,594	0,087	-0,037
-241,161	169,329	0,060	0,063
-240,146	51,843	0,041	-0,028
-239,132	-130,886	-0,051	-0,005
-238,117	800,000	0,048	-0,110
-237,103	33,707	0,032	-0,020
-236,088	800,000	0,012	-0,029
-235,073	292,941	-0,066	-0,088
-234,059	361,157	0,076	0,111
-233,044	-30,809	0,120	0,049
-232,030	800,000	0,057	-0,122
-231,015	13,784	-0,091	-0,051
-230,000	800,000	-0,018	-0,044
-228,986	214,347	0,052	0,060
-227,971	-65,135	-0,086	0,025
-226,957	-104,034	0,143	0,024
-225,942	-32,514	0,096	-0,039
-224,927	182,162	-0,092	0,099
-223,913	386,419	-0,014	-0,021
-222,898	800,000	-0,015	-0,033
-221,884	-200,000	-0,010	0,132
-220,869	-107,967	0,117	0,018
-219,855	359,243	0,058	-0,084
-218,840	200,136	0,090	0,101
-217,825	-66,821	-0,109	0,031
-216,811	179,516	-0,070	-0,075
-215,796	87,574	-0,092	-0,074
-214,782	-15,532	-0,065	-0,030
-213,767	-200,000	-0,019	0,210
-212,752	220,712	-0,012	-0,015
-211,738	-3,412	-0,162	-0,082
-210,723	88,305	0,174	-0,141
-209,709	-60,685	0,046	-0,014
-208,694	-145,871	-0,069	-0,004
-207,679	-76,279	-0,098	0,025
-206,665	415,968	0,080	0,125
-205,650	800,000	0,028	0,058
-204,636	-155,807	0,085	-0,004
-203,621	-200,000	-0,003	-0,075
-202,606	38,373	-0,074	-0,048
-201,592	-50,023	-0,066	-0,023
-200,577	115,968	-0,075	-0,067
-199,563	-169,659	-0,007	-0,000
-198,548	-78,099	0,166	-0,041
-197,533	-200,000	-0,008	0,031
-196,519	-200,000	-0,012	-0,053
-195,504	-12,082	-0,048	-0,023
-194,490	-78,734	-0,108	-0,027
-193,475	92,183	-0,089	-0,073
-192,460	800,000	0,033	-0,087
-191,446	64,271	0,081	0,059
-190,431	35,961	-0,037	0,023
-189,417	251,590	-0,045	-0,056
-188,402	800,000	-0,044	-0,093
-187,387	-200,000	-0,010	0,139
-186,373	-200,000	0,026	-0,099
-185,358	32,103	0,023	0,015
-184,344	-200,000	-0,026	0,107
-183,329	800,000	0,048	-0,099
-182,315	163,225	-0,047	-0,048
-181,300	-96,512	0,060	0,011
-180,285	800,000	0,035	-0,102
-179,271	99,359	0,107	-0,090
-178,256	-49,440	0,064	0,022
-177,242	46,131	0,059	-0,039
-176,227	-64,734	0,109	0,032
-175,212	-37,312	0,101	-0,039
-174,198	101,765	0,042	-0,036
-173,183	-24,995	-0,117	-0,050
-172,169	121,024	-0,071	0,065
-171,154	88,925	0,061	0,049
-170,139	-200,000	0,002	0,034
-169,125	-62,039	0,069	0,021
-168,110	-7,588	0,115	0,056
-167,096	-200,000	-0,006	-0,038
-166,081	71,482	-0,023	-0,017
-165,066	-200,000	-0,026	0,118
-164,052	-119,990	0,039	0,005
-163,037	-200,000	-0,004	-0,064
-162,023	-190,580	-0,100	0,001
-161,008	90,136	0,094	-0,077
-159,993	630,768	0,028	-0,052
-158,979	-59,049	-0,077	-0,024
-157,964	-200,000	0,006	0,032
-156,950	800,000	-0,029	-0,094
-155,935	24,543	-0,064	-0,038
-154,920	-200,000	0,008	0,046
-153,906	-117,277	0,016	0,002
-152,891	-52,959	-0,017	-0,006
-151,877	37,613	0,055	-0,036
-150,862	-97,300	-0,088	-0,016
-149,847	-50,063	0,039	0,013
-148,833	178,977	-0,074	-0,079
-147,818	229,971	0,018	-0,022
-146,804	-200,000	-0,003	-0,029
-145,789	39,808	-0,113	0,074
-144,775	-150,045	-0,061	-0,003
-143,760	93,325	0,064	0,052
-142,745	-200,000	0,010	0,051
-141,731	800,000	-0,029	-0,064
-140,716	-200,000	0,004	0,049
-139,702	-200,000	-0,013	0,047
-138,687	-112,501	-0,048	-0,007
-137,672	73,565	-0,061	0,046
-136,658	129,604	0,040	-0,038
-135,643	-196,679	-0,116	0,001
-134,629	-131,881	0,059	0,006
-133,614	800,000	0,040	0,122
-132,599	-200,000	-0,017	-0,124
-131,585	-200,000	0,018	-0,075
-130,570	-200,000	-0,025	-0,102
-129,556	-200,000	0,001	-0,090
-128,541	66,723	-0,007	0,005
-127,526	-200,000	0,005	0,039
-126,512	514,431	0,073	-0,124
-125,497	800,000	0,037	0,094
-124,483	-200,000	-0,007	0,051
-123,468	-42,797	-0,038	-0,014
-122,453	-200,000	-0,008	-0,076
-121,439	11,822	-0,113	0,063
-120,424	191,017	-0,010	-0,011
-119,410	-28,405	0,115	0,048
-118,395	-49,763	0,108	0,037
-117,380	800,000	-0,026	0,069
-116,366	783,387	-0,052	0,105
-115,351	208,017	-0,050	-0,057
-114,337	175,399	-0,025	-0,026
-113,322	800,000	-0,020	0,049
-112,307	-200,000	0,023	-0,235
-111,293	-33,504	0,096	-0,038
-110,278	-200,000	-0,033	0,122
-109,264	-200,000	0,009	0,085
-108,249	81,319	0,101	0,079
-107,234	-200,000	-0,000	-0,009
-106,220	-132,897	-0,049	-0,004
-105,205	-200,000	0,013	0,082
-104,191	419,442	0,047	0,073
-103,176	-130,780	-0,036	0,003
-102,162	-26,257	0,062	0,026
-101,147	800,000	-0,063	-0,180
-100,132	-200,000	-0,003	-0,081
-99,118	-64,509	-0,080	0,024
-98,103	119,520	0,026	-0,023
-97,089	-162,745	-0,025	0,001
-96,074	190,483	-0,012	-0,013
-95,059	800,000	0,056	0,132
-94,045	50,104	-0,096	0,065
-93,030	45,286	0,088	0,059
-92,016	-200,000	0,001	-0,033
-91,001	-8,328	0,073	-0,035
-89,986	-30,834	0,104	0,043
-88,972	800,000	0,042	0,121
-87,957	-115,357	0,049	-0,007
-86,943	-200,000	-0,003	-0,054
-85,928	38,078	-0,068	0,044
-84,913	258,575	0,057	0,071
-83,899	-35,943	-0,003	0,001
-82,884	51,079	0,011	-0,007
-81,870	205,220	0,030	0,034
-80,855	-11,204	-0,099	0,047
-79,840	-41,439	-0,179	0,066
-78,826	202,804	0,028	0,032
-77,811	376,132	-0,020	0,030
-76,797	-127,865	-0,057	0,006
-75,782	800,000	-0,045	0,099
-74,767	-200,000	-0,007	0,065
-73,753	716,202	0,050	0,096
-72,738	-200,000	0,015	-0,082
-71,724	192,493	0,061	-0,067
-70,709	281,230	0,063	-0,082
-69,694	178,848	0,103	-0,110
-68,680	199,470	0,077	0,086
-67,665	83,867	0,047	-0,037
-66,651	-76,067	0,151	0,038
-65,636	-13,263	0,013	0,006
-64,622	-149,113	-0,140	0,008
-63,607	149,002	0,054	-0,053
-62,592	377,825	0,062	-0,092
-61,578	451,663	-0,006	-0,010
-60,563	800,000	-0,034	0,093
-59,549	-200,000	-0,012	0,128
-58,534	-91,056	-1,398	-0,289
-57,519	800,000	-0,673	-1,435
-56,505	-200,000	-1,039	-4,489
-55,490	-85,944	0,723	-0,161
-54,476	800,000	5,044	11,768
-53,461	-200,000	13,995	253,143
-52,446	-200,000	694,161	2237,787
-51,432	572,957	1624,058	2881,190
-50,417	117,356	1632,563	1455,068
-49,403	72,384	1286,335	970,719
-48,388	37,472	1023,010	656,272
-47,373	23,814	981,314	584,649
-46,359	23,060	970,751	575,865
-45,344	22,104	966,474	570,185
-44,330	22,038	965,003	569,078
-43,315	21,888	963,615	567,750
-42,300	21,933	962,510	567,222
-41,286	21,923	961,470	566,555
-40,271	21,908	960,410	565,859
-39,257	21,893	959,552	565,283
-38,242	21,884	958,623	564,682
-37,227	21,867	957,747	564,088
-36,213	21,845	956,891	563,493
-35,198	21,859	956,051	563,020
-34,184	21,946	955,477	562,939
-33,169	21,869	954,548	562,123
-32,154	21,945	953,636	561,806
-31,140	21,948	952,702	561,245
-30,125	21,960	951,968	560,829
-29,111	21,972	950,917	560,225
-28,096	21,916	950,558	559,812
-27,082	21,896	949,851	559,310
-26,067	21,907	948,873	558,746
-25,052	21,948	948,108	558,405
-24,038	21,930	947,532	557,985
-23,023	21,921	947,080	557,669
-22,009	21,926	946,342	557,229
-20,994	21,914	945,699	556,788
-19,979	21,946	945,106	556,520
-18,965	21,905	944,526	556,026
-17,950	21,923	943,796	555,630
-16,936	21,917	942,980	555,111
-15,921	21,861	942,284	554,499
-14,906	21,791	941,607	553,856
-13,892	21,825	941,043	553,612
-12,877	21,815	940,485	553,229
-11,863	21,731	939,978	552,643
-10,848	21,751	939,463	552,381
-9,833	21,945	938,903	552,646
-8,819	21,845	938,379	551,998
-7,804	21,865	937,587	551,573
-6,790	21,810	936,959	551,008
-5,775	21,749	936,486	550,515
-4,760	21,818	935,950	550,396
-3,746	21,762	935,119	549,708
-2,731	21,641	934,468	548,924
-1,717	21,607	933,865	548,441
-0,702	21,622	933,047	547,984
0,313	21,400	932,593	547,846
1,327	24,496	930,538	556,310
2,342	33,962	794,574	500,185
3,356	31,739	450,187	280,029
4,371	0,893	293,017	151,574
5,386	-3,463	273,917	137,574
6,400	-4,687	268,504	133,710
7,415	-5,174	266,079	132,043
8,429	-4,834	264,952	131,784
9,444	-4,946	264,103	131,248
10,459	-4,953	263,477	130,918
11,473	-4,855	262,757	130,638
12,488	-4,845	262,306	130,411
13,502	-5,058	261,713	129,912
14,517	-5,213	261,475	129,643
15,531	-5,154	261,125	129,511
16,546	-4,997	260,743	129,451
17,561	-4,799	260,167	129,331
18,575	-4,900	260,018	129,155
19,590	-4,963	259,691	128,924
20,604	-4,744	259,315	128,922
21,619	-4,961	258,941	128,531
22,634	-4,996	258,699	128,368
23,648	-5,145	258,382	128,067
24,663	-4,987	258,137	128,075
25,677	-4,892	257,862	128,011
26,692	-4,895	257,643	127,888
27,707	-5,041	257,466	127,660
28,721	-5,147	257,231	127,438
29,736	-5,017	256,871	127,363
30,750	-5,164	256,565	127,070
31,765	-5,280	256,495	126,921
32,780	-5,094	256,217	126,936
33,794	-5,025	255,953	126,855
34,809	-4,982	255,726	126,770
35,823	-5,113	255,429	126,496
36,838	-5,004	255,238	126,486
37,853	-5,104	254,940	126,239
38,867	-5,245	254,809	126,039
39,882	-5,012	254,609	126,133
40,896	-5,091	254,460	125,979
41,911	-5,136	254,048	125,725
42,926	-5,140	253,951	125,662
43,940	-5,187	253,619	125,446
44,955	-5,258	253,478	125,303
45,969	-5,151	253,162	125,229
46,984	-5,588	253,012	124,763
47,999	-5,521	252,617	124,615
49,013	-5,669	252,515	124,425
50,028	-5,635	252,076	124,227
51,042	-5,800	251,913	123,993
52,057	-5,903	251,779	123,826
53,071	-5,805	251,506	123,767
54,086	-5,570	251,274	123,844
55,101	-5,732	251,296	123,704
56,115	-5,317	251,156	123,982
57,130	-5,140	251,138	124,114
58,144	-4,753	250,732	124,236
59,159	-4,779	250,564	124,120
60,174	-5,028	250,429	123,828
61,188	-4,971	250,343	123,823
62,203	-4,811	249,931	123,745
63,217	-4,904	249,692	123,536
64,232	-5,102	249,705	123,362
65,247	-5,016	249,436	123,292
66,261	-4,864	249,060	123,225
67,276	-5,275	248,820	122,744
68,290	-5,242	248,535	122,621
69,305	-5,168	248,323	122,569
70,320	-5,483	248,365	122,309
71,334	-5,056	248,110	122,537
72,349	-4,955	248,102	122,608
73,363	-4,898	247,806	122,499
74,378	-4,697	247,457	122,486
75,393	-4,835	247,357	122,309
76,407	-5,046	247,102	121,993
77,422	-5,046	246,914	121,889
78,436	-4,938	246,692	121,860
79,451	-4,838	246,454	121,816
80,466	-5,128	246,327	121,498
81,480	-5,242	246,050	121,255
82,495	-5,391	245,845	121,017
83,509	-5,220	245,701	121,079
84,524	-5,312	245,508	120,895
85,539	-5,449	245,258	120,647
86,553	-5,350	245,136	120,659
87,568	-5,506	245,012	120,457
88,582	-5,249	244,707	120,511
89,597	-5,431	244,517	120,254
90,611	-5,045	244,413	120,516
91,626	-5,110	244,344	120,417
92,641	-5,016	244,117	120,372
93,655	-4,838	243,852	120,379
94,670	-5,073	243,660	120,079
95,684	-5,213	243,443	119,843
96,699	-5,018	243,418	119,983
97,714	-5,171	243,181	119,728
98,728	-5,154	242,840	119,564
99,743	-5,446	242,823	119,302
100,757	-5,325	242,515	119,241
101,772	-5,080	242,242	119,299
102,787	-5,184	242,032	119,099
103,801	-5,300	242,018	118,986
104,816	-5,147	241,752	118,970
105,830	-5,119	241,800	119,006
106,845	-5,063	241,602	118,945
107,860	-4,927	241,304	118,900
108,874	-5,360	241,225	118,493
109,889	-5,211	240,885	118,438
110,903	-5,200	240,742	118,366
111,918	-5,165	240,514	118,272
112,933	-5,196	240,348	118,155
113,947	-5,073	240,189	118,167
114,962	-5,024	240,068	118,137
115,976	-5,010	239,811	118,011
116,991	-5,275	239,875	117,815
118,006	-5,083	239,633	117,844
119,020	-5,067	239,257	117,661
120,035	-5,061	239,342	117,697
121,049	-4,920	239,180	117,722
122,064	-5,052	239,131	117,579
123,079	-4,983	238,810	117,468
124,093	-5,214	238,638	117,184
125,108	-5,332	238,268	116,896
126,122	-5,339	238,018	116,757
127,137	-5,331	237,814	116,654
128,151	-5,376	237,819	116,609
129,166	-5,317	237,653	116,565
130,181	-5,370	237,396	116,386
131,195	-5,382	237,249	116,294
132,210	-5,221	237,135	116,357
133,224	-5,122	236,888	116,306
134,239	-5,148	236,863	116,262
135,254	-5,013	236,608	116,236
136,268	-5,300	236,420	115,902
137,283	-5,311	236,050	115,701
138,297	-5,553	235,973	115,458
139,312	-5,402	235,800	115,485
140,327	-5,287	235,794	115,564
141,341	-4,700	235,602	115,930
142,356	-4,842	235,619	115,815
143,370	-4,712	235,248	115,726
144,385	-4,890	235,233	115,566
145,400	-4,743	234,965	115,542
146,414	-4,821	234,835	115,405
147,429	-4,861	234,730	115,311
148,443	-4,644	234,473	115,348
149,458	-4,765	234,304	115,158
150,473	-4,606	233,993	115,121
151,487	-4,890	234,040	114,908
152,502	-4,964	233,970	114,804
153,516	-4,671	233,745	114,917
154,531	-4,812	233,458	114,653
155,546	-4,816	233,344	114,584
156,560	-4,798	233,097	114,466
157,575	-4,949	232,890	114,235
158,589	-5,094	232,748	114,041
159,604	-4,468	232,533	114,421
160,619	-4,799	232,545	114,155
161,633	-4,788	232,454	114,108
162,648	-4,592	232,177	114,116
163,662	-4,670	232,039	113,978
164,677	-4,918	231,912	113,710
165,692	-4,667	231,712	113,799
166,706	-4,480	231,582	113,872
167,721	-4,565	231,400	113,705
168,735	-4,633	231,297	113,591
169,750	-4,460	231,114	113,628
170,764	-4,891	230,989	113,217
171,779	-4,788	230,940	113,264
172,794	-4,638	230,772	113,289
173,808	-4,923	230,415	112,880
174,823	-5,275	230,377	112,576
175,837	-5,320	230,005	112,349
176,852	-4,895	229,935	112,637
177,867	-4,579	229,880	112,847
178,881	-4,601	229,685	112,724
179,896	-4,700	229,685	112,637
180,910	-4,786	229,453	112,445
181,925	-4,653	229,390	112,508
182,940	-4,595	229,149	112,425
183,954	-4,783	229,144	112,267
184,969	-4,677	228,970	112,254
185,983	-4,578	228,780	112,228
186,998	-4,661	228,475	112,003
188,013	-4,393	228,365	112,147
189,027	-4,710	228,338	111,879
190,042	-4,708	228,305	111,854
191,056	-4,536	227,983	111,819
192,071	-4,545	227,807	111,716
193,086	-4,673	227,761	111,585
194,100	-4,660	227,449	111,432
195,115	-4,927	227,177	111,083
196,129	-5,245	227,141	110,810
197,144	-2,381	227,914	113,390
198,159	1,437	228,961	116,859
199,173	3,561	229,575	118,807
200,188	3,921	229,459	119,016
201,202	3,869	229,227	118,845
202,217	4,133	229,086	118,965
203,232	4,296	229,040	119,056
204,246	4,495	228,923	119,139
205,261	4,583	228,866	119,166
206,275	4,648	228,712	119,125
207,290	4,827	228,554	119,171
208,304	4,481	228,469	118,849
209,319	4,607	228,311	118,853
210,334	4,454	228,039	118,583
211,348	4,219	227,834	118,286
212,363	3,921	227,522	117,885
213,377	3,784	227,254	117,630
214,392	3,654	227,194	117,489
215,407	3,712	227,139	117,495
216,421	4,108	226,872	117,649
217,436	3,845	226,808	117,404
218,450	3,662	226,405	117,046
219,465	3,528	226,349	116,904
220,480	3,675	226,238	116,948
221,494	3,671	226,078	116,852
222,509	3,507	226,019	116,687
223,523	3,682	225,822	116,707
224,538	3,688	225,726	116,652
225,553	3,672	225,565	116,546
226,567	3,944	225,375	116,644
227,582	4,056	225,352	116,707
228,596	4,133	225,320	116,738
229,611	4,079	224,979	116,510
230,626	3,647	224,757	116,058
231,640	3,693	224,551	115,977
232,655	3,993	224,577	116,206
233,669	4,392	224,484	116,449
234,684	4,485	224,436	116,484
235,699	4,299	224,194	116,207
236,713	4,086	223,957	115,913
237,728	4,053	223,750	115,771
238,742	3,494	223,649	115,289
239,757	3,609	223,482	115,279
240,772	3,729	223,211	115,218
241,786	3,676	223,080	115,101
242,801	3,903	223,084	115,263
243,815	4,036	223,097	115,359
244,830	4,353	222,890	115,479
245,844	3,970	222,746	115,108
246,859	3,886	222,620	114,969
247,874	4,118	222,468	115,054
248,888	4,301	222,260	115,073
249,903	3,854	222,204	114,700
250,917	3,727	221,900	114,438
251,932	3,737	221,725	114,345
252,947	3,671	221,617	114,230
253,961	3,763	221,503	114,230
254,976	3,918	221,242	114,200
255,990	3,774	221,271	114,098
257,005	3,935	221,118	114,128
258,020	3,867	221,022	114,018
259,034	4,324	220,829	114,247
260,049	4,202	220,690	114,074
261,063	3,931	220,484	113,757
262,078	4,069	220,484	113,849
263,093	4,424	220,210	113,960
264,107	4,233	220,104	113,754
265,122	4,009	220,119	113,586
266,136	4,458	219,978	113,835
267,151	4,272	219,790	113,589
268,166	3,890	219,445	113,120
269,180	3,564	219,293	112,792
270,195	3,725	219,218	112,862
271,209	3,468	218,983	112,542
272,224	3,816	218,920	112,755
273,239	3,741	218,835	112,646
274,253	3,941	218,555	112,638
275,268	3,485	218,413	112,221
276,282	3,559	218,248	112,181
277,297	3,394	218,185	112,019
278,312	3,604	217,991	112,061
279,326	3,711	217,890	112,078
280,341	3,725	217,734	111,998
281,355	3,813	217,687	112,028
282,370	3,942	217,456	111,993
283,384	3,691	217,204	111,671
284,399	3,554	217,033	111,473
285,414	3,732	216,992	111,571
286,428	3,873	216,826	111,579
287,443	3,854	216,897	111,592
288,457	3,835	216,892	111,565
289,472	3,783	216,502	111,317
290,487	3,573	216,336	111,069
291,501	3,219	216,211	110,739
292,516	3,571	216,071	110,912
293,530	3,472	215,904	110,745
294,545	3,368	215,702	110,557
295,560	3,469	215,828	110,684
296,574	3,858	215,782	110,931
297,589	3,897	215,507	110,809
298,603	3,939	215,380	110,763
299,618	3,899	215,245	110,656
300,633	3,912	215,059	110,559
301,647	3,869	215,038	110,508
302,662	4,182	214,808	110,604
303,676	4,192	214,656	110,523
304,691	3,907	214,607	110,284
305,706	4,186	214,353	110,344
306,720	4,172	214,290	110,291
307,735	3,857	214,205	110,012
308,749	3,618	213,774	109,610
309,764	3,935	213,710	109,794
310,779	4,096	213,779	109,935
311,793	3,974	213,593	109,742
312,808	3,940	213,455	109,637
313,822	3,836	213,371	109,510
314,837	3,902	213,084	109,400
315,852	3,588	213,014	109,131
316,866	3,714	212,863	109,133
317,881	3,828	212,753	109,148
318,895	3,903	212,602	109,114
319,910	3,573	212,533	108,835
320,925	3,722	212,145	108,733
321,939	3,460	212,075	108,501
322,954	3,511	211,928	108,452
323,968	3,664	212,023	108,600
324,983	3,913	211,693	108,596
325,997	4,192	211,683	108,779
327,012	3,882	211,503	108,458
328,027	3,615	211,448	108,232
329,041	4,262	211,280	108,592
330,056	4,182	211,221	108,496
331,070	4,163	210,877	108,296
332,085	3,435	210,721	107,695
333,100	3,898	210,516	107,906
334,114	4,077	210,401	107,963
335,129	3,711	210,457	107,724
336,143	3,716	210,231	107,603
337,158	3,802	210,163	107,619
338,173	3,787	210,016	107,523
339,187	3,717	209,752	107,330
340,202	3,521	209,695	107,154
341,216	3,347	209,620	106,985
342,231	3,720	209,389	107,117
343,246	3,662	209,174	106,957
344,260	3,366	209,136	106,722
345,275	3,614	209,176	106,906
346,289	3,713	209,054	106,903
347,304	4,018	208,879	107,016
348,319	3,890	208,655	106,803
349,333	4,014	208,529	106,815
350,348	3,994	208,491	106,772
351,362	4,083	208,348	106,751
352,377	4,195	208,148	106,716
353,392	3,752	208,162	106,407
354,406	3,872	207,973	106,385
355,421	193,451	1346,848	1432,573
356,435	154,314	1485,695	1432,680
