DTS Sentinel unit serial number:	SN410029Multiplexer serial number:	ORYXHardware model number:	OX2-SRSoftware version number:	ORYX F/W v4,00 Oryx Data Collector v3.7.2.0data status	okinstallation	B6 Nyhavnadifferential loss correction	single-endedforward channel	channel 2reverse channel	N/Adate	2023/12/09time	21:35:08forward acquisition time	300,00reverse acquisition time	0,00gamma	499,1914k internal	0,3127k external	0,3127temperature offset calibration	1,0000default loss term (dB/km)	0,3820temperature slope calibration	1,0000multiplexer offset coefficient	1,0000multiplexer slope coefficient	1,0000fibre end	0,00T internal ref (°C)	21,57T ext. ref 1 (°C)	5,43T ext. ref 2 (°C)	5,42length (m)	temperature (°C)	Stokes	anti-Stokes-744,400	88,198	0,072	0,060
-743,385	135,968	-0,235	0,228
-742,371	15,165	-0,097	-0,057
-741,356	-116,565	-0,239	0,032
-740,342	-200,000	-0,009	0,060
-739,327	-45,421	-0,107	-0,039
-738,312	-200,000	0,002	0,019
-737,298	-112,140	-0,285	0,042
-736,283	337,419	0,075	-0,109
-735,269	517,366	-0,143	0,249
-734,254	-200,000	-0,005	0,062
-733,239	-167,516	-0,318	0,009
-732,225	-61,063	0,122	0,038
-731,210	-200,000	0,012	0,109
-730,196	89,547	-0,118	-0,098
-729,181	-101,432	-0,041	0,007
-728,167	-200,000	0,003	0,021
-727,152	800,000	0,045	0,119
-726,137	371,215	-0,075	0,113
-725,123	214,924	-0,025	-0,030
-724,108	444,514	-0,036	-0,058
-723,094	-126,319	-0,248	-0,027
-722,079	277,665	-0,022	0,029
-721,064	-66,793	-0,159	0,046
-720,050	-200,000	-0,059	0,254
-719,035	-36,210	-0,142	0,057
-718,021	-76,914	-0,085	0,022
-717,006	-86,550	-0,116	-0,026
-715,991	-123,843	-0,188	-0,022
-714,977	194,235	-0,044	-0,050
-713,962	-200,000	0,024	-0,153
-712,948	137,141	-0,120	-0,117
-711,933	800,000	0,013	-0,032
-710,918	357,115	-0,035	0,052
-709,904	-115,302	-0,145	-0,020
-708,889	130,472	-0,075	-0,071
-707,875	-86,532	-0,103	0,023
-706,860	-68,347	0,096	0,027
-705,845	-200,000	0,015	0,068
-704,831	306,395	0,092	0,128
-703,816	16,825	-0,165	0,097
-702,802	-165,841	-0,172	0,005
-701,787	-200,000	0,015	0,099
-700,772	-96,683	0,037	-0,007
-699,758	130,087	0,093	0,089
-698,743	-200,000	-0,003	-0,116
-697,729	800,000	0,052	-0,141
-696,714	-49,244	-0,093	0,033
-695,699	108,642	-0,047	0,042
-694,685	-139,811	0,121	-0,009
-693,670	-200,000	-0,019	-0,130
-692,656	341,657	-0,043	0,062
-691,641	379,923	0,024	-0,037
-690,627	241,830	-0,035	0,043
-689,612	-200,000	-0,020	-0,134
-688,597	65,461	0,087	0,066
-687,583	16,453	0,047	0,027
-686,568	329,705	-0,036	-0,052
-685,554	-151,809	-0,089	-0,005
-684,539	61,394	0,017	0,013
-683,524	-200,000	0,018	0,089
-682,510	-200,000	-0,000	-0,019
-681,495	800,000	0,045	-0,108
-680,481	-200,000	0,021	-0,087
-679,466	800,000	-0,002	-0,007
-678,451	-200,000	-0,014	0,065
-677,437	224,537	0,010	0,012
-676,422	32,431	-0,160	0,103
-675,408	-200,000	-0,019	0,101
-674,393	800,000	-0,037	-0,087
-673,378	-59,600	-0,054	-0,017
-672,364	-109,341	0,173	0,027
-671,349	-119,569	-0,068	-0,009
-670,335	44,786	0,070	0,047
-669,320	-200,000	0,023	-0,095
-668,305	554,507	0,020	0,035
-667,291	-95,696	-0,034	0,007
-666,276	800,000	0,046	-0,110
-665,262	719,588	0,056	0,111
-664,247	11,584	0,020	-0,011
-663,232	-54,458	-0,101	-0,034
-662,218	6,672	0,055	0,030
-661,203	141,827	0,153	0,151
-660,189	-38,568	-0,061	0,024
-659,174	639,749	0,010	-0,019
-658,159	-66,786	-0,145	-0,042
-657,145	563,288	-0,028	-0,051
-656,130	800,000	-0,021	0,055
-655,116	-200,000	0,004	0,107
-654,101	-200,000	-0,019	-0,092
-653,086	159,277	-0,030	-0,030
-652,072	-56,852	-0,054	-0,018
-651,057	198,626	-0,048	0,055
-650,043	609,826	0,054	-0,101
-649,028	-64,020	-0,125	-0,038
-648,014	127,864	-0,032	0,030
-646,999	-200,000	-0,008	-0,135
-645,984	-200,000	0,000	0,049
-644,970	800,000	-0,044	-0,109
-643,955	216,326	-0,070	0,083
-642,941	800,000	-0,042	0,089
-641,926	800,000	0,034	0,084
-640,911	-200,000	0,002	0,168
-639,897	-47,173	-0,032	-0,012
-638,882	800,000	0,021	0,063
-637,868	154,902	-0,067	-0,069
-636,853	-200,000	-0,000	-0,033
-635,838	-200,000	-0,011	0,057
-634,824	-200,000	-0,018	0,101
-633,809	40,922	-0,156	-0,104
-632,795	64,296	-0,006	-0,004
-631,780	81,028	-0,062	0,049
-630,765	540,656	0,077	-0,137
-629,751	-200,000	-0,000	-0,169
-628,736	-200,000	-0,001	-0,058
-627,722	86,853	-0,089	0,073
-626,707	-200,000	0,003	-0,035
-625,692	-39,441	0,056	-0,022
-624,678	206,281	0,027	-0,031
-623,663	-88,721	0,086	0,019
-622,649	277,920	-0,022	-0,029
-621,634	800,000	0,022	-0,058
-620,619	-200,000	-0,007	-0,061
-619,605	-200,000	0,020	-0,113
-618,590	800,000	-0,005	-0,014
-617,576	-200,000	-0,004	-0,031
-616,561	309,534	0,077	-0,107
-615,546	77,709	-0,191	-0,151
-614,532	-200,000	-0,008	0,036
-613,517	52,289	0,131	-0,093
-612,503	800,000	0,031	-0,102
-611,488	-126,466	0,068	-0,007
-610,474	460,824	-0,043	0,071
-609,459	-2,971	0,072	0,037
-608,444	-74,606	-0,117	0,031
-607,430	-200,000	-0,007	-0,105
-606,415	-200,000	-0,012	-0,106
-605,401	197,921	0,005	0,006
-604,386	-200,000	-0,017	0,102
-603,371	29,957	-0,092	-0,058
-602,357	111,544	-0,070	-0,062
-601,342	-185,365	-0,155	0,002
-600,328	498,014	-0,058	-0,100
-599,313	-45,844	0,053	-0,019
-598,298	-200,000	-0,007	-0,099
-597,284	554,192	0,076	-0,136
-596,269	-119,332	-0,116	0,015
-595,255	199,559	-0,047	0,054
-594,240	83,345	0,032	0,025
-593,225	800,000	-0,037	-0,119
-592,211	168,461	-0,090	-0,095
-591,196	-200,000	-0,005	-0,077
-590,182	27,368	0,033	-0,020
-589,167	-200,000	0,007	0,040
-588,152	-141,380	0,042	0,003
-587,138	-49,955	-0,167	-0,058
-586,123	800,000	0,040	-0,119
-585,109	-87,738	-0,138	0,031
-584,094	-200,000	0,005	-0,065
-583,079	-104,840	0,126	0,021
-582,065	-200,000	-0,011	-0,075
-581,050	52,517	0,041	-0,029
-580,036	-200,000	0,014	-0,077
-579,021	71,464	-0,041	-0,032
-578,006	115,287	0,042	-0,038
-576,992	70,395	0,039	0,030
-575,977	112,128	0,206	0,184
-574,963	118,385	0,090	0,082
-573,948	-126,975	-0,046	-0,005
-572,934	276,206	0,046	-0,061
-571,919	-105,511	-0,129	-0,021
-570,904	315,462	0,033	0,047
-569,890	784,526	-0,028	-0,057
-568,875	800,000	-0,071	-0,160
-567,861	171,717	0,076	0,081
-566,846	551,757	-0,077	0,138
-565,831	-81,148	-0,118	-0,029
-564,817	239,528	-0,090	-0,111
-563,802	100,192	-0,086	-0,074
-562,788	-200,000	-0,012	-0,097
-561,773	-152,051	0,086	-0,005
-560,758	311,632	0,071	-0,099
-559,744	78,852	0,111	-0,088
-558,729	37,080	-0,125	0,081
-557,715	104,184	-0,110	0,095
-556,700	126,530	0,020	-0,019
-555,685	-41,518	-0,084	-0,032
-554,671	800,000	-0,043	0,097
-553,656	74,371	-0,036	-0,028
-552,642	118,765	0,112	0,102
-551,627	800,000	0,015	0,035
-550,612	-42,714	0,134	0,050
-549,598	-160,859	-0,053	0,002
-548,583	465,367	-0,061	-0,101
-547,569	-200,000	0,023	-0,108
-546,554	-130,976	-0,016	0,002
-545,539	-73,439	0,141	0,038
-544,525	-200,000	0,016	0,094
-543,510	-200,000	-0,008	-0,047
-542,496	169,289	0,070	-0,074
-541,481	-131,060	-0,111	0,011
-540,466	-70,990	0,102	0,028
-539,452	-36,344	-0,051	-0,020
-538,437	-200,000	0,013	0,128
-537,423	271,816	-0,121	0,158
-536,408	41,817	-0,093	0,062
-535,393	189,757	-0,084	-0,093
-534,379	285,566	-0,057	-0,076
-533,364	570,668	-0,063	0,114
-532,350	603,923	0,032	0,060
-531,335	201,168	-0,121	-0,138
-530,321	-200,000	-0,033	-0,134
-529,306	-57,808	-0,094	0,030
-528,291	800,000	-0,060	0,153
-527,277	763,576	0,044	0,089
-526,262	-200,000	0,020	-0,107
-525,248	-200,000	0,011	0,097
-524,233	-200,000	-0,059	0,222
-523,218	143,117	-0,023	0,023
-522,204	-157,672	0,070	0,003
-521,189	369,355	0,057	-0,085
-520,175	531,328	-0,075	0,132
-519,160	-118,490	0,073	0,009
-518,145	89,881	-0,042	0,035
-517,131	-79,835	0,094	0,023
-516,116	-198,192	0,126	0,001
-515,102	223,606	0,095	0,113
-514,087	233,014	-0,034	0,042
-513,072	-200,000	-0,027	-0,137
-512,058	-200,000	0,006	-0,080
-511,043	-53,837	0,183	-0,061
-510,029	800,000	-0,009	-0,018
-509,014	4,235	-0,033	-0,018
-507,999	243,715	0,064	0,080
-506,985	483,348	0,022	-0,038
-505,970	320,785	0,064	-0,090
-504,956	-58,811	0,052	-0,017
-503,941	-39,694	-0,149	-0,057
-502,926	351,388	-0,096	0,141
-501,912	378,622	-0,041	0,062
-500,897	416,562	0,041	-0,065
-499,883	175,863	-0,042	-0,045
-498,868	-200,000	-0,057	-0,221
-497,853	42,393	0,057	-0,038
-496,839	-61,904	-0,054	0,017
-495,824	792,796	0,033	-0,068
-494,810	207,625	0,136	0,157
-493,795	166,640	0,067	0,070
-492,781	118,266	-0,038	-0,035
-491,766	396,038	0,068	-0,105
-490,751	800,000	0,018	-0,046
-489,737	-95,604	0,068	0,013
-488,722	487,029	-0,036	-0,060
-487,708	42,170	-0,123	0,082
-486,693	-40,879	-0,138	-0,052
-485,678	-200,000	-0,019	-0,073
-484,664	691,454	0,053	-0,102
-483,649	98,855	-0,076	0,064
-482,635	-28,743	0,049	0,021
-481,620	-195,204	0,078	0,000
-480,605	284,486	0,026	0,035
-479,591	20,367	-0,049	0,029
-478,576	-200,000	-0,006	0,079
-477,562	32,796	-0,023	-0,014
-476,547	238,052	-0,186	-0,227
-475,532	800,000	0,033	0,071
-474,518	-200,000	-0,009	0,129
-473,503	-20,464	0,050	-0,022
-472,489	-200,000	-0,021	0,073
-471,474	677,947	0,049	0,094
-470,459	336,172	-0,029	-0,041
-469,445	-200,000	0,000	0,017
-468,430	53,344	0,091	0,064
-467,416	-200,000	0,006	0,085
-466,401	-200,000	-0,000	0,062
-465,386	-0,354	-0,051	-0,027
-464,372	51,352	-0,039	-0,027
-463,357	-200,000	-0,008	-0,126
-462,343	90,053	-0,042	0,034
-461,328	-200,000	0,011	-0,134
-460,313	800,000	0,036	0,116
-459,299	325,450	-0,086	0,121
-458,284	800,000	0,034	0,104
-457,270	-23,433	0,086	-0,038
-456,255	425,862	0,073	-0,116
-455,241	-155,190	0,071	-0,003
-454,226	9,969	-0,114	-0,064
-453,211	-44,073	0,154	0,056
-452,197	-98,833	-0,096	0,018
-451,182	114,949	0,045	0,040
-450,168	389,373	-0,055	-0,085
-449,153	408,126	-0,026	-0,041
-448,138	800,000	-0,019	0,045
-447,124	-200,000	0,024	-0,107
-446,109	-43,315	0,047	-0,018
-445,095	-200,000	0,009	-0,038
-444,080	-200,000	-0,027	0,135
-443,065	151,813	0,028	-0,028
-442,051	-74,538	0,091	0,024
-441,036	40,897	-0,029	-0,019
-440,022	635,411	0,078	-0,147
-439,007	-35,099	-0,063	0,025
-437,992	213,949	0,057	0,066
-436,978	60,155	-0,086	0,063
-435,963	89,998	0,087	0,071
-434,949	249,808	-0,091	-0,114
-433,934	100,045	0,050	0,042
-432,919	736,965	0,047	-0,093
-431,905	21,639	-0,090	0,054
-430,890	91,882	-0,154	0,128
-429,876	-119,767	-0,056	-0,007
-428,861	83,661	-0,055	-0,044
-427,846	-63,813	0,106	-0,032
-426,832	29,766	-0,144	-0,090
-425,817	800,000	0,017	-0,043
-424,803	-200,000	0,032	-0,115
-423,788	800,000	0,019	-0,042
-422,773	90,285	-0,019	-0,016
-421,759	14,874	0,017	0,010
-420,744	-200,000	0,010	0,104
-419,730	-146,109	-0,063	-0,004
-418,715	-200,000	0,011	-0,078
-417,701	-200,000	-0,010	-0,125
-416,686	-61,843	-0,076	-0,023
-415,671	-122,306	0,104	0,012
-414,657	366,258	-0,038	0,056
-413,642	800,000	-0,059	-0,131
-412,628	-149,886	0,042	-0,002
-411,613	800,000	-0,066	-0,153
-410,598	-130,466	0,097	-0,010
-409,584	-29,122	-0,079	0,033
-408,569	92,511	0,135	0,112
-407,555	721,971	-0,028	0,055
-406,540	-62,684	0,055	-0,017
-405,525	102,431	0,014	0,012
-404,511	-200,000	-0,172	0,000
-403,496	-200,000	0,015	-0,147
-402,482	-40,083	0,075	0,028
-401,467	296,898	0,055	0,074
-400,452	-146,891	0,123	-0,008
-399,438	610,415	0,072	0,132
-398,423	71,285	-0,063	-0,048
-397,409	-200,000	-0,004	0,068
-396,394	-168,391	0,040	-0,001
-395,379	-200,000	-0,024	0,139
-394,365	-71,983	-0,194	-0,053
-393,350	68,857	-0,077	0,058
-392,336	60,589	0,117	0,085
-391,321	800,000	-0,037	0,077
-390,306	800,000	-0,030	-0,093
-389,292	374,803	-0,070	-0,105
-388,277	-135,288	0,035	-0,003
-387,263	800,000	0,049	0,145
-386,248	-39,307	0,167	0,064
-385,233	-52,931	-0,092	-0,031
-384,219	-200,000	0,021	-0,112
-383,204	-200,000	-0,009	-0,129
-382,190	56,188	-0,112	-0,079
-381,175	-200,000	0,006	0,022
-380,160	39,278	0,026	-0,017
-379,146	569,866	-0,054	-0,097
-378,131	141,445	-0,049	-0,047
-377,117	-84,297	0,054	-0,012
-376,102	534,096	-0,025	0,044
-375,088	-1,245	0,116	0,060
-374,073	328,724	-0,056	-0,079
-373,058	4,574	-0,076	0,041
-372,044	326,110	0,040	-0,056
-371,029	-27,870	0,092	0,039
-370,015	-200,000	0,017	0,062
-369,000	164,619	-0,028	0,029
-367,985	82,031	0,082	0,065
-366,971	278,040	0,033	-0,043
-365,956	-33,454	-0,066	0,027
-364,942	-109,617	0,053	-0,008
-363,927	-69,822	0,101	-0,028
-362,912	762,275	-0,057	0,115
-361,898	6,133	-0,070	-0,038
-360,883	261,829	-0,039	-0,050
-359,869	159,819	0,042	0,043
-358,854	161,890	0,039	0,040
-357,839	800,000	-0,055	0,144
-356,825	128,852	-0,086	0,081
-355,810	800,000	-0,042	0,133
-354,796	571,758	-0,006	0,011
-353,781	-200,000	0,003	-0,179
-352,766	-200,000	-0,002	-0,058
-351,752	-154,473	-0,123	-0,006
-350,737	75,897	-0,054	-0,042
-349,723	-200,000	0,006	0,075
-348,708	-200,000	0,022	-0,107
-347,693	-176,480	-0,088	-0,002
-346,679	113,700	-0,071	0,063
-345,664	347,082	-0,037	-0,053
-344,650	141,615	-0,087	-0,084
-343,635	-99,999	0,077	0,014
-342,620	-200,000	-0,026	0,106
-341,606	-200,000	0,012	0,062
-340,591	-163,171	-0,070	-0,002
-339,577	-69,800	0,134	-0,037
-338,562	66,207	-0,082	-0,061
-337,548	800,000	-0,031	0,064
-336,533	38,947	-0,141	-0,092
-335,518	-14,780	0,036	-0,017
-334,504	-19,010	0,040	0,018
-333,489	-200,000	-0,004	-0,015
-332,475	-200,000	-0,009	-0,047
-331,460	143,174	0,010	0,010
-330,445	-200,000	-0,038	0,132
-329,431	800,000	0,013	-0,034
-328,416	-200,000	-0,018	0,087
-327,402	227,524	0,008	-0,010
-326,387	-119,801	-0,108	0,013
-325,372	-200,000	-0,016	0,159
-324,358	-71,711	-0,089	0,024
-323,343	-19,752	0,041	0,019
-322,329	216,334	0,103	0,120
-321,314	-3,982	0,072	-0,037
-320,299	63,441	-0,089	0,065
-319,285	62,791	-0,096	0,070
-318,270	675,559	-0,028	0,053
-317,256	-109,552	0,110	-0,017
-316,241	51,543	-0,032	0,022
-315,226	-145,805	0,091	0,006
-314,212	800,000	-0,025	0,063
-313,197	-200,000	0,030	0,119
-312,183	-200,000	-0,030	0,129
-311,168	128,357	0,074	0,069
-310,153	189,772	0,087	-0,095
-309,139	355,358	-0,057	-0,084
-308,124	161,068	-0,068	-0,070
-307,110	326,277	0,108	0,152
-306,095	117,655	0,208	0,187
-305,080	7,508	-0,044	-0,024
-304,066	-3,551	-0,047	-0,024
-303,051	-200,000	0,012	-0,082
-302,037	-200,000	0,020	0,087
-301,022	-128,193	0,060	0,006
-300,008	196,397	-0,047	-0,052
-298,993	530,098	0,041	0,072
-297,978	-145,025	0,149	-0,010
-296,964	73,980	-0,084	0,065
-295,949	-67,443	-0,047	0,013
-294,935	-200,000	0,001	0,136
-293,920	-5,502	0,051	-0,025
-292,905	101,329	0,066	0,056
-291,891	315,746	0,021	0,030
-290,876	-8,200	0,171	0,084
-289,862	309,503	0,057	0,077
-288,847	-15,929	0,068	0,031
-287,832	137,932	0,050	-0,048
-286,818	-200,000	0,001	-0,041
-285,803	160,534	0,116	-0,119
-284,789	-33,052	-0,099	0,040
-283,774	55,345	0,085	-0,060
-282,759	234,278	0,085	-0,103
-281,745	428,908	-0,023	0,036
-280,730	-200,000	0,009	0,091
-279,716	-200,000	0,013	-0,074
-278,701	-111,784	0,084	0,012
-277,686	-146,292	0,047	-0,003
-276,672	800,000	0,032	-0,091
-275,657	275,452	-0,041	0,053
-274,643	-200,000	0,016	0,059
-273,628	442,073	-0,046	-0,073
-272,613	-141,545	-0,030	-0,002
-271,599	-200,000	-0,004	0,096
-270,584	800,000	0,058	0,124
-269,570	200,660	0,068	-0,077
-268,555	-200,000	0,017	0,059
-267,540	140,327	-0,033	0,032
-266,526	800,000	0,047	-0,098
-265,511	800,000	-0,013	-0,043
-264,497	-126,214	0,076	-0,008
-263,482	-139,269	0,202	0,016
-262,467	244,305	0,073	0,090
-261,453	443,586	-0,074	-0,119
-260,438	124,431	-0,063	-0,058
-259,424	76,347	0,035	-0,027
-258,409	800,000	-0,028	0,076
-257,395	-9,781	0,055	-0,027
-256,380	-87,479	0,137	-0,030
-255,365	800,000	0,025	0,078
-254,351	-37,386	0,163	-0,063
-253,336	-123,769	0,127	0,015
-252,322	-37,389	-0,072	-0,028
-251,307	36,827	-0,099	0,064
-250,292	220,393	0,053	-0,062
-249,278	42,473	0,058	-0,039
-248,263	130,066	0,088	-0,082
-247,249	-78,039	0,120	0,030
-246,234	791,261	-0,047	0,095
-245,219	-200,000	-0,037	-0,145
-244,205	800,000	-0,065	-0,185
-243,190	-42,083	0,152	-0,057
-242,176	-200,000	-0,004	-0,028
-241,161	357,542	0,043	0,062
-240,146	216,125	-0,052	0,061
-239,132	-200,000	-0,016	-0,059
-238,117	-11,807	0,019	-0,009
-237,103	-56,638	0,153	-0,049
-236,088	-200,000	0,014	-0,085
-235,073	82,123	0,003	-0,003
-234,059	309,716	-0,095	-0,130
-233,044	173,696	0,087	-0,092
-232,030	-61,854	0,024	-0,007
-231,015	-111,677	0,062	0,009
-230,000	-35,064	-0,165	0,065
-228,986	-31,056	0,049	0,020
-227,971	-200,000	-0,020	0,142
-226,957	239,079	0,105	0,127
-225,942	-200,000	-0,008	0,171
-224,927	132,932	-0,048	0,045
-223,913	-32,894	0,134	-0,054
-222,898	-95,376	0,022	-0,004
-221,884	-92,005	-0,169	0,035
-220,869	-49,813	0,037	0,013
-219,855	800,000	0,023	-0,058
-218,840	-9,641	0,138	0,067
-217,825	-52,917	0,037	0,012
-216,811	800,000	-0,034	0,090
-215,796	-200,000	0,001	0,008
-214,782	80,967	-0,039	-0,031
-213,767	-159,769	-0,154	-0,006
-212,752	148,085	0,156	0,154
-211,738	-122,769	-0,160	0,019
-210,723	60,659	0,049	-0,035
-209,709	-193,233	-0,085	0,001
-208,694	186,989	0,016	0,018
-207,679	800,000	-0,027	-0,061
-206,665	164,930	-0,069	0,072
-205,650	26,826	-0,074	0,045
-204,636	-71,678	0,133	0,036
-203,621	-43,180	-0,026	0,010
-202,606	-115,325	-0,041	0,006
-201,592	417,099	0,066	-0,103
-200,577	-200,000	-0,024	-0,176
-199,563	-37,933	0,017	-0,007
-198,548	-200,000	-0,020	0,137
-197,533	-74,666	0,078	0,020
-196,519	-107,742	-0,087	-0,014
-195,504	-172,380	-0,153	-0,003
-194,490	201,395	0,088	0,098
-193,475	3,556	-0,074	-0,039
-192,460	114,719	0,051	0,045
-191,446	-200,000	-0,024	0,159
-190,431	800,000	-0,036	0,084
-189,417	-82,502	0,081	0,019
-188,402	168,610	-0,080	-0,083
-187,387	800,000	0,030	-0,072
-186,373	-200,000	-0,021	-0,126
-185,358	-200,000	-0,028	-0,122
-184,344	153,456	-0,006	-0,006
-183,329	-172,760	0,024	0,001
-182,315	-137,552	-0,160	0,013
-181,300	99,128	0,052	-0,044
-180,285	-25,017	-0,054	-0,023
-179,271	800,000	0,025	-0,057
-178,256	800,000	0,008	0,022
-177,242	-36,070	-0,046	-0,018
-176,227	120,943	0,185	0,168
-175,212	47,154	0,044	-0,030
-174,198	-40,294	0,074	0,028
-173,183	-200,000	0,030	-0,120
-172,169	114,619	-0,019	0,017
-171,154	605,432	-0,032	0,059
-170,139	-14,611	0,050	0,023
-169,125	91,862	-0,064	0,053
-168,110	81,672	-0,052	-0,041
-167,096	-159,000	0,146	0,006
-166,081	421,344	-0,008	-0,012
-165,066	674,590	0,044	0,083
-164,052	800,000	0,030	0,070
-163,037	-39,914	0,090	-0,034
-162,023	-9,391	-0,074	-0,036
-161,008	95,134	-0,074	0,061
-159,993	800,000	0,004	0,011
-158,979	18,991	-0,080	-0,047
-157,964	-200,000	-0,022	-0,074
-156,950	800,000	-0,016	0,039
-155,935	800,000	-0,026	0,068
-154,920	-200,000	-0,002	0,154
-153,906	244,238	-0,080	0,098
-152,891	-200,000	0,021	0,088
-151,877	-200,000	0,026	-0,105
-150,862	-4,447	-0,128	-0,064
-149,847	298,401	-0,015	0,020
-148,833	12,702	0,075	-0,042
-147,818	-8,299	0,027	0,013
-146,804	-112,495	0,041	0,006
-145,789	393,248	-0,012	0,018
-144,775	23,625	-0,128	0,077
-143,760	-200,000	0,003	-0,142
-142,745	-29,025	-0,105	0,044
-141,731	-110,395	0,114	-0,017
-140,716	70,394	0,114	0,085
-139,702	248,013	0,026	-0,031
-138,687	800,000	-0,070	0,156
-137,672	-107,558	0,031	0,005
-136,658	366,784	-0,055	-0,080
-135,643	203,029	0,056	-0,063
-134,629	-109,337	0,074	-0,011
-133,614	-200,000	-0,027	0,122
-132,599	800,000	-0,038	0,094
-131,585	-200,000	0,013	-0,051
-130,570	288,370	-0,032	-0,043
-129,556	-105,006	-0,122	0,020
-128,541	-95,067	-0,064	0,013
-127,526	61,668	-0,052	0,037
-126,512	800,000	0,031	-0,089
-125,497	-200,000	-0,010	0,097
-124,483	-105,217	-0,068	0,011
-123,468	-200,000	0,004	-0,032
-122,453	800,000	0,033	0,076
-121,439	-66,600	0,156	-0,045
-120,424	378,143	-0,040	-0,060
-119,410	174,903	-0,039	-0,041
-118,395	476,927	-0,024	0,040
-117,380	482,607	-0,034	0,056
-116,366	-200,000	-0,004	0,062
-115,351	88,833	-0,087	0,070
-114,337	-166,873	-0,115	-0,003
-113,322	-52,324	-0,052	-0,017
-112,307	203,872	-0,011	-0,012
-111,293	267,558	0,063	-0,081
-110,278	-21,461	-0,148	-0,065
-109,264	-200,000	0,010	-0,057
-108,249	531,802	-0,042	0,073
-107,234	631,098	-0,018	0,034
-106,220	172,621	0,084	-0,088
-105,205	470,822	0,083	-0,137
-104,191	-135,826	0,060	-0,005
-103,176	313,371	0,093	0,127
-102,162	56,588	-0,173	0,122
-101,147	91,812	-0,073	-0,060
-100,132	-110,258	-0,129	0,019
-99,118	800,000	-0,039	-0,088
-98,103	-200,000	0,015	-0,146
-97,089	-200,000	0,002	0,034
-96,074	143,351	0,027	0,026
-95,059	22,628	-0,033	0,019
-94,045	303,625	0,080	-0,107
-93,030	-156,142	-0,058	-0,003
-92,016	800,000	0,060	-0,132
-91,001	-113,509	0,013	0,002
-89,986	287,699	-0,048	0,063
-88,972	800,000	-0,061	0,164
-87,957	252,170	-0,072	0,089
-86,943	-83,439	-0,086	-0,020
-85,928	-200,000	0,001	-0,062
-84,913	293,621	-0,099	-0,131
-83,899	-200,000	-0,041	0,141
-82,884	-200,000	0,024	0,100
-81,870	800,000	0,045	-0,097
-80,855	459,052	-0,013	-0,021
-79,840	-111,204	0,080	-0,012
-78,826	-42,588	-0,182	0,067
-77,811	11,664	0,083	0,046
-76,797	-111,189	0,162	-0,024
-75,782	-200,000	-0,008	0,067
-74,767	-200,000	0,019	-0,070
-73,753	97,866	0,109	-0,091
-72,738	108,498	-0,042	0,036
-71,724	84,766	-0,090	-0,072
-70,709	-200,000	0,018	-0,135
-69,694	384,037	0,044	0,066
-68,680	74,824	0,041	0,031
-67,665	-200,000	-0,004	-0,080
-66,651	-177,466	0,085	0,001
-65,636	-55,198	-0,116	0,038
-64,622	-154,591	-0,130	-0,006
-63,607	241,457	-0,019	-0,024
-62,592	85,202	0,018	-0,014
-61,578	800,000	-0,026	-0,068
-60,563	-200,000	0,017	0,128
-59,549	218,216	-0,085	0,099
-58,534	-86,078	-1,428	-0,317
-57,519	468,038	-0,837	-1,366
-56,505	-200,000	-0,848	-4,530
-55,490	-55,125	0,531	-0,172
-54,476	800,000	5,136	11,756
-53,461	-200,000	14,226	253,382
-52,446	-200,000	696,370	2228,780
-51,432	565,816	1624,673	2866,536
-50,417	116,810	1630,699	1450,150
-49,403	73,097	1284,483	971,769
-48,388	37,440	1022,032	655,239
-47,373	23,619	980,620	583,324
-46,359	22,819	970,119	574,439
-45,344	21,790	965,894	568,559
-44,330	21,741	964,426	567,510
-43,315	21,657	962,902	566,318
-42,300	21,620	962,091	565,700
-41,286	21,632	960,917	565,027
-40,271	21,633	959,781	564,339
-39,257	21,560	958,923	563,574
-38,242	21,536	958,045	562,958
-37,227	21,556	957,194	562,501
-36,213	21,537	956,274	561,876
-35,198	21,559	955,374	561,396
-34,184	21,562	954,802	561,050
-33,169	21,512	953,934	560,354
-32,154	21,587	952,972	560,011
-31,140	21,624	952,195	559,648
-30,125	21,643	951,399	559,221
-29,111	21,583	950,510	558,482
-28,096	21,534	950,062	558,042
-27,082	21,597	949,294	557,769
-26,067	21,625	948,423	557,325
-25,052	21,618	947,651	556,828
-24,038	21,664	947,014	556,579
-23,023	21,649	946,405	556,150
-22,009	21,598	945,798	555,608
-20,994	21,612	944,930	555,121
-19,979	21,669	944,411	554,976
-18,965	21,590	943,855	554,376
-17,950	21,565	943,374	553,992
-16,936	21,529	942,598	553,398
-15,921	21,563	941,698	552,956
-14,906	21,497	941,015	552,324
-13,892	21,533	940,432	552,075
-12,877	21,576	939,852	551,848
-11,863	21,472	939,303	551,174
-10,848	21,541	938,611	550,964
-9,833	21,597	938,358	550,970
-8,819	21,597	937,775	550,607
-7,804	21,461	937,158	549,795
-6,790	21,506	936,354	549,442
-5,775	21,531	935,710	549,120
-4,760	21,519	935,172	548,746
-3,746	21,426	934,757	548,188
-2,731	21,302	934,063	547,366
-1,717	21,294	933,075	546,743
-0,702	21,319	932,503	546,462
0,313	21,125	931,929	546,343
1,327	24,085	929,834	554,350
2,342	33,298	793,378	497,448
3,356	30,817	450,551	278,739
4,371	0,702	294,387	152,021
5,386	-3,556	275,396	138,166
6,400	-4,915	269,630	133,998
7,415	-5,272	267,251	132,475
8,429	-5,108	266,318	132,151
9,444	-5,014	265,171	131,656
10,459	-5,065	264,657	131,342
11,473	-5,184	264,074	130,934
12,488	-5,331	263,497	130,502
13,502	-5,275	263,001	130,295
14,517	-5,289	262,551	130,048
15,531	-5,252	262,152	129,872
16,546	-5,106	261,616	129,727
17,561	-5,258	261,472	129,507
18,575	-4,969	261,207	129,624
19,590	-5,263	260,670	129,082
20,604	-5,164	260,502	129,076
21,619	-5,332	260,180	128,755
22,634	-5,264	259,702	128,568
23,648	-5,345	259,592	128,430
24,663	-5,347	259,305	128,274
25,677	-5,173	258,989	128,262
26,692	-5,291	258,767	128,035
27,707	-5,423	258,688	127,867
28,721	-5,229	258,277	127,825
29,736	-5,406	258,062	127,549
30,750	-5,467	257,657	127,284
31,765	-5,254	257,444	127,356
32,780	-5,308	257,200	127,177
33,794	-5,221	256,930	127,109
34,809	-5,379	256,777	126,882
35,823	-5,412	256,554	126,731
36,838	-5,210	256,208	126,727
37,853	-5,315	256,041	126,541
38,867	-5,329	255,876	126,436
39,882	-5,376	255,588	126,241
40,896	-5,519	255,518	126,070
41,911	-5,441	255,082	125,911
42,926	-5,389	254,961	125,886
43,940	-5,485	254,838	125,730
44,955	-5,239	254,370	125,702
45,969	-5,501	254,199	125,378
46,984	-5,638	253,891	125,095
47,999	-5,723	253,683	124,908
49,013	-5,917	253,441	124,609
50,028	-6,020	253,363	124,469
51,042	-6,209	253,037	124,134
52,057	-5,905	252,708	124,225
53,071	-6,232	252,678	123,916
54,086	-5,856	252,407	124,098
55,101	-5,913	252,344	124,007
56,115	-5,771	252,183	124,039
57,130	-5,197	252,036	124,453
58,144	-4,968	251,766	124,506
59,159	-5,059	251,655	124,362
60,174	-5,229	251,412	124,084
61,188	-5,229	251,191	123,963
62,203	-5,241	251,003	123,850
63,217	-5,181	250,739	123,759
64,232	-5,147	250,579	123,698
65,247	-5,070	250,403	123,667
66,261	-5,182	250,092	123,406
67,276	-5,408	249,891	123,103
68,290	-5,593	249,689	122,833
69,305	-5,719	249,470	122,607
70,320	-5,784	249,340	122,477
71,334	-5,308	249,008	122,709
72,349	-5,405	248,943	122,584
73,363	-5,115	248,816	122,757
74,378	-4,941	248,529	122,752
75,393	-5,211	248,359	122,428
76,407	-5,291	248,237	122,289
77,422	-5,373	248,007	122,095
78,436	-5,407	247,791	121,949
79,451	-5,100	247,560	122,085
80,466	-5,126	247,124	121,837
81,480	-5,392	246,920	121,501
82,495	-5,572	246,810	121,284
83,509	-5,505	246,727	121,288
84,524	-5,554	246,554	121,151
85,539	-5,702	246,137	120,811
86,553	-5,566	246,078	120,886
87,568	-5,616	246,005	120,797
88,582	-5,584	245,806	120,715
89,597	-5,616	245,560	120,557
90,611	-5,238	245,305	120,738
91,626	-5,331	245,426	120,709
92,641	-5,254	245,182	120,643
93,655	-5,296	244,885	120,451
94,670	-5,371	244,572	120,223
95,684	-5,371	244,346	120,102
96,699	-5,368	244,290	120,065
97,714	-5,518	244,095	119,834
98,728	-5,530	243,935	119,735
99,743	-5,578	243,733	119,585
100,757	-5,652	243,528	119,412
101,772	-5,491	243,248	119,398
102,787	-5,692	243,179	119,186
103,801	-5,554	243,000	119,202
104,816	-5,359	242,902	119,306
105,830	-5,305	242,709	119,245
106,845	-5,275	242,619	119,215
107,860	-5,242	242,231	119,041
108,874	-5,322	242,012	118,857
109,889	-5,607	241,895	118,553
110,903	-5,458	241,609	118,525
111,918	-5,350	241,488	118,544
112,933	-5,364	241,275	118,418
113,947	-5,421	241,265	118,355
114,962	-5,462	241,075	118,218
115,976	-5,126	240,870	118,383
116,991	-5,241	240,737	118,212
118,006	-5,306	240,600	118,081
119,020	-5,398	240,525	117,959
120,035	-5,294	240,413	117,979
121,049	-5,280	240,163	117,857
122,064	-5,262	240,043	117,802
123,079	-5,273	239,727	117,627
124,093	-5,502	239,486	117,311
125,108	-5,361	239,194	117,273
126,122	-5,689	239,091	116,944
127,137	-5,804	238,823	116,709
128,151	-5,769	238,868	116,749
129,166	-5,633	238,676	116,756
130,181	-5,680	238,513	116,627
131,195	-5,445	238,174	116,642
132,210	-5,390	238,111	116,645
133,224	-5,385	238,087	116,627
134,239	-5,352	237,839	116,522
135,254	-5,291	237,506	116,399
136,268	-5,309	237,420	116,331
137,283	-5,627	237,204	115,959
138,297	-5,680	236,977	115,794
139,312	-5,707	236,882	115,715
140,327	-5,393	236,679	115,859
141,341	-5,224	236,716	116,003
142,356	-4,974	236,531	116,103
143,370	-5,051	236,348	115,941
144,385	-4,850	236,171	116,006
145,400	-5,087	236,220	115,830
146,414	-4,773	235,726	115,828
147,429	-4,877	235,646	115,695
148,443	-4,941	235,447	115,536
149,458	-4,906	235,172	115,419
150,473	-4,991	235,155	115,333
151,487	-5,175	234,988	115,093
152,502	-5,012	234,826	115,133
153,516	-5,099	234,634	114,960
154,531	-5,077	234,394	114,850
155,546	-5,046	234,217	114,777
156,560	-5,233	234,117	114,569
157,575	-5,186	233,860	114,470
158,589	-5,205	233,742	114,387
159,604	-4,870	233,609	114,578
160,619	-5,034	233,360	114,316
161,633	-4,780	233,264	114,460
162,648	-4,740	233,121	114,411
163,662	-5,128	233,036	114,052
164,677	-5,265	232,947	113,890
165,692	-5,192	232,677	113,805
166,706	-4,878	232,664	114,037
167,721	-5,017	232,402	113,789
168,735	-4,910	232,289	113,808
169,750	-5,104	232,171	113,586
170,764	-5,090	232,086	113,546
171,779	-4,985	231,866	113,511
172,794	-5,065	231,792	113,402
173,808	-5,172	231,472	113,151
174,823	-5,408	231,165	112,805
175,837	-5,541	230,848	112,536
176,852	-5,132	230,875	112,861
177,867	-5,170	230,854	112,810
178,881	-5,058	230,559	112,744
179,896	-4,678	230,417	112,961
180,910	-4,924	230,447	112,773
181,925	-5,020	230,296	112,614
182,940	-4,784	230,059	112,673
183,954	-5,034	230,012	112,445
184,969	-4,719	229,808	112,581
185,983	-4,651	229,634	112,538
186,998	-4,529	229,616	112,615
188,013	-4,966	229,343	112,131
189,027	-4,682	229,166	112,255
190,042	-4,831	229,058	112,076
191,056	-4,696	228,715	112,003
192,071	-4,844	228,676	111,859
193,086	-4,930	228,556	111,724
194,100	-4,853	228,401	111,698
195,115	-5,215	228,083	111,253
196,129	-5,233	227,913	111,146
197,144	-2,382	228,825	113,791
198,159	1,824	229,968	117,619
199,173	3,910	230,328	119,414
200,188	3,872	230,368	119,395
201,202	3,636	230,305	119,168
202,217	4,130	230,146	119,459
203,232	4,288	229,890	119,437
204,246	4,280	229,945	119,449
205,261	4,284	229,755	119,343
206,275	4,380	229,647	119,350
207,290	4,632	229,464	119,439
208,304	4,709	229,274	119,389
209,319	4,462	229,148	119,122
210,334	4,579	228,907	119,077
211,348	4,234	228,695	118,690
212,363	3,923	228,447	118,311
213,377	3,660	228,305	118,026
214,392	3,603	228,220	117,928
215,407	3,524	228,152	117,820
216,421	3,756	227,829	117,822
217,436	3,903	227,572	117,791
218,450	3,518	227,368	117,380
219,465	3,373	227,133	117,137
220,480	3,590	227,155	117,304
221,494	3,486	227,088	117,179
222,509	3,715	226,955	117,275
223,523	3,523	227,030	117,157
224,538	3,541	226,644	116,961
225,553	3,707	226,466	116,985
226,567	4,000	226,333	117,129
227,582	3,866	226,310	117,005
228,596	4,110	226,248	117,147
229,611	4,025	225,889	116,887
230,626	3,556	225,641	116,392
231,640	3,703	225,563	116,453
232,655	4,177	225,467	116,753
233,669	4,382	225,497	116,913
234,684	4,443	225,319	116,857
235,699	4,367	225,066	116,658
236,713	3,798	224,955	116,160
237,728	3,543	224,834	115,894
238,742	3,732	224,501	115,855
239,757	3,579	224,345	115,648
240,772	3,663	224,293	115,675
241,786	3,644	224,064	115,532
242,801	4,002	224,033	115,775
243,815	4,059	224,005	115,793
244,830	4,019	223,896	115,696
245,844	3,901	223,659	115,475
246,859	3,758	223,480	115,265
247,874	3,838	223,373	115,259
248,888	4,107	223,186	115,354
249,903	3,993	222,968	115,146
250,917	3,641	222,894	114,834
251,932	3,613	222,731	114,719
252,947	3,525	222,564	114,557
253,961	3,510	222,315	114,408
254,976	3,646	222,193	114,436
255,990	4,078	222,223	114,763
257,005	3,932	222,202	114,634
258,020	4,019	221,939	114,552
259,034	3,994	221,885	114,496
260,049	3,841	221,698	114,275
261,063	4,007	221,335	114,200
262,078	3,886	221,455	114,163
263,093	4,104	221,177	114,171
264,107	4,207	220,933	114,111
265,122	3,954	221,067	113,982
266,136	3,997	220,993	113,966
267,151	4,288	220,562	113,949
268,166	3,867	220,379	113,533
269,180	3,538	220,163	113,169
270,195	3,447	220,008	113,012
271,209	3,555	219,882	113,017
272,224	3,721	219,878	113,127
273,239	3,813	219,720	113,104
274,253	3,737	219,644	112,999
275,268	3,677	219,343	112,789
276,282	3,460	219,126	112,508
277,297	3,362	219,003	112,363
278,312	3,142	219,058	112,220
279,326	3,777	218,794	112,540
280,341	3,824	218,647	112,489
281,355	3,805	218,446	112,361
282,370	3,722	218,458	112,297
283,384	3,432	218,163	111,924
284,399	3,392	218,058	111,830
285,414	3,608	217,868	111,880
286,428	3,769	217,897	112,003
287,443	3,853	217,731	111,969
288,457	3,671	217,603	111,761
289,472	3,690	217,400	111,660
290,487	3,367	217,054	111,238
291,501	3,308	217,049	111,183
292,516	3,189	217,007	111,065
293,530	3,464	216,848	111,173
294,545	3,286	216,740	110,979
295,560	3,352	216,679	110,985
296,574	3,623	216,426	111,042
297,589	3,587	216,230	110,905
298,603	3,589	216,189	110,875
299,618	3,961	216,133	111,106
300,633	3,649	216,042	110,824
301,647	4,179	215,849	111,098
302,662	4,055	215,762	110,953
303,676	3,998	215,562	110,799
304,691	4,154	215,485	110,862
305,706	3,793	215,309	110,502
306,720	3,792	215,234	110,453
307,735	3,668	214,854	110,159
308,749	3,658	214,722	110,075
309,764	3,790	214,795	110,197
310,779	3,928	214,702	110,238
311,793	3,925	214,428	110,086
312,808	3,751	214,288	109,879
313,822	3,822	214,151	109,850
314,837	3,776	213,818	109,637
315,852	3,387	213,859	109,370
316,866	3,633	213,750	109,480
317,881	3,806	213,644	109,540
318,895	4,037	213,507	109,625
319,910	3,928	213,295	109,428
320,925	3,354	213,103	108,912
321,939	3,277	212,954	108,771
322,954	3,574	212,833	108,911
323,968	3,712	212,923	109,044
324,983	3,770	212,859	109,044
325,997	4,167	212,569	109,167
327,012	3,575	212,412	108,657
328,027	3,713	212,302	108,688
329,041	4,043	212,123	108,820
330,056	4,219	212,045	108,895
331,070	3,921	211,911	108,606
332,085	3,407	211,571	108,060
333,100	3,553	211,524	108,129
334,114	3,895	211,296	108,244
335,129	3,905	211,145	108,164
336,143	3,658	210,982	107,897
337,158	3,576	210,959	107,818
338,173	3,856	210,862	107,955
339,187	3,437	210,706	107,573
340,202	3,378	210,433	107,381
341,216	3,188	210,471	107,259
342,231	3,409	210,299	107,316
343,246	3,358	210,263	107,252
344,260	3,631	210,016	107,307
345,275	3,632	209,911	107,245
346,289	3,760	209,915	107,327
347,304	3,887	209,802	107,348
348,319	3,809	209,523	107,142
349,333	3,834	209,335	107,053
350,348	3,948	209,226	107,067
351,362	3,955	209,191	107,045
352,377	3,718	209,249	106,900
353,392	3,853	208,917	106,815
354,406	3,964	208,816	106,830
355,421	195,096	1343,396	1433,628
356,435	155,735	1481,717	1433,730
