DTS Sentinel unit serial number:	SN410029Multiplexer serial number:	ORYXHardware model number:	OX2-SRSoftware version number:	ORYX F/W v4,00 Oryx Data Collector v3.7.2.0data status	okinstallation	B6 Nyhavnadifferential loss correction	single-endedforward channel	channel 2reverse channel	N/Adate	2023/12/09time	18:25:08forward acquisition time	300,00reverse acquisition time	0,00gamma	499,1914k internal	0,3130k external	0,3130temperature offset calibration	1,0000default loss term (dB/km)	0,3820temperature slope calibration	1,0000multiplexer offset coefficient	1,0000multiplexer slope coefficient	1,0000fibre end	0,00T internal ref (°C)	21,04T ext. ref 1 (°C)	4,71T ext. ref 2 (°C)	4,72length (m)	temperature (°C)	Stokes	anti-Stokes-744,400	39,975	0,066	-0,044
-743,385	135,840	-0,226	0,219
-742,371	121,109	0,117	0,108
-741,356	-142,087	-0,168	0,012
-740,342	118,941	0,034	0,031
-739,327	-78,539	-0,153	0,039
-738,312	305,274	0,073	-0,101
-737,298	-112,154	-0,300	-0,044
-736,283	-135,019	0,197	0,017
-735,269	-164,351	-0,320	0,011
-734,254	-147,701	0,123	0,008
-733,239	-55,397	-0,492	-0,163
-732,225	-52,225	-0,011	-0,004
-731,210	-69,311	-0,145	-0,041
-730,196	-64,368	0,090	-0,027
-729,181	-32,759	-0,058	0,024
-728,167	-200,000	-0,020	-0,075
-727,152	-200,000	0,006	0,092
-726,137	-200,000	-0,028	-0,107
-725,123	-200,000	-0,009	-0,068
-724,108	-200,000	-0,039	-0,207
-723,094	127,741	-0,021	-0,020
-722,079	-200,000	-0,003	0,018
-721,064	2,849	0,111	-0,060
-720,050	-200,000	-0,015	-0,050
-719,035	19,386	-0,087	0,052
-718,021	-193,023	-0,163	0,001
-717,006	92,308	-0,071	0,060
-715,991	309,773	-0,072	0,100
-714,977	-200,000	0,011	-0,124
-713,962	-200,000	0,048	-0,160
-712,948	-104,337	0,090	0,015
-711,933	-200,000	-0,020	0,096
-710,918	65,012	0,107	0,080
-709,904	24,905	-0,059	-0,036
-708,889	7,254	-0,045	0,025
-707,875	800,000	0,075	-0,184
-706,860	314,181	0,037	-0,052
-705,845	-40,111	0,053	-0,021
-704,831	441,276	-0,074	0,121
-703,816	7,183	-0,024	0,013
-702,802	-200,000	-0,007	0,070
-701,787	8,495	-0,092	-0,051
-700,772	-116,802	-0,070	-0,009
-699,758	-200,000	0,025	-0,133
-698,743	-134,113	0,054	0,005
-697,729	-119,144	0,046	-0,006
-696,714	-109,399	0,037	-0,006
-695,699	-200,000	0,005	-0,062
-694,685	800,000	-0,066	-0,138
-693,670	800,000	-0,020	-0,062
-692,656	-200,000	0,025	-0,111
-691,641	-122,477	0,102	-0,012
-690,627	-92,611	-0,107	0,022
-689,612	800,000	0,021	-0,046
-688,597	-200,000	0,016	-0,070
-687,583	-200,000	-0,007	-0,038
-686,568	-200,000	0,012	-0,144
-685,554	800,000	-0,009	0,019
-684,539	218,317	0,069	0,082
-683,524	648,696	-0,045	0,086
-682,510	-200,000	-0,017	0,066
-681,495	661,573	0,020	-0,039
-680,481	-112,486	0,034	-0,005
-679,466	-29,745	-0,101	-0,043
-678,451	-200,000	0,007	-0,137
-677,437	-200,000	0,003	-0,064
-676,422	800,000	0,052	0,141
-675,408	-0,611	-0,102	-0,054
-674,393	162,172	-0,033	0,034
-673,378	282,981	-0,093	-0,124
-672,364	167,777	-0,069	0,072
-671,349	164,030	0,042	0,044
-670,335	-86,045	-0,043	-0,010
-669,320	293,979	-0,031	-0,041
-668,305	800,000	-0,024	-0,060
-667,291	-200,000	-0,004	0,030
-666,276	225,096	-0,115	-0,138
-665,262	800,000	0,034	-0,084
-664,247	-200,000	-0,009	0,110
-663,232	-200,000	-0,022	0,075
-662,218	-39,971	-0,048	-0,019
-661,203	103,067	-0,047	-0,041
-660,189	701,644	0,019	-0,037
-659,174	-200,000	-0,016	-0,153
-658,159	-200,000	-0,033	-0,146
-657,145	-200,000	0,001	-0,015
-656,130	15,245	-0,078	0,045
-655,116	98,098	0,027	0,023
-654,101	-200,000	0,020	-0,079
-653,086	0,809	0,073	0,039
-652,072	320,936	-0,079	0,111
-651,057	800,000	0,043	-0,098
-650,043	76,089	0,029	-0,022
-649,028	-66,321	-0,081	0,024
-648,014	-200,000	0,027	-0,127
-646,999	-10,067	0,032	-0,016
-645,984	310,162	-0,073	0,101
-644,970	83,523	-0,143	-0,116
-643,955	-27,697	-0,046	0,020
-642,941	-78,461	-0,130	-0,033
-641,926	-182,201	0,072	0,001
-640,911	800,000	0,032	0,071
-639,897	151,346	-0,075	0,076
-638,882	-71,314	0,138	0,038
-637,868	-200,000	0,034	-0,111
-636,853	18,730	-0,091	0,054
-635,838	-14,729	-0,105	-0,050
-634,824	108,581	-0,028	-0,025
-633,809	162,902	0,089	0,093
-632,795	800,000	-0,064	0,136
-631,780	-118,492	0,146	0,019
-630,765	343,817	-0,043	0,063
-629,751	350,205	-0,079	0,116
-628,736	208,614	-0,127	-0,147
-627,722	-200,000	0,005	-0,063
-626,707	-30,625	0,139	-0,058
-625,692	-200,000	0,019	-0,108
-624,678	388,695	0,043	0,067
-623,663	-200,000	-0,021	-0,170
-622,649	-200,000	0,002	-0,091
-621,634	-200,000	0,001	-0,005
-620,619	-200,000	-0,029	0,116
-619,605	-69,831	-0,090	-0,025
-618,590	128,084	-0,041	0,039
-617,576	98,228	-0,055	-0,047
-616,561	-99,592	0,051	0,009
-615,546	107,262	-0,019	0,017
-614,532	409,633	-0,023	-0,037
-613,517	91,440	0,088	0,073
-612,503	-34,298	0,070	0,028
-611,488	-140,129	-0,020	-0,002
-610,474	-200,000	-0,037	0,130
-609,459	-51,536	-0,025	-0,009
-608,444	-200,000	0,002	-0,042
-607,430	-200,000	-0,025	0,090
-606,415	306,874	-0,020	-0,028
-605,401	50,665	0,099	-0,069
-604,386	311,902	0,023	0,032
-603,371	444,449	-0,013	0,021
-602,357	170,257	0,008	-0,008
-601,342	-200,000	0,021	-0,131
-600,328	-88,607	-0,063	0,014
-599,313	12,638	-0,039	0,022
-598,298	28,801	-0,026	0,016
-597,284	-200,000	0,001	-0,089
-596,269	-200,000	-0,019	0,063
-595,255	800,000	-0,032	-0,088
-594,240	66,034	0,011	0,009
-593,225	-44,804	0,039	-0,014
-592,211	-170,301	-0,058	0,001
-591,196	-83,799	-0,032	0,008
-590,182	-200,000	-0,003	-0,045
-589,167	14,273	-0,053	-0,030
-588,152	-117,951	0,146	-0,019
-587,138	-135,333	0,149	0,013
-586,123	727,782	0,012	-0,023
-585,109	-0,831	-0,161	0,084
-584,094	124,790	-0,143	0,133
-583,079	-6,453	-0,112	0,056
-582,065	800,000	0,025	-0,058
-581,050	229,072	0,039	0,048
-580,036	-63,296	0,099	-0,030
-579,021	-200,000	0,002	-0,108
-578,006	137,374	-0,095	-0,092
-576,992	-128,269	-0,103	-0,011
-575,977	-118,342	-0,068	0,009
-574,963	-104,185	0,103	-0,017
-573,948	-200,000	0,031	0,136
-572,934	800,000	0,043	0,100
-571,919	-200,000	-0,042	-0,142
-570,904	-200,000	-0,016	-0,065
-569,890	800,000	0,009	0,020
-568,875	-200,000	-0,038	0,161
-567,861	78,885	0,133	0,105
-566,846	575,662	0,061	0,110
-565,831	27,765	-0,100	-0,062
-564,817	-10,027	-0,088	0,043
-563,802	116,031	-0,047	-0,043
-562,788	22,349	0,073	0,044
-561,773	76,293	0,062	-0,049
-560,758	-94,023	0,098	-0,020
-559,744	323,308	-0,035	-0,050
-558,729	69,148	0,062	-0,047
-557,715	800,000	-0,021	-0,057
-556,700	27,792	-0,018	0,011
-555,685	-200,000	-0,007	-0,061
-554,671	11,741	-0,084	-0,047
-553,656	-24,699	0,092	-0,040
-552,642	800,000	-0,021	-0,054
-551,627	-158,899	-0,067	0,003
-550,612	800,000	-0,027	-0,087
-549,598	800,000	-0,042	0,112
-548,583	-37,850	-0,125	0,049
-547,569	-200,000	0,022	-0,160
-546,554	19,416	0,173	-0,102
-545,539	-200,000	0,043	-0,184
-544,525	800,000	-0,076	0,163
-543,510	450,573	-0,063	-0,104
-542,496	-93,061	-0,158	-0,032
-541,481	-139,495	-0,107	-0,008
-540,466	41,494	0,028	-0,019
-539,452	-16,344	0,154	-0,072
-538,437	800,000	0,032	0,068
-537,423	161,290	0,009	0,009
-536,408	800,000	-0,015	-0,037
-535,393	-166,176	-0,105	0,003
-534,379	45,706	0,024	0,017
-533,364	-200,000	0,006	-0,036
-532,350	401,314	0,083	0,129
-531,335	800,000	0,059	0,129
-530,321	-161,792	0,129	0,005
-529,306	-200,000	-0,001	0,039
-528,291	-200,000	-0,002	0,042
-527,277	19,671	0,078	0,046
-526,262	546,014	-0,016	-0,028
-525,248	-56,310	0,107	-0,035
-524,233	-92,089	0,119	0,025
-523,218	800,000	-0,037	0,107
-522,204	176,128	-0,060	-0,065
-521,189	-109,980	-0,059	-0,009
-520,175	800,000	0,050	0,156
-519,160	-112,305	0,174	0,025
-518,145	-200,000	-0,027	-0,149
-517,131	24,518	0,097	0,059
-516,116	113,571	-0,046	-0,041
-515,102	-68,288	-0,090	-0,026
-514,087	-77,171	-0,105	-0,027
-513,072	-130,997	-0,146	-0,014
-512,058	109,118	0,069	-0,061
-511,043	800,000	0,043	-0,091
-510,029	238,522	-0,095	-0,117
-509,014	600,707	0,088	0,161
-507,999	-108,787	0,056	0,009
-506,985	800,000	-0,017	0,046
-505,970	231,775	0,019	0,023
-504,956	800,000	-0,021	0,065
-503,941	-120,531	-0,132	0,016
-502,926	800,000	0,087	0,191
-501,912	-155,989	0,111	0,005
-500,897	-200,000	0,040	0,164
-499,883	157,390	0,072	-0,073
-498,868	694,200	-0,018	-0,035
-497,853	-200,000	-0,008	-0,111
-496,839	50,091	0,193	-0,134
-495,824	-200,000	0,002	-0,010
-494,810	-200,000	-0,002	-0,112
-493,795	3,488	0,063	0,033
-492,781	100,014	-0,049	0,042
-491,766	11,737	0,139	-0,078
-490,751	-15,768	-0,092	0,043
-489,737	800,000	0,029	-0,061
-488,722	5,510	0,044	-0,024
-487,708	183,097	0,046	-0,050
-486,693	-43,991	-0,051	0,019
-485,678	-74,038	-0,065	-0,017
-484,664	-69,506	-0,056	-0,016
-483,649	9,857	0,107	-0,060
-482,635	18,133	0,042	0,024
-481,620	60,579	0,054	-0,040
-480,605	421,880	0,008	-0,012
-479,591	-145,071	0,043	0,003
-478,576	94,426	-0,055	0,046
-477,562	-92,762	-0,106	0,022
-476,547	117,065	0,022	0,020
-475,532	-200,000	-0,006	0,033
-474,518	-42,723	-0,109	-0,041
-473,503	800,000	0,054	0,111
-472,489	-200,000	-0,020	0,138
-471,474	-200,000	-0,000	-0,113
-470,459	12,051	-0,062	-0,035
-469,445	-200,000	-0,002	0,044
-468,430	-153,031	0,139	0,007
-467,416	-93,008	-0,083	-0,017
-466,401	-104,958	-0,079	-0,013
-465,386	-200,000	-0,013	0,044
-464,372	-98,554	-0,120	-0,022
-463,357	311,703	-0,060	0,083
-462,343	-127,746	-0,136	-0,014
-461,328	391,246	0,081	-0,125
-460,313	-56,008	0,058	0,019
-459,299	425,128	0,040	-0,063
-458,284	-74,883	-0,055	-0,014
-457,270	-132,275	-0,165	0,015
-456,255	3,164	0,147	0,078
-455,241	-139,861	0,203	0,016
-454,226	-182,572	-0,084	-0,001
-453,211	-157,095	-0,032	-0,001
-452,197	-161,393	0,119	-0,004
-451,182	-200,000	-0,007	0,029
-450,168	-131,227	0,085	0,008
-449,153	800,000	0,029	-0,079
-448,138	318,845	-0,092	-0,129
-447,124	512,578	-0,053	-0,091
-446,109	-200,000	0,025	0,082
-445,095	-200,000	0,014	0,125
-444,080	800,000	0,081	0,209
-443,065	-73,727	0,072	-0,019
-442,051	96,111	-0,065	-0,055
-441,036	800,000	0,014	-0,042
-440,022	-200,000	-0,012	-0,094
-439,007	-50,880	-0,052	0,018
-437,992	-111,341	-0,118	0,017
-436,978	-200,000	-0,034	0,157
-435,963	162,697	0,051	-0,052
-434,949	-200,000	-0,028	-0,123
-433,934	88,786	-0,104	-0,085
-432,919	-22,108	-0,054	0,024
-431,905	53,932	-0,076	0,054
-430,890	-82,609	0,134	0,032
-429,876	800,000	-0,037	0,084
-428,861	-102,699	0,059	0,010
-427,846	31,014	-0,017	0,010
-426,832	3,870	-0,029	-0,016
-425,817	800,000	0,048	-0,110
-424,803	204,859	0,062	0,071
-423,788	800,000	-0,021	0,061
-422,773	-76,968	0,070	0,018
-421,759	328,222	-0,049	0,070
-420,744	55,724	-0,062	-0,044
-419,730	-54,008	-0,143	0,047
-418,715	800,000	0,036	-0,095
-417,701	-200,000	-0,012	-0,054
-416,686	-36,509	-0,062	0,024
-415,671	800,000	-0,056	-0,132
-414,657	216,414	-0,078	0,091
-413,642	21,825	0,083	-0,050
-412,628	145,641	-0,054	-0,053
-411,613	543,921	-0,088	-0,156
-410,598	45,144	0,095	0,064
-409,584	233,730	0,011	0,013
-408,569	226,172	-0,090	0,107
-407,555	174,098	-0,071	-0,075
-406,540	108,096	-0,078	0,068
-405,525	51,860	-0,052	-0,036
-404,511	220,858	0,011	-0,013
-403,496	232,208	-0,098	-0,119
-402,482	28,149	0,078	0,048
-401,467	-73,545	-0,110	0,029
-400,452	-78,722	0,053	-0,013
-399,438	11,446	-0,047	-0,026
-398,423	229,315	-0,074	-0,088
-397,409	-111,683	0,136	0,020
-396,394	312,440	-0,056	-0,078
-395,379	183,113	-0,102	-0,111
-394,365	40,473	0,078	0,052
-393,350	-200,000	-0,017	0,057
-392,336	142,950	0,155	0,151
-391,321	248,850	-0,057	0,071
-390,306	-161,143	-0,130	0,005
-389,292	-26,951	0,149	-0,064
-388,277	547,482	0,101	-0,177
-387,263	55,030	0,099	-0,070
-386,248	686,915	-0,043	0,082
-385,233	-200,000	0,033	0,115
-384,219	22,060	-0,171	0,102
-383,204	-75,390	-0,157	-0,041
-382,190	47,513	0,026	0,018
-381,175	235,326	0,079	0,096
-380,160	-114,841	0,213	-0,029
-379,146	-200,000	0,006	0,068
-378,131	354,775	0,035	0,052
-377,117	-200,000	-0,001	-0,019
-376,102	-200,000	-0,020	-0,064
-375,088	285,751	-0,047	0,062
-374,073	-132,290	-0,045	0,004
-373,058	127,796	-0,080	0,074
-372,044	65,921	0,079	0,059
-371,029	155,686	0,083	-0,084
-370,015	-30,358	0,032	0,013
-369,000	117,577	-0,125	0,113
-367,985	-200,000	0,012	-0,042
-366,971	384,524	0,062	0,094
-365,956	-34,216	-0,119	-0,048
-364,942	-55,048	0,078	-0,026
-363,927	800,000	-0,053	0,114
-362,912	-134,291	-0,049	-0,004
-361,898	-200,000	-0,024	0,132
-360,883	800,000	-0,017	-0,050
-359,869	800,000	-0,065	0,171
-358,854	-200,000	-0,008	-0,053
-357,839	67,832	0,044	0,033
-356,825	-36,492	0,112	-0,044
-355,810	686,561	0,033	-0,064
-354,796	501,038	0,057	0,097
-353,781	-121,794	0,241	0,029
-352,766	-200,000	-0,023	0,147
-351,752	-163,536	-0,029	0,001
-350,737	-150,504	0,065	-0,004
-349,723	87,857	-0,087	-0,071
-348,708	66,277	0,036	-0,027
-347,693	800,000	-0,019	0,049
-346,679	80,499	-0,096	0,076
-345,664	219,924	-0,093	0,109
-344,650	-147,626	0,036	-0,002
-343,635	-200,000	-0,016	0,075
-342,620	-200,000	0,018	-0,084
-341,606	205,969	-0,013	0,014
-340,591	-200,000	0,015	-0,060
-339,577	-200,000	0,001	-0,031
-338,562	-200,000	0,017	-0,181
-337,548	-200,000	0,005	-0,198
-336,533	31,867	0,128	0,080
-335,518	149,075	0,039	0,039
-334,504	-35,782	-0,109	0,043
-333,489	317,129	0,070	-0,097
-332,475	800,000	0,008	0,019
-331,460	462,004	-0,133	-0,218
-330,445	-54,650	0,082	0,027
-329,431	781,630	0,010	-0,021
-328,416	-103,237	0,101	-0,017
-327,402	-200,000	-0,017	0,100
-326,387	-200,000	-0,003	0,064
-325,372	800,000	-0,050	-0,104
-324,358	-200,000	0,007	-0,178
-323,343	800,000	-0,053	-0,143
-322,329	-72,171	0,124	-0,034
-321,314	-70,024	0,099	-0,028
-320,299	800,000	0,050	0,106
-319,285	50,140	-0,061	0,042
-318,270	578,531	-0,032	0,058
-317,256	172,035	0,010	0,010
-316,241	-200,000	-0,016	0,117
-315,226	249,993	0,076	0,095
-314,212	157,006	-0,075	-0,076
-313,197	210,747	-0,071	0,082
-312,183	317,568	-0,037	-0,052
-311,168	-1,963	-0,037	0,019
-310,153	132,242	-0,072	0,068
-309,139	25,938	-0,070	0,043
-308,124	-149,685	0,085	0,005
-307,110	-200,000	-0,001	0,005
-306,095	-1,324	0,075	0,039
-305,080	437,653	0,057	-0,092
-304,066	-200,000	0,015	-0,104
-303,051	501,472	-0,042	-0,070
-302,037	-200,000	0,013	-0,189
-301,022	1,272	0,095	-0,050
-300,008	127,713	0,068	-0,064
-298,993	-64,410	0,165	0,049
-297,978	53,094	-0,065	-0,045
-296,964	-200,000	0,008	-0,031
-295,949	-182,428	0,047	0,001
-294,935	163,770	-0,063	-0,065
-293,920	-200,000	0,016	-0,089
-292,905	800,000	0,033	0,098
-291,891	-4,437	0,068	0,034
-290,876	191,490	-0,024	0,026
-289,862	352,638	0,032	-0,046
-288,847	512,444	-0,064	0,110
-287,832	-200,000	0,021	-0,094
-286,818	800,000	0,048	-0,129
-285,803	-122,742	-0,029	0,003
-284,789	-200,000	0,010	0,146
-283,774	108,256	-0,078	-0,068
-282,759	195,911	-0,020	0,023
-281,745	110,537	-0,087	0,076
-280,730	450,141	-0,072	-0,116
-279,716	-91,277	-0,127	0,026
-278,701	117,378	0,108	-0,097
-277,686	-200,000	-0,010	-0,071
-276,672	172,692	0,040	-0,042
-275,657	800,000	0,052	-0,124
-274,643	800,000	-0,057	-0,130
-273,628	47,348	-0,057	-0,039
-272,613	-16,920	0,149	0,068
-271,599	-112,992	-0,090	-0,013
-270,584	94,570	0,083	0,068
-269,570	-200,000	0,015	-0,101
-268,555	800,000	0,079	-0,172
-267,540	-21,153	0,091	-0,041
-266,526	-200,000	-0,027	-0,112
-265,511	800,000	-0,058	-0,119
-264,497	536,336	0,024	0,042
-263,482	-200,000	0,007	-0,100
-262,467	617,516	-0,065	0,120
-261,453	100,937	0,038	-0,032
-260,438	-57,044	-0,028	0,009
-259,424	-200,000	-0,001	-0,005
-258,409	-132,131	-0,092	-0,009
-257,395	333,163	0,014	-0,020
-256,380	179,874	-0,020	-0,022
-255,365	-45,658	0,088	0,032
-254,351	253,219	-0,045	0,057
-253,336	-10,013	0,057	0,028
-252,322	458,648	-0,021	0,034
-251,307	21,925	0,061	0,036
-250,292	-200,000	-0,011	0,054
-249,278	7,990	0,081	0,044
-248,263	-101,058	0,023	0,004
-247,249	-200,000	0,010	0,141
-246,234	-83,940	-0,066	-0,015
-245,219	-20,802	-0,083	-0,037
-244,205	800,000	0,047	-0,103
-243,190	-200,000	-0,031	-0,107
-242,176	289,602	-0,039	0,052
-241,161	800,000	0,027	-0,086
-240,146	55,502	-0,072	0,051
-239,132	187,294	0,030	0,033
-238,117	-4,895	-0,094	0,047
-237,103	800,000	0,055	0,125
-236,088	-57,301	-0,074	-0,024
-235,073	247,127	-0,030	0,038
-234,059	-200,000	0,001	0,148
-233,044	-139,798	0,051	0,004
-232,030	350,687	-0,089	-0,128
-231,015	62,723	0,021	-0,016
-230,000	-200,000	0,000	-0,112
-228,986	-200,000	0,015	0,078
-227,971	77,795	0,064	0,050
-226,957	606,314	0,048	0,088
-225,942	18,678	-0,034	0,020
-224,927	112,305	0,082	0,073
-223,913	-200,000	0,002	-0,095
-222,898	-51,964	0,048	-0,016
-221,884	-200,000	0,024	0,081
-220,869	108,093	0,036	-0,031
-219,855	-200,000	0,019	-0,080
-218,840	-200,000	-0,013	0,230
-217,825	-179,333	-0,021	0,000
-216,811	-15,914	0,133	-0,062
-215,796	153,003	0,016	-0,016
-214,782	-179,973	0,077	0,001
-213,767	-104,426	0,147	-0,025
-212,752	-200,000	0,010	0,033
-211,738	206,218	0,009	0,010
-210,723	-200,000	0,008	-0,059
-209,709	-200,000	0,000	0,058
-208,694	-9,498	-0,029	0,014
-207,679	151,254	-0,037	-0,037
-206,665	-200,000	-0,010	0,114
-205,650	800,000	0,023	0,048
-204,636	139,889	0,050	0,048
-203,621	-130,220	0,142	0,014
-202,606	75,229	0,054	-0,042
-201,592	-95,309	-0,074	-0,014
-200,577	85,903	-0,102	0,082
-199,563	249,377	0,060	-0,074
-198,548	178,922	-0,042	0,045
-197,533	-69,844	0,067	0,018
-196,519	58,455	-0,046	0,033
-195,504	800,000	-0,056	0,124
-194,490	420,632	-0,040	-0,063
-193,475	17,708	0,020	0,012
-192,460	36,499	-0,086	0,055
-191,446	-81,693	0,056	0,013
-190,431	-200,000	0,001	-0,095
-189,417	-100,528	0,054	-0,010
-188,402	-164,028	-0,209	-0,007
-187,387	-36,112	-0,113	0,044
-186,373	-139,109	0,055	-0,004
-185,358	-200,000	-0,010	0,049
-184,344	-200,000	-0,012	-0,142
-183,329	31,651	-0,079	0,049
-182,315	145,315	0,063	-0,062
-181,300	85,521	0,055	0,044
-180,285	34,652	0,048	0,031
-179,271	-165,579	-0,101	-0,003
-178,256	-38,009	0,071	-0,027
-177,242	-200,000	0,008	-0,060
-176,227	-130,780	0,083	0,008
-175,212	36,714	-0,081	0,052
-174,198	30,004	0,090	-0,056
-173,183	-200,000	0,008	0,054
-172,169	800,000	0,018	0,051
-171,154	153,120	0,036	-0,036
-170,139	-200,000	-0,005	0,099
-169,125	20,944	-0,004	-0,003
-168,110	90,211	-0,080	0,065
-167,096	155,962	-0,073	-0,073
-166,081	800,000	0,014	0,029
-165,066	-200,000	0,015	-0,069
-164,052	-200,000	0,012	0,067
-163,037	2,832	0,045	0,024
-162,023	-87,772	0,074	0,016
-161,008	77,977	-0,070	0,054
-159,993	-200,000	-0,011	0,065
-158,979	40,163	-0,010	0,007
-157,964	591,594	-0,028	-0,051
-156,950	-75,653	-0,080	0,020
-155,935	800,000	-0,009	0,024
-154,920	301,196	-0,033	0,045
-153,906	544,001	0,051	0,089
-152,891	-200,000	0,033	0,183
-151,877	-89,908	0,044	0,009
-150,862	182,571	-0,079	-0,084
-149,847	800,000	-0,039	-0,123
-148,833	-51,469	-0,072	0,024
-147,818	103,523	-0,115	0,098
-146,804	46,489	0,070	0,047
-145,789	271,363	0,037	-0,047
-144,775	-200,000	-0,054	-0,235
-143,760	-20,235	-0,144	-0,064
-142,745	113,466	-0,053	-0,047
-141,731	-200,000	0,005	-0,048
-140,716	-35,514	0,038	-0,015
-139,702	205,468	0,095	-0,108
-138,687	409,322	-0,029	0,044
-137,672	24,553	0,073	-0,044
-136,658	-200,000	-0,001	-0,165
-135,643	9,927	0,043	-0,023
-134,629	306,218	-0,045	-0,061
-133,614	-23,072	0,092	-0,040
-132,599	27,805	0,065	-0,040
-131,585	-58,198	0,023	-0,007
-130,570	-45,655	0,089	-0,032
-129,556	800,000	-0,050	-0,136
-128,541	212,482	0,061	-0,070
-127,526	-48,909	0,087	-0,030
-126,512	-122,823	0,028	-0,003
-125,497	19,159	0,023	-0,013
-124,483	-200,000	0,019	-0,080
-123,468	104,919	-0,047	0,040
-122,453	-200,000	-0,002	-0,032
-121,439	-200,000	0,005	0,017
-120,424	-200,000	-0,017	-0,093
-119,410	-200,000	0,007	0,030
-118,395	-200,000	-0,016	0,075
-117,380	28,324	0,085	-0,052
-116,366	92,560	-0,099	0,081
-115,351	-132,332	-0,145	-0,013
-114,337	-200,000	-0,002	-0,139
-113,322	-200,000	0,055	-0,252
-112,307	37,064	-0,118	0,076
-111,293	-52,938	0,152	-0,050
-110,278	357,085	0,019	0,027
-109,264	-20,534	0,054	0,024
-108,249	-200,000	-0,020	-0,088
-107,234	92,984	-0,030	0,025
-106,220	-105,865	0,136	-0,022
-105,205	-90,815	0,125	-0,026
-104,191	192,249	0,124	0,135
-103,176	-59,849	0,146	0,045
-102,162	-200,000	0,010	0,093
-101,147	62,570	0,083	-0,060
-100,132	800,000	-0,030	-0,068
-99,118	-31,413	0,171	0,069
-98,103	-200,000	0,026	-0,180
-97,089	-200,000	-0,008	0,090
-96,074	-80,902	0,071	-0,017
-95,059	26,403	0,107	0,065
-94,045	621,985	0,065	-0,118
-93,030	-200,000	0,003	-0,105
-92,016	533,772	0,020	-0,034
-91,001	-94,984	-0,098	-0,019
-89,986	123,217	-0,035	-0,032
-88,972	64,493	0,089	0,065
-87,957	-200,000	-0,048	0,180
-86,943	-200,000	0,021	0,130
-85,928	599,799	-0,030	-0,054
-84,913	177,505	0,072	-0,076
-83,899	107,379	0,111	-0,096
-82,884	-34,212	0,085	-0,034
-81,870	-200,000	0,006	0,057
-80,855	-200,000	0,006	0,059
-79,840	327,191	0,055	0,077
-78,826	16,665	0,033	-0,019
-77,811	-49,451	-0,090	0,031
-76,797	-200,000	-0,016	0,066
-75,782	-154,716	0,103	-0,005
-74,767	-200,000	0,021	0,092
-73,753	-65,657	0,021	0,006
-72,738	33,298	0,052	-0,033
-71,724	-78,647	-0,147	0,036
-70,709	226,578	-0,061	0,072
-69,694	-73,463	0,108	-0,028
-68,680	315,061	-0,062	0,085
-67,665	800,000	0,049	-0,116
-66,651	-68,786	0,090	0,025
-65,636	800,000	-0,003	-0,009
-64,622	88,524	-0,068	0,055
-63,607	-200,000	-0,002	0,010
-62,592	-200,000	0,018	0,172
-61,578	509,274	-0,012	-0,020
-60,563	-200,000	-0,036	-0,121
-59,549	-200,000	0,021	-0,070
-58,534	-96,203	-1,369	-0,261
-57,519	800,000	-0,618	-1,440
-56,505	-200,000	-1,112	-4,712
-55,490	-60,379	0,661	-0,202
-54,476	800,000	5,064	11,736
-53,461	-200,000	14,538	259,190
-52,446	-200,000	696,294	2235,163
-51,432	565,746	1622,438	2860,499
-50,417	117,690	1629,974	1452,697
-49,403	74,681	1284,199	977,289
-48,388	37,424	1022,398	654,972
-47,373	23,260	981,770	582,422
-46,359	22,417	971,018	573,262
-45,344	21,230	966,890	566,928
-44,330	21,256	965,255	566,032
-43,315	21,105	963,885	564,713
-42,300	21,106	962,828	564,075
-41,286	21,161	961,552	563,483
-40,271	21,102	960,624	562,728
-39,257	21,135	959,717	562,279
-38,242	21,017	958,936	561,417
-37,227	21,043	958,071	560,975
-36,213	21,096	957,109	560,558
-35,198	20,980	956,347	559,718
-34,184	21,074	955,648	559,589
-33,169	21,011	954,794	558,863
-32,154	21,041	954,043	558,500
-31,140	21,095	952,970	558,022
-30,125	21,091	952,103	557,479
-29,111	21,072	951,601	557,102
-28,096	21,102	950,755	556,681
-27,082	21,084	950,073	556,201
-26,067	21,128	949,053	555,724
-25,052	21,108	948,367	555,235
-24,038	21,061	947,829	554,748
-23,023	21,046	947,273	554,351
-22,009	21,084	946,527	554,017
-20,994	21,128	945,908	553,772
-19,979	21,133	945,273	553,393
-18,965	21,073	944,778	552,889
-17,950	21,194	943,907	552,746
-16,936	21,020	943,461	551,909
-15,921	20,953	942,966	551,382
-14,906	20,938	942,194	550,862
-13,892	20,944	941,424	550,410
-12,877	20,939	940,647	549,915
-11,863	20,912	940,242	549,573
-10,848	20,934	939,717	549,315
-9,833	21,010	939,224	549,243
-8,819	21,026	938,572	548,891
-7,804	21,014	937,833	548,399
-6,790	20,952	937,434	547,948
-5,775	20,993	936,801	547,687
-4,760	20,969	936,113	547,187
-3,746	20,968	935,450	546,775
-2,731	20,858	934,705	545,970
-1,717	20,741	934,228	545,303
-0,702	20,788	933,374	544,928
0,313	20,572	932,791	544,732
1,327	23,644	931,077	553,330
2,342	33,015	794,078	496,799
3,356	30,464	450,584	278,040
4,371	-0,001	294,556	151,293
5,386	-4,207	275,394	137,453
6,400	-5,439	269,805	133,506
7,415	-6,126	267,532	131,736
8,429	-5,873	266,232	131,317
9,444	-5,789	265,436	130,989
10,459	-5,759	264,839	130,709
11,473	-5,713	264,263	130,456
12,488	-5,648	263,667	130,209
13,502	-6,008	263,207	129,644
14,517	-6,001	262,861	129,468
15,531	-5,910	262,368	129,296
16,546	-5,734	262,006	129,265
17,561	-5,769	261,570	129,007
18,575	-5,697	261,321	128,938
19,590	-5,771	260,987	128,695
20,604	-5,572	260,693	128,717
21,619	-5,772	260,344	128,354
22,634	-5,742	260,040	128,219
23,648	-5,844	259,873	128,035
24,663	-5,928	259,499	127,764
25,677	-5,704	259,283	127,846
26,692	-5,914	259,052	127,533
27,707	-5,704	258,784	127,577
28,721	-6,041	258,464	127,108
29,736	-6,003	258,383	127,091
30,750	-5,957	257,946	126,905
31,765	-5,958	257,708	126,777
32,780	-5,911	257,441	126,675
33,794	-5,911	257,313	126,600
34,809	-5,970	257,039	126,402
35,823	-5,847	256,801	126,383
36,838	-5,915	256,603	126,214
37,853	-6,003	256,312	125,982
38,867	-6,082	256,115	125,805
39,882	-6,047	255,911	125,724
40,896	-5,720	255,566	125,830
41,911	-6,063	255,401	125,437
42,926	-6,047	255,106	125,295
43,940	-5,907	254,949	125,329
44,955	-5,865	254,500	125,134
45,969	-5,996	254,323	124,922
46,984	-6,210	254,179	124,652
47,999	-6,395	254,025	124,405
49,013	-6,495	253,636	124,116
50,028	-6,517	253,435	123,988
51,042	-6,608	253,291	123,827
52,057	-6,515	252,994	123,751
53,071	-6,522	252,775	123,627
54,086	-6,338	252,622	123,701
55,101	-6,320	252,402	123,598
56,115	-6,165	252,345	123,693
57,130	-5,839	252,116	123,852
58,144	-5,664	251,990	123,930
59,159	-5,667	251,846	123,845
60,174	-5,697	251,709	123,741
61,188	-5,862	251,457	123,464
62,203	-5,831	251,291	123,399
63,217	-5,761	250,978	123,294
64,232	-5,879	250,834	123,111
65,247	-5,804	250,562	123,031
66,261	-5,640	250,393	123,078
67,276	-6,160	250,102	122,478
68,290	-6,089	249,853	122,405
69,305	-6,277	249,521	122,072
70,320	-6,160	249,442	122,122
71,334	-5,939	249,323	122,241
72,349	-5,758	249,210	122,329
73,363	-5,636	248,794	122,219
74,378	-5,775	248,723	122,054
75,393	-5,765	248,562	121,973
76,407	-5,767	248,396	121,879
77,422	-5,883	248,115	121,631
78,436	-5,748	247,858	121,609
79,451	-5,887	247,508	121,309
80,466	-6,011	247,499	121,188
81,480	-6,043	247,191	120,999
82,495	-5,872	247,070	121,074
83,509	-5,985	246,889	120,879
84,524	-6,082	246,696	120,692
85,539	-6,212	246,445	120,449
86,553	-6,272	246,294	120,313
87,568	-6,265	246,200	120,263
88,582	-6,033	245,918	120,310
89,597	-6,134	245,840	120,176
90,611	-5,989	245,589	120,164
91,626	-5,830	245,508	120,248
92,641	-5,869	245,287	120,096
93,655	-5,856	245,015	119,964
94,670	-5,911	244,872	119,837
95,684	-5,898	244,653	119,729
96,699	-6,083	244,522	119,500
97,714	-5,982	244,186	119,409
98,728	-6,205	244,155	119,198
99,743	-6,183	243,850	119,056
100,757	-6,210	243,681	118,940
101,772	-6,140	243,634	118,966
102,787	-5,947	243,299	118,951
103,801	-5,875	243,003	118,856
104,816	-6,179	243,137	118,659
105,830	-5,910	242,813	118,713
106,845	-5,809	242,579	118,671
107,860	-5,988	242,584	118,515
108,874	-5,970	242,255	118,359
109,889	-6,034	242,275	118,305
110,903	-5,942	241,848	118,162
111,918	-6,138	241,763	117,948
112,933	-5,871	241,588	118,072
113,947	-5,988	241,445	117,896
114,962	-6,253	241,417	117,653
115,976	-5,883	240,967	117,728
116,991	-5,802	240,784	117,694
118,006	-5,916	240,752	117,574
119,020	-5,913	240,613	117,499
120,035	-5,958	240,416	117,354
121,049	-5,905	240,239	117,302
122,064	-5,847	240,024	117,234
123,079	-5,828	239,776	117,117
124,093	-6,067	239,746	116,897
125,108	-6,109	239,551	116,757
126,122	-6,213	239,333	116,555
127,137	-6,311	239,060	116,332
128,151	-6,099	238,821	116,378
129,166	-6,043	238,641	116,326
130,181	-6,129	238,561	116,207
131,195	-6,210	238,339	116,023
132,210	-5,925	238,142	116,147
133,224	-5,803	238,052	116,192
134,239	-5,848	237,934	116,088
135,254	-5,908	237,825	115,975
136,268	-5,798	237,381	115,837
137,283	-6,304	237,543	115,496
138,297	-6,258	237,073	115,295
139,312	-6,348	236,952	115,153
140,327	-6,148	236,849	115,254
141,341	-5,568	236,896	115,735
142,356	-5,518	236,650	115,645
143,370	-5,511	236,425	115,529
144,385	-5,744	236,414	115,326
145,400	-5,397	236,102	115,443
146,414	-5,559	235,966	115,236
147,429	-5,719	235,678	114,957
148,443	-5,791	235,535	114,820
149,458	-5,642	235,443	114,883
150,473	-5,621	235,384	114,862
151,487	-5,730	235,094	114,622
152,502	-5,610	234,882	114,605
153,516	-5,576	234,807	114,585
154,531	-5,661	234,686	114,448
155,546	-5,605	234,448	114,367
156,560	-5,598	234,250	114,265
157,575	-5,816	233,952	113,936
158,589	-5,680	233,830	113,975
159,604	-5,766	233,762	113,863
160,619	-5,501	233,474	113,923
161,633	-5,400	233,413	113,963
162,648	-5,553	233,453	113,851
163,662	-5,444	233,141	113,775
164,677	-5,711	232,978	113,474
165,692	-5,392	232,910	113,683
166,706	-5,731	232,799	113,351
167,721	-5,573	232,622	113,380
168,735	-5,495	232,379	113,312
169,750	-5,498	232,283	113,253
170,764	-5,664	232,009	112,979
171,779	-5,621	231,782	112,891
172,794	-5,478	231,704	112,956
173,808	-5,603	231,414	112,707
174,823	-6,054	231,210	112,243
175,837	-6,170	231,152	112,114
176,852	-5,912	230,989	112,228
177,867	-5,617	230,896	112,403
178,881	-5,697	230,893	112,329
179,896	-5,531	230,619	112,316
180,910	-5,525	230,608	112,306
181,925	-5,272	230,370	112,377
182,940	-5,454	230,228	112,155
183,954	-5,468	230,283	112,162
184,969	-5,421	230,046	112,073
185,983	-5,341	229,804	112,007
186,998	-5,556	229,695	111,776
188,013	-5,417	229,542	111,800
189,027	-5,274	229,242	111,755
190,042	-5,346	229,101	111,621
191,056	-5,518	229,035	111,445
192,071	-5,370	228,752	111,412
193,086	-5,470	228,667	111,283
194,100	-5,553	228,479	111,118
195,115	-5,687	228,268	110,902
196,129	-6,712	227,826	109,885
197,144	-3,779	228,680	112,560
198,159	1,233	230,207	117,202
199,173	3,454	230,872	119,260
200,188	4,014	230,753	119,623
201,202	4,074	230,511	119,534
202,217	4,016	230,461	119,452
203,232	4,279	230,336	119,581
204,246	4,202	230,216	119,448
205,261	4,422	229,966	119,478
206,275	4,626	230,124	119,708
207,290	4,695	229,775	119,568
208,304	4,629	229,706	119,471
209,319	4,472	229,518	119,242
210,334	4,470	229,259	119,095
211,348	4,273	229,171	118,887
212,363	3,823	228,858	118,367
213,377	3,499	228,751	118,052
214,392	3,479	228,480	117,886
215,407	3,964	228,187	118,097
216,421	3,762	228,226	117,951
217,436	3,505	228,096	117,676
218,450	3,541	227,738	117,508
219,465	3,421	227,634	117,352
220,480	3,359	227,478	117,214
221,494	3,473	227,425	117,263
222,509	3,653	227,301	117,326
223,523	3,523	227,200	117,165
224,538	3,528	226,961	117,035
225,553	3,414	226,956	116,935
226,567	3,715	226,654	116,998
227,582	3,873	226,625	117,093
228,596	4,214	226,411	117,232
229,611	3,842	226,344	116,903
230,626	3,488	226,206	116,553
231,640	3,571	225,977	116,488
232,655	3,978	225,759	116,674
233,669	4,178	225,862	116,868
234,684	4,145	225,879	116,841
235,699	3,859	225,580	116,460
236,713	4,031	225,247	116,407
237,728	3,638	225,104	116,026
238,742	3,523	224,932	115,840
239,757	3,587	224,850	115,836
240,772	3,655	224,535	115,714
241,786	3,639	224,377	115,611
242,801	3,831	224,342	115,727
243,815	3,901	224,368	115,782
244,830	4,221	224,215	115,934
245,844	3,627	223,935	115,333
246,859	3,732	223,779	115,321
247,874	3,791	223,673	115,300
248,888	3,835	223,564	115,266
249,903	3,645	223,428	115,044
250,917	3,705	223,199	114,961
251,932	3,564	222,963	114,724
252,947	3,453	222,906	114,601
253,961	3,561	222,746	114,589
254,976	3,807	222,457	114,614
255,990	3,752	222,376	114,521
257,005	3,731	222,333	114,473
258,020	3,725	222,303	114,443
259,034	4,082	222,040	114,563
260,049	4,003	221,936	114,440
261,063	3,789	221,767	114,184
262,078	4,010	221,709	114,308
263,093	4,134	221,427	114,244
264,107	3,967	221,391	114,092
265,122	3,894	221,271	113,966
266,136	4,165	221,186	114,112
267,151	4,146	220,950	113,966
268,166	3,789	220,686	113,556
269,180	3,527	220,543	113,279
270,195	3,679	220,380	113,297
271,209	3,586	220,297	113,176
272,224	3,657	220,153	113,145
273,239	3,665	220,087	113,107
274,253	3,531	219,834	112,868
275,268	3,512	219,533	112,689
276,282	3,203	219,498	112,433
277,297	3,492	219,362	112,567
278,312	3,164	219,389	112,329
279,326	3,476	219,134	112,417
280,341	3,616	219,173	112,530
281,355	3,463	218,899	112,268
282,370	3,609	218,723	112,274
283,384	3,436	218,456	112,000
284,399	3,409	218,310	111,896
285,414	3,424	218,223	111,852
286,428	3,536	218,215	111,919
287,443	3,850	217,920	111,987
288,457	3,793	217,855	111,903
289,472	3,593	217,564	111,597
290,487	3,117	217,480	111,199
291,501	3,233	217,326	111,194
292,516	3,378	217,178	111,214
293,530	3,269	217,136	111,103
294,545	3,168	217,035	110,968
295,560	3,512	216,861	111,119
296,574	3,616	216,702	111,103
297,589	3,825	216,693	111,240
298,603	3,765	216,576	111,126
299,618	3,686	216,376	110,956
300,633	3,642	216,357	110,905
301,647	3,581	216,262	110,802
302,662	3,745	215,983	110,768
303,676	4,045	215,753	110,856
304,691	4,160	215,795	110,951
305,706	3,898	215,680	110,693
306,720	4,128	215,564	110,789
307,735	3,494	215,371	110,224
308,749	3,707	215,118	110,238
309,764	3,791	214,964	110,209
310,779	3,802	215,073	110,263
311,793	3,773	214,777	110,081
312,808	3,830	214,535	109,988
313,822	3,857	214,486	109,973
314,837	3,740	214,164	109,714
315,852	3,551	214,146	109,559
316,866	3,831	213,897	109,623
317,881	3,808	213,880	109,588
318,895	3,775	213,721	109,473
319,910	3,610	213,504	109,234
320,925	3,481	213,385	109,072
321,939	3,177	213,143	108,723
322,954	3,211	213,101	108,715
323,968	3,470	213,075	108,876
324,983	3,681	212,952	108,953
325,997	3,908	212,800	109,027
327,012	3,699	212,643	108,789
328,027	3,945	212,524	108,893
329,041	3,802	212,543	108,792
330,056	4,161	212,442	108,984
331,070	3,660	212,115	108,453
332,085	3,175	211,953	108,017
333,100	3,565	211,880	108,246
334,114	3,853	211,757	108,377
335,129	3,608	211,621	108,125
336,143	3,612	211,472	108,042
337,158	3,550	211,263	107,882
338,173	3,533	211,225	107,841
339,187	3,539	210,941	107,690
340,202	3,329	210,719	107,420
341,216	3,464	210,627	107,458
342,231	3,363	210,475	107,301
343,246	3,418	210,468	107,326
344,260	3,331	210,388	107,214
345,275	3,689	210,250	107,385
346,289	3,787	210,104	107,370
347,304	3,669	209,978	107,213
348,319	3,571	209,826	107,057
349,333	3,506	209,673	106,925
350,348	3,729	209,598	107,032
351,362	3,742	209,629	107,047
352,377	3,709	209,523	106,961
353,392	3,714	209,224	106,802
354,406	3,758	209,107	106,763
355,421	194,479	1344,028	1431,311
356,435	155,223	1482,382	1431,404
