DTS Sentinel unit serial number:	SN410029Multiplexer serial number:	ORYXHardware model number:	OX2-SRSoftware version number:	ORYX F/W v4,00 Oryx Data Collector v3.7.2.0data status	okinstallation	B6 Nyhavnadifferential loss correction	single-endedforward channel	channel 2reverse channel	N/Adate	2023/12/09time	10:20:08forward acquisition time	300,00reverse acquisition time	0,00gamma	499,1914k internal	0,3139k external	0,3139temperature offset calibration	1,0000default loss term (dB/km)	0,3820temperature slope calibration	1,0000multiplexer offset coefficient	1,0000multiplexer slope coefficient	1,0000fibre end	0,00T internal ref (°C)	18,55T ext. ref 1 (°C)	2,23T ext. ref 2 (°C)	2,23length (m)	temperature (°C)	Stokes	anti-Stokes-744,400	14,397	0,064	-0,037
-743,385	-130,536	-0,222	0,022
-742,371	145,128	0,083	-0,083
-741,356	-26,664	-0,168	0,072
-740,342	-126,598	0,181	-0,020
-739,327	-109,848	-0,362	0,056
-738,312	462,510	0,069	0,114
-737,298	-179,005	-0,352	-0,006
-736,283	800,000	0,047	0,148
-735,269	90,731	-0,279	0,231
-734,254	-22,056	-0,048	0,022
-733,239	-88,608	-0,609	-0,133
-732,225	231,006	0,019	0,023
-731,210	-200,000	0,006	-0,079
-730,196	-41,580	-0,092	0,035
-729,181	-43,728	-0,106	-0,039
-728,167	-200,000	0,007	-0,025
-727,152	-200,000	-0,001	-0,019
-726,137	212,630	-0,074	-0,086
-725,123	800,000	-0,024	0,065
-724,108	83,613	-0,129	-0,104
-723,094	800,000	0,033	-0,100
-722,079	14,277	-0,088	-0,051
-721,064	800,000	0,020	-0,052
-720,050	-50,493	0,107	-0,037
-719,035	172,030	-0,031	0,033
-718,021	127,721	-0,028	0,027
-717,006	351,874	0,009	-0,013
-715,991	-166,992	-0,049	-0,001
-714,977	-200,000	0,000	-0,132
-713,962	756,925	0,007	0,015
-712,948	54,710	-0,043	0,031
-711,933	-138,482	0,060	-0,005
-710,918	118,761	-0,099	-0,090
-709,904	44,354	-0,131	-0,089
-708,889	800,000	0,003	-0,008
-707,875	33,560	-0,140	-0,090
-706,860	-200,000	0,006	0,203
-705,845	-120,335	-0,153	0,019
-704,831	-176,799	0,170	0,003
-703,816	108,113	0,027	0,024
-702,802	-200,000	0,012	0,046
-701,787	87,189	-0,075	-0,061
-700,772	-200,000	0,016	-0,078
-699,758	-200,000	0,037	-0,167
-698,743	-74,671	-0,024	-0,006
-697,729	275,473	0,062	-0,082
-696,714	800,000	-0,043	0,089
-695,699	-200,000	-0,022	0,097
-694,685	241,903	-0,092	-0,115
-693,670	26,464	-0,097	-0,060
-692,656	-124,119	0,005	-0,001
-691,641	-22,326	-0,113	0,051
-690,627	-50,667	0,053	0,018
-689,612	712,614	-0,050	0,098
-688,597	-200,000	0,006	0,031
-687,583	5,205	-0,012	0,007
-686,568	-98,796	-0,045	0,008
-685,554	102,968	-0,091	0,079
-684,539	506,912	0,046	0,079
-683,524	-200,000	-0,011	0,046
-682,510	95,688	0,046	-0,039
-681,495	4,609	-0,102	-0,055
-680,481	110,800	-0,058	-0,051
-679,466	-44,856	0,108	0,039
-678,451	-125,468	-0,148	-0,016
-677,437	-200,000	0,011	0,069
-676,422	61,075	-0,118	0,087
-675,408	-200,000	0,002	-0,114
-674,393	127,467	-0,092	-0,086
-673,378	800,000	-0,047	-0,134
-672,364	116,901	-0,134	-0,121
-671,349	627,579	-0,032	0,059
-670,335	-200,000	0,002	0,037
-669,320	299,476	-0,003	0,005
-668,305	-175,819	0,089	0,002
-667,291	-74,370	-0,066	-0,017
-666,276	-90,866	-0,102	-0,022
-665,262	800,000	-0,035	-0,080
-664,247	-47,669	0,081	0,029
-663,232	208,652	0,086	0,100
-662,218	27,440	0,129	-0,080
-661,203	-37,551	-0,046	-0,018
-660,189	-132,162	-0,077	0,007
-659,174	-200,000	-0,012	-0,092
-658,159	-200,000	0,028	-0,121
-657,145	654,800	-0,068	-0,129
-656,130	-106,008	0,061	-0,010
-655,116	-15,195	-0,129	0,061
-654,101	436,274	0,063	0,102
-653,086	60,704	-0,067	0,049
-652,072	800,000	-0,078	0,160
-651,057	77,625	-0,086	-0,068
-650,043	-109,819	-0,067	0,010
-649,028	-200,000	0,002	-0,021
-648,014	-200,000	0,019	0,091
-646,999	52,892	-0,039	0,028
-645,984	-65,407	0,056	0,017
-644,970	313,616	0,052	-0,073
-643,955	29,915	0,056	-0,035
-642,941	-156,881	0,137	-0,006
-641,926	-200,000	-0,012	-0,079
-640,911	800,000	0,046	0,096
-639,897	800,000	-0,059	0,166
-638,882	425,502	-0,047	-0,075
-637,868	0,174	0,058	-0,030
-636,853	776,256	0,029	-0,059
-635,838	19,239	-0,082	0,048
-634,824	-88,345	-0,245	-0,054
-633,809	193,711	0,070	0,079
-632,795	544,658	0,013	0,023
-631,780	-71,167	0,087	0,024
-630,765	-14,406	-0,094	0,044
-629,751	27,681	0,051	0,032
-628,736	800,000	0,065	-0,142
-627,722	750,399	0,026	0,052
-626,707	139,344	0,084	0,081
-625,692	800,000	0,021	0,044
-624,678	-142,048	0,129	0,009
-623,663	-72,911	-0,104	0,028
-622,649	-200,000	0,005	-0,051
-621,634	-170,358	-0,064	-0,002
-620,619	624,495	-0,038	0,071
-619,605	-200,000	-0,005	0,117
-618,590	21,343	-0,054	-0,032
-617,576	140,421	0,159	0,155
-616,561	-101,466	-0,068	0,012
-615,546	-4,419	0,202	0,103
-614,532	-200,000	-0,013	-0,134
-613,517	-200,000	-0,004	-0,150
-612,503	148,184	0,047	-0,047
-611,488	42,278	0,037	-0,025
-610,474	-59,029	-0,078	0,025
-609,459	146,541	-0,034	-0,034
-608,444	381,690	-0,035	-0,053
-607,430	-184,397	-0,129	-0,002
-606,415	-200,000	0,008	-0,029
-605,401	-44,588	0,174	0,064
-604,386	-200,000	0,016	-0,064
-603,371	-69,216	-0,178	-0,050
-602,357	330,582	-0,064	-0,091
-601,342	-142,915	-0,071	-0,005
-600,328	-200,000	0,019	-0,183
-599,313	-200,000	0,002	-0,058
-598,298	-65,975	-0,037	-0,011
-597,284	108,219	0,014	-0,013
-596,269	69,085	0,144	0,109
-595,255	57,185	-0,056	0,040
-594,240	26,256	0,096	-0,059
-593,225	310,134	-0,033	-0,046
-592,211	-55,301	-0,121	-0,040
-591,196	111,487	0,111	-0,099
-590,182	-60,665	0,151	0,047
-589,167	438,541	-0,064	0,104
-588,152	254,862	-0,071	-0,090
-587,138	-200,000	-0,019	0,080
-586,123	-200,000	-0,038	-0,139
-585,109	174,587	0,049	-0,053
-584,094	-87,049	0,093	-0,021
-583,079	-17,457	-0,014	-0,006
-582,065	-200,000	0,015	0,077
-581,050	-187,815	-0,058	-0,001
-580,036	-30,943	0,042	0,017
-579,021	-108,393	0,070	-0,011
-578,006	800,000	0,047	-0,117
-576,992	64,952	-0,031	-0,023
-575,977	-200,000	0,000	-0,028
-574,963	-143,414	0,092	0,006
-573,948	-12,946	0,066	0,032
-572,934	409,061	-0,086	-0,134
-571,919	22,514	-0,048	-0,029
-570,904	-200,000	0,045	-0,196
-569,890	18,730	-0,043	-0,025
-568,875	250,653	0,050	0,062
-567,861	-70,330	-0,076	0,021
-566,846	349,139	-0,090	-0,131
-565,831	-200,000	-0,000	0,072
-564,817	-118,104	-0,051	0,007
-563,802	457,596	0,030	-0,049
-562,788	-121,101	-0,019	0,002
-561,773	32,595	0,085	-0,054
-560,758	465,688	0,022	0,036
-559,744	-200,000	0,025	0,091
-558,729	-122,925	0,017	-0,002
-557,715	-158,335	-0,083	0,003
-556,700	163,687	-0,042	-0,044
-555,685	-200,000	0,027	-0,104
-554,671	91,036	-0,055	-0,045
-553,656	148,390	-0,064	-0,063
-552,642	474,632	0,028	0,047
-551,627	175,778	0,073	-0,078
-550,612	800,000	-0,012	0,032
-549,598	-10,693	-0,076	0,037
-548,583	-200,000	-0,001	0,019
-547,569	800,000	-0,013	0,027
-546,554	254,232	0,123	0,155
-545,539	409,116	0,065	0,102
-544,525	-200,000	0,000	-0,008
-543,510	-56,181	-0,140	0,046
-542,496	23,898	0,060	-0,037
-541,481	204,632	-0,112	0,128
-540,466	184,516	0,084	-0,091
-539,452	491,232	-0,040	-0,068
-538,437	-200,000	0,033	0,147
-537,423	-200,000	-0,026	-0,139
-536,408	57,738	0,070	-0,050
-535,393	576,933	-0,047	-0,084
-534,379	-63,984	-0,090	-0,027
-533,364	-59,048	-0,215	0,068
-532,350	233,685	0,075	0,091
-531,335	-200,000	0,022	0,103
-530,321	135,192	0,125	0,119
-529,306	116,195	-0,112	-0,101
-528,291	270,869	-0,043	0,056
-527,277	800,000	-0,050	-0,113
-526,262	731,025	0,032	-0,064
-525,248	-30,870	-0,066	0,027
-524,233	800,000	0,034	-0,104
-523,218	-3,880	-0,161	-0,082
-522,204	631,765	-0,092	0,172
-521,189	-190,716	-0,065	-0,000
-520,175	-200,000	0,019	-0,077
-519,160	-81,866	-0,126	-0,030
-518,145	41,402	0,082	-0,054
-517,131	167,065	-0,014	-0,015
-516,116	-12,256	0,090	-0,043
-515,102	251,752	0,149	-0,186
-514,087	-200,000	0,011	0,052
-513,072	800,000	-0,014	-0,036
-512,058	-18,885	-0,051	0,023
-511,043	-200,000	-0,002	0,011
-510,029	-24,998	0,126	0,055
-509,014	443,761	0,033	-0,053
-507,999	800,000	-0,039	-0,084
-506,985	117,937	-0,107	-0,097
-505,970	-159,091	-0,035	-0,001
-504,956	158,022	0,058	-0,059
-503,941	44,798	-0,038	-0,026
-502,926	-9,341	0,093	-0,046
-501,912	-200,000	0,010	-0,089
-500,897	181,644	-0,036	-0,039
-499,883	7,034	0,104	0,057
-498,868	-104,232	-0,104	-0,018
-497,853	156,967	0,093	-0,094
-496,839	-158,803	0,122	0,005
-495,824	61,622	0,018	0,013
-494,810	800,000	0,048	0,097
-493,795	-63,123	-0,040	0,012
-492,781	250,176	-0,111	0,138
-491,766	800,000	-0,040	-0,087
-490,751	29,610	-0,028	-0,018
-489,737	-132,220	-0,151	0,014
-488,722	211,649	-0,041	0,047
-487,708	152,550	0,081	0,081
-486,693	153,232	0,144	0,145
-485,678	486,064	-0,086	0,145
-484,664	570,555	-0,050	0,089
-483,649	-140,968	-0,110	0,008
-482,635	-112,447	0,013	-0,002
-481,620	-71,344	0,187	0,051
-480,605	85,018	-0,116	0,093
-479,591	67,741	-0,083	-0,062
-478,576	-121,702	-0,071	0,009
-477,562	-82,300	0,081	-0,019
-476,547	32,577	0,140	-0,089
-475,532	-91,996	-0,100	-0,021
-474,518	121,249	-0,087	0,080
-473,503	800,000	0,025	-0,078
-472,489	47,835	0,066	0,045
-471,474	8,360	0,137	-0,075
-470,459	-200,000	-0,008	-0,029
-469,445	-200,000	0,017	0,108
-468,430	-16,938	-0,110	0,051
-467,416	98,539	0,049	0,041
-466,401	-28,042	0,051	0,022
-465,386	-1,582	-0,014	0,007
-464,372	474,297	0,049	0,082
-463,357	58,055	-0,004	0,003
-462,343	328,479	0,015	0,021
-461,328	-46,553	-0,054	-0,019
-460,313	-82,083	0,127	0,030
-459,299	800,000	0,035	0,071
-458,284	-200,000	0,017	0,171
-457,270	800,000	-0,034	0,087
-456,255	-134,303	-0,152	0,014
-455,241	357,247	0,032	-0,047
-454,226	-44,630	-0,044	-0,016
-453,211	-200,000	-0,015	0,171
-452,197	739,412	0,067	0,132
-451,182	-74,160	0,060	-0,016
-450,168	72,691	0,071	-0,054
-449,153	800,000	-0,030	-0,076
-448,138	-24,188	-0,148	-0,064
-447,124	-200,000	0,006	-0,047
-446,109	-79,978	-0,047	0,012
-445,095	47,382	-0,099	-0,067
-444,080	26,577	0,096	-0,059
-443,065	5,283	0,104	0,056
-442,051	5,819	-0,110	0,060
-441,036	-94,381	-0,156	-0,031
-440,022	156,444	0,045	0,046
-439,007	800,000	0,051	0,116
-437,992	-90,264	-0,057	-0,012
-436,978	-200,000	-0,030	0,135
-435,963	800,000	0,040	-0,115
-434,949	5,259	-0,096	-0,052
-433,934	33,443	0,087	0,055
-432,919	67,821	0,070	-0,052
-431,905	82,825	-0,090	-0,072
-430,890	-200,000	0,012	-0,100
-429,876	-44,657	-0,112	0,041
-428,861	-200,000	-0,009	0,050
-427,846	74,356	0,089	-0,069
-426,832	800,000	-0,055	-0,116
-425,817	352,106	0,041	-0,059
-424,803	760,218	-0,033	0,067
-423,788	-200,000	0,027	0,109
-422,773	23,380	0,029	0,017
-421,759	-15,423	0,035	-0,016
-420,744	-22,431	0,098	0,043
-419,730	-200,000	0,018	0,081
-418,715	112,104	-0,098	0,087
-417,701	-200,000	0,046	-0,215
-416,686	-200,000	0,037	-0,195
-415,671	60,818	0,094	-0,068
-414,657	75,555	0,129	0,099
-413,642	800,000	-0,030	0,088
-412,628	-200,000	-0,028	-0,133
-411,613	70,133	-0,098	0,074
-410,598	-200,000	-0,041	-0,208
-409,584	29,047	0,107	-0,067
-408,569	-72,090	0,051	0,014
-407,555	800,000	0,035	0,098
-406,540	114,629	0,043	0,039
-405,525	800,000	-0,016	0,045
-404,511	256,099	0,059	-0,074
-403,496	-200,000	-0,058	-0,200
-402,482	472,944	-0,077	0,127
-401,467	-131,095	0,180	-0,017
-400,452	-73,053	0,027	0,007
-399,438	59,367	0,016	-0,012
-398,423	192,673	-0,091	0,100
-397,409	-96,555	0,134	-0,026
-396,394	220,772	-0,050	-0,059
-395,379	-73,354	-0,138	-0,037
-394,365	-101,749	0,110	0,019
-393,350	-124,700	0,084	0,009
-392,336	-128,802	0,022	-0,002
-391,321	147,937	0,098	0,097
-390,306	-79,093	-0,222	0,055
-389,292	-33,498	0,044	0,018
-388,277	-200,000	-0,018	0,060
-387,263	61,011	0,065	-0,047
-386,248	800,000	-0,047	-0,122
-385,233	-200,000	-0,009	0,047
-384,219	-108,360	-0,082	0,013
-383,204	-200,000	-0,006	-0,159
-382,190	-200,000	-0,006	-0,133
-381,175	-200,000	-0,034	-0,146
-380,160	-28,903	-0,108	-0,045
-379,146	-200,000	0,015	0,066
-378,131	-75,867	-0,088	0,023
-377,117	99,344	0,152	0,128
-376,102	269,604	-0,078	-0,100
-375,088	46,981	-0,039	-0,027
-374,073	-6,105	-0,136	-0,068
-373,058	-141,228	0,195	-0,014
-372,044	58,099	0,081	-0,058
-371,029	596,969	-0,047	-0,085
-370,015	-200,000	-0,002	0,025
-369,000	-36,258	0,069	-0,027
-367,985	-63,289	0,045	-0,014
-366,971	-37,544	-0,077	0,030
-365,956	800,000	0,042	0,106
-364,942	-200,000	0,036	-0,152
-363,927	40,244	0,118	0,077
-362,912	-11,233	0,030	0,015
-361,898	-117,893	0,061	-0,008
-360,883	-200,000	0,010	0,057
-359,869	280,186	-0,062	-0,082
-358,854	-37,427	0,030	0,011
-357,839	-121,040	0,199	-0,024
-356,825	140,757	-0,029	0,028
-355,810	124,014	0,095	-0,087
-354,796	-29,933	-0,093	-0,039
-353,781	800,000	0,049	-0,155
-352,766	-76,134	-0,045	0,011
-351,752	26,227	0,137	0,084
-350,737	-177,703	-0,116	-0,002
-349,723	18,782	-0,092	0,054
-348,708	-200,000	-0,002	0,047
-347,693	243,433	-0,039	-0,048
-346,679	139,580	-0,060	-0,058
-345,664	-141,082	-0,172	0,013
-344,650	-38,233	0,159	0,061
-343,635	425,883	0,059	0,092
-342,620	-65,171	-0,040	0,012
-341,606	35,488	0,095	0,061
-340,591	78,875	-0,043	0,033
-339,577	800,000	0,043	-0,120
-338,562	-123,901	-0,212	-0,024
-337,548	-40,282	-0,078	0,029
-336,533	-200,000	-0,018	0,121
-335,518	-70,445	0,094	-0,026
-334,504	321,861	0,055	-0,076
-333,489	-6,509	0,091	0,045
-332,475	-141,865	0,025	0,002
-331,460	-200,000	0,012	-0,064
-330,445	800,000	-0,053	-0,114
-329,431	-163,491	0,171	0,006
-328,416	370,975	0,041	0,060
-327,402	-45,255	0,094	0,034
-326,387	-144,500	-0,217	0,014
-325,372	-0,028	-0,079	0,041
-324,358	85,273	-0,130	0,104
-323,343	-200,000	-0,009	0,091
-322,329	-7,320	0,075	0,037
-321,314	-200,000	0,018	0,108
-320,299	-46,565	-0,088	-0,031
-319,285	-200,000	-0,041	0,196
-318,270	-46,723	-0,054	-0,019
-317,256	-200,000	-0,020	-0,110
-316,241	125,382	-0,076	-0,070
-315,226	154,081	-0,037	-0,037
-314,212	163,123	-0,066	0,068
-313,197	-200,000	-0,003	0,052
-312,183	-98,683	0,134	-0,025
-311,168	139,976	-0,070	-0,067
-310,153	448,385	-0,021	-0,034
-309,139	-55,443	0,083	-0,027
-308,124	-105,978	0,146	0,024
-307,110	-95,905	0,058	-0,011
-306,095	213,720	0,057	0,065
-305,080	285,891	0,055	0,072
-304,066	488,032	0,057	0,095
-303,051	-137,121	0,132	0,011
-302,037	-48,416	0,032	0,011
-301,022	55,446	0,066	0,046
-300,008	-113,915	-0,054	0,007
-298,993	175,641	0,046	0,048
-297,978	307,642	-0,123	0,167
-296,964	708,003	-0,019	0,037
-295,949	-43,755	-0,067	-0,024
-294,935	-1,837	-0,192	-0,098
-293,920	-200,000	0,035	-0,190
-292,905	-171,903	0,154	-0,004
-291,891	800,000	0,014	0,038
-290,876	-200,000	0,030	0,129
-289,862	233,817	-0,053	0,064
-288,847	215,587	0,081	-0,094
-287,832	-87,872	0,072	0,016
-286,818	-57,247	0,028	0,009
-285,803	-200,000	0,000	-0,028
-284,789	280,647	0,051	0,067
-283,774	101,734	0,126	0,107
-282,759	-200,000	-0,003	-0,178
-281,745	565,065	-0,049	-0,088
-280,730	-200,000	0,029	-0,096
-279,716	-75,203	0,129	0,033
-278,701	-173,314	-0,134	0,003
-277,686	-200,000	0,002	0,223
-276,672	355,199	0,117	0,169
-275,657	-200,000	0,026	0,102
-274,643	24,695	-0,114	0,068
-273,628	-200,000	-0,021	-0,135
-272,613	0,372	-0,049	-0,025
-271,599	98,728	0,057	0,048
-270,584	800,000	0,012	0,026
-269,570	283,716	0,034	0,045
-268,555	253,908	-0,060	-0,074
-267,540	-200,000	-0,010	0,133
-266,526	800,000	-0,036	0,114
-265,511	157,759	-0,091	0,092
-264,497	459,245	0,046	0,075
-263,482	-200,000	0,039	0,172
-262,467	143,493	-0,017	-0,016
-261,453	714,185	0,096	0,186
-260,438	-200,000	-0,003	0,022
-259,424	-200,000	0,003	-0,137
-258,409	-139,872	0,132	-0,010
-257,395	369,463	0,072	0,106
-256,380	114,531	-0,041	-0,036
-255,365	-106,465	-0,086	-0,014
-254,351	-8,999	-0,039	-0,019
-253,336	800,000	-0,013	0,031
-252,322	-116,623	-0,091	-0,012
-251,307	-20,163	0,055	-0,024
-250,292	800,000	0,046	-0,139
-249,278	-139,575	0,037	0,003
-248,263	34,757	0,057	-0,036
-247,249	262,659	-0,037	-0,046
-246,234	800,000	0,093	-0,239
-245,219	-200,000	0,026	-0,142
-244,205	-86,943	-0,197	-0,043
-243,190	-21,698	0,072	-0,032
-242,176	-55,734	-0,044	-0,014
-241,161	-200,000	-0,019	0,128
-240,146	800,000	0,024	0,078
-239,132	-48,660	-0,045	0,015
-238,117	800,000	-0,044	0,132
-237,103	-109,306	-0,160	0,024
-236,088	-61,949	-0,107	0,032
-235,073	800,000	-0,017	0,049
-234,059	800,000	-0,034	-0,077
-233,044	-200,000	-0,019	0,114
-232,030	144,914	-0,027	0,026
-231,015	-2,633	-0,080	-0,040
-230,000	-97,431	-0,159	0,030
-228,986	575,060	0,096	-0,172
-227,971	-200,000	-0,009	-0,115
-226,957	-52,845	0,118	-0,039
-225,942	-200,000	-0,019	0,081
-224,927	-80,812	-0,057	0,014
-223,913	-200,000	0,011	0,088
-222,898	-96,935	0,082	-0,015
-221,884	-200,000	0,001	0,020
-220,869	666,313	0,039	0,073
-219,855	-200,000	-0,017	-0,122
-218,840	-11,792	0,083	0,039
-217,825	-180,969	0,060	0,001
-216,811	-106,950	-0,084	0,013
-215,796	44,086	-0,099	0,066
-214,782	800,000	-0,045	0,105
-213,767	-177,118	0,116	-0,002
-212,752	129,133	0,072	0,067
-211,738	-167,452	-0,053	-0,002
-210,723	-3,774	0,053	0,026
-209,709	-80,601	-0,189	0,045
-208,694	-122,838	-0,106	-0,012
-207,679	-57,451	-0,105	0,033
-206,665	12,036	0,031	0,017
-205,650	-200,000	-0,007	0,074
-204,636	191,056	-0,063	0,069
-203,621	-101,243	-0,091	0,016
-202,606	62,836	-0,011	-0,008
-201,592	-116,489	0,160	-0,021
-200,577	-78,613	-0,143	-0,035
-199,563	-89,599	-0,036	0,008
-198,548	-200,000	-0,013	-0,082
-197,533	-67,923	-0,036	-0,010
-196,519	78,398	-0,069	-0,053
-195,504	-200,000	0,013	0,079
-194,490	-138,455	0,014	0,001
-193,475	726,886	-0,070	-0,136
-192,460	50,355	0,099	-0,068
-191,446	-200,000	0,008	0,059
-190,431	20,327	0,075	-0,044
-189,417	-200,000	0,016	-0,143
-188,402	-150,683	-0,094	0,005
-187,387	-200,000	-0,026	-0,087
-186,373	73,860	-0,034	-0,026
-185,358	-36,545	0,115	-0,045
-184,344	-57,803	0,155	0,049
-183,329	-85,868	-0,183	0,041
-182,315	-67,221	-0,034	-0,010
-181,300	186,016	0,064	0,069
-180,285	-200,000	-0,000	-0,030
-179,271	201,983	-0,093	0,104
-178,256	393,795	0,055	-0,083
-177,242	97,559	0,079	-0,066
-176,227	-200,000	0,012	0,143
-175,212	362,982	0,022	-0,032
-174,198	800,000	0,020	-0,050
-173,183	-123,320	-0,187	0,021
-172,169	145,220	0,093	0,090
-171,154	800,000	-0,027	-0,072
-170,139	-200,000	-0,010	0,097
-169,125	-49,577	-0,155	0,053
-168,110	78,702	0,036	0,028
-167,096	277,121	-0,060	-0,078
-166,081	800,000	0,027	-0,071
-165,066	-137,167	0,103	-0,008
-164,052	-80,436	0,084	-0,020
-163,037	-15,053	-0,096	-0,045
-162,023	-90,297	-0,087	-0,018
-161,008	-127,887	0,140	0,014
-159,993	287,961	0,085	0,111
-158,979	-78,491	-0,164	-0,041
-157,964	184,500	0,007	0,008
-156,950	800,000	-0,046	-0,101
-155,935	800,000	-0,025	-0,077
-154,920	136,202	0,052	-0,049
-153,906	-62,202	0,176	-0,053
-152,891	-200,000	-0,007	0,045
-151,877	-76,770	-0,110	-0,028
-150,862	-200,000	0,091	0,000
-149,847	274,427	0,031	0,040
-148,833	183,043	-0,046	0,049
-147,818	-200,000	0,013	0,078
-146,804	-200,000	-0,004	0,220
-145,789	-63,704	0,040	0,012
-144,775	248,365	0,076	-0,093
-143,760	6,055	-0,171	-0,092
-142,745	185,658	-0,066	0,071
-141,731	23,131	0,091	0,054
-140,716	-200,000	-0,012	0,145
-139,702	-200,000	-0,030	0,193
-138,687	800,000	0,051	0,125
-137,672	-200,000	-0,003	0,066
-136,658	47,857	-0,031	0,021
-135,643	27,271	0,078	-0,047
-134,629	-200,000	-0,020	-0,113
-133,614	800,000	-0,017	-0,047
-132,599	48,690	0,075	0,051
-131,585	-200,000	0,016	0,068
-130,570	-53,442	-0,140	-0,046
-129,556	-0,105	0,039	-0,020
-128,541	-200,000	-0,029	0,137
-127,526	-172,723	0,042	-0,001
-126,512	-200,000	-0,012	0,128
-125,497	800,000	0,067	0,158
-124,483	-200,000	-0,007	-0,027
-123,468	-114,672	-0,078	0,011
-122,453	-154,140	0,128	0,006
-121,439	-200,000	-0,001	-0,147
-120,424	-167,485	0,091	0,003
-119,410	323,202	0,034	-0,046
-118,395	171,294	0,079	0,082
-117,380	-200,000	-0,005	0,178
-116,366	7,118	-0,111	-0,060
-115,351	157,418	-0,039	-0,039
-114,337	-200,000	-0,016	-0,078
-113,322	-44,600	-0,070	0,025
-112,307	800,000	-0,053	-0,119
-111,293	-38,536	0,049	-0,019
-110,278	-32,065	0,016	0,006
-109,264	-145,926	0,033	-0,002
-108,249	116,126	-0,069	0,061
-107,234	340,997	0,016	0,023
-106,220	-13,186	-0,091	0,043
-105,205	97,387	0,162	0,135
-104,191	-48,858	0,115	-0,040
-103,176	181,943	0,069	0,073
-102,162	14,699	0,023	0,013
-101,147	-185,827	0,088	-0,001
-100,132	105,167	-0,033	0,028
-99,118	479,281	-0,101	0,166
-98,103	-200,000	0,002	0,023
-97,089	-97,762	0,077	-0,014
-96,074	-4,637	-0,040	0,020
-95,059	-200,000	-0,032	0,155
-94,045	-116,222	0,149	0,020
-93,030	70,755	-0,066	0,049
-92,016	376,309	0,015	-0,023
-91,001	-200,000	0,016	-0,087
-89,986	-11,378	-0,068	-0,032
-88,972	584,788	0,057	0,102
-87,957	-200,000	0,017	0,107
-86,943	-30,814	0,049	-0,020
-85,928	731,596	0,049	0,096
-84,913	-9,156	-0,099	-0,048
-83,899	-45,594	-0,080	0,028
-82,884	14,317	0,181	0,102
-81,870	293,675	-0,041	0,054
-80,855	-200,000	-0,033	0,139
-79,840	547,867	0,043	-0,075
-78,826	-200,000	0,029	-0,168
-77,811	-82,547	-0,042	-0,010
-76,797	23,836	0,129	0,077
-75,782	-48,440	0,115	0,040
-74,767	-200,000	0,015	-0,056
-73,753	629,465	-0,030	0,056
-72,738	455,340	-0,039	0,063
-71,724	800,000	-0,007	0,021
-70,709	-125,009	-0,147	0,016
-69,694	278,441	0,007	-0,010
-68,680	-200,000	0,013	0,063
-67,665	-26,786	0,095	0,040
-66,651	-200,000	0,007	0,041
-65,636	-67,750	-0,067	0,019
-64,622	-166,377	-0,052	0,002
-63,607	674,784	-0,009	0,017
-62,592	48,292	-0,050	-0,034
-61,578	54,821	0,108	-0,075
-60,563	108,836	0,045	-0,039
-59,549	-200,000	-0,012	0,064
-58,534	-47,902	-1,644	-0,571
-57,519	800,000	-0,481	-1,118
-56,505	-200,000	-1,028	-4,932
-55,490	-142,484	0,645	-0,045
-54,476	800,000	5,213	12,203
-53,461	-200,000	15,907	278,674
-52,446	-200,000	702,480	2248,976
-51,432	565,222	1618,745	2844,323
-50,417	121,701	1623,086	1461,029
-49,403	82,199	1283,930	1004,167
-48,388	36,873	1028,188	654,820
-47,373	21,584	989,834	579,856
-46,359	20,511	978,663	569,752
-45,344	18,880	974,375	561,873
-44,330	18,933	973,238	561,370
-43,315	18,675	971,557	559,534
-42,300	18,646	970,318	558,700
-41,286	18,660	969,339	558,160
-40,271	18,617	968,503	557,517
-39,257	18,623	967,705	557,056
-38,242	18,595	966,807	556,426
-37,227	18,608	966,030	555,997
-36,213	18,572	965,356	555,472
-35,198	18,590	964,379	554,944
-34,184	18,586	963,631	554,480
-33,169	18,533	962,687	553,743
-32,154	18,602	961,891	553,486
-31,140	18,616	960,993	552,994
-30,125	18,645	960,107	552,554
-29,111	18,649	959,461	552,173
-28,096	18,575	958,901	551,590
-27,082	18,576	958,184	551,159
-26,067	18,578	957,471	550,735
-25,052	18,585	956,459	550,153
-24,038	18,520	955,839	549,565
-23,023	18,536	955,240	549,251
-22,009	18,659	954,377	549,129
-20,994	18,594	953,921	548,636
-19,979	18,578	953,240	548,171
-18,965	18,644	952,567	547,974
-17,950	18,558	952,220	547,476
-16,936	18,538	951,318	546,873
-15,921	18,540	950,762	546,537
-14,906	18,461	950,139	545,903
-13,892	18,483	949,384	545,519
-12,877	18,412	948,756	544,909
-11,863	18,391	948,198	544,500
-10,848	18,435	947,620	544,286
-9,833	18,569	947,042	544,362
-8,819	18,488	946,471	543,751
-7,804	18,469	945,764	543,265
-6,790	18,450	945,309	542,921
-5,775	18,484	944,542	542,566
-4,760	18,507	943,904	542,252
-3,746	18,460	943,474	541,834
-2,731	18,280	942,727	540,810
-1,717	18,281	941,858	540,293
-0,702	18,340	941,183	540,074
0,313	18,141	940,566	539,903
1,327	21,234	938,860	548,668
2,342	30,284	796,356	489,487
3,356	27,397	449,352	271,842
4,371	-2,433	295,099	148,654
5,386	-6,522	276,245	135,265
6,400	-7,632	270,653	131,482
7,415	-8,167	268,221	129,794
8,429	-8,083	266,827	129,186
9,444	-8,021	266,154	128,905
10,459	-8,124	265,562	128,512
11,473	-8,106	264,831	128,164
12,488	-8,159	264,366	127,880
13,502	-8,457	263,756	127,302
14,517	-8,282	263,373	127,265
15,531	-8,232	262,931	127,085
16,546	-8,265	262,638	126,903
17,561	-8,260	262,196	126,682
18,575	-8,065	261,719	126,616
19,590	-8,326	261,582	126,304
20,604	-8,027	261,091	126,324
21,619	-8,184	260,763	126,012
22,634	-8,378	260,599	125,749
23,648	-8,386	260,210	125,543
24,663	-8,264	259,891	125,486
25,677	-8,387	259,716	125,281
26,692	-8,433	259,537	125,142
27,707	-8,311	259,304	125,127
28,721	-8,210	258,774	124,951
29,736	-8,405	258,651	124,707
30,750	-8,271	258,452	124,718
31,765	-8,327	258,135	124,505
32,780	-8,309	257,825	124,361
33,794	-8,389	257,754	124,244
34,809	-8,405	257,577	124,133
35,823	-8,312	257,224	124,035
36,838	-8,575	257,068	123,716
37,853	-8,427	256,632	123,626
38,867	-8,542	256,552	123,475
39,882	-8,395	256,160	123,404
40,896	-8,346	256,095	123,405
41,911	-8,390	255,683	123,157
42,926	-8,563	255,620	122,964
43,940	-8,399	255,333	122,959
44,955	-8,450	255,116	122,799
45,969	-8,635	254,937	122,540
46,984	-8,715	254,551	122,273
47,999	-8,944	254,234	121,910
49,013	-9,150	254,147	121,678
50,028	-9,180	253,746	121,449
51,042	-9,412	253,710	121,219
52,057	-9,288	253,250	121,097
53,071	-9,284	253,182	121,056
54,086	-9,237	253,005	121,003
55,101	-9,145	252,854	120,999
56,115	-8,770	252,789	121,282
57,130	-8,461	252,719	121,505
58,144	-8,135	252,564	121,702
59,159	-8,049	252,289	121,633
60,174	-8,191	252,187	121,450
61,188	-8,227	251,804	121,223
62,203	-8,349	251,809	121,111
63,217	-8,336	251,336	120,883
64,232	-8,369	251,127	120,743
65,247	-8,298	251,025	120,744
66,261	-8,285	250,781	120,627
67,276	-8,425	250,438	120,331
68,290	-8,661	250,288	120,046
69,305	-8,822	250,090	119,803
70,320	-8,781	249,815	119,696
71,334	-8,421	249,587	119,883
72,349	-8,103	249,370	120,040
73,363	-8,040	249,351	120,074
74,378	-8,181	249,224	119,882
75,393	-8,278	248,933	119,648
76,407	-8,314	248,702	119,496
77,422	-8,296	248,520	119,413
78,436	-8,248	248,392	119,382
79,451	-8,117	248,127	119,355
80,466	-8,488	247,803	118,875
81,480	-8,532	247,643	118,749
82,495	-8,618	247,430	118,564
83,509	-8,558	247,285	118,534
84,524	-8,640	247,110	118,371
85,539	-8,712	246,789	118,146
86,553	-8,924	246,686	117,907
87,568	-8,639	246,417	118,008
88,582	-8,464	246,359	118,118
89,597	-8,689	246,145	117,815
90,611	-8,530	246,087	117,910
91,626	-8,567	245,928	117,793
92,641	-8,341	245,708	117,866
93,655	-8,483	245,513	117,644
94,670	-8,551	245,206	117,428
95,684	-8,517	244,986	117,342
96,699	-8,375	244,848	117,384
97,714	-8,585	244,621	117,089
98,728	-8,595	244,429	116,979
99,743	-8,724	244,193	116,748
100,757	-8,891	244,076	116,541
101,772	-8,749	243,929	116,579
102,787	-8,774	243,678	116,428
103,801	-8,713	243,592	116,428
104,816	-8,389	243,294	116,544
105,830	-8,410	243,322	116,529
106,845	-8,412	243,249	116,482
107,860	-8,282	242,844	116,385
108,874	-8,472	242,602	116,103
109,889	-8,612	242,637	115,992
110,903	-8,522	242,230	115,862
111,918	-8,637	242,077	115,684
112,933	-8,518	241,873	115,674
113,947	-8,486	241,743	115,628
114,962	-8,378	241,723	115,697
115,976	-8,394	241,455	115,545
116,991	-8,497	241,284	115,368
118,006	-8,570	241,032	115,177
119,020	-8,557	240,995	115,160
120,035	-8,298	240,894	115,314
121,049	-8,279	240,555	115,157
122,064	-8,251	240,460	115,125
123,079	-8,454	240,330	114,886
124,093	-8,459	239,959	114,694
125,108	-8,639	239,737	114,431
126,122	-8,883	239,493	114,105
127,137	-8,764	239,392	114,143
128,151	-8,961	239,228	113,895
129,166	-8,599	239,042	114,091
130,181	-8,726	238,970	113,943
131,195	-8,914	238,718	113,660
132,210	-8,436	238,476	113,923
133,224	-8,281	238,493	114,046
134,239	-8,441	238,391	113,858
135,254	-8,401	238,029	113,707
136,268	-8,545	237,790	113,466
137,283	-8,640	237,570	113,274
138,297	-8,926	237,351	112,928
139,312	-8,848	237,301	112,958
140,327	-8,620	237,236	113,101
141,341	-8,049	237,056	113,465
142,356	-8,192	236,990	113,308
143,370	-7,905	236,732	113,406
144,385	-7,952	236,802	113,392
145,400	-8,143	236,619	113,141
146,414	-7,910	236,326	113,177
147,429	-8,035	236,228	113,019
148,443	-8,071	236,065	112,903
149,458	-8,212	235,804	112,655
150,473	-7,950	235,630	112,771
151,487	-8,359	235,441	112,343
152,502	-8,082	235,292	112,484
153,516	-7,947	235,046	112,465
154,531	-8,121	235,035	112,310
155,546	-8,078	234,780	112,212
156,560	-8,192	234,613	112,032
157,575	-8,323	234,379	111,806
158,589	-8,289	234,280	111,775
159,604	-8,083	234,203	111,893
160,619	-8,096	234,055	111,802
161,633	-8,013	233,839	111,754
162,648	-7,977	233,725	111,718
163,662	-8,186	233,508	111,440
164,677	-8,278	233,295	111,255
165,692	-8,178	233,219	111,288
166,706	-7,927	233,074	111,407
167,721	-7,913	232,920	111,335
168,735	-7,713	232,681	111,368
169,750	-8,010	232,613	111,091
170,764	-8,095	232,510	110,965
171,779	-8,004	232,524	111,033
172,794	-8,013	232,196	110,860
173,808	-8,154	231,881	110,590
174,823	-8,521	231,612	110,163
175,837	-8,879	231,366	109,755
176,852	-8,436	231,527	110,169
177,867	-8,121	231,245	110,273
178,881	-8,079	231,089	110,222
179,896	-7,830	231,070	110,398
180,910	-7,962	230,839	110,174
181,925	-8,059	230,794	110,067
182,940	-7,873	230,612	110,115
183,954	-8,050	230,643	109,982
184,969	-7,849	230,287	109,959
185,983	-7,826	230,146	109,900
186,998	-7,794	230,033	109,861
188,013	-7,671	229,821	109,846
189,027	-8,015	229,687	109,504
190,042	-7,972	229,594	109,484
191,056	-7,801	229,225	109,430
192,071	-7,840	229,210	109,384
193,086	-7,897	229,007	109,233
194,100	-7,814	228,954	109,262
195,115	-7,871	228,675	109,075
196,129	-8,020	228,541	108,886
197,144	-3,981	230,136	112,777
198,159	1,506	231,502	117,719
199,173	3,419	231,846	119,375
200,188	3,399	231,764	119,306
201,202	3,478	231,656	119,301
202,217	3,838	231,656	119,571
203,232	3,925	231,368	119,479
204,246	4,012	231,389	119,547
205,261	4,041	231,281	119,503
206,275	4,320	231,222	119,678
207,290	4,302	231,087	119,584
208,304	4,339	230,785	119,446
209,319	4,023	230,741	119,168
210,334	4,166	230,498	119,142
211,348	3,949	230,151	118,785
212,363	3,698	229,937	118,470
213,377	3,411	229,738	118,135
214,392	3,524	229,406	118,041
215,407	3,419	229,485	117,991
216,421	3,508	229,352	117,980
217,436	3,366	229,110	117,736
218,450	3,259	228,905	117,538
219,465	3,335	228,795	117,529
220,480	3,166	228,739	117,360
221,494	3,179	228,360	117,165
222,509	3,223	228,405	117,212
223,523	3,496	228,147	117,277
224,538	3,261	228,058	117,041
225,553	3,419	227,937	117,090
226,567	3,502	227,896	117,122
227,582	3,798	227,843	117,310
228,596	3,796	227,777	117,264
229,611	3,326	227,469	116,737
230,626	3,470	227,198	116,697
231,640	3,223	226,978	116,386
232,655	3,613	227,027	116,697
233,669	3,999	227,045	116,990
234,684	4,161	226,710	116,930
235,699	3,916	226,602	116,677
236,713	3,665	226,285	116,314
237,728	3,496	226,096	116,078
238,742	3,300	225,989	115,864
239,757	3,211	225,878	115,730
240,772	3,193	225,761	115,646
241,786	3,242	225,600	115,590
242,801	3,517	225,476	115,724
243,815	3,924	225,389	115,976
244,830	3,817	225,407	115,895
245,844	3,677	225,004	115,572
246,859	3,526	224,908	115,398
247,874	3,769	224,896	115,565
248,888	3,554	224,755	115,320
249,903	3,481	224,549	115,149
250,917	3,656	224,172	115,077
251,932	3,387	224,218	114,889
252,947	3,279	224,031	114,702
253,961	3,205	223,831	114,533
254,976	3,421	223,750	114,644
255,990	3,759	223,551	114,784
257,005	3,730	223,371	114,660
258,020	3,609	223,511	114,631
259,034	3,843	223,232	114,652
260,049	3,563	223,215	114,425
261,063	3,516	222,846	114,190
262,078	3,705	222,794	114,293
263,093	3,767	222,713	114,288
264,107	3,900	222,427	114,230
265,122	3,922	222,250	114,146
266,136	4,069	222,160	114,198
267,151	3,841	221,991	113,932
268,166	3,629	221,745	113,638
269,180	3,094	221,667	113,192
270,195	3,432	221,458	113,326
271,209	3,270	221,374	113,153
272,224	3,276	221,341	113,130
273,239	3,681	221,144	113,319
274,253	3,280	221,044	112,961
275,268	3,442	220,695	112,892
276,282	3,235	220,533	112,647
277,297	3,048	220,444	112,454
278,312	3,236	220,373	112,546
279,326	3,513	220,249	112,676
280,341	3,311	220,143	112,464
281,355	3,575	219,983	112,565
282,370	3,556	219,847	112,472
283,384	3,170	219,629	112,067
284,399	3,093	219,458	111,914
285,414	3,078	219,473	111,900
286,428	3,386	219,361	112,059
287,443	3,550	219,217	112,095
288,457	3,535	219,020	111,973
289,472	3,395	218,746	111,721
290,487	3,096	218,555	111,396
291,501	3,290	218,295	111,395
292,516	3,249	218,482	111,450
293,530	2,949	218,337	111,148
294,545	3,226	218,152	111,245
295,560	3,287	217,949	111,176
296,574	3,424	217,954	111,268
297,589	3,424	217,832	111,196
298,603	3,580	217,598	111,180
299,618	3,428	217,480	110,999
300,633	3,651	217,438	111,129
301,647	3,609	217,294	111,016
302,662	3,797	217,096	111,041
303,676	3,735	216,881	110,876
304,691	3,550	216,771	110,676
305,706	3,567	216,813	110,700
306,720	3,693	216,582	110,663
307,735	3,597	216,291	110,435
308,749	3,544	216,256	110,369
309,764	3,377	216,262	110,243
310,779	3,293	216,100	110,090
311,793	3,523	215,830	110,107
312,808	3,639	215,670	110,099
313,822	3,675	215,554	110,056
314,837	3,494	215,499	109,889
315,852	3,423	215,108	109,628
316,866	3,473	215,114	109,658
317,881	3,613	215,022	109,701
318,895	3,690	214,840	109,653
319,910	3,356	214,709	109,339
320,925	3,066	214,451	108,991
321,939	3,102	214,218	108,887
322,954	3,067	214,225	108,857
323,968	3,328	214,226	109,034
324,983	3,602	214,092	109,150
325,997	3,776	214,017	109,226
327,012	3,560	213,673	108,888
328,027	3,311	213,604	108,666
329,041	3,741	213,644	108,982
330,056	3,824	213,537	108,976
331,070	3,397	213,180	108,482
332,085	3,025	213,066	108,151
333,100	3,307	212,928	108,271
334,114	3,458	212,670	108,237
335,129	3,455	212,495	108,136
336,143	3,372	212,418	108,028
337,158	3,234	212,507	107,967
338,173	3,481	212,200	107,975
339,187	3,295	212,114	107,791
340,202	3,013	211,959	107,504
341,216	2,964	211,772	107,365
342,231	3,005	211,784	107,391
343,246	3,260	211,573	107,453
344,260	3,076	211,406	107,230
345,275	3,358	211,294	107,361
346,289	3,577	211,268	107,492
347,304	3,598	211,119	107,421
348,319	3,612	211,007	107,364
349,333	3,361	210,833	107,090
350,348	3,481	210,639	107,066
351,362	3,636	210,519	107,103
352,377	3,412	210,511	106,934
353,392	3,510	210,227	106,848
354,406	3,480	210,136	106,772
355,421	196,458	1340,072	1429,209
356,435	156,930	1477,772	1429,244
