DTS Sentinel unit serial number:	SN410029Multiplexer serial number:	ORYXHardware model number:	OX2-SRSoftware version number:	ORYX F/W v4,00 Oryx Data Collector v3.7.2.0data status	okinstallation	B6 Nyhavnadifferential loss correction	single-endedforward channel	channel 2reverse channel	N/Adate	2023/12/08time	10:55:08forward acquisition time	300,00reverse acquisition time	0,00gamma	499,1914k internal	0,3162k external	0,3162temperature offset calibration	1,0000default loss term (dB/km)	0,3820temperature slope calibration	1,0000multiplexer offset coefficient	1,0000multiplexer slope coefficient	1,0000fibre end	0,00T internal ref (°C)	14,71T ext. ref 1 (°C)	-1,31T ext. ref 2 (°C)	-1,26length (m)	temperature (°C)	Stokes	anti-Stokes-744,400	800,000	0,058	0,177
-743,385	-72,048	-0,354	0,096
-742,371	-34,659	0,164	0,066
-741,356	-8,084	-0,286	-0,142
-740,342	118,512	0,128	0,117
-739,327	41,015	-0,245	0,163
-738,312	156,687	0,084	0,085
-737,298	-105,396	-0,355	0,059
-736,283	-124,442	0,119	-0,013
-735,269	-50,986	-0,209	0,072
-734,254	166,251	0,111	0,116
-733,239	-69,534	-0,513	-0,144
-732,225	-190,260	0,206	0,002
-731,210	-147,640	-0,099	-0,006
-730,196	-200,000	0,019	-0,127
-729,181	772,705	0,072	-0,145
-728,167	68,020	-0,023	-0,017
-727,152	-71,662	-0,100	-0,027
-726,137	-200,000	0,014	-0,055
-725,123	-83,948	-0,049	-0,011
-724,108	-117,337	-0,183	0,024
-723,094	-178,781	-0,037	-0,001
-722,079	75,658	-0,019	-0,015
-721,064	-82,163	0,037	0,009
-720,050	-178,574	0,111	0,002
-719,035	-43,196	0,133	-0,049
-718,021	800,000	-0,085	-0,202
-717,006	2,242	0,053	-0,028
-715,991	71,241	-0,161	-0,123
-714,977	800,000	-0,074	0,159
-713,962	-200,000	0,011	0,038
-712,948	-111,949	-0,064	-0,009
-711,933	-200,000	-0,002	-0,100
-710,918	-48,459	-0,029	-0,010
-709,904	503,756	0,060	-0,102
-708,889	121,105	-0,038	-0,035
-707,875	800,000	0,033	-0,074
-706,860	8,021	0,067	0,037
-705,845	-200,000	-0,004	0,023
-704,831	-168,905	0,150	0,004
-703,816	-102,599	0,029	-0,005
-702,802	-100,043	-0,261	0,047
-701,787	-200,000	-0,014	-0,116
-700,772	105,091	-0,046	0,040
-699,758	800,000	0,026	-0,061
-698,743	-14,585	0,068	0,032
-697,729	430,493	0,021	0,034
-696,714	-200,000	0,007	0,161
-695,699	-200,000	0,006	0,037
-694,685	-101,156	-0,006	0,001
-693,670	382,089	-0,099	0,150
-692,656	95,825	-0,036	0,030
-691,641	-200,000	0,014	-0,085
-690,627	800,000	0,039	0,109
-689,612	-200,000	-0,005	-0,052
-688,597	-63,994	0,041	-0,012
-687,583	283,626	-0,039	0,051
-686,568	-51,412	-0,120	-0,041
-685,554	-200,000	0,016	-0,107
-684,539	-200,000	-0,002	-0,025
-683,524	800,000	0,025	-0,061
-682,510	4,431	0,049	-0,026
-681,495	800,000	-0,014	-0,041
-680,481	-138,196	-0,142	0,011
-679,466	-120,403	-0,164	0,020
-678,451	-200,000	0,017	-0,141
-677,437	-200,000	-0,014	-0,073
-676,422	99,431	-0,073	0,062
-675,408	27,568	0,071	0,044
-674,393	281,298	-0,039	-0,051
-673,378	46,846	-0,090	-0,061
-672,364	-164,844	-0,082	-0,003
-671,349	-28,586	0,134	-0,057
-670,335	148,275	-0,039	-0,039
-669,320	91,380	0,027	0,022
-668,305	373,825	0,041	-0,062
-667,291	-200,000	-0,020	-0,117
-666,276	7,411	-0,048	-0,026
-665,262	8,120	0,116	-0,064
-664,247	-45,441	-0,116	-0,042
-663,232	752,069	0,009	-0,018
-662,218	-200,000	-0,004	0,049
-661,203	-106,019	-0,036	0,006
-660,189	47,421	0,034	0,023
-659,174	-59,449	0,051	0,016
-658,159	557,312	-0,065	-0,115
-657,145	20,492	-0,058	0,035
-656,130	-178,356	-0,100	0,002
-655,116	267,428	-0,011	-0,014
-654,101	459,992	0,030	-0,049
-653,086	-115,806	0,024	0,003
-652,072	128,694	0,045	0,042
-651,057	-200,000	-0,002	-0,100
-650,043	-35,693	-0,072	0,028
-649,028	-200,000	0,009	-0,033
-648,014	-200,000	0,024	0,113
-646,999	-1,485	0,109	0,056
-645,984	306,765	-0,029	-0,040
-644,970	-200,000	-0,026	-0,109
-643,955	-37,036	-0,111	-0,043
-642,941	-200,000	0,014	-0,086
-641,926	298,002	-0,065	-0,088
-640,911	269,501	-0,066	-0,085
-639,897	154,048	0,101	0,101
-638,882	800,000	-0,036	0,096
-637,868	800,000	0,065	-0,182
-636,853	104,386	0,003	0,003
-635,838	-200,000	-0,002	0,068
-634,824	-200,000	-0,007	-0,091
-633,809	60,676	0,127	0,092
-632,795	-171,880	0,097	-0,002
-631,780	-102,090	-0,094	-0,016
-630,765	-170,202	-0,204	-0,005
-629,751	-200,000	0,018	0,093
-628,736	190,377	-0,134	-0,148
-627,722	179,244	-0,050	0,053
-626,707	42,249	-0,100	0,067
-625,692	123,684	0,116	-0,106
-624,678	197,758	-0,040	0,045
-623,663	-173,138	0,032	-0,001
-622,649	110,101	-0,072	-0,064
-621,634	-105,841	-0,130	0,021
-620,619	102,446	-0,059	-0,051
-619,605	-200,000	-0,005	-0,019
-618,590	-147,364	0,175	-0,011
-617,576	-200,000	-0,020	-0,107
-616,561	602,542	0,097	-0,177
-615,546	279,726	0,061	-0,080
-614,532	-141,099	-0,051	-0,004
-613,517	800,000	0,051	-0,117
-612,503	-112,902	0,077	-0,011
-611,488	62,555	-0,037	-0,027
-610,474	505,530	0,056	0,095
-609,459	170,965	0,095	0,100
-608,444	233,665	0,038	-0,046
-607,430	331,039	-0,057	-0,080
-606,415	278,210	-0,054	-0,071
-605,401	9,489	0,091	0,050
-604,386	102,754	0,055	0,047
-603,371	691,522	0,039	0,075
-602,357	373,614	-0,066	0,098
-601,342	21,826	-0,094	-0,056
-600,328	689,541	0,054	-0,104
-599,313	-98,969	0,075	0,014
-598,298	-37,916	-0,036	0,014
-597,284	6,958	0,022	-0,012
-596,269	-200,000	0,018	-0,164
-595,255	-66,817	0,042	-0,012
-594,240	53,071	-0,131	-0,092
-593,225	800,000	0,040	0,118
-592,211	-172,330	-0,147	0,003
-591,196	-128,389	0,032	-0,003
-590,182	4,876	0,157	0,084
-589,167	302,776	-0,086	0,117
-588,152	-200,000	0,017	0,058
-587,138	-200,000	0,012	-0,122
-586,123	-200,000	-0,003	-0,126
-585,109	-115,625	-0,072	-0,010
-584,094	-96,143	0,024	0,005
-583,079	-97,513	0,077	-0,015
-582,065	-29,421	-0,085	0,036
-581,050	196,263	-0,019	0,022
-580,036	62,811	-0,070	-0,051
-579,021	140,298	-0,152	-0,146
-578,006	-172,534	-0,105	-0,002
-576,992	800,000	0,057	0,123
-575,977	301,971	0,128	-0,174
-574,963	-148,941	-0,058	0,003
-573,948	285,337	-0,035	-0,046
-572,934	115,997	-0,085	-0,076
-571,919	800,000	0,028	0,082
-570,904	800,000	-0,036	-0,096
-569,890	-128,311	-0,098	-0,010
-568,875	355,970	-0,036	-0,053
-567,861	-173,430	0,110	-0,002
-566,846	328,647	-0,042	-0,059
-565,831	-200,000	-0,006	-0,036
-564,817	34,761	-0,066	-0,042
-563,802	-83,045	0,053	0,012
-562,788	-200,000	0,007	-0,164
-561,773	51,665	-0,092	-0,064
-560,758	629,388	-0,053	0,098
-559,744	-42,564	-0,013	-0,005
-558,729	174,771	0,075	-0,080
-557,715	-52,815	-0,146	0,049
-556,700	-162,759	-0,038	0,001
-555,685	461,137	-0,033	-0,053
-554,671	455,944	0,069	0,113
-553,656	35,536	0,015	-0,009
-552,642	-200,000	-0,010	-0,036
-551,627	-200,000	-0,002	-0,076
-550,612	432,798	-0,052	0,082
-549,598	267,917	-0,064	-0,082
-548,583	800,000	-0,024	0,067
-547,569	198,142	0,018	-0,020
-546,554	79,100	0,062	0,048
-545,539	-200,000	0,011	0,140
-544,525	-97,355	-0,066	-0,012
-543,510	270,685	0,117	0,150
-542,496	800,000	0,035	0,096
-541,481	800,000	-0,036	0,075
-540,466	-200,000	-0,001	-0,020
-539,452	-164,600	0,170	0,006
-538,437	-149,950	0,076	-0,004
-537,423	150,530	0,064	0,064
-536,408	-86,369	-0,088	-0,019
-535,393	-53,533	0,099	0,033
-534,379	301,507	-0,043	-0,058
-533,364	33,543	-0,147	0,093
-532,350	153,161	-0,088	0,088
-531,335	-145,470	0,060	-0,004
-530,321	-19,872	0,076	0,034
-529,306	197,226	0,027	0,030
-528,291	800,000	-0,038	0,091
-527,277	99,304	0,056	-0,048
-526,262	-200,000	0,014	-0,084
-525,248	70,198	-0,060	0,045
-524,233	323,024	-0,025	-0,034
-523,218	-200,000	0,012	0,113
-522,204	-200,000	0,010	0,066
-521,189	800,000	-0,006	0,012
-520,175	-200,000	-0,028	-0,104
-519,160	800,000	-0,058	0,169
-518,145	800,000	0,050	-0,155
-517,131	800,000	0,047	0,141
-516,116	-101,656	0,052	0,009
-515,102	800,000	-0,028	-0,062
-514,087	-127,429	-0,056	-0,006
-513,072	152,555	-0,029	-0,029
-512,058	21,348	-0,130	-0,077
-511,043	-100,874	0,024	0,004
-510,029	300,902	-0,036	0,049
-509,014	799,883	0,015	-0,031
-507,999	160,785	-0,082	0,083
-506,985	-200,000	-0,025	-0,162
-505,970	269,427	0,050	-0,064
-504,956	112,551	-0,109	-0,097
-503,941	-56,064	0,031	-0,010
-502,926	152,827	-0,034	-0,034
-501,912	180,565	0,123	0,132
-500,897	-26,494	-0,029	0,013
-499,883	800,000	0,038	-0,113
-498,868	800,000	0,061	-0,130
-497,853	-200,000	-0,009	-0,054
-496,839	33,031	0,197	0,124
-495,824	-200,000	-0,001	0,068
-494,810	160,145	0,085	0,087
-493,795	-200,000	-0,000	0,058
-492,781	4,499	0,144	0,077
-491,766	-87,542	-0,098	-0,021
-490,751	-18,525	-0,050	-0,023
-489,737	800,000	0,031	0,081
-488,722	-60,472	0,060	0,018
-487,708	-1,854	0,028	-0,014
-486,693	-52,537	-0,143	0,048
-485,678	-114,155	0,059	-0,008
-484,664	25,518	-0,044	0,027
-483,649	457,660	0,093	-0,151
-482,635	176,388	0,132	0,140
-481,620	7,896	-0,033	-0,018
-480,605	-200,000	-0,021	0,101
-479,591	800,000	0,054	0,127
-478,576	800,000	0,039	-0,116
-477,562	-53,523	-0,132	-0,044
-476,547	800,000	0,052	0,137
-475,532	347,547	-0,038	0,055
-474,518	-145,208	-0,158	-0,010
-473,503	154,530	0,088	0,088
-472,489	800,000	-0,029	-0,076
-471,474	359,519	-0,040	-0,058
-470,459	-200,000	-0,017	0,063
-469,445	527,965	-0,046	-0,080
-468,430	-200,000	0,036	-0,124
-467,416	800,000	0,027	0,072
-466,401	451,240	0,056	0,090
-465,386	478,796	0,004	-0,007
-464,372	115,507	-0,127	0,113
-463,357	-152,083	-0,073	0,004
-462,343	32,611	-0,069	-0,043
-461,328	-200,000	-0,014	-0,119
-460,313	-104,694	-0,072	0,012
-459,299	-79,845	0,142	0,035
-458,284	-200,000	0,030	0,119
-457,270	-200,000	0,017	0,089
-456,255	-5,225	0,060	0,030
-455,241	9,757	-0,111	0,061
-454,226	30,139	0,064	0,040
-453,211	-75,163	-0,043	0,011
-452,197	-200,000	-0,006	0,047
-451,182	800,000	-0,017	0,051
-450,168	800,000	0,085	0,227
-449,153	800,000	0,037	-0,078
-448,138	-200,000	-0,014	-0,147
-447,124	800,000	0,036	-0,100
-446,109	287,548	-0,012	0,015
-445,095	-200,000	-0,009	0,106
-444,080	55,539	0,053	0,037
-443,065	800,000	0,020	0,059
-442,051	800,000	0,020	0,056
-441,036	-200,000	0,015	-0,136
-440,022	-200,000	-0,032	-0,124
-439,007	-200,000	0,008	-0,185
-437,992	-200,000	-0,011	-0,041
-436,978	-29,280	-0,071	0,030
-435,963	-200,000	0,044	-0,170
-434,949	51,883	-0,060	0,041
-433,934	-85,911	-0,080	-0,018
-432,919	-200,000	0,012	-0,100
-431,905	-14,558	0,010	-0,005
-430,890	72,363	-0,039	-0,029
-429,876	-4,157	0,015	-0,008
-428,861	17,254	-0,127	0,073
-427,846	20,802	0,044	0,026
-426,832	-37,868	0,058	-0,022
-425,817	174,607	-0,062	-0,065
-424,803	-200,000	0,010	0,099
-423,788	-17,144	0,114	0,052
-422,773	714,079	0,035	0,067
-421,759	39,682	-0,086	-0,056
-420,744	332,956	0,029	-0,041
-419,730	-182,843	-0,127	0,002
-418,715	92,117	-0,088	0,072
-417,701	159,542	0,057	0,058
-416,686	-12,531	-0,104	0,049
-415,671	-131,751	0,057	-0,005
-414,657	-5,853	-0,124	-0,062
-413,642	107,877	-0,058	-0,050
-412,628	-95,647	0,126	0,024
-411,613	800,000	-0,012	-0,027
-410,598	-200,000	-0,035	-0,146
-409,584	800,000	-0,024	-0,060
-408,569	800,000	0,024	0,065
-407,555	68,420	0,101	-0,075
-406,540	162,610	0,064	-0,065
-405,525	77,208	-0,099	-0,076
-404,511	-200,000	-0,000	-0,052
-403,496	800,000	0,057	-0,130
-402,482	-119,752	0,118	0,015
-401,467	-77,866	0,030	0,007
-400,452	-200,000	0,006	0,076
-399,438	-100,166	-0,158	0,028
-398,423	143,494	0,023	-0,022
-397,409	-84,962	-0,181	-0,041
-396,394	19,996	-0,085	-0,050
-395,379	530,005	0,012	-0,021
-394,365	195,304	-0,033	0,036
-393,350	-200,000	-0,011	0,126
-392,336	-200,000	-0,008	-0,120
-391,321	-200,000	-0,009	-0,088
-390,306	800,000	-0,057	-0,170
-389,292	-200,000	-0,021	0,111
-388,277	800,000	0,019	-0,054
-387,263	80,541	-0,077	-0,060
-386,248	217,509	0,039	0,045
-385,233	479,705	0,051	-0,084
-384,219	69,640	-0,055	-0,041
-383,204	388,930	0,052	-0,078
-382,190	-200,000	-0,023	0,145
-381,175	800,000	-0,016	-0,035
-380,160	-200,000	-0,003	-0,151
-379,146	12,706	0,048	-0,027
-378,131	358,645	-0,056	0,081
-377,117	-200,000	0,015	0,068
-376,102	-45,260	0,073	-0,026
-375,088	-200,000	-0,007	-0,094
-374,073	-200,000	-0,022	0,072
-373,058	117,441	0,005	0,005
-372,044	-200,000	0,027	0,100
-371,029	-200,000	0,005	0,055
-370,015	213,456	0,101	-0,116
-369,000	159,418	0,059	0,060
-367,985	-40,056	-0,088	0,033
-366,971	-135,350	0,129	0,011
-365,956	-200,000	-0,008	0,053
-364,942	800,000	0,006	-0,015
-363,927	15,659	0,056	-0,032
-362,912	-103,183	0,048	-0,008
-361,898	431,232	0,013	0,021
-360,883	43,704	-0,059	-0,039
-359,869	-40,937	0,094	-0,035
-358,854	-95,097	0,067	-0,013
-357,839	-200,000	-0,005	-0,085
-356,825	800,000	-0,048	-0,106
-355,810	562,088	-0,073	-0,128
-354,796	460,643	-0,046	-0,075
-353,781	493,475	-0,069	-0,115
-352,766	-200,000	-0,002	-0,066
-351,752	800,000	0,031	0,081
-350,737	-58,671	0,067	0,021
-349,723	-150,570	0,173	-0,009
-348,708	-200,000	-0,010	0,096
-347,693	-200,000	0,007	-0,151
-346,679	-200,000	-0,004	-0,030
-345,664	-200,000	0,002	0,095
-344,650	-61,298	0,067	-0,020
-343,635	-131,445	0,129	-0,012
-342,620	82,370	0,048	0,038
-341,606	-200,000	-0,028	0,184
-340,591	-200,000	-0,009	0,056
-339,577	800,000	-0,007	-0,021
-338,562	4,200	-0,099	-0,052
-337,548	273,602	0,016	0,021
-336,533	-0,157	0,052	-0,027
-335,518	-57,943	0,062	0,019
-334,504	328,868	-0,046	-0,064
-333,489	-103,365	-0,072	-0,012
-332,475	28,036	-0,093	-0,057
-331,460	-18,414	0,082	0,037
-330,445	-200,000	0,045	0,197
-329,431	383,318	0,039	0,059
-328,416	-141,338	-0,036	0,003
-327,402	-200,000	0,006	0,197
-326,387	-12,966	-0,108	-0,051
-325,372	-74,250	0,056	-0,015
-324,358	-200,000	0,010	0,069
-323,343	-200,000	-0,015	-0,048
-322,329	-200,000	0,032	0,159
-321,314	367,679	0,079	0,115
-320,299	800,000	0,040	0,116
-319,285	82,308	-0,119	0,094
-318,270	800,000	0,023	0,061
-317,256	158,957	-0,091	-0,091
-316,241	800,000	0,061	-0,131
-315,226	598,398	0,059	0,107
-314,212	427,100	0,063	-0,099
-313,197	-119,504	0,087	0,011
-312,183	-62,915	0,011	0,003
-311,168	42,374	-0,095	-0,063
-310,153	-200,000	0,014	-0,086
-309,139	554,297	0,037	0,065
-308,124	257,847	0,032	-0,039
-307,110	800,000	-0,033	0,092
-306,095	47,233	-0,144	0,097
-305,080	800,000	0,031	0,071
-304,066	112,286	-0,046	0,040
-303,051	82,419	0,107	-0,084
-302,037	-200,000	0,032	0,130
-301,022	-68,038	-0,049	-0,014
-300,008	-200,000	0,018	-0,100
-298,993	314,910	0,107	0,146
-297,978	-114,659	-0,098	0,013
-296,964	140,399	-0,059	0,056
-295,949	-118,699	0,024	0,003
-294,935	-2,064	-0,086	-0,043
-293,920	-54,507	-0,078	0,025
-292,905	800,000	0,029	0,089
-291,891	-44,906	0,138	0,050
-290,876	180,293	0,061	-0,065
-289,862	-67,473	-0,069	-0,020
-288,847	-7,665	-0,074	-0,036
-287,832	-41,884	-0,193	0,071
-286,818	-92,438	0,097	-0,019
-285,803	-127,326	0,097	-0,010
-284,789	96,998	-0,019	-0,016
-283,774	-200,000	0,002	-0,017
-282,759	-77,196	0,082	-0,021
-281,745	-55,761	-0,167	-0,054
-280,730	-200,000	-0,010	-0,047
-279,716	800,000	0,030	0,087
-278,701	39,478	-0,066	0,043
-277,686	800,000	0,027	0,059
-276,672	207,330	-0,107	0,121
-275,657	-142,435	0,113	0,008
-274,643	740,519	0,027	0,053
-273,628	-200,000	-0,016	-0,104
-272,613	-200,000	0,033	-0,121
-271,599	-2,453	0,062	-0,032
-270,584	-200,000	-0,017	0,087
-269,570	-200,000	0,004	-0,184
-268,555	261,083	-0,069	-0,087
-267,540	33,611	-0,190	-0,119
-266,526	800,000	-0,044	-0,115
-265,511	-200,000	-0,005	-0,056
-264,497	289,398	-0,045	-0,060
-263,482	130,626	0,037	0,035
-262,467	477,163	0,016	0,026
-261,453	-200,000	-0,023	0,120
-260,438	334,551	-0,061	-0,085
-259,424	800,000	0,031	-0,078
-258,409	111,736	0,038	-0,033
-257,395	-157,062	0,080	0,003
-256,380	-200,000	-0,009	0,137
-255,365	-9,674	-0,060	0,029
-254,351	2,936	-0,045	0,024
-253,336	-200,000	-0,025	-0,133
-252,322	-185,380	-0,044	0,000
-251,307	-200,000	-0,019	-0,088
-250,292	-200,000	-0,009	-0,102
-249,278	-39,803	0,164	-0,061
-248,263	-200,000	-0,014	0,057
-247,249	88,191	-0,076	0,061
-246,234	-87,738	-0,061	-0,013
-245,219	-1,948	0,025	0,012
-244,205	66,201	0,072	-0,053
-243,190	109,188	-0,111	0,096
-242,176	300,915	-0,074	0,099
-241,161	185,184	0,090	-0,097
-240,146	-154,205	-0,116	0,006
-239,132	-200,000	0,005	0,132
-238,117	-108,211	-0,085	-0,013
-237,103	-200,000	0,024	-0,202
-236,088	-168,401	-0,126	-0,003
-235,073	115,984	0,033	0,029
-234,059	-129,305	-0,078	0,008
-233,044	-31,142	0,032	0,013
-232,030	-200,000	-0,009	0,071
-231,015	800,000	-0,039	0,108
-230,000	-99,146	-0,203	0,037
-228,986	800,000	0,039	-0,079
-227,971	9,566	0,057	-0,031
-226,957	-74,776	0,013	-0,003
-225,942	-73,557	0,032	0,008
-224,927	-98,852	-0,080	-0,015
-223,913	-200,000	-0,003	-0,044
-222,898	800,000	0,045	-0,109
-221,884	-200,000	0,019	-0,079
-220,869	-78,414	0,030	0,007
-219,855	800,000	0,045	0,102
-218,840	339,458	-0,042	0,059
-217,825	-129,331	0,033	0,003
-216,811	-48,147	-0,106	0,037
-215,796	197,539	0,047	-0,052
-214,782	-116,961	0,170	0,022
-213,767	630,951	0,068	0,125
-212,752	-200,000	0,041	0,158
-211,738	185,071	0,153	0,164
-210,723	66,018	-0,070	-0,051
-209,709	-200,000	0,044	-0,159
-208,694	63,263	-0,094	0,068
-207,679	800,000	0,009	-0,026
-206,665	420,851	0,085	0,132
-205,650	-15,529	-0,088	0,040
-204,636	-200,000	0,006	0,160
-203,621	537,929	0,032	0,055
-202,606	-200,000	-0,009	0,170
-201,592	389,095	0,053	-0,079
-200,577	-200,000	0,035	-0,131
-199,563	320,028	0,052	0,071
-198,548	-125,903	0,027	-0,003
-197,533	-200,000	0,016	0,072
-196,519	20,713	0,021	-0,012
-195,504	-80,293	-0,085	-0,020
-194,490	169,585	0,080	-0,083
-193,475	-200,000	0,017	-0,074
-192,460	445,012	0,042	-0,067
-191,446	-17,916	0,172	-0,077
-190,431	159,688	-0,061	-0,061
-189,417	-200,000	-0,011	0,036
-188,402	-95,515	0,080	-0,015
-187,387	-38,930	0,017	-0,007
-186,373	161,463	0,046	0,047
-185,358	248,901	-0,051	-0,062
-184,344	-95,268	0,118	-0,023
-183,329	290,340	0,068	0,090
-182,315	253,608	0,023	-0,029
-181,300	-4,828	0,090	0,045
-180,285	800,000	0,061	0,145
-179,271	-81,281	-0,079	-0,019
-178,256	27,333	-0,018	0,011
-177,242	159,921	0,181	0,182
-176,227	39,060	-0,071	0,046
-175,212	1,471	0,045	-0,023
-174,198	-7,118	-0,053	-0,026
-173,183	-200,000	0,004	0,071
-172,169	177,717	-0,139	0,146
-171,154	800,000	0,062	-0,130
-170,139	123,954	0,062	0,056
-169,125	-200,000	-0,020	0,099
-168,110	800,000	0,023	0,049
-167,096	114,487	-0,051	0,045
-166,081	36,637	0,030	-0,019
-165,066	-200,000	-0,015	0,052
-164,052	161,008	0,061	0,061
-163,037	1,142	0,046	-0,024
-162,023	800,000	0,057	0,146
-161,008	-43,850	-0,022	0,008
-159,993	14,990	-0,114	-0,064
-158,979	81,118	0,094	-0,073
-157,964	35,978	-0,053	0,034
-156,950	164,334	-0,043	-0,043
-155,935	-200,000	0,006	0,097
-154,920	-200,000	-0,026	-0,109
-153,906	-54,094	0,110	-0,036
-152,891	-113,447	0,075	0,010
-151,877	712,990	-0,014	0,027
-150,862	11,174	0,047	0,026
-149,847	-200,000	0,009	0,123
-148,833	417,129	0,057	-0,089
-147,818	662,920	-0,063	0,117
-146,804	-14,343	0,084	0,039
-145,789	-103,473	-0,062	-0,010
-144,775	-100,160	0,019	-0,003
-143,760	-77,507	0,047	0,012
-142,745	439,011	-0,040	0,063
-141,731	-12,903	0,144	-0,067
-140,716	-200,000	-0,002	-0,010
-139,702	-163,235	0,032	-0,001
-138,687	780,027	0,062	0,122
-137,672	800,000	-0,078	-0,196
-136,658	-198,215	0,198	0,001
-135,643	800,000	0,017	0,040
-134,629	-58,124	-0,081	0,025
-133,614	26,438	-0,103	0,062
-132,599	520,429	0,113	0,191
-131,585	-41,170	0,092	0,034
-130,570	-105,598	-0,128	0,021
-129,556	-200,000	-0,017	-0,185
-128,541	800,000	-0,066	-0,180
-127,526	800,000	0,013	0,031
-126,512	-200,000	0,046	0,232
-125,497	-200,000	-0,035	0,186
-124,483	485,583	0,040	0,066
-123,468	800,000	0,022	0,048
-122,453	41,629	-0,059	-0,038
-121,439	-64,585	-0,088	0,025
-120,424	787,441	0,032	0,063
-119,410	185,544	0,042	-0,045
-118,395	379,107	0,052	0,077
-117,380	71,326	-0,124	0,093
-116,366	-200,000	0,020	0,101
-115,351	661,387	-0,051	0,095
-114,337	227,841	-0,041	-0,048
-113,322	-104,485	0,069	-0,011
-112,307	535,318	0,021	-0,036
-111,293	800,000	0,008	-0,020
-110,278	-121,315	0,055	-0,007
-109,264	-200,000	0,006	-0,070
-108,249	246,076	-0,028	-0,034
-107,234	-94,674	-0,110	0,021
-106,220	-200,000	-0,016	-0,082
-105,205	800,000	0,023	0,063
-104,191	41,434	0,118	-0,077
-103,176	-104,883	-0,101	0,017
-102,162	80,435	-0,092	-0,071
-101,147	-16,810	-0,008	-0,003
-100,132	11,579	-0,110	-0,061
-99,118	30,151	-0,045	-0,028
-98,103	81,030	0,077	-0,060
-97,089	-32,993	0,104	0,041
-96,074	609,847	0,053	0,096
-95,059	-32,572	-0,034	0,013
-94,045	21,088	0,038	0,022
-93,030	542,147	0,062	-0,106
-92,016	139,163	0,023	0,022
-91,001	800,000	0,027	-0,058
-89,986	-200,000	0,031	0,137
-88,972	101,206	0,110	0,092
-87,957	174,645	-0,109	0,114
-86,943	31,385	-0,069	0,042
-85,928	294,129	0,054	0,070
-84,913	-19,749	-0,142	0,063
-83,899	-28,285	-0,052	0,021
-82,884	-11,350	0,047	-0,022
-81,870	-200,000	0,000	0,130
-80,855	-79,570	0,037	0,009
-79,840	-200,000	0,009	0,069
-78,826	-200,000	0,009	-0,100
-77,811	-43,225	-0,077	0,028
-76,797	800,000	-0,034	0,070
-75,782	210,107	0,083	0,094
-74,767	800,000	0,040	-0,089
-73,753	464,379	0,042	-0,067
-72,738	-200,000	0,016	0,094
-71,724	800,000	0,021	-0,046
-70,709	-200,000	0,030	-0,099
-69,694	800,000	-0,030	0,074
-68,680	800,000	0,022	-0,052
-67,665	-20,246	-0,056	0,025
-66,651	-176,650	0,096	-0,002
-65,636	800,000	0,004	0,013
-64,622	-93,657	-0,135	-0,027
-63,607	-200,000	-0,002	-0,122
-62,592	460,277	-0,084	0,135
-61,578	-200,000	-0,004	-0,020
-60,563	-150,587	0,078	0,004
-59,549	-110,578	0,095	0,014
-58,534	26,618	-2,100	-1,257
-57,519	-200,000	-0,131	-0,766
-56,505	-200,000	-1,395	-5,037
-55,490	106,067	0,798	0,677
-54,476	800,000	5,425	12,131
-53,461	-200,000	18,032	290,131
-52,446	800,000	728,604	2216,951
-51,432	528,602	1640,951	2785,957
-50,417	108,309	1630,210	1393,715
-49,403	73,168	1282,776	960,272
-48,388	31,035	1025,060	628,446
-47,373	19,759	987,279	568,204
-46,359	17,951	974,909	555,155
-45,344	15,055	970,966	543,443
-44,330	15,279	969,392	543,269
-43,315	14,713	967,591	540,398
-42,300	14,679	966,516	539,665
-41,286	14,754	965,590	539,368
-40,271	14,707	964,494	538,583
-39,257	14,715	963,699	538,144
-38,242	14,738	962,940	537,773
-37,227	14,740	962,056	537,264
-36,213	14,702	961,194	536,641
-35,198	14,694	960,226	536,052
-34,184	14,749	959,540	535,824
-33,169	14,708	958,470	535,075
-32,154	14,774	957,553	534,755
-31,140	14,757	956,730	534,218
-30,125	14,754	955,932	533,742
-29,111	14,752	955,288	533,355
-28,096	14,739	954,528	532,868
-27,082	14,741	953,874	532,487
-26,067	14,735	953,198	532,071
-25,052	14,707	952,287	531,452
-24,038	14,761	951,612	531,226
-23,023	14,716	951,146	530,800
-22,009	14,792	950,361	530,584
-20,994	14,776	949,787	530,190
-19,979	14,820	949,159	529,961
-18,965	14,712	948,531	529,245
-17,950	14,770	947,912	529,064
-16,936	14,719	947,306	528,541
-15,921	14,716	946,500	528,059
-14,906	14,614	945,907	527,385
-13,892	14,631	945,273	527,063
-12,877	14,670	944,411	526,685
-11,863	14,624	944,037	526,311
-10,848	14,586	943,588	525,918
-9,833	14,734	943,053	526,071
-8,819	14,707	942,241	525,510
-7,804	14,640	941,782	525,021
-6,790	14,578	941,217	524,488
-5,775	14,697	940,559	524,478
-4,760	14,637	939,955	523,930
-3,746	14,672	939,211	523,607
-2,731	14,510	938,669	522,772
-1,717	14,444	937,971	522,155
-0,702	14,502	937,315	521,953
0,313	14,300	936,618	521,716
1,327	17,852	934,643	531,722
2,342	27,304	787,364	472,728
3,356	24,011	442,360	260,722
4,371	-5,738	294,017	143,738
5,386	-9,679	275,671	131,047
6,400	-11,022	270,063	127,130
7,415	-10,834	267,639	126,149
8,429	-11,011	266,320	125,355
9,444	-11,043	265,472	124,916
10,459	-11,166	264,741	124,449
11,473	-11,170	264,294	124,224
12,488	-11,180	263,605	123,880
13,502	-11,444	263,117	123,403
14,517	-11,340	262,721	123,299
15,531	-11,292	262,156	123,066
16,546	-11,218	261,830	122,968
17,561	-11,291	261,562	122,767
18,575	-11,151	261,238	122,728
19,590	-11,451	261,004	122,340
20,604	-11,244	260,625	122,335
21,619	-11,597	260,374	121,893
22,634	-11,226	259,718	121,904
23,648	-11,568	259,636	121,552
24,663	-11,436	259,354	121,525
25,677	-11,483	259,094	121,351
26,692	-11,444	258,854	121,263
27,707	-11,338	258,602	121,227
28,721	-11,478	258,272	120,938
29,736	-11,546	258,005	120,743
30,750	-11,228	257,613	120,828
31,765	-11,353	257,407	120,611
32,780	-11,390	257,165	120,455
33,794	-11,336	256,852	120,344
34,809	-11,383	256,621	120,184
35,823	-11,641	256,577	119,927
36,838	-11,440	256,116	119,876
37,853	-11,446	256,026	119,819
38,867	-11,437	255,652	119,640
39,882	-11,586	255,511	119,434
40,896	-11,827	255,424	119,172
41,911	-11,618	254,947	119,122
42,926	-11,614	254,819	119,055
43,940	-11,553	254,595	118,992
44,955	-11,671	254,392	118,784
45,969	-11,857	254,174	118,511
46,984	-11,910	253,902	118,328
47,999	-12,102	253,487	117,958
49,013	-12,211	253,302	117,767
50,028	-12,248	252,992	117,580
51,042	-12,375	252,803	117,373
52,057	-12,150	252,631	117,475
53,071	-12,305	252,488	117,266
54,086	-12,088	252,158	117,288
55,101	-12,156	252,075	117,181
56,115	-11,879	251,877	117,316
57,130	-11,566	251,893	117,582
58,144	-11,372	251,824	117,705
59,159	-11,263	251,512	117,642
60,174	-11,215	251,202	117,528
61,188	-11,322	251,128	117,391
62,203	-11,378	250,792	117,176
63,217	-11,272	250,549	117,142
64,232	-11,292	250,460	117,073
65,247	-11,395	250,265	116,884
66,261	-11,412	249,893	116,685
67,276	-11,777	249,715	116,282
68,290	-11,776	249,306	116,081
69,305	-11,936	249,033	115,808
70,320	-11,659	248,804	115,927
71,334	-11,721	249,012	115,960
72,349	-11,335	248,710	116,136
73,363	-11,339	248,617	116,078
74,378	-11,224	248,327	116,030
75,393	-11,570	248,125	115,633
76,407	-11,444	247,928	115,638
77,422	-11,246	247,608	115,645
78,436	-11,509	247,485	115,355
79,451	-11,398	247,204	115,307
80,466	-11,427	246,980	115,169
81,480	-11,753	246,748	114,777
82,495	-11,780	246,635	114,691
83,509	-11,804	246,491	114,593
84,524	-11,677	246,141	114,527
85,539	-11,976	245,893	114,152
86,553	-11,935	245,852	114,157
87,568	-11,599	245,542	114,283
88,582	-11,567	245,363	114,216
89,597	-11,802	245,168	113,919
90,611	-11,540	245,003	114,051
91,626	-11,500	244,948	114,048
92,641	-11,480	244,688	113,934
93,655	-11,654	244,571	113,724
94,670	-11,760	244,389	113,541
95,684	-11,571	244,011	113,513
96,699	-11,720	243,993	113,370
97,714	-11,775	243,664	113,162
98,728	-11,805	243,332	112,973
99,743	-11,966	243,375	112,851
100,757	-11,795	243,041	112,826
101,772	-11,789	242,913	112,762
102,787	-11,876	242,808	112,631
103,801	-11,590	242,464	112,696
104,816	-11,552	242,268	112,626
105,830	-11,445	242,483	112,804
106,845	-11,223	242,113	112,805
107,860	-11,373	241,803	112,527
108,874	-11,445	241,654	112,389
109,889	-11,644	241,548	112,167
110,903	-11,552	241,302	112,118
111,918	-11,660	241,176	111,961
112,933	-11,758	240,807	111,700
113,947	-11,477	240,884	111,955
114,962	-11,548	240,593	111,752
115,976	-11,427	240,504	111,799
116,991	-11,423	240,210	111,655
118,006	-11,660	240,141	111,421
119,020	-11,439	239,850	111,455
120,035	-11,392	239,794	111,458
121,049	-11,363	239,659	111,408
122,064	-11,369	239,532	111,334
123,079	-11,244	239,230	111,286
124,093	-11,561	238,971	110,899
125,108	-11,742	238,796	110,661
126,122	-11,946	238,584	110,389
127,137	-11,939	238,248	110,229
128,151	-12,014	238,236	110,153
129,166	-11,754	237,998	110,242
130,181	-11,789	237,897	110,157
131,195	-12,005	237,632	109,852
132,210	-11,638	237,351	110,006
133,224	-11,559	237,416	110,090
134,239	-11,497	237,205	110,032
135,254	-11,493	237,081	109,968
136,268	-11,547	236,694	109,735
137,283	-11,800	236,617	109,488
138,297	-11,818	236,359	109,344
139,312	-11,941	236,103	109,118
140,327	-11,639	236,021	109,311
141,341	-11,358	235,992	109,512
142,356	-11,120	235,917	109,657
143,370	-11,171	235,950	109,622
144,385	-11,091	235,566	109,498
145,400	-11,107	235,436	109,415
146,414	-11,079	235,260	109,345
147,429	-11,354	234,995	108,994
148,443	-11,174	234,799	109,036
149,458	-11,027	234,718	109,106
150,473	-11,177	234,572	108,910
151,487	-11,192	234,294	108,758
152,502	-11,227	234,171	108,664
153,516	-11,256	234,177	108,634
154,531	-11,218	234,021	108,582
155,546	-11,132	233,651	108,469
156,560	-11,317	233,555	108,269
157,575	-11,296	233,198	108,110
158,589	-11,429	233,147	107,972
159,604	-11,101	233,128	108,211
160,619	-10,898	232,953	108,280
161,633	-11,116	232,836	108,045
162,648	-11,042	232,687	108,024
163,662	-11,227	232,528	107,795
164,677	-11,218	232,302	107,688
165,692	-11,214	232,285	107,674
166,706	-11,124	232,006	107,605
167,721	-10,972	231,805	107,622
168,735	-10,890	231,760	107,655
169,750	-10,902	231,529	107,528
170,764	-10,989	231,289	107,340
171,779	-11,053	231,382	107,324
172,794	-11,090	231,183	107,193
173,808	-11,073	230,796	107,017
174,823	-11,831	230,593	106,324
175,837	-11,704	230,291	106,274
176,852	-11,433	230,421	106,535
177,867	-11,203	230,267	106,633
178,881	-11,100	230,183	106,665
179,896	-10,956	230,014	106,688
180,910	-10,929	229,786	106,594
181,925	-10,998	229,593	106,441
182,940	-11,155	229,606	106,316
183,954	-11,128	229,470	106,265
184,969	-11,027	229,212	106,214
185,983	-10,987	229,247	106,251
186,998	-10,967	228,944	106,117
188,013	-10,975	228,844	106,055
189,027	-11,074	228,622	105,866
190,042	-10,995	228,448	105,837
191,056	-11,004	228,507	105,848
192,071	-10,898	228,073	105,719
193,086	-10,968	227,939	105,594
194,100	-10,685	227,867	105,768
195,115	-10,957	227,360	105,315
196,129	-11,360	227,393	105,013
197,144	-6,447	229,065	109,557
198,159	-0,620	230,729	114,849
199,173	2,419	231,608	117,628
200,188	2,650	231,492	117,737
201,202	2,867	231,494	117,896
202,217	2,999	231,356	117,916
203,232	3,237	231,246	118,034
204,246	3,507	231,099	118,156
205,261	3,570	230,980	118,133
206,275	3,734	230,920	118,218
207,290	3,829	230,736	118,186
208,304	3,799	230,596	118,081
209,319	3,946	230,331	118,048
210,334	3,446	230,198	117,585
211,348	3,351	229,946	117,374
212,363	3,115	229,734	117,074
213,377	2,781	229,545	116,712
214,392	2,822	229,279	116,597
215,407	3,051	229,441	116,844
216,421	3,001	229,167	116,657
217,436	2,738	228,828	116,273
218,450	2,650	228,653	116,106
219,465	2,596	228,572	116,014
220,480	2,733	228,454	116,048
221,494	2,625	228,239	115,846
222,509	2,934	228,150	116,025
223,523	2,671	228,222	115,852
224,538	2,706	228,057	115,785
225,553	2,794	227,768	115,694
226,567	2,885	227,596	115,666
227,582	3,057	227,594	115,785
228,596	3,176	227,524	115,829
229,611	3,163	227,105	115,595
230,626	2,863	226,925	115,267
231,640	2,606	226,890	115,045
232,655	3,024	226,801	115,305
233,669	3,364	226,616	115,457
234,684	3,401	226,556	115,444
235,699	3,221	226,375	115,205
236,713	2,841	226,260	114,851
237,728	3,001	225,866	114,761
238,742	2,897	225,721	114,599
239,757	2,766	225,809	114,535
240,772	2,668	225,542	114,316
241,786	2,914	225,355	114,396
242,801	3,096	225,365	114,526
243,815	3,419	225,219	114,683
244,830	3,328	225,099	114,544
245,844	2,968	224,902	114,164
246,859	2,763	224,659	113,878
247,874	3,126	224,465	114,040
248,888	2,934	224,543	113,927
249,903	3,079	224,172	113,836
250,917	2,882	224,098	113,641
251,932	2,771	224,044	113,521
252,947	2,936	223,813	113,518
253,961	2,724	223,537	113,210
254,976	2,734	223,450	113,163
255,990	3,024	223,490	113,389
257,005	3,358	223,189	113,473
258,020	3,028	223,188	113,218
259,034	3,040	223,129	113,187
260,049	3,128	222,808	113,079
261,063	3,067	222,594	112,915
262,078	3,381	222,586	113,133
263,093	3,370	222,404	113,023
264,107	3,236	222,251	112,836
265,122	3,095	222,283	112,738
266,136	3,337	222,097	112,811
267,151	3,482	221,865	112,790
268,166	3,024	221,728	112,374
269,180	2,893	221,226	112,013
270,195	2,733	221,273	111,910
271,209	2,728	221,260	111,890
272,224	3,043	221,047	112,003
273,239	2,958	221,020	111,917
274,253	2,675	220,883	111,631
275,268	2,546	220,519	111,342
276,282	2,734	220,319	111,368
277,297	2,545	220,261	111,191
278,312	2,969	220,225	111,473
279,326	2,874	220,083	111,322
280,341	2,755	219,900	111,132
281,355	2,914	219,841	111,208
282,370	3,168	219,519	111,220
283,384	2,605	219,523	110,803
284,399	2,666	219,175	110,662
285,414	2,641	219,198	110,645
286,428	2,727	219,105	110,651
287,443	2,930	218,951	110,710
288,457	3,172	218,877	110,839
289,472	2,983	218,572	110,538
290,487	2,564	218,335	110,105
291,501	2,530	218,154	109,979
292,516	2,706	218,138	110,088
293,530	2,534	218,085	109,928
294,545	2,684	217,921	109,944
295,560	2,925	217,762	110,027
296,574	2,996	217,705	110,039
297,589	2,905	217,477	109,849
298,603	3,129	217,329	109,926
299,618	3,000	217,340	109,829
300,633	3,045	217,238	109,800
301,647	3,164	217,122	109,816
302,662	3,234	216,981	109,786
303,676	3,310	216,725	109,701
304,691	3,058	216,671	109,483
305,706	3,151	216,501	109,454
306,720	3,118	216,433	109,387
307,735	2,928	216,131	109,088
308,749	2,967	216,016	109,048
309,764	2,953	215,909	108,974
310,779	3,239	215,812	109,120
311,793	3,216	215,546	108,959
312,808	2,903	215,479	108,693
313,822	3,062	215,407	108,760
314,837	2,698	215,182	108,378
315,852	2,757	215,184	108,411
316,866	2,942	214,798	108,338
317,881	3,320	214,720	108,557
318,895	3,113	214,622	108,351
319,910	2,911	214,475	108,124
320,925	2,582	214,300	107,794
321,939	2,446	214,051	107,563
322,954	2,458	214,010	107,541
323,968	2,967	213,962	107,867
324,983	3,018	213,944	107,884
325,997	3,035	213,734	107,780
327,012	2,885	213,646	107,621
328,027	3,012	213,301	107,527
329,041	3,226	213,417	107,726
330,056	3,396	213,182	107,718
331,070	2,657	212,891	107,042
332,085	2,250	212,725	106,664
333,100	2,514	212,581	106,767
334,114	2,730	212,581	106,909
335,129	2,847	212,455	106,918
336,143	2,844	212,294	106,825
337,158	3,088	212,141	106,909
338,173	3,211	212,056	106,943
339,187	2,749	211,913	106,539
340,202	2,586	211,728	106,322
341,216	2,592	211,538	106,222
342,231	2,893	211,354	106,330
343,246	2,775	211,281	106,201
344,260	3,047	211,163	106,321
345,275	3,085	211,182	106,348
346,289	2,914	210,992	106,124
347,304	3,122	210,942	106,234
348,319	2,747	210,815	105,900
349,333	3,029	210,554	105,955
350,348	3,083	210,391	105,901
351,362	3,086	210,349	105,873
352,377	3,335	210,202	105,962
353,392	2,983	210,045	105,629
354,406	3,099	209,990	105,673
355,421	197,652	1336,852	1419,422
356,435	157,941	1474,112	1419,388
