DTS Sentinel unit serial number:	SN410029Multiplexer serial number:	ORYXHardware model number:	OX2-SRSoftware version number:	ORYX F/W v4,00 Oryx Data Collector v3.7.2.0data status	okinstallation	B6 Nyhavnadifferential loss correction	single-endedforward channel	channel 2reverse channel	N/Adate	2023/12/08time	06:00:08forward acquisition time	300,00reverse acquisition time	0,00gamma	499,1914k internal	0,3165k external	0,3165temperature offset calibration	1,0000default loss term (dB/km)	0,3820temperature slope calibration	1,0000multiplexer offset coefficient	1,0000multiplexer slope coefficient	1,0000fibre end	0,00T internal ref (°C)	13,00T ext. ref 1 (°C)	-3,85T ext. ref 2 (°C)	-3,84length (m)	temperature (°C)	Stokes	anti-Stokes-744,400	-110,075	0,141	0,021
-743,385	-106,399	-0,296	0,048
-742,371	-106,787	0,246	-0,040
-741,356	-79,291	-0,372	-0,092
-740,342	22,588	0,167	0,100
-739,327	-110,577	-0,371	0,056
-738,312	-104,282	0,277	0,047
-737,298	7,085	-0,293	-0,160
-736,283	-200,000	-0,007	0,163
-735,269	-121,166	-0,276	-0,034
-734,254	800,000	0,060	0,154
-733,239	-54,304	-0,586	-0,194
-732,225	28,919	0,169	0,105
-731,210	800,000	0,073	0,177
-730,196	104,942	-0,088	0,076
-729,181	-200,000	-0,002	-0,073
-728,167	146,121	0,072	0,071
-727,152	-200,000	-0,025	0,092
-726,137	-155,506	-0,132	-0,006
-725,123	309,980	-0,090	-0,124
-724,108	800,000	-0,051	-0,111
-723,094	40,186	-0,055	-0,036
-722,079	-200,000	-0,027	-0,249
-721,064	175,987	0,068	-0,072
-720,050	73,465	0,097	0,074
-719,035	403,768	-0,071	-0,110
-718,021	800,000	-0,046	-0,124
-717,006	-200,000	-0,002	-0,177
-715,991	278,701	-0,170	-0,223
-714,977	56,161	0,069	0,049
-713,962	800,000	0,027	0,063
-712,948	72,714	0,068	0,052
-711,933	-200,000	-0,006	0,116
-710,918	-200,000	0,013	-0,111
-709,904	532,659	-0,029	-0,051
-708,889	-200,000	-0,014	-0,149
-707,875	800,000	0,012	-0,038
-706,860	171,136	-0,040	0,042
-705,845	234,452	0,028	-0,033
-704,831	-78,300	0,101	0,025
-703,816	92,443	-0,047	0,039
-702,802	570,518	0,046	0,083
-701,787	800,000	0,026	-0,078
-700,772	257,570	-0,019	-0,025
-699,758	-200,000	-0,018	0,126
-698,743	-17,602	0,182	0,084
-697,729	-40,551	-0,135	0,051
-696,714	673,095	0,047	0,090
-695,699	-43,353	-0,215	-0,079
-694,685	6,907	-0,095	0,052
-693,670	100,909	0,039	0,033
-692,656	-28,412	-0,060	0,025
-691,641	176,542	0,067	0,072
-690,627	-200,000	-0,020	0,081
-689,612	-200,000	0,034	0,143
-688,597	-200,000	-0,002	-0,009
-687,583	-91,347	-0,129	0,027
-686,568	154,387	-0,024	-0,024
-685,554	-200,000	-0,004	-0,079
-684,539	238,790	0,038	-0,047
-683,524	259,947	-0,083	-0,105
-682,510	209,535	-0,044	-0,051
-681,495	-137,259	0,057	-0,005
-680,481	-173,465	-0,126	0,003
-679,466	-174,391	-0,094	-0,002
-678,451	431,192	0,037	-0,059
-677,437	17,585	0,099	0,058
-676,422	-157,735	-0,171	-0,007
-675,408	375,300	0,009	0,013
-674,393	-131,325	-0,094	0,009
-673,378	40,915	0,025	-0,017
-672,364	800,000	-0,045	-0,141
-671,349	-200,000	-0,033	-0,147
-670,335	243,317	-0,181	-0,223
-669,320	-195,065	0,081	-0,000
-668,305	800,000	0,026	-0,065
-667,291	134,798	0,035	-0,034
-666,276	-75,688	-0,121	0,031
-665,262	-80,929	0,145	0,035
-664,247	-133,530	-0,143	0,013
-663,232	106,072	-0,094	-0,082
-662,218	-46,608	0,086	0,031
-661,203	800,000	-0,009	-0,020
-660,189	800,000	0,026	-0,065
-659,174	-79,050	0,074	-0,018
-658,159	-200,000	0,009	0,048
-657,145	20,336	-0,167	-0,099
-656,130	-45,311	0,080	-0,029
-655,116	426,599	-0,080	0,126
-654,101	-93,492	0,054	-0,011
-653,086	656,892	-0,046	-0,087
-652,072	70,445	-0,120	0,091
-651,057	800,000	-0,073	-0,170
-650,043	-200,000	-0,004	0,025
-649,028	-60,710	-0,096	0,030
-648,014	-95,624	-0,067	-0,013
-646,999	800,000	0,068	-0,159
-645,984	-200,000	-0,002	0,055
-644,970	800,000	-0,015	0,045
-643,955	-200,000	0,007	-0,141
-642,941	-200,000	-0,013	0,054
-641,926	-124,469	-0,056	0,006
-640,911	-122,163	0,078	0,009
-639,897	-169,430	-0,165	0,004
-638,882	-66,269	0,102	0,030
-637,868	-14,480	-0,059	-0,028
-636,853	-200,000	0,025	-0,188
-635,838	18,371	-0,152	-0,088
-634,824	-36,867	-0,117	-0,046
-633,809	542,041	0,047	-0,082
-632,795	90,698	0,068	0,056
-631,780	516,344	-0,111	0,190
-630,765	107,947	-0,094	0,082
-629,751	244,305	-0,044	-0,054
-628,736	120,484	0,100	-0,091
-627,722	-163,917	0,109	-0,004
-626,707	-200,000	0,000	-0,005
-625,692	116,967	-0,076	0,068
-624,678	-151,838	0,037	0,002
-623,663	28,660	0,072	-0,045
-622,649	663,796	0,025	-0,048
-621,634	-200,000	-0,003	0,014
-620,619	23,944	0,045	0,027
-619,605	208,518	-0,013	0,015
-618,590	-75,257	0,020	0,005
-617,576	56,073	0,029	-0,021
-616,561	800,000	-0,020	0,041
-615,546	-200,000	0,019	0,093
-614,532	-200,000	-0,008	-0,063
-613,517	102,775	0,019	0,017
-612,503	149,319	0,069	-0,069
-611,488	-138,506	0,105	-0,008
-610,474	-89,812	-0,039	-0,008
-609,459	800,000	0,079	0,177
-608,444	-79,302	0,040	0,010
-607,430	-88,634	-0,138	-0,030
-606,415	172,103	-0,132	-0,139
-605,401	54,770	-0,068	-0,048
-604,386	-144,617	0,166	0,011
-603,371	208,292	-0,057	0,066
-602,357	-200,000	0,013	0,133
-601,342	-94,598	0,015	0,003
-600,328	293,916	-0,046	-0,062
-599,313	195,399	-0,056	-0,063
-598,298	-43,347	0,090	-0,033
-597,284	-126,507	-0,032	-0,003
-596,269	82,999	0,047	0,038
-595,255	-72,084	0,077	0,021
-594,240	16,149	-0,047	-0,027
-593,225	-200,000	0,031	-0,101
-592,211	676,611	0,064	-0,123
-591,196	660,482	-0,032	-0,060
-590,182	530,920	0,050	-0,087
-589,167	19,826	-0,100	-0,059
-588,152	111,529	-0,090	-0,079
-587,138	-29,062	-0,049	0,021
-586,123	-142,519	-0,056	0,004
-585,109	800,000	-0,030	-0,082
-584,094	-18,165	0,099	-0,045
-583,079	214,211	-0,039	-0,046
-582,065	76,292	0,031	0,024
-581,050	144,582	-0,116	0,113
-580,036	578,487	0,094	0,169
-579,021	79,056	-0,135	-0,106
-578,006	192,820	-0,033	0,037
-576,992	-149,638	0,075	0,004
-575,977	48,840	-0,041	-0,028
-574,963	353,257	0,086	0,125
-573,948	-114,914	-0,170	-0,023
-572,934	-19,937	0,118	0,053
-571,919	-66,769	-0,098	0,028
-570,904	180,566	-0,110	-0,118
-569,890	468,728	-0,096	-0,158
-568,875	800,000	0,004	0,007
-567,861	-93,347	0,201	0,040
-566,846	-114,310	0,079	0,011
-565,831	-107,272	0,160	-0,025
-564,817	-143,879	-0,193	0,013
-563,802	800,000	-0,029	-0,092
-562,788	-45,065	-0,127	-0,046
-561,773	-93,338	-0,102	-0,020
-560,758	315,750	0,021	-0,029
-559,744	117,670	0,139	0,125
-558,729	124,983	0,085	0,078
-557,715	200,503	0,065	-0,073
-556,700	82,506	0,013	-0,010
-555,685	800,000	-0,025	0,070
-554,671	-200,000	-0,007	0,068
-553,656	800,000	-0,015	-0,030
-552,642	-200,000	-0,014	0,147
-551,627	106,714	-0,053	-0,046
-550,612	-101,108	-0,053	-0,009
-549,598	-63,571	-0,177	-0,053
-548,583	-200,000	-0,027	0,146
-547,569	103,560	-0,027	0,023
-546,554	800,000	0,035	0,082
-545,539	-200,000	-0,034	-0,117
-544,525	-200,000	-0,002	0,181
-543,510	-200,000	0,003	-0,025
-542,496	174,762	-0,106	0,112
-541,481	-113,845	0,082	-0,011
-540,466	-115,270	-0,073	0,010
-539,452	-200,000	-0,014	-0,065
-538,437	-88,217	0,046	-0,010
-537,423	-200,000	0,002	0,080
-536,408	743,998	-0,016	-0,031
-535,393	800,000	0,030	-0,079
-534,379	-200,000	-0,006	-0,087
-533,364	-110,140	0,082	-0,012
-532,350	-75,622	0,081	-0,021
-531,335	-180,232	0,129	0,002
-530,321	-122,119	-0,026	0,003
-529,306	-200,000	-0,001	-0,024
-528,291	130,340	-0,061	-0,057
-527,277	-53,658	0,068	0,023
-526,262	-200,000	0,032	0,149
-525,248	-200,000	-0,000	-0,021
-524,233	-200,000	-0,017	0,215
-523,218	365,951	-0,069	0,101
-522,204	-33,072	0,199	-0,080
-521,189	800,000	0,045	-0,099
-520,175	800,000	0,029	0,073
-519,160	54,421	-0,121	-0,085
-518,145	-132,957	0,022	-0,002
-517,131	386,000	0,030	-0,045
-516,116	-124,815	-0,119	0,013
-515,102	17,162	0,111	0,064
-514,087	-194,102	0,014	0,000
-513,072	483,684	-0,044	-0,073
-512,058	-200,000	0,028	0,141
-511,043	434,409	0,028	-0,044
-510,029	-200,000	0,001	0,093
-509,014	243,714	-0,045	0,055
-507,999	186,349	0,106	-0,116
-506,985	800,000	-0,055	0,144
-505,970	14,698	0,046	-0,026
-504,956	218,539	0,064	-0,075
-503,941	-150,227	0,045	0,003
-502,926	-200,000	-0,010	0,104
-501,912	800,000	0,027	-0,069
-500,897	59,022	-0,102	0,073
-499,883	97,713	0,036	0,030
-498,868	800,000	-0,031	-0,086
-497,853	-121,838	-0,024	0,003
-496,839	-82,344	0,066	-0,015
-495,824	-13,437	0,075	-0,035
-494,810	-122,659	-0,016	-0,002
-493,795	-200,000	0,000	0,034
-492,781	30,205	-0,167	-0,104
-491,766	148,266	-0,101	-0,099
-490,751	272,992	-0,072	0,093
-489,737	-200,000	-0,036	-0,165
-488,722	-200,000	0,027	-0,087
-487,708	249,201	-0,084	0,104
-486,693	-64,632	0,096	-0,028
-485,678	-95,394	0,046	0,009
-484,664	-136,174	-0,095	-0,008
-483,649	-111,412	-0,103	-0,015
-482,635	11,329	-0,106	0,059
-481,620	201,182	-0,077	-0,086
-480,605	60,111	0,052	-0,038
-479,591	53,066	0,054	0,037
-478,576	-107,109	0,085	0,013
-477,562	800,000	-0,044	-0,119
-476,547	-200,000	-0,061	-0,228
-475,532	800,000	-0,052	-0,118
-474,518	500,518	0,097	0,163
-473,503	-154,546	-0,142	-0,007
-472,489	-4,593	0,193	0,097
-471,474	410,129	-0,058	0,090
-470,459	23,728	-0,083	0,050
-469,445	800,000	-0,026	0,056
-468,430	-200,000	0,005	-0,127
-467,416	-200,000	-0,023	-0,144
-466,401	40,824	0,046	0,030
-465,386	310,266	-0,034	-0,047
-464,372	-67,826	0,128	0,036
-463,357	138,245	-0,095	0,090
-462,343	-47,807	-0,092	-0,032
-461,328	254,184	0,105	-0,131
-460,313	610,017	-0,038	0,069
-459,299	175,898	0,017	0,018
-458,284	-102,620	0,016	-0,003
-457,270	69,191	-0,067	-0,050
-456,255	641,663	0,026	0,048
-455,241	-143,232	-0,103	-0,007
-454,226	70,931	-0,070	-0,053
-453,211	-151,301	0,011	0,001
-452,197	111,173	0,143	0,125
-451,182	-44,559	0,102	-0,037
-450,168	399,790	0,043	0,065
-449,153	25,662	0,077	-0,047
-448,138	-1,348	-0,090	0,046
-447,124	8,329	-0,129	-0,070
-446,109	-59,488	-0,054	-0,017
-445,095	95,747	0,115	-0,095
-444,080	800,000	-0,034	-0,093
-443,065	101,950	-0,035	0,029
-442,051	13,844	-0,071	0,040
-441,036	800,000	-0,020	-0,053
-440,022	-84,553	-0,033	0,008
-439,007	-14,701	0,106	0,049
-437,992	-63,916	-0,078	0,023
-436,978	-200,000	-0,001	-0,008
-435,963	313,529	-0,021	0,028
-434,949	-107,472	0,172	-0,027
-433,934	-200,000	0,011	-0,142
-432,919	-200,000	-0,040	0,000
-431,905	-119,326	-0,020	0,002
-430,890	-77,056	0,166	-0,042
-429,876	800,000	0,045	0,106
-428,861	230,920	0,028	-0,033
-427,846	51,734	-0,131	-0,090
-426,832	-200,000	-0,011	-0,137
-425,817	27,606	0,094	0,057
-424,803	55,563	-0,042	0,030
-423,788	-112,001	0,069	-0,010
-422,773	-93,472	-0,036	-0,007
-421,759	-200,000	0,014	0,074
-420,744	-200,000	0,013	-0,104
-419,730	800,000	-0,018	-0,046
-418,715	211,487	0,065	-0,075
-417,701	-148,011	0,047	0,003
-416,686	-200,000	0,023	0,141
-415,671	-200,000	-0,004	0,045
-414,657	800,000	-0,021	0,065
-413,642	-16,013	-0,050	-0,023
-412,628	-128,813	0,065	-0,007
-411,613	-200,000	0,002	-0,046
-410,598	-19,920	-0,157	-0,070
-409,584	800,000	0,018	0,054
-408,569	30,096	0,220	-0,136
-407,555	800,000	0,016	0,046
-406,540	199,147	0,084	-0,094
-405,525	129,549	-0,075	-0,070
-404,511	30,062	-0,118	-0,073
-403,496	-200,000	0,013	-0,088
-402,482	-32,105	0,037	0,015
-401,467	-53,536	-0,029	0,010
-400,452	800,000	-0,031	0,099
-399,438	97,412	-0,044	0,036
-398,423	-36,784	-0,120	-0,047
-397,409	800,000	0,031	0,071
-396,394	-200,000	0,008	0,051
-395,379	-11,830	-0,059	-0,028
-394,365	-119,154	0,134	0,017
-393,350	-68,637	0,101	0,028
-392,336	239,526	0,070	-0,084
-391,321	31,265	0,096	0,060
-390,306	-162,419	-0,033	-0,001
-389,292	800,000	-0,053	-0,114
-388,277	368,892	-0,074	0,109
-387,263	548,899	0,043	0,074
-386,248	103,562	0,131	0,111
-385,233	343,443	-0,012	0,017
-384,219	134,826	-0,054	0,050
-383,204	-25,355	0,014	-0,006
-382,190	-200,000	0,028	-0,130
-381,175	-200,000	0,003	-0,054
-380,160	85,283	-0,113	-0,090
-379,146	-59,905	0,098	0,030
-378,131	112,855	0,099	0,087
-377,117	-73,896	-0,094	-0,025
-376,102	547,089	-0,042	-0,074
-375,088	-200,000	0,022	-0,071
-374,073	25,024	-0,142	-0,085
-373,058	141,888	-0,046	0,044
-372,044	216,516	-0,054	0,062
-371,029	-141,555	0,099	-0,007
-370,015	-45,346	0,164	-0,059
-369,000	-0,511	0,190	-0,097
-367,985	558,841	-0,060	-0,105
-366,971	-123,529	-0,048	0,005
-365,956	-5,047	-0,047	-0,023
-364,942	-200,000	-0,035	0,121
-363,927	-200,000	-0,013	0,064
-362,912	524,430	-0,059	-0,101
-361,898	11,405	-0,005	-0,003
-360,883	81,106	0,127	-0,099
-359,869	-200,000	0,040	0,153
-358,854	800,000	0,028	-0,071
-357,839	267,399	0,090	0,114
-356,825	-200,000	-0,018	0,069
-355,810	800,000	0,029	-0,075
-354,796	100,174	-0,060	-0,051
-353,781	-53,478	-0,174	-0,057
-352,766	800,000	-0,028	0,085
-351,752	800,000	0,053	0,109
-350,737	-200,000	0,007	-0,045
-349,723	-200,000	-0,024	0,130
-348,708	-200,000	-0,020	0,065
-347,693	-200,000	-0,041	0,188
-346,679	-200,000	0,004	-0,064
-345,664	800,000	0,026	-0,072
-344,650	-56,251	-0,135	0,043
-343,635	39,132	0,085	0,055
-342,620	475,175	0,058	0,095
-341,606	8,291	0,079	0,043
-340,591	-200,000	0,020	-0,124
-339,577	800,000	-0,054	-0,155
-338,562	-200,000	-0,004	-0,067
-337,548	-200,000	-0,004	-0,134
-336,533	5,027	0,097	0,052
-335,518	-181,814	0,066	0,001
-334,504	303,883	0,013	0,017
-333,489	155,470	0,095	-0,095
-332,475	-200,000	-0,030	-0,112
-331,460	-200,000	0,008	-0,053
-330,445	61,022	0,050	-0,036
-329,431	-200,000	-0,005	-0,098
-328,416	800,000	0,005	0,011
-327,402	-83,237	0,028	-0,006
-326,387	243,117	-0,099	0,121
-325,372	800,000	-0,025	-0,053
-324,358	66,361	-0,089	0,066
-323,343	415,294	0,011	-0,016
-322,329	79,816	0,141	-0,110
-321,314	-14,936	-0,078	-0,036
-320,299	545,914	-0,056	-0,097
-319,285	-53,457	-0,122	-0,040
-318,270	-155,611	-0,064	-0,003
-317,256	-29,502	0,187	-0,077
-316,241	336,768	-0,033	-0,046
-315,226	82,297	-0,029	0,023
-314,212	-98,975	0,059	0,011
-313,197	-200,000	0,005	0,075
-312,183	-135,814	-0,083	0,007
-311,168	-34,697	0,058	0,023
-310,153	326,972	0,067	-0,093
-309,139	330,116	0,020	-0,028
-308,124	-117,287	0,182	0,024
-307,110	800,000	0,017	0,051
-306,095	485,998	-0,102	0,169
-305,080	192,335	0,051	-0,056
-304,066	24,562	-0,054	0,032
-303,051	800,000	0,022	-0,052
-302,037	800,000	-0,039	-0,081
-301,022	-101,569	0,052	0,009
-300,008	-134,790	0,044	0,004
-298,993	128,271	-0,057	-0,053
-297,978	-115,777	0,075	-0,010
-296,964	-144,781	0,112	-0,007
-295,949	344,982	-0,106	-0,151
-294,935	-123,126	0,080	-0,009
-293,920	-200,000	0,009	0,140
-292,905	-107,763	0,065	0,010
-291,891	3,967	-0,080	-0,042
-290,876	800,000	-0,046	0,104
-289,862	-93,558	-0,166	-0,033
-288,847	-66,157	0,096	0,028
-287,832	-190,856	-0,072	0,001
-286,818	-200,000	0,006	0,170
-285,803	-86,663	0,133	0,029
-284,789	740,351	-0,076	0,148
-283,774	-200,000	0,040	0,132
-282,759	6,040	-0,065	-0,035
-281,745	247,416	0,076	-0,093
-280,730	58,271	0,093	0,065
-279,716	297,352	-0,033	-0,043
-278,701	-200,000	-0,025	0,103
-277,686	84,065	0,062	0,049
-276,672	800,000	-0,002	0,007
-275,657	6,799	-0,077	-0,041
-274,643	239,407	-0,053	-0,064
-273,628	-60,873	-0,106	-0,032
-272,613	-200,000	0,008	0,126
-271,599	-200,000	0,016	0,055
-270,584	-21,406	0,164	0,072
-269,570	-200,000	0,024	0,121
-268,555	-39,006	-0,174	-0,066
-267,540	-47,641	0,035	-0,012
-266,526	-54,627	0,060	0,019
-265,511	-200,000	-0,009	-0,051
-264,497	800,000	0,040	-0,103
-263,482	-29,782	0,057	-0,023
-262,467	-200,000	-0,006	-0,052
-261,453	151,925	0,041	0,040
-260,438	6,664	-0,094	0,050
-259,424	228,222	0,012	-0,014
-258,409	172,339	-0,072	0,075
-257,395	249,526	0,073	0,090
-256,380	-200,000	-0,035	-0,159
-255,365	-66,039	0,120	0,034
-254,351	-125,714	-0,117	0,013
-253,336	-76,984	-0,078	0,020
-252,322	-200,000	0,006	-0,028
-251,307	206,723	-0,077	0,086
-250,292	233,410	-0,087	0,103
-249,278	-129,701	0,175	-0,017
-248,263	-89,098	-0,087	0,018
-247,249	-200,000	0,004	0,075
-246,234	800,000	0,004	-0,009
-245,219	201,445	0,057	0,063
-244,205	-200,000	-0,008	-0,097
-243,190	800,000	-0,045	0,093
-242,176	30,278	0,052	-0,032
-241,161	310,243	0,059	0,080
-240,146	25,138	0,209	0,125
-239,132	20,538	-0,062	0,036
-238,117	93,029	-0,024	0,020
-237,103	-200,000	-0,023	0,173
-236,088	39,954	-0,086	0,056
-235,073	-97,333	0,162	0,030
-234,059	-84,884	0,050	0,011
-233,044	800,000	-0,052	0,120
-232,030	-200,000	-0,000	-0,009
-231,015	-200,000	0,008	-0,048
-230,000	-200,000	0,005	-0,071
-228,986	238,885	-0,059	0,071
-227,971	684,211	0,046	-0,088
-226,957	120,687	-0,012	0,011
-225,942	121,152	-0,025	0,022
-224,927	-56,869	-0,085	0,027
-223,913	374,935	0,024	-0,035
-222,898	32,965	0,039	-0,024
-221,884	-200,000	0,027	-0,177
-220,869	439,197	0,016	0,025
-219,855	800,000	0,014	0,043
-218,840	-200,000	-0,011	0,111
-217,825	800,000	-0,043	0,116
-216,811	-200,000	0,003	-0,132
-215,796	96,689	0,088	-0,073
-214,782	-68,607	-0,091	0,025
-213,767	-200,000	0,202	0,000
-212,752	36,459	0,068	-0,043
-211,738	-16,938	-0,057	0,026
-210,723	155,792	-0,071	-0,071
-209,709	800,000	0,043	0,087
-208,694	-62,576	-0,055	-0,016
-207,679	-6,891	-0,051	-0,025
-206,665	512,959	-0,031	-0,052
-205,650	-75,181	-0,153	-0,039
-204,636	-200,000	-0,005	0,057
-203,621	301,169	-0,015	0,020
-202,606	111,944	-0,093	0,081
-201,592	196,608	-0,102	-0,112
-200,577	-89,657	-0,104	-0,022
-199,563	115,678	0,115	0,101
-198,548	37,901	-0,085	0,055
-197,533	131,419	0,066	-0,061
-196,519	-109,113	-0,177	0,027
-195,504	-200,000	-0,012	-0,072
-194,490	-71,052	0,077	-0,021
-193,475	-200,000	0,010	0,125
-192,460	-11,346	-0,067	0,032
-191,446	132,192	0,024	0,022
-190,431	-200,000	0,001	-0,060
-189,417	-172,227	0,161	-0,004
-188,402	163,790	0,026	0,026
-187,387	-29,026	-0,043	0,018
-186,373	-22,028	-0,142	0,062
-185,358	-200,000	-0,024	-0,082
-184,344	244,464	-0,037	0,044
-183,329	-200,000	-0,004	0,031
-182,315	45,643	0,118	0,079
-181,300	179,676	0,090	0,095
-180,285	-117,768	-0,104	-0,013
-179,271	-200,000	0,011	0,142
-178,256	97,107	-0,077	-0,064
-177,242	-200,000	-0,013	-0,074
-176,227	617,152	0,091	0,165
-175,212	800,000	0,047	0,112
-174,198	-136,999	0,032	0,003
-173,183	800,000	0,004	-0,008
-172,169	-200,000	0,028	-0,157
-171,154	-200,000	-0,026	-0,090
-170,139	54,704	0,040	-0,028
-169,125	-200,000	0,007	0,071
-168,110	371,880	-0,038	-0,056
-167,096	-82,212	0,037	-0,009
-166,081	31,561	0,100	0,062
-165,066	-34,049	0,044	0,017
-164,052	-200,000	-0,010	0,056
-163,037	337,413	0,055	0,078
-162,023	43,408	0,067	-0,044
-161,008	80,607	0,070	0,054
-159,993	59,485	-0,121	0,086
-158,979	686,514	-0,029	0,055
-157,964	-145,272	-0,064	0,004
-156,950	-126,964	0,043	-0,005
-155,935	231,408	0,075	-0,088
-154,920	445,456	0,059	-0,093
-153,906	800,000	0,027	0,076
-152,891	-151,336	-0,120	-0,006
-151,877	81,886	0,086	0,067
-150,862	-40,928	-0,090	-0,033
-149,847	-104,954	0,067	0,011
-148,833	-200,000	0,010	0,061
-147,818	-200,000	0,002	0,114
-146,804	26,800	0,138	0,083
-145,789	439,998	0,046	0,073
-144,775	592,310	0,043	0,077
-143,760	490,940	-0,043	-0,070
-142,745	334,474	-0,043	-0,060
-141,731	-200,000	-0,014	0,069
-140,716	-200,000	0,010	0,109
-139,702	177,369	0,037	0,039
-138,687	-15,457	0,050	0,023
-137,672	122,071	0,069	0,062
-136,658	-200,000	-0,046	0,183
-135,643	86,829	0,079	-0,063
-134,629	800,000	0,019	-0,046
-133,614	-200,000	0,019	0,066
-132,599	800,000	0,028	0,069
-131,585	-140,055	0,138	-0,010
-130,570	57,280	0,051	-0,036
-129,556	60,480	-0,100	0,071
-128,541	800,000	-0,032	0,092
-127,526	800,000	0,005	-0,013
-126,512	-6,448	0,149	0,073
-125,497	-31,662	0,097	0,039
-124,483	-8,929	-0,061	0,029
-123,468	-120,702	-0,083	0,010
-122,453	-200,000	-0,007	0,100
-121,439	40,063	0,064	0,041
-120,424	-16,052	-0,078	-0,036
-119,410	-200,000	0,022	0,098
-118,395	-160,349	0,166	0,006
-117,380	-200,000	-0,000	0,109
-116,366	528,254	0,034	0,057
-115,351	-116,005	-0,104	0,014
-114,337	-98,890	-0,079	-0,014
-113,322	67,751	-0,028	-0,021
-112,307	800,000	-0,018	0,051
-111,293	-200,000	0,015	0,140
-110,278	-46,291	-0,040	-0,014
-109,264	73,628	0,048	0,036
-108,249	-126,570	-0,116	0,012
-107,234	-30,171	0,122	-0,050
-106,220	15,891	-0,038	0,021
-105,205	-200,000	-0,042	0,161
-104,191	-200,000	0,018	0,107
-103,176	426,872	-0,096	0,149
-102,162	720,490	0,018	0,035
-101,147	248,733	0,047	0,057
-100,132	600,822	-0,116	-0,207
-99,118	152,014	0,054	-0,053
-98,103	213,913	-0,076	0,087
-97,089	-66,281	0,041	0,012
-96,074	253,672	0,053	0,065
-95,059	-138,679	0,169	0,013
-94,045	-200,000	-0,016	-0,077
-93,030	-200,000	-0,021	-0,072
-92,016	-10,758	0,032	-0,015
-91,001	800,000	-0,013	-0,038
-89,986	800,000	-0,010	0,031
-88,972	-6,495	0,126	-0,061
-87,957	-200,000	-0,027	0,093
-86,943	800,000	0,035	-0,074
-85,928	800,000	-0,025	0,075
-84,913	17,891	-0,009	0,005
-83,899	384,410	0,072	-0,107
-82,884	147,381	0,059	0,057
-81,870	654,790	-0,049	0,090
-80,855	-133,903	0,074	0,006
-79,840	149,529	-0,056	0,054
-78,826	-200,000	-0,023	0,080
-77,811	-67,102	-0,131	0,037
-76,797	17,184	-0,038	-0,022
-75,782	375,129	0,020	-0,029
-74,767	-169,084	0,261	-0,007
-73,753	800,000	-0,030	0,077
-72,738	52,225	-0,030	0,021
-71,724	800,000	0,034	0,096
-70,709	72,008	-0,126	-0,094
-69,694	155,722	-0,086	0,085
-68,680	90,296	-0,105	0,084
-67,665	538,224	-0,030	-0,051
-66,651	-16,110	-0,072	0,032
-65,636	-71,343	0,065	0,017
-64,622	-200,000	-0,011	-0,073
-63,607	-200,000	0,017	-0,134
-62,592	-48,117	-0,093	-0,032
-61,578	-65,899	0,042	0,012
-60,563	800,000	0,042	0,129
-59,549	800,000	-0,025	0,054
-58,534	51,158	-2,213	-1,501
-57,519	-200,000	-0,039	-0,749
-56,505	-200,000	-1,306	-5,149
-55,490	128,088	0,817	0,745
-54,476	800,000	5,387	12,210
-53,461	-200,000	18,975	321,549
-52,446	800,000	742,430	2325,665
-51,432	547,398	1655,173	2847,725
-50,417	109,576	1637,248	1404,457
-49,403	73,146	1287,696	962,941
-48,388	29,289	1029,367	624,536
-47,373	19,579	992,512	570,070
-46,359	16,831	980,039	553,858
-45,344	13,397	976,381	540,502
-44,330	13,692	974,953	540,659
-43,315	13,133	972,838	537,634
-42,300	12,991	971,978	536,672
-41,286	13,038	970,804	536,156
-40,271	13,003	970,010	535,583
-39,257	13,042	969,266	535,277
-38,242	13,032	968,213	534,642
-37,227	13,039	967,375	534,183
-36,213	13,007	966,620	533,641
-35,198	13,022	965,502	533,051
-34,184	13,013	964,762	532,590
-33,169	13,043	963,880	532,181
-32,154	13,006	962,998	531,554
-31,140	13,069	962,163	531,275
-30,125	13,038	961,400	530,731
-29,111	13,005	960,617	530,172
-28,096	13,016	959,921	529,803
-27,082	13,013	959,282	529,418
-26,067	13,009	958,541	528,976
-25,052	13,046	957,722	528,623
-24,038	13,071	957,000	528,285
-23,023	13,021	956,314	527,724
-22,009	13,028	955,898	527,494
-20,994	13,088	955,124	527,239
-19,979	13,050	954,518	526,761
-18,965	12,995	954,237	526,409
-17,950	13,068	953,271	526,091
-16,936	12,978	952,718	525,476
-15,921	12,966	951,987	525,014
-14,906	12,974	951,213	524,590
-13,892	12,942	950,620	524,140
-12,877	12,904	950,133	523,730
-11,863	12,940	949,392	523,417
-10,848	12,968	948,770	523,142
-9,833	13,052	948,221	523,085
-8,819	13,000	947,557	522,531
-7,804	12,910	947,082	521,965
-6,790	12,935	946,402	521,647
-5,775	12,974	945,821	521,432
-4,760	12,954	945,390	521,108
-3,746	12,960	944,595	520,670
-2,731	12,841	943,854	519,863
-1,717	12,713	943,339	519,152
-0,702	12,721	942,613	518,757
0,313	12,575	941,896	518,682
1,327	16,030	939,927	528,469
2,342	25,377	790,341	469,002
3,356	21,417	445,002	258,179
4,371	-7,898	298,482	143,582
5,386	-11,814	280,534	131,184
6,400	-13,038	274,638	127,266
7,415	-12,958	272,389	126,288
8,429	-13,335	270,909	125,240
9,444	-13,128	269,961	124,983
10,459	-13,092	269,293	124,695
11,473	-13,440	268,735	124,106
12,488	-13,423	268,119	123,826
13,502	-13,448	267,478	123,496
14,517	-13,582	267,268	123,266
15,531	-13,543	266,703	123,030
16,546	-13,519	266,442	122,920
17,561	-13,412	265,992	122,799
18,575	-13,342	265,549	122,648
19,590	-13,539	265,315	122,350
20,604	-13,300	265,073	122,443
21,619	-13,414	264,664	122,141
22,634	-13,311	264,249	122,031
23,648	-13,414	264,043	121,832
24,663	-13,441	263,774	121,673
25,677	-13,428	263,590	121,589
26,692	-13,315	263,205	121,502
27,707	-13,453	262,924	121,237
28,721	-13,659	262,639	120,911
29,736	-13,534	262,252	120,834
30,750	-13,443	262,158	120,861
31,765	-13,483	261,774	120,638
32,780	-13,418	261,667	120,636
33,794	-13,689	261,540	120,324
34,809	-13,300	261,134	120,473
35,823	-13,543	260,921	120,148
36,838	-13,542	260,596	119,988
37,853	-13,605	260,349	119,808
38,867	-13,408	260,134	119,873
39,882	-13,592	260,001	119,639
40,896	-13,605	259,596	119,430
41,911	-13,569	259,253	119,293
42,926	-13,611	259,095	119,173
43,940	-13,774	258,849	118,906
44,955	-13,769	258,650	118,807
45,969	-13,602	258,459	118,856
46,984	-13,965	258,230	118,421
47,999	-14,238	257,962	118,047
49,013	-14,119	257,563	117,959
50,028	-14,385	257,282	117,587
51,042	-14,380	257,083	117,489
52,057	-14,420	256,796	117,313
53,071	-14,240	256,696	117,414
54,086	-14,136	256,495	117,403
55,101	-14,196	256,318	117,259
56,115	-13,816	256,180	117,516
57,130	-13,573	256,132	117,696
58,144	-13,330	256,033	117,852
59,159	-13,165	255,615	117,793
60,174	-13,381	255,502	117,542
61,188	-13,579	255,297	117,265
62,203	-13,385	255,049	117,309
63,217	-13,320	254,814	117,247
64,232	-13,313	254,756	117,216
65,247	-13,313	254,499	117,088
66,261	-13,501	254,221	116,786
67,276	-13,805	253,943	116,386
68,290	-13,934	253,490	116,056
69,305	-13,865	253,317	116,026
70,320	-13,937	253,140	115,873
71,334	-13,567	253,009	116,121
72,349	-13,168	252,814	116,363
73,363	-13,242	252,884	116,322
74,378	-13,283	252,599	116,145
75,393	-13,459	252,442	115,912
76,407	-13,615	252,127	115,623
77,422	-13,740	252,025	115,459
78,436	-13,416	251,687	115,571
79,451	-13,377	251,347	115,438
80,466	-13,695	251,243	115,109
81,480	-13,619	250,918	115,014
82,495	-13,563	250,665	114,936
83,509	-13,661	250,557	114,792
84,524	-13,830	250,319	114,530
85,539	-13,882	250,126	114,387
86,553	-14,131	249,837	114,033
87,568	-13,924	249,748	114,158
88,582	-13,853	249,515	114,101
89,597	-13,924	249,411	113,984
90,611	-13,698	249,319	114,123
91,626	-13,479	249,067	114,182
92,641	-13,542	248,920	114,051
93,655	-13,565	248,597	113,874
94,670	-13,716	248,463	113,675
95,684	-13,679	248,371	113,654
96,699	-13,487	248,017	113,643
97,714	-13,646	247,693	113,351
98,728	-13,790	247,598	113,176
99,743	-13,911	247,254	112,908
100,757	-14,175	247,182	112,644
101,772	-13,909	247,042	112,792
102,787	-13,775	246,827	112,796
103,801	-13,823	246,675	112,677
104,816	-13,525	246,495	112,834
105,830	-13,558	246,513	112,804
106,845	-13,472	246,169	112,708
107,860	-13,447	245,961	112,624
108,874	-13,609	245,812	112,411
109,889	-13,596	245,457	112,249
110,903	-13,709	245,401	112,120
111,918	-13,532	245,078	112,109
112,933	-13,853	245,145	111,863
113,947	-13,642	244,927	111,929
114,962	-13,565	244,693	111,875
115,976	-13,605	244,544	111,764
116,991	-13,649	244,370	111,638
118,006	-13,652	244,231	111,563
119,020	-13,596	244,110	111,544
120,035	-13,518	243,957	111,528
121,049	-13,386	243,730	111,523
122,064	-13,394	243,555	111,427
123,079	-13,709	243,311	111,045
124,093	-13,723	242,984	110,875
125,108	-13,785	242,916	110,783
126,122	-13,937	242,461	110,441
127,137	-14,096	242,361	110,255
128,151	-13,872	242,228	110,369
129,166	-13,858	241,980	110,257
130,181	-14,068	241,968	110,070
131,195	-13,868	241,541	110,029
132,210	-13,844	241,541	110,040
133,224	-13,853	241,529	110,016
134,239	-13,439	241,196	110,192
135,254	-13,584	241,039	109,993
136,268	-13,789	240,849	109,729
137,283	-14,111	240,443	109,273
138,297	-14,212	240,326	109,128
139,312	-14,194	240,212	109,081
140,327	-13,706	240,041	109,390
141,341	-13,204	239,926	109,735
142,356	-13,217	239,949	109,724
143,370	-13,276	239,676	109,542
144,385	-13,094	239,466	109,584
145,400	-13,073	239,317	109,523
146,414	-13,027	239,136	109,468
147,429	-13,323	239,049	109,179
148,443	-13,369	238,901	109,064
149,458	-13,292	238,789	109,065
150,473	-13,316	238,433	108,874
151,487	-13,407	238,503	108,823
152,502	-13,384	238,268	108,725
153,516	-13,213	238,012	108,736
154,531	-13,348	237,859	108,548
155,546	-13,271	237,536	108,451
156,560	-13,480	237,505	108,261
157,575	-13,586	237,180	108,018
158,589	-13,478	237,149	108,081
159,604	-13,050	236,882	108,291
160,619	-13,171	236,797	108,146
161,633	-13,093	236,653	108,133
162,648	-13,161	236,588	108,039
163,662	-13,242	236,302	107,835
164,677	-13,289	236,175	107,730
165,692	-13,288	236,084	107,680
166,706	-13,273	235,924	107,609
167,721	-13,247	235,672	107,505
168,735	-13,222	235,751	107,551
169,750	-13,039	235,468	107,558
170,764	-13,195	235,357	107,374
171,779	-13,008	235,034	107,365
172,794	-13,178	235,065	107,235
173,808	-13,504	234,832	106,861
174,823	-13,892	234,520	106,403
175,837	-13,712	234,238	106,407
176,852	-13,553	234,370	106,583
177,867	-13,462	234,048	106,500
178,881	-13,181	233,935	106,660
179,896	-13,099	233,753	106,632
180,910	-13,146	233,659	106,542
181,925	-13,197	233,530	106,434
182,940	-13,190	233,408	106,374
183,954	-12,930	233,075	106,417
184,969	-13,229	233,082	106,176
185,983	-13,097	232,927	106,200
186,998	-12,962	232,812	106,244
188,013	-13,016	232,500	106,050
189,027	-12,963	232,393	106,033
190,042	-12,947	232,204	105,949
191,056	-12,980	231,967	105,806
192,071	-12,998	232,024	105,808
193,086	-13,014	231,927	105,743
194,100	-13,068	231,608	105,545
195,115	-13,336	231,297	105,186
196,129	-13,186	231,229	105,262
197,144	-7,326	233,172	110,727
198,159	-1,248	235,108	116,422
199,173	2,592	236,074	119,917
200,188	2,940	236,081	120,184
201,202	2,886	236,104	120,142
202,217	3,075	235,854	120,153
203,232	3,332	235,727	120,279
204,246	3,469	235,633	120,328
205,261	3,497	235,390	120,215
206,275	3,563	235,457	120,290
207,290	3,649	235,284	120,259
208,304	3,506	235,162	120,074
209,319	3,561	234,818	119,931
210,334	3,337	234,716	119,693
211,348	3,122	234,422	119,364
212,363	2,865	234,224	119,052
213,377	2,641	233,940	118,723
214,392	2,608	233,892	118,662
215,407	2,766	233,842	118,750
216,421	2,885	233,609	118,713
217,436	2,798	233,444	118,551
218,450	2,429	233,157	118,108
219,465	2,552	232,952	118,089
220,480	2,481	232,781	117,937
221,494	2,690	232,612	118,003
222,509	2,630	232,675	117,977
223,523	2,942	232,684	118,213
224,538	2,766	232,276	117,860
225,553	2,832	232,326	117,925
226,567	2,708	232,137	117,723
227,582	3,127	231,925	117,929
228,596	3,190	231,959	117,984
229,611	3,028	231,586	117,658
230,626	2,604	231,363	117,209
231,640	2,869	231,198	117,318
232,655	2,985	231,097	117,346
233,669	3,119	231,060	117,419
234,684	3,303	230,970	117,504
235,699	3,149	230,889	117,334
236,713	2,899	230,522	116,946
237,728	3,038	230,154	116,855
238,742	2,492	230,134	116,417
239,757	2,770	229,942	116,522
240,772	2,950	229,867	116,611
241,786	2,886	229,678	116,456
242,801	2,804	229,742	116,416
243,815	3,319	229,681	116,767
244,830	3,210	229,399	116,530
245,844	2,732	229,168	116,038
246,859	2,899	228,982	116,061
247,874	3,033	228,975	116,150
248,888	3,097	228,801	116,100
249,903	2,924	228,540	115,825
250,917	2,885	228,467	115,748
251,932	2,828	228,378	115,650
252,947	2,550	228,147	115,311
253,961	2,635	227,801	115,191
254,976	2,836	227,676	115,269
255,990	2,961	227,737	115,384
257,005	3,109	227,650	115,442
258,020	2,794	227,563	115,150
259,034	3,195	227,206	115,261
260,049	3,065	227,106	115,102
261,063	2,966	226,968	114,948
262,078	3,029	226,862	114,931
263,093	3,303	226,916	115,154
264,107	3,182	226,639	114,912
265,122	3,038	226,487	114,717
266,136	3,380	226,480	114,960
267,151	3,178	226,283	114,698
268,166	2,893	225,914	114,287
269,180	2,809	225,734	114,123
270,195	2,610	225,552	113,872
271,209	2,761	225,410	113,903
272,224	2,906	225,399	113,995
273,239	2,985	225,222	113,955
274,253	2,760	225,094	113,712
275,268	2,689	224,814	113,508
276,282	2,618	224,684	113,380
277,297	2,656	224,562	113,336
278,312	2,578	224,423	113,198
279,326	2,686	224,328	113,220
280,341	2,912	224,224	113,325
281,355	3,024	224,199	113,385
282,370	2,842	224,050	113,165
283,384	2,694	223,465	112,750
284,399	2,743	223,426	112,757
285,414	2,759	223,358	112,724
286,428	2,881	223,393	112,822
287,443	3,030	223,162	112,805
288,457	2,803	223,175	112,634
289,472	2,771	222,888	112,456
290,487	2,330	222,632	111,992
291,501	2,297	222,503	111,893
292,516	2,630	222,353	112,052
293,530	2,362	222,275	111,805
294,545	2,374	222,111	111,722
295,560	2,833	222,023	112,005
296,574	2,652	221,958	111,829
297,589	2,735	221,704	111,752
298,603	2,718	221,667	111,710
299,618	3,017	221,445	111,808
300,633	2,958	221,374	111,719
301,647	3,073	221,256	111,733
302,662	3,026	221,198	111,659
303,676	3,154	220,970	111,628
304,691	2,971	220,928	111,463
305,706	3,087	220,689	111,417
306,720	3,057	220,652	111,367
307,735	2,663	220,382	110,934
308,749	2,515	220,220	110,735
309,764	2,885	220,196	110,981
310,779	2,998	220,047	110,979
311,793	2,988	219,823	110,849
312,808	2,885	219,743	110,723
313,822	3,035	219,544	110,722
314,837	2,804	219,327	110,436
315,852	2,617	219,191	110,223
316,866	2,883	219,059	110,339
317,881	3,031	218,892	110,352
318,895	2,959	218,847	110,267
319,910	2,842	218,651	110,074
320,925	2,381	218,565	109,688
321,939	2,232	218,329	109,453
322,954	2,389	218,109	109,446
323,968	2,920	218,169	109,848
324,983	3,019	218,179	109,914
325,997	3,017	218,040	109,833
327,012	3,067	217,840	109,759
328,027	2,929	217,524	109,491
329,041	3,076	217,591	109,620
330,056	3,262	217,319	109,607
331,070	2,731	217,203	109,158
332,085	2,572	216,951	108,908
333,100	2,871	216,753	109,013
334,114	2,725	216,599	108,821
335,129	2,335	216,531	108,499
336,143	2,501	216,367	108,526
337,158	3,312	216,376	109,099
338,173	2,938	216,314	108,791
339,187	2,825	216,045	108,565
340,202	2,522	215,887	108,261
341,216	2,723	215,561	108,230
342,231	2,645	215,590	108,180
343,246	2,638	215,402	108,071
344,260	2,904	215,320	108,209
345,275	3,066	215,217	108,262
346,289	3,128	215,189	108,282
347,304	2,970	214,961	108,047
348,319	2,760	214,807	107,811
349,333	2,805	214,746	107,802
350,348	2,912	214,494	107,742
351,362	2,931	214,478	107,738
352,377	2,638	214,462	107,514
353,392	2,866	214,281	107,574
354,406	3,020	214,074	107,569
355,421	197,378	1313,206	1392,113
356,435	157,957	1447,052	1392,052
