DTS Sentinel unit serial number:	SN410029Multiplexer serial number:	ORYXHardware model number:	OX2-SRSoftware version number:	ORYX F/W v4,00 Oryx Data Collector v3.7.2.0data status	okinstallation	B6 Nyhavnadifferential loss correction	single-endedforward channel	channel 2reverse channel	N/Adate	2023/12/07time	10:35:08forward acquisition time	300,00reverse acquisition time	0,00gamma	499,1914k internal	0,3203k external	0,3203temperature offset calibration	1,0000default loss term (dB/km)	0,3820temperature slope calibration	1,0000multiplexer offset coefficient	1,0000multiplexer slope coefficient	1,0000fibre end	0,00T internal ref (°C)	7,07T ext. ref 1 (°C)	-7,02T ext. ref 2 (°C)	-7,08length (m)	temperature (°C)	Stokes	anti-Stokes-744,400	-27,409	0,135	0,057
-743,385	-67,957	-0,360	-0,101
-742,371	-58,799	0,191	0,060
-741,356	27,274	-0,310	-0,189
-740,342	-200,000	0,047	0,172
-739,327	-1,069	-0,323	-0,166
-738,312	-79,004	0,086	-0,021
-737,298	-35,739	-0,370	-0,145
-736,283	-164,650	0,198	0,006
-735,269	-81,667	-0,365	-0,086
-734,254	79,428	0,167	0,130
-733,239	13,160	-0,499	-0,280
-732,225	38,798	0,256	0,166
-731,210	50,254	0,092	0,063
-730,196	-200,000	0,011	0,132
-729,181	168,187	-0,046	0,047
-728,167	24,557	0,071	-0,042
-727,152	98,007	-0,022	0,019
-726,137	-55,790	-0,098	0,032
-725,123	688,715	-0,052	-0,100
-724,108	57,917	-0,099	-0,070
-723,094	-200,000	0,029	-0,102
-722,079	-129,694	-0,122	-0,012
-721,064	800,000	0,031	-0,074
-720,050	-200,000	-0,001	-0,122
-719,035	800,000	0,049	-0,103
-718,021	357,189	-0,055	0,080
-717,006	27,085	-0,149	-0,091
-715,991	-200,000	-0,006	-0,076
-714,977	-200,000	0,014	-0,069
-713,962	800,000	0,036	-0,101
-712,948	-104,926	0,093	0,015
-711,933	-0,674	-0,015	0,008
-710,918	29,919	0,026	0,016
-709,904	400,843	0,045	0,068
-708,889	461,379	-0,042	-0,068
-707,875	-165,523	-0,015	0,000
-706,860	-84,111	0,145	0,033
-705,845	-33,555	-0,088	-0,035
-704,831	-200,000	-0,009	-0,044
-703,816	-23,023	-0,105	0,046
-702,802	555,407	0,051	-0,090
-701,787	7,191	0,056	-0,030
-700,772	88,766	0,054	0,043
-699,758	144,891	-0,069	-0,067
-698,743	-75,768	0,026	-0,007
-697,729	800,000	-0,020	-0,050
-696,714	-200,000	-0,026	0,082
-695,699	-200,000	0,023	-0,099
-694,685	-200,000	-0,008	-0,042
-693,670	316,243	-0,022	0,030
-692,656	-200,000	-0,011	-0,055
-691,641	-90,903	0,135	-0,028
-690,627	256,572	0,038	-0,047
-689,612	-200,000	0,019	0,196
-688,597	800,000	0,045	0,109
-687,583	111,825	-0,079	0,069
-686,568	-23,894	-0,097	-0,042
-685,554	198,459	0,030	-0,033
-684,539	-8,640	0,170	0,082
-683,524	455,691	-0,070	-0,113
-682,510	-12,150	0,071	0,034
-681,495	-200,000	0,005	-0,070
-680,481	29,331	0,093	-0,057
-679,466	-48,590	-0,175	0,061
-678,451	748,000	-0,041	0,081
-677,437	-98,873	0,169	0,031
-676,422	-146,621	0,006	0,000
-675,408	-200,000	0,044	-0,145
-674,393	58,900	0,177	-0,126
-673,378	-177,538	-0,161	-0,003
-672,364	769,452	-0,033	-0,066
-671,349	-200,000	0,005	-0,092
-670,335	-157,323	0,064	-0,003
-669,320	89,633	0,123	0,100
-668,305	-31,362	0,138	-0,056
-667,291	-200,000	-0,009	0,093
-666,276	474,292	0,031	0,050
-665,262	304,643	-0,059	-0,079
-664,247	-6,449	0,053	-0,026
-663,232	-31,234	-0,138	0,056
-662,218	-36,724	0,067	0,026
-661,203	342,798	0,062	0,088
-660,189	800,000	-0,042	0,121
-659,174	25,625	-0,062	0,038
-658,159	-200,000	-0,020	0,092
-657,145	374,910	-0,002	0,003
-656,130	-113,308	0,127	-0,018
-655,116	-200,000	0,022	0,136
-654,101	20,785	-0,100	0,058
-653,086	-165,650	-0,087	-0,003
-652,072	800,000	-0,012	0,034
-651,057	69,290	-0,132	-0,098
-650,043	188,846	-0,020	-0,021
-649,028	-200,000	0,006	0,108
-648,014	800,000	0,035	-0,075
-646,999	-27,528	0,108	-0,045
-645,984	-200,000	0,007	-0,047
-644,970	307,999	-0,062	0,084
-643,955	237,478	0,025	0,030
-642,941	-200,000	0,003	-0,057
-641,926	-96,616	-0,158	-0,030
-640,911	-90,237	0,097	-0,020
-639,897	-200,000	0,006	0,050
-638,882	-55,775	-0,114	0,037
-637,868	44,751	0,140	-0,093
-636,853	-163,488	-0,084	0,003
-635,838	-200,000	0,004	0,053
-634,824	37,617	-0,052	0,033
-633,809	-157,603	-0,088	0,004
-632,795	158,107	-0,039	0,039
-631,780	800,000	-0,012	-0,036
-630,765	73,280	0,050	0,038
-629,751	-22,446	0,074	0,032
-628,736	102,487	-0,055	-0,047
-627,722	-126,854	0,081	-0,009
-626,707	-107,990	0,104	-0,016
-625,692	-91,213	-0,135	0,028
-624,678	135,942	0,053	0,050
-623,663	263,910	-0,069	-0,087
-622,649	800,000	0,031	-0,073
-621,634	63,417	0,162	-0,117
-620,619	-48,326	-0,104	-0,036
-619,605	97,501	0,134	0,111
-618,590	-51,615	-0,196	-0,066
-617,576	70,137	0,061	0,045
-616,561	-13,346	0,143	0,067
-615,546	82,688	-0,052	-0,041
-614,532	138,770	-0,037	-0,035
-613,517	-135,901	-0,051	0,004
-612,503	75,726	-0,136	0,104
-611,488	-182,441	-0,069	-0,001
-610,474	182,201	0,075	-0,080
-609,459	-28,396	0,020	0,008
-608,444	1,757	-0,081	-0,042
-607,430	800,000	-0,047	-0,143
-606,415	68,729	-0,048	-0,036
-605,401	119,753	-0,075	-0,067
-604,386	130,254	0,015	-0,014
-603,371	92,394	-0,069	0,057
-602,357	-200,000	0,073	0,000
-601,342	242,869	-0,103	0,125
-600,328	-200,000	-0,029	-0,095
-599,313	-200,000	0,008	0,089
-598,298	-10,337	0,096	0,046
-597,284	20,918	0,149	0,087
-596,269	106,796	-0,024	-0,021
-595,255	-200,000	0,016	0,132
-594,240	14,198	0,039	0,022
-593,225	-51,203	-0,157	0,053
-592,211	-140,375	0,102	0,008
-591,196	507,111	-0,034	0,057
-590,182	-44,066	0,145	0,052
-589,167	-75,282	-0,167	0,043
-588,152	84,246	0,081	0,064
-587,138	-200,000	-0,013	0,097
-586,123	17,249	0,066	-0,038
-585,109	-44,262	-0,180	-0,065
-584,094	229,411	-0,024	-0,028
-583,079	51,547	0,110	0,075
-582,065	424,338	-0,005	0,008
-581,050	5,864	-0,044	0,023
-580,036	43,168	0,110	0,072
-579,021	-88,474	-0,099	0,021
-578,006	548,400	-0,086	-0,149
-576,992	-48,151	-0,073	0,025
-575,977	-55,834	0,141	-0,045
-574,963	-200,000	0,004	-0,152
-573,948	99,258	-0,126	0,105
-572,934	441,944	-0,043	0,067
-571,919	147,950	0,072	0,070
-570,904	-16,967	-0,131	0,060
-569,890	-200,000	-0,042	-0,177
-568,875	800,000	-0,040	0,093
-567,861	-51,610	-0,092	0,031
-566,846	-200,000	0,011	0,170
-565,831	-135,237	-0,136	-0,012
-564,817	34,875	-0,047	-0,030
-563,802	25,794	0,075	-0,045
-562,788	800,000	0,035	-0,070
-561,773	153,364	-0,062	0,061
-560,758	-200,000	0,025	-0,132
-559,744	800,000	0,007	-0,017
-558,729	-156,613	0,065	-0,003
-557,715	-200,000	0,014	-0,059
-556,700	-143,538	-0,029	-0,002
-555,685	189,004	-0,090	-0,097
-554,671	29,179	-0,030	-0,018
-553,656	63,757	0,085	0,062
-552,642	800,000	0,008	0,022
-551,627	195,513	-0,087	0,095
-550,612	43,565	-0,074	0,049
-549,598	-154,851	-0,065	0,003
-548,583	-200,000	-0,006	-0,079
-547,569	800,000	0,027	0,071
-546,554	-200,000	-0,023	-0,075
-545,539	306,703	-0,011	0,014
-544,525	-200,000	-0,004	-0,019
-543,510	-67,998	-0,158	-0,044
-542,496	525,495	0,058	0,099
-541,481	-23,323	0,062	-0,027
-540,466	-200,000	-0,016	-0,112
-539,452	-200,000	0,003	-0,092
-538,437	-71,453	0,051	-0,014
-537,423	-130,675	0,138	-0,013
-536,408	800,000	-0,051	0,115
-535,393	-22,293	-0,193	-0,084
-534,379	14,843	-0,115	0,064
-533,364	215,230	-0,012	0,014
-532,350	216,083	0,061	-0,070
-531,335	-145,822	0,173	-0,011
-530,321	-109,486	0,016	-0,002
-529,306	800,000	-0,028	0,078
-528,291	-200,000	-0,001	0,005
-527,277	-79,453	-0,153	-0,037
-526,262	-200,000	0,020	-0,113
-525,248	53,504	-0,035	0,024
-524,233	79,633	-0,054	0,042
-523,218	148,178	0,089	0,086
-522,204	83,312	-0,058	0,045
-521,189	-119,433	0,101	0,013
-520,175	-115,850	0,103	-0,014
-519,160	-98,429	0,123	-0,022
-518,145	800,000	-0,051	0,146
-517,131	73,072	-0,020	0,015
-516,116	467,652	-0,024	0,039
-515,102	301,774	0,093	0,124
-514,087	785,219	0,099	-0,196
-513,072	94,118	-0,163	-0,133
-512,058	-200,000	-0,003	0,046
-511,043	107,444	0,051	-0,044
-510,029	-200,000	0,034	0,127
-509,014	-70,121	-0,101	0,027
-507,999	800,000	-0,009	0,026
-506,985	271,313	0,025	-0,032
-505,970	800,000	-0,020	0,053
-504,956	223,702	-0,033	0,039
-503,941	-105,638	-0,045	0,007
-502,926	20,775	0,066	-0,039
-501,912	82,527	0,037	-0,029
-500,897	23,492	0,048	0,028
-499,883	800,000	0,059	-0,120
-498,868	-200,000	0,009	-0,058
-497,853	-148,048	-0,093	0,005
-496,839	-144,666	-0,179	0,012
-495,824	-36,380	0,053	0,020
-494,810	800,000	0,060	-0,150
-493,795	42,386	-0,069	-0,045
-492,781	-15,950	0,124	-0,057
-491,766	800,000	-0,016	-0,039
-490,751	179,746	0,116	-0,122
-489,737	-22,178	-0,053	0,023
-488,722	-178,723	0,048	0,001
-487,708	800,000	-0,019	-0,053
-486,693	62,753	-0,017	0,012
-485,678	708,197	-0,034	-0,065
-484,664	177,208	0,081	-0,085
-483,649	0,393	0,064	-0,033
-482,635	399,154	-0,044	-0,066
-481,620	267,508	-0,104	0,132
-480,605	20,968	0,078	0,045
-479,591	-36,096	0,120	-0,046
-478,576	-150,905	-0,172	0,009
-477,562	112,074	-0,089	-0,077
-476,547	-149,472	-0,046	-0,003
-475,532	602,660	-0,043	-0,076
-474,518	-160,919	0,195	0,007
-473,503	800,000	-0,040	0,091
-472,489	800,000	0,042	0,131
-471,474	-200,000	0,001	0,068
-470,459	406,854	0,057	0,087
-469,445	110,426	0,021	0,018
-468,430	800,000	0,016	-0,033
-467,416	-47,561	0,025	-0,009
-466,401	10,177	0,077	0,042
-465,386	181,136	0,065	-0,069
-464,372	174,748	0,022	-0,023
-463,357	-104,640	0,057	-0,009
-462,343	227,666	-0,105	0,123
-461,328	611,155	-0,030	0,055
-460,313	-150,466	0,165	-0,009
-459,299	-27,552	0,071	0,030
-458,284	-78,539	0,035	0,009
-457,270	-200,000	-0,027	0,116
-456,255	44,248	-0,065	-0,043
-455,241	800,000	0,018	-0,043
-454,226	137,127	-0,048	-0,045
-453,211	143,351	-0,044	-0,042
-452,197	-118,647	0,110	-0,014
-451,182	-3,766	0,059	0,029
-450,168	800,000	0,061	0,124
-449,153	-200,000	-0,017	-0,173
-448,138	-74,284	-0,179	-0,046
-447,124	800,000	-0,042	-0,092
-446,109	325,004	-0,035	0,049
-445,095	393,621	0,014	-0,020
-444,080	50,490	0,128	-0,087
-443,065	-200,000	-0,010	0,070
-442,051	-200,000	-0,001	-0,078
-441,036	800,000	0,040	-0,121
-440,022	-135,962	-0,127	0,011
-439,007	263,177	-0,047	0,059
-437,992	-200,000	-0,003	0,145
-436,978	800,000	-0,013	-0,027
-435,963	167,807	0,022	-0,022
-434,949	72,542	0,091	0,068
-433,934	-164,241	0,101	0,003
-432,919	55,340	0,099	-0,069
-431,905	358,911	-0,028	-0,040
-430,890	-200,000	-0,012	-0,090
-429,876	112,751	0,057	0,050
-428,861	-59,246	-0,202	0,062
-427,846	-94,481	0,076	-0,015
-426,832	281,912	-0,106	-0,137
-425,817	212,822	0,071	-0,080
-424,803	237,643	-0,028	-0,033
-423,788	-40,058	0,103	-0,038
-422,773	281,525	-0,108	0,139
-421,759	142,187	-0,077	0,073
-420,744	-159,349	-0,070	0,003
-419,730	-200,000	0,007	-0,060
-418,715	800,000	-0,019	-0,057
-417,701	203,810	-0,197	0,219
-416,686	-53,497	0,027	0,009
-415,671	-33,030	0,165	-0,066
-414,657	90,954	0,025	-0,020
-413,642	-52,744	-0,060	-0,020
-412,628	348,009	-0,012	-0,017
-411,613	82,693	-0,057	-0,044
-410,598	5,390	-0,091	-0,048
-409,584	-200,000	0,008	-0,046
-408,569	-51,885	0,077	-0,026
-407,555	-39,228	0,097	0,036
-406,540	335,748	-0,036	-0,051
-405,525	800,000	-0,038	0,091
-404,511	-200,000	-0,022	-0,104
-403,496	800,000	0,022	0,068
-402,482	-200,000	-0,002	0,071
-401,467	-135,139	0,175	0,015
-400,452	-74,321	-0,036	-0,009
-399,438	-51,772	0,053	0,018
-398,423	-34,924	-0,023	-0,009
-397,409	78,084	-0,142	-0,108
-396,394	-200,000	0,020	-0,166
-395,379	93,767	-0,162	0,131
-394,365	-101,244	0,073	-0,013
-393,350	240,009	0,088	0,105
-392,336	81,061	-0,057	0,044
-391,321	177,151	-0,093	0,097
-390,306	67,655	0,013	0,010
-389,292	138,493	-0,060	-0,057
-388,277	800,000	0,017	0,042
-387,263	800,000	0,031	0,092
-386,248	800,000	-0,060	0,135
-385,233	-63,874	0,073	0,021
-384,219	190,592	-0,053	0,058
-383,204	-200,000	-0,002	-0,054
-382,190	265,750	0,032	0,040
-381,175	268,209	-0,013	-0,016
-380,160	-36,663	0,083	0,032
-379,146	121,601	0,082	0,073
-378,131	-2,813	0,057	0,029
-377,117	-200,000	0,011	0,077
-376,102	282,851	-0,048	0,062
-375,088	323,436	-0,027	0,037
-374,073	-19,615	-0,074	0,032
-373,058	81,919	-0,058	-0,045
-372,044	-200,000	-0,011	0,127
-371,029	43,318	0,113	-0,074
-370,015	-34,973	0,196	-0,076
-369,000	62,747	-0,043	-0,031
-367,985	-108,185	0,052	0,008
-366,971	429,270	0,010	-0,015
-365,956	-86,294	0,102	-0,022
-364,942	690,081	0,052	0,099
-363,927	-200,000	-0,003	-0,060
-362,912	69,741	0,056	0,042
-361,898	-66,013	-0,074	-0,021
-360,883	800,000	0,030	-0,068
-359,869	167,382	0,039	0,039
-358,854	-200,000	-0,022	-0,113
-357,839	-200,000	0,029	0,103
-356,825	-200,000	0,002	0,010
-355,810	-27,367	-0,061	0,025
-354,796	-45,375	-0,148	-0,052
-353,781	-200,000	0,002	-0,058
-352,766	-200,000	0,010	-0,113
-351,752	-59,300	-0,132	-0,041
-350,737	-200,000	-0,015	-0,066
-349,723	-111,361	-0,053	-0,008
-348,708	-200,000	-0,042	0,147
-347,693	-119,921	0,110	0,013
-346,679	-124,056	-0,068	-0,008
-345,664	223,594	0,048	-0,055
-344,650	-200,000	0,024	-0,095
-343,635	800,000	0,041	0,087
-342,620	178,428	0,145	0,152
-341,606	-200,000	0,006	0,078
-340,591	158,912	-0,160	0,160
-339,577	800,000	-0,043	-0,099
-338,562	-200,000	-0,028	-0,175
-337,548	-71,387	0,071	0,019
-336,533	74,909	0,145	0,109
-335,518	-13,474	0,042	-0,019
-334,504	17,713	-0,060	0,034
-333,489	-200,000	-0,005	0,062
-332,475	168,468	-0,104	-0,106
-331,460	163,955	-0,107	0,107
-330,445	-108,966	0,079	-0,012
-329,431	-18,614	-0,018	-0,008
-328,416	116,312	0,123	0,107
-327,402	-200,000	-0,023	-0,079
-326,387	62,160	-0,095	0,068
-325,372	-200,000	-0,003	0,018
-324,358	-77,263	0,032	0,008
-323,343	-174,220	0,167	-0,003
-322,329	272,823	0,083	0,105
-321,314	-167,375	0,116	-0,003
-320,299	-200,000	0,006	0,120
-319,285	58,040	0,042	-0,029
-318,270	-65,633	-0,099	0,028
-317,256	-200,000	-0,003	-0,061
-316,241	-200,000	-0,033	-0,137
-315,226	-64,635	0,093	-0,027
-314,212	-200,000	-0,019	0,065
-313,197	-200,000	0,003	-0,013
-312,183	-85,742	-0,103	0,023
-311,168	258,939	0,094	0,116
-310,153	98,725	-0,082	-0,068
-309,139	-40,758	-0,072	0,027
-308,124	-74,036	0,079	-0,020
-307,110	800,000	0,035	-0,100
-306,095	-200,000	0,014	0,184
-305,080	-200,000	0,029	0,129
-304,066	59,268	-0,118	-0,083
-303,051	126,013	0,033	0,030
-302,037	-200,000	-0,002	0,037
-301,022	602,909	0,066	-0,117
-300,008	-140,164	0,141	0,010
-298,993	-200,000	0,035	0,199
-297,978	82,521	-0,091	0,071
-296,964	541,620	-0,048	-0,083
-295,949	244,341	-0,058	-0,070
-294,935	-200,000	0,005	-0,125
-293,920	-77,277	0,084	0,021
-292,905	-32,301	-0,041	-0,016
-291,891	155,296	-0,051	-0,050
-290,876	-112,897	0,047	-0,007
-289,862	-200,000	-0,027	-0,097
-288,847	800,000	-0,058	-0,130
-287,832	-154,720	-0,095	-0,004
-286,818	137,556	0,168	-0,157
-285,803	800,000	-0,025	-0,080
-284,789	-200,000	-0,002	-0,014
-283,774	-44,251	0,099	-0,035
-282,759	-200,000	-0,033	-0,123
-281,745	-144,490	-0,055	0,004
-280,730	82,714	0,108	-0,084
-279,716	114,361	0,043	-0,038
-278,701	-139,938	-0,107	-0,008
-277,686	22,809	-0,030	-0,017
-276,672	-44,764	0,143	0,051
-275,657	-57,427	-0,091	-0,028
-274,643	-143,053	0,113	-0,008
-273,628	-200,000	-0,020	0,090
-272,613	-112,860	0,136	-0,019
-271,599	-200,000	-0,022	0,092
-270,584	-200,000	0,028	-0,092
-269,570	800,000	0,007	-0,019
-268,555	332,333	0,060	0,083
-267,540	-150,010	-0,114	-0,006
-266,526	-200,000	0,001	-0,067
-265,511	159,423	-0,046	-0,046
-264,497	63,422	0,024	0,017
-263,482	519,497	-0,081	-0,136
-262,467	76,339	0,039	0,029
-261,453	7,410	0,036	0,019
-260,438	18,898	0,059	-0,034
-259,424	800,000	-0,018	-0,052
-258,409	800,000	0,018	-0,054
-257,395	-200,000	-0,005	-0,049
-256,380	192,272	0,022	0,023
-255,365	411,427	0,024	0,037
-254,351	-0,726	-0,147	0,074
-253,336	-16,705	-0,076	-0,034
-252,322	531,392	0,019	-0,033
-251,307	-200,000	0,004	-0,034
-250,292	342,376	-0,076	0,106
-249,278	208,603	0,073	-0,081
-248,263	121,469	-0,013	-0,012
-247,249	44,608	-0,127	0,083
-246,234	295,421	-0,122	-0,160
-245,219	-200,000	-0,026	-0,085
-244,205	569,328	0,030	-0,053
-243,190	40,077	0,111	-0,071
-242,176	378,869	0,079	0,115
-241,161	800,000	0,029	-0,073
-240,146	-200,000	0,042	0,162
-239,132	-200,000	0,018	0,146
-238,117	-116,040	0,035	0,005
-237,103	-110,373	-0,069	0,010
-236,088	800,000	0,050	-0,112
-235,073	-71,018	0,109	0,029
-234,059	-200,000	0,022	0,141
-233,044	-200,000	-0,019	0,103
-232,030	-77,250	0,026	-0,007
-231,015	53,122	0,151	-0,103
-230,000	-94,942	-0,139	0,027
-228,986	800,000	0,022	-0,060
-227,971	73,431	0,049	-0,037
-226,957	-19,935	0,059	0,026
-225,942	106,115	-0,039	0,033
-224,927	144,088	-0,060	0,057
-223,913	-58,197	0,180	0,056
-222,898	25,978	-0,204	0,121
-221,884	210,694	0,045	0,051
-220,869	-200,000	0,014	0,061
-219,855	504,477	-0,033	0,055
-218,840	-200,000	-0,005	0,052
-217,825	800,000	0,076	0,199
-216,811	800,000	0,029	-0,067
-215,796	-200,000	-0,004	0,044
-214,782	155,383	-0,139	-0,136
-213,767	-41,917	0,064	0,023
-212,752	587,128	-0,031	0,055
-211,738	-186,108	0,121	-0,001
-210,723	462,395	-0,040	-0,063
-209,709	-70,228	0,059	0,016
-208,694	-200,000	-0,020	0,079
-207,679	800,000	-0,033	0,068
-206,665	51,447	0,109	0,074
-205,650	32,771	-0,121	0,074
-204,636	-20,099	0,117	0,051
-203,621	-45,990	0,084	0,029
-202,606	-89,784	-0,187	0,039
-201,592	286,768	-0,030	-0,038
-200,577	75,072	0,062	-0,046
-199,563	-43,785	0,036	-0,013
-198,548	-126,587	-0,135	-0,014
-197,533	11,381	-0,109	0,059
-196,519	-62,679	0,161	0,047
-195,504	332,281	-0,051	-0,071
-194,490	-200,000	0,002	-0,117
-193,475	-200,000	-0,016	0,058
-192,460	800,000	0,025	-0,050
-191,446	-53,349	-0,109	-0,035
-190,431	-73,243	0,178	0,046
-189,417	-200,000	-0,006	-0,019
-188,402	-200,000	0,015	0,067
-187,387	490,174	-0,024	0,038
-186,373	-115,226	0,185	0,025
-185,358	-103,679	0,047	-0,008
-184,344	-200,000	-0,000	-0,069
-183,329	183,922	-0,040	0,042
-182,315	-200,000	0,001	-0,103
-181,300	800,000	0,046	-0,141
-180,285	-48,049	-0,063	-0,022
-179,271	-200,000	0,011	-0,049
-178,256	-200,000	0,008	-0,117
-177,242	800,000	0,030	0,074
-176,227	12,263	0,033	0,018
-175,212	-179,484	-0,088	-0,001
-174,198	-158,334	-0,120	0,005
-173,183	800,000	0,039	-0,082
-172,169	245,189	-0,096	-0,115
-171,154	322,717	0,059	0,080
-170,139	-200,000	0,007	0,108
-169,125	301,485	0,053	-0,069
-168,110	800,000	-0,035	0,102
-167,096	294,806	-0,084	-0,110
-166,081	-175,850	-0,046	-0,001
-165,066	236,410	0,025	-0,029
-164,052	800,000	-0,051	-0,134
-163,037	28,401	-0,112	-0,067
-162,023	73,307	0,126	0,094
-161,008	20,233	-0,046	0,026
-159,993	-178,006	-0,038	-0,001
-158,979	116,608	-0,113	0,098
-157,964	-200,000	0,009	-0,073
-156,950	800,000	0,057	-0,116
-155,935	250,814	-0,060	0,073
-154,920	454,677	0,106	-0,167
-153,906	427,946	-0,016	-0,025
-152,891	-200,000	0,023	0,077
-151,877	-144,865	-0,115	0,007
-150,862	-44,019	-0,175	-0,062
-149,847	-27,162	0,029	0,012
-148,833	30,145	-0,043	-0,026
-147,818	-113,224	0,062	-0,009
-146,804	117,541	-0,079	0,069
-145,789	384,381	0,048	0,070
-144,775	-92,448	-0,074	-0,015
-143,760	-19,394	-0,098	0,043
-142,745	50,048	0,056	-0,037
-141,731	-25,459	0,190	-0,079
-140,716	7,845	0,162	0,086
-139,702	192,462	0,108	0,116
-138,687	23,432	-0,033	-0,019
-137,672	136,557	-0,065	-0,060
-136,658	77,481	0,010	-0,008
-135,643	704,293	0,029	0,055
-134,629	800,000	0,038	-0,117
-133,614	800,000	0,036	-0,109
-132,599	693,099	0,046	0,086
-131,585	719,825	-0,025	0,047
-130,570	-200,000	0,021	-0,076
-129,556	6,937	0,052	0,027
-128,541	-30,254	-0,098	0,039
-127,526	5,182	0,145	0,076
-126,512	-131,441	0,072	-0,007
-125,497	800,000	-0,063	0,136
-124,483	638,280	-0,029	-0,052
-123,468	-200,000	-0,004	0,119
-122,453	-200,000	0,013	-0,212
-121,439	800,000	-0,056	-0,148
-120,424	-77,866	0,087	0,021
-119,410	-9,672	-0,079	0,037
-118,395	-95,278	0,028	0,005
-117,380	94,792	0,082	0,066
-116,366	114,798	-0,070	0,060
-115,351	-50,646	0,092	-0,030
-114,337	-5,103	0,185	0,090
-113,322	-142,180	0,003	-0,000
-112,307	-200,000	0,016	0,075
-111,293	800,000	0,034	0,103
-110,278	199,139	-0,051	-0,055
-109,264	-45,485	0,058	0,020
-108,249	203,376	-0,105	-0,115
-107,234	-200,000	0,010	-0,145
-106,220	800,000	0,069	-0,168
-105,205	-200,000	0,007	0,043
-104,191	-200,000	0,017	0,088
-103,176	-200,000	0,006	0,116
-102,162	-200,000	-0,001	-0,006
-101,147	258,722	-0,081	-0,099
-100,132	4,299	-0,027	-0,014
-99,118	540,613	0,011	-0,019
-98,103	-66,410	-0,105	-0,029
-97,089	-200,000	0,013	0,179
-96,074	141,942	-0,098	0,092
-95,059	50,469	-0,033	0,022
-94,045	72,531	0,104	-0,077
-93,030	-12,560	-0,127	0,058
-92,016	395,333	-0,049	-0,073
-91,001	251,178	0,061	-0,074
-89,986	209,228	0,112	0,124
-88,972	440,535	0,050	0,078
-87,957	658,137	-0,085	0,156
-86,943	800,000	-0,022	0,043
-85,928	133,128	0,052	-0,048
-84,913	604,514	-0,067	0,119
-83,899	93,041	-0,052	-0,042
-82,884	118,342	0,161	-0,140
-81,870	-162,532	-0,093	0,003
-80,855	-125,300	0,195	-0,021
-79,840	85,315	-0,117	0,091
-78,826	191,312	0,025	-0,026
-77,811	613,918	-0,056	-0,100
-76,797	-39,528	-0,087	-0,032
-75,782	-58,203	0,122	0,038
-74,767	93,102	0,147	0,118
-73,753	347,747	0,053	0,074
-72,738	-7,692	0,061	0,029
-71,724	363,221	-0,048	-0,068
-70,709	-200,000	-0,021	-0,068
-69,694	630,961	-0,059	0,106
-68,680	14,272	0,063	0,035
-67,665	414,205	0,050	-0,076
-66,651	-64,083	0,018	0,005
-65,636	-15,667	0,090	-0,040
-64,622	-200,000	0,009	0,056
-63,607	-200,000	0,018	-0,204
-62,592	345,416	0,074	-0,103
-61,578	-162,407	0,054	-0,002
-60,563	504,177	0,061	-0,100
-59,549	-200,000	0,037	0,161
-58,534	91,989	-2,910	-2,317
-57,519	-99,743	0,575	-0,101
-56,505	800,000	-1,907	-5,735
-55,490	303,965	1,248	1,642
-54,476	800,000	5,521	12,109
-53,461	-200,000	22,857	353,648
-52,446	800,000	764,335	2271,000
-51,432	510,129	1644,671	2716,208
-50,417	64,329	1648,097	1172,817
-49,403	13,846	1566,502	859,338
-48,388	8,766	1519,566	807,832
-47,373	18,732	1514,258	855,150
-46,359	12,242	1502,608	816,168
-45,344	7,273	1498,662	789,154
-44,330	7,156	1496,864	787,588
-43,315	7,098	1494,869	786,216
-42,300	7,088	1492,927	785,115
-41,286	7,124	1491,295	784,405
-40,271	7,091	1490,134	783,600
-39,257	7,116	1488,370	782,763
-38,242	7,146	1487,149	782,241
-37,227	7,083	1486,079	781,334
-36,213	7,115	1484,490	780,625
-35,198	7,081	1483,373	779,837
-34,184	7,096	1481,924	779,119
-33,169	7,038	1480,542	778,074
-32,154	7,117	1479,005	777,628
-31,140	7,158	1477,453	776,984
-30,125	7,170	1476,333	776,424
-29,111	7,102	1475,323	775,524
-28,096	7,124	1474,038	774,928
-27,082	7,140	1473,212	774,541
-26,067	7,133	1471,865	773,766
-25,052	7,104	1470,824	773,045
-24,038	7,050	1469,647	772,131
-23,023	7,073	1468,874	771,811
-22,009	7,101	1467,738	771,319
-20,994	7,089	1467,023	770,856
-19,979	7,134	1465,690	770,343
-18,965	7,116	1464,747	769,728
-17,950	7,135	1463,663	769,223
-16,936	7,058	1462,875	768,402
-15,921	7,039	1461,629	767,625
-14,906	6,994	1460,722	766,896
-13,892	7,018	1459,656	766,423
-12,877	6,992	1458,730	765,778
-11,863	6,921	1457,759	764,894
-10,848	6,969	1456,842	764,615
-9,833	7,064	1455,836	764,523
-8,819	7,073	1454,909	764,044
-7,804	7,007	1454,030	763,236
-6,790	6,995	1453,300	762,762
-5,775	7,033	1452,188	762,335
-4,760	7,000	1451,459	761,759
-3,746	6,978	1450,389	761,060
-2,731	6,895	1449,205	760,008
-1,717	6,853	1448,204	759,251
-0,702	6,855	1447,202	758,705
0,313	6,688	1446,069	758,451
1,327	10,189	1443,022	773,648
2,342	18,841	1201,331	678,528
3,356	14,107	671,745	368,836
4,371	-13,557	456,176	208,111
5,386	-16,500	429,212	191,523
6,400	-17,443	420,747	186,387
7,415	-16,718	417,358	185,893
8,429	-18,109	414,750	182,764
9,444	-17,996	413,413	182,316
10,459	-17,940	412,187	181,837
11,473	-18,143	411,457	181,217
12,488	-18,211	410,471	180,672
13,502	-18,262	409,767	180,275
14,517	-18,302	408,985	179,859
15,531	-18,454	408,147	179,266
16,546	-18,377	407,576	179,105
17,561	-18,397	407,313	178,946
18,575	-18,348	406,294	178,550
19,590	-18,506	405,894	178,142
20,604	-18,394	405,645	178,169
21,619	-18,407	405,042	177,871
22,634	-18,402	404,556	177,649
23,648	-18,577	403,878	177,096
24,663	-18,372	403,486	177,188
25,677	-18,552	403,243	176,820
26,692	-18,434	402,896	176,813
27,707	-18,386	402,122	176,522
28,721	-18,438	401,920	176,348
29,736	-18,468	401,404	176,065
30,750	-18,573	401,288	175,857
31,765	-18,425	400,869	175,858
32,780	-18,535	400,241	175,417
33,794	-18,455	400,060	175,430
34,809	-18,421	399,518	175,222
35,823	-18,524	399,133	174,900
36,838	-18,489	398,788	174,780
37,853	-18,612	398,500	174,472
38,867	-18,439	398,014	174,477
39,882	-18,547	397,564	174,120
40,896	-18,487	397,228	174,037
41,911	-18,611	396,750	173,646
42,926	-18,469	396,482	173,704
43,940	-18,471	396,058	173,499
44,955	-18,504	395,740	173,300
45,969	-18,581	395,595	173,119
46,984	-18,381	395,133	173,168
47,999	-18,518	394,859	172,849
49,013	-18,343	394,453	172,889
50,028	-18,470	394,021	172,516
51,042	-18,413	393,719	172,443
52,057	-18,384	393,370	172,314
53,071	-18,387	393,097	172,175
54,086	-18,381	392,828	172,050
55,101	-18,344	392,456	171,921
56,115	-18,383	392,036	171,669
57,130	-18,403	391,787	171,519
58,144	-18,371	391,323	171,344
59,159	-18,376	391,031	171,193
60,174	-18,317	390,494	171,020
61,188	-18,268	390,351	171,006
62,203	-18,274	389,891	170,783
63,217	-18,261	389,498	170,612
64,232	-18,225	389,166	170,498
65,247	-18,203	388,813	170,357
66,261	-18,293	388,423	170,053
67,276	-18,537	388,221	169,631
68,290	-18,404	387,966	169,678
69,305	-18,323	387,458	169,546
70,320	-18,315	387,149	169,406
71,334	-18,285	386,946	169,342
72,349	-18,258	386,504	169,168
73,363	-18,284	386,088	168,937
74,378	-18,351	385,878	168,744
75,393	-18,347	385,629	168,624
76,407	-18,298	385,042	168,416
77,422	-18,187	384,731	168,409
78,436	-18,365	384,517	168,071
79,451	-18,243	384,160	168,057
80,466	-18,120	383,619	167,964
81,480	-18,395	383,448	167,519
82,495	-18,318	383,111	167,456
83,509	-18,314	382,979	167,389
84,524	-18,256	382,533	167,254
85,539	-18,285	382,260	167,082
86,553	-18,382	381,889	166,780
87,568	-18,326	381,728	166,767
88,582	-18,399	381,293	166,468
89,597	-18,251	381,051	166,538
90,611	-18,302	380,769	166,334
91,626	-18,297	380,328	166,133
92,641	-18,341	380,136	165,979
93,655	-18,192	379,842	166,025
94,670	-18,313	379,522	165,716
95,684	-18,423	379,203	165,423
96,699	-18,288	378,796	165,402
97,714	-18,363	378,713	165,256
98,728	-18,376	378,382	165,080
99,743	-18,269	378,026	165,045
100,757	-18,287	377,634	164,837
101,772	-18,176	377,298	164,816
102,787	-18,192	377,032	164,665
103,801	-18,287	376,768	164,415
104,816	-18,170	376,560	164,457
105,830	-18,134	376,195	164,328
106,845	-18,205	375,824	164,062
107,860	-18,039	375,493	164,112
108,874	-18,199	375,431	163,869
109,889	-18,069	374,869	163,773
110,903	-18,174	374,740	163,570
111,918	-18,177	374,384	163,395
112,933	-18,118	374,024	163,298
113,947	-18,289	373,962	163,043
114,962	-18,158	373,614	163,040
115,976	-18,198	373,194	162,791
116,991	-18,254	372,891	162,576
118,006	-18,212	372,639	162,503
119,020	-18,154	372,466	162,486
120,035	-18,216	372,327	162,334
121,049	-18,232	371,942	162,131
122,064	-18,115	371,658	162,139
123,079	-18,214	371,357	161,870
124,093	-18,144	371,070	161,817
125,108	-18,139	370,629	161,616
126,122	-18,220	370,516	161,452
127,137	-18,201	370,081	161,272
128,151	-18,061	369,755	161,289
129,166	-18,165	369,629	161,091
130,181	-18,044	369,200	161,040
131,195	-18,228	368,899	160,666
132,210	-18,106	368,525	160,639
133,224	-18,118	368,406	160,559
134,239	-18,138	368,037	160,359
135,254	-18,195	367,812	160,177
136,268	-18,244	367,622	160,019
137,283	-18,263	367,063	159,739
138,297	-18,164	366,758	159,712
139,312	-18,178	366,487	159,563
140,327	-18,136	366,269	159,505
141,341	-18,091	366,069	159,459
142,356	-18,031	365,752	159,381
143,370	-18,032	365,554	159,278
144,385	-18,028	365,115	159,078
145,400	-18,085	364,885	158,894
146,414	-18,005	364,606	158,855
147,429	-18,128	364,550	158,667
148,443	-18,156	364,193	158,463
149,458	-18,055	363,887	158,439
150,473	-18,047	363,610	158,314
151,487	-18,056	363,435	158,213
152,502	-18,207	363,100	157,869
153,516	-17,993	362,743	157,960
154,531	-18,079	362,411	157,698
155,546	-18,156	362,224	157,509
156,560	-18,127	362,125	157,486
157,575	-18,094	361,757	157,353
158,589	-18,054	361,385	157,225
159,604	-18,030	361,066	157,101
160,619	-17,926	360,740	157,070
161,633	-18,031	360,636	156,884
162,648	-18,035	360,413	156,769
163,662	-18,084	360,100	156,560
164,677	-18,158	359,854	156,350
165,692	-18,045	359,653	156,384
166,706	-18,107	359,456	156,210
167,721	-17,931	359,208	156,299
168,735	-17,953	359,023	156,179
169,750	-17,921	358,800	156,106
170,764	-18,081	358,515	155,776
171,779	-18,091	358,281	155,650
172,794	-17,919	357,882	155,667
173,808	-18,038	357,783	155,468
174,823	-18,065	357,383	155,249
175,837	-18,208	357,226	154,997
176,852	-18,111	357,000	155,000
177,867	-17,993	356,768	155,026
178,881	-17,932	356,491	154,963
179,896	-18,010	356,110	154,691
180,910	-17,959	355,920	154,657
181,925	-18,002	355,725	154,506
182,940	-18,055	355,526	154,344
183,954	-18,110	355,235	154,139
184,969	-17,963	354,913	154,159
185,983	-17,946	354,927	154,171
186,998	-17,914	354,590	154,048
188,013	-17,928	354,155	153,830
189,027	-17,859	353,910	153,790
190,042	-18,024	353,703	153,493
191,056	-18,031	353,487	153,377
192,071	-17,967	353,315	153,365
193,086	-17,890	352,863	153,245
194,100	-17,880	352,688	153,166
195,115	-18,010	352,499	152,919
196,129	-16,597	353,297	154,911
197,144	-12,370	355,067	160,662
198,159	-8,253	356,967	166,384
199,173	-4,617	358,560	171,431
200,188	-3,851	358,842	172,460
201,202	-3,689	358,401	172,425
202,217	-3,426	358,240	172,643
203,232	-3,367	358,207	172,681
204,246	-3,189	358,014	172,784
205,261	-3,137	357,854	172,753
206,275	-3,163	357,659	172,612
207,290	-2,867	357,415	172,829
208,304	-2,889	357,109	172,639
209,319	-3,019	356,818	172,330
210,334	-2,927	356,655	172,344
211,348	-2,785	356,395	172,370
212,363	-2,814	356,144	172,200
213,377	-2,746	356,019	172,204
214,392	-2,661	355,914	172,238
215,407	-2,639	355,627	172,109
216,421	-2,664	355,424	171,966
217,436	-2,703	355,055	171,727
218,450	-2,729	354,896	171,604
219,465	-2,644	354,772	171,628
220,480	-2,726	354,445	171,359
221,494	-2,636	354,218	171,339
222,509	-2,643	354,031	171,225
223,523	-2,704	353,893	171,072
224,538	-2,860	353,555	170,712
225,553	-2,746	353,303	170,707
226,567	-2,781	353,252	170,627
227,582	-2,726	352,839	170,475
228,596	-2,717	352,648	170,379
229,611	-2,584	352,203	170,304
230,626	-2,711	352,139	170,110
231,640	-2,816	351,937	169,875
232,655	-2,788	351,642	169,749
233,669	-2,772	351,446	169,658
234,684	-2,769	351,181	169,519
235,699	-2,694	351,004	169,506
236,713	-2,694	350,718	169,352
237,728	-2,810	350,514	169,104
238,742	-2,639	350,203	169,137
239,757	-2,615	349,884	168,995
240,772	-2,675	349,772	168,857
241,786	-2,591	349,551	168,833
242,801	-2,618	349,185	168,609
243,815	-2,633	349,172	168,571
244,830	-2,778	349,023	168,317
245,844	-2,700	348,639	168,206
246,859	-2,596	348,352	168,172
247,874	-2,623	348,160	168,033
248,888	-2,696	347,973	167,844
249,903	-2,639	347,702	167,764
250,917	-2,495	347,390	167,763
251,932	-2,477	347,335	167,742
252,947	-2,524	347,072	167,547
253,961	-2,653	346,820	167,263
254,976	-2,631	346,626	167,179
255,990	-2,516	346,328	167,152
257,005	-2,623	346,131	166,921
258,020	-2,456	345,789	166,930
259,034	-2,491	345,736	166,850
260,049	-2,553	345,498	166,650
261,063	-2,609	345,102	166,380
262,078	-2,485	344,967	166,441
263,093	-2,564	344,830	166,271
264,107	-2,442	344,587	166,277
265,122	-2,538	344,402	166,064
266,136	-2,518	344,077	165,915
267,151	-2,525	343,990	165,850
268,166	-2,484	343,736	165,759
269,180	-2,424	343,346	165,625
270,195	-2,584	343,173	165,346
271,209	-2,558	343,042	165,297
272,224	-2,471	342,838	165,282
273,239	-2,593	342,682	165,055
274,253	-2,420	342,384	165,091
275,268	-2,397	342,025	164,929
276,282	-2,466	341,976	164,813
277,297	-2,552	341,795	164,615
278,312	-2,592	341,604	164,463
279,326	-2,550	341,215	164,308
280,341	-2,371	341,051	164,415
281,355	-2,547	340,833	164,099
282,370	-2,352	340,618	164,199
283,384	-2,500	340,317	163,873
284,399	-2,367	340,159	163,931
285,414	-2,363	339,992	163,841
286,428	-2,524	339,791	163,549
287,443	-2,502	339,656	163,495
288,457	-2,278	339,236	163,527
289,472	-2,502	339,109	163,202
290,487	-2,533	338,837	163,022
291,501	-2,394	338,637	163,065
292,516	-2,456	338,529	162,930
293,530	-2,222	338,109	162,973
294,545	-2,335	338,073	162,815
295,560	-2,236	337,724	162,743
296,574	-2,246	337,697	162,704
297,589	-2,377	337,384	162,394
298,603	-2,224	337,177	162,450
299,618	-2,298	336,927	162,232
300,633	-2,179	336,808	162,292
301,647	-2,312	336,683	162,070
302,662	-2,311	336,442	161,941
303,676	-2,212	336,060	161,852
304,691	-2,258	335,901	161,710
305,706	-2,314	335,809	161,590
306,720	-2,307	335,349	161,362
307,735	-2,259	335,228	161,342
308,749	-2,241	335,022	161,248
309,764	-2,156	334,789	161,214
310,779	-2,165	334,501	161,051
311,793	-2,248	334,363	160,880
312,808	-2,160	334,234	160,899
313,822	-2,192	333,882	160,682
314,837	-2,130	333,776	160,684
315,852	-2,142	333,578	160,561
316,866	-2,082	333,316	160,486
317,881	-2,052	333,074	160,387
318,895	-2,199	332,928	160,143
319,910	-2,169	332,686	160,045
320,925	-2,172	332,496	159,936
321,939	-2,104	332,308	159,905
322,954	-2,172	332,010	159,673
323,968	-2,090	331,941	159,716
324,983	-1,852	331,621	159,805
325,997	-2,018	331,473	159,539
327,012	-2,058	331,240	159,370
328,027	-2,266	331,099	159,063
329,041	-2,189	330,575	158,880
330,056	-1,967	330,628	159,131
331,070	-1,999	330,406	158,975
332,085	-2,018	330,176	158,831
333,100	-2,021	330,116	158,784
334,114	-1,939	329,895	158,752
335,129	-1,840	329,593	158,699
336,143	-1,916	329,197	158,413
337,158	-1,896	329,030	158,339
338,173	-2,032	328,959	158,145
339,187	-1,854	328,793	158,242
340,202	-1,991	328,478	157,929
341,216	-1,781	328,237	158,025
342,231	-2,122	328,128	157,593
343,246	-1,895	327,825	157,676
344,260	-1,906	327,528	157,508
345,275	-1,865	327,329	157,441
346,289	-2,065	327,132	157,119
347,304	-2,036	327,010	157,077
348,319	-1,872	326,914	157,192
349,333	-1,742	326,726	157,226
350,348	-1,892	326,373	156,883
351,362	-2,007	326,227	156,677
352,377	-1,892	326,097	156,722
353,392	-1,619	325,831	156,871
354,406	-1,868	325,611	156,487
355,421	195,482	1323,469	1380,356
356,435	159,802	1444,824	1380,159
