DTS Sentinel unit serial number:	SN410029Multiplexer serial number:	ORYXHardware model number:	OX2-SRSoftware version number:	ORYX F/W v4,00 Oryx Data Collector v3.7.2.0data status	okinstallation	B6 Nyhavnadifferential loss correction	single-endedforward channel	channel 2reverse channel	N/Adate	2023/12/07time	21:05:08forward acquisition time	300,00reverse acquisition time	0,00gamma	499,1914k internal	0,3165k external	0,3165temperature offset calibration	1,0000default loss term (dB/km)	0,3820temperature slope calibration	1,0000multiplexer offset coefficient	1,0000multiplexer slope coefficient	1,0000fibre end	0,00T internal ref (°C)	13,75T ext. ref 1 (°C)	-3,15T ext. ref 2 (°C)	-3,15length (m)	temperature (°C)	Stokes	anti-Stokes-744,400	-200,000	0,004	0,032
-743,385	15,380	-0,348	-0,200
-742,371	13,241	0,177	0,101
-741,356	-155,556	-0,323	0,015
-740,342	46,985	0,044	-0,030
-739,327	-164,989	-0,308	-0,010
-738,312	-48,501	0,147	0,052
-737,298	-193,635	-0,279	-0,002
-736,283	800,000	0,057	0,142
-735,269	-125,864	-0,131	-0,014
-734,254	-136,074	0,173	0,015
-733,239	-73,730	-0,493	-0,131
-732,225	11,621	0,193	0,108
-731,210	132,912	-0,068	0,065
-730,196	103,409	0,100	-0,087
-729,181	-135,325	-0,225	-0,020
-728,167	-200,000	0,000	-0,041
-727,152	800,000	-0,018	-0,047
-726,137	91,093	-0,037	-0,030
-725,123	-200,000	0,028	-0,125
-724,108	418,704	-0,069	-0,109
-723,094	-112,420	-0,137	-0,020
-722,079	-200,000	0,018	-0,136
-721,064	800,000	0,013	0,026
-720,050	149,662	-0,060	0,059
-719,035	-66,558	-0,011	0,003
-718,021	800,000	-0,028	0,063
-717,006	69,329	-0,076	0,057
-715,991	104,729	0,076	-0,066
-714,977	800,000	0,024	-0,052
-713,962	-200,000	-0,026	-0,119
-712,948	-200,000	-0,026	0,122
-711,933	433,196	0,062	0,099
-710,918	-200,000	0,024	-0,133
-709,904	168,264	-0,048	0,051
-708,889	-200,000	-0,005	-0,128
-707,875	104,791	-0,093	-0,080
-706,860	-119,099	-0,130	0,017
-705,845	104,977	0,064	-0,055
-704,831	741,905	0,076	0,150
-703,816	-200,000	-0,011	0,098
-702,802	-122,679	0,042	0,005
-701,787	38,229	-0,100	-0,066
-700,772	22,935	-0,126	0,076
-699,758	-200,000	0,029	-0,103
-698,743	217,873	-0,018	0,021
-697,729	-200,000	-0,004	0,061
-696,714	800,000	0,025	-0,077
-695,699	-67,614	-0,117	0,033
-694,685	-63,738	0,064	0,019
-693,670	84,020	-0,096	-0,077
-692,656	312,188	0,064	-0,088
-691,641	-143,897	0,044	-0,003
-690,627	800,000	-0,014	0,034
-689,612	500,971	0,035	-0,059
-688,597	81,369	-0,140	0,111
-687,583	413,685	0,055	-0,086
-686,568	4,071	0,050	0,027
-685,554	501,905	-0,033	0,056
-684,539	-111,168	0,106	0,016
-683,524	211,050	0,063	-0,073
-682,510	62,021	-0,041	-0,030
-681,495	-193,454	0,019	0,000
-680,481	0,172	0,111	-0,058
-679,466	179,887	0,080	-0,087
-678,451	267,294	-0,054	-0,070
-677,437	-17,629	0,057	-0,026
-676,422	-32,473	0,036	-0,015
-675,408	332,553	-0,029	-0,041
-674,393	207,044	-0,059	0,067
-673,378	-200,000	-0,016	-0,080
-672,364	256,042	-0,022	0,028
-671,349	-20,780	0,031	-0,014
-670,335	66,110	0,076	0,057
-669,320	800,000	0,026	0,060
-668,305	-200,000	-0,009	0,160
-667,291	-200,000	-0,013	0,057
-666,276	-57,793	-0,089	-0,028
-665,262	52,527	-0,091	-0,063
-664,247	35,683	-0,110	-0,070
-663,232	-12,796	-0,027	-0,013
-662,218	328,126	-0,059	0,083
-661,203	568,369	-0,031	0,055
-660,189	191,709	0,053	0,059
-659,174	74,320	-0,042	0,032
-658,159	-187,276	-0,070	0,001
-657,145	262,591	-0,057	0,072
-656,130	-19,004	-0,102	0,046
-655,116	139,409	0,062	0,060
-654,101	244,052	0,054	-0,066
-653,086	494,105	0,007	0,012
-652,072	-200,000	0,011	0,037
-651,057	266,322	-0,067	-0,086
-650,043	593,687	-0,068	-0,123
-649,028	-200,000	-0,025	0,141
-648,014	97,636	0,122	-0,103
-646,999	265,617	-0,112	-0,143
-645,984	-200,000	0,029	0,113
-644,970	-174,118	-0,067	0,001
-643,955	800,000	0,037	-0,111
-642,941	800,000	-0,038	0,081
-641,926	10,273	-0,010	0,006
-640,911	282,566	0,091	0,119
-639,897	-200,000	-0,010	0,070
-638,882	251,741	0,066	0,083
-637,868	800,000	-0,050	0,104
-636,853	65,798	-0,128	0,095
-635,838	542,364	0,059	-0,103
-634,824	40,832	0,050	0,033
-633,809	59,882	0,052	-0,037
-632,795	-98,146	-0,113	-0,021
-631,780	38,911	0,078	0,051
-630,765	800,000	-0,048	-0,139
-629,751	-200,000	-0,012	-0,082
-628,736	800,000	0,022	-0,051
-627,722	119,556	0,094	0,085
-626,707	1,936	-0,069	0,036
-625,692	219,964	0,085	-0,100
-624,678	-72,897	0,080	0,021
-623,663	-120,251	0,054	-0,007
-622,649	45,159	-0,081	-0,054
-621,634	-87,007	-0,058	0,013
-620,619	313,417	-0,012	0,016
-619,605	399,720	-0,045	0,069
-618,590	-10,337	0,150	-0,072
-617,576	112,879	-0,043	-0,038
-616,561	23,135	-0,065	0,039
-615,546	346,583	-0,008	-0,012
-614,532	-160,169	0,056	0,002
-613,517	-200,000	0,014	0,099
-612,503	307,222	0,089	0,122
-611,488	-8,029	0,107	0,052
-610,474	800,000	0,064	0,151
-609,459	-77,763	-0,154	0,039
-608,444	-67,743	0,062	-0,018
-607,430	-64,394	-0,123	-0,036
-606,415	16,856	-0,156	-0,090
-605,401	800,000	0,054	0,130
-604,386	-200,000	-0,011	0,111
-603,371	-27,641	0,157	0,066
-602,357	-200,000	-0,003	-0,047
-601,342	-200,000	0,002	0,064
-600,328	100,454	-0,092	-0,078
-599,313	182,651	0,079	-0,085
-598,298	125,521	0,065	0,060
-597,284	68,355	-0,103	0,077
-596,269	10,350	-0,099	0,055
-595,255	220,223	-0,075	0,088
-594,240	-200,000	-0,029	-0,106
-593,225	-34,767	-0,137	-0,055
-592,211	-200,000	-0,010	0,035
-591,196	60,036	-0,117	-0,085
-590,182	-200,000	0,029	0,155
-589,167	-94,098	0,104	-0,021
-588,152	-46,091	0,050	-0,018
-587,138	800,000	0,016	-0,037
-586,123	172,010	-0,104	-0,110
-585,109	275,224	0,045	0,059
-584,094	-159,934	-0,162	-0,006
-583,079	-111,764	-0,264	0,039
-582,065	-143,106	0,103	0,007
-581,050	358,351	-0,043	-0,063
-580,036	-50,883	-0,172	0,059
-579,021	44,632	-0,028	-0,019
-578,006	800,000	-0,022	-0,047
-576,992	495,872	0,076	0,127
-575,977	-129,064	0,142	0,014
-574,963	-104,040	0,052	0,009
-573,948	-3,239	0,051	0,026
-572,934	258,862	-0,017	0,022
-571,919	800,000	-0,030	-0,075
-570,904	241,220	0,059	-0,072
-569,890	-103,506	0,061	-0,010
-568,875	367,729	0,067	-0,100
-567,861	-200,000	0,005	0,032
-566,846	-99,430	-0,029	-0,005
-565,831	112,671	-0,021	-0,018
-564,817	-200,000	0,002	-0,013
-563,802	6,127	-0,019	-0,010
-562,788	800,000	-0,022	-0,046
-561,773	567,362	-0,027	0,047
-560,758	-17,720	-0,087	-0,040
-559,744	800,000	-0,026	-0,055
-558,729	26,884	-0,145	-0,089
-557,715	-44,730	-0,074	0,027
-556,700	800,000	-0,037	-0,101
-555,685	417,649	0,051	0,080
-554,671	53,334	0,088	0,062
-553,656	63,646	-0,029	0,021
-552,642	-42,868	0,053	0,020
-551,627	125,970	-0,070	0,065
-550,612	-45,023	-0,100	-0,036
-549,598	356,089	-0,065	-0,094
-548,583	800,000	0,038	-0,104
-547,569	795,721	0,037	-0,074
-546,554	-47,611	-0,020	0,007
-545,539	84,358	0,006	0,005
-544,525	24,230	0,099	-0,060
-543,510	15,801	-0,116	-0,066
-542,496	142,671	0,046	0,045
-541,481	-110,906	-0,128	0,019
-540,466	-58,154	-0,085	-0,027
-539,452	33,014	-0,033	-0,021
-538,437	800,000	0,039	0,102
-537,423	-88,011	0,045	0,010
-536,408	11,612	-0,056	0,031
-535,393	-141,841	0,131	0,009
-534,379	-200,000	0,005	-0,128
-533,364	800,000	0,036	-0,097
-532,350	729,278	-0,021	-0,041
-531,335	185,879	-0,082	0,089
-530,321	-6,593	0,038	0,019
-529,306	189,136	0,031	0,034
-528,291	545,811	0,033	-0,058
-527,277	60,362	-0,052	-0,038
-526,262	-15,157	-0,044	0,021
-525,248	-3,338	-0,033	-0,017
-524,233	-128,885	0,187	-0,019
-523,218	-90,130	-0,132	0,028
-522,204	-200,000	0,003	0,092
-521,189	50,895	-0,172	0,119
-520,175	202,674	-0,025	-0,028
-519,160	407,293	-0,026	-0,040
-518,145	800,000	-0,030	0,072
-517,131	800,000	0,062	-0,147
-516,116	-181,409	0,118	0,002
-515,102	99,321	-0,056	0,047
-514,087	-135,749	0,046	0,004
-513,072	-200,000	0,012	0,107
-512,058	-108,741	0,081	-0,013
-511,043	73,803	-0,021	-0,016
-510,029	-74,981	0,062	-0,016
-509,014	800,000	-0,044	0,103
-507,999	-200,000	0,007	0,152
-506,985	101,419	-0,019	-0,016
-505,970	-0,526	0,047	0,024
-504,956	800,000	-0,055	-0,145
-503,941	-52,161	0,093	-0,031
-502,926	329,723	-0,038	0,054
-501,912	-200,000	0,005	0,092
-500,897	800,000	-0,022	0,067
-499,883	-177,289	-0,127	-0,002
-498,868	363,967	-0,085	-0,125
-497,853	171,496	-0,046	-0,048
-496,839	-126,157	0,110	-0,012
-495,824	189,017	-0,013	0,014
-494,810	-200,000	-0,010	0,137
-493,795	15,334	0,159	-0,090
-492,781	800,000	0,021	0,054
-491,766	-61,689	-0,105	-0,032
-490,751	-12,694	0,068	-0,032
-489,737	800,000	0,042	0,092
-488,722	-35,361	0,053	0,021
-487,708	800,000	0,030	0,091
-486,693	308,911	0,026	0,036
-485,678	74,356	-0,091	-0,070
-484,664	-135,463	-0,126	-0,011
-483,649	-200,000	-0,019	-0,098
-482,635	800,000	0,054	-0,162
-481,620	151,627	0,128	0,127
-480,605	800,000	-0,032	0,087
-479,591	-12,586	0,037	-0,018
-478,576	-200,000	0,011	0,081
-477,562	-173,907	-0,145	0,003
-476,547	-60,889	0,050	0,015
-475,532	-26,033	0,113	0,048
-474,518	-200,000	0,003	0,188
-473,503	800,000	0,028	0,067
-472,489	245,020	-0,085	0,105
-471,474	217,089	0,048	0,056
-470,459	-149,353	0,055	0,003
-469,445	-200,000	-0,037	-0,177
-468,430	152,473	-0,157	-0,156
-467,416	130,485	-0,093	0,087
-466,401	213,109	0,064	0,073
-465,386	-99,368	-0,110	0,020
-464,372	335,647	-0,002	0,003
-463,357	800,000	-0,046	-0,105
-462,343	-200,000	0,046	-0,205
-461,328	338,314	-0,064	-0,090
-460,313	307,015	0,051	-0,069
-459,299	136,937	-0,043	0,041
-458,284	800,000	-0,009	-0,023
-457,270	-111,446	0,088	-0,013
-456,255	50,935	0,034	0,023
-455,241	-200,000	-0,011	-0,087
-454,226	-54,082	0,039	0,013
-453,211	236,798	0,053	0,065
-452,197	-72,967	0,098	0,026
-451,182	254,716	-0,068	0,085
-450,168	800,000	-0,037	0,079
-449,153	-200,000	0,005	0,029
-448,138	-200,000	0,023	0,077
-447,124	178,186	-0,085	0,091
-446,109	385,823	0,012	0,018
-445,095	-200,000	-0,004	-0,100
-444,080	16,124	0,164	-0,094
-443,065	-38,782	0,064	-0,025
-442,051	472,219	-0,064	-0,105
-441,036	800,000	-0,016	0,039
-440,022	-200,000	0,033	-0,114
-439,007	176,506	0,076	-0,081
-437,992	41,148	-0,053	-0,035
-436,978	800,000	-0,024	0,065
-435,963	-62,453	0,069	-0,021
-434,949	-200,000	-0,025	0,109
-433,934	800,000	0,013	-0,028
-432,919	579,633	-0,016	0,029
-431,905	800,000	0,014	-0,043
-430,890	-141,449	-0,033	0,002
-429,876	-200,000	0,012	0,052
-428,861	106,732	0,067	0,058
-427,846	800,000	-0,033	-0,099
-426,832	-200,000	-0,003	-0,049
-425,817	330,397	-0,066	-0,092
-424,803	394,049	0,065	-0,098
-423,788	-53,384	0,027	0,009
-422,773	-73,775	0,097	-0,025
-421,759	-200,000	0,019	-0,088
-420,744	800,000	-0,006	-0,014
-419,730	195,085	0,091	0,101
-418,715	-200,000	-0,027	0,101
-417,701	227,231	0,033	-0,038
-416,686	800,000	-0,026	0,069
-415,671	-44,331	0,049	-0,018
-414,657	-200,000	-0,010	0,100
-413,642	-200,000	-0,014	-0,093
-412,628	359,329	-0,094	0,137
-411,613	-40,680	-0,136	-0,051
-410,598	-200,000	-0,016	-0,079
-409,584	-200,000	0,020	0,215
-408,569	-200,000	0,025	0,084
-407,555	91,148	0,152	-0,124
-406,540	-200,000	-0,019	-0,089
-405,525	-29,553	0,119	0,049
-404,511	-68,633	-0,108	0,030
-403,496	119,583	-0,066	0,060
-402,482	111,733	-0,076	-0,067
-401,467	20,075	0,035	0,020
-400,452	-200,000	0,027	0,128
-399,438	-104,857	0,180	-0,030
-398,423	-70,078	-0,066	-0,018
-397,409	331,150	0,042	0,059
-396,394	22,372	-0,083	0,049
-395,379	172,414	-0,029	-0,030
-394,365	114,035	-0,094	0,083
-393,350	130,870	0,127	-0,119
-392,336	632,231	0,074	0,137
-391,321	-66,355	0,116	-0,033
-390,306	-37,736	-0,220	0,085
-389,292	70,767	0,076	-0,057
-388,277	124,625	-0,013	-0,012
-387,263	86,610	-0,139	0,111
-386,248	459,686	0,057	-0,092
-385,233	179,270	0,067	-0,071
-384,219	-200,000	0,007	-0,147
-383,204	30,071	0,038	0,023
-382,190	-155,705	-0,107	0,005
-381,175	584,271	0,036	-0,064
-380,160	-109,646	0,214	0,032
-379,146	-104,271	-0,108	-0,018
-378,131	-200,000	-0,014	-0,067
-377,117	153,050	0,029	-0,029
-376,102	465,322	0,069	-0,112
-375,088	540,852	0,053	0,092
-374,073	-8,625	-0,041	0,020
-373,058	-200,000	-0,018	-0,084
-372,044	40,336	-0,066	0,043
-371,029	170,199	0,156	0,162
-370,015	373,050	0,039	0,057
-369,000	-200,000	0,009	0,199
-367,985	-200,000	0,001	0,138
-366,971	800,000	-0,022	0,069
-365,956	753,827	-0,021	-0,042
-364,942	-164,855	-0,017	-0,001
-363,927	-122,618	0,047	-0,005
-362,912	198,808	-0,073	0,081
-361,898	800,000	0,027	-0,061
-360,883	-97,793	-0,176	-0,033
-359,869	800,000	0,006	-0,017
-358,854	581,901	0,038	-0,068
-357,839	-200,000	0,004	-0,040
-356,825	20,119	0,071	0,042
-355,810	800,000	-0,039	-0,079
-354,796	-91,735	0,056	-0,011
-353,781	-200,000	0,004	-0,229
-352,766	739,197	-0,072	0,141
-351,752	-200,000	0,021	-0,086
-350,737	-200,000	-0,000	-0,068
-349,723	257,954	0,051	0,064
-348,708	433,045	0,052	-0,081
-347,693	241,459	-0,040	-0,049
-346,679	-200,000	0,029	0,133
-345,664	800,000	-0,055	0,134
-344,650	490,188	-0,008	0,013
-343,635	659,430	0,024	0,045
-342,620	-200,000	0,059	0,202
-341,606	454,505	0,050	0,080
-340,591	-200,000	-0,008	-0,054
-339,577	241,363	-0,093	0,113
-338,562	-157,351	-0,168	-0,007
-337,548	-118,541	-0,109	0,014
-336,533	-200,000	-0,024	0,090
-335,518	659,693	-0,073	0,137
-334,504	-23,083	0,078	-0,034
-333,489	-94,989	0,033	-0,006
-332,475	-119,020	-0,062	-0,008
-331,460	-102,376	-0,040	-0,007
-330,445	800,000	0,067	0,141
-329,431	-20,082	-0,035	0,015
-328,416	-200,000	-0,009	0,081
-327,402	-149,238	-0,043	-0,002
-326,387	800,000	0,020	0,051
-325,372	773,849	-0,071	0,140
-324,358	39,214	-0,051	0,033
-323,343	283,403	-0,042	0,054
-322,329	800,000	0,048	0,131
-321,314	310,115	0,071	0,096
-320,299	115,060	-0,066	0,059
-319,285	131,590	-0,052	-0,048
-318,270	800,000	-0,041	-0,099
-317,256	205,034	0,067	-0,076
-316,241	-0,306	0,090	-0,046
-315,226	-200,000	-0,013	0,085
-314,212	-31,686	-0,044	0,018
-313,197	-200,000	0,002	-0,047
-312,183	-143,392	-0,130	0,009
-311,168	118,064	-0,039	0,034
-310,153	-200,000	0,002	-0,056
-309,139	89,510	0,170	-0,137
-308,124	-65,708	0,194	0,056
-307,110	-200,000	-0,002	0,027
-306,095	-83,784	0,113	-0,026
-305,080	-20,393	-0,121	-0,054
-304,066	353,523	-0,045	-0,064
-303,051	-35,271	-0,136	-0,053
-302,037	-200,000	0,043	-0,175
-301,022	388,149	0,045	-0,068
-300,008	-200,000	0,010	-0,069
-298,993	-25,349	0,035	0,015
-297,978	5,813	0,102	-0,055
-296,964	-33,233	-0,144	-0,058
-295,949	-200,000	0,013	0,087
-294,935	110,659	0,110	-0,096
-293,920	702,233	-0,031	-0,060
-292,905	-26,461	-0,204	0,086
-291,891	84,123	-0,018	-0,015
-290,876	-200,000	-0,007	-0,022
-289,862	83,787	-0,053	0,042
-288,847	28,497	-0,075	-0,045
-287,832	221,977	0,103	-0,119
-286,818	10,755	0,163	0,090
-285,803	324,005	-0,052	-0,072
-284,789	-26,473	-0,112	0,047
-283,774	800,000	0,018	0,040
-282,759	-69,830	-0,117	-0,032
-281,745	153,301	0,122	0,121
-280,730	-151,284	-0,049	0,003
-279,716	149,556	-0,109	0,106
-278,701	70,644	0,177	0,132
-277,686	455,780	0,055	0,089
-276,672	-200,000	0,003	-0,060
-275,657	77,406	-0,033	-0,025
-274,643	800,000	0,033	0,079
-273,628	212,174	-0,074	-0,084
-272,613	101,096	0,060	0,050
-271,599	-200,000	-0,016	0,116
-270,584	632,502	-0,034	0,062
-269,570	-77,496	0,111	0,028
-268,555	-200,000	-0,006	0,126
-267,540	-108,643	-0,046	-0,007
-266,526	29,403	0,105	-0,064
-265,511	58,401	0,072	0,051
-264,497	457,861	-0,083	0,133
-263,482	-66,314	0,164	-0,047
-262,467	258,864	0,039	-0,048
-261,453	-200,000	0,020	-0,109
-260,438	-200,000	0,028	0,093
-259,424	-200,000	0,009	0,038
-258,409	800,000	-0,053	-0,123
-257,395	82,931	0,107	-0,084
-256,380	-200,000	-0,016	0,106
-255,365	36,960	-0,107	-0,068
-254,351	-97,486	0,016	0,003
-253,336	84,741	-0,098	-0,078
-252,322	25,553	-0,052	-0,031
-251,307	800,000	-0,064	-0,173
-250,292	336,880	0,096	-0,135
-249,278	800,000	-0,023	-0,049
-248,263	58,375	0,127	0,090
-247,249	-200,000	0,012	-0,073
-246,234	800,000	0,045	0,108
-245,219	238,144	-0,050	-0,060
-244,205	-108,609	-0,095	-0,015
-243,190	378,959	0,005	0,008
-242,176	-72,405	0,049	-0,013
-241,161	-200,000	-0,010	-0,069
-240,146	-14,337	0,099	0,046
-239,132	84,047	0,045	0,036
-238,117	57,313	0,051	0,036
-237,103	-114,318	-0,146	-0,020
-236,088	800,000	-0,039	-0,093
-235,073	144,197	-0,116	0,111
-234,059	-200,000	0,034	0,120
-233,044	800,000	-0,009	0,024
-232,030	247,761	-0,094	-0,115
-231,015	88,757	0,071	-0,057
-230,000	-137,077	0,132	0,011
-228,986	-63,090	0,086	-0,025
-227,971	45,647	0,155	0,103
-226,957	232,304	0,118	0,139
-225,942	178,965	0,049	0,052
-224,927	88,371	0,121	0,097
-223,913	-111,443	0,069	0,010
-222,898	-131,484	-0,032	0,003
-221,884	429,524	0,080	-0,125
-220,869	-200,000	0,010	0,038
-219,855	380,364	0,038	-0,057
-218,840	794,780	-0,034	0,068
-217,825	284,811	0,125	0,163
-216,811	-200,000	0,022	-0,103
-215,796	448,292	0,033	-0,053
-214,782	-41,988	-0,052	-0,019
-213,767	450,773	0,127	-0,203
-212,752	149,452	-0,050	0,049
-211,738	-38,996	0,111	-0,042
-210,723	-101,261	-0,079	-0,014
-209,709	-60,155	-0,140	0,043
-208,694	213,922	-0,089	0,101
-207,679	-146,833	-0,093	-0,006
-206,665	-200,000	-0,007	0,112
-205,650	800,000	-0,011	0,026
-204,636	-17,863	0,085	0,038
-203,621	670,283	0,044	0,083
-202,606	-159,579	-0,047	0,002
-201,592	-200,000	0,005	-0,097
-200,577	134,287	0,013	0,012
-199,563	44,030	-0,090	0,059
-198,548	-200,000	0,010	0,138
-197,533	52,042	0,112	0,076
-196,519	-152,399	-0,057	-0,003
-195,504	-116,802	-0,042	0,005
-194,490	-200,000	-0,068	-0,221
-193,475	57,767	-0,025	-0,017
-192,460	-73,436	0,145	0,038
-191,446	-200,000	-0,013	-0,134
-190,431	270,659	-0,039	-0,049
-189,417	-200,000	-0,020	-0,112
-188,402	1,079	0,033	0,017
-187,387	-74,490	-0,036	0,009
-186,373	7,179	0,013	-0,007
-185,358	-13,760	-0,040	-0,018
-184,344	-82,968	-0,059	-0,014
-183,329	180,322	0,114	-0,120
-182,315	246,516	0,044	-0,054
-181,300	800,000	0,039	-0,090
-180,285	73,696	0,107	0,081
-179,271	758,513	0,029	-0,057
-178,256	-81,837	0,042	-0,010
-177,242	73,923	-0,089	-0,067
-176,227	-63,239	0,100	-0,030
-175,212	-151,822	-0,029	-0,001
-174,198	-15,419	0,086	-0,039
-173,183	800,000	-0,040	-0,082
-172,169	-200,000	-0,042	-0,198
-171,154	87,095	0,091	-0,072
-170,139	-74,671	-0,098	-0,025
-169,125	-160,766	0,064	0,002
-168,110	-200,000	0,018	0,087
-167,096	-109,548	-0,107	0,016
-166,081	-181,652	-0,159	-0,002
-165,066	800,000	-0,028	-0,066
-164,052	800,000	-0,034	-0,109
-163,037	-11,586	-0,051	0,024
-162,023	-149,894	0,101	-0,006
-161,008	-112,193	-0,113	0,016
-159,993	-200,000	0,033	-0,153
-158,979	-12,595	0,062	0,029
-157,964	653,119	-0,077	-0,143
-156,950	800,000	-0,077	-0,219
-155,935	284,983	0,056	-0,072
-154,920	168,829	-0,074	-0,076
-153,906	-25,897	-0,118	-0,050
-152,891	281,737	0,109	-0,141
-151,877	800,000	-0,014	-0,029
-150,862	-200,000	-0,005	0,051
-149,847	-96,665	-0,139	-0,026
-148,833	459,903	-0,013	-0,022
-147,818	599,926	0,032	0,056
-146,804	561,169	0,029	0,050
-145,789	-1,451	-0,165	0,083
-144,775	800,000	0,028	0,077
-143,760	-200,000	-0,011	0,140
-142,745	497,676	-0,090	0,149
-141,731	-91,559	0,074	0,015
-140,716	226,567	0,074	-0,087
-139,702	77,133	0,139	0,106
-138,687	102,726	0,094	-0,079
-137,672	-200,000	-0,014	0,063
-136,658	25,588	-0,124	-0,074
-135,643	0,308	0,048	-0,025
-134,629	800,000	-0,054	-0,160
-133,614	-200,000	-0,025	0,175
-132,599	-131,297	0,115	0,011
-131,585	-105,990	0,036	-0,006
-130,570	280,815	0,046	-0,060
-129,556	95,311	-0,035	0,029
-128,541	-200,000	0,012	-0,113
-127,526	800,000	0,012	0,035
-126,512	-17,057	0,076	0,034
-125,497	-155,317	0,021	-0,001
-124,483	-126,997	-0,061	-0,006
-123,468	195,378	-0,039	0,042
-122,453	175,500	-0,105	-0,109
-121,439	-62,000	0,064	-0,019
-120,424	596,707	-0,037	0,066
-119,410	800,000	-0,032	0,070
-118,395	800,000	-0,007	-0,016
-117,380	-200,000	-0,017	0,064
-116,366	113,804	-0,107	-0,093
-115,351	-105,723	-0,231	-0,037
-114,337	-15,749	0,199	-0,091
-113,322	429,784	-0,064	-0,099
-112,307	-31,200	0,090	-0,036
-111,293	123,331	0,070	0,063
-110,278	-200,000	0,033	0,151
-109,264	-15,675	-0,130	-0,059
-108,249	-65,000	0,124	0,036
-107,234	130,745	0,030	0,027
-106,220	476,615	-0,042	0,068
-105,205	604,645	-0,038	0,068
-104,191	-200,000	0,011	0,134
-103,176	784,848	-0,040	0,080
-102,162	-200,000	0,020	-0,071
-101,147	800,000	0,047	-0,135
-100,132	-84,721	-0,117	-0,026
-99,118	136,801	0,086	0,080
-98,103	800,000	-0,008	-0,017
-97,089	-200,000	0,034	0,141
-96,074	309,302	0,053	0,071
-95,059	800,000	0,032	0,076
-94,045	127,919	-0,100	-0,091
-93,030	800,000	0,027	0,075
-92,016	89,692	0,070	-0,056
-91,001	583,953	0,041	0,073
-89,986	269,102	-0,022	-0,028
-88,972	-200,000	0,004	0,109
-87,957	114,818	0,081	0,070
-86,943	367,303	0,014	-0,020
-85,928	-200,000	-0,056	0,178
-84,913	-66,897	-0,148	-0,042
-83,899	-97,714	-0,025	-0,005
-82,884	-189,934	0,082	-0,001
-81,870	-25,034	-0,014	-0,006
-80,855	217,659	0,051	-0,058
-79,840	304,173	0,072	-0,095
-78,826	-78,578	-0,115	0,028
-77,811	-102,795	-0,060	-0,010
-76,797	12,217	0,087	0,048
-75,782	800,000	0,007	-0,019
-74,767	-200,000	0,008	-0,042
-73,753	-66,853	0,107	-0,030
-72,738	-200,000	0,056	0,218
-71,724	-50,947	0,092	-0,031
-70,709	-6,813	0,101	-0,049
-69,694	-69,009	-0,040	-0,011
-68,680	83,691	0,029	0,023
-67,665	-184,828	0,119	0,001
-66,651	-200,000	0,006	-0,024
-65,636	147,503	-0,093	0,090
-64,622	2,294	-0,125	-0,064
-63,607	9,119	0,080	0,043
-62,592	208,174	-0,043	-0,048
-61,578	-36,343	0,015	0,006
-60,563	-200,000	-0,018	-0,063
-59,549	49,149	0,022	-0,015
-58,534	24,470	-2,285	-1,350
-57,519	-200,000	-0,055	-0,788
-56,505	-200,000	-1,363	-4,986
-55,490	98,949	0,842	0,696
-54,476	800,000	5,384	12,221
-53,461	-200,000	18,597	306,702
-52,446	800,000	737,919	2275,592
-51,432	536,798	1650,885	2817,735
-50,417	108,407	1635,747	1397,528
-49,403	71,972	1286,677	957,442
-48,388	29,831	1027,637	625,309
-47,373	19,789	990,005	569,308
-46,359	17,454	977,595	554,502
-45,344	14,115	973,906	541,467
-44,330	14,466	972,446	541,784
-43,315	13,782	970,705	538,560
-42,300	13,758	969,554	537,820
-41,286	13,763	968,549	537,258
-40,271	13,754	967,610	536,687
-39,257	13,848	966,655	536,443
-38,242	13,746	965,901	535,671
-37,227	13,770	964,918	535,182
-36,213	13,807	964,111	534,834
-35,198	13,747	963,289	534,162
-34,184	13,814	962,495	533,916
-33,169	13,714	961,637	533,096
-32,154	13,740	960,737	532,660
-31,140	13,812	959,640	532,264
-30,125	13,837	958,919	531,923
-29,111	13,784	958,230	531,348
-28,096	13,804	957,499	530,988
-27,082	13,805	956,827	530,594
-26,067	13,753	956,214	530,069
-25,052	13,852	955,264	529,838
-24,038	13,828	954,642	529,396
-23,023	13,717	954,165	528,753
-22,009	13,787	953,414	528,541
-20,994	13,757	953,009	528,200
-19,979	13,763	952,280	527,794
-18,965	13,729	951,483	527,222
-17,950	13,772	950,935	527,035
-16,936	13,708	950,366	526,495
-15,921	13,716	949,675	526,116
-14,906	13,713	948,804	525,603
-13,892	13,732	948,199	525,308
-12,877	13,687	947,620	524,822
-11,863	13,682	947,111	524,504
-10,848	13,674	946,221	523,965
-9,833	13,775	946,118	524,207
-8,819	13,733	945,207	523,549
-7,804	13,666	944,540	522,947
-6,790	13,645	944,202	522,671
-5,775	13,739	943,539	522,583
-4,760	13,716	943,042	522,213
-3,746	13,714	942,314	521,782
-2,731	13,521	941,622	520,768
-1,717	13,512	940,999	520,374
-0,702	13,522	940,277	519,985
0,313	13,329	939,612	519,795
1,327	16,759	937,428	529,342
2,342	25,904	788,473	469,259
3,356	21,995	443,621	258,226
4,371	-7,478	296,493	143,045
5,386	-11,308	278,282	130,608
6,400	-12,555	272,526	126,734
7,415	-12,606	270,226	125,606
8,429	-12,680	268,767	124,849
9,444	-12,722	267,801	124,350
10,459	-12,901	267,130	123,864
11,473	-12,974	266,555	123,520
12,488	-12,964	266,082	123,299
13,502	-13,042	265,421	122,911
14,517	-13,118	265,181	122,720
15,531	-12,993	264,623	122,564
16,546	-12,967	264,291	122,423
17,561	-13,026	263,876	122,166
18,575	-12,755	263,528	122,238
19,590	-12,922	263,114	121,885
20,604	-12,972	262,908	121,733
21,619	-13,034	262,578	121,515
22,634	-13,031	262,237	121,349
23,648	-13,038	261,943	121,196
24,663	-13,043	261,597	121,020
25,677	-13,059	261,487	120,944
26,692	-13,032	261,324	120,883
27,707	-12,959	260,760	120,675
28,721	-13,219	260,661	120,388
29,736	-13,020	260,131	120,309
30,750	-13,112	260,067	120,187
31,765	-13,054	259,748	120,080
32,780	-13,077	259,635	119,997
33,794	-13,183	259,413	119,789
34,809	-13,013	259,049	119,762
35,823	-13,083	258,767	119,558
36,838	-13,016	258,451	119,460
37,853	-13,201	258,502	119,311
38,867	-13,156	258,094	119,151
39,882	-13,047	257,846	119,121
40,896	-13,030	257,661	119,041
41,911	-12,988	257,328	118,913
42,926	-13,045	257,218	118,802
43,940	-13,263	256,864	118,437
44,955	-13,027	256,582	118,502
45,969	-13,111	256,426	118,347
46,984	-13,326	256,142	118,017
47,999	-13,475	255,982	117,803
49,013	-13,613	255,633	117,512
50,028	-13,507	255,318	117,448
51,042	-13,769	255,113	117,116
52,057	-13,863	254,722	116,845
53,071	-13,806	254,705	116,876
54,086	-13,633	254,398	116,875
55,101	-13,583	254,316	116,870
56,115	-13,372	254,260	117,016
57,130	-13,068	254,114	117,202
58,144	-12,623	253,919	117,485
59,159	-12,857	253,677	117,162
60,174	-12,764	253,374	117,091
61,188	-12,949	253,119	116,804
62,203	-12,774	253,060	116,916
63,217	-12,901	252,790	116,672
64,232	-12,784	252,414	116,589
65,247	-12,860	252,377	116,496
66,261	-12,948	252,081	116,273
67,276	-13,210	251,879	115,945
68,290	-13,242	251,626	115,791
69,305	-13,577	251,375	115,379
70,320	-13,362	251,161	115,454
71,334	-12,947	250,932	115,692
72,349	-12,877	250,772	115,669
73,363	-12,801	250,748	115,712
74,378	-12,859	250,431	115,506
75,393	-12,895	250,243	115,378
76,407	-13,075	250,042	115,122
77,422	-13,107	249,719	114,936
78,436	-13,032	249,645	114,955
79,451	-13,068	249,434	114,818
80,466	-13,109	249,150	114,642
81,480	-13,242	248,953	114,428
82,495	-13,247	248,720	114,307
83,509	-13,069	248,666	114,423
84,524	-13,283	248,471	114,141
85,539	-13,515	248,216	113,819
86,553	-13,413	247,847	113,726
87,568	-13,331	247,794	113,760
88,582	-13,071	247,558	113,860
89,597	-13,326	247,554	113,633
90,611	-13,064	247,122	113,645
91,626	-13,100	247,046	113,569
92,641	-12,959	246,932	113,626
93,655	-13,130	246,758	113,392
94,670	-13,303	246,593	113,162
95,684	-13,086	246,270	113,184
96,699	-13,108	246,093	113,074
97,714	-12,928	245,750	113,057
98,728	-13,171	245,744	112,842
99,743	-13,413	245,512	112,523
100,757	-13,366	245,287	112,449
101,772	-13,187	245,079	112,492
102,787	-13,251	244,931	112,362
103,801	-13,181	244,853	112,374
104,816	-12,943	244,364	112,337
105,830	-12,829	244,435	112,454
106,845	-13,061	244,242	112,163
107,860	-12,999	244,099	112,138
108,874	-12,990	243,804	112,000
109,889	-13,086	243,613	111,823
110,903	-13,077	243,371	111,710
111,918	-13,234	243,280	111,529
112,933	-13,260	243,154	111,439
113,947	-12,988	242,877	111,526
114,962	-13,149	242,782	111,340
115,976	-12,964	242,461	111,335
116,991	-13,198	242,307	111,062
118,006	-13,184	242,236	111,032
119,020	-13,079	242,097	111,044
120,035	-13,136	241,994	110,941
121,049	-13,128	241,850	110,871
122,064	-12,867	241,575	110,948
123,079	-13,082	241,341	110,655
124,093	-13,123	241,236	110,564
125,108	-13,260	240,824	110,253
126,122	-13,445	240,552	109,968
127,137	-13,689	240,436	109,707
128,151	-13,389	240,368	109,910
129,166	-13,161	240,011	109,922
130,181	-13,283	239,924	109,773
131,195	-13,181	239,677	109,733
132,210	-13,238	239,534	109,612
133,224	-13,028	239,554	109,782
134,239	-13,182	239,430	109,590
135,254	-13,086	239,198	109,552
136,268	-13,068	238,962	109,448
137,283	-13,452	238,620	108,973
138,297	-13,474	238,348	108,821
139,312	-13,368	238,148	108,805
140,327	-13,184	238,106	108,924
141,341	-12,690	238,168	109,340
142,356	-12,805	237,898	109,114
143,370	-12,803	237,746	109,036
144,385	-12,810	237,650	108,977
145,400	-12,827	237,430	108,853
146,414	-12,735	237,398	108,903
147,429	-12,763	236,995	108,686
148,443	-12,851	236,871	108,548
149,458	-12,805	236,636	108,468
150,473	-13,016	236,484	108,220
151,487	-12,723	236,219	108,323
152,502	-12,609	236,214	108,402
153,516	-12,606	235,899	108,250
154,531	-12,839	235,831	108,023
155,546	-12,769	235,625	107,975
156,560	-12,882	235,616	107,872
157,575	-12,991	235,260	107,613
158,589	-12,948	235,118	107,572
159,604	-12,915	235,055	107,560
160,619	-12,668	234,882	107,667
161,633	-12,804	234,742	107,485
162,648	-12,702	234,535	107,462
163,662	-12,890	234,322	107,206
164,677	-12,963	234,136	107,054
165,692	-12,888	234,065	107,071
166,706	-12,571	233,851	107,214
167,721	-12,638	233,745	107,102
168,735	-12,476	233,653	107,178
169,750	-12,647	233,406	106,921
170,764	-12,750	233,314	106,788
171,779	-12,791	233,249	106,716
172,794	-12,588	233,017	106,760
173,808	-12,748	232,643	106,454
174,823	-13,314	232,333	105,859
175,837	-13,405	232,307	105,767
176,852	-13,156	232,352	105,973
177,867	-12,566	232,086	106,303
178,881	-12,589	232,003	106,238
179,896	-12,800	231,900	106,016
180,910	-12,756	231,681	105,941
181,925	-12,884	231,655	105,820
182,940	-12,567	231,258	105,876
183,954	-12,768	231,295	105,727
184,969	-12,511	231,214	105,881
185,983	-12,580	230,951	105,697
186,998	-12,476	230,852	105,723
188,013	-12,863	230,715	105,351
189,027	-12,578	230,440	105,436
190,042	-12,689	230,227	105,244
191,056	-12,531	230,137	105,315
192,071	-12,546	229,985	105,225
193,086	-12,619	229,798	105,074
194,100	-12,595	229,591	104,988
195,115	-13,021	229,226	104,484
196,129	-12,851	229,206	104,596
197,144	-7,417	231,131	109,684
198,159	-1,681	232,905	114,991
199,173	1,801	233,790	118,136
200,188	2,326	233,830	118,555
201,202	2,113	233,608	118,266
202,217	2,203	233,427	118,234
203,232	2,300	233,410	118,291
204,246	2,408	233,254	118,285
205,261	2,404	233,044	118,164
206,275	2,798	232,946	118,411
207,290	2,816	232,771	118,325
208,304	2,661	232,677	118,146
209,319	2,592	232,537	118,011
210,334	2,514	232,373	117,857
211,348	2,292	232,128	117,551
212,363	2,215	231,725	117,277
213,377	1,873	231,562	116,920
214,392	1,897	231,478	116,886
215,407	2,256	231,361	117,093
216,421	2,280	231,291	117,065
217,436	1,697	231,140	116,530
218,450	1,779	230,981	116,502
219,465	1,840	230,739	116,417
220,480	1,725	230,674	116,285
221,494	1,983	230,320	116,294
222,509	1,977	230,299	116,268
223,523	2,294	230,265	116,484
224,538	2,004	230,076	116,156
225,553	1,794	229,925	115,909
226,567	2,024	229,777	116,000
227,582	2,308	229,614	116,124
228,596	2,238	229,564	116,035
229,611	2,211	229,275	115,858
230,626	1,947	229,021	115,518
231,640	1,838	228,912	115,370
232,655	2,297	228,800	115,652
233,669	2,443	228,690	115,698
234,684	2,535	228,597	115,710
235,699	2,425	228,478	115,556
236,713	2,074	228,282	115,180
237,728	2,122	228,043	115,085
238,742	1,885	227,763	114,754
239,757	2,065	227,800	114,899
240,772	2,045	227,523	114,734
241,786	1,895	227,456	114,577
242,801	2,113	227,443	114,725
243,815	2,633	227,155	114,962
244,830	2,535	227,155	114,878
245,844	2,202	226,817	114,445
246,859	2,040	226,749	114,279
247,874	2,324	226,605	114,410
248,888	2,276	226,494	114,308
249,903	1,991	226,464	114,068
250,917	2,043	226,178	113,953
251,932	1,878	226,045	113,751
252,947	1,779	225,956	113,623
253,961	1,837	225,743	113,548
254,976	1,687	225,527	113,318
255,990	2,229	225,493	113,696
257,005	2,220	225,450	113,658
258,020	1,996	225,212	113,360
259,034	2,243	225,023	113,439
260,049	2,407	224,945	113,512
261,063	2,226	224,805	113,296
262,078	2,618	224,585	113,467
263,093	2,544	224,690	113,456
264,107	2,466	224,437	113,259
265,122	2,467	224,217	113,139
266,136	2,418	224,290	113,129
267,151	2,648	223,951	113,119
268,166	2,429	223,656	112,798
269,180	1,842	223,401	112,224
270,195	1,878	223,459	112,270
271,209	1,866	223,260	112,151
272,224	2,275	223,079	112,353
273,239	1,953	223,128	112,129
274,253	1,908	222,850	111,946
275,268	1,811	222,672	111,775
276,282	1,770	222,403	111,600
277,297	1,656	222,406	111,507
278,312	2,085	222,194	111,707
279,326	2,265	222,047	111,755
280,341	2,149	221,990	111,632
281,355	2,362	221,845	111,706
282,370	2,219	221,653	111,493
283,384	2,032	221,385	111,212
284,399	1,805	221,389	111,037
285,414	1,922	221,104	110,971
286,428	2,096	221,114	111,093
287,443	2,380	221,017	111,242
288,457	2,319	220,818	111,087
289,472	1,941	220,833	110,808
290,487	1,858	220,431	110,536
291,501	1,631	220,249	110,270
292,516	1,627	220,157	110,211
293,530	1,689	220,054	110,195
294,545	1,716	219,975	110,165
295,560	1,844	219,849	110,185
296,574	2,162	219,527	110,245
297,589	1,983	219,519	110,101
298,603	2,105	219,439	110,140
299,618	2,061	219,260	110,008
300,633	2,164	219,201	110,044
301,647	2,367	219,032	110,095
302,662	2,301	218,943	109,994
303,676	2,202	218,971	109,926
304,691	2,249	218,740	109,834
305,706	2,191	218,510	109,667
306,720	2,331	218,398	109,702
307,735	2,091	218,064	109,352
308,749	1,956	218,006	109,216
309,764	2,101	217,902	109,258
310,779	2,265	217,727	109,278
311,793	2,343	217,615	109,268
312,808	2,331	217,502	109,194
313,822	2,303	217,286	109,055
314,837	2,097	217,262	108,886
315,852	2,070	217,044	108,747
316,866	2,081	216,881	108,664
317,881	2,403	216,721	108,804
318,895	2,248	216,624	108,635
319,910	2,052	216,416	108,381
320,925	1,814	216,211	108,099
321,939	1,637	216,022	107,869
322,954	1,690	216,040	107,906
323,968	2,111	215,922	108,138
324,983	2,162	215,942	108,174
325,997	2,422	215,683	108,220
327,012	2,473	215,697	108,253
328,027	2,309	215,584	108,070
329,041	2,776	215,332	108,265
330,056	2,604	215,249	108,093
331,070	1,978	215,052	107,540
332,085	2,014	214,731	107,395
333,100	2,121	214,672	107,432
334,114	2,269	214,601	107,492
335,129	2,305	214,433	107,423
336,143	1,962	214,327	107,118
337,158	1,887	214,142	106,963
338,173	2,259	214,139	107,215
339,187	1,976	213,764	106,818
340,202	1,518	213,710	106,459
341,216	2,000	213,482	106,675
342,231	2,431	213,466	106,960
343,246	2,404	213,433	106,915
344,260	2,183	213,264	106,666
345,275	2,370	213,101	106,707
346,289	2,229	213,122	106,608
347,304	2,505	212,737	106,600
348,319	2,263	212,614	106,359
349,333	1,965	212,560	106,114
350,348	2,218	212,366	106,185
351,362	2,383	212,433	106,324
352,377	2,408	212,222	106,226
353,392	2,402	212,024	106,113
354,406	2,302	212,002	106,024
355,421	196,467	1314,125	1390,180
356,435	157,122	1448,348	1390,127
