DTS Sentinel unit serial number:	SN410029Multiplexer serial number:	ORYXHardware model number:	OX2-SRSoftware version number:	ORYX F/W v4,00 Oryx Data Collector v3.7.2.0data status	okinstallation	B6 Nyhavnadifferential loss correction	single-endedforward channel	channel 2reverse channel	N/Adate	2023/12/08time	03:45:08forward acquisition time	300,00reverse acquisition time	0,00gamma	499,1914k internal	0,3165k external	0,3165temperature offset calibration	1,0000default loss term (dB/km)	0,3820temperature slope calibration	1,0000multiplexer offset coefficient	1,0000multiplexer slope coefficient	1,0000fibre end	0,00T internal ref (°C)	13,10T ext. ref 1 (°C)	-3,78T ext. ref 2 (°C)	-3,79length (m)	temperature (°C)	Stokes	anti-Stokes-744,400	-160,473	0,102	0,004
-743,385	-120,837	-0,362	0,044
-742,371	197,792	0,057	0,064
-741,356	-137,720	-0,407	0,033
-740,342	154,639	0,100	0,101
-739,327	-121,577	-0,239	-0,029
-738,312	12,027	0,085	-0,048
-737,298	-117,985	-0,239	-0,031
-736,283	-128,202	0,276	-0,029
-735,269	-128,370	-0,275	0,028
-734,254	-81,613	0,069	0,016
-733,239	-69,852	-0,298	-0,083
-732,225	-102,362	0,245	0,043
-731,210	29,559	-0,025	0,015
-730,196	-200,000	-0,024	0,193
-729,181	-134,179	-0,213	-0,019
-728,167	-182,717	-0,037	0,000
-727,152	351,821	-0,095	-0,138
-726,137	-18,591	-0,052	-0,024
-725,123	38,118	-0,084	-0,055
-724,108	-68,370	-0,069	0,019
-723,094	-200,000	0,017	0,136
-722,079	-200,000	0,019	-0,152
-721,064	800,000	0,059	-0,157
-720,050	121,768	-0,055	-0,050
-719,035	-20,567	-0,071	0,032
-718,021	-106,328	-0,031	0,005
-717,006	-89,173	-0,135	-0,029
-715,991	-200,000	-0,017	-0,130
-714,977	-200,000	-0,007	0,042
-713,962	264,392	-0,035	-0,045
-712,948	153,046	-0,028	0,028
-711,933	-70,960	0,042	0,012
-710,918	184,086	-0,048	-0,052
-709,904	-200,000	-0,004	-0,069
-708,889	-110,343	0,083	-0,013
-707,875	-111,832	-0,121	0,018
-706,860	-200,000	-0,014	-0,105
-705,845	-200,000	0,011	-0,126
-704,831	-200,000	0,010	0,086
-703,816	-49,882	0,141	-0,049
-702,802	55,156	-0,107	-0,076
-701,787	-74,508	0,044	0,012
-700,772	-20,378	-0,077	-0,035
-699,758	-200,000	-0,019	0,101
-698,743	-84,889	0,058	-0,013
-697,729	-106,095	-0,041	0,007
-696,714	-109,544	0,149	-0,023
-695,699	-200,000	0,015	-0,082
-694,685	15,748	-0,099	-0,057
-693,670	800,000	0,024	0,061
-692,656	-200,000	-0,012	-0,105
-691,641	-88,693	-0,110	0,024
-690,627	581,548	-0,029	-0,052
-689,612	-200,000	-0,025	0,147
-688,597	-8,291	-0,093	0,046
-687,583	-83,632	-0,185	-0,043
-686,568	-95,634	-0,068	-0,013
-685,554	-188,225	-0,077	0,001
-684,539	-200,000	0,004	0,042
-683,524	726,760	-0,035	-0,069
-682,510	-200,000	-0,020	-0,108
-681,495	151,135	-0,120	-0,120
-680,481	800,000	-0,061	-0,142
-679,466	332,084	-0,063	-0,089
-678,451	-15,768	-0,066	-0,031
-677,437	-200,000	0,027	0,114
-676,422	587,826	-0,055	0,100
-675,408	-54,097	0,085	0,028
-674,393	146,734	0,019	-0,019
-673,378	110,979	0,088	-0,077
-672,364	70,365	-0,045	-0,034
-671,349	562,008	-0,057	-0,102
-670,335	-200,000	0,023	-0,086
-669,320	-44,198	-0,051	0,019
-668,305	296,640	-0,076	0,102
-667,291	-200,000	-0,003	-0,076
-666,276	12,825	0,011	0,006
-665,262	-200,000	-0,033	-0,129
-664,247	-79,382	-0,040	0,010
-663,232	50,184	-0,029	0,020
-662,218	45,032	-0,061	0,041
-661,203	226,253	-0,019	0,022
-660,189	87,213	0,035	0,028
-659,174	-200,000	-0,016	0,121
-658,159	-18,266	-0,029	0,013
-657,145	-36,507	-0,014	-0,005
-656,130	-200,000	-0,012	0,049
-655,116	-200,000	-0,023	-0,109
-654,101	420,722	0,034	0,053
-653,086	357,324	-0,051	0,075
-652,072	-200,000	0,026	-0,091
-651,057	-21,233	-0,066	-0,029
-650,043	800,000	-0,005	-0,011
-649,028	-200,000	-0,003	-0,068
-648,014	-200,000	0,005	-0,062
-646,999	627,252	0,009	-0,017
-645,984	29,939	-0,151	-0,094
-644,970	-155,891	-0,169	-0,008
-643,955	20,397	-0,060	-0,035
-642,941	-107,010	-0,039	0,006
-641,926	-200,000	0,016	-0,090
-640,911	-54,145	0,061	-0,020
-639,897	-45,986	0,031	-0,011
-638,882	800,000	0,040	-0,122
-637,868	-117,909	0,041	-0,005
-636,853	-111,814	-0,216	-0,032
-635,838	-200,000	0,017	0,159
-634,824	172,850	-0,062	-0,065
-633,809	-200,000	0,009	0,064
-632,795	-126,831	0,105	-0,011
-631,780	269,128	0,044	0,057
-630,765	800,000	-0,017	-0,054
-629,751	-133,403	-0,108	-0,010
-628,736	-200,000	0,001	-0,061
-627,722	-136,391	-0,126	0,011
-626,707	-200,000	0,002	-0,017
-625,692	800,000	0,018	-0,056
-624,678	-86,799	-0,106	-0,024
-623,663	-143,678	-0,030	-0,002
-622,649	800,000	-0,029	-0,070
-621,634	-103,894	-0,120	0,020
-620,619	195,159	-0,071	-0,080
-619,605	60,524	0,043	0,031
-618,590	-200,000	0,010	0,120
-617,576	-109,998	0,171	0,026
-616,561	-200,000	-0,022	0,104
-615,546	-200,000	0,000	-0,145
-614,532	800,000	-0,097	-0,203
-613,517	558,457	-0,035	-0,063
-612,503	-174,290	0,112	0,002
-611,488	473,689	0,064	-0,106
-610,474	291,111	0,005	-0,006
-609,459	113,253	0,060	0,053
-608,444	800,000	-0,006	-0,014
-607,430	188,477	-0,047	0,051
-606,415	768,475	-0,063	-0,125
-605,401	-200,000	0,013	0,068
-604,386	-37,368	0,128	0,050
-603,371	-85,682	0,043	-0,010
-602,357	-106,082	0,020	0,003
-601,342	800,000	0,023	-0,053
-600,328	-200,000	0,005	0,083
-599,313	27,891	0,051	-0,031
-598,298	-44,317	0,067	0,024
-597,284	-161,254	0,067	-0,002
-596,269	-200,000	0,010	0,146
-595,255	-200,000	-0,017	0,081
-594,240	85,073	-0,015	-0,012
-593,225	800,000	-0,031	0,078
-592,211	-200,000	0,022	-0,149
-591,196	-52,176	0,080	0,027
-590,182	-101,099	-0,059	0,011
-589,167	800,000	0,034	-0,077
-588,152	-200,000	-0,013	0,151
-587,138	-31,369	0,059	-0,024
-586,123	-200,000	0,023	-0,075
-585,109	559,729	-0,035	0,062
-584,094	294,048	0,069	-0,092
-583,079	-104,041	0,191	-0,032
-582,065	-200,000	0,000	0,049
-581,050	-107,171	0,131	0,021
-580,036	800,000	0,055	0,127
-579,021	-79,064	0,125	0,031
-578,006	-200,000	-0,009	0,049
-576,992	800,000	0,028	-0,072
-575,977	132,318	-0,017	0,016
-574,963	218,872	-0,082	0,096
-573,948	20,060	0,101	0,059
-572,934	800,000	0,027	0,076
-571,919	103,249	-0,049	-0,042
-570,904	800,000	0,063	-0,186
-569,890	-3,946	-0,122	-0,062
-568,875	211,199	0,063	0,073
-567,861	-20,718	-0,072	-0,032
-566,846	124,686	-0,029	0,027
-565,831	-78,677	-0,063	-0,016
-564,817	-14,497	-0,028	-0,013
-563,802	-11,222	-0,086	-0,041
-562,788	-85,290	0,033	-0,008
-561,773	-200,000	0,001	-0,102
-560,758	800,000	-0,020	-0,058
-559,744	306,291	0,048	0,066
-558,729	-8,701	0,043	0,021
-557,715	-200,000	-0,029	-0,137
-556,700	37,415	-0,172	-0,111
-555,685	293,120	0,119	-0,158
-554,671	-36,970	0,020	-0,008
-553,656	800,000	-0,018	-0,039
-552,642	107,383	0,091	-0,079
-551,627	-53,564	-0,080	0,027
-550,612	683,215	-0,019	-0,036
-549,598	-65,550	0,077	-0,023
-548,583	91,734	0,055	0,045
-547,569	-200,000	-0,008	-0,049
-546,554	35,967	-0,099	0,063
-545,539	-93,066	0,156	0,031
-544,525	84,516	-0,094	0,075
-543,510	-200,000	0,008	-0,045
-542,496	69,296	-0,154	-0,116
-541,481	598,704	-0,035	0,064
-540,466	325,905	0,066	-0,093
-539,452	-15,051	0,194	0,091
-538,437	160,394	0,067	-0,068
-537,423	207,039	-0,061	-0,070
-536,408	800,000	0,045	0,105
-535,393	315,282	-0,065	-0,090
-534,379	88,902	0,046	-0,037
-533,364	450,351	0,079	-0,128
-532,350	78,903	-0,074	-0,058
-531,335	305,652	0,088	0,119
-530,321	-6,805	-0,081	0,040
-529,306	149,999	-0,044	-0,044
-528,291	268,655	-0,005	-0,007
-527,277	-200,000	0,025	-0,150
-526,262	-50,019	-0,146	-0,050
-525,248	-2,069	0,105	0,053
-524,233	-200,000	0,005	0,093
-523,218	-200,000	0,001	-0,139
-522,204	3,680	-0,033	-0,017
-521,189	-54,870	-0,098	-0,032
-520,175	57,427	0,010	0,007
-519,160	-131,061	0,174	0,017
-518,145	322,642	-0,080	0,112
-517,131	14,403	0,115	0,065
-516,116	-87,861	-0,008	0,002
-515,102	800,000	-0,016	-0,032
-514,087	-22,761	-0,044	-0,019
-513,072	800,000	-0,019	-0,060
-512,058	800,000	-0,055	-0,113
-511,043	-200,000	0,030	-0,129
-510,029	-56,565	0,051	0,016
-509,014	-82,695	-0,101	-0,024
-507,999	87,465	0,079	-0,063
-506,985	-200,000	-0,008	0,061
-505,970	566,402	0,091	0,162
-504,956	-200,000	0,009	-0,105
-503,941	-200,000	0,002	0,039
-502,926	-140,832	-0,110	0,008
-501,912	257,883	-0,086	0,108
-500,897	142,792	0,142	0,137
-499,883	302,672	-0,062	0,083
-498,868	-200,000	0,005	-0,044
-497,853	-26,090	0,097	0,041
-496,839	-175,910	-0,026	-0,000
-495,824	112,482	0,017	-0,015
-494,810	-200,000	-0,013	0,127
-493,795	122,700	0,092	-0,084
-492,781	-200,000	0,028	-0,155
-491,766	-39,865	-0,142	-0,054
-490,751	-62,158	-0,041	0,012
-489,737	-135,567	0,059	0,005
-488,722	-200,000	0,034	0,222
-487,708	-139,217	-0,137	-0,011
-486,693	-200,000	-0,008	0,072
-485,678	800,000	-0,041	0,110
-484,664	-200,000	0,004	-0,097
-483,649	-200,000	0,024	-0,159
-482,635	31,437	0,090	0,056
-481,620	-5,104	0,029	0,014
-480,605	-200,000	-0,014	-0,102
-479,591	51,886	-0,055	0,038
-478,576	-57,163	-0,089	-0,028
-477,562	192,439	0,045	-0,049
-476,547	4,050	-0,076	-0,040
-475,532	149,348	-0,051	-0,050
-474,518	800,000	-0,013	0,032
-473,503	83,256	-0,130	-0,103
-472,489	391,945	-0,136	0,207
-471,474	-119,179	0,081	-0,010
-470,459	-200,000	-0,008	-0,074
-469,445	-43,006	-0,065	0,024
-468,430	-89,591	-0,060	-0,013
-467,416	-34,025	-0,041	0,016
-466,401	41,444	0,100	0,066
-465,386	-200,000	0,003	-0,059
-464,372	-17,806	0,069	0,031
-463,357	-38,372	0,034	0,013
-462,343	-200,000	-0,002	0,076
-461,328	-44,052	0,157	0,057
-460,313	-110,469	-0,062	-0,009
-459,299	55,615	0,133	0,093
-458,284	541,021	-0,077	0,133
-457,270	-164,950	0,119	0,004
-456,255	-112,091	-0,129	0,019
-455,241	143,797	0,001	0,001
-454,226	-150,615	-0,031	0,002
-453,211	800,000	0,048	-0,118
-452,197	154,149	0,055	-0,055
-451,182	-34,637	0,111	0,044
-450,168	81,916	0,052	-0,041
-449,153	800,000	-0,062	-0,171
-448,138	-42,773	-0,065	0,024
-447,124	413,558	-0,017	-0,026
-446,109	-74,380	0,061	-0,016
-445,095	109,258	-0,050	-0,044
-444,080	-34,021	0,111	0,044
-443,065	239,535	-0,136	-0,165
-442,051	-82,802	-0,218	-0,051
-441,036	251,815	0,014	0,017
-440,022	-200,000	-0,023	-0,138
-439,007	800,000	-0,029	-0,072
-437,992	180,195	0,078	-0,083
-436,978	574,783	0,009	0,016
-435,963	-200,000	0,029	0,116
-434,949	-146,557	-0,144	0,009
-433,934	-78,256	-0,101	-0,025
-432,919	115,411	-0,116	-0,103
-431,905	164,354	-0,103	0,105
-430,890	24,627	-0,074	0,044
-429,876	-200,000	0,036	0,116
-428,861	267,665	0,060	0,077
-427,846	-177,683	-0,085	-0,001
-426,832	153,444	-0,084	-0,084
-425,817	-200,000	0,016	0,070
-424,803	800,000	-0,034	-0,074
-423,788	-194,439	-0,048	0,000
-422,773	139,155	-0,009	0,008
-421,759	-22,054	-0,021	0,009
-420,744	554,338	-0,031	0,055
-419,730	362,263	-0,048	-0,070
-418,715	-200,000	-0,005	-0,056
-417,701	800,000	-0,054	-0,145
-416,686	-166,963	0,182	0,005
-415,671	-200,000	0,015	0,168
-414,657	-200,000	-0,004	0,048
-413,642	800,000	-0,053	0,143
-412,628	-93,575	0,027	0,005
-411,613	800,000	-0,025	-0,076
-410,598	204,370	-0,100	-0,113
-409,584	-7,568	0,073	0,036
-408,569	752,296	0,014	0,027
-407,555	-200,000	-0,008	-0,056
-406,540	441,190	0,074	0,118
-405,525	681,966	-0,021	0,041
-404,511	166,963	-0,029	0,030
-403,496	422,843	0,038	0,059
-402,482	404,826	0,079	0,121
-401,467	-200,000	-0,015	0,170
-400,452	35,913	0,115	-0,073
-399,438	-71,880	-0,058	-0,016
-398,423	107,866	0,031	-0,026
-397,409	-167,590	0,036	0,001
-396,394	669,173	-0,047	-0,088
-395,379	-32,412	0,067	0,027
-394,365	455,745	0,068	-0,110
-393,350	507,758	0,016	0,027
-392,336	280,826	0,005	-0,007
-391,321	454,612	-0,123	-0,199
-390,306	186,111	-0,027	0,030
-389,292	267,650	0,030	-0,038
-388,277	-154,364	0,059	-0,003
-387,263	2,516	-0,108	-0,057
-386,248	333,857	-0,033	0,046
-385,233	606,215	-0,025	0,045
-384,219	800,000	-0,058	0,130
-383,204	108,397	-0,016	-0,014
-382,190	800,000	-0,027	-0,056
-381,175	49,661	-0,050	-0,034
-380,160	-57,008	-0,109	0,035
-379,146	13,739	0,080	0,045
-378,131	-200,000	-0,002	-0,043
-377,117	-200,000	0,005	-0,051
-376,102	800,000	-0,039	-0,093
-375,088	177,313	0,150	-0,159
-374,073	502,103	0,032	0,053
-373,058	-48,327	-0,058	0,020
-372,044	97,551	0,078	-0,065
-371,029	-200,000	-0,018	-0,062
-370,015	244,333	-0,087	-0,106
-369,000	90,409	0,080	-0,065
-367,985	154,301	-0,038	-0,038
-366,971	48,017	0,055	0,037
-365,956	-200,000	0,039	0,161
-364,942	-114,930	0,072	-0,010
-363,927	-144,626	-0,062	0,004
-362,912	785,679	0,043	0,086
-361,898	301,768	-0,067	-0,090
-360,883	-29,156	0,066	0,027
-359,869	322,362	-0,043	0,060
-358,854	-129,817	-0,042	0,004
-357,839	-200,000	0,029	0,109
-356,825	-157,072	-0,063	0,003
-355,810	-200,000	0,000	0,003
-354,796	21,670	0,066	-0,039
-353,781	107,160	-0,103	-0,089
-352,766	-139,013	0,160	0,012
-351,752	-41,750	0,077	0,028
-350,737	-90,510	0,104	-0,022
-349,723	-65,921	-0,015	-0,004
-348,708	16,751	0,165	-0,094
-347,693	800,000	0,025	-0,051
-346,679	371,626	0,028	0,041
-345,664	112,594	0,102	-0,089
-344,650	339,532	-0,017	0,023
-343,635	60,737	0,076	0,055
-342,620	378,490	0,012	-0,018
-341,606	275,174	-0,019	0,025
-340,591	-200,000	0,006	0,066
-339,577	334,281	-0,035	-0,050
-338,562	-19,160	-0,067	-0,030
-337,548	71,465	0,084	0,063
-336,533	490,394	0,112	0,186
-335,518	-35,129	0,040	-0,016
-334,504	-200,000	-0,007	-0,096
-333,489	-200,000	-0,007	-0,023
-332,475	-179,583	-0,123	-0,002
-331,460	-63,051	-0,042	-0,013
-330,445	-200,000	0,006	-0,045
-329,431	800,000	-0,018	0,052
-328,416	800,000	0,057	0,172
-327,402	5,694	-0,117	0,063
-326,387	320,491	-0,069	-0,095
-325,372	-48,969	-0,030	-0,010
-324,358	674,270	0,051	-0,095
-323,343	-200,000	-0,012	0,115
-322,329	-200,000	0,043	0,140
-321,314	800,000	0,018	-0,040
-320,299	329,897	0,027	-0,038
-319,285	-68,796	-0,119	0,033
-318,270	800,000	-0,053	-0,107
-317,256	-149,144	0,142	0,008
-316,241	135,494	-0,054	0,051
-315,226	465,399	0,019	-0,031
-314,212	128,802	0,111	0,103
-313,197	157,001	0,101	-0,101
-312,183	-72,948	0,054	0,014
-311,168	800,000	0,046	0,111
-310,153	51,015	-0,047	0,032
-309,139	109,922	0,013	-0,011
-308,124	131,530	0,063	0,059
-307,110	-200,000	-0,010	0,080
-306,095	-142,008	-0,107	-0,008
-305,080	-90,014	-0,020	0,004
-304,066	-71,303	-0,112	-0,030
-303,051	800,000	0,027	-0,070
-302,037	239,065	0,078	-0,094
-301,022	-38,165	-0,134	0,051
-300,008	-200,000	-0,027	-0,108
-298,993	-200,000	-0,027	0,105
-297,978	-200,000	-0,007	-0,125
-296,964	-156,021	0,007	-0,000
-295,949	-51,458	0,032	-0,011
-294,935	-32,246	-0,034	0,014
-293,920	-200,000	-0,003	0,046
-292,905	-200,000	-0,041	0,138
-291,891	157,504	-0,082	0,082
-290,876	-80,579	-0,062	-0,015
-289,862	-119,139	-0,111	0,014
-288,847	100,911	0,048	-0,040
-287,832	-200,000	-0,029	-0,150
-286,818	-22,851	0,120	-0,052
-285,803	115,620	0,012	0,011
-284,789	36,083	-0,134	0,085
-283,774	51,561	0,022	0,015
-282,759	412,535	0,051	-0,078
-281,745	50,947	-0,100	-0,069
-280,730	149,207	-0,067	0,066
-279,716	-200,000	-0,024	-0,089
-278,701	-53,998	0,064	0,021
-277,686	-35,907	0,106	0,041
-276,672	32,439	-0,072	0,045
-275,657	28,752	0,158	0,097
-274,643	800,000	-0,033	-0,076
-273,628	-200,000	0,049	-0,000
-272,613	279,946	-0,058	-0,075
-271,599	527,654	0,022	0,037
-270,584	-19,651	0,056	0,025
-269,570	-3,245	0,094	-0,047
-268,555	225,571	-0,086	0,101
-267,540	85,216	-0,052	0,041
-266,526	281,354	-0,111	0,144
-265,511	313,155	-0,056	-0,076
-264,497	-110,454	-0,125	-0,018
-263,482	-200,000	-0,009	-0,052
-262,467	-200,000	-0,003	0,055
-261,453	206,030	-0,044	-0,050
-260,438	153,182	0,077	-0,076
-259,424	-40,759	-0,074	0,028
-258,409	33,449	0,107	0,067
-257,395	-72,914	0,084	0,022
-256,380	-200,000	0,038	0,233
-255,365	-137,059	0,078	-0,006
-254,351	332,177	-0,100	0,139
-253,336	-200,000	-0,028	0,000
-252,322	3,211	-0,121	-0,063
-251,307	-200,000	0,009	0,085
-250,292	18,256	0,089	-0,051
-249,278	-200,000	0,025	-0,143
-248,263	-200,000	-0,011	0,106
-247,249	-19,201	-0,057	0,025
-246,234	-132,623	-0,086	-0,008
-245,219	-10,950	-0,152	-0,072
-244,205	-200,000	0,036	0,233
-243,190	800,000	0,045	0,091
-242,176	309,171	0,157	-0,212
-241,161	-113,620	0,140	0,019
-240,146	-200,000	-0,027	-0,093
-239,132	800,000	0,028	0,072
-238,117	800,000	0,074	-0,162
-237,103	-200,000	-0,029	-0,104
-236,088	-200,000	0,001	0,013
-235,073	-139,602	-0,073	-0,006
-234,059	-101,686	-0,059	0,010
-233,044	-200,000	0,022	0,174
-232,030	663,309	0,028	-0,052
-231,015	195,368	-0,061	-0,067
-230,000	-200,000	-0,018	0,058
-228,986	-128,177	-0,090	0,009
-227,971	-200,000	0,008	-0,071
-226,957	218,236	0,035	0,040
-225,942	91,970	0,032	0,026
-224,927	800,000	0,053	-0,116
-223,913	347,243	0,042	-0,059
-222,898	-200,000	0,009	-0,090
-221,884	38,398	0,056	0,036
-220,869	647,304	0,089	0,164
-219,855	-166,488	-0,029	-0,001
-218,840	40,188	-0,137	0,089
-217,825	151,279	-0,061	0,060
-216,811	116,853	0,037	-0,033
-215,796	800,000	-0,066	-0,152
-214,782	-126,039	0,161	-0,017
-213,767	-200,000	0,035	-0,113
-212,752	336,254	0,128	0,179
-211,738	800,000	-0,033	0,069
-210,723	0,197	0,029	0,015
-209,709	-70,747	-0,061	-0,017
-208,694	-72,817	-0,215	0,057
-207,679	-113,002	-0,027	0,004
-206,665	528,345	-0,015	-0,026
-205,650	114,143	-0,039	-0,034
-204,636	-200,000	0,041	0,156
-203,621	-200,000	-0,003	0,083
-202,606	592,840	0,064	0,115
-201,592	53,088	-0,056	-0,039
-200,577	154,137	0,017	-0,017
-199,563	-77,223	0,075	0,019
-198,548	66,271	-0,016	0,012
-197,533	-77,685	-0,035	0,009
-196,519	68,172	0,084	-0,061
-195,504	-148,222	0,011	-0,001
-194,490	-60,476	-0,081	0,025
-193,475	-102,222	0,037	-0,006
-192,460	-200,000	-0,017	0,058
-191,446	-136,452	0,096	0,008
-190,431	800,000	0,036	0,079
-189,417	79,093	0,097	0,074
-188,402	-6,915	0,006	0,003
-187,387	-36,395	-0,100	-0,038
-186,373	243,656	-0,040	-0,049
-185,358	-76,409	0,161	0,040
-184,344	800,000	-0,011	0,027
-183,329	30,285	0,163	-0,100
-182,315	-200,000	0,016	0,075
-181,300	-200,000	-0,006	0,048
-180,285	-57,534	-0,072	-0,023
-179,271	5,126	0,045	0,024
-178,256	200,595	0,121	0,134
-177,242	201,266	-0,004	0,005
-176,227	-200,000	0,009	-0,112
-175,212	-200,000	-0,005	0,186
-174,198	-200,000	0,028	0,099
-173,183	-200,000	-0,016	0,052
-172,169	-87,284	0,066	0,014
-171,154	-200,000	-0,005	0,072
-170,139	-200,000	0,004	-0,139
-169,125	246,488	0,084	-0,102
-168,110	404,149	-0,044	0,068
-167,096	800,000	-0,050	0,114
-166,081	800,000	-0,070	0,146
-165,066	-200,000	-0,020	-0,105
-164,052	-124,818	0,075	0,008
-163,037	99,960	0,069	-0,057
-162,023	-119,939	-0,115	0,014
-161,008	-79,416	-0,046	-0,011
-159,993	59,923	-0,084	0,060
-158,979	-4,183	0,062	-0,031
-157,964	-200,000	0,005	0,059
-156,950	800,000	0,029	0,070
-155,935	26,926	0,088	-0,053
-154,920	-200,000	-0,003	0,029
-153,906	478,340	-0,058	0,095
-152,891	1,232	-0,024	0,012
-151,877	-47,777	0,127	0,044
-150,862	165,512	-0,086	-0,087
-149,847	154,812	0,073	0,072
-148,833	-130,899	0,086	-0,008
-147,818	-200,000	-0,002	0,031
-146,804	582,606	0,034	-0,061
-145,789	563,413	0,039	-0,069
-144,775	95,096	-0,093	0,076
-143,760	-114,023	-0,117	-0,016
-142,745	123,227	-0,018	-0,016
-141,731	58,120	0,127	0,089
-140,716	199,996	-0,050	-0,055
-139,702	-109,419	0,080	0,012
-138,687	800,000	0,002	0,008
-137,672	-97,831	0,036	-0,007
-136,658	97,946	-0,048	-0,039
-135,643	-200,000	0,027	0,117
-134,629	41,106	-0,107	-0,069
-133,614	800,000	0,005	0,011
-132,599	-200,000	-0,026	-0,085
-131,585	-44,925	-0,126	0,045
-130,570	296,397	0,034	0,044
-129,556	800,000	0,058	-0,146
-128,541	800,000	0,033	-0,071
-127,526	800,000	-0,010	0,021
-126,512	800,000	0,033	0,077
-125,497	-35,513	0,151	0,059
-124,483	344,199	-0,083	0,118
-123,468	-110,760	0,092	-0,014
-122,453	-29,611	-0,079	0,032
-121,439	-200,000	-0,008	-0,077
-120,424	-19,076	0,061	0,027
-119,410	-123,511	0,037	0,004
-118,395	-200,000	0,020	-0,093
-117,380	-38,059	-0,096	-0,036
-116,366	17,395	-0,093	-0,053
-115,351	17,521	0,123	-0,070
-114,337	-174,832	-0,038	-0,001
-113,322	129,627	0,128	-0,118
-112,307	800,000	0,040	0,091
-111,293	-110,138	-0,164	0,024
-110,278	379,272	0,109	0,160
-109,264	551,438	-0,035	0,060
-108,249	-135,550	-0,035	-0,003
-107,234	132,114	0,090	-0,083
-106,220	31,948	-0,152	0,094
-105,205	-200,000	-0,022	0,108
-104,191	-190,704	0,029	-0,000
-103,176	800,000	-0,014	-0,036
-102,162	-200,000	0,022	0,122
-101,147	269,153	-0,007	0,008
-100,132	28,247	-0,094	-0,057
-99,118	241,454	-0,085	-0,102
-98,103	95,625	0,164	-0,134
-97,089	-3,650	-0,044	0,022
-96,074	-200,000	-0,020	0,066
-95,059	48,996	0,056	0,037
-94,045	-56,725	-0,119	-0,038
-93,030	-152,925	-0,131	0,007
-92,016	-102,663	-0,062	-0,010
-91,001	-148,645	0,161	0,009
-89,986	-125,302	0,125	-0,013
-88,972	310,601	0,028	-0,038
-87,957	8,662	0,043	-0,023
-86,943	42,461	-0,066	-0,043
-85,928	266,485	-0,016	-0,020
-84,913	800,000	-0,018	0,050
-83,899	-200,000	-0,012	0,138
-82,884	-200,000	-0,020	0,077
-81,870	-34,779	0,114	0,044
-80,855	82,224	0,092	0,071
-79,840	753,781	0,076	-0,148
-78,826	-200,000	-0,007	0,070
-77,811	-112,025	0,102	0,015
-76,797	-35,590	0,038	-0,015
-75,782	0,905	0,075	-0,039
-74,767	35,932	-0,108	0,068
-73,753	-200,000	-0,023	0,095
-72,738	-109,935	-0,040	-0,006
-71,724	-37,237	-0,083	0,032
-70,709	54,940	-0,163	0,112
-69,694	58,096	0,024	-0,017
-68,680	220,931	0,045	-0,052
-67,665	7,818	-0,073	0,039
-66,651	-51,282	0,101	0,034
-65,636	-200,000	0,029	-0,109
-64,622	-40,919	-0,040	0,015
-63,607	-200,000	-0,003	-0,102
-62,592	-119,639	0,053	-0,007
-61,578	-200,000	0,024	-0,150
-60,563	800,000	0,026	0,061
-59,549	-33,709	-0,057	0,022
-58,534	31,646	-2,205	-1,356
-57,519	-200,000	-0,002	-0,750
-56,505	-200,000	-1,398	-5,056
-55,490	108,672	0,889	0,760
-54,476	800,000	5,444	12,228
-53,461	-200,000	19,034	320,793
-52,446	800,000	741,642	2325,144
-51,432	548,889	1654,630	2849,613
-50,417	109,743	1637,504	1405,320
-49,403	73,335	1287,822	963,685
-48,388	29,391	1029,656	624,988
-47,373	19,643	992,453	570,182
-46,359	16,878	980,272	554,081
-45,344	13,488	976,567	540,844
-44,330	13,782	974,998	540,917
-43,315	13,146	973,069	537,746
-42,300	13,068	972,040	536,899
-41,286	13,117	971,112	536,526
-40,271	13,112	970,047	535,900
-39,257	13,111	969,394	535,515
-38,242	13,098	968,362	534,880
-37,227	13,186	967,449	534,642
-36,213	13,148	966,440	533,939
-35,198	13,075	965,870	533,365
-34,184	13,124	964,993	533,020
-33,169	13,047	964,129	532,272
-32,154	13,157	963,089	532,031
-31,140	13,165	962,134	531,508
-30,125	13,198	961,513	531,253
-29,111	13,130	960,518	530,463
-28,096	13,136	959,941	530,142
-27,082	13,079	959,444	529,661
-26,067	13,104	958,517	529,209
-25,052	13,156	957,683	528,895
-24,038	13,102	957,218	528,444
-23,023	13,140	956,421	528,105
-22,009	13,212	955,835	527,992
-20,994	13,161	955,209	527,461
-19,979	13,123	954,637	527,004
-18,965	13,103	954,099	526,620
-17,950	13,179	953,558	526,544
-16,936	13,070	952,869	525,794
-15,921	13,158	952,018	525,586
-14,906	13,076	951,134	524,814
-13,892	13,032	950,833	524,486
-12,877	13,009	950,051	523,960
-11,863	12,937	949,573	523,446
-10,848	13,037	948,917	523,384
-9,833	13,092	948,438	523,273
-8,819	13,093	947,631	522,810
-7,804	12,997	947,074	522,176
-6,790	12,985	946,546	521,826
-5,775	13,029	945,964	521,625
-4,760	13,087	945,269	521,407
-3,746	12,996	944,759	520,814
-2,731	12,915	943,957	520,094
-1,717	12,858	943,325	519,545
-0,702	12,887	942,494	519,159
0,313	12,632	941,857	518,786
1,327	16,153	939,819	528,737
2,342	25,388	790,385	469,005
3,356	21,396	445,239	258,256
4,371	-7,867	298,658	143,682
5,386	-11,711	280,463	131,235
6,400	-12,994	274,704	127,324
7,415	-13,023	272,373	126,205
8,429	-13,242	270,990	125,351
9,444	-13,097	270,034	125,031
10,459	-13,174	269,496	124,700
11,473	-13,429	268,796	124,130
12,488	-13,262	268,194	123,994
13,502	-13,533	267,602	123,462
14,517	-13,557	267,327	123,302
15,531	-13,327	266,807	123,261
16,546	-13,470	266,460	122,960
17,561	-13,327	266,155	122,938
18,575	-13,346	265,883	122,784
19,590	-13,311	265,393	122,578
20,604	-13,311	265,134	122,448
21,619	-13,371	264,753	122,207
22,634	-13,424	264,418	121,994
23,648	-13,455	264,182	121,845
24,663	-13,308	263,806	121,794
25,677	-13,223	263,396	121,670
26,692	-13,445	263,360	121,443
27,707	-13,503	262,974	121,202
28,721	-13,430	262,829	121,190
29,736	-13,342	262,392	121,057
30,750	-13,452	262,171	120,846
31,765	-13,303	261,801	120,797
32,780	-13,574	261,898	120,589
33,794	-13,420	261,447	120,508
34,809	-13,404	261,138	120,369
35,823	-13,516	261,009	120,199
36,838	-13,600	260,677	119,961
37,853	-13,659	260,448	119,792
38,867	-13,461	260,247	119,865
39,882	-13,502	260,040	119,722
40,896	-13,510	259,731	119,562
41,911	-13,676	259,624	119,355
42,926	-13,740	259,500	119,231
43,940	-13,685	259,102	119,087
44,955	-13,588	258,806	119,025
45,969	-13,773	258,703	118,804
46,984	-13,858	258,254	118,512
47,999	-14,014	257,948	118,224
49,013	-14,323	257,681	117,820
50,028	-14,344	257,495	117,706
51,042	-14,480	257,130	117,410
52,057	-14,493	257,010	117,333
53,071	-14,335	256,794	117,362
54,086	-14,456	256,624	117,169
55,101	-14,119	256,573	117,429
56,115	-13,794	256,206	117,534
57,130	-13,393	256,251	117,894
58,144	-13,367	256,187	117,877
59,159	-13,117	255,801	117,906
60,174	-13,214	255,574	117,707
61,188	-13,416	255,431	117,455
62,203	-13,328	255,215	117,421
63,217	-13,387	255,027	117,273
64,232	-13,285	254,712	117,207
65,247	-13,323	254,515	117,073
66,261	-13,375	254,191	116,868
67,276	-13,555	253,879	116,559
68,290	-13,845	253,728	116,229
69,305	-13,989	253,523	116,000
70,320	-13,805	253,231	116,015
71,334	-13,572	253,112	116,151
72,349	-13,335	253,023	116,303
73,363	-13,269	253,022	116,349
74,378	-13,192	252,540	116,183
75,393	-13,318	252,264	115,938
76,407	-13,454	252,186	115,775
77,422	-13,481	251,937	115,628
78,436	-13,441	251,814	115,595
79,451	-13,318	251,465	115,529
80,466	-13,616	251,272	115,176
81,480	-13,817	250,974	114,858
82,495	-13,719	250,857	114,877
83,509	-13,731	250,743	114,805
84,524	-13,660	250,335	114,668
85,539	-13,968	250,300	114,381
86,553	-13,999	250,076	114,241
87,568	-13,849	249,805	114,235
88,582	-13,691	249,557	114,245
89,597	-13,761	249,410	114,109
90,611	-13,641	249,184	114,096
91,626	-13,462	249,200	114,245
92,641	-13,419	248,905	114,136
93,655	-13,483	248,870	114,055
94,670	-13,358	248,387	113,929
95,684	-13,621	248,350	113,680
96,699	-13,605	248,110	113,574
97,714	-13,859	247,950	113,276
98,728	-13,908	247,657	113,091
99,743	-13,912	247,444	112,981
100,757	-14,133	247,318	112,728
101,772	-13,883	246,994	112,780
102,787	-13,729	246,836	112,826
103,801	-13,447	246,643	112,964
104,816	-13,608	246,627	112,811
105,830	-13,430	246,528	112,906
106,845	-13,228	246,230	112,927
107,860	-13,397	246,037	112,688
108,874	-13,665	245,875	112,380
109,889	-13,811	245,662	112,151
110,903	-13,620	245,204	112,091
111,918	-13,714	245,169	111,987
112,933	-13,717	245,033	111,913
113,947	-13,530	244,991	112,038
114,962	-13,527	244,750	111,921
115,976	-13,511	244,481	111,800
116,991	-13,612	244,237	111,596
118,006	-13,469	244,127	111,654
119,020	-13,545	243,917	111,485
120,035	-13,517	243,942	111,510
121,049	-13,509	243,773	111,428
122,064	-13,396	243,623	111,444
123,079	-13,371	243,251	111,284
124,093	-13,599	242,947	110,948
125,108	-13,717	242,803	110,774
126,122	-13,848	242,511	110,524
127,137	-14,075	242,388	110,273
128,151	-13,897	242,255	110,347
129,166	-13,743	242,067	110,379
130,181	-13,934	241,920	110,146
131,195	-14,074	241,779	109,957
132,210	-13,806	241,652	110,108
133,224	-13,635	241,360	110,105
134,239	-13,375	241,206	110,237
135,254	-13,425	241,006	110,095
136,268	-13,750	240,870	109,758
137,283	-13,937	240,557	109,454
138,297	-13,944	240,296	109,320
139,312	-13,993	240,083	109,173
140,327	-13,691	240,116	109,424
141,341	-13,241	240,052	109,749
142,356	-13,286	239,876	109,623
143,370	-13,105	239,748	109,701
144,385	-13,049	239,471	109,610
145,400	-13,131	239,314	109,462
146,414	-13,094	239,099	109,384
147,429	-13,451	239,034	109,056
148,443	-13,239	238,786	109,104
149,458	-13,122	238,490	109,053
150,473	-13,234	238,498	108,957
151,487	-13,304	238,081	108,701
152,502	-13,100	238,179	108,900
153,516	-13,206	238,015	108,730
154,531	-13,277	237,815	108,572
155,546	-13,334	237,515	108,379
156,560	-13,371	237,413	108,294
157,575	-13,480	237,100	108,054
158,589	-13,520	237,007	107,970
159,604	-13,040	236,772	108,237
160,619	-13,040	236,787	108,234
161,633	-13,136	236,404	107,973
162,648	-13,041	236,275	107,980
163,662	-13,101	236,186	107,882
164,677	-13,302	235,960	107,609
165,692	-13,276	236,010	107,642
166,706	-13,057	235,871	107,744
167,721	-12,849	235,603	107,778
168,735	-13,148	235,520	107,493
169,750	-13,229	235,445	107,384
170,764	-13,278	235,200	107,224
171,779	-13,211	235,023	107,187
172,794	-12,997	234,803	107,246
173,808	-13,397	234,552	106,806
174,823	-13,896	234,329	106,301
175,837	-13,873	234,221	106,261
176,852	-13,568	234,242	106,501
177,867	-13,200	234,086	106,711
178,881	-13,258	233,873	106,559
179,896	-13,026	233,734	106,669
180,910	-13,090	233,748	106,615
181,925	-13,001	233,343	106,491
182,940	-13,107	233,359	106,405
183,954	-13,121	233,122	106,277
184,969	-12,980	232,938	106,294
185,983	-12,847	232,798	106,325
186,998	-12,953	232,735	106,204
188,013	-12,843	232,555	106,198
189,027	-12,823	232,274	106,075
190,042	-12,901	232,087	105,920
191,056	-12,965	231,956	105,801
192,071	-12,788	231,942	105,923
193,086	-12,797	231,667	105,781
194,100	-12,978	231,567	105,585
195,115	-13,624	231,144	104,881
196,129	-13,637	231,218	104,895
197,144	-7,656	232,892	110,323
198,159	-2,255	234,797	115,464
199,173	2,252	235,982	119,590
200,188	2,930	236,150	120,198
201,202	2,940	235,825	120,030
202,217	2,964	235,669	119,958
203,232	3,214	235,501	120,058
204,246	3,168	235,530	120,026
205,261	3,342	235,402	120,086
206,275	3,257	235,369	119,993
207,290	3,413	235,155	119,995
208,304	3,608	234,799	119,955
209,319	3,284	234,780	119,681
210,334	3,403	234,574	119,658
211,348	3,063	234,383	119,285
212,363	2,698	233,994	118,792
213,377	2,518	233,835	118,561
214,392	2,465	233,757	118,469
215,407	2,811	233,510	118,602
216,421	2,862	233,341	118,545
217,436	2,596	233,264	118,289
218,450	2,303	233,078	117,957
219,465	2,392	232,843	117,896
220,480	2,586	232,725	117,977
221,494	2,357	232,555	117,703
222,509	2,728	232,512	117,958
223,523	2,817	232,345	117,932
224,538	2,568	232,149	117,629
225,553	2,633	232,025	117,606
226,567	2,826	232,023	117,743
227,582	3,021	231,866	117,804
228,596	2,955	231,718	117,667
229,611	2,731	231,541	117,394
230,626	2,715	231,093	117,144
231,640	2,608	230,920	116,963
232,655	2,865	230,971	117,176
233,669	3,175	230,774	117,304
234,684	3,222	230,883	117,385
235,699	2,982	230,624	117,059
236,713	2,750	230,405	116,759
237,728	2,652	230,296	116,618
238,742	2,455	229,896	116,255
239,757	2,620	230,014	116,430
240,772	2,604	229,825	116,313
241,786	2,573	229,609	116,169
242,801	2,885	229,391	116,286
243,815	3,107	229,647	116,575
244,830	3,004	229,376	116,349
245,844	2,846	229,170	116,114
246,859	2,644	228,892	115,809
247,874	2,825	228,902	115,941
248,888	2,942	228,760	115,948
249,903	3,128	228,396	115,894
250,917	2,851	228,385	115,668
251,932	2,622	228,161	115,371
252,947	2,513	227,869	115,130
253,961	2,414	227,818	115,020
254,976	2,415	227,824	115,013
255,990	2,850	227,610	115,223
257,005	2,472	227,704	114,975
258,020	2,848	227,457	115,123
259,034	3,025	227,293	115,163
260,049	2,851	227,036	114,892
261,063	2,616	226,940	114,657
262,078	2,950	226,932	114,894
263,093	3,101	226,681	114,870
264,107	3,323	226,441	114,905
265,122	2,932	226,440	114,600
266,136	3,187	226,334	114,728
267,151	3,176	226,152	114,617
268,166	2,746	225,903	114,159
269,180	2,481	225,565	113,780
270,195	2,512	225,571	113,796
271,209	2,433	225,389	113,634
272,224	2,525	225,360	113,678
273,239	2,930	225,136	113,858
274,253	2,831	224,881	113,645
275,268	2,413	224,695	113,230
276,282	2,272	224,745	113,140
277,297	2,366	224,478	113,065
278,312	2,650	224,378	113,215
279,326	2,646	224,252	113,139
280,341	2,511	224,153	112,979
281,355	2,547	224,018	112,928
282,370	2,838	223,765	113,005
283,384	2,554	223,608	112,705
284,399	2,516	223,280	112,503
285,414	2,324	223,365	112,393
286,428	2,699	223,176	112,565
287,443	2,801	223,125	112,604
288,457	2,820	222,964	112,527
289,472	2,847	222,768	112,439
290,487	2,168	222,522	111,804
291,501	2,375	222,233	111,801
292,516	2,189	222,309	111,693
293,530	2,279	222,223	111,705
294,545	2,423	222,066	111,723
295,560	2,425	222,008	111,685
296,574	2,594	221,923	111,756
297,589	2,581	221,626	111,587
298,603	2,633	221,510	111,557
299,618	2,764	221,382	111,579
300,633	2,733	221,264	111,487
301,647	2,924	221,205	111,586
302,662	3,077	220,999	111,584
303,676	3,136	220,691	111,461
304,691	2,758	220,726	111,194
305,706	2,936	220,679	111,290
306,720	2,982	220,438	111,192
307,735	2,582	220,299	110,821
308,749	2,817	220,006	110,834
309,764	2,710	220,015	110,751
310,779	2,790	219,939	110,761
311,793	2,886	219,553	110,627
312,808	2,754	219,660	110,575
313,822	2,796	219,415	110,472
314,837	2,775	219,212	110,345
315,852	2,248	219,111	109,903
316,866	2,663	219,039	110,157
317,881	3,063	218,797	110,314
318,895	2,820	218,598	110,029
319,910	2,504	218,493	109,739
320,925	2,364	218,334	109,548
321,939	2,260	218,017	109,305
322,954	2,421	218,158	109,481
323,968	2,782	217,982	109,643
324,983	2,641	217,954	109,518
325,997	2,845	217,797	109,575
327,012	2,803	217,648	109,460
328,027	2,695	217,493	109,295
329,041	2,894	217,545	109,454
330,056	3,042	217,199	109,376
331,070	2,833	217,068	109,151
332,085	2,570	216,855	108,846
333,100	2,809	216,673	108,916
334,114	2,721	216,443	108,728
335,129	2,719	216,352	108,671
336,143	2,338	216,381	108,404
337,158	2,402	216,232	108,365
338,173	2,454	216,042	108,298
339,187	2,352	216,080	108,234
340,202	2,703	215,729	108,298
341,216	2,710	215,631	108,244
342,231	2,624	215,434	108,075
343,246	2,727	215,331	108,087
344,260	2,529	215,344	107,943
345,275	2,803	215,103	108,007
346,289	2,687	215,083	107,905
347,304	2,965	214,832	107,966
348,319	2,725	214,623	107,682
349,333	2,783	214,548	107,675
350,348	2,866	214,382	107,641
351,362	2,936	214,386	107,683
352,377	2,906	214,215	107,566
353,392	2,931	214,065	107,499
354,406	2,827	213,947	107,357
355,421	196,771	1314,588	1391,513
356,435	157,434	1448,624	1391,447
