DTS Sentinel unit serial number:	SN410029Multiplexer serial number:	ORYXHardware model number:	OX2-SRSoftware version number:	ORYX F/W v4,00 Oryx Data Collector v3.7.2.0data status	okinstallation	B6 Nyhavnadifferential loss correction	single-endedforward channel	channel 2reverse channel	N/Adate	2023/12/08time	09:25:08forward acquisition time	300,00reverse acquisition time	0,00gamma	499,1914k internal	0,3167k external	0,3167temperature offset calibration	1,0000default loss term (dB/km)	0,3820temperature slope calibration	1,0000multiplexer offset coefficient	1,0000multiplexer slope coefficient	1,0000fibre end	0,00T internal ref (°C)	13,39T ext. ref 1 (°C)	-2,08T ext. ref 2 (°C)	-2,04length (m)	temperature (°C)	Stokes	anti-Stokes-744,400	-8,493	0,038	-0,019
-743,385	-5,904	-0,337	-0,169
-742,371	-148,656	0,137	0,008
-741,356	-83,999	-0,228	-0,053
-740,342	-54,108	0,280	0,093
-739,327	-89,984	-0,328	-0,070
-738,312	-76,984	0,123	0,031
-737,298	14,694	-0,280	-0,161
-736,283	-67,587	0,239	0,069
-735,269	-132,443	-0,264	-0,025
-734,254	-148,806	0,100	-0,006
-733,239	-6,181	-0,456	-0,228
-732,225	60,565	0,078	-0,057
-731,210	-200,000	-0,038	0,137
-730,196	-130,977	-0,137	0,013
-729,181	800,000	-0,046	0,137
-728,167	-200,000	0,020	-0,068
-727,152	-200,000	0,010	0,038
-726,137	-200,000	0,013	-0,129
-725,123	-69,128	0,100	-0,028
-724,108	250,503	-0,064	-0,080
-723,094	800,000	0,043	0,138
-722,079	-200,000	-0,003	-0,139
-721,064	-200,000	-0,059	-0,207
-720,050	-200,000	0,006	-0,154
-719,035	177,702	-0,112	-0,120
-718,021	-72,317	-0,076	0,021
-717,006	276,283	-0,096	-0,126
-715,991	-200,000	-0,004	-0,134
-714,977	398,668	-0,004	-0,006
-713,962	-200,000	0,016	-0,108
-712,948	148,702	0,021	-0,021
-711,933	28,202	-0,211	-0,130
-710,918	-96,987	0,064	0,012
-709,904	-95,277	-0,146	-0,029
-708,889	184,188	0,013	-0,014
-707,875	319,694	-0,129	-0,179
-706,860	-16,889	0,066	0,030
-705,845	-200,000	-0,011	-0,090
-704,831	800,000	0,021	0,057
-703,816	-2,698	0,131	-0,067
-702,802	511,342	-0,024	-0,041
-701,787	68,161	-0,065	-0,048
-700,772	800,000	0,021	-0,050
-699,758	-52,604	0,089	0,030
-698,743	-101,197	0,090	-0,016
-697,729	-18,574	0,040	-0,018
-696,714	414,586	0,027	0,042
-695,699	119,168	-0,111	-0,101
-694,685	225,699	-0,036	-0,043
-693,670	25,578	-0,111	-0,067
-692,656	-102,980	0,178	-0,031
-691,641	-47,482	-0,127	-0,045
-690,627	465,412	0,061	-0,101
-689,612	-31,427	0,025	-0,010
-688,597	-200,000	0,003	0,048
-687,583	281,174	-0,028	-0,037
-686,568	-200,000	0,004	-0,133
-685,554	377,800	0,057	0,086
-684,539	186,414	-0,071	0,078
-683,524	-200,000	0,003	-0,073
-682,510	-200,000	-0,002	0,066
-681,495	-55,814	0,038	-0,012
-680,481	-169,302	-0,068	-0,002
-679,466	-117,931	-0,118	-0,015
-678,451	800,000	-0,011	-0,023
-677,437	197,225	0,036	-0,040
-676,422	476,724	0,059	0,098
-675,408	-33,144	0,094	-0,038
-674,393	83,362	-0,067	0,054
-673,378	800,000	0,024	-0,077
-672,364	190,556	-0,036	0,040
-671,349	93,233	-0,075	0,062
-670,335	159,758	0,028	-0,028
-669,320	-78,863	0,083	-0,020
-668,305	-137,477	0,043	-0,004
-667,291	42,876	-0,104	-0,069
-666,276	800,000	-0,025	0,076
-665,262	-200,000	0,018	-0,090
-664,247	800,000	0,032	-0,087
-663,232	-43,637	-0,138	-0,051
-662,218	163,700	0,026	-0,026
-661,203	800,000	0,019	0,056
-660,189	800,000	0,021	0,049
-659,174	766,455	-0,038	0,076
-658,159	778,462	-0,066	-0,133
-657,145	342,592	-0,011	-0,016
-656,130	-96,440	0,120	-0,023
-655,116	672,794	-0,044	0,084
-654,101	-146,483	0,128	0,008
-653,086	800,000	-0,027	0,072
-652,072	-63,559	-0,045	0,013
-651,057	-110,969	-0,023	-0,003
-650,043	-200,000	0,000	-0,011
-649,028	800,000	-0,025	0,079
-648,014	-98,915	0,082	0,015
-646,999	24,850	0,127	0,077
-645,984	-200,000	0,005	0,026
-644,970	34,257	-0,067	-0,043
-643,955	-200,000	-0,020	-0,089
-642,941	-54,447	-0,197	-0,065
-641,926	70,015	0,076	0,057
-640,911	30,009	0,077	-0,048
-639,897	68,451	-0,039	0,029
-638,882	-152,168	0,154	0,008
-637,868	-100,445	-0,063	0,011
-636,853	539,692	-0,069	-0,120
-635,838	-200,000	0,005	0,038
-634,824	108,858	0,102	0,089
-633,809	520,663	-0,003	0,006
-632,795	-94,336	-0,047	-0,009
-631,780	408,454	0,102	-0,158
-630,765	-134,925	-0,147	0,013
-629,751	-52,827	0,033	-0,011
-628,736	-76,955	-0,112	-0,028
-627,722	-150,447	-0,093	-0,005
-626,707	211,616	0,048	-0,056
-625,692	244,993	0,079	0,098
-624,678	266,321	0,043	0,056
-623,663	230,890	0,023	0,028
-622,649	214,857	-0,075	-0,087
-621,634	-200,000	0,012	-0,107
-620,619	268,553	-0,038	0,049
-619,605	63,267	-0,024	0,017
-618,590	53,088	0,121	0,084
-617,576	-200,000	0,029	-0,096
-616,561	795,351	0,020	-0,040
-615,546	194,496	-0,031	0,034
-614,532	-200,000	0,004	-0,020
-613,517	-144,089	-0,188	-0,013
-612,503	-111,040	0,038	0,006
-611,488	-100,027	-0,046	-0,008
-610,474	-31,957	0,041	0,017
-609,459	48,700	-0,098	-0,067
-608,444	-200,000	-0,011	0,072
-607,430	-200,000	-0,001	-0,079
-606,415	540,543	0,038	-0,066
-605,401	-5,000	0,036	-0,018
-604,386	25,131	0,089	-0,054
-603,371	-115,794	-0,067	0,009
-602,357	164,473	-0,041	-0,042
-601,342	174,229	0,016	-0,017
-600,328	135,089	-0,056	-0,054
-599,313	-200,000	-0,006	0,037
-598,298	-37,702	0,018	-0,007
-597,284	-200,000	-0,004	0,057
-596,269	9,967	-0,079	0,044
-595,255	-200,000	0,012	-0,132
-594,240	30,164	-0,130	0,081
-593,225	143,009	0,060	-0,059
-592,211	800,000	-0,028	-0,082
-591,196	-39,977	0,060	0,023
-590,182	-50,021	-0,117	0,040
-589,167	-34,627	0,124	0,049
-588,152	30,318	-0,062	-0,038
-587,138	-98,880	-0,258	-0,047
-586,123	394,453	-0,039	0,059
-585,109	-146,592	-0,093	-0,006
-584,094	-164,557	-0,144	0,005
-583,079	-90,949	0,096	0,020
-582,065	-39,367	0,020	-0,008
-581,050	-200,000	-0,052	-0,171
-580,036	-63,184	-0,078	-0,023
-579,021	382,769	-0,055	0,084
-578,006	5,171	0,069	-0,037
-576,992	-174,127	0,069	0,001
-575,977	94,505	0,082	0,068
-574,963	25,327	0,070	-0,042
-573,948	41,986	-0,024	0,016
-572,934	-78,135	0,093	0,023
-571,919	-2,403	-0,163	0,083
-570,904	-200,000	-0,004	-0,124
-569,890	-42,113	0,116	-0,043
-568,875	736,052	0,033	-0,065
-567,861	-52,292	0,072	0,024
-566,846	-200,000	-0,005	-0,080
-565,831	-117,506	-0,073	0,010
-564,817	8,748	-0,046	-0,025
-563,802	800,000	0,020	0,050
-562,788	-138,137	-0,155	0,012
-561,773	558,848	0,044	-0,077
-560,758	800,000	-0,057	0,116
-559,744	-200,000	-0,004	0,051
-558,729	198,239	0,023	0,026
-557,715	-200,000	0,000	-0,084
-556,700	-200,000	-0,003	0,023
-555,685	47,295	-0,062	0,042
-554,671	-200,000	-0,010	-0,150
-553,656	90,864	0,036	-0,030
-552,642	153,732	0,082	0,082
-551,627	-200,000	0,010	0,114
-550,612	-200,000	-0,016	-0,051
-549,598	722,156	-0,067	-0,130
-548,583	-200,000	0,015	-0,054
-547,569	275,910	-0,029	-0,037
-546,554	-200,000	-0,014	0,060
-545,539	800,000	-0,023	0,070
-544,525	-200,000	-0,004	0,101
-543,510	243,368	-0,061	0,075
-542,496	800,000	-0,035	0,073
-541,481	78,122	0,056	0,044
-540,466	-200,000	-0,001	0,031
-539,452	57,483	0,122	-0,087
-538,437	-37,842	0,064	0,025
-537,423	173,433	0,027	-0,028
-536,408	-200,000	-0,013	-0,054
-535,393	219,452	-0,069	-0,080
-534,379	122,733	-0,029	0,026
-533,364	451,878	-0,088	-0,142
-532,350	-200,000	0,026	0,094
-531,335	-200,000	0,011	0,099
-530,321	-200,000	-0,034	-0,121
-529,306	-64,989	0,037	-0,011
-528,291	-72,304	0,071	-0,019
-527,277	538,480	-0,111	-0,194
-526,262	-200,000	-0,026	-0,165
-525,248	800,000	0,026	-0,075
-524,233	800,000	0,014	0,039
-523,218	-200,000	0,013	-0,069
-522,204	800,000	0,040	-0,101
-521,189	25,064	0,083	-0,050
-520,175	-200,000	-0,035	-0,120
-519,160	-79,850	-0,121	0,029
-518,145	403,795	0,151	0,232
-517,131	800,000	-0,011	-0,025
-516,116	244,938	-0,029	0,036
-515,102	487,408	0,117	-0,196
-514,087	800,000	0,032	-0,069
-513,072	-200,000	0,003	-0,022
-512,058	92,618	0,007	-0,006
-511,043	12,064	-0,045	-0,025
-510,029	-200,000	-0,004	-0,019
-509,014	800,000	-0,032	0,069
-507,999	794,822	0,061	-0,122
-506,985	-17,918	0,141	-0,064
-505,970	640,878	-0,057	0,106
-504,956	-200,000	-0,012	-0,046
-503,941	92,684	0,059	-0,048
-502,926	-200,000	-0,012	0,119
-501,912	36,103	-0,077	0,049
-500,897	-90,710	0,175	0,036
-499,883	-22,564	-0,092	0,041
-498,868	-200,000	0,007	-0,064
-497,853	24,912	0,038	0,023
-496,839	1,646	0,054	0,028
-495,824	370,297	-0,046	0,068
-494,810	800,000	-0,010	-0,027
-493,795	140,456	-0,066	-0,063
-492,781	-0,782	-0,109	-0,056
-491,766	409,642	-0,044	-0,068
-490,751	-99,135	0,112	-0,020
-489,737	546,264	0,075	-0,132
-488,722	800,000	-0,016	0,041
-487,708	-200,000	0,000	0,122
-486,693	-114,196	-0,084	0,012
-485,678	102,010	-0,053	0,045
-484,664	223,185	-0,033	-0,038
-483,649	-94,021	-0,182	0,036
-482,635	-134,734	-0,098	0,009
-481,620	-58,923	0,111	-0,035
-480,605	-22,215	-0,085	-0,037
-479,591	-88,317	-0,103	-0,022
-478,576	9,634	0,062	0,034
-477,562	-200,000	-0,019	-0,074
-476,547	22,403	-0,148	0,088
-475,532	-200,000	0,006	-0,079
-474,518	800,000	-0,015	-0,032
-473,503	-1,332	0,136	0,069
-472,489	-200,000	-0,010	0,052
-471,474	-200,000	-0,032	0,137
-470,459	800,000	0,011	-0,026
-469,445	500,312	-0,045	-0,076
-468,430	-135,565	0,053	-0,004
-467,416	800,000	-0,017	-0,050
-466,401	48,520	0,150	0,102
-465,386	-99,484	-0,110	0,020
-464,372	780,730	-0,070	0,139
-463,357	-200,000	0,005	0,048
-462,343	-200,000	-0,010	0,077
-461,328	647,009	-0,035	-0,065
-460,313	787,241	-0,012	0,024
-459,299	362,347	0,055	0,080
-458,284	-200,000	0,013	0,077
-457,270	302,285	-0,049	0,067
-456,255	-72,526	0,050	0,013
-455,241	104,893	0,102	0,088
-454,226	18,578	-0,082	-0,048
-453,211	8,267	-0,016	0,008
-452,197	-200,000	0,008	-0,059
-451,182	164,837	0,111	0,114
-450,168	-200,000	0,024	0,088
-449,153	369,532	-0,065	0,096
-448,138	-135,337	-0,122	0,010
-447,124	-200,000	-0,023	0,140
-446,109	800,000	0,008	-0,021
-445,095	800,000	-0,009	-0,024
-444,080	117,503	0,082	0,074
-443,065	57,082	-0,071	0,050
-442,051	423,514	-0,036	0,056
-441,036	-200,000	-0,002	-0,086
-440,022	-200,000	0,019	-0,093
-439,007	-58,923	-0,034	-0,011
-437,992	114,924	-0,019	-0,017
-436,978	34,682	-0,038	0,024
-435,963	-200,000	-0,003	0,020
-434,949	-169,492	0,097	0,003
-433,934	418,714	-0,039	0,061
-432,919	-19,456	0,068	-0,030
-431,905	-200,000	-0,027	0,090
-430,890	49,068	0,133	0,091
-429,876	-39,043	0,111	0,042
-428,861	314,883	0,040	-0,055
-427,846	-7,059	0,162	0,080
-426,832	-56,537	-0,088	0,028
-425,817	800,000	-0,023	0,047
-424,803	-200,000	0,004	-0,013
-423,788	429,082	-0,016	0,025
-422,773	-200,000	-0,010	-0,043
-421,759	-105,636	-0,007	-0,001
-420,744	1,332	0,067	0,035
-419,730	800,000	-0,049	-0,119
-418,715	800,000	-0,036	-0,075
-417,701	-63,786	-0,080	-0,023
-416,686	36,194	0,045	0,029
-415,671	367,600	0,057	0,084
-414,657	-25,186	-0,083	0,036
-413,642	-1,601	-0,158	-0,080
-412,628	133,119	-0,046	-0,043
-411,613	-200,000	-0,010	0,055
-410,598	47,172	0,095	0,064
-409,584	-200,000	-0,008	-0,045
-408,569	183,648	-0,090	0,096
-407,555	-72,811	-0,101	0,027
-406,540	-146,549	-0,129	0,008
-405,525	-96,763	0,087	-0,016
-404,511	800,000	-0,044	-0,124
-403,496	-200,000	-0,019	0,075
-402,482	239,638	-0,029	0,034
-401,467	-131,128	0,056	0,005
-400,452	-200,000	-0,010	0,067
-399,438	-200,000	-0,027	0,115
-398,423	-124,460	0,206	-0,023
-397,409	-113,746	-0,115	0,016
-396,394	800,000	0,041	-0,084
-395,379	-200,000	0,016	0,099
-394,365	183,227	0,068	0,073
-393,350	-200,000	0,013	-0,099
-392,336	-78,113	-0,053	-0,013
-391,321	-200,000	0,021	-0,115
-390,306	-200,000	-0,005	0,063
-389,292	221,043	-0,049	0,057
-388,277	-200,000	0,001	0,042
-387,263	-90,418	0,033	-0,007
-386,248	-200,000	0,024	0,182
-385,233	-200,000	0,096	0,000
-384,219	605,075	-0,067	-0,122
-383,204	-200,000	-0,032	-0,136
-382,190	34,067	0,019	0,012
-381,175	-200,000	-0,010	0,187
-380,160	-27,408	0,210	-0,088
-379,146	43,899	0,097	-0,064
-378,131	800,000	0,028	0,072
-377,117	800,000	0,040	-0,088
-376,102	800,000	-0,018	-0,043
-375,088	89,765	-0,014	-0,011
-374,073	800,000	-0,035	0,096
-373,058	-109,637	0,073	0,011
-372,044	800,000	0,017	0,035
-371,029	-200,000	-0,010	0,086
-370,015	122,961	-0,107	-0,097
-369,000	800,000	-0,041	-0,119
-367,985	-200,000	0,007	-0,064
-366,971	-43,206	0,011	-0,004
-365,956	451,556	0,018	0,028
-364,942	170,879	0,108	0,112
-363,927	-132,206	0,072	0,007
-362,912	800,000	0,033	-0,096
-361,898	-116,789	-0,082	0,011
-360,883	-74,322	-0,141	0,037
-359,869	243,965	-0,083	-0,101
-358,854	-162,093	0,138	0,005
-357,839	273,052	0,048	-0,062
-356,825	-107,268	0,087	0,014
-355,810	323,205	0,060	0,083
-354,796	-33,265	0,077	-0,031
-353,781	-67,210	-0,067	0,019
-352,766	393,305	0,059	-0,089
-351,752	-33,767	0,085	0,034
-350,737	45,914	-0,083	-0,056
-349,723	800,000	-0,052	0,136
-348,708	151,933	0,070	-0,069
-347,693	-200,000	0,001	0,115
-346,679	800,000	-0,072	-0,203
-345,664	95,245	-0,118	-0,097
-344,650	-67,894	0,011	0,003
-343,635	-157,924	-0,112	0,005
-342,620	-200,000	-0,026	0,139
-341,606	-200,000	-0,008	-0,044
-340,591	-200,000	0,010	-0,064
-339,577	213,932	-0,094	-0,108
-338,562	-50,982	0,048	-0,016
-337,548	26,527	-0,055	-0,033
-336,533	279,163	0,100	-0,129
-335,518	166,088	0,015	-0,016
-334,504	-134,598	-0,106	0,009
-333,489	330,859	-0,038	-0,054
-332,475	315,398	0,062	-0,085
-331,460	-200,000	0,025	0,093
-330,445	-200,000	-0,011	-0,101
-329,431	585,808	0,033	0,058
-328,416	550,853	0,089	0,155
-327,402	131,039	0,083	0,077
-326,387	323,367	0,019	-0,027
-325,372	45,462	0,045	-0,030
-324,358	233,076	-0,103	-0,122
-323,343	27,952	0,103	0,063
-322,329	440,161	0,037	0,059
-321,314	-200,000	-0,009	0,100
-320,299	-200,000	0,022	0,162
-319,285	15,696	0,031	-0,017
-318,270	-105,599	-0,088	0,014
-317,256	-177,161	-0,076	0,001
-316,241	346,514	-0,049	0,070
-315,226	67,542	0,076	0,056
-314,212	-60,392	0,075	0,023
-313,197	401,761	-0,047	-0,071
-312,183	-141,895	0,075	-0,005
-311,168	800,000	-0,008	-0,021
-310,153	183,136	0,019	-0,020
-309,139	-200,000	0,032	0,148
-308,124	9,651	0,101	-0,055
-307,110	-124,450	0,069	-0,008
-306,095	-200,000	-0,003	-0,151
-305,080	800,000	-0,069	0,143
-304,066	-91,291	-0,112	0,023
-303,051	800,000	-0,022	-0,050
-302,037	-83,228	0,130	0,030
-301,022	800,000	-0,031	-0,067
-300,008	125,868	-0,055	0,050
-298,993	116,207	0,059	-0,052
-297,978	-42,296	0,136	-0,050
-296,964	-59,278	-0,068	0,021
-295,949	-200,000	0,001	0,004
-294,935	-55,167	0,096	0,031
-293,920	646,956	-0,013	-0,024
-292,905	800,000	0,018	-0,043
-291,891	163,564	0,019	-0,019
-290,876	375,150	-0,014	0,021
-289,862	-200,000	0,014	-0,141
-288,847	-87,694	-0,087	-0,019
-287,832	69,121	-0,050	0,037
-286,818	-57,439	0,062	-0,019
-285,803	800,000	-0,015	0,035
-284,789	800,000	0,061	0,142
-283,774	-103,535	0,020	-0,003
-282,759	-200,000	-0,016	-0,092
-281,745	-74,231	-0,107	-0,028
-280,730	25,557	-0,067	-0,040
-279,716	-200,000	0,039	0,159
-278,701	-109,417	-0,038	-0,006
-277,686	-200,000	0,002	0,123
-276,672	-47,688	-0,033	-0,012
-275,657	71,675	-0,017	0,013
-274,643	-200,000	0,005	0,121
-273,628	800,000	-0,027	-0,085
-272,613	428,288	0,027	-0,042
-271,599	-200,000	0,009	-0,054
-270,584	-17,257	0,016	-0,007
-269,570	500,300	-0,092	0,154
-268,555	600,800	-0,059	0,105
-267,540	-200,000	-0,014	0,049
-266,526	-51,180	-0,112	-0,038
-265,511	-138,395	-0,184	-0,014
-264,497	-200,000	-0,006	-0,038
-263,482	140,308	0,016	-0,015
-262,467	800,000	-0,050	0,125
-261,453	-200,000	0,002	-0,008
-260,438	134,960	-0,018	-0,017
-259,424	-37,542	-0,117	-0,045
-258,409	86,713	-0,014	-0,012
-257,395	-200,000	-0,022	0,089
-256,380	62,464	0,108	-0,078
-255,365	118,910	0,079	0,070
-254,351	167,631	0,097	0,099
-253,336	-200,000	0,026	0,088
-252,322	589,609	0,116	-0,207
-251,307	684,709	0,017	-0,033
-250,292	800,000	0,057	0,129
-249,278	105,932	0,041	-0,035
-248,263	-45,376	-0,050	0,018
-247,249	800,000	0,033	-0,083
-246,234	241,315	0,091	-0,110
-245,219	-200,000	0,012	0,085
-244,205	800,000	-0,002	-0,004
-243,190	68,541	-0,027	0,020
-242,176	-125,157	-0,040	-0,004
-241,161	-200,000	-0,014	-0,053
-240,146	-200,000	-0,008	-0,033
-239,132	800,000	0,013	0,039
-238,117	-38,485	-0,188	-0,071
-237,103	-69,755	0,112	0,031
-236,088	182,197	-0,121	-0,128
-235,073	126,489	0,019	0,017
-234,059	325,035	0,077	0,106
-233,044	97,177	-0,098	0,081
-232,030	456,579	-0,033	-0,053
-231,015	-4,914	-0,067	0,033
-230,000	-200,000	0,021	-0,091
-228,986	167,122	-0,018	-0,019
-227,971	800,000	-0,028	-0,073
-226,957	-180,844	0,170	-0,002
-225,942	-108,787	-0,163	0,025
-224,927	7,764	0,139	0,075
-223,913	348,902	-0,055	-0,078
-222,898	-18,084	0,051	-0,023
-221,884	-72,188	-0,091	0,024
-220,869	-200,000	-0,003	0,114
-219,855	209,389	-0,078	-0,088
-218,840	-200,000	-0,038	0,124
-217,825	-100,409	0,135	0,024
-216,811	-44,357	-0,178	-0,064
-215,796	-193,352	-0,113	0,001
-214,782	-136,675	-0,057	-0,005
-213,767	-200,000	0,007	0,032
-212,752	299,724	0,095	-0,126
-211,738	-112,560	0,088	-0,012
-210,723	-81,913	0,108	0,025
-209,709	179,649	-0,088	0,093
-208,694	-124,947	-0,052	0,006
-207,679	-200,000	0,002	-0,020
-206,665	800,000	0,068	-0,146
-205,650	488,547	0,027	-0,045
-204,636	-18,339	0,100	0,045
-203,621	800,000	-0,073	0,189
-202,606	308,983	-0,028	0,038
-201,592	-141,446	-0,028	-0,002
-200,577	210,995	0,020	-0,023
-199,563	-200,000	0,007	-0,086
-198,548	-200,000	-0,057	-0,201
-197,533	38,367	0,059	-0,038
-196,519	-90,914	0,069	-0,014
-195,504	-200,000	0,023	-0,091
-194,490	-200,000	0,016	-0,154
-193,475	7,101	0,145	-0,078
-192,460	660,463	0,059	0,109
-191,446	245,234	-0,050	-0,060
-190,431	9,621	0,091	0,050
-189,417	69,001	0,138	0,102
-188,402	-79,542	0,119	-0,029
-187,387	-59,305	-0,203	0,062
-186,373	-53,227	-0,055	0,018
-185,358	-59,949	0,031	-0,010
-184,344	340,682	0,010	0,015
-183,329	-122,157	0,176	0,020
-182,315	-200,000	0,021	0,121
-181,300	-82,792	0,092	0,021
-180,285	-16,562	-0,088	-0,040
-179,271	800,000	0,040	0,090
-178,256	-200,000	0,018	0,090
-177,242	-146,328	0,058	0,004
-176,227	218,570	0,065	0,075
-175,212	-200,000	0,000	0,019
-174,198	-101,861	-0,031	-0,005
-173,183	800,000	-0,025	-0,072
-172,169	-200,000	-0,083	-0,000
-171,154	470,605	0,007	-0,011
-170,139	-92,334	0,149	-0,030
-169,125	447,831	0,092	0,147
-168,110	45,441	-0,087	-0,057
-167,096	800,000	0,038	0,091
-166,081	800,000	0,045	-0,091
-165,066	800,000	0,035	-0,087
-164,052	800,000	-0,033	-0,079
-163,037	26,939	0,143	0,086
-162,023	352,856	0,048	0,068
-161,008	800,000	0,020	-0,054
-159,993	318,092	-0,027	0,036
-158,979	-23,321	0,018	0,008
-157,964	117,480	-0,056	0,049
-156,950	39,028	-0,024	-0,016
-155,935	-74,285	-0,120	0,031
-154,920	-200,000	0,038	-0,123
-153,906	-57,412	-0,082	0,026
-152,891	-113,657	0,110	-0,015
-151,877	-200,000	-0,015	-0,165
-150,862	200,314	-0,123	-0,136
-149,847	44,494	0,007	0,005
-148,833	-91,641	-0,049	0,010
-147,818	24,145	0,010	0,006
-146,804	66,099	0,111	-0,081
-145,789	363,821	0,070	0,102
-144,775	-200,000	-0,012	-0,048
-143,760	585,436	0,023	0,041
-142,745	800,000	-0,036	0,085
-141,731	-200,000	0,025	0,108
-140,716	71,435	0,053	-0,040
-139,702	-69,156	-0,018	-0,005
-138,687	267,518	-0,023	0,029
-137,672	-105,913	-0,116	0,019
-136,658	-200,000	0,009	-0,043
-135,643	120,013	-0,069	0,061
-134,629	161,448	0,118	0,119
-133,614	-64,614	-0,054	0,016
-132,599	-77,715	0,095	-0,023
-131,585	386,632	-0,052	0,077
-130,570	88,411	0,046	-0,037
-129,556	50,945	-0,065	-0,044
-128,541	-159,352	-0,059	0,002
-127,526	-91,490	0,109	0,022
-126,512	-200,000	-0,020	0,068
-125,497	-200,000	0,008	0,056
-124,483	800,000	-0,016	0,043
-123,468	148,906	-0,081	0,079
-122,453	800,000	-0,018	-0,040
-121,439	-200,000	0,004	0,031
-120,424	-63,090	-0,069	-0,020
-119,410	-200,000	0,002	-0,042
-118,395	-200,000	-0,002	0,063
-117,380	-59,228	0,075	0,023
-116,366	800,000	0,027	-0,064
-115,351	-200,000	-0,006	0,019
-114,337	-18,856	-0,057	-0,026
-113,322	800,000	-0,022	0,051
-112,307	-200,000	-0,007	0,025
-111,293	-110,424	0,086	0,013
-110,278	-200,000	-0,002	0,064
-109,264	-200,000	0,007	0,087
-108,249	-200,000	-0,006	0,054
-107,234	-200,000	0,018	-0,087
-106,220	52,874	-0,062	0,043
-105,205	-89,100	0,119	0,025
-104,191	-200,000	-0,009	0,068
-103,176	411,073	0,050	0,077
-102,162	505,191	-0,056	0,093
-101,147	-200,000	-0,016	-0,110
-100,132	-200,000	0,035	-0,180
-99,118	800,000	-0,041	0,087
-98,103	54,471	-0,030	0,021
-97,089	467,617	0,035	0,057
-96,074	10,675	-0,072	0,039
-95,059	425,411	0,066	-0,102
-94,045	31,482	-0,059	-0,036
-93,030	155,496	0,052	0,051
-92,016	30,453	0,040	-0,025
-91,001	-24,822	-0,019	-0,008
-89,986	730,168	0,006	-0,012
-88,972	622,848	0,003	-0,006
-87,957	500,721	0,072	0,119
-86,943	136,235	0,066	-0,062
-85,928	115,512	-0,151	-0,133
-84,913	221,098	-0,071	-0,082
-83,899	356,974	0,057	-0,081
-82,884	106,998	0,122	0,104
-81,870	-49,417	0,089	-0,030
-80,855	800,000	0,028	-0,076
-79,840	-200,000	0,032	-0,106
-78,826	800,000	-0,023	-0,072
-77,811	-13,824	-0,108	0,050
-76,797	-200,000	-0,009	0,079
-75,782	-72,320	-0,045	-0,012
-74,767	46,958	0,089	-0,059
-73,753	-170,371	0,086	-0,002
-72,738	313,016	-0,053	0,072
-71,724	-36,399	-0,048	-0,019
-70,709	440,401	-0,034	-0,053
-69,694	800,000	-0,023	0,059
-68,680	53,894	0,038	-0,026
-67,665	-200,000	0,002	0,126
-66,651	463,306	-0,034	0,054
-65,636	-200,000	0,002	0,094
-64,622	4,201	-0,056	-0,029
-63,607	24,897	-0,046	-0,027
-62,592	800,000	0,038	-0,098
-61,578	-192,040	0,138	-0,001
-60,563	166,761	-0,054	0,055
-59,549	361,038	-0,063	0,091
-58,534	46,268	-2,161	-1,431
-57,519	-200,000	-0,018	-0,678
-56,505	-200,000	-1,518	-5,037
-55,490	42,355	1,049	0,681
-54,476	800,000	5,279	12,172
-53,461	-200,000	18,680	312,741
-52,446	800,000	739,583	2304,571
-51,432	548,690	1652,701	2844,250
-50,417	109,469	1636,203	1402,090
-49,403	72,818	1286,876	960,356
-48,388	29,609	1028,698	624,791
-47,373	19,593	991,088	568,907
-46,359	17,059	978,720	553,484
-45,344	13,754	975,004	540,544
-44,330	14,087	973,372	540,707
-43,315	13,498	971,546	537,745
-42,300	13,450	970,347	536,906
-41,286	13,401	969,606	536,313
-40,271	13,415	968,846	535,918
-39,257	13,435	967,788	535,377
-38,242	13,446	966,964	534,934
-37,227	13,436	966,176	534,446
-36,213	13,423	965,052	533,759
-35,198	13,406	964,218	533,222
-34,184	13,444	963,589	532,978
-33,169	13,324	962,729	532,093
-32,154	13,443	961,650	531,860
-31,140	13,416	960,669	531,208
-30,125	13,427	960,207	530,966
-29,111	13,409	959,263	530,365
-28,096	13,464	958,394	530,041
-27,082	13,420	958,033	529,681
-26,067	13,424	957,252	529,240
-25,052	13,424	956,476	528,790
-24,038	13,399	955,776	528,302
-23,023	13,415	955,231	528,029
-22,009	13,480	954,426	527,773
-20,994	13,491	953,873	527,482
-19,979	13,457	953,078	526,911
-18,965	13,400	952,762	526,533
-17,950	13,476	952,007	526,338
-16,936	13,427	951,521	525,892
-15,921	13,414	950,597	525,321
-14,906	13,323	949,959	524,656
-13,892	13,283	949,390	524,195
-12,877	13,250	948,900	523,797
-11,863	13,251	948,156	523,368
-10,848	13,283	947,696	523,194
-9,833	13,383	947,023	523,122
-8,819	13,397	946,409	522,806
-7,804	13,338	945,847	522,289
-6,790	13,328	945,300	521,933
-5,775	13,403	944,729	521,835
-4,760	13,337	944,046	521,226
-3,746	13,334	943,425	520,854
-2,731	13,208	942,481	519,915
-1,717	13,141	941,987	519,408
-0,702	13,146	941,382	519,070
0,313	12,941	940,867	518,923
1,327	16,515	938,744	528,972
2,342	25,982	789,902	470,008
3,356	22,534	444,593	259,421
4,371	-6,414	297,231	144,386
5,386	-10,164	279,071	131,983
6,400	-11,198	273,335	128,294
7,415	-11,357	271,090	127,082
8,429	-11,429	269,410	126,217
9,444	-11,549	268,492	125,665
10,459	-11,634	268,065	125,377
11,473	-11,790	267,331	124,880
12,488	-11,743	266,666	124,601
13,502	-12,056	266,155	124,066
14,517	-12,015	265,666	123,865
15,531	-11,938	265,221	123,715
16,546	-12,094	265,085	123,501
17,561	-12,105	264,460	123,188
18,575	-11,983	264,135	123,135
19,590	-12,169	263,772	122,789
20,604	-12,002	263,608	122,851
21,619	-11,954	263,147	122,668
22,634	-11,931	262,769	122,502
23,648	-12,072	262,592	122,283
24,663	-12,104	262,304	122,108
25,677	-12,168	262,053	121,923
26,692	-12,066	261,760	121,868
27,707	-12,107	261,407	121,655
28,721	-12,050	261,286	121,639
29,736	-12,210	260,928	121,319
30,750	-12,421	260,773	121,049
31,765	-12,267	260,449	121,025
32,780	-12,261	260,246	120,924
33,794	-12,308	259,883	120,703
34,809	-12,122	259,600	120,726
35,823	-12,180	259,463	120,600
36,838	-12,209	259,015	120,356
37,853	-12,113	258,894	120,373
38,867	-12,215	258,664	120,166
39,882	-12,389	258,433	119,894
40,896	-12,371	258,195	119,789
41,911	-12,334	257,880	119,665
42,926	-12,315	257,693	119,585
43,940	-12,367	257,551	119,462
44,955	-12,264	257,175	119,367
45,969	-12,425	257,022	119,145
46,984	-12,581	256,854	118,920
47,999	-12,807	256,404	118,504
49,013	-12,903	256,188	118,309
50,028	-13,092	256,028	118,061
51,042	-13,267	255,747	117,768
52,057	-13,065	255,439	117,791
53,071	-12,910	255,214	117,812
54,086	-12,842	255,143	117,827
55,101	-13,014	255,086	117,641
56,115	-12,672	254,808	117,799
57,130	-12,274	254,840	118,148
58,144	-11,765	254,517	118,429
59,159	-12,082	254,495	118,133
60,174	-12,030	254,301	118,078
61,188	-11,970	253,934	117,948
62,203	-12,200	253,662	117,613
63,217	-12,065	253,494	117,641
64,232	-12,043	253,216	117,521
65,247	-12,012	253,052	117,461
66,261	-12,045	252,829	117,319
67,276	-12,268	252,392	116,914
68,290	-12,477	252,266	116,666
69,305	-12,676	252,081	116,399
70,320	-12,562	251,816	116,364
71,334	-12,296	251,650	116,505
72,349	-12,222	251,640	116,553
73,363	-11,865	251,388	116,731
74,378	-11,989	251,252	116,551
75,393	-12,008	250,867	116,346
76,407	-12,165	250,637	116,095
77,422	-12,175	250,500	116,013
78,436	-12,061	250,406	116,056
79,451	-11,983	250,018	115,932
80,466	-12,276	249,840	115,591
81,480	-12,186	249,538	115,517
82,495	-12,124	249,166	115,387
83,509	-12,346	249,211	115,210
84,524	-12,383	249,000	115,071
85,539	-12,618	248,785	114,762
86,553	-12,588	248,498	114,646
87,568	-12,546	248,415	114,632
88,582	-12,320	248,138	114,685
89,597	-12,578	248,022	114,403
90,611	-12,283	247,950	114,608
91,626	-12,030	247,661	114,677
92,641	-12,189	247,549	114,481
93,655	-12,177	247,202	114,320
94,670	-12,264	247,092	114,186
95,684	-12,404	246,933	113,986
96,699	-12,167	246,712	114,072
97,714	-12,282	246,521	113,877
98,728	-12,535	246,354	113,578
99,743	-12,571	245,935	113,346
100,757	-12,801	245,841	113,100
101,772	-12,646	245,588	113,103
102,787	-12,507	245,433	113,137
103,801	-12,469	245,280	113,088
104,816	-12,589	245,345	113,009
105,830	-12,215	245,107	113,199
106,845	-12,209	244,869	113,085
107,860	-12,075	244,563	113,043
108,874	-12,346	244,446	112,755
109,889	-12,455	244,213	112,547
110,903	-12,414	244,056	112,499
111,918	-12,305	243,920	112,517
112,933	-12,300	243,767	112,439
113,947	-12,302	243,525	112,316
114,962	-12,000	243,419	112,506
115,976	-12,036	243,149	112,342
116,991	-12,287	243,013	112,063
118,006	-12,385	242,704	111,829
119,020	-12,004	242,666	112,115
120,035	-12,231	242,652	111,912
121,049	-12,207	242,487	111,845
122,064	-11,880	242,169	111,957
123,079	-12,100	241,968	111,674
124,093	-12,127	241,652	111,496
125,108	-12,530	241,515	111,094
126,122	-12,713	241,299	110,835
127,137	-12,684	241,089	110,753
128,151	-12,772	241,067	110,661
129,166	-12,506	240,657	110,679
130,181	-12,460	240,569	110,666
131,195	-12,628	240,378	110,432
132,210	-12,325	240,324	110,643
133,224	-12,209	240,027	110,591
134,239	-12,266	240,024	110,534
135,254	-12,204	239,706	110,427
136,268	-12,306	239,585	110,280
137,283	-12,510	239,079	109,872
138,297	-12,472	238,735	109,735
139,312	-12,578	238,879	109,705
140,327	-12,285	238,837	109,912
141,341	-11,875	238,824	110,227
142,356	-11,785	238,614	110,193
143,370	-11,916	238,505	110,027
144,385	-11,572	238,296	110,198
145,400	-11,677	238,138	110,030
146,414	-11,714	237,887	109,875
147,429	-12,002	237,787	109,588
148,443	-12,041	237,476	109,404
149,458	-12,164	237,507	109,310
150,473	-12,077	237,357	109,301
151,487	-12,107	237,012	109,108
152,502	-11,833	236,964	109,295
153,516	-12,026	236,801	109,056
154,531	-11,730	236,397	109,096
155,546	-12,026	236,276	108,795
156,560	-12,087	236,174	108,690
157,575	-11,970	235,917	108,654
158,589	-12,048	235,784	108,522
159,604	-11,804	235,848	108,735
160,619	-11,558	235,413	108,720
161,633	-11,503	235,271	108,688
162,648	-11,939	235,403	108,394
163,662	-12,043	235,090	108,158
164,677	-11,979	234,899	108,111
165,692	-11,783	234,687	108,159
166,706	-11,744	234,621	108,150
167,721	-11,613	234,589	108,229
168,735	-11,604	234,311	108,098
169,750	-11,532	234,107	108,051
170,764	-11,646	233,925	107,867
171,779	-11,893	233,891	107,648
172,794	-11,772	233,839	107,709
173,808	-11,941	233,524	107,422
174,823	-12,402	233,116	106,863
175,837	-12,445	232,876	106,710
176,852	-12,088	232,883	106,984
177,867	-11,829	232,916	107,192
178,881	-11,701	232,706	107,186
179,896	-11,763	232,638	107,096
180,910	-11,778	232,546	107,033
181,925	-11,615	232,202	106,992
182,940	-11,630	232,037	106,895
183,954	-11,717	232,008	106,804
184,969	-11,705	231,857	106,734
185,983	-11,677	231,679	106,665
186,998	-11,615	231,575	106,656
188,013	-11,515	231,343	106,617
189,027	-11,468	231,097	106,530
190,042	-11,461	231,107	106,532
191,056	-11,529	230,879	106,364
192,071	-11,475	230,705	106,316
193,086	-11,567	230,517	106,149
194,100	-11,394	230,416	106,227
195,115	-11,459	230,158	106,048
196,129	-10,815	230,456	106,674
197,144	-5,411	232,255	111,706
198,159	-0,044	233,693	116,582
199,173	2,359	234,340	118,773
200,188	2,487	234,373	118,879
201,202	2,809	234,214	119,039
202,217	2,987	234,071	119,095
203,232	3,319	234,017	119,315
204,246	3,252	233,870	119,178
205,261	3,589	233,791	119,389
206,275	3,791	233,585	119,430
207,290	3,729	233,430	119,292
208,304	3,629	233,313	119,144
209,319	3,788	233,082	119,139
210,334	3,509	232,869	118,803
211,348	3,289	232,680	118,526
212,363	3,013	232,483	118,201
213,377	2,850	232,391	118,018
214,392	2,584	232,202	117,706
215,407	2,763	231,978	117,720
216,421	2,939	231,850	117,781
217,436	2,813	231,686	117,589
218,450	2,537	231,507	117,275
219,465	2,508	231,353	117,165
220,480	2,652	231,150	117,162
221,494	2,625	230,999	117,054
222,509	2,997	230,959	117,310
223,523	2,861	230,813	117,120
224,538	2,711	230,643	116,909
225,553	2,987	230,505	117,039
226,567	2,708	230,436	116,781
227,582	3,381	230,209	117,170
228,596	3,508	230,172	117,238
229,611	3,017	230,019	116,774
230,626	2,551	229,734	116,264
231,640	2,656	229,522	116,225
232,655	3,074	229,419	116,482
233,669	3,206	229,418	116,572
234,684	3,416	229,391	116,708
235,699	3,307	229,117	116,475
236,713	3,110	228,873	116,190
237,728	3,043	228,529	115,955
238,742	2,710	228,491	115,673
239,757	2,955	228,337	115,770
240,772	2,777	228,237	115,574
241,786	2,726	228,177	115,495
242,801	2,855	228,123	115,555
243,815	3,534	227,835	115,912
244,830	3,018	227,865	115,526
245,844	3,111	227,570	115,437
246,859	2,931	227,356	115,182
247,874	3,031	227,384	115,262
248,888	3,076	227,251	115,219
249,903	2,878	226,981	114,922
250,917	2,812	226,846	114,793
251,932	2,758	226,707	114,672
252,947	2,906	226,326	114,581
253,961	2,751	226,338	114,460
254,976	2,715	226,337	114,422
255,990	3,330	225,996	114,700
257,005	3,029	225,965	114,449
258,020	3,111	225,913	114,474
259,034	3,170	225,757	114,429
260,049	3,096	225,675	114,322
261,063	3,089	225,215	114,074
262,078	3,229	225,191	114,155
263,093	3,248	225,136	114,132
264,107	3,355	224,908	114,085
265,122	3,062	224,829	113,817
266,136	3,536	224,818	114,154
267,151	3,230	224,630	113,821
268,166	3,156	224,207	113,541
269,180	2,754	224,059	113,158
270,195	2,755	223,954	113,096
271,209	2,843	223,742	113,043
272,224	2,926	223,744	113,096
273,239	2,851	223,558	112,937
274,253	2,660	223,404	112,708
275,268	2,725	223,139	112,612
276,282	2,735	223,014	112,546
277,297	2,515	222,864	112,298
278,312	2,918	222,714	112,509
279,326	3,023	222,662	112,551
280,341	3,068	222,643	112,564
281,355	2,962	222,521	112,414
282,370	2,947	222,270	112,266
283,384	2,650	222,043	111,924
284,399	2,597	221,990	111,848
285,414	2,730	221,815	111,848
286,428	2,953	221,660	111,923
287,443	3,223	221,632	112,096
288,457	3,138	221,519	111,967
289,472	2,704	221,298	111,528
290,487	2,423	220,939	111,132
291,501	2,460	220,856	111,107
292,516	2,570	220,663	111,080
293,530	2,755	220,605	111,176
294,545	2,750	220,413	111,066
295,560	2,676	220,463	111,027
296,574	2,966	220,223	111,107
297,589	2,843	220,029	110,910
298,603	2,782	220,119	110,901
299,618	2,943	219,840	110,868
300,633	2,888	219,799	110,797
301,647	3,214	219,757	111,003
302,662	3,113	219,598	110,840
303,676	3,042	219,384	110,670
304,691	3,300	219,140	110,724
305,706	3,144	219,140	110,601
306,720	3,285	218,922	110,583
307,735	2,745	218,680	110,061
308,749	2,879	218,475	110,045
309,764	2,970	218,626	110,177
310,779	3,137	218,444	110,196
311,793	3,010	218,237	109,990
312,808	2,994	218,071	109,885
313,822	2,907	217,931	109,742
314,837	2,754	217,841	109,577
315,852	2,691	217,633	109,417
316,866	2,750	217,506	109,386
317,881	2,959	217,524	109,535
318,895	3,091	217,319	109,517
319,910	2,864	217,034	109,201
320,925	2,644	216,804	108,918
321,939	2,253	216,693	108,574
322,954	2,585	216,645	108,777
323,968	3,028	216,481	109,001
324,983	3,046	216,480	109,004
325,997	3,077	216,339	108,945
327,012	3,252	216,123	108,951
328,027	2,997	216,012	108,704
329,041	2,925	216,030	108,652
330,056	3,129	215,901	108,722
331,070	3,108	215,392	108,442
332,085	2,277	215,273	107,782
333,100	2,498	215,305	107,946
334,114	2,917	215,177	108,169
335,129	2,911	215,044	108,088
336,143	2,824	214,875	107,932
337,158	2,911	214,788	107,941
338,173	2,746	214,608	107,724
339,187	2,814	214,408	107,662
340,202	2,772	214,274	107,555
341,216	2,664	214,077	107,371
342,231	2,685	214,131	107,403
343,246	2,696	213,830	107,250
344,260	2,897	213,819	107,377
345,275	2,831	213,733	107,277
346,289	2,987	213,528	107,274
347,304	3,046	213,386	107,235
348,319	2,954	213,317	107,126
349,333	2,787	213,136	106,908
350,348	2,702	213,180	106,862
351,362	3,205	212,861	107,044
352,377	3,109	212,815	106,945
353,392	2,895	212,640	106,698
354,406	2,998	212,567	106,723
355,421	196,959	1335,179	1413,104
356,435	157,445	1471,901	1413,044
