DTS Sentinel unit serial number:	SN410029Multiplexer serial number:	ORYXHardware model number:	OX2-SRSoftware version number:	ORYX F/W v4,00 Oryx Data Collector v3.7.2.0data status	okinstallation	B6 Nyhavnadifferential loss correction	single-endedforward channel	channel 2reverse channel	N/Adate	2023/12/07time	19:10:08forward acquisition time	300,00reverse acquisition time	0,00gamma	499,1914k internal	0,3164k external	0,3164temperature offset calibration	1,0000default loss term (dB/km)	0,3820temperature slope calibration	1,0000multiplexer offset coefficient	1,0000multiplexer slope coefficient	1,0000fibre end	0,00T internal ref (°C)	14,08T ext. ref 1 (°C)	-2,95T ext. ref 2 (°C)	-2,97length (m)	temperature (°C)	Stokes	anti-Stokes-744,400	-200,000	-0,010	-0,087
-743,385	-138,317	-0,226	-0,018
-742,371	-108,467	0,122	0,019
-741,356	-67,473	-0,190	-0,054
-740,342	42,158	0,084	0,056
-739,327	43,497	-0,286	0,192
-738,312	178,831	0,100	0,108
-737,298	-37,856	-0,297	-0,116
-736,283	19,435	0,119	-0,070
-735,269	76,735	-0,237	-0,185
-734,254	-82,090	0,151	0,036
-733,239	-12,793	-0,440	-0,210
-732,225	-112,814	0,235	0,034
-731,210	-200,000	-0,005	0,018
-730,196	-72,063	-0,136	-0,037
-729,181	16,796	0,030	-0,017
-728,167	-200,000	-0,004	-0,094
-727,152	460,559	0,053	-0,087
-726,137	-145,718	-0,098	0,006
-725,123	800,000	-0,001	-0,003
-724,108	-37,937	0,038	0,015
-723,094	-104,687	-0,042	0,007
-722,079	307,293	-0,052	-0,071
-721,064	-37,840	-0,130	-0,050
-720,050	38,866	-0,060	-0,039
-719,035	-200,000	-0,005	-0,044
-718,021	62,708	-0,075	0,055
-717,006	-169,391	-0,173	0,005
-715,991	-200,000	-0,001	0,066
-714,977	138,240	0,109	-0,105
-713,962	30,406	-0,052	0,033
-712,948	800,000	0,013	-0,030
-711,933	-200,000	0,013	0,089
-710,918	174,572	-0,036	-0,038
-709,904	21,602	-0,123	-0,073
-708,889	800,000	-0,029	-0,081
-707,875	-138,286	0,103	0,008
-706,860	15,351	0,115	-0,066
-705,845	120,539	0,073	0,067
-704,831	800,000	0,035	0,089
-703,816	-96,571	-0,185	-0,036
-702,802	-200,000	0,014	0,137
-701,787	-159,670	-0,067	0,003
-700,772	70,870	0,094	-0,072
-699,758	-200,000	-0,006	-0,112
-698,743	800,000	0,011	-0,027
-697,729	122,066	-0,050	-0,045
-696,714	678,147	-0,041	0,078
-695,699	78,487	0,065	0,051
-694,685	-200,000	-0,009	-0,066
-693,670	-13,967	-0,110	-0,052
-692,656	-200,000	0,027	-0,108
-691,641	517,907	0,058	-0,099
-690,627	-152,291	0,199	0,010
-689,612	-200,000	0,019	0,145
-688,597	-82,171	0,070	0,017
-687,583	-44,710	-0,078	-0,028
-686,568	800,000	-0,033	-0,103
-685,554	800,000	-0,030	-0,078
-684,539	800,000	0,011	-0,028
-683,524	53,752	-0,106	0,075
-682,510	107,228	0,029	0,025
-681,495	-200,000	0,026	-0,143
-680,481	800,000	-0,067	-0,160
-679,466	-200,000	0,019	-0,155
-678,451	571,106	0,050	-0,089
-677,437	-56,567	-0,080	-0,026
-676,422	800,000	-0,045	-0,111
-675,408	175,950	-0,013	-0,014
-674,393	63,607	-0,013	-0,009
-673,378	220,961	-0,033	-0,039
-672,364	-47,060	-0,083	-0,030
-671,349	191,086	-0,087	-0,096
-670,335	800,000	0,048	-0,143
-669,320	-62,276	0,066	0,020
-668,305	70,513	0,077	0,058
-667,291	550,885	0,040	0,070
-666,276	56,524	0,080	-0,057
-665,262	67,301	-0,065	0,049
-664,247	193,594	0,068	0,075
-663,232	800,000	0,085	-0,174
-662,218	-170,467	0,050	-0,001
-661,203	-53,688	0,084	0,028
-660,189	-75,397	0,086	-0,022
-659,174	-23,772	-0,101	-0,044
-658,159	171,120	-0,066	-0,070
-657,145	142,897	-0,088	-0,086
-656,130	-200,000	0,019	0,079
-655,116	800,000	-0,045	0,131
-654,101	-200,000	0,019	0,112
-653,086	-200,000	0,004	0,013
-652,072	-200,000	-0,006	0,054
-651,057	169,595	0,071	-0,075
-650,043	416,621	-0,050	-0,079
-649,028	-30,626	0,109	0,045
-648,014	-200,000	-0,011	0,088
-646,999	-200,000	0,005	-0,027
-645,984	-200,000	-0,019	0,200
-644,970	-79,047	-0,128	-0,032
-643,955	-3,777	0,060	0,030
-642,941	325,021	-0,057	-0,080
-641,926	3,527	0,094	0,050
-640,911	474,807	0,014	-0,023
-639,897	457,986	0,027	-0,044
-638,882	-200,000	0,005	0,020
-637,868	290,947	-0,036	0,048
-636,853	800,000	-0,034	-0,104
-635,838	-27,584	-0,059	-0,025
-634,824	26,604	-0,054	-0,033
-633,809	-200,000	-0,015	0,073
-632,795	600,338	0,056	-0,102
-631,780	-200,000	0,022	0,081
-630,765	800,000	0,040	0,123
-629,751	-22,604	0,062	0,027
-628,736	-200,000	-0,001	0,039
-627,722	-200,000	0,018	-0,071
-626,707	-200,000	-0,019	0,108
-625,692	-200,000	0,013	0,194
-624,678	-200,000	0,011	0,052
-623,663	-200,000	-0,030	-0,127
-622,649	-194,277	-0,143	0,001
-621,634	233,869	0,025	0,030
-620,619	108,741	-0,061	0,054
-619,605	72,623	0,073	0,055
-618,590	-83,256	0,076	0,018
-617,576	-31,900	-0,153	-0,062
-616,561	-199,166	0,039	-0,000
-615,546	-152,877	-0,216	-0,011
-614,532	192,726	-0,119	-0,132
-613,517	-200,000	0,002	0,084
-612,503	800,000	-0,063	0,131
-611,488	634,419	0,042	-0,078
-610,474	800,000	0,069	0,155
-609,459	-200,000	0,013	0,101
-608,444	161,885	-0,063	0,065
-607,430	-100,690	-0,089	-0,016
-606,415	187,858	-0,056	-0,061
-605,401	-106,473	0,067	-0,011
-604,386	77,988	0,059	0,046
-603,371	103,817	-0,137	-0,117
-602,357	315,293	-0,048	0,067
-601,342	-62,928	-0,093	-0,028
-600,328	297,988	-0,083	-0,112
-599,313	483,860	0,047	-0,079
-598,298	72,110	0,029	-0,022
-597,284	44,750	-0,084	-0,056
-596,269	459,019	-0,020	0,033
-595,255	-61,603	-0,076	0,023
-594,240	38,060	0,051	0,033
-593,225	-200,000	-0,003	-0,013
-592,211	800,000	-0,006	-0,019
-591,196	403,723	0,088	0,136
-590,182	-200,000	0,014	-0,118
-589,167	346,941	0,053	-0,077
-588,152	800,000	-0,022	0,053
-587,138	-77,023	-0,075	-0,019
-586,123	-200,000	0,020	-0,072
-585,109	-7,120	-0,106	0,052
-584,094	-153,288	-0,042	-0,002
-583,079	-138,174	0,135	0,011
-582,065	-200,000	-0,013	0,051
-581,050	5,409	0,088	0,048
-580,036	323,678	-0,039	-0,055
-579,021	800,000	0,035	0,085
-578,006	-200,000	-0,025	0,088
-576,992	108,160	0,018	0,016
-575,977	257,559	0,045	-0,057
-574,963	619,208	0,007	-0,012
-573,948	800,000	0,043	0,139
-572,934	-31,211	-0,086	0,035
-571,919	410,972	-0,058	-0,091
-570,904	800,000	0,018	-0,049
-569,890	-132,751	0,044	-0,004
-568,875	-4,044	-0,055	-0,028
-567,861	-188,622	-0,066	-0,001
-566,846	-200,000	-0,001	0,144
-565,831	800,000	-0,069	0,188
-564,817	-37,254	0,061	0,024
-563,802	-200,000	-0,025	-0,114
-562,788	-200,000	0,032	0,114
-561,773	800,000	-0,039	-0,093
-560,758	-18,684	0,098	0,044
-559,744	800,000	-0,033	0,068
-558,729	61,689	-0,095	-0,069
-557,715	682,166	-0,028	-0,053
-556,700	673,416	0,052	-0,099
-555,685	101,198	-0,116	0,098
-554,671	-144,818	0,072	-0,005
-553,656	-66,142	0,120	0,035
-552,642	800,000	0,062	0,136
-551,627	-200,000	-0,021	0,096
-550,612	-146,541	0,101	-0,006
-549,598	325,961	0,063	0,089
-548,583	-200,000	-0,063	0,253
-547,569	-200,000	-0,008	0,027
-546,554	209,793	-0,094	-0,108
-545,539	369,887	-0,069	0,102
-544,525	-200,000	0,013	-0,117
-543,510	152,690	-0,068	-0,068
-542,496	166,549	-0,013	-0,013
-541,481	-200,000	0,035	-0,148
-540,466	800,000	0,030	0,090
-539,452	385,287	0,022	-0,034
-538,437	-132,223	0,098	0,009
-537,423	-200,000	-0,003	-0,153
-536,408	800,000	-0,055	-0,129
-535,393	216,151	-0,199	0,231
-534,379	-77,924	0,065	0,016
-533,364	-200,000	-0,008	-0,132
-532,350	-78,585	0,196	-0,048
-531,335	97,763	0,063	0,053
-530,321	-200,000	-0,007	0,064
-529,306	99,103	0,027	0,023
-528,291	-200,000	-0,014	-0,066
-527,277	-200,000	-0,002	-0,022
-526,262	-37,042	-0,088	0,034
-525,248	-106,504	0,088	-0,014
-524,233	374,617	-0,108	-0,161
-523,218	134,080	-0,071	-0,068
-522,204	-121,620	-0,066	-0,008
-521,189	-200,000	0,036	-0,173
-520,175	-200,000	-0,009	-0,064
-519,160	511,558	-0,118	-0,201
-518,145	800,000	0,029	0,072
-517,131	47,184	-0,136	-0,092
-516,116	698,587	0,027	-0,052
-515,102	-200,000	0,001	-0,139
-514,087	-114,402	-0,102	0,014
-513,072	-200,000	0,007	0,043
-512,058	-200,000	0,007	-0,111
-511,043	103,558	-0,043	-0,037
-510,029	-30,149	-0,076	0,031
-509,014	-78,808	0,223	-0,055
-507,999	-200,000	0,010	0,114
-506,985	244,117	0,057	-0,070
-505,970	-10,149	-0,055	0,026
-504,956	800,000	-0,021	-0,054
-503,941	205,706	0,086	-0,097
-502,926	-200,000	0,039	-0,132
-501,912	-72,898	-0,065	0,017
-500,897	38,451	0,058	0,037
-499,883	-114,673	0,073	0,010
-498,868	47,594	-0,042	0,028
-497,853	-155,069	0,167	-0,008
-496,839	-200,000	0,017	-0,091
-495,824	800,000	0,061	0,160
-494,810	800,000	-0,008	0,025
-493,795	99,617	-0,162	0,137
-492,781	618,067	-0,054	0,099
-491,766	73,522	0,069	-0,052
-490,751	218,939	0,049	-0,057
-489,737	582,146	0,049	0,088
-488,722	-36,368	0,035	0,014
-487,708	-200,000	0,001	-0,048
-486,693	175,230	-0,058	0,061
-485,678	800,000	0,031	-0,082
-484,664	696,793	0,015	-0,029
-483,649	-67,067	-0,082	-0,023
-482,635	589,434	0,052	-0,095
-481,620	45,132	0,123	0,083
-480,605	800,000	0,032	0,091
-479,591	84,488	0,121	-0,096
-478,576	-51,978	-0,176	-0,059
-477,562	174,086	0,094	-0,099
-476,547	-75,600	-0,090	0,023
-475,532	-200,000	0,017	-0,111
-474,518	800,000	-0,050	0,116
-473,503	-200,000	0,021	0,125
-472,489	61,990	-0,061	0,044
-471,474	378,671	-0,070	-0,104
-470,459	-200,000	-0,020	-0,168
-469,445	98,832	0,123	-0,103
-468,430	106,494	0,076	0,066
-467,416	252,700	-0,071	0,088
-466,401	-132,513	0,193	-0,018
-465,386	82,126	-0,070	0,055
-464,372	76,295	-0,166	0,128
-463,357	-82,688	-0,072	0,017
-462,343	250,444	-0,108	0,134
-461,328	153,146	0,054	-0,054
-460,313	70,466	0,098	-0,074
-459,299	321,207	0,060	0,083
-458,284	380,534	0,100	0,149
-457,270	-58,696	0,146	-0,046
-456,255	-200,000	-0,005	-0,017
-455,241	23,925	-0,086	-0,051
-454,226	37,640	0,057	-0,037
-453,211	14,712	0,019	-0,011
-452,197	-200,000	-0,006	-0,092
-451,182	-98,807	0,183	-0,034
-450,168	-44,603	-0,081	0,029
-449,153	800,000	0,025	-0,062
-448,138	800,000	0,044	-0,092
-447,124	4,718	0,117	-0,062
-446,109	-200,000	0,030	0,104
-445,095	145,848	-0,052	-0,051
-444,080	800,000	0,053	0,110
-443,065	228,606	-0,057	-0,067
-442,051	251,622	-0,055	0,068
-441,036	800,000	-0,063	-0,128
-440,022	800,000	-0,036	0,077
-439,007	183,446	0,053	-0,057
-437,992	-200,000	0,027	0,124
-436,978	-200,000	-0,001	-0,052
-435,963	28,743	-0,108	0,066
-434,949	397,618	0,064	-0,098
-433,934	-82,639	-0,077	0,018
-432,919	-141,290	-0,131	0,010
-431,905	-73,225	0,110	-0,029
-430,890	103,931	0,118	-0,101
-429,876	-200,000	0,000	-0,018
-428,861	-20,572	-0,160	-0,071
-427,846	800,000	0,022	-0,053
-426,832	43,599	0,038	0,025
-425,817	-35,168	-0,049	0,019
-424,803	83,914	-0,067	-0,053
-423,788	-58,973	0,031	-0,010
-422,773	-200,000	0,032	0,129
-421,759	-123,112	0,148	-0,017
-420,744	-0,061	-0,104	0,053
-419,730	-12,105	-0,080	-0,038
-418,715	131,271	-0,081	-0,076
-417,701	-200,000	-0,003	-0,074
-416,686	-53,549	0,068	0,022
-415,671	-200,000	-0,019	0,106
-414,657	-200,000	0,006	0,090
-413,642	800,000	-0,027	-0,065
-412,628	-200,000	0,012	-0,043
-411,613	-87,013	-0,080	0,018
-410,598	-200,000	-0,014	-0,083
-409,584	-200,000	-0,011	0,059
-408,569	-169,865	0,090	0,002
-407,555	-200,000	0,029	0,105
-406,540	-200,000	-0,019	0,104
-405,525	-25,966	0,096	-0,041
-404,511	-200,000	0,004	-0,072
-403,496	-148,012	0,035	-0,002
-402,482	-16,065	0,108	-0,050
-401,467	166,749	0,056	-0,058
-400,452	758,532	0,098	0,193
-399,438	-74,619	0,026	-0,007
-398,423	-200,000	-0,050	0,164
-397,409	800,000	0,035	-0,099
-396,394	661,085	0,025	0,046
-395,379	-3,248	-0,030	-0,015
-394,365	800,000	-0,028	-0,063
-393,350	345,073	0,094	-0,134
-392,336	-109,599	-0,086	0,013
-391,321	800,000	-0,026	-0,077
-390,306	686,129	0,029	-0,055
-389,292	232,428	0,087	0,104
-388,277	800,000	0,012	0,036
-387,263	-200,000	0,006	0,051
-386,248	800,000	-0,020	0,060
-385,233	208,400	0,085	-0,096
-384,219	4,904	0,033	-0,018
-383,204	-200,000	-0,018	0,122
-382,190	800,000	-0,093	-0,196
-381,175	-200,000	0,003	-0,084
-380,160	-30,212	0,122	0,050
-379,146	800,000	-0,050	0,134
-378,131	380,931	-0,053	0,079
-377,117	800,000	-0,105	-0,236
-376,102	-200,000	-0,017	0,113
-375,088	800,000	0,028	0,077
-374,073	-200,000	0,006	-0,038
-373,058	-200,000	-0,019	0,156
-372,044	800,000	-0,005	-0,013
-371,029	-200,000	-0,006	0,083
-370,015	-200,000	0,017	0,064
-369,000	-185,790	0,129	0,001
-367,985	312,790	-0,091	0,125
-366,971	88,591	0,059	0,048
-365,956	-200,000	0,002	0,019
-364,942	-112,416	0,080	0,012
-363,927	-59,464	0,133	0,041
-362,912	-200,000	-0,005	0,058
-361,898	20,068	0,144	-0,084
-360,883	172,010	-0,027	-0,029
-359,869	-164,080	0,083	0,003
-358,854	-76,470	-0,103	0,026
-357,839	-200,000	-0,009	0,108
-356,825	-200,000	-0,006	0,055
-355,810	-174,261	-0,070	0,001
-354,796	-200,000	-0,026	-0,164
-353,781	33,008	-0,076	0,048
-352,766	-91,423	0,039	-0,008
-351,752	314,014	0,031	-0,042
-350,737	-200,000	-0,030	0,268
-349,723	-101,270	-0,097	0,017
-348,708	9,619	-0,186	0,102
-347,693	210,500	0,030	0,034
-346,679	99,629	-0,096	-0,081
-345,664	-200,000	0,022	-0,159
-344,650	-129,142	0,036	0,004
-343,635	-42,031	0,116	0,043
-342,620	91,694	0,100	0,082
-341,606	800,000	-0,014	0,031
-340,591	-200,000	0,008	-0,044
-339,577	51,215	-0,068	0,047
-338,562	135,153	-0,052	0,049
-337,548	-28,513	-0,024	-0,010
-336,533	201,526	0,070	0,078
-335,518	800,000	0,027	0,070
-334,504	-93,311	-0,042	-0,008
-333,489	-61,022	0,190	-0,058
-332,475	-200,000	0,008	-0,062
-331,460	8,052	-0,056	-0,030
-330,445	-75,984	0,025	0,006
-329,431	144,451	-0,088	-0,085
-328,416	572,989	0,073	0,130
-327,402	-60,298	-0,065	0,020
-326,387	515,100	0,073	0,124
-325,372	-96,449	-0,124	-0,024
-324,358	-113,612	-0,118	-0,016
-323,343	763,360	0,027	-0,053
-322,329	117,540	0,058	0,052
-321,314	267,134	0,031	0,040
-320,299	800,000	-0,022	-0,062
-319,285	1,788	0,137	-0,071
-318,270	-57,975	-0,033	0,010
-317,256	156,778	-0,047	-0,047
-316,241	800,000	0,031	-0,081
-315,226	549,733	-0,038	-0,066
-314,212	800,000	0,025	0,067
-313,197	56,778	0,093	0,066
-312,183	2,029	0,110	-0,057
-311,168	800,000	-0,029	-0,072
-310,153	800,000	-0,022	0,046
-309,139	368,303	0,051	-0,075
-308,124	-200,000	-0,024	0,205
-307,110	398,285	-0,030	0,045
-306,095	-44,237	0,038	-0,014
-305,080	800,000	0,023	-0,063
-304,066	-200,000	0,000	-0,077
-303,051	-200,000	0,034	-0,121
-302,037	65,039	-0,059	0,043
-301,022	-85,243	0,042	0,009
-300,008	207,471	0,032	-0,036
-298,993	53,008	-0,163	-0,112
-297,978	-55,914	-0,165	0,053
-296,964	746,117	-0,058	0,114
-295,949	150,209	0,084	-0,083
-294,935	8,662	-0,147	-0,080
-293,920	233,374	0,023	0,028
-292,905	800,000	-0,061	0,128
-291,891	13,725	0,043	-0,024
-290,876	800,000	0,043	0,116
-289,862	98,090	0,037	0,030
-288,847	800,000	0,025	-0,071
-287,832	441,052	-0,050	-0,079
-286,818	-200,000	0,003	0,181
-285,803	800,000	-0,040	-0,093
-284,789	800,000	-0,042	0,090
-283,774	-53,480	0,204	-0,067
-282,759	-200,000	0,004	0,041
-281,745	183,179	-0,064	-0,069
-280,730	-200,000	0,010	-0,192
-279,716	481,867	0,071	-0,117
-278,701	283,567	-0,045	-0,058
-277,686	177,737	0,053	-0,056
-276,672	525,744	0,042	-0,072
-275,657	-42,663	-0,066	-0,024
-274,643	800,000	0,016	-0,040
-273,628	800,000	-0,044	-0,093
-272,613	-188,162	-0,064	0,001
-271,599	149,207	0,019	0,019
-270,584	-200,000	-0,011	-0,110
-269,570	800,000	-0,013	0,032
-268,555	233,598	-0,029	0,034
-267,540	534,970	-0,029	0,050
-266,526	115,389	0,143	0,127
-265,511	701,692	0,091	0,175
-264,497	19,898	0,061	0,035
-263,482	170,131	-0,076	-0,079
-262,467	0,526	-0,071	0,037
-261,453	-81,643	-0,152	0,036
-260,438	-200,000	0,021	0,076
-259,424	52,248	-0,078	-0,054
-258,409	-77,251	-0,113	-0,028
-257,395	250,102	0,080	-0,098
-256,380	351,890	0,067	0,097
-255,365	53,952	0,045	0,031
-254,351	0,366	-0,036	0,018
-253,336	-58,007	-0,133	0,042
-252,322	258,391	-0,092	-0,115
-251,307	412,011	0,051	0,078
-250,292	-66,454	-0,095	0,027
-249,278	365,704	0,073	-0,107
-248,263	800,000	0,046	0,119
-247,249	-145,197	0,006	-0,000
-246,234	800,000	0,018	-0,044
-245,219	-84,490	-0,046	0,010
-244,205	185,763	-0,056	-0,060
-243,190	-52,549	0,073	0,024
-242,176	-45,715	0,083	-0,029
-241,161	-96,023	-0,056	-0,011
-240,146	-1,509	-0,152	-0,077
-239,132	170,613	0,054	0,056
-238,117	667,008	-0,023	-0,043
-237,103	-200,000	-0,003	-0,086
-236,088	110,604	0,069	0,060
-235,073	-126,673	0,100	-0,011
-234,059	115,348	-0,014	0,012
-233,044	3,899	0,065	0,034
-232,030	-78,091	-0,035	-0,009
-231,015	32,557	-0,090	-0,056
-230,000	-8,279	-0,096	-0,046
-228,986	-163,335	-0,079	0,003
-227,971	56,351	0,092	-0,064
-226,957	-200,000	0,058	-0,189
-225,942	-113,470	-0,061	0,008
-224,927	-31,607	0,076	-0,031
-223,913	-67,560	-0,163	0,046
-222,898	172,592	-0,042	0,044
-221,884	-74,073	-0,073	-0,019
-220,869	-120,265	0,176	0,021
-219,855	330,860	0,022	0,031
-218,840	226,153	0,099	0,116
-217,825	695,705	0,014	0,027
-216,811	262,526	0,031	-0,039
-215,796	-200,000	-0,013	-0,060
-214,782	81,361	-0,041	0,032
-213,767	140,677	-0,068	-0,064
-212,752	-41,715	-0,018	-0,007
-211,738	528,495	0,027	0,046
-210,723	332,074	-0,054	0,075
-209,709	-200,000	0,013	-0,084
-208,694	315,678	0,045	0,061
-207,679	-73,205	-0,061	-0,016
-206,665	800,000	0,024	-0,062
-205,650	97,768	0,055	0,046
-204,636	-4,837	0,089	0,044
-203,621	-126,875	-0,053	0,006
-202,606	37,571	0,115	-0,074
-201,592	-200,000	0,005	0,070
-200,577	80,044	-0,059	-0,045
-199,563	181,304	0,058	-0,061
-198,548	188,243	-0,011	0,012
-197,533	109,580	0,033	-0,028
-196,519	-143,196	-0,080	0,005
-195,504	-200,000	-0,031	-0,116
-194,490	-38,005	0,100	-0,038
-193,475	-71,072	-0,158	-0,042
-192,460	-200,000	0,001	0,045
-191,446	800,000	0,022	-0,069
-190,431	-37,288	-0,160	-0,061
-189,417	800,000	0,066	0,196
-188,402	-200,000	0,009	-0,075
-187,387	800,000	-0,011	-0,023
-186,373	718,942	-0,076	-0,145
-185,358	-49,455	0,029	0,010
-184,344	800,000	0,025	0,063
-183,329	79,387	0,091	-0,070
-182,315	292,323	-0,069	-0,091
-181,300	-12,754	-0,069	0,032
-180,285	461,736	0,057	-0,092
-179,271	403,099	-0,054	-0,082
-178,256	800,000	-0,011	0,024
-177,242	3,270	-0,090	0,047
-176,227	336,675	0,045	-0,064
-175,212	61,116	0,121	0,086
-174,198	225,084	0,025	0,029
-173,183	725,996	-0,048	-0,093
-172,169	-200,000	0,002	-0,041
-171,154	800,000	0,045	0,121
-170,139	-200,000	0,012	0,119
-169,125	121,446	0,084	-0,076
-168,110	-200,000	0,030	0,212
-167,096	491,113	-0,085	0,141
-166,081	128,415	-0,070	-0,064
-165,066	800,000	0,055	-0,156
-164,052	800,000	-0,070	-0,143
-163,037	800,000	0,027	0,057
-162,023	30,391	0,040	0,024
-161,008	134,215	-0,042	0,039
-159,993	459,155	0,049	0,078
-158,979	-200,000	-0,005	0,039
-157,964	-110,789	-0,023	0,003
-156,950	-56,073	-0,153	-0,049
-155,935	-150,165	0,094	0,005
-154,920	-25,856	0,123	0,052
-153,906	-131,954	0,131	-0,012
-152,891	-117,265	0,148	-0,019
-151,877	-200,000	0,019	-0,108
-150,862	592,555	-0,062	-0,110
-149,847	-135,283	0,045	-0,004
-148,833	-138,302	-0,109	0,009
-147,818	-8,849	0,099	0,047
-146,804	-109,291	0,156	0,023
-145,789	-166,841	0,095	-0,003
-144,775	180,129	-0,065	-0,069
-143,760	-81,898	-0,112	-0,026
-142,745	354,990	0,102	0,147
-141,731	-36,903	-0,091	-0,035
-140,716	-42,298	0,119	-0,043
-139,702	-200,000	-0,013	0,166
-138,687	-200,000	0,012	0,040
-137,672	-200,000	0,004	0,070
-136,658	-80,164	-0,058	0,014
-135,643	800,000	0,062	-0,151
-134,629	107,453	0,126	-0,108
-133,614	284,964	-0,064	0,084
-132,599	82,279	0,060	0,046
-131,585	-96,401	0,126	0,024
-130,570	83,396	-0,112	0,087
-129,556	-200,000	0,001	-0,086
-128,541	14,114	-0,107	0,060
-127,526	-30,328	0,120	0,049
-126,512	311,919	-0,017	-0,023
-125,497	800,000	0,018	0,041
-124,483	-200,000	0,005	-0,061
-123,468	168,658	0,065	-0,067
-122,453	-47,312	-0,114	0,040
-121,439	116,719	-0,049	-0,043
-120,424	-42,253	0,106	0,039
-119,410	79,509	0,052	0,040
-118,395	451,620	0,044	0,070
-117,380	-66,807	-0,066	-0,019
-116,366	-200,000	0,023	-0,101
-115,351	-88,409	-0,174	-0,037
-114,337	238,779	-0,064	-0,077
-113,322	730,128	-0,026	-0,050
-112,307	-16,034	0,032	-0,015
-111,293	-132,000	-0,041	-0,004
-110,278	53,827	0,044	-0,031
-109,264	8,148	-0,025	-0,013
-108,249	-189,474	-0,129	-0,001
-107,234	-92,246	0,043	-0,009
-106,220	-200,000	0,006	-0,096
-105,205	-200,000	0,002	-0,049
-104,191	84,999	-0,040	-0,031
-103,176	-186,355	-0,125	0,001
-102,162	16,043	0,039	0,022
-101,147	12,387	-0,110	0,061
-100,132	316,266	0,029	-0,039
-99,118	-118,941	-0,108	0,013
-98,103	167,247	0,092	0,093
-97,089	-200,000	-0,002	-0,068
-96,074	-105,662	0,076	0,012
-95,059	-200,000	-0,008	-0,035
-94,045	-200,000	0,000	0,006
-93,030	-48,176	0,136	-0,047
-92,016	-200,000	-0,009	0,110
-91,001	470,719	0,059	-0,096
-89,986	-200,000	0,033	0,154
-88,972	565,251	0,042	-0,072
-87,957	386,431	-0,044	0,066
-86,943	-5,557	0,162	0,080
-85,928	-86,157	-0,188	-0,041
-84,913	288,604	0,047	-0,061
-83,899	-200,000	-0,020	0,074
-82,884	-200,000	0,008	0,050
-81,870	-66,564	-0,028	0,008
-80,855	118,357	0,144	0,127
-79,840	-200,000	0,013	-0,157
-78,826	148,450	-0,110	0,107
-77,811	-137,306	-0,029	0,002
-76,797	800,000	0,067	-0,169
-75,782	-200,000	0,019	0,117
-74,767	-67,605	0,165	0,046
-73,753	-192,028	0,123	-0,001
-72,738	42,999	-0,079	0,052
-71,724	800,000	-0,020	-0,043
-70,709	-56,708	-0,114	-0,036
-69,694	202,241	-0,067	-0,074
-68,680	-58,578	-0,033	0,010
-67,665	800,000	0,030	0,073
-66,651	-71,721	0,023	0,006
-65,636	203,493	0,060	0,066
-64,622	162,909	-0,048	0,049
-63,607	192,797	-0,132	-0,143
-62,592	150,114	-0,063	0,061
-61,578	148,827	-0,015	0,014
-60,563	106,638	0,138	0,117
-59,549	91,308	0,039	0,032
-58,534	24,832	-2,128	-1,260
-57,519	-200,000	-0,073	-0,738
-56,505	-200,000	-1,313	-5,025
-55,490	45,172	0,989	0,652
-54,476	800,000	5,384	11,990
-53,461	-200,000	18,157	298,532
-52,446	800,000	732,575	2243,493
-51,432	529,597	1645,993	2794,761
-50,417	107,308	1633,778	1391,014
-49,403	71,248	1284,624	953,306
-48,388	30,052	1025,381	624,880
-47,373	19,679	987,671	567,777
-46,359	17,619	975,117	553,808
-45,344	14,369	971,360	541,050
-44,330	14,732	969,779	541,331
-43,315	14,097	967,741	538,105
-42,300	14,116	966,725	537,581
-41,286	14,122	965,714	537,017
-40,271	14,135	964,872	536,569
-39,257	14,142	963,918	536,043
-38,242	14,127	963,165	535,552
-37,227	14,157	962,484	535,252
-36,213	14,087	961,589	534,504
-35,198	14,060	960,671	533,886
-34,184	14,150	959,926	533,740
-33,169	14,026	959,043	532,831
-32,154	14,136	957,883	532,517
-31,140	14,120	957,023	531,966
-30,125	14,125	956,445	531,642
-29,111	14,100	955,552	531,041
-28,096	14,129	954,872	530,737
-27,082	14,100	954,296	530,302
-26,067	14,146	953,586	530,036
-25,052	14,163	952,476	529,451
-24,038	14,131	951,907	529,011
-23,023	14,072	951,378	528,507
-22,009	14,151	950,763	528,398
-20,994	14,109	950,026	527,833
-19,979	14,098	949,635	527,559
-18,965	14,069	948,890	527,033
-17,950	14,131	948,250	526,853
-16,936	14,104	947,563	526,367
-15,921	14,050	946,963	525,838
-14,906	14,000	946,071	525,163
-13,892	14,041	945,560	524,989
-12,877	13,990	944,994	524,492
-11,863	14,001	944,328	524,138
-10,848	14,007	943,889	523,890
-9,833	14,129	943,288	523,925
-8,819	14,058	942,635	523,315
-7,804	14,023	941,945	522,802
-6,790	14,012	941,301	522,387
-5,775	13,967	940,944	522,027
-4,760	14,069	940,194	521,911
-3,746	13,981	939,662	521,319
-2,731	13,882	938,956	520,595
-1,717	13,727	938,550	519,860
-0,702	13,885	937,536	519,776
0,313	13,673	936,798	519,483
1,327	16,907	934,972	528,582
2,342	25,874	786,942	468,417
3,356	21,944	442,783	257,742
4,371	-7,317	295,711	142,875
5,386	-11,076	277,550	130,524
6,400	-12,257	271,759	126,693
7,415	-12,291	269,402	125,552
8,429	-12,544	268,157	124,728
9,444	-12,451	267,151	124,334
10,459	-12,573	266,452	123,887
11,473	-12,738	265,830	123,437
12,488	-12,647	265,235	123,232
13,502	-12,899	264,695	122,742
14,517	-12,842	264,424	122,657
15,531	-12,803	263,909	122,442
16,546	-12,444	263,407	122,522
17,561	-12,736	263,229	122,165
18,575	-12,596	262,882	122,119
19,590	-12,671	262,543	121,883
20,604	-12,620	262,054	121,691
21,619	-12,909	262,027	121,409
22,634	-12,642	261,447	121,368
23,648	-12,863	261,223	121,056
24,663	-12,581	260,993	121,190
25,677	-12,836	260,785	120,855
26,692	-12,740	260,351	120,729
27,707	-12,597	260,223	120,786
28,721	-12,643	259,762	120,520
29,736	-12,693	259,487	120,338
30,750	-12,797	259,333	120,163
31,765	-12,698	259,097	120,131
32,780	-12,733	258,878	119,987
33,794	-12,897	258,665	119,734
34,809	-12,845	258,451	119,670
35,823	-12,772	258,058	119,541
36,838	-12,816	257,876	119,408
37,853	-12,730	257,618	119,354
38,867	-12,680	257,414	119,292
39,882	-12,673	257,195	119,186
40,896	-12,773	256,945	118,972
41,911	-12,722	256,637	118,864
42,926	-12,862	256,600	118,713
43,940	-12,826	256,155	118,528
44,955	-13,007	256,038	118,305
45,969	-12,802	255,617	118,279
46,984	-13,048	255,519	118,009
47,999	-13,200	255,467	117,842
49,013	-13,532	255,103	117,374
50,028	-13,487	254,631	117,186
51,042	-13,373	254,539	117,232
52,057	-13,555	254,228	116,921
53,071	-13,558	254,136	116,866
54,086	-13,401	253,893	116,879
55,101	-13,102	253,651	117,016
56,115	-13,206	253,661	116,920
57,130	-12,785	253,506	117,202
58,144	-12,858	253,386	117,072
59,159	-12,553	252,910	117,105
60,174	-12,516	252,724	117,041
61,188	-12,688	252,598	116,824
62,203	-12,567	252,415	116,832
63,217	-12,856	252,361	116,549
64,232	-12,611	252,004	116,583
65,247	-12,426	251,624	116,556
66,261	-12,602	251,454	116,316
67,276	-12,822	251,346	116,068
68,290	-12,909	250,927	115,790
69,305	-13,171	250,717	115,459
70,320	-13,091	250,716	115,517
71,334	-12,774	250,552	115,700
72,349	-12,696	250,289	115,636
73,363	-12,676	250,116	115,562
74,378	-12,614	249,962	115,533
75,393	-12,686	249,678	115,331
76,407	-12,709	249,389	115,168
77,422	-12,586	249,342	115,240
78,436	-12,729	249,115	115,004
79,451	-12,795	248,878	114,828
80,466	-12,786	248,571	114,684
81,480	-12,939	248,398	114,464
82,495	-12,849	248,163	114,422
83,509	-12,924	248,015	114,281
84,524	-13,051	247,823	114,075
85,539	-13,008	247,558	113,978
86,553	-12,993	247,433	113,924
87,568	-13,069	247,334	113,804
88,582	-13,151	247,103	113,619
89,597	-12,873	246,823	113,713
90,611	-12,697	246,681	113,785
91,626	-12,630	246,493	113,743
92,641	-12,720	246,415	113,622
93,655	-12,708	246,046	113,452
94,670	-12,807	245,870	113,278
95,684	-12,821	245,666	113,163
96,699	-12,892	245,533	113,032
97,714	-12,881	245,412	112,975
98,728	-12,973	245,076	112,734
99,743	-12,916	244,883	112,683
100,757	-13,240	244,620	112,283
101,772	-13,003	244,492	112,411
102,787	-13,022	244,270	112,283
103,801	-12,933	244,176	112,304
104,816	-12,946	244,063	112,230
105,830	-12,776	243,775	112,229
106,845	-12,722	243,728	112,241
107,860	-12,757	243,510	112,102
108,874	-12,866	243,263	111,888
109,889	-12,913	242,994	111,717
110,903	-12,908	242,793	111,618
111,918	-12,912	242,675	111,550
112,933	-12,907	242,501	111,465
113,947	-12,691	242,338	111,557
114,962	-12,767	242,233	111,437
115,976	-12,784	241,997	111,304
116,991	-12,882	241,787	111,117
118,006	-12,834	241,636	111,077
119,020	-12,867	241,528	110,991
120,035	-12,883	241,400	110,909
121,049	-12,661	241,233	111,004
122,064	-12,830	241,077	110,784
123,079	-12,954	240,883	110,584
124,093	-12,847	240,664	110,561
125,108	-12,959	240,203	110,248
126,122	-12,952	239,981	110,143
127,137	-13,126	239,911	109,959
128,151	-13,131	239,835	109,910
129,166	-12,928	239,726	110,015
130,181	-13,011	239,440	109,807
131,195	-13,177	239,166	109,537
132,210	-12,860	239,122	109,764
133,224	-12,782	238,855	109,694
134,239	-12,956	238,919	109,573
135,254	-12,899	238,694	109,506
136,268	-12,960	238,220	109,230
137,283	-13,275	238,197	108,956
138,297	-13,254	238,013	108,879
139,312	-13,389	237,679	108,608
140,327	-13,001	237,695	108,917
141,341	-12,719	237,672	109,123
142,356	-12,346	237,386	109,282
143,370	-12,571	237,062	108,943
144,385	-12,490	237,101	109,016
145,400	-12,574	236,975	108,881
146,414	-12,592	236,794	108,773
147,429	-12,705	236,629	108,597
148,443	-12,538	236,338	108,587
149,458	-12,573	236,292	108,529
150,473	-12,484	236,034	108,471
151,487	-12,849	235,980	108,146
152,502	-12,844	235,716	108,020
153,516	-12,822	235,631	107,989
154,531	-12,825	235,284	107,818
155,546	-12,609	235,169	107,927
156,560	-12,837	235,042	107,678
157,575	-12,731	234,659	107,576
158,589	-12,732	234,652	107,563
159,604	-12,497	234,415	107,631
160,619	-12,294	234,290	107,725
161,633	-12,389	234,131	107,567
162,648	-12,465	233,989	107,432
163,662	-12,482	233,904	107,369
164,677	-12,788	233,825	107,082
165,692	-12,719	233,662	107,053
166,706	-12,390	233,452	107,206
167,721	-12,359	233,337	107,168
168,735	-12,430	233,216	107,047
169,750	-12,410	233,003	106,955
170,764	-12,392	232,985	106,952
171,779	-12,617	232,754	106,659
172,794	-12,633	232,658	106,593
173,808	-12,765	232,260	106,299
174,823	-13,064	231,949	105,913
175,837	-13,086	231,857	105,845
176,852	-12,542	231,922	106,289
177,867	-12,585	231,714	106,151
178,881	-12,599	231,539	106,051
179,896	-12,567	231,317	105,964
180,910	-12,564	231,254	105,929
181,925	-12,702	231,143	105,761
182,940	-12,576	230,978	105,774
183,954	-12,376	230,834	105,854
184,969	-12,331	230,610	105,777
185,983	-12,301	230,424	105,705
186,998	-12,251	230,343	105,698
188,013	-12,520	230,328	105,473
189,027	-12,301	229,972	105,470
190,042	-12,403	229,811	105,307
191,056	-12,526	229,692	105,149
192,071	-12,535	229,626	105,102
193,086	-12,626	229,357	104,899
194,100	-12,471	229,167	104,923
195,115	-12,851	228,929	104,512
196,129	-12,961	228,761	104,341
197,144	-7,284	230,620	109,578
198,159	-2,047	232,329	114,457
199,173	1,458	233,261	117,638
200,188	2,196	233,258	118,201
201,202	1,986	233,140	117,967
202,217	2,114	232,759	117,863
203,232	2,161	232,792	117,906
204,246	2,241	232,581	117,851
205,261	2,392	232,447	117,889
206,275	2,578	232,391	117,994
207,290	2,370	232,298	117,775
208,304	2,498	232,044	117,735
209,319	2,535	231,888	117,674
210,334	2,481	231,707	117,530
211,348	2,241	231,450	117,204
212,363	1,847	231,277	116,803
213,377	1,728	231,114	116,618
214,392	1,548	230,899	116,361
215,407	1,905	230,904	116,628
216,421	2,131	230,577	116,626
217,436	1,751	230,450	116,259
218,450	1,654	230,255	116,076
219,465	1,726	230,042	116,014
220,480	1,682	229,957	115,927
221,494	1,634	229,951	115,877
222,509	1,920	229,748	115,983
223,523	1,832	229,602	115,832
224,538	1,728	229,503	115,691
225,553	1,751	229,319	115,606
226,567	1,875	229,159	115,610
227,582	2,091	229,150	115,760
228,596	2,315	229,037	115,863
229,611	2,086	228,802	115,559
230,626	1,641	228,468	115,042
231,640	1,705	228,275	114,983
232,655	2,140	228,245	115,288
233,669	2,109	228,218	115,241
234,684	2,457	228,204	115,487
235,699	2,187	228,083	115,212
236,713	1,994	227,704	114,864
237,728	2,083	227,416	114,775
238,742	1,684	227,292	114,401
239,757	1,942	227,276	114,577
240,772	1,696	227,039	114,262
241,786	1,768	226,922	114,248
242,801	1,966	226,853	114,352
243,815	2,429	226,799	114,664
244,830	2,363	226,605	114,505
245,844	1,766	226,555	114,020
246,859	1,912	226,281	113,982
247,874	2,091	226,137	114,034
248,888	2,136	226,027	114,002
249,903	2,029	225,864	113,830
250,917	2,021	225,488	113,624
251,932	2,043	225,389	113,580
252,947	1,655	225,242	113,206
253,961	1,569	225,096	113,058
254,976	1,508	225,077	112,992
255,990	2,155	224,914	113,384
257,005	2,048	224,834	113,254
258,020	2,183	224,720	113,287
259,034	2,187	224,498	113,168
260,049	2,275	224,381	113,165
261,063	2,056	224,279	112,940
262,078	2,225	224,243	113,037
263,093	2,302	224,018	112,971
264,107	2,055	223,883	112,709
265,122	2,330	223,690	112,806
266,136	2,410	223,678	112,849
267,151	2,209	223,369	112,535
268,166	1,890	223,125	112,166
269,180	1,608	222,951	111,860
270,195	1,640	222,847	111,821
271,209	1,668	222,789	111,803
272,224	1,895	222,606	111,869
273,239	1,996	222,332	111,795
274,253	1,929	222,232	111,686
275,268	1,807	221,936	111,437
276,282	1,678	222,000	111,364
277,297	1,524	221,646	111,064
278,312	1,851	221,613	111,277
279,326	2,080	221,517	111,388
280,341	1,942	221,454	111,245
281,355	2,016	221,451	111,288
282,370	2,039	221,226	111,182
283,384	1,790	220,926	110,838
284,399	1,614	220,725	110,599
285,414	1,708	220,610	110,600
286,428	1,825	220,747	110,745
287,443	2,212	220,564	110,926
288,457	2,188	220,434	110,832
289,472	1,848	220,171	110,443
290,487	1,605	219,762	110,051
291,501	1,250	219,664	109,733
292,516	1,499	219,547	109,846
293,530	1,730	219,563	110,013
294,545	1,608	219,409	109,837
295,560	1,762	219,232	109,850
296,574	1,862	219,111	109,853
297,589	1,877	218,983	109,789
298,603	1,864	218,847	109,702
299,618	1,720	218,790	109,559
300,633	1,986	218,629	109,662
301,647	2,407	218,509	109,896
302,662	2,216	218,361	109,673
303,676	2,217	218,299	109,634
304,691	2,192	218,084	109,498
305,706	2,218	218,002	109,466
306,720	1,942	217,860	109,185
307,735	2,069	217,525	109,099
308,749	1,646	217,448	108,747
309,764	2,165	217,286	109,029
310,779	2,299	217,233	109,089
311,793	2,117	216,908	108,786
312,808	2,005	217,025	108,754
313,822	2,132	216,810	108,728
314,837	2,008	216,708	108,578
315,852	1,727	216,432	108,229
316,866	2,092	216,390	108,459
317,881	2,340	216,259	108,561
318,895	2,093	216,106	108,298
319,910	1,629	215,946	107,878
320,925	1,431	215,692	107,600
321,939	1,183	215,504	107,320
322,954	1,627	215,357	107,553
323,968	1,755	215,544	107,728
324,983	2,081	215,407	107,882
325,997	2,390	215,289	108,033
327,012	2,050	214,873	107,573
328,027	1,948	214,920	107,515
329,041	2,594	214,780	107,893
330,056	2,405	214,860	107,790
331,070	2,107	214,439	107,358
332,085	1,698	214,352	107,016
333,100	1,926	214,258	107,120
334,114	2,404	214,037	107,337
335,129	2,072	213,891	107,021
336,143	1,925	213,667	106,796
337,158	1,938	213,669	106,796
338,173	2,156	213,532	106,872
339,187	1,613	213,416	106,422
340,202	1,729	213,204	106,388
341,216	1,407	213,006	106,054
342,231	1,359	213,003	106,009
343,246	1,859	212,771	106,235
344,260	2,116	212,880	106,460
345,275	2,187	212,628	106,374
346,289	2,556	212,424	106,521
347,304	2,294	212,268	106,250
348,319	2,040	212,212	106,035
349,333	1,784	212,114	105,798
350,348	2,142	211,839	105,901
351,362	2,233	211,863	105,967
352,377	1,924	211,680	105,650
353,392	2,077	211,645	105,730
354,406	2,102	211,439	105,635
355,421	196,130	1316,143	1391,682
356,435	156,811	1450,690	1391,637
