DTS Sentinel unit serial number:	SN410029Multiplexer serial number:	ORYXHardware model number:	OX2-SRSoftware version number:	ORYX F/W v4,00 Oryx Data Collector v3.7.2.0data status	okinstallation	B6 Nyhavnadifferential loss correction	single-endedforward channel	channel 2reverse channel	N/Adate	2023/12/10time	05:20:08forward acquisition time	300,00reverse acquisition time	0,00gamma	499,1914k internal	0,3124k external	0,3124temperature offset calibration	1,0000default loss term (dB/km)	0,3820temperature slope calibration	1,0000multiplexer offset coefficient	1,0000multiplexer slope coefficient	1,0000fibre end	0,00T internal ref (°C)	22,38T ext. ref 1 (°C)	6,45T ext. ref 2 (°C)	6,43length (m)	temperature (°C)	Stokes	anti-Stokes-744,400	-200,000	-0,003	-0,062
-743,385	5,505	-0,297	0,163
-742,371	-16,682	0,097	0,045
-741,356	-93,903	-0,245	0,050
-740,342	800,000	0,043	0,107
-739,327	-58,965	-0,246	0,079
-738,312	-200,000	0,006	0,021
-737,298	-134,998	-0,164	0,015
-736,283	800,000	0,033	-0,100
-735,269	-54,012	-0,304	0,102
-734,254	-169,493	0,221	-0,006
-733,239	-30,312	-0,349	-0,147
-732,225	-12,693	0,091	0,044
-731,210	126,401	-0,074	0,070
-730,196	-200,000	-0,004	0,043
-729,181	-8,402	0,043	-0,021
-728,167	-200,000	0,035	-0,147
-727,152	178,383	-0,138	-0,151
-726,137	-200,000	0,018	-0,078
-725,123	-200,000	0,015	-0,089
-724,108	-153,206	-0,226	0,012
-723,094	29,647	-0,040	0,025
-722,079	281,989	-0,089	-0,119
-721,064	-200,000	-0,017	0,064
-720,050	-200,000	0,010	-0,081
-719,035	738,330	-0,053	0,105
-718,021	-67,049	0,025	-0,007
-717,006	-70,763	-0,118	-0,033
-715,991	36,739	-0,134	-0,088
-714,977	-200,000	-0,016	-0,053
-713,962	-53,007	-0,051	0,017
-712,948	96,202	-0,049	0,042
-711,933	98,672	0,095	0,081
-710,918	-26,786	-0,053	-0,023
-709,904	79,764	-0,097	-0,078
-708,889	18,437	-0,078	-0,046
-707,875	133,284	0,052	-0,050
-706,860	-22,886	-0,085	0,038
-705,845	-1,169	-0,048	0,025
-704,831	170,140	0,015	-0,016
-703,816	64,247	-0,039	-0,029
-702,802	800,000	0,024	-0,062
-701,787	-200,000	0,020	-0,158
-700,772	46,393	-0,166	0,114
-699,758	-200,000	-0,002	0,085
-698,743	-143,120	-0,121	-0,009
-697,729	-200,000	0,027	-0,126
-696,714	800,000	0,015	-0,037
-695,699	800,000	-0,026	0,064
-694,685	-200,000	-0,003	-0,019
-693,670	800,000	-0,025	-0,064
-692,656	122,498	-0,065	-0,061
-691,641	18,808	0,040	0,023
-690,627	504,284	0,056	0,097
-689,612	-13,096	0,072	-0,035
-688,597	635,486	-0,029	-0,055
-687,583	-200,000	-0,012	-0,136
-686,568	221,400	0,042	0,050
-685,554	196,753	-0,123	-0,140
-684,539	-75,254	0,172	0,045
-683,524	-2,468	-0,015	-0,008
-682,510	117,364	-0,022	-0,020
-681,495	-131,413	-0,087	0,008
-680,481	-165,010	-0,189	-0,006
-679,466	380,712	0,037	-0,057
-678,451	42,877	-0,134	-0,091
-677,437	-138,069	-0,080	-0,007
-676,422	238,926	0,023	0,029
-675,408	651,721	-0,030	-0,058
-674,393	-200,000	0,041	-0,160
-673,378	17,210	0,006	-0,004
-672,364	285,499	-0,030	0,040
-671,349	-61,685	-0,032	0,010
-670,335	83,601	-0,109	-0,088
-669,320	-116,656	-0,108	-0,015
-668,305	246,351	-0,029	0,036
-667,291	-48,026	-0,072	-0,026
-666,276	-18,515	0,029	-0,014
-665,262	304,884	-0,059	-0,082
-664,247	-41,934	-0,032	0,012
-663,232	100,729	0,055	-0,048
-662,218	91,161	-0,082	0,068
-661,203	347,033	0,087	0,127
-660,189	-200,000	-0,010	-0,050
-659,174	214,658	-0,058	-0,068
-658,159	800,000	-0,018	-0,048
-657,145	-118,092	-0,106	0,014
-656,130	-179,917	-0,076	-0,001
-655,116	-200,000	-0,010	0,099
-654,101	73,562	0,076	-0,059
-653,086	800,000	0,011	-0,023
-652,072	-200,000	0,039	-0,182
-651,057	-147,168	-0,077	-0,005
-650,043	-186,597	-0,062	-0,001
-649,028	-31,524	0,069	0,029
-648,014	-200,000	0,019	0,083
-646,999	347,938	-0,053	-0,077
-645,984	-200,000	-0,014	-0,112
-644,970	-200,000	-0,005	-0,055
-643,955	212,424	0,078	0,091
-642,941	800,000	0,018	0,050
-641,926	-155,540	0,158	-0,007
-640,911	-37,742	0,107	0,042
-639,897	19,045	0,136	0,081
-638,882	-200,000	-0,027	0,111
-637,868	459,940	0,033	0,055
-636,853	-68,035	-0,086	-0,025
-635,838	800,000	-0,030	-0,071
-634,824	76,556	-0,124	-0,097
-633,809	-22,618	-0,139	-0,062
-632,795	-87,247	0,063	0,014
-631,780	-200,000	-0,019	-0,098
-630,765	124,548	0,011	0,010
-629,751	-60,982	-0,047	-0,015
-628,736	39,464	-0,112	0,074
-627,722	-200,000	-0,020	0,071
-626,707	178,530	-0,084	-0,091
-625,692	225,672	-0,016	-0,019
-624,678	123,307	0,175	0,162
-623,663	800,000	0,036	-0,100
-622,649	196,414	-0,052	-0,059
-621,634	-200,000	0,023	-0,097
-620,619	-163,643	-0,093	-0,003
-619,605	147,338	0,047	0,047
-618,590	139,338	-0,025	-0,024
-617,576	4,812	-0,038	-0,021
-616,561	-132,938	0,087	-0,008
-615,546	213,115	0,016	-0,019
-614,532	800,000	-0,017	-0,053
-613,517	-200,000	0,021	-0,154
-612,503	414,941	0,078	-0,123
-611,488	714,405	0,013	0,025
-610,474	285,412	-0,035	0,047
-609,459	71,878	0,092	0,071
-608,444	116,355	-0,030	-0,027
-607,430	107,067	-0,046	0,041
-606,415	-16,476	-0,118	-0,055
-605,401	-14,026	0,121	0,058
-604,386	-79,432	0,053	0,013
-603,371	53,074	-0,060	-0,043
-602,357	-16,138	-0,029	-0,014
-601,342	358,346	0,051	-0,076
-600,328	800,000	-0,021	0,067
-599,313	111,154	-0,024	0,022
-598,298	-64,565	0,120	0,036
-597,284	800,000	0,036	0,111
-596,269	180,002	0,024	0,026
-595,255	-200,000	0,007	-0,086
-594,240	-200,000	0,011	-0,060
-593,225	-200,000	0,001	-0,026
-592,211	771,557	0,045	-0,091
-591,196	376,708	0,057	-0,086
-590,182	-109,246	0,128	-0,020
-589,167	-200,000	-0,006	-0,135
-588,152	-75,968	0,160	-0,042
-587,138	38,095	-0,085	-0,056
-586,123	-75,714	-0,147	-0,038
-585,109	-97,420	0,024	0,005
-584,094	694,001	0,056	-0,109
-583,079	-165,290	0,057	-0,002
-582,065	201,113	0,045	-0,051
-581,050	181,788	-0,046	-0,050
-580,036	79,146	0,089	-0,071
-579,021	800,000	0,038	-0,090
-578,006	-200,000	0,039	-0,150
-576,992	-200,000	-0,007	0,036
-575,977	168,826	-0,007	-0,007
-574,963	273,134	-0,069	0,090
-573,948	-52,732	0,100	-0,034
-572,934	-200,000	-0,007	0,050
-571,919	370,751	0,020	0,030
-570,904	-200,000	0,016	-0,085
-569,890	413,454	-0,028	-0,044
-568,875	-200,000	0,001	-0,059
-567,861	-161,313	0,116	0,004
-566,846	65,888	0,119	-0,089
-565,831	-200,000	0,013	-0,056
-564,817	28,553	-0,117	0,073
-563,802	-176,497	-0,054	0,001
-562,788	-162,448	-0,135	-0,005
-561,773	-14,215	-0,116	0,055
-560,758	44,947	0,121	0,082
-559,744	-144,743	-0,057	0,004
-558,729	-200,000	-0,003	0,142
-557,715	84,555	-0,034	0,028
-556,700	-45,729	-0,054	0,020
-555,685	-145,276	-0,105	0,007
-554,671	157,032	0,020	-0,020
-553,656	373,160	0,025	0,038
-552,642	78,863	-0,015	0,012
-551,627	2,639	-0,072	0,038
-550,612	-135,582	-0,137	-0,012
-549,598	197,413	-0,077	-0,087
-548,583	-200,000	-0,022	0,080
-547,569	50,585	-0,085	-0,060
-546,554	800,000	-0,008	0,024
-545,539	-200,000	-0,009	0,104
-544,525	-6,406	-0,074	-0,037
-543,510	-200,000	0,017	-0,102
-542,496	44,241	-0,118	-0,080
-541,481	-200,000	-0,001	-0,107
-540,466	34,081	0,114	-0,073
-539,452	800,000	0,011	-0,032
-538,437	-156,391	-0,076	0,003
-537,423	-200,000	-0,001	0,117
-536,408	-70,299	-0,036	-0,010
-535,393	-200,000	-0,019	0,140
-534,379	-200,000	0,015	0,146
-533,364	-200,000	0,040	0,133
-532,350	1,883	0,029	0,015
-531,335	800,000	-0,036	0,097
-530,321	-54,476	0,061	-0,020
-529,306	-153,069	-0,039	-0,002
-528,291	164,931	-0,142	0,148
-527,277	763,261	0,041	-0,082
-526,262	97,115	0,084	0,071
-525,248	-3,198	-0,047	0,024
-524,233	164,122	0,048	0,050
-523,218	460,344	0,107	-0,177
-522,204	59,184	-0,048	-0,035
-521,189	-127,552	-0,109	-0,012
-520,175	508,266	-0,037	-0,063
-519,160	-200,000	0,007	0,040
-518,145	-122,430	0,032	-0,004
-517,131	-48,432	-0,088	-0,031
-516,116	800,000	0,046	0,135
-515,102	800,000	-0,017	-0,045
-514,087	116,796	-0,084	0,076
-513,072	20,637	-0,102	-0,061
-512,058	-200,000	0,010	-0,112
-511,043	-200,000	0,002	0,140
-510,029	-5,313	0,122	0,061
-509,014	800,000	-0,060	0,128
-507,999	-200,000	-0,012	-0,069
-506,985	800,000	-0,017	0,049
-505,970	174,767	0,116	0,124
-504,956	356,085	-0,080	-0,118
-503,941	18,815	0,155	0,091
-502,926	117,729	-0,040	0,036
-501,912	-200,000	-0,013	0,115
-500,897	190,935	-0,047	-0,052
-499,883	-145,125	-0,098	0,006
-498,868	7,203	0,110	-0,060
-497,853	-39,174	-0,066	0,026
-496,839	800,000	-0,034	-0,080
-495,824	-200,000	0,012	0,064
-494,810	-61,200	0,052	0,016
-493,795	-200,000	0,002	-0,037
-492,781	-60,729	-0,124	0,039
-491,766	-57,951	-0,043	-0,014
-490,751	-200,000	0,006	0,030
-489,737	-110,536	0,082	-0,012
-488,722	-200,000	0,027	0,100
-487,708	-72,439	0,136	-0,037
-486,693	800,000	0,013	-0,039
-485,678	-58,513	-0,033	-0,010
-484,664	70,170	0,071	-0,054
-483,649	674,577	0,075	-0,144
-482,635	95,272	-0,046	-0,039
-481,620	-200,000	0,018	0,115
-480,605	-200,000	0,022	0,128
-479,591	-200,000	0,001	-0,036
-478,576	68,172	-0,070	0,053
-477,562	800,000	-0,011	-0,034
-476,547	-14,603	-0,147	0,069
-475,532	458,101	0,035	-0,058
-474,518	-23,051	-0,036	0,016
-473,503	271,265	0,059	0,076
-472,489	-7,545	0,077	0,038
-471,474	800,000	-0,069	0,150
-470,459	1,355	-0,110	0,058
-469,445	-200,000	0,021	-0,078
-468,430	117,487	0,100	-0,091
-467,416	-48,794	0,035	0,012
-466,401	486,603	-0,012	0,020
-465,386	-200,000	0,000	0,018
-464,372	221,555	-0,078	-0,093
-463,357	115,267	-0,015	0,014
-462,343	-108,501	0,015	-0,002
-461,328	800,000	-0,025	-0,075
-460,313	96,187	0,052	0,044
-459,299	187,566	0,064	-0,071
-458,284	125,255	-0,080	-0,075
-457,270	-28,870	-0,104	-0,044
-456,255	800,000	0,033	0,082
-455,241	340,088	0,086	-0,124
-454,226	107,671	-0,070	-0,061
-453,211	-200,000	0,016	0,057
-452,197	-147,827	0,184	0,011
-451,182	-200,000	-0,003	0,019
-450,168	800,000	0,012	-0,028
-449,153	-162,676	0,118	-0,004
-448,138	-60,852	0,035	-0,011
-447,124	-77,236	-0,103	0,026
-446,109	800,000	-0,042	-0,094
-445,095	-70,281	-0,105	0,029
-444,080	61,197	-0,056	0,041
-443,065	-200,000	0,003	0,126
-442,051	668,566	0,024	0,047
-441,036	-25,082	0,120	-0,052
-440,022	63,619	0,012	-0,009
-439,007	-55,203	-0,109	-0,036
-437,992	652,931	-0,021	-0,041
-436,978	-172,585	0,110	0,002
-435,963	-200,000	-0,024	0,081
-434,949	-49,258	-0,038	-0,013
-433,934	70,132	-0,015	-0,012
-432,919	118,488	-0,087	0,079
-431,905	61,408	0,057	-0,042
-430,890	22,846	0,115	0,069
-429,876	800,000	0,085	0,212
-428,861	144,288	-0,027	0,027
-427,846	-200,000	0,024	-0,153
-426,832	-52,272	0,130	0,044
-425,817	800,000	0,036	-0,113
-424,803	165,870	-0,039	-0,041
-423,788	402,238	0,064	0,099
-422,773	-65,580	-0,047	-0,014
-421,759	-200,000	0,014	-0,098
-420,744	-152,446	-0,131	-0,007
-419,730	-33,885	0,133	-0,054
-418,715	607,676	0,026	-0,047
-417,701	-200,000	-0,005	0,025
-416,686	63,930	-0,117	-0,087
-415,671	-200,000	-0,005	-0,050
-414,657	382,061	-0,012	-0,018
-413,642	800,000	-0,013	-0,032
-412,628	5,882	-0,125	-0,068
-411,613	-200,000	-0,002	0,097
-410,598	-77,326	-0,065	-0,017
-409,584	296,825	0,025	0,034
-408,569	83,746	0,037	-0,030
-407,555	587,273	-0,070	-0,127
-406,540	-83,826	0,048	-0,011
-405,525	800,000	-0,063	-0,139
-404,511	249,590	-0,086	-0,107
-403,496	-97,420	-0,134	-0,025
-402,482	12,104	-0,028	0,016
-401,467	58,458	-0,107	-0,077
-400,452	-200,000	0,003	0,119
-399,438	-131,741	0,143	-0,014
-398,423	2,083	0,045	-0,024
-397,409	-200,000	0,006	-0,020
-396,394	-200,000	-0,004	-0,034
-395,379	760,217	-0,023	-0,047
-394,365	-40,855	0,044	0,017
-393,350	410,338	-0,037	-0,059
-392,336	-200,000	0,014	0,058
-391,321	295,191	-0,033	-0,044
-390,306	-39,872	-0,088	-0,034
-389,292	-200,000	0,006	0,040
-388,277	-4,291	0,053	0,027
-387,263	-25,591	0,076	0,033
-386,248	-200,000	-0,000	0,113
-385,233	800,000	0,067	0,209
-384,219	56,592	-0,016	0,012
-383,204	800,000	0,006	0,014
-382,190	-200,000	-0,047	-0,161
-381,175	-200,000	-0,004	0,132
-380,160	-100,692	0,105	-0,019
-379,146	124,446	0,017	-0,016
-378,131	247,776	0,043	0,053
-377,117	-200,000	-0,018	-0,071
-376,102	96,726	-0,073	0,061
-375,088	800,000	0,008	0,017
-374,073	-200,000	-0,009	-0,071
-373,058	155,156	-0,123	-0,124
-372,044	76,735	-0,046	0,035
-371,029	-200,000	0,022	0,157
-370,015	-200,000	0,003	-0,013
-369,000	-95,328	-0,118	0,023
-367,985	800,000	-0,027	-0,056
-366,971	346,144	0,081	-0,118
-365,956	-200,000	0,012	-0,071
-364,942	103,660	0,013	0,011
-363,927	800,000	-0,047	-0,107
-362,912	-200,000	0,042	0,164
-361,898	-200,000	0,016	0,090
-360,883	-200,000	-0,022	0,076
-359,869	572,109	0,068	-0,122
-358,854	-15,036	0,060	0,028
-357,839	3,193	-0,026	0,014
-356,825	189,548	0,068	0,075
-355,810	256,229	-0,030	0,037
-354,796	169,170	0,093	-0,098
-353,781	683,259	-0,063	0,120
-352,766	204,063	-0,132	-0,150
-351,752	-200,000	0,041	-0,202
-350,737	-85,501	-0,200	-0,045
-349,723	-124,127	0,123	0,014
-348,708	3,561	0,134	0,071
-347,693	-43,206	0,155	-0,057
-346,679	-81,924	-0,040	0,010
-345,664	-200,000	0,001	0,006
-344,650	-200,000	0,015	0,142
-343,635	124,239	-0,029	-0,026
-342,620	-104,349	0,099	-0,017
-341,606	88,248	-0,069	0,056
-340,591	168,408	-0,064	0,067
-339,577	455,768	-0,039	-0,063
-338,562	-200,000	-0,003	-0,034
-337,548	-78,933	0,062	0,015
-336,533	-66,800	-0,108	0,031
-335,518	-98,304	0,068	-0,013
-334,504	-200,000	-0,036	0,138
-333,489	-81,847	-0,096	-0,023
-332,475	-200,000	0,011	-0,060
-331,460	-200,000	-0,019	-0,123
-330,445	225,712	-0,029	-0,035
-329,431	158,692	0,043	0,044
-328,416	800,000	-0,059	0,134
-327,402	-200,000	-0,010	0,121
-326,387	252,476	0,010	0,013
-325,372	-200,000	0,004	-0,114
-324,358	-44,198	0,067	-0,024
-323,343	-34,846	0,035	0,014
-322,329	466,838	0,027	-0,045
-321,314	-80,147	0,192	0,047
-320,299	-200,000	-0,005	0,099
-319,285	-96,622	0,070	-0,013
-318,270	-200,000	0,014	-0,078
-317,256	128,449	0,042	-0,039
-316,241	-200,000	0,021	-0,068
-315,226	800,000	0,023	0,048
-314,212	-36,158	0,047	-0,018
-313,197	38,785	0,051	-0,033
-312,183	432,857	0,077	-0,123
-311,168	-200,000	0,012	0,125
-310,153	-200,000	-0,045	-0,168
-309,139	800,000	-0,017	-0,055
-308,124	144,804	0,033	-0,033
-307,110	-200,000	0,002	0,068
-306,095	-200,000	-0,001	0,150
-305,080	-200,000	-0,039	0,202
-304,066	517,142	-0,007	0,012
-303,051	-2,473	-0,079	0,040
-302,037	800,000	0,030	0,085
-301,022	-126,669	-0,177	0,019
-300,008	-121,398	-0,090	-0,011
-298,993	-109,884	0,061	0,009
-297,978	800,000	0,032	-0,091
-296,964	800,000	0,035	-0,092
-295,949	214,890	0,011	-0,013
-294,935	83,138	-0,061	0,048
-293,920	-57,176	0,129	-0,041
-292,905	-200,000	-0,051	0,175
-291,891	-200,000	-0,011	0,094
-290,876	676,396	0,070	0,134
-289,862	238,781	-0,086	0,105
-288,847	43,730	-0,046	-0,031
-287,832	800,000	0,024	0,051
-286,818	-129,700	-0,162	0,016
-285,803	229,860	0,078	-0,093
-284,789	-200,000	0,002	0,053
-283,774	249,180	0,048	-0,060
-282,759	-200,000	0,002	-0,089
-281,745	-200,000	-0,005	-0,148
-280,730	59,820	-0,059	0,042
-279,716	-200,000	0,010	0,101
-278,701	321,282	-0,100	-0,140
-277,686	325,806	0,010	-0,014
-276,672	800,000	0,058	-0,167
-275,657	800,000	-0,046	-0,114
-274,643	-59,274	0,080	-0,025
-273,628	-159,958	-0,141	0,006
-272,613	793,254	-0,110	-0,222
-271,599	268,916	0,055	0,070
-270,584	67,401	0,166	0,124
-269,570	110,349	-0,113	0,099
-268,555	22,193	-0,040	0,024
-267,540	-49,734	-0,124	-0,043
-266,526	68,865	-0,110	-0,083
-265,511	-82,173	0,149	0,035
-264,497	100,537	-0,103	0,087
-263,482	-55,037	0,133	0,044
-262,467	-200,000	0,021	-0,131
-261,453	-24,732	0,104	0,045
-260,438	-200,000	-0,003	-0,051
-259,424	8,487	-0,071	-0,039
-258,409	-200,000	0,020	0,076
-257,395	-200,000	-0,027	0,146
-256,380	387,327	-0,056	-0,084
-255,365	152,979	-0,074	0,074
-254,351	374,491	-0,041	0,062
-253,336	800,000	0,032	-0,088
-252,322	-200,000	0,025	0,093
-251,307	18,064	-0,092	-0,054
-250,292	-104,294	0,163	-0,027
-249,278	255,752	0,070	-0,087
-248,263	-101,831	0,198	0,035
-247,249	27,668	0,189	0,116
-246,234	226,214	0,010	0,012
-245,219	800,000	0,040	0,124
-244,205	800,000	0,016	-0,047
-243,190	-200,000	0,013	-0,157
-242,176	-75,704	-0,069	0,018
-241,161	-200,000	-0,023	0,122
-240,146	-45,069	0,047	0,017
-239,132	-200,000	-0,016	0,055
-238,117	-2,616	-0,203	-0,104
-237,103	28,925	0,138	-0,085
-236,088	-2,541	0,182	-0,093
-235,073	97,918	0,102	0,086
-234,059	23,067	0,023	0,014
-233,044	-11,701	-0,092	-0,044
-232,030	800,000	-0,041	-0,085
-231,015	-112,395	-0,088	-0,013
-230,000	284,325	0,092	-0,121
-228,986	-67,761	-0,068	0,019
-227,971	-200,000	0,018	-0,136
-226,957	215,981	0,037	-0,043
-225,942	277,412	-0,073	0,095
-224,927	68,360	-0,071	-0,053
-223,913	-200,000	0,002	-0,007
-222,898	-6,392	0,046	0,023
-221,884	-200,000	0,017	0,210
-220,869	69,479	0,106	0,080
-219,855	800,000	0,050	0,151
-218,840	36,703	0,087	0,056
-217,825	253,767	-0,110	0,138
-216,811	174,302	0,070	0,074
-215,796	427,986	-0,064	-0,101
-214,782	-102,096	0,083	0,014
-213,767	47,773	0,041	-0,028
-212,752	171,967	0,068	0,071
-211,738	16,638	-0,023	0,013
-210,723	115,273	-0,067	0,060
-209,709	800,000	0,024	0,074
-208,694	322,646	-0,064	0,089
-207,679	-200,000	0,052	-0,170
-206,665	-26,247	-0,030	0,013
-205,650	-200,000	-0,009	0,038
-204,636	-200,000	-0,006	0,082
-203,621	675,160	0,016	0,030
-202,606	-200,000	0,001	-0,043
-201,592	-59,773	-0,189	0,059
-200,577	800,000	-0,008	-0,016
-199,563	146,427	-0,041	-0,040
-198,548	-185,435	-0,076	-0,001
-197,533	-72,307	0,078	-0,021
-196,519	242,956	-0,049	0,060
-195,504	150,441	-0,101	0,100
-194,490	800,000	0,012	-0,026
-193,475	-17,250	0,091	0,042
-192,460	131,302	-0,090	-0,084
-191,446	-156,448	0,019	-0,001
-190,431	-200,000	0,015	-0,087
-189,417	24,318	0,144	0,086
-188,402	296,920	-0,049	0,066
-187,387	-200,000	0,008	-0,070
-186,373	33,424	-0,029	-0,018
-185,358	110,622	0,007	0,006
-184,344	-7,483	0,053	0,026
-183,329	-164,641	0,121	0,004
-182,315	228,229	0,050	0,059
-181,300	-151,113	0,058	0,003
-180,285	-200,000	0,015	-0,063
-179,271	-49,665	-0,067	-0,023
-178,256	800,000	-0,042	-0,098
-177,242	721,961	-0,039	0,077
-176,227	-200,000	0,043	0,178
-175,212	422,501	-0,068	0,108
-174,198	800,000	0,024	0,060
-173,183	546,266	0,035	-0,061
-172,169	-200,000	0,012	-0,090
-171,154	-48,626	0,074	0,026
-170,139	-36,278	0,094	0,037
-169,125	800,000	-0,048	0,145
-168,110	206,271	0,019	-0,021
-167,096	-147,845	-0,087	0,005
-166,081	-200,000	0,032	-0,134
-165,066	-200,000	-0,109	-0,000
-164,052	-200,000	-0,019	-0,175
-163,037	-28,396	-0,164	-0,069
-162,023	-75,327	-0,052	0,014
-161,008	-200,000	-0,002	0,011
-159,993	97,862	-0,107	0,090
-158,979	-16,817	-0,044	-0,020
-157,964	-77,897	-0,070	-0,018
-156,950	-200,000	0,015	-0,130
-155,935	26,907	0,127	0,078
-154,920	-200,000	-0,002	0,010
-153,906	16,436	0,064	0,037
-152,891	21,219	-0,059	0,035
-151,877	64,351	0,033	0,024
-150,862	800,000	-0,031	-0,072
-149,847	194,562	-0,101	-0,111
-148,833	77,278	-0,059	-0,046
-147,818	-76,285	0,021	-0,005
-146,804	-200,000	-0,017	0,061
-145,789	-166,303	0,063	-0,002
-144,775	-200,000	0,003	-0,091
-143,760	316,030	-0,035	-0,048
-142,745	-200,000	0,008	0,028
-141,731	800,000	0,050	0,124
-140,716	157,527	0,043	-0,043
-139,702	-97,185	-0,074	-0,014
-138,687	-146,189	-0,112	0,007
-137,672	-86,193	0,059	0,013
-136,658	-83,155	0,092	-0,021
-135,643	800,000	0,022	-0,070
-134,629	94,158	0,093	0,077
-133,614	800,000	-0,020	0,054
-132,599	-200,000	-0,015	0,102
-131,585	-9,822	0,093	0,045
-130,570	306,212	-0,107	0,145
-129,556	-200,000	-0,036	0,143
-128,541	-200,000	-0,013	-0,051
-127,526	-105,806	0,124	0,020
-126,512	800,000	0,060	0,139
-125,497	-200,000	-0,019	0,077
-124,483	17,219	0,080	0,046
-123,468	-131,017	0,161	-0,015
-122,453	271,236	-0,034	-0,044
-121,439	49,122	-0,018	0,012
-120,424	178,869	-0,094	0,100
-119,410	-200,000	0,042	-0,136
-118,395	-200,000	-0,009	-0,067
-117,380	-200,000	-0,029	0,096
-116,366	-1,696	-0,103	0,052
-115,351	-200,000	-0,026	-0,140
-114,337	-19,147	-0,070	0,032
-113,322	-143,810	-0,098	-0,007
-112,307	-92,253	0,046	0,009
-111,293	800,000	0,028	0,062
-110,278	-51,822	0,116	-0,039
-109,264	-200,000	0,011	-0,035
-108,249	-125,447	-0,149	-0,016
-107,234	800,000	0,013	0,030
-106,220	-200,000	0,006	0,147
-105,205	318,614	0,052	-0,072
-104,191	-200,000	-0,002	0,090
-103,176	318,245	0,031	0,043
-102,162	-88,783	-0,051	-0,011
-101,147	-116,402	-0,176	0,023
-100,132	-172,281	-0,148	0,003
-99,118	40,005	0,105	-0,068
-98,103	161,060	-0,036	-0,037
-97,089	-34,105	-0,038	0,015
-96,074	125,255	0,083	0,076
-95,059	524,070	-0,012	-0,020
-94,045	253,236	-0,076	0,094
-93,030	470,234	-0,034	-0,056
-92,016	-200,000	-0,008	-0,026
-91,001	571,354	0,031	-0,056
-89,986	-128,320	0,033	0,003
-88,972	577,923	-0,076	0,136
-87,957	800,000	0,040	-0,107
-86,943	-187,728	-0,077	-0,001
-85,928	-138,339	0,113	-0,009
-84,913	800,000	0,016	-0,041
-83,899	-200,000	-0,001	0,035
-82,884	284,917	-0,066	0,086
-81,870	124,111	0,107	0,097
-80,855	-200,000	0,005	0,120
-79,840	-200,000	0,006	0,027
-78,826	-200,000	0,007	-0,069
-77,811	-101,821	-0,103	-0,018
-76,797	-200,000	-0,021	-0,082
-75,782	-200,000	0,042	0,139
-74,767	-200,000	-0,013	0,094
-73,753	79,295	-0,051	-0,040
-72,738	800,000	0,031	0,076
-71,724	-170,502	-0,156	-0,004
-70,709	-200,000	0,015	-0,124
-69,694	-200,000	-0,004	0,085
-68,680	-200,000	0,031	0,110
-67,665	-79,157	-0,082	-0,020
-66,651	28,771	-0,004	0,003
-65,636	-24,250	0,091	-0,039
-64,622	-25,878	-0,085	0,036
-63,607	-27,332	-0,122	-0,051
-62,592	482,943	-0,056	0,092
-61,578	-200,000	0,017	0,106
-60,563	224,559	-0,079	0,093
-59,549	800,000	-0,068	0,185
-58,534	-125,862	-1,260	-0,136
-57,519	486,392	-0,869	-1,443
-56,505	-200,000	-0,989	-4,452
-55,490	92,489	0,630	-0,515
-54,476	800,000	4,899	11,670
-53,461	-200,000	13,567	253,446
-52,446	-200,000	689,740	2260,150
-51,432	589,909	1622,696	2914,100
-50,417	119,796	1635,203	1469,932
-49,403	73,282	1289,050	977,015
-48,388	38,201	1024,053	659,819
-47,373	24,361	981,783	587,096
-46,359	23,584	971,476	578,364
-45,344	22,566	967,392	572,583
-44,330	22,512	965,795	571,440
-43,315	22,363	964,471	570,146
-42,300	22,451	963,293	569,716
-41,286	22,422	962,548	569,158
-40,271	22,384	961,480	568,379
-39,257	22,351	960,485	567,663
-38,242	22,381	959,630	567,231
-37,227	22,379	958,943	566,797
-36,213	22,308	957,834	565,889
-35,198	22,416	956,845	565,632
-34,184	22,393	956,496	565,330
-33,169	22,443	955,372	564,802
-32,154	22,451	954,584	564,339
-31,140	22,377	953,889	563,667
-30,125	22,416	952,892	563,182
-29,111	22,456	952,016	562,771
-28,096	22,433	951,607	562,432
-27,082	22,365	950,700	561,656
-26,067	22,405	949,929	561,307
-25,052	22,425	949,208	560,923
-24,038	22,388	948,640	560,445
-23,023	22,483	947,816	560,240
-22,009	22,419	947,446	559,795
-20,994	22,442	946,824	559,480
-19,979	22,409	946,086	558,915
-18,965	22,475	945,374	558,684
-17,950	22,448	944,790	558,230
-16,936	22,327	944,121	557,426
-15,921	22,399	943,498	557,268
-14,906	22,332	942,697	556,559
-13,892	22,291	942,130	556,071
-12,877	22,327	941,450	555,763
-11,863	22,298	940,643	555,171
-10,848	22,326	940,371	555,079
-9,833	22,410	939,737	554,948
-8,819	22,325	939,431	554,474
-7,804	22,337	938,564	553,978
-6,790	22,335	937,885	553,551
-5,775	22,362	937,314	553,276
-4,760	22,302	936,878	552,809
-3,746	22,298	936,154	552,346
-2,731	22,182	935,350	551,483
-1,717	22,168	934,730	551,054
-0,702	22,136	934,147	550,587
0,313	21,944	933,410	550,379
1,327	24,964	931,401	558,635
2,342	34,361	795,852	502,351
3,356	32,362	450,910	281,588
4,371	1,759	292,943	152,502
5,386	-2,700	273,656	138,247
6,400	-4,051	267,976	134,117
7,415	-4,399	265,438	132,516
8,429	-4,161	264,187	132,096
9,444	-4,300	263,497	131,613
10,459	-4,092	262,798	131,441
11,473	-4,576	262,287	130,736
12,488	-4,416	261,629	130,541
13,502	-4,532	261,021	130,121
14,517	-4,416	260,768	130,088
15,531	-4,539	260,262	129,713
16,546	-4,504	259,950	129,578
17,561	-4,418	259,427	129,383
18,575	-4,391	259,247	129,305
19,590	-4,453	258,894	129,062
20,604	-4,433	258,699	128,971
21,619	-4,577	258,263	128,614
22,634	-4,734	258,135	128,400
23,648	-4,487	257,489	128,286
24,663	-4,528	257,337	128,162
25,677	-4,683	257,254	127,972
26,692	-4,590	257,002	127,917
27,707	-4,491	256,606	127,797
28,721	-4,662	256,502	127,583
29,736	-4,746	256,269	127,381
30,750	-4,732	255,923	127,210
31,765	-4,577	255,605	127,177
32,780	-4,663	255,441	127,009
33,794	-4,552	255,132	126,941
34,809	-4,557	254,980	126,850
35,823	-4,693	254,702	126,581
36,838	-4,735	254,492	126,428
37,853	-4,715	254,375	126,377
38,867	-4,707	253,994	126,183
39,882	-4,670	253,619	126,017
40,896	-4,752	253,557	125,904
41,911	-4,595	253,252	125,878
42,926	-4,691	253,076	125,696
43,940	-4,709	252,912	125,588
44,955	-4,807	252,527	125,301
45,969	-4,829	252,387	125,200
46,984	-4,909	252,104	124,980
47,999	-5,080	251,914	124,726
49,013	-5,374	251,730	124,369
50,028	-5,383	251,455	124,214
51,042	-5,441	251,135	123,995
52,057	-5,432	250,995	123,923
53,071	-5,499	250,834	123,775
54,086	-5,521	250,618	123,638
55,101	-5,239	250,570	123,846
56,115	-4,951	250,324	123,961
57,130	-4,530	250,290	124,296
58,144	-4,596	250,184	124,175
59,159	-4,361	249,882	124,216
60,174	-4,307	249,604	124,113
61,188	-4,673	249,476	123,725
62,203	-4,446	249,193	123,767
63,217	-4,544	248,939	123,547
64,232	-4,506	248,832	123,515
65,247	-4,419	248,673	123,499
66,261	-4,441	248,343	123,306
67,276	-4,562	248,045	123,044
68,290	-4,872	247,860	122,678
69,305	-5,119	247,627	122,341
70,320	-4,806	247,503	122,534
71,334	-4,769	247,332	122,471
72,349	-4,534	247,324	122,655
73,363	-4,324	246,911	122,617
74,378	-4,375	246,741	122,478
75,393	-4,558	246,573	122,230
76,407	-4,348	246,362	122,291
77,422	-4,510	246,253	122,090
78,436	-4,410	245,979	122,027
79,451	-4,502	245,758	121,829
80,466	-4,576	245,610	121,683
81,480	-4,666	245,200	121,393
82,495	-4,763	245,140	121,271
83,509	-4,680	244,944	121,233
84,524	-4,767	244,710	121,034
85,539	-4,830	244,551	120,891
86,553	-4,934	244,298	120,668
87,568	-4,685	244,056	120,746
88,582	-4,670	243,986	120,714
89,597	-4,863	243,732	120,415
90,611	-4,625	243,654	120,565
91,626	-4,498	243,497	120,583
92,641	-4,508	243,388	120,510
93,655	-4,674	243,034	120,185
94,670	-4,573	242,957	120,220
95,684	-4,717	242,629	119,927
96,699	-4,747	242,543	119,850
97,714	-4,762	242,285	119,699
98,728	-4,973	242,216	119,480
99,743	-4,984	241,875	119,291
100,757	-4,888	241,670	119,259
101,772	-4,897	241,572	119,193
102,787	-4,659	241,416	119,302
103,801	-4,889	241,224	119,007
104,816	-4,816	241,149	119,019
105,830	-4,573	241,004	119,137
106,845	-4,484	240,785	119,091
107,860	-4,498	240,701	119,028
108,874	-4,743	240,503	118,718
109,889	-4,886	240,368	118,522
110,903	-4,646	240,073	118,564
111,918	-4,740	239,878	118,380
112,933	-4,669	239,543	118,262
113,947	-4,546	239,656	118,408
114,962	-4,480	239,412	118,331
115,976	-4,366	238,968	118,194
116,991	-4,739	239,060	117,925
118,006	-4,592	238,821	117,916
119,020	-4,492	238,729	117,942
120,035	-4,500	238,591	117,856
121,049	-4,524	238,424	117,744
122,064	-4,631	238,190	117,531
123,079	-4,639	238,076	117,458
124,093	-4,771	237,787	117,197
125,108	-4,873	237,577	117,001
126,122	-4,875	237,317	116,861
127,137	-4,879	237,163	116,771
128,151	-4,887	236,930	116,639
129,166	-4,811	236,907	116,679
130,181	-4,725	236,641	116,607
131,195	-4,845	236,436	116,398
132,210	-4,571	236,418	116,601
133,224	-4,617	236,203	116,447
134,239	-4,614	236,159	116,418
135,254	-4,831	236,057	116,183
136,268	-4,566	235,788	116,253
137,283	-4,700	235,452	115,969
138,297	-5,062	235,330	115,608
139,312	-5,026	235,124	115,525
140,327	-4,603	235,096	115,840
141,341	-4,244	235,003	116,071
142,356	-4,392	235,039	115,961
143,370	-4,285	234,720	115,879
144,385	-4,224	234,433	115,776
145,400	-4,094	234,402	115,854
146,414	-4,293	234,220	115,595
147,429	-4,284	234,021	115,493
148,443	-4,445	233,956	115,322
149,458	-4,429	233,749	115,223
150,473	-4,351	233,536	115,170
151,487	-4,297	233,263	115,068
152,502	-4,367	233,271	115,006
153,516	-4,214	233,014	114,990
154,531	-4,340	232,849	114,799
155,546	-4,419	232,640	114,622
156,560	-4,341	232,377	114,545
157,575	-4,396	232,313	114,459
158,589	-4,432	232,123	114,328
159,604	-4,284	231,980	114,363
160,619	-4,208	231,856	114,352
161,633	-4,415	231,825	114,163
162,648	-4,140	231,569	114,244
163,662	-4,438	231,446	113,938
164,677	-4,499	231,251	113,784
165,692	-4,321	231,051	113,815
166,706	-4,322	230,981	113,770
167,721	-4,199	230,857	113,795
168,735	-3,990	230,641	113,843
169,750	-4,157	230,454	113,609
170,764	-4,239	230,431	113,523
171,779	-4,216	230,270	113,452
172,794	-4,419	230,161	113,230
173,808	-4,400	229,793	113,053
174,823	-4,753	229,461	112,604
175,837	-4,915	229,330	112,403
176,852	-4,585	229,391	112,681
177,867	-4,404	229,413	112,823
178,881	-4,043	229,198	112,988
179,896	-4,084	229,145	112,920
180,910	-4,088	228,888	112,780
181,925	-4,019	228,710	112,736
182,940	-4,302	228,627	112,465
183,954	-4,273	228,409	112,370
184,969	-4,189	228,331	112,387
185,983	-4,052	228,085	112,362
186,998	-4,036	228,016	112,330
188,013	-3,945	227,872	112,320
189,027	-4,090	227,611	112,069
190,042	-4,143	227,500	111,964
191,056	-4,177	227,399	111,878
192,071	-3,927	227,366	112,044
193,086	-4,160	227,125	111,736
194,100	-4,186	227,051	111,670
195,115	-4,349	226,643	111,334
196,129	-4,623	226,343	110,966
197,144	-2,255	227,083	113,143
198,159	1,109	228,004	116,188
199,173	3,713	228,701	118,545
200,188	4,128	228,690	118,849
201,202	4,097	228,572	118,753
202,217	4,328	228,465	118,865
203,232	4,447	228,436	118,931
204,246	4,388	228,215	118,760
205,261	4,743	228,020	118,921
206,275	4,610	227,913	118,752
207,290	4,848	227,863	118,898
208,304	4,667	227,651	118,638
209,319	4,622	227,470	118,499
210,334	4,665	227,195	118,378
211,348	4,480	227,099	118,176
212,363	4,175	226,805	117,779
213,377	3,883	226,597	117,438
214,392	3,918	226,429	117,367
215,407	4,011	226,335	117,378
216,421	3,816	226,207	117,153
217,436	3,970	225,961	117,132
218,450	3,853	225,501	116,794
219,465	3,761	225,545	116,737
220,480	3,670	225,546	116,658
221,494	3,762	225,313	116,597
222,509	3,734	225,231	116,523
223,523	3,840	225,155	116,553
224,538	3,679	224,945	116,312
225,553	3,896	224,793	116,388
226,567	3,896	224,784	116,373
227,582	4,261	224,545	116,514
228,596	4,169	224,420	116,370
229,611	4,131	224,260	116,248
230,626	3,599	224,139	115,774
231,640	3,779	223,838	115,743
232,655	4,145	223,774	115,975
233,669	4,514	223,722	116,216
234,684	4,306	223,795	116,087
235,699	4,298	223,438	115,885
236,713	3,974	223,312	115,566
237,728	3,857	223,105	115,361
238,742	3,903	222,795	115,224
239,757	3,871	222,704	115,143
240,772	3,764	222,589	114,994
241,786	3,756	222,331	114,844
242,801	3,985	222,340	115,010
243,815	4,452	222,302	115,328
244,830	4,409	222,123	115,193
245,844	3,868	222,013	114,723
246,859	4,014	221,789	114,705
247,874	3,899	221,779	114,605
248,888	4,232	221,486	114,690
249,903	4,085	221,375	114,514
250,917	3,841	221,239	114,252
251,932	4,009	221,029	114,257
252,947	3,715	220,989	114,009
253,961	3,840	220,747	113,966
254,976	3,851	220,594	113,885
255,990	3,974	220,594	113,966
257,005	4,007	220,469	113,915
258,020	3,921	220,297	113,753
259,034	4,247	220,184	113,926
260,049	4,180	219,977	113,759
261,063	4,106	219,735	113,569
262,078	4,111	219,770	113,581
263,093	4,263	219,733	113,664
264,107	4,200	219,431	113,451
265,122	4,016	219,334	113,256
266,136	4,211	219,253	113,347
267,151	4,503	218,862	113,349
268,166	4,016	218,586	112,838
269,180	3,678	218,616	112,596
270,195	4,075	218,204	112,665
271,209	4,001	218,123	112,559
272,224	3,745	218,166	112,383
273,239	3,951	218,161	112,522
274,253	3,613	217,960	112,161
275,268	3,510	217,818	112,002
276,282	3,517	217,483	111,825
277,297	3,535	217,355	111,762
278,312	3,486	217,440	111,760
279,326	3,791	217,207	111,853
280,341	3,805	217,088	111,792
281,355	3,958	217,026	111,861
282,370	3,931	216,667	111,647
283,384	3,485	216,637	111,297
284,399	3,631	216,311	111,226
285,414	3,528	216,362	111,168
286,428	3,528	216,365	111,159
287,443	3,853	216,272	111,337
288,457	4,076	215,957	111,326
289,472	3,572	215,908	110,927
290,487	3,334	215,448	110,508
291,501	3,308	215,427	110,469
292,516	3,494	215,212	110,483
293,530	3,538	215,253	110,526
294,545	3,521	214,998	110,373
295,560	3,411	215,102	110,338
296,574	3,668	214,852	110,384
297,589	3,648	214,751	110,308
298,603	3,989	214,503	110,416
299,618	3,785	214,420	110,217
300,633	3,744	214,403	110,169
301,647	4,163	214,266	110,389
302,662	4,298	214,041	110,359
303,676	4,012	213,976	110,112
304,691	4,053	213,853	110,068
305,706	3,994	213,740	109,958
306,720	4,233	213,563	110,027
307,735	3,882	213,469	109,719
308,749	3,809	213,120	109,478
309,764	3,899	213,137	109,541
310,779	4,088	212,993	109,591
311,793	4,060	212,861	109,494
312,808	3,993	212,730	109,369
313,822	3,923	212,613	109,249
314,837	3,872	212,465	109,127
315,852	3,621	212,166	108,786
316,866	3,858	212,057	108,888
317,881	3,911	212,116	108,946
318,895	4,044	211,864	108,902
319,910	3,944	211,760	108,767
320,925	3,650	211,607	108,472
321,939	3,568	211,261	108,227
322,954	3,698	211,234	108,295
323,968	4,027	211,118	108,458
324,983	4,030	211,202	108,493
325,997	4,123	210,933	108,411
327,012	4,019	210,711	108,214
328,027	4,012	210,631	108,158
329,041	4,135	210,663	108,251
330,056	4,316	210,617	108,345
331,070	3,798	210,291	107,805
332,085	3,776	209,982	107,621
333,100	3,815	209,949	107,622
334,114	4,003	209,759	107,646
335,129	3,946	209,811	107,624
336,143	3,798	209,569	107,387
337,158	3,980	209,383	107,409
338,173	3,917	209,370	107,348
339,187	3,599	209,120	106,989
340,202	3,763	208,866	106,964
341,216	3,514	208,801	106,748
342,231	3,748	208,534	106,764
343,246	3,682	208,544	106,714
344,260	3,529	208,485	106,567
345,275	3,698	208,424	106,645
346,289	3,778	208,415	106,686
347,304	3,860	208,187	106,616
348,319	3,934	208,006	106,566
349,333	3,812	207,798	106,365
350,348	3,777	207,783	106,324
351,362	3,972	207,662	106,388
352,377	3,915	207,590	106,302
353,392	3,718	207,321	106,019
354,406	3,918	207,351	106,162
355,421	194,810	1346,060	1437,067
356,435	155,439	1484,903	1437,189
