DTS Sentinel unit serial number:	SN410029Multiplexer serial number:	ORYXHardware model number:	OX2-SRSoftware version number:	ORYX F/W v4,00 Oryx Data Collector v3.7.2.0data status	okinstallation	B6 Nyhavnadifferential loss correction	single-endedforward channel	channel 2reverse channel	N/Adate	2023/12/11time	08:50:08forward acquisition time	300,00reverse acquisition time	0,00gamma	499,1914k internal	0,3133k external	0,3133temperature offset calibration	1,0000default loss term (dB/km)	0,3820temperature slope calibration	1,0000multiplexer offset coefficient	1,0000multiplexer slope coefficient	1,0000fibre end	0,00T internal ref (°C)	17,40T ext. ref 1 (°C)	-0,27T ext. ref 2 (°C)	-0,27length (m)	temperature (°C)	Stokes	anti-Stokes-744,400	-77,544	0,074	0,019
-743,385	-89,925	-0,311	0,067
-742,371	168,408	0,100	0,106
-741,356	-52,715	-0,185	0,063
-740,342	-200,000	-0,022	0,134
-739,327	-85,650	-0,239	0,055
-738,312	-138,094	0,165	-0,013
-737,298	-14,269	-0,292	0,139
-736,283	94,439	0,072	-0,061
-735,269	-63,529	-0,281	0,085
-734,254	512,039	0,070	-0,122
-733,239	-39,446	-0,385	-0,149
-732,225	80,531	0,108	-0,086
-731,210	480,944	-0,038	0,063
-730,196	-72,084	-0,038	0,010
-729,181	15,299	-0,046	0,027
-728,167	-200,000	-0,044	0,150
-727,152	321,085	-0,038	0,053
-726,137	95,689	-0,100	-0,085
-725,123	-119,053	-0,071	-0,009
-724,108	223,262	0,036	-0,043
-723,094	35,318	-0,162	-0,105
-722,079	-200,000	-0,015	-0,119
-721,064	-16,280	0,091	-0,043
-720,050	-147,197	-0,183	0,011
-719,035	179,227	0,056	0,061
-718,021	86,450	-0,068	-0,055
-717,006	-174,513	-0,208	-0,004
-715,991	-200,000	-0,009	-0,154
-714,977	92,638	-0,081	-0,068
-713,962	800,000	-0,056	0,128
-712,948	431,824	0,029	-0,047
-711,933	-200,000	0,008	-0,098
-710,918	50,114	-0,034	-0,024
-709,904	93,938	-0,140	-0,118
-708,889	-200,000	0,011	-0,045
-707,875	333,611	-0,057	-0,081
-706,860	173,345	0,033	-0,035
-705,845	-8,917	0,122	0,060
-704,831	-97,042	0,064	0,012
-703,816	-200,000	-0,005	0,105
-702,802	-103,071	0,060	0,010
-701,787	276,510	-0,081	-0,107
-700,772	800,000	0,017	-0,036
-699,758	530,110	-0,057	-0,101
-698,743	-116,888	-0,114	-0,015
-697,729	-37,575	0,073	-0,029
-696,714	800,000	-0,034	-0,093
-695,699	-12,865	0,099	0,048
-694,685	-133,828	0,026	-0,002
-693,670	598,626	-0,034	0,062
-692,656	-119,780	0,073	-0,009
-691,641	-200,000	0,023	-0,085
-690,627	-200,000	0,044	0,157
-689,612	-127,026	-0,135	-0,015
-688,597	-6,376	-0,179	-0,090
-687,583	-200,000	-0,001	-0,042
-686,568	396,080	-0,050	-0,078
-685,554	592,121	-0,045	-0,082
-684,539	-200,000	0,021	0,087
-683,524	-200,000	0,006	0,101
-682,510	580,004	-0,079	0,144
-681,495	-200,000	0,004	-0,044
-680,481	430,618	0,018	0,029
-679,466	-21,921	0,016	0,007
-678,451	10,206	-0,128	0,072
-677,437	-200,000	0,016	0,104
-676,422	-188,336	0,072	0,001
-675,408	-24,859	-0,160	0,070
-674,393	194,521	0,073	0,082
-673,378	-116,874	-0,099	0,013
-672,364	734,479	-0,091	-0,181
-671,349	-200,000	0,002	-0,010
-670,335	-200,000	-0,004	-0,022
-669,320	800,000	-0,006	-0,012
-668,305	562,501	-0,073	0,131
-667,291	800,000	0,015	-0,048
-666,276	-200,000	-0,002	-0,176
-665,262	406,405	0,032	-0,051
-664,247	800,000	-0,058	-0,131
-663,232	-110,926	0,081	0,012
-662,218	230,470	0,016	-0,019
-661,203	800,000	-0,034	-0,086
-660,189	-51,185	0,014	-0,005
-659,174	55,848	-0,082	-0,059
-658,159	91,583	-0,046	-0,038
-657,145	264,124	0,001	-0,002
-656,130	177,297	-0,085	-0,091
-655,116	-200,000	0,005	-0,064
-654,101	-51,683	-0,129	0,044
-653,086	24,640	-0,053	-0,033
-652,072	55,938	-0,222	-0,159
-651,057	-200,000	0,024	-0,118
-650,043	-200,000	0,050	-0,192
-649,028	-139,705	0,079	-0,006
-648,014	-7,097	0,040	-0,020
-646,999	-106,445	-0,046	-0,008
-645,984	-200,000	-0,004	0,051
-644,970	-200,000	0,005	-0,098
-643,955	-200,000	-0,001	0,014
-642,941	-131,765	-0,146	0,014
-641,926	800,000	0,020	0,045
-640,911	34,294	-0,095	-0,061
-639,897	171,314	-0,052	0,056
-638,882	-200,000	-0,005	0,042
-637,868	-99,905	0,107	-0,020
-636,853	-200,000	-0,000	-0,145
-635,838	-32,623	-0,196	-0,080
-634,824	-183,580	0,118	0,001
-633,809	-75,180	0,073	0,019
-632,795	-117,196	0,154	0,020
-631,780	-200,000	0,053	0,259
-630,765	800,000	-0,031	0,076
-629,751	-200,000	-0,003	-0,023
-628,736	-200,000	-0,004	-0,080
-627,722	67,260	-0,038	-0,028
-626,707	-200,000	0,001	0,047
-625,692	-185,712	0,050	-0,001
-624,678	244,175	0,038	-0,047
-623,663	274,932	-0,059	-0,078
-622,649	-148,524	-0,123	0,007
-621,634	-146,702	-0,130	-0,008
-620,619	-57,237	-0,087	0,028
-619,605	-77,109	0,116	-0,030
-618,590	454,912	-0,055	-0,090
-617,576	-200,000	-0,004	0,029
-616,561	124,341	0,046	-0,043
-615,546	-95,058	-0,134	-0,026
-614,532	800,000	-0,049	-0,121
-613,517	82,086	0,103	-0,083
-612,503	800,000	0,036	-0,111
-611,488	800,000	0,032	-0,069
-610,474	313,712	0,032	-0,045
-609,459	297,927	0,033	-0,045
-608,444	59,321	0,055	0,040
-607,430	126,539	0,058	-0,055
-606,415	62,893	-0,093	0,069
-605,401	77,875	0,076	-0,060
-604,386	-102,536	-0,072	-0,013
-603,371	-70,428	-0,061	0,017
-602,357	-58,614	0,155	0,049
-601,342	-200,000	-0,007	0,038
-600,328	-58,783	-0,182	-0,058
-599,313	608,340	-0,032	-0,060
-598,298	-200,000	-0,037	-0,189
-597,284	800,000	-0,060	0,128
-596,269	-63,237	-0,090	0,027
-595,255	-33,364	0,140	0,057
-594,240	1,794	-0,017	0,009
-593,225	-200,000	0,015	-0,120
-592,211	46,979	-0,064	-0,044
-591,196	-200,000	0,008	-0,053
-590,182	130,015	-0,056	-0,053
-589,167	667,203	0,038	0,073
-588,152	372,535	-0,004	-0,007
-587,138	363,357	-0,023	-0,034
-586,123	309,936	0,052	0,071
-585,109	703,844	-0,055	-0,107
-584,094	-10,646	0,084	0,041
-583,079	-200,000	-0,001	0,068
-582,065	594,138	0,045	-0,082
-581,050	141,666	0,073	0,072
-580,036	-200,000	-0,027	0,124
-579,021	-81,608	-0,071	-0,017
-578,006	29,651	-0,021	-0,013
-576,992	-71,160	-0,063	-0,017
-575,977	800,000	0,016	-0,044
-574,963	800,000	0,043	0,137
-573,948	800,000	-0,014	0,040
-572,934	-200,000	-0,018	-0,145
-571,919	800,000	0,024	-0,065
-570,904	-53,428	0,085	-0,029
-569,890	148,049	0,031	-0,031
-568,875	-200,000	0,041	0,172
-567,861	-200,000	-0,003	0,054
-566,846	-200,000	0,011	-0,095
-565,831	-200,000	0,022	0,083
-564,817	799,207	0,033	-0,068
-563,802	-47,411	-0,118	0,042
-562,788	-98,620	-0,096	0,018
-561,773	-65,632	-0,134	-0,039
-560,758	52,832	0,059	-0,042
-559,744	237,894	0,083	-0,102
-558,729	-131,985	0,048	-0,005
-557,715	555,505	-0,009	0,015
-556,700	-24,653	-0,148	0,065
-555,685	636,768	-0,075	-0,140
-554,671	-3,381	0,021	0,011
-553,656	-91,669	-0,113	0,023
-552,642	240,777	0,049	0,061
-551,627	-200,000	0,004	-0,108
-550,612	317,045	-0,129	-0,181
-549,598	-200,000	0,000	0,085
-548,583	-200,000	0,009	0,085
-547,569	-132,948	0,122	-0,011
-546,554	-200,000	-0,006	-0,096
-545,539	107,051	-0,017	-0,015
-544,525	-200,000	-0,002	-0,089
-543,510	800,000	-0,045	0,104
-542,496	-95,617	0,028	-0,005
-541,481	-117,847	0,074	0,010
-540,466	272,551	0,033	0,043
-539,452	24,564	-0,094	-0,057
-538,437	317,089	-0,061	0,086
-537,423	31,290	0,071	0,045
-536,408	213,678	0,028	0,033
-535,393	412,081	0,040	-0,063
-534,379	496,636	0,101	-0,171
-533,364	-200,000	-0,011	0,069
-532,350	-4,594	-0,048	-0,024
-531,335	-145,271	0,075	-0,005
-530,321	-55,220	0,068	-0,022
-529,306	294,590	-0,069	-0,094
-528,291	-200,000	0,000	-0,097
-527,277	-28,196	-0,165	-0,070
-526,262	85,800	0,054	0,043
-525,248	800,000	0,027	0,061
-524,233	215,129	0,044	0,052
-523,218	-116,884	0,210	0,028
-522,204	-200,000	-0,005	0,051
-521,189	-49,073	-0,034	0,012
-520,175	-200,000	0,019	-0,144
-519,160	170,355	-0,123	-0,130
-518,145	-191,352	-0,104	0,001
-517,131	146,256	0,030	0,029
-516,116	-200,000	-0,011	-0,039
-515,102	230,823	0,129	0,156
-514,087	800,000	-0,088	-0,220
-513,072	528,602	0,030	-0,052
-512,058	800,000	0,008	0,023
-511,043	37,826	-0,086	0,056
-510,029	267,522	-0,082	0,106
-509,014	-200,000	-0,050	-0,163
-507,999	163,979	-0,070	0,073
-506,985	-96,729	-0,065	-0,012
-505,970	120,425	0,004	-0,004
-504,956	-111,880	0,082	-0,012
-503,941	49,146	-0,154	0,106
-502,926	335,399	-0,042	-0,060
-501,912	-107,147	0,080	-0,013
-500,897	-110,443	0,084	0,013
-499,883	-200,000	0,034	-0,141
-498,868	800,000	-0,039	-0,115
-497,853	800,000	-0,005	-0,014
-496,839	-129,628	0,034	0,003
-495,824	43,588	0,068	-0,045
-494,810	-135,090	0,046	-0,004
-493,795	-136,114	-0,027	-0,002
-492,781	800,000	0,016	0,051
-491,766	103,369	0,063	0,054
-490,751	70,609	0,083	-0,063
-489,737	-200,000	0,000	0,051
-488,722	382,333	0,072	0,109
-487,708	-95,440	0,074	-0,015
-486,693	-71,780	0,159	0,043
-485,678	155,498	-0,075	0,076
-484,664	536,427	-0,063	0,110
-483,649	107,366	-0,047	0,041
-482,635	800,000	0,058	-0,126
-481,620	800,000	0,039	0,099
-480,605	74,751	0,063	0,049
-479,591	800,000	-0,005	0,010
-478,576	-117,225	-0,051	-0,007
-477,562	-56,345	0,078	-0,025
-476,547	-45,062	-0,100	0,036
-475,532	231,846	-0,017	0,021
-474,518	-200,000	-0,026	-0,106
-473,503	417,701	0,061	0,096
-472,489	-200,000	-0,007	0,089
-471,474	-200,000	0,013	0,076
-470,459	-18,215	-0,091	-0,042
-469,445	-38,111	-0,103	-0,040
-468,430	-174,111	-0,178	0,004
-467,416	-200,000	0,004	-0,025
-466,401	-105,010	-0,094	-0,016
-465,386	-200,000	-0,014	0,109
-464,372	-200,000	0,054	0,205
-463,357	-161,191	0,083	0,003
-462,343	-104,038	-0,114	-0,019
-461,328	-200,000	-0,010	-0,044
-460,313	-32,767	0,125	-0,051
-459,299	-14,543	-0,064	0,030
-458,284	800,000	0,061	0,152
-457,270	800,000	-0,015	0,045
-456,255	265,369	0,017	0,022
-455,241	800,000	0,050	0,126
-454,226	100,429	-0,088	0,075
-453,211	800,000	-0,019	0,051
-452,197	-200,000	-0,001	-0,162
-451,182	-75,020	0,084	-0,022
-450,168	170,212	-0,029	0,031
-449,153	-91,904	-0,048	-0,010
-448,138	476,780	-0,088	-0,146
-447,124	14,671	-0,150	-0,086
-446,109	-200,000	0,011	-0,247
-445,095	-125,544	0,196	-0,022
-444,080	-52,514	0,069	0,023
-443,065	-200,000	-0,014	0,053
-442,051	174,686	-0,041	0,043
-441,036	38,651	-0,075	-0,049
-440,022	-200,000	0,011	0,107
-439,007	-200,000	0,012	-0,052
-437,992	-200,000	-0,007	0,039
-436,978	785,005	0,067	0,135
-435,963	32,747	0,107	0,068
-434,949	800,000	0,014	0,034
-433,934	391,999	-0,063	0,096
-432,919	-96,260	-0,147	-0,028
-431,905	41,305	-0,078	-0,052
-430,890	41,827	-0,052	-0,034
-429,876	-200,000	0,021	0,142
-428,861	800,000	0,045	0,110
-427,846	-45,428	0,065	-0,024
-426,832	800,000	0,040	-0,091
-425,817	800,000	-0,059	-0,122
-424,803	681,691	-0,021	-0,040
-423,788	-200,000	0,002	0,024
-422,773	-5,114	0,025	-0,013
-421,759	800,000	0,033	-0,081
-420,744	103,350	-0,072	0,062
-419,730	418,013	-0,078	-0,123
-418,715	309,862	-0,011	0,015
-417,701	-74,927	0,105	-0,027
-416,686	800,000	0,068	0,168
-415,671	106,651	0,020	-0,017
-414,657	-200,000	0,011	0,182
-413,642	308,024	-0,110	-0,150
-412,628	104,796	-0,090	-0,078
-411,613	83,598	0,056	-0,045
-410,598	-36,904	-0,082	-0,032
-409,584	2,804	-0,070	0,037
-408,569	800,000	0,077	0,202
-407,555	-31,188	0,089	-0,037
-406,540	-200,000	-0,007	-0,042
-405,525	-200,000	-0,012	0,078
-404,511	-3,940	0,214	0,108
-403,496	800,000	-0,034	-0,075
-402,482	42,304	-0,058	-0,038
-401,467	-10,341	0,085	0,041
-400,452	-139,111	0,084	-0,007
-399,438	-171,524	-0,125	0,003
-398,423	-200,000	0,006	-0,098
-397,409	-200,000	-0,008	-0,109
-396,394	800,000	0,016	0,033
-395,379	-140,861	-0,095	0,007
-394,365	-200,000	0,011	0,067
-393,350	353,309	0,111	0,162
-392,336	-200,000	0,030	0,103
-391,321	-92,467	0,031	0,006
-390,306	-200,000	0,004	-0,096
-389,292	-200,000	-0,013	0,063
-388,277	-40,758	-0,143	0,054
-387,263	90,065	0,142	0,116
-386,248	-200,000	-0,008	0,063
-385,233	271,641	0,042	0,054
-384,219	800,000	-0,002	0,005
-383,204	10,010	0,103	0,057
-382,190	37,164	0,034	0,022
-381,175	-75,834	0,074	-0,019
-380,160	-200,000	-0,006	-0,041
-379,146	359,274	-0,120	-0,176
-378,131	-13,654	0,117	0,055
-377,117	-178,964	0,044	0,001
-376,102	800,000	-0,046	-0,109
-375,088	-0,759	-0,122	-0,063
-374,073	14,924	0,116	0,067
-373,058	1,068	0,062	-0,033
-372,044	-66,532	0,094	0,027
-371,029	800,000	-0,012	-0,035
-370,015	412,537	-0,051	0,080
-369,000	-72,190	-0,047	-0,013
-367,985	231,032	0,067	-0,081
-366,971	616,594	0,025	-0,046
-365,956	-200,000	0,004	0,023
-364,942	800,000	-0,061	0,170
-363,927	800,000	-0,060	-0,172
-362,912	-200,000	-0,033	-0,113
-361,898	291,140	0,085	-0,114
-360,883	163,959	0,024	-0,024
-359,869	142,486	-0,050	-0,048
-358,854	-200,000	0,000	-0,135
-357,839	-200,000	-0,018	-0,116
-356,825	800,000	0,050	0,129
-355,810	-12,437	-0,099	0,047
-354,796	-200,000	-0,004	-0,149
-353,781	84,656	0,117	0,094
-352,766	800,000	0,004	0,010
-351,752	-161,036	-0,031	-0,001
-350,737	229,671	-0,050	0,060
-349,723	223,606	-0,027	0,032
-348,708	248,045	-0,017	0,021
-347,693	-103,555	-0,160	0,027
-346,679	147,363	-0,084	-0,082
-345,664	-200,000	-0,015	-0,235
-344,650	62,163	0,045	-0,033
-343,635	150,157	-0,041	0,041
-342,620	-12,160	0,079	0,038
-341,606	800,000	0,032	-0,076
-340,591	-104,233	-0,105	0,018
-339,577	-24,713	-0,176	-0,076
-338,562	15,329	-0,099	0,057
-337,548	692,858	-0,031	0,060
-336,533	113,392	0,115	0,102
-335,518	31,021	-0,037	-0,023
-334,504	-200,000	-0,014	0,073
-333,489	-200,000	-0,017	0,056
-332,475	-157,975	-0,024	0,001
-331,460	800,000	-0,011	-0,028
-330,445	-44,697	-0,135	-0,049
-329,431	0,773	0,046	0,024
-328,416	375,628	0,046	-0,068
-327,402	800,000	0,028	-0,067
-326,387	193,969	0,043	0,047
-325,372	800,000	0,086	0,211
-324,358	800,000	-0,031	-0,083
-323,343	-200,000	-0,011	-0,142
-322,329	-71,574	0,131	-0,036
-321,314	800,000	0,018	0,050
-320,299	800,000	-0,044	0,126
-319,285	-93,927	0,034	0,007
-318,270	210,910	-0,069	-0,080
-317,256	-200,000	0,003	-0,021
-316,241	106,179	0,040	0,035
-315,226	98,558	-0,024	0,021
-314,212	117,351	-0,047	0,042
-313,197	11,375	-0,020	0,011
-312,183	281,853	-0,025	-0,033
-311,168	-81,058	-0,197	0,047
-310,153	-76,201	0,073	0,019
-309,139	166,699	-0,109	-0,113
-308,124	160,878	0,040	-0,041
-307,110	179,659	0,034	0,037
-306,095	-16,707	0,217	-0,100
-305,080	-112,976	-0,060	-0,009
-304,066	-200,000	0,002	-0,060
-303,051	-200,000	-0,019	0,122
-302,037	-85,720	-0,059	0,013
-301,022	215,961	0,114	-0,133
-300,008	414,248	0,045	-0,071
-298,993	53,663	0,037	0,026
-297,978	800,000	-0,008	-0,016
-296,964	800,000	0,035	-0,071
-295,949	800,000	-0,063	0,132
-294,935	800,000	0,022	0,058
-293,920	613,098	0,039	-0,072
-292,905	63,249	0,117	0,086
-291,891	800,000	0,063	0,160
-290,876	-130,628	0,016	0,002
-289,862	570,958	-0,022	0,039
-288,847	171,282	0,119	-0,125
-287,832	200,721	-0,088	-0,099
-286,818	-200,000	0,004	0,036
-285,803	-200,000	0,017	0,117
-284,789	-200,000	0,023	0,108
-283,774	-157,331	0,099	0,004
-282,759	-116,653	0,107	-0,014
-281,745	354,350	0,062	-0,091
-280,730	62,357	0,042	-0,030
-279,716	199,914	-0,075	0,084
-278,701	-171,262	-0,135	0,003
-277,686	-200,000	-0,002	0,049
-276,672	800,000	0,033	0,074
-275,657	-200,000	0,015	-0,111
-274,643	800,000	-0,035	-0,100
-273,628	509,281	-0,037	0,063
-272,613	549,830	0,042	-0,073
-271,599	497,143	-0,067	0,113
-270,584	-108,238	0,053	0,008
-269,570	294,300	0,076	0,102
-268,555	96,350	0,021	0,018
-267,540	-200,000	-0,021	-0,098
-266,526	-166,892	0,033	0,001
-265,511	289,027	0,043	-0,057
-264,497	364,140	-0,058	-0,085
-263,482	173,119	0,052	0,054
-262,467	-111,605	0,054	0,008
-261,453	-21,078	-0,021	0,009
-260,438	10,589	0,063	-0,035
-259,424	539,733	-0,125	-0,218
-258,409	-25,190	-0,054	-0,023
-257,395	97,037	-0,090	0,075
-256,380	210,280	0,078	0,089
-255,365	-200,000	0,005	0,134
-254,351	-70,959	-0,102	0,028
-253,336	633,517	0,008	-0,015
-252,322	20,593	-0,039	-0,023
-251,307	800,000	-0,060	0,160
-250,292	-35,973	0,223	0,088
-249,278	159,762	0,061	0,062
-248,263	1,287	-0,065	-0,034
-247,249	58,744	-0,065	-0,046
-246,234	516,212	-0,066	-0,113
-245,219	-200,000	-0,052	0,197
-244,205	152,635	-0,076	-0,076
-243,190	800,000	-0,022	0,045
-242,176	-85,636	0,083	0,019
-241,161	-200,000	-0,009	0,194
-240,146	-200,000	0,011	0,081
-239,132	161,065	0,107	-0,109
-238,117	102,648	-0,052	-0,045
-237,103	313,347	-0,049	-0,067
-236,088	-98,716	0,146	-0,027
-235,073	73,729	0,069	0,052
-234,059	161,909	0,075	0,076
-233,044	-18,964	0,117	-0,053
-232,030	-114,254	-0,162	-0,023
-231,015	800,000	0,007	-0,015
-230,000	11,320	0,039	0,022
-228,986	-134,220	-0,091	-0,008
-227,971	-84,205	0,009	0,002
-226,957	-200,000	0,026	0,128
-225,942	-135,671	0,070	-0,006
-224,927	-105,820	0,085	0,014
-223,913	-200,000	0,010	-0,077
-222,898	-37,541	-0,122	-0,047
-221,884	800,000	0,048	0,132
-220,869	800,000	0,069	0,180
-219,855	20,082	0,171	-0,100
-218,840	800,000	-0,006	-0,017
-217,825	-170,432	-0,152	-0,004
-216,811	-200,000	-0,019	0,075
-215,796	-111,116	0,015	0,002
-214,782	461,076	-0,050	0,081
-213,767	800,000	-0,033	0,071
-212,752	800,000	0,037	0,118
-211,738	100,006	0,068	0,057
-210,723	350,642	0,068	-0,098
-209,709	476,645	-0,035	0,057
-208,694	128,736	-0,024	-0,022
-207,679	-120,445	-0,090	0,011
-206,665	334,283	0,029	0,041
-205,650	-200,000	-0,007	-0,052
-204,636	-79,552	0,154	0,038
-203,621	124,569	-0,025	-0,023
-202,606	-200,000	0,026	-0,111
-201,592	-9,467	-0,078	0,038
-200,577	-41,109	-0,071	-0,027
-199,563	281,162	-0,027	-0,036
-198,548	-94,088	0,154	-0,030
-197,533	-168,563	0,099	0,003
-196,519	28,816	0,039	-0,024
-195,504	214,723	-0,072	-0,083
-194,490	-83,650	-0,144	-0,033
-193,475	-23,628	-0,161	0,070
-192,460	-121,000	-0,067	0,008
-191,446	-200,000	0,021	0,072
-190,431	-147,734	0,163	0,010
-189,417	-118,342	-0,133	0,017
-188,402	-200,000	-0,002	0,092
-187,387	125,736	-0,096	0,088
-186,373	800,000	0,027	0,066
-185,358	-61,774	-0,133	0,040
-184,344	76,203	-0,065	-0,050
-183,329	-57,265	0,085	-0,027
-182,315	52,465	-0,044	-0,031
-181,300	-200,000	0,001	0,046
-180,285	800,000	-0,018	-0,045
-179,271	178,014	-0,050	-0,053
-178,256	491,156	-0,039	-0,065
-177,242	-46,030	0,057	0,020
-176,227	-74,922	0,120	0,031
-175,212	287,366	-0,041	-0,054
-174,198	-27,552	0,075	0,031
-173,183	-15,661	-0,037	0,017
-172,169	-78,074	-0,053	0,013
-171,154	800,000	-0,034	-0,074
-170,139	52,936	0,050	-0,035
-169,125	19,452	0,138	-0,081
-168,110	-200,000	-0,044	0,158
-167,096	-66,930	-0,048	0,014
-166,081	2,069	0,060	-0,031
-165,066	177,321	0,054	-0,057
-164,052	800,000	0,066	0,153
-163,037	83,379	0,016	-0,013
-162,023	800,000	0,032	-0,067
-161,008	-41,796	-0,060	-0,022
-159,993	23,138	0,100	0,060
-158,979	403,416	-0,025	-0,038
-157,964	-65,595	0,062	-0,018
-156,950	8,254	-0,056	-0,030
-155,935	800,000	0,022	-0,071
-154,920	29,091	0,017	0,011
-153,906	150,072	-0,144	0,142
-152,891	140,604	0,095	-0,091
-151,877	-28,434	0,187	0,078
-150,862	800,000	0,054	-0,137
-149,847	-27,208	-0,118	-0,050
-148,833	-200,000	0,014	0,046
-147,818	-39,035	0,138	-0,052
-146,804	-200,000	0,008	0,030
-145,789	-200,000	0,010	0,151
-144,775	160,040	-0,116	0,117
-143,760	519,709	-0,092	0,157
-142,745	20,107	-0,125	0,073
-141,731	539,090	-0,084	0,145
-140,716	396,952	0,017	-0,025
-139,702	182,207	0,116	0,124
-138,687	-12,720	-0,052	-0,025
-137,672	676,483	0,075	-0,142
-136,658	-200,000	-0,029	-0,140
-135,643	-32,653	-0,183	-0,073
-134,629	-50,707	-0,110	0,037
-133,614	-200,000	0,005	0,110
-132,599	-12,285	-0,045	-0,021
-131,585	-198,680	0,095	-0,000
-130,570	238,828	-0,064	0,077
-129,556	90,148	-0,159	0,129
-128,541	-111,515	-0,109	-0,016
-127,526	102,717	-0,081	-0,069
-126,512	-69,854	-0,057	0,016
-125,497	295,634	0,052	0,069
-124,483	-62,782	-0,149	0,045
-123,468	-195,314	-0,073	0,000
-122,453	-157,725	-0,224	0,010
-121,439	46,201	-0,055	-0,037
-120,424	-22,722	-0,097	0,042
-119,410	19,173	-0,073	-0,043
-118,395	-59,970	-0,014	-0,004
-117,380	-200,000	0,011	0,043
-116,366	-44,043	-0,195	-0,071
-115,351	-200,000	0,021	-0,142
-114,337	-200,000	-0,001	-0,126
-113,322	119,826	-0,080	-0,072
-112,307	-200,000	0,000	0,152
-111,293	-41,717	-0,063	0,023
-110,278	-119,077	-0,169	0,021
-109,264	516,991	-0,014	0,023
-108,249	-84,692	-0,155	0,035
-107,234	-200,000	-0,009	-0,082
-106,220	-152,591	-0,127	0,006
-105,205	523,728	-0,080	0,136
-104,191	-200,000	0,001	-0,061
-103,176	-35,088	-0,048	0,019
-102,162	577,490	-0,040	-0,072
-101,147	-130,500	0,098	-0,009
-100,132	-5,532	-0,090	0,044
-99,118	237,288	-0,051	0,061
-98,103	146,902	-0,071	0,069
-97,089	-200,000	0,003	0,081
-96,074	-2,570	0,120	-0,061
-95,059	157,849	-0,094	0,094
-94,045	-200,000	0,002	-0,132
-93,030	111,247	0,114	-0,099
-92,016	800,000	-0,047	-0,131
-91,001	-137,424	0,177	0,014
-89,986	317,300	0,102	0,140
-88,972	593,926	0,040	0,073
-87,957	-101,195	0,024	0,004
-86,943	-74,203	0,047	0,012
-85,928	302,253	-0,055	0,073
-84,913	-120,706	-0,114	-0,014
-83,899	113,376	-0,058	-0,051
-82,884	-89,629	-0,038	-0,008
-81,870	-200,000	-0,025	0,092
-80,855	800,000	-0,036	0,112
-79,840	800,000	-0,023	-0,052
-78,826	-200,000	0,017	-0,065
-77,811	88,430	-0,207	-0,166
-76,797	255,021	-0,091	-0,113
-75,782	-46,321	-0,025	0,009
-74,767	800,000	0,033	0,073
-73,753	-200,000	0,002	0,060
-72,738	-106,096	0,073	-0,012
-71,724	-20,388	-0,020	-0,009
-70,709	551,717	0,018	0,032
-69,694	665,301	-0,055	-0,103
-68,680	-66,527	-0,073	-0,021
-67,665	12,810	0,091	-0,051
-66,651	-200,000	0,012	0,081
-65,636	-127,117	-0,190	0,020
-64,622	-48,388	0,024	-0,008
-63,607	-76,187	0,043	-0,011
-62,592	-24,113	-0,063	-0,027
-61,578	-200,000	-0,013	0,048
-60,563	-38,268	-0,067	-0,026
-59,549	-200,000	0,004	0,075
-58,534	-33,357	-1,762	-0,702
-57,519	800,000	-0,419	-1,072
-56,505	-200,000	-1,169	-4,868
-55,490	-87,242	0,822	0,179
-54,476	800,000	5,200	12,195
-53,461	-200,000	16,587	271,251
-52,446	800,000	710,488	2216,008
-51,432	564,019	1621,752	2853,078
-50,417	116,731	1619,462	1437,436
-49,403	80,968	1281,026	999,082
-48,388	35,063	1027,923	649,838
-47,373	21,051	990,181	579,482
-46,359	19,843	978,537	568,654
-45,344	17,743	974,624	559,435
-44,330	17,866	973,281	559,047
-43,315	17,544	971,294	556,821
-42,300	17,490	970,528	556,184
-41,286	17,465	969,409	555,438
-40,271	17,455	968,518	554,872
-39,257	17,461	967,544	554,314
-38,242	17,527	966,862	554,115
-37,227	17,491	965,926	553,442
-36,213	17,404	965,137	552,680
-35,198	17,440	964,091	552,178
-34,184	17,464	963,524	551,910
-33,169	17,446	962,728	551,373
-32,154	17,505	961,758	550,988
-31,140	17,483	960,779	550,333
-30,125	17,478	960,023	549,861
-29,111	17,443	959,113	549,207
-28,096	17,499	958,626	549,088
-27,082	17,421	957,939	548,420
-26,067	17,428	957,163	547,975
-25,052	17,401	956,522	547,500
-24,038	17,408	955,789	547,080
-23,023	17,411	955,012	546,624
-22,009	17,469	954,335	546,401
-20,994	17,412	953,701	545,834
-19,979	17,423	953,141	545,527
-18,965	17,445	952,372	545,137
-17,950	17,437	951,836	544,783
-16,936	17,392	951,187	544,243
-15,921	17,395	950,447	543,810
-14,906	17,292	949,701	543,028
-13,892	17,245	949,128	542,529
-12,877	17,322	948,266	542,264
-11,863	17,241	947,814	541,723
-10,848	17,296	947,358	541,617
-9,833	17,366	946,731	541,459
-8,819	17,370	946,096	541,088
-7,804	17,309	945,560	540,566
-6,790	17,327	944,919	540,234
-5,775	17,304	944,394	539,841
-4,760	17,345	943,704	539,555
-3,746	17,345	942,946	539,100
-2,731	17,218	942,205	538,250
-1,717	17,174	941,612	537,749
-0,702	17,129	940,987	537,228
0,313	16,927	940,278	536,993
1,327	20,294	938,497	546,616
2,342	29,923	794,489	488,393
3,356	26,496	447,211	269,759
4,371	-5,165	294,373	145,829
5,386	-9,236	275,830	132,760
6,400	-10,606	269,996	128,664
7,415	-11,062	267,557	127,070
8,429	-10,601	266,500	126,980
9,444	-10,617	265,622	126,536
10,459	-10,345	265,043	126,498
11,473	-10,427	264,462	126,135
12,488	-10,274	264,004	126,044
13,502	-10,344	263,491	125,725
14,517	-10,052	263,106	125,794
15,531	-9,790	262,903	125,924
16,546	-9,640	262,686	125,945
17,561	-9,603	262,161	125,715
18,575	-9,558	261,878	125,608
19,590	-9,844	261,568	125,191
20,604	-9,629	261,351	125,269
21,619	-9,651	260,987	125,064
22,634	-9,529	260,420	124,891
23,648	-9,784	260,305	124,595
24,663	-9,691	260,074	124,557
25,677	-9,760	259,857	124,380
26,692	-9,732	259,597	124,270
27,707	-9,644	259,378	124,233
28,721	-9,679	259,078	124,047
29,736	-9,712	258,703	123,827
30,750	-9,651	258,398	123,724
31,765	-9,734	258,295	123,590
32,780	-9,710	258,070	123,492
33,794	-9,691	257,749	123,345
34,809	-9,802	257,670	123,197
35,823	-9,727	257,252	123,053
36,838	-9,916	257,191	122,845
37,853	-9,590	256,900	122,983
38,867	-9,790	256,557	122,632
39,882	-9,746	256,313	122,543
40,896	-9,725	256,235	122,514
41,911	-9,727	256,007	122,392
42,926	-9,692	255,831	122,328
43,940	-9,818	255,524	122,059
44,955	-9,697	255,368	122,080
45,969	-9,948	255,183	121,761
46,984	-9,687	254,876	121,832
47,999	-9,840	254,735	121,620
49,013	-9,971	254,484	121,374
50,028	-10,178	254,446	121,165
51,042	-10,175	254,094	120,989
52,057	-9,972	253,670	120,953
53,071	-10,221	253,670	120,725
54,086	-10,131	253,371	120,651
55,101	-9,864	253,208	120,795
56,115	-9,915	252,964	120,623
57,130	-9,671	252,693	120,694
58,144	-9,818	252,631	120,526
59,159	-9,833	252,552	120,465
60,174	-9,805	252,224	120,323
61,188	-9,786	251,916	120,181
62,203	-9,938	251,944	120,052
63,217	-9,772	251,521	119,983
64,232	-9,868	251,401	119,833
65,247	-9,970	251,145	119,612
66,261	-9,937	250,999	119,560
67,276	-9,863	250,654	119,448
68,290	-9,913	250,540	119,341
69,305	-10,088	250,146	118,992
70,320	-9,996	250,104	119,041
71,334	-9,916	249,915	119,009
72,349	-9,818	249,794	119,024
73,363	-9,708	249,414	118,926
74,378	-9,741	249,307	118,837
75,393	-9,850	249,032	118,602
76,407	-9,691	248,815	118,624
77,422	-9,794	248,673	118,458
78,436	-9,812	248,349	118,278
79,451	-9,822	248,215	118,195
80,466	-9,775	247,988	118,116
81,480	-9,687	247,671	118,029
82,495	-9,791	247,604	117,899
83,509	-9,599	247,375	117,942
84,524	-9,851	247,385	117,722
85,539	-9,856	247,059	117,553
86,553	-9,909	246,878	117,411
87,568	-9,836	246,705	117,380
88,582	-9,874	246,371	117,179
89,597	-9,954	246,229	117,033
90,611	-9,728	246,012	117,110
91,626	-9,865	246,069	117,011
92,641	-9,819	245,752	116,889
93,655	-9,880	245,754	116,828
94,670	-9,821	245,229	116,618
95,684	-9,831	245,138	116,556
96,699	-9,911	244,914	116,372
97,714	-9,816	244,821	116,396
98,728	-10,075	244,617	116,072
99,743	-9,864	244,389	116,131
100,757	-9,783	244,179	116,088
101,772	-9,865	243,915	115,883
102,787	-9,946	243,883	115,790
103,801	-9,826	243,557	115,725
104,816	-9,901	243,341	115,550
105,830	-9,896	243,329	115,538
106,845	-9,698	243,053	115,561
107,860	-9,892	242,995	115,362
108,874	-10,121	242,632	114,989
109,889	-10,202	242,368	114,787
110,903	-10,042	242,139	114,801
111,918	-10,227	242,128	114,632
112,933	-10,122	242,071	114,682
113,947	-10,047	241,921	114,663
114,962	-10,032	241,675	114,548
115,976	-9,952	241,418	114,482
116,991	-9,946	241,325	114,433
118,006	-9,967	241,239	114,365
119,020	-9,982	240,874	114,169
120,035	-9,846	240,860	114,264
121,049	-9,895	240,769	114,170
122,064	-9,729	240,443	114,142
123,079	-9,905	240,145	113,846
124,093	-9,810	239,972	113,831
125,108	-10,101	239,966	113,580
126,122	-10,086	239,826	113,516
127,137	-9,831	239,445	113,534
128,151	-9,990	239,317	113,333
129,166	-10,012	239,255	113,276
130,181	-10,004	239,027	113,164
131,195	-9,973	238,799	113,072
132,210	-10,058	238,523	112,862
133,224	-10,049	238,412	112,806
134,239	-9,957	238,250	112,794
135,254	-10,035	238,056	112,630
136,268	-9,947	237,802	112,570
137,283	-9,862	237,661	112,563
138,297	-9,950	237,452	112,382
139,312	-10,142	237,188	112,092
140,327	-10,059	237,120	112,117
141,341	-10,004	237,201	112,190
142,356	-9,965	236,958	112,096
143,370	-9,866	236,726	112,056
144,385	-9,784	236,505	112,008
145,400	-9,706	236,448	112,034
146,414	-9,685	236,239	111,941
147,429	-9,838	236,115	111,750
148,443	-9,843	235,877	111,624
149,458	-9,794	235,673	111,556
150,473	-9,593	235,455	111,604
151,487	-9,880	235,215	111,251
152,502	-9,892	235,126	111,189
153,516	-9,822	235,031	111,190
154,531	-9,719	234,834	111,169
155,546	-9,733	234,628	111,050
156,560	-9,888	234,493	110,853
157,575	-10,106	234,409	110,630
158,589	-10,085	233,936	110,413
159,604	-9,868	233,974	110,594
160,619	-9,505	233,834	110,807
161,633	-9,664	233,710	110,612
162,648	-9,605	233,393	110,499
163,662	-9,676	233,307	110,392
164,677	-10,073	233,291	110,059
165,692	-9,781	232,880	110,087
166,706	-9,655	232,969	110,219
167,721	-9,653	232,763	110,114
168,735	-9,721	232,558	109,953
169,750	-9,796	232,397	109,807
170,764	-9,796	232,390	109,795
171,779	-9,903	232,116	109,571
172,794	-9,957	231,944	109,437
173,808	-10,029	231,829	109,316
174,823	-9,852	231,519	109,300
175,837	-10,059	231,340	109,043
176,852	-10,037	231,270	109,017
177,867	-9,896	231,046	109,013
178,881	-9,818	231,017	109,050
179,896	-9,816	230,757	108,920
180,910	-9,771	230,657	108,898
181,925	-9,868	230,462	108,721
182,940	-9,696	230,187	108,716
183,954	-9,794	230,157	108,614
184,969	-9,570	230,146	108,775
185,983	-9,646	230,096	108,682
186,998	-9,691	229,950	108,569
188,013	-9,677	229,573	108,392
189,027	-9,664	229,413	108,317
190,042	-9,703	229,278	108,214
191,056	-9,701	229,008	108,078
192,071	-9,863	228,854	107,869
193,086	-10,044	228,776	107,683
194,100	-10,599	228,227	106,985
195,115	-11,970	227,570	105,608
196,129	-11,985	227,752	105,671
197,144	-7,197	229,110	110,013
198,159	-1,747	230,593	114,968
199,173	1,235	231,552	117,766
200,188	2,327	231,596	118,631
201,202	2,628	231,772	118,946
202,217	2,905	231,658	119,092
203,232	3,060	231,607	119,176
204,246	3,412	231,258	119,260
205,261	3,217	231,287	119,113
206,275	3,458	231,060	119,173
207,290	3,179	231,009	118,919
208,304	3,078	230,954	118,801
209,319	3,238	230,629	118,748
210,334	3,436	230,393	118,769
211,348	2,797	230,091	118,108
212,363	2,437	229,712	117,625
213,377	2,017	229,554	117,209
214,392	2,006	229,435	117,129
215,407	1,997	229,255	117,020
216,421	1,773	229,060	116,737
217,436	1,658	228,939	116,577
218,450	1,758	228,598	116,470
219,465	1,632	228,550	116,338
220,480	1,771	228,486	116,402
221,494	1,595	228,344	116,183
222,509	1,996	228,112	116,363
223,523	1,944	227,992	116,252
224,538	1,988	227,908	116,232
225,553	1,944	227,761	116,113
226,567	1,959	227,533	115,998
227,582	1,891	227,446	115,892
228,596	1,823	227,330	115,770
229,611	2,115	227,031	115,830
230,626	2,029	226,902	115,688
231,640	1,995	226,842	115,622
232,655	2,061	226,747	115,613
233,669	2,068	226,418	115,440
234,684	2,057	226,291	115,357
235,699	2,021	226,305	115,327
236,713	2,348	226,028	115,423
237,728	2,163	226,097	115,307
238,742	2,128	225,968	115,205
239,757	2,145	225,840	115,142
240,772	2,193	225,505	114,998
241,786	2,241	225,395	114,968
242,801	2,326	225,386	115,017
243,815	2,571	225,178	115,086
244,830	2,660	224,992	115,048
245,844	2,280	224,864	114,685
246,859	2,309	224,762	114,645
247,874	2,236	224,586	114,490
248,888	2,304	224,431	114,452
249,903	2,158	224,361	114,296
250,917	2,057	224,205	114,131
251,932	2,295	224,038	114,214
252,947	2,363	223,826	114,147
253,961	2,412	223,749	114,134
254,976	2,154	223,619	113,864
255,990	2,410	223,484	113,977
257,005	2,430	223,365	113,922
258,020	2,332	223,137	113,722
259,034	2,369	223,113	113,727
260,049	2,368	222,959	113,637
261,063	2,412	222,657	113,506
262,078	2,539	222,582	113,553
263,093	2,281	222,574	113,346
264,107	2,159	222,373	113,142
265,122	2,224	222,181	113,083
266,136	2,628	221,898	113,230
267,151	2,359	221,853	112,996
268,166	2,099	221,643	112,686
269,180	2,165	221,291	112,547
270,195	2,006	221,336	112,442
271,209	2,058	221,187	112,394
272,224	2,126	221,120	112,401
273,239	1,920	221,058	112,207
274,253	2,292	220,672	112,276
275,268	2,077	220,600	112,070
276,282	2,215	220,408	112,064
277,297	1,898	220,323	111,777
278,312	2,047	220,027	111,727
279,326	2,308	219,997	111,894
280,341	2,326	219,911	111,853
281,355	2,041	219,870	111,613
282,370	2,122	219,689	111,571
283,384	2,283	219,392	111,528
284,399	1,993	219,283	111,250
285,414	2,246	219,224	111,396
286,428	2,430	219,050	111,432
287,443	2,225	219,059	111,276
288,457	2,182	218,863	111,135
289,472	2,405	218,725	111,219
290,487	2,260	218,496	110,986
291,501	2,015	218,396	110,747
292,516	2,068	218,376	110,766
293,530	2,186	218,220	110,762
294,545	2,479	217,852	110,779
295,560	2,535	217,847	110,807
296,574	2,693	217,679	110,827
297,589	2,509	217,546	110,616
298,603	2,531	217,436	110,566
299,618	2,256	217,335	110,305
300,633	2,439	217,223	110,371
301,647	2,381	217,199	110,307
302,662	2,654	216,918	110,352
303,676	2,463	216,812	110,150
304,691	2,501	216,610	110,065
305,706	2,332	216,605	109,931
306,720	2,561	216,362	109,963
307,735	2,475	216,193	109,805
308,749	2,439	215,953	109,647
309,764	2,741	215,887	109,821
310,779	2,321	215,714	109,421
311,793	2,368	215,582	109,379
312,808	2,351	215,388	109,258
313,822	2,598	215,159	109,310
314,837	2,286	215,170	109,082
315,852	2,166	215,107	108,954
316,866	2,206	214,970	108,903
317,881	2,248	214,792	108,833
318,895	2,417	214,604	108,850
319,910	2,260	214,468	108,659
320,925	2,224	214,201	108,488
321,939	2,128	214,020	108,318
322,954	2,094	214,149	108,349
323,968	2,310	213,918	108,377
324,983	2,158	213,910	108,255
325,997	2,287	213,638	108,199
327,012	2,176	213,406	107,994
328,027	2,228	213,280	107,956
329,041	2,151	213,336	107,921
330,056	2,330	213,202	107,970
331,070	2,152	213,041	107,753
332,085	2,396	212,792	107,791
333,100	2,313	212,669	107,660
334,114	2,271	212,504	107,537
335,129	2,300	212,526	107,559
336,143	2,308	212,169	107,375
337,158	2,450	212,113	107,437
338,173	2,153	212,127	107,225
339,187	2,067	211,791	106,984
340,202	2,265	211,550	106,992
341,216	2,215	211,530	106,938
342,231	2,126	211,582	106,892
343,246	2,266	211,319	106,848
344,260	2,331	211,190	106,819
345,275	2,395	211,171	106,845
346,289	2,403	210,987	106,748
347,304	2,633	210,816	106,812
348,319	2,421	210,680	106,586
349,333	2,376	210,501	106,454
350,348	2,147	210,419	106,243
351,362	2,577	210,270	106,459
352,377	2,341	210,286	106,293
353,392	2,229	210,157	106,140
354,406	2,036	209,866	105,849
355,421	194,282	1342,189	1427,356
356,435	155,086	1480,161	1427,374
