DTS Sentinel unit serial number:	SN410029Multiplexer serial number:	ORYXHardware model number:	OX2-SRSoftware version number:	ORYX F/W v4,00 Oryx Data Collector v3.7.2.0data status	okinstallation	B6 Nyhavnadifferential loss correction	single-endedforward channel	channel 2reverse channel	N/Adate	2023/12/09time	10:05:08forward acquisition time	300,00reverse acquisition time	0,00gamma	499,1914k internal	0,3139k external	0,3139temperature offset calibration	1,0000default loss term (dB/km)	0,3820temperature slope calibration	1,0000multiplexer offset coefficient	1,0000multiplexer slope coefficient	1,0000fibre end	0,00T internal ref (°C)	18,50T ext. ref 1 (°C)	2,14T ext. ref 2 (°C)	2,14length (m)	temperature (°C)	Stokes	anti-Stokes-744,400	-21,142	0,054	-0,025
-743,385	30,897	-0,134	0,085
-742,371	-145,302	0,110	0,007
-741,356	-103,201	-0,219	0,038
-740,342	-145,944	0,162	0,010
-739,327	-79,719	-0,325	-0,081
-738,312	13,430	0,066	0,038
-737,298	-73,395	-0,364	0,098
-736,283	800,000	0,088	0,216
-735,269	-116,448	-0,296	0,040
-734,254	-165,734	0,158	-0,005
-733,239	-74,431	-0,444	-0,118
-732,225	7,739	0,160	0,088
-731,210	-13,065	0,076	0,036
-730,196	-200,000	-0,031	-0,166
-729,181	-124,392	-0,102	0,012
-728,167	-200,000	-0,006	0,030
-727,152	137,845	0,007	-0,006
-726,137	-34,608	-0,051	-0,021
-725,123	-100,392	-0,085	0,015
-724,108	-146,280	-0,061	-0,004
-723,094	162,669	-0,043	-0,044
-722,079	-200,000	-0,027	0,115
-721,064	-200,000	-0,022	0,126
-720,050	-200,000	-0,019	-0,161
-719,035	15,802	-0,035	0,020
-718,021	122,508	-0,098	-0,091
-717,006	-200,000	0,010	-0,041
-715,991	511,992	0,047	0,082
-714,977	800,000	-0,072	-0,154
-713,962	106,908	-0,100	-0,088
-712,948	-55,593	0,154	-0,051
-711,933	-200,000	-0,011	0,168
-710,918	114,443	-0,042	-0,038
-709,904	-13,723	-0,100	-0,048
-708,889	20,167	-0,126	-0,075
-707,875	-200,000	-0,009	-0,165
-706,860	42,638	0,068	0,046
-705,845	-200,000	-0,009	0,099
-704,831	-200,000	-0,005	0,087
-703,816	-74,467	-0,164	0,043
-702,802	66,576	0,072	0,054
-701,787	220,409	-0,109	-0,129
-700,772	-200,000	-0,014	-0,093
-699,758	67,911	0,115	-0,087
-698,743	-200,000	-0,005	-0,032
-697,729	215,203	0,066	0,078
-696,714	318,522	-0,041	0,057
-695,699	197,272	-0,037	-0,041
-694,685	-200,000	-0,006	-0,141
-693,670	-200,000	0,011	-0,069
-692,656	800,000	-0,060	0,142
-691,641	800,000	-0,024	0,063
-690,627	800,000	0,049	0,108
-689,612	-25,799	0,064	0,028
-688,597	-127,902	-0,090	0,009
-687,583	84,416	-0,057	-0,046
-686,568	-200,000	-0,019	0,092
-685,554	-200,000	-0,008	-0,037
-684,539	-200,000	0,026	0,133
-683,524	-200,000	-0,016	-0,108
-682,510	-200,000	0,009	0,117
-681,495	-200,000	-0,009	-0,149
-680,481	-200,000	0,002	-0,046
-679,466	367,913	0,028	-0,042
-678,451	-200,000	0,002	0,082
-677,437	-200,000	0,000	-0,015
-676,422	-200,000	0,025	0,120
-675,408	-200,000	-0,041	-0,183
-674,393	73,459	0,017	-0,013
-673,378	-37,343	-0,134	-0,053
-672,364	-92,622	-0,161	0,033
-671,349	-200,000	-0,034	-0,149
-670,335	302,578	-0,085	-0,117
-669,320	327,253	-0,094	0,133
-668,305	800,000	0,029	-0,080
-667,291	800,000	-0,052	-0,156
-666,276	91,501	-0,096	-0,079
-665,262	-78,385	-0,090	-0,023
-664,247	92,538	-0,044	0,037
-663,232	-13,954	-0,050	-0,024
-662,218	-97,726	0,096	-0,018
-661,203	351,880	-0,046	0,068
-660,189	50,910	-0,087	0,061
-659,174	-85,729	-0,115	-0,026
-658,159	526,484	-0,039	-0,069
-657,145	210,642	-0,056	-0,065
-656,130	86,884	-0,174	0,142
-655,116	435,443	0,072	0,116
-654,101	57,302	-0,108	0,077
-653,086	112,807	0,061	0,055
-652,072	38,202	-0,037	0,024
-651,057	30,782	-0,160	-0,101
-650,043	345,853	0,022	-0,032
-649,028	800,000	0,043	-0,100
-648,014	-76,210	0,121	0,031
-646,999	-200,000	-0,025	0,093
-645,984	270,118	0,064	0,084
-644,970	167,066	0,047	0,049
-643,955	-200,000	0,004	-0,164
-642,941	57,716	-0,075	-0,054
-641,926	800,000	-0,029	-0,076
-640,911	19,299	-0,015	0,009
-639,897	-200,000	0,007	-0,081
-638,882	156,945	-0,052	0,053
-637,868	367,890	-0,043	-0,064
-636,853	-200,000	-0,011	-0,046
-635,838	-195,056	-0,145	0,001
-634,824	325,832	0,142	-0,202
-633,809	304,711	-0,032	0,044
-632,795	-200,000	0,013	0,147
-631,780	-125,157	-0,082	-0,009
-630,765	49,103	-0,236	0,164
-629,751	501,158	-0,065	-0,111
-628,736	21,328	-0,167	-0,100
-627,722	800,000	0,011	-0,036
-626,707	238,796	0,040	-0,049
-625,692	559,932	-0,022	0,040
-624,678	128,072	0,067	0,063
-623,663	-154,226	-0,134	-0,007
-622,649	-36,287	0,083	0,033
-621,634	-200,000	-0,016	-0,092
-620,619	800,000	0,018	0,039
-619,605	7,986	-0,045	0,025
-618,590	-200,000	-0,007	0,035
-617,576	434,644	0,051	0,083
-616,561	88,043	-0,029	0,024
-615,546	800,000	0,021	-0,043
-614,532	53,735	-0,067	0,047
-613,517	23,146	-0,107	-0,065
-612,503	353,384	0,026	0,039
-611,488	-1,376	0,066	0,034
-610,474	83,145	-0,048	0,039
-609,459	-200,000	0,013	0,138
-608,444	-49,884	-0,093	-0,032
-607,430	-200,000	-0,036	-0,166
-606,415	267,698	0,027	0,035
-605,401	331,877	-0,052	-0,074
-604,386	800,000	0,015	0,044
-603,371	-126,413	0,038	-0,004
-602,357	-149,348	0,015	-0,001
-601,342	18,259	0,116	0,068
-600,328	399,107	-0,059	-0,091
-599,313	55,135	-0,138	-0,098
-598,298	-200,000	0,022	-0,138
-597,284	-4,636	0,111	0,057
-596,269	155,509	0,024	-0,024
-595,255	26,859	0,075	-0,047
-594,240	209,836	-0,039	0,045
-593,225	243,182	-0,019	-0,023
-592,211	-200,000	0,017	-0,063
-591,196	-35,358	0,026	0,010
-590,182	506,140	-0,062	-0,106
-589,167	800,000	0,042	-0,103
-588,152	-200,000	0,008	0,047
-587,138	-56,180	0,017	0,006
-586,123	-29,883	-0,049	-0,020
-585,109	-56,486	0,040	-0,013
-584,094	244,889	-0,029	-0,036
-583,079	800,000	0,004	0,009
-582,065	-200,000	0,001	0,083
-581,050	124,688	0,095	0,088
-580,036	800,000	0,036	0,092
-579,021	197,721	0,011	0,012
-578,006	-200,000	-0,017	-0,082
-576,992	-140,857	-0,102	0,008
-575,977	107,972	-0,057	-0,050
-574,963	800,000	-0,030	0,091
-573,948	-200,000	-0,022	0,165
-572,934	-151,223	-0,073	-0,004
-571,919	160,059	-0,076	0,078
-570,904	-33,951	0,076	-0,031
-569,890	-73,898	-0,155	0,041
-568,875	243,012	0,045	-0,055
-567,861	800,000	-0,066	0,140
-566,846	68,781	-0,128	0,096
-565,831	195,162	0,046	-0,052
-564,817	-30,781	-0,117	0,049
-563,802	-200,000	0,014	-0,168
-562,788	65,022	0,018	-0,013
-561,773	-200,000	0,034	-0,117
-560,758	174,966	0,096	0,103
-559,744	170,837	0,024	0,025
-558,729	-85,386	-0,040	0,009
-557,715	408,462	0,107	-0,167
-556,700	148,078	0,084	-0,083
-555,685	-200,000	0,033	0,000
-554,671	377,296	0,031	-0,047
-553,656	-84,234	0,098	-0,023
-552,642	294,269	-0,053	0,072
-551,627	391,019	0,050	0,077
-550,612	735,846	0,025	-0,049
-549,598	800,000	0,060	-0,159
-548,583	-137,572	-0,082	0,007
-547,569	143,517	-0,104	0,102
-546,554	111,936	0,098	0,087
-545,539	-200,000	0,020	0,104
-544,525	-61,877	-0,089	-0,027
-543,510	800,000	0,057	-0,160
-542,496	-200,000	0,015	-0,078
-541,481	-86,396	-0,164	0,037
-540,466	-96,504	0,078	-0,015
-539,452	271,455	-0,069	0,089
-538,437	-177,935	-0,042	-0,001
-537,423	-66,776	-0,044	0,013
-536,408	-200,000	-0,010	0,065
-535,393	346,705	-0,113	-0,164
-534,379	-200,000	0,020	-0,079
-533,364	39,208	0,089	-0,058
-532,350	30,253	-0,083	0,052
-531,335	534,539	0,048	0,084
-530,321	51,251	0,037	-0,026
-529,306	800,000	-0,044	-0,137
-528,291	-76,181	0,076	-0,020
-527,277	43,685	-0,082	-0,055
-526,262	350,911	0,021	0,030
-525,248	719,498	0,071	0,140
-524,233	-6,640	-0,146	0,073
-523,218	-119,564	-0,054	0,007
-522,204	-54,619	-0,088	-0,029
-521,189	169,253	-0,044	-0,046
-520,175	659,561	-0,042	-0,080
-519,160	800,000	-0,046	-0,095
-518,145	75,433	-0,035	0,027
-517,131	-200,000	-0,016	0,080
-516,116	36,817	-0,036	-0,023
-515,102	-80,175	-0,050	-0,012
-514,087	185,927	-0,014	-0,015
-513,072	-4,437	-0,071	-0,036
-512,058	800,000	0,038	0,112
-511,043	698,248	0,009	0,017
-510,029	208,112	0,041	-0,047
-509,014	-98,097	-0,109	0,020
-507,999	-63,429	0,075	-0,023
-506,985	77,413	-0,035	-0,027
-505,970	199,586	-0,071	-0,080
-504,956	305,656	-0,063	0,087
-503,941	-200,000	0,009	0,267
-502,926	-200,000	-0,008	-0,091
-501,912	800,000	0,014	0,043
-500,897	5,974	-0,015	0,008
-499,883	-200,000	0,004	-0,166
-498,868	-200,000	-0,025	-0,149
-497,853	319,215	0,021	0,029
-496,839	-174,395	-0,084	0,002
-495,824	-200,000	-0,013	-0,066
-494,810	-35,156	0,068	0,027
-493,795	336,683	0,042	0,061
-492,781	-170,405	-0,051	-0,001
-491,766	158,727	0,088	0,090
-490,751	641,359	-0,020	-0,037
-489,737	-200,000	-0,014	-0,054
-488,722	115,802	-0,057	-0,051
-487,708	-95,212	0,071	0,014
-486,693	193,102	-0,009	-0,010
-485,678	-171,973	0,068	-0,002
-484,664	-200,000	-0,021	-0,102
-483,649	-69,014	-0,117	-0,033
-482,635	306,056	-0,064	-0,087
-481,620	142,084	0,097	0,094
-480,605	-149,354	0,111	-0,006
-479,591	117,064	-0,097	-0,087
-478,576	12,893	0,053	-0,030
-477,562	130,985	-0,066	0,062
-476,547	-200,000	-0,006	-0,064
-475,532	800,000	-0,034	0,082
-474,518	-12,022	0,089	0,043
-473,503	-200,000	0,005	0,095
-472,489	177,380	-0,064	0,068
-471,474	38,066	0,088	0,057
-470,459	-37,700	-0,020	-0,008
-469,445	-200,000	-0,022	0,086
-468,430	527,286	0,038	-0,066
-467,416	-114,808	0,037	-0,005
-466,401	135,388	-0,063	0,060
-465,386	798,776	0,044	0,089
-464,372	800,000	0,026	-0,067
-463,357	-138,530	-0,061	-0,005
-462,343	438,601	0,043	-0,069
-461,328	-47,601	0,037	-0,013
-460,313	88,852	0,023	0,018
-459,299	-57,421	-0,054	-0,017
-458,284	-200,000	0,064	0,000
-457,270	-200,000	0,004	0,129
-456,255	530,292	-0,029	-0,051
-455,241	-121,741	0,085	-0,010
-454,226	-200,000	-0,040	-0,174
-453,211	-200,000	0,022	0,072
-452,197	-110,755	0,193	0,029
-451,182	-200,000	0,012	0,086
-450,168	355,089	-0,046	-0,067
-449,153	167,660	0,126	-0,131
-448,138	-200,000	-0,029	-0,101
-447,124	-51,755	-0,054	0,018
-446,109	-200,000	0,010	-0,094
-445,095	-102,582	0,084	-0,015
-444,080	762,780	-0,019	-0,038
-443,065	656,842	0,036	-0,069
-442,051	-200,000	-0,001	0,067
-441,036	533,651	-0,061	-0,107
-440,022	-200,000	-0,005	-0,037
-439,007	-200,000	-0,029	0,154
-437,992	-139,845	0,167	0,013
-436,978	133,749	-0,074	0,071
-435,963	-101,787	-0,178	0,031
-434,949	307,402	-0,108	0,148
-433,934	-129,559	-0,142	-0,014
-432,919	51,367	0,047	0,033
-431,905	-200,000	0,013	0,060
-430,890	88,449	0,053	0,043
-429,876	-62,937	0,150	0,045
-428,861	-200,000	-0,030	0,105
-427,846	105,527	-0,094	-0,081
-426,832	370,422	0,039	-0,059
-425,817	19,263	-0,150	-0,088
-424,803	-172,628	-0,136	0,003
-423,788	-200,000	0,010	0,072
-422,773	-200,000	0,012	0,144
-421,759	12,922	0,050	0,029
-420,744	-193,390	-0,110	0,001
-419,730	450,559	-0,048	0,078
-418,715	52,589	-0,078	-0,055
-417,701	194,562	0,057	-0,064
-416,686	205,740	0,062	0,071
-415,671	800,000	0,052	0,117
-414,657	-200,000	0,005	0,076
-413,642	-200,000	-0,026	0,134
-412,628	102,160	0,068	-0,058
-411,613	-30,331	-0,080	-0,033
-410,598	80,620	0,047	-0,037
-409,584	16,891	0,049	0,028
-408,569	191,391	0,017	0,018
-407,555	800,000	-0,044	0,131
-406,540	-142,726	0,141	-0,010
-405,525	266,032	0,029	-0,037
-404,511	-2,854	-0,028	0,014
-403,496	-42,495	-0,093	0,034
-402,482	-200,000	-0,031	-0,105
-401,467	110,608	0,046	-0,041
-400,452	-42,616	0,064	-0,024
-399,438	800,000	0,043	-0,097
-398,423	444,131	-0,080	-0,129
-397,409	800,000	-0,042	-0,126
-396,394	38,774	0,111	0,072
-395,379	-145,412	0,118	0,008
-394,365	389,030	0,004	0,006
-393,350	36,519	0,081	0,052
-392,336	-200,000	-0,001	-0,118
-391,321	3,992	0,072	-0,039
-390,306	-3,657	0,064	-0,033
-389,292	740,765	-0,034	-0,067
-388,277	22,392	0,103	0,061
-387,263	55,174	-0,037	-0,026
-386,248	800,000	0,028	-0,061
-385,233	101,363	0,113	-0,096
-384,219	141,216	0,090	-0,087
-383,204	37,065	-0,103	-0,067
-382,190	-200,000	0,017	-0,069
-381,175	-200,000	0,002	0,099
-380,160	-200,000	-0,009	-0,100
-379,146	-173,318	0,109	-0,002
-378,131	-37,055	0,041	-0,016
-377,117	-200,000	0,006	0,054
-376,102	65,436	-0,098	-0,073
-375,088	-77,905	-0,031	-0,008
-374,073	-154,444	0,088	0,004
-373,058	-161,795	-0,098	-0,004
-372,044	374,092	-0,037	0,056
-371,029	-35,992	0,038	0,015
-370,015	-200,000	0,003	-0,096
-369,000	-200,000	-0,002	0,126
-367,985	176,675	0,005	0,005
-366,971	-200,000	-0,022	0,117
-365,956	-2,022	0,078	0,040
-364,942	109,544	0,052	0,046
-363,927	204,445	0,034	0,038
-362,912	195,771	0,027	0,030
-361,898	-200,000	0,001	0,163
-360,883	6,869	0,084	0,046
-359,869	277,447	-0,063	0,083
-358,854	133,721	-0,047	-0,044
-357,839	-200,000	-0,011	0,050
-356,825	82,301	0,115	0,091
-355,810	233,763	-0,080	-0,096
-354,796	51,514	0,059	-0,041
-353,781	34,279	0,053	0,033
-352,766	-82,975	-0,087	-0,020
-351,752	-3,790	-0,030	0,015
-350,737	-53,072	0,047	-0,016
-349,723	164,913	0,030	0,031
-348,708	-28,962	0,009	-0,004
-347,693	-182,722	-0,123	-0,002
-346,679	-29,497	0,061	-0,025
-345,664	6,829	-0,083	0,045
-344,650	56,701	0,147	-0,104
-343,635	-72,498	0,099	-0,026
-342,620	112,254	0,034	-0,030
-341,606	4,528	0,103	-0,055
-340,591	18,057	0,073	-0,042
-339,577	16,104	-0,047	-0,027
-338,562	-200,000	-0,004	-0,054
-337,548	-200,000	-0,010	-0,046
-336,533	357,506	0,061	0,089
-335,518	-200,000	-0,024	0,144
-334,504	-169,822	-0,130	-0,003
-333,489	-113,644	-0,030	-0,004
-332,475	160,300	-0,031	-0,032
-331,460	800,000	-0,010	-0,026
-330,445	-13,058	-0,063	0,030
-329,431	800,000	0,028	-0,072
-328,416	-200,000	-0,003	-0,049
-327,402	-99,573	-0,132	0,024
-326,387	-112,758	-0,133	-0,019
-325,372	23,032	-0,164	0,098
-324,358	638,677	-0,048	-0,089
-323,343	23,173	-0,057	0,034
-322,329	-64,952	-0,010	-0,003
-321,314	589,856	0,050	0,090
-320,299	-45,687	0,081	0,029
-319,285	-39,508	0,021	0,008
-318,270	-53,285	-0,029	-0,010
-317,256	-200,000	-0,025	-0,138
-316,241	-200,000	-0,008	0,048
-315,226	-19,708	-0,046	0,021
-314,212	252,713	-0,014	0,017
-313,197	35,169	0,076	-0,048
-312,183	-86,251	0,107	-0,024
-311,168	-104,600	-0,089	-0,015
-310,153	-66,364	0,041	-0,012
-309,139	126,884	-0,073	-0,067
-308,124	-200,000	0,003	0,058
-307,110	-8,628	0,224	0,109
-306,095	769,265	-0,041	-0,082
-305,080	537,904	0,063	-0,109
-304,066	800,000	-0,024	0,077
-303,051	-76,618	-0,085	-0,022
-302,037	300,122	0,046	-0,063
-301,022	97,306	-0,028	0,023
-300,008	202,100	0,019	0,021
-298,993	-200,000	-0,019	0,078
-297,978	-200,000	-0,009	-0,067
-296,964	-200,000	-0,004	-0,129
-295,949	164,499	0,082	0,084
-294,935	108,371	-0,090	0,078
-293,920	-200,000	-0,013	0,085
-292,905	-200,000	-0,007	0,040
-291,891	800,000	0,051	0,110
-290,876	-200,000	-0,006	0,162
-289,862	-66,858	0,041	-0,012
-288,847	74,618	-0,105	-0,080
-287,832	128,519	-0,055	0,051
-286,818	-77,197	0,102	0,026
-285,803	8,877	0,077	-0,042
-284,789	800,000	0,033	0,103
-283,774	-180,272	0,138	0,002
-282,759	320,690	0,061	-0,084
-281,745	-200,000	-0,019	-0,065
-280,730	159,262	0,018	-0,018
-279,716	-200,000	-0,001	-0,026
-278,701	-106,762	0,083	-0,013
-277,686	-200,000	0,017	0,128
-276,672	-55,391	0,074	0,024
-275,657	-153,864	0,075	-0,004
-274,643	-102,218	-0,104	-0,018
-273,628	-200,000	-0,010	0,048
-272,613	-87,494	-0,114	0,025
-271,599	123,533	0,120	0,110
-270,584	-200,000	0,003	-0,054
-269,570	247,160	0,040	-0,049
-268,555	-73,388	-0,178	-0,047
-267,540	516,315	-0,044	-0,076
-266,526	80,744	0,062	0,049
-265,511	-200,000	-0,011	-0,111
-264,497	-35,647	-0,066	0,026
-263,482	14,476	0,128	0,072
-262,467	-200,000	-0,005	0,022
-261,453	800,000	0,018	0,043
-260,438	800,000	-0,026	0,062
-259,424	227,848	0,014	-0,016
-258,409	-92,183	-0,105	0,021
-257,395	-51,331	0,122	-0,041
-256,380	-200,000	0,005	0,082
-255,365	-200,000	-0,027	-0,114
-254,351	209,815	-0,059	-0,067
-253,336	58,028	0,082	0,058
-252,322	146,850	-0,096	-0,094
-251,307	110,857	0,052	0,045
-250,292	-158,595	-0,087	0,004
-249,278	800,000	0,040	0,099
-248,263	42,714	0,107	0,071
-247,249	-200,000	0,003	0,062
-246,234	-181,166	-0,102	0,001
-245,219	228,041	-0,070	-0,083
-244,205	248,475	0,027	-0,033
-243,190	-200,000	-0,031	0,101
-242,176	-115,769	0,226	0,030
-241,161	800,000	-0,048	-0,119
-240,146	382,325	0,051	0,076
-239,132	-200,000	-0,012	0,040
-238,117	-20,713	-0,115	-0,051
-237,103	95,821	-0,047	-0,039
-236,088	40,884	0,052	0,034
-235,073	-168,662	0,156	0,004
-234,059	800,000	0,040	0,101
-233,044	-92,440	0,085	-0,017
-232,030	800,000	-0,025	-0,076
-231,015	136,732	0,048	0,046
-230,000	-140,085	-0,164	-0,012
-228,986	195,585	0,135	0,150
-227,971	-94,107	0,156	-0,031
-226,957	800,000	-0,049	0,125
-225,942	131,539	0,079	-0,074
-224,927	425,647	-0,067	0,106
-223,913	-95,352	0,068	0,013
-222,898	11,857	-0,099	0,055
-221,884	319,754	0,103	-0,143
-220,869	800,000	-0,073	0,220
-219,855	-100,463	0,198	-0,035
-218,840	556,994	-0,051	0,090
-217,825	-120,323	-0,052	-0,006
-216,811	456,359	-0,048	0,077
-215,796	800,000	-0,026	-0,068
-214,782	23,824	-0,167	-0,100
-213,767	-109,680	0,046	-0,007
-212,752	-73,486	0,105	-0,028
-211,738	-200,000	-0,030	-0,106
-210,723	-200,000	-0,033	-0,160
-209,709	-200,000	-0,007	-0,132
-208,694	800,000	-0,020	-0,050
-207,679	-200,000	0,034	-0,121
-206,665	138,437	0,050	-0,048
-205,650	198,568	-0,048	-0,053
-204,636	0,588	0,100	0,052
-203,621	-200,000	0,030	0,168
-202,606	-129,250	-0,044	0,004
-201,592	-142,838	-0,119	-0,008
-200,577	153,552	0,054	0,054
-199,563	6,196	-0,079	0,042
-198,548	-103,648	0,042	0,007
-197,533	581,516	0,075	0,134
-196,519	-48,634	0,041	-0,014
-195,504	-15,809	0,128	-0,059
-194,490	-20,007	-0,105	-0,047
-193,475	364,845	-0,049	-0,072
-192,460	-200,000	-0,007	0,103
-191,446	800,000	0,052	0,143
-190,431	481,383	0,079	0,130
-189,417	800,000	-0,014	-0,031
-188,402	-200,000	-0,007	-0,046
-187,387	397,486	-0,040	-0,061
-186,373	575,290	0,028	-0,049
-185,358	-1,526	0,023	0,012
-184,344	253,097	-0,029	-0,036
-183,329	-200,000	0,007	-0,095
-182,315	-200,000	0,021	0,164
-181,300	800,000	0,028	0,073
-180,285	302,800	0,091	0,122
-179,271	800,000	-0,012	-0,029
-178,256	150,923	0,054	-0,053
-177,242	-105,709	0,063	0,010
-176,227	-9,598	-0,145	0,070
-175,212	33,295	0,032	-0,020
-174,198	-77,993	-0,051	-0,013
-173,183	800,000	0,026	-0,054
-172,169	93,816	-0,108	-0,089
-171,154	-23,136	0,051	-0,022
-170,139	-200,000	-0,010	-0,036
-169,125	-20,913	-0,079	0,035
-168,110	-200,000	0,003	-0,069
-167,096	446,606	-0,055	-0,088
-166,081	-200,000	-0,022	-0,085
-165,066	-101,276	0,017	0,003
-164,052	-200,000	-0,001	0,108
-163,037	201,200	0,059	-0,066
-162,023	-200,000	-0,008	0,082
-161,008	318,204	0,021	0,029
-159,993	-200,000	0,019	0,094
-158,979	314,551	0,058	0,079
-157,964	-200,000	-0,020	-0,148
-156,950	-77,069	-0,147	-0,037
-155,935	27,554	0,020	0,012
-154,920	-200,000	-0,001	0,035
-153,906	-17,184	0,073	0,033
-152,891	106,924	0,066	-0,056
-151,877	526,732	-0,016	0,027
-150,862	800,000	0,050	-0,133
-149,847	800,000	-0,045	-0,107
-148,833	279,927	-0,069	-0,089
-147,818	-195,803	0,107	0,001
-146,804	-88,907	-0,055	-0,012
-145,789	52,593	0,110	0,076
-144,775	500,825	0,055	-0,092
-143,760	-200,000	0,007	-0,081
-142,745	-33,937	-0,138	-0,055
-141,731	595,902	0,026	0,047
-140,716	134,397	-0,058	0,054
-139,702	10,593	-0,014	0,008
-138,687	800,000	-0,070	0,165
-137,672	800,000	-0,043	0,102
-136,658	205,117	0,044	0,050
-135,643	59,831	-0,111	-0,079
-134,629	-200,000	-0,006	0,076
-133,614	71,580	0,083	0,063
-132,599	-57,997	0,080	0,025
-131,585	-173,282	-0,020	0,000
-130,570	-67,717	-0,146	0,041
-129,556	-200,000	-0,003	-0,199
-128,541	230,052	-0,028	0,034
-127,526	-67,099	0,104	0,030
-126,512	63,340	0,064	-0,046
-125,497	112,400	-0,102	-0,090
-124,483	293,627	-0,083	0,110
-123,468	279,620	0,067	-0,087
-122,453	-200,000	0,017	-0,085
-121,439	-200,000	0,023	-0,075
-120,424	14,479	0,084	0,048
-119,410	122,869	0,111	0,100
-118,395	-200,000	0,019	0,195
-117,380	61,620	0,048	-0,034
-116,366	-121,549	0,047	-0,006
-115,351	223,733	-0,042	0,049
-114,337	-57,401	-0,161	0,051
-113,322	80,147	-0,045	0,035
-112,307	115,634	0,099	0,087
-111,293	-46,699	-0,095	0,033
-110,278	800,000	-0,016	-0,048
-109,264	-83,953	0,177	0,040
-108,249	-13,034	-0,057	0,027
-107,234	361,896	0,045	0,066
-106,220	-200,000	0,025	0,093
-105,205	116,762	0,051	-0,046
-104,191	304,742	-0,007	0,010
-103,176	800,000	0,012	-0,029
-102,162	-19,992	0,056	-0,025
-101,147	52,534	-0,103	0,071
-100,132	2,676	0,067	0,035
-99,118	14,280	-0,092	-0,052
-98,103	-149,059	0,152	-0,009
-97,089	-200,000	0,006	0,061
-96,074	791,973	-0,055	0,109
-95,059	-200,000	-0,005	0,063
-94,045	-90,501	-0,136	0,028
-93,030	24,251	0,097	-0,058
-92,016	76,684	-0,020	-0,015
-91,001	-142,632	-0,068	0,005
-89,986	115,037	0,097	0,086
-88,972	119,189	0,089	0,080
-87,957	-200,000	-0,002	0,020
-86,943	-2,069	0,049	0,025
-85,928	-17,960	0,074	-0,034
-84,913	-159,508	-0,071	-0,003
-83,899	113,202	0,021	-0,018
-82,884	-147,066	0,085	0,005
-81,870	-200,000	0,009	0,030
-80,855	-200,000	-0,018	0,061
-79,840	-51,966	-0,178	0,059
-78,826	-200,000	0,013	0,080
-77,811	-32,300	-0,059	-0,024
-76,797	-37,853	0,142	-0,054
-75,782	-182,701	-0,121	0,002
-74,767	172,991	0,068	-0,071
-73,753	-95,489	0,123	0,024
-72,738	180,027	0,073	0,077
-71,724	25,899	0,030	0,018
-70,709	-155,127	-0,102	0,005
-69,694	283,445	0,056	0,073
-68,680	800,000	0,055	-0,167
-67,665	37,902	-0,093	-0,060
-66,651	598,836	0,048	0,086
-65,636	-200,000	0,011	-0,079
-64,622	-121,325	0,078	0,009
-63,607	148,799	-0,079	-0,077
-62,592	0,273	-0,084	0,043
-61,578	800,000	-0,030	0,076
-60,563	-115,198	-0,076	0,010
-59,549	-200,000	0,023	0,095
-58,534	-20,515	-1,689	-0,747
-57,519	800,000	-0,370	-1,065
-56,505	-200,000	-1,163	-4,835
-55,490	-174,337	0,801	0,016
-54,476	800,000	5,311	12,097
-53,461	-200,000	15,919	278,465
-52,446	-200,000	702,123	2249,223
-51,432	565,571	1618,809	2845,459
-50,417	121,886	1623,262	1462,215
-49,403	82,478	1283,915	1005,374
-48,388	36,892	1028,052	654,874
-47,373	21,592	989,949	580,014
-46,359	20,508	978,686	569,819
-45,344	18,801	974,484	561,739
-44,330	18,865	973,288	561,238
-43,315	18,584	971,564	559,299
-42,300	18,567	970,548	558,636
-41,286	18,571	969,520	558,035
-40,271	18,521	968,542	557,288
-39,257	18,510	967,772	556,788
-38,242	18,588	967,024	556,590
-37,227	18,566	966,270	556,060
-36,213	18,490	965,523	555,361
-35,198	18,497	964,406	554,721
-34,184	18,600	963,602	554,571
-33,169	18,456	962,989	553,727
-32,154	18,584	961,953	553,525
-31,140	18,557	961,000	552,867
-30,125	18,612	960,230	552,581
-29,111	18,644	959,511	552,248
-28,096	18,659	958,780	551,856
-27,082	18,513	958,119	550,981
-26,067	18,519	957,594	550,675
-25,052	18,569	956,719	550,313
-24,038	18,485	955,870	549,533
-23,023	18,457	955,262	549,071
-22,009	18,572	954,598	549,037
-20,994	18,532	954,023	548,555
-19,979	18,502	953,491	548,131
-18,965	18,528	952,867	547,835
-17,950	18,552	952,064	547,427
-16,936	18,454	951,651	546,853
-15,921	18,452	950,982	546,443
-14,906	18,436	949,965	545,784
-13,892	18,447	949,294	545,412
-12,877	18,402	948,713	544,912
-11,863	18,366	948,147	544,451
-10,848	18,344	947,542	544,012
-9,833	18,558	947,055	544,393
-8,819	18,494	946,607	543,910
-7,804	18,471	945,716	543,303
-6,790	18,406	945,413	542,902
-5,775	18,447	944,846	542,684
-4,760	18,433	944,148	542,218
-3,746	18,392	943,563	541,728
-2,731	18,294	942,803	540,960
-1,717	18,214	942,083	540,272
-0,702	18,276	941,288	539,991
0,313	18,005	940,832	539,684
1,327	21,126	939,092	548,522
2,342	30,385	796,577	489,945
3,356	27,410	449,666	272,083
4,371	-2,443	295,319	148,771
5,386	-6,553	276,604	135,425
6,400	-7,833	270,788	131,375
7,415	-8,166	268,455	129,923
8,429	-7,978	267,219	129,486
9,444	-8,150	266,378	128,910
10,459	-8,034	265,618	128,636
11,473	-8,204	265,079	128,209
12,488	-8,328	264,581	127,844
13,502	-8,605	264,134	127,365
14,517	-8,403	263,618	127,288
15,531	-8,056	263,169	127,374
16,546	-8,282	262,791	126,975
17,561	-8,268	262,464	126,819
18,575	-8,287	262,241	126,682
19,590	-8,232	261,702	126,460
20,604	-8,261	261,543	126,346
21,619	-8,283	261,075	126,088
22,634	-8,325	260,856	125,934
23,648	-8,332	260,493	125,742
24,663	-8,181	260,167	125,708
25,677	-8,361	260,002	125,456
26,692	-8,331	259,735	125,343
27,707	-8,278	259,375	125,205
28,721	-8,440	259,281	125,004
29,736	-8,435	259,010	124,867
30,750	-8,407	258,661	124,712
31,765	-8,313	258,417	124,667
32,780	-8,612	258,321	124,344
33,794	-8,527	258,061	124,284
34,809	-8,347	257,745	124,280
35,823	-8,516	257,510	124,006
36,838	-8,521	257,186	123,834
37,853	-8,579	256,870	123,620
38,867	-8,344	256,725	123,746
39,882	-8,643	256,562	123,394
40,896	-8,515	256,313	123,375
41,911	-8,693	256,092	123,101
42,926	-8,590	255,888	123,083
43,940	-8,510	255,536	122,973
44,955	-8,566	255,396	122,845
45,969	-8,649	255,102	122,621
46,984	-8,976	255,001	122,275
47,999	-8,903	254,556	122,114
49,013	-8,979	254,245	121,888
50,028	-9,435	254,127	121,423
51,042	-9,341	253,854	121,364
52,057	-9,155	253,591	121,389
53,071	-9,190	253,325	121,220
54,086	-9,283	253,377	121,154
55,101	-9,142	253,276	121,217
56,115	-8,962	253,156	121,305
57,130	-8,342	252,940	121,727
58,144	-8,329	252,794	121,658
59,159	-8,096	252,579	121,745
60,174	-8,160	252,355	121,571
61,188	-8,289	252,079	121,316
62,203	-8,387	251,867	121,118
63,217	-8,510	251,677	120,910
64,232	-8,341	251,463	120,943
65,247	-8,240	251,251	120,916
66,261	-8,131	250,960	120,859
67,276	-8,505	250,669	120,387
68,290	-8,744	250,450	120,067
69,305	-9,152	250,405	119,685
70,320	-8,907	250,188	119,780
71,334	-8,416	249,920	120,061
72,349	-8,227	249,823	120,165
73,363	-8,142	249,754	120,194
74,378	-8,127	249,416	120,033
75,393	-8,536	249,318	119,627
76,407	-8,443	249,098	119,590
77,422	-8,541	248,828	119,366
78,436	-8,479	248,715	119,354
79,451	-8,186	248,310	119,398
80,466	-8,440	248,245	119,141
81,480	-8,617	247,919	118,823
82,495	-8,588	247,577	118,673
83,509	-8,833	247,617	118,474
84,524	-8,640	247,438	118,541
85,539	-8,966	247,134	118,109
86,553	-8,869	246,901	118,070
87,568	-8,759	246,828	118,118
88,582	-8,651	246,540	118,060
89,597	-8,885	246,423	117,796
90,611	-8,835	246,379	117,807
91,626	-8,431	246,107	118,006
92,641	-8,544	246,030	117,863
93,655	-8,567	245,678	117,665
94,670	-8,539	245,426	117,558
95,684	-8,471	245,350	117,568
96,699	-8,509	245,133	117,421
97,714	-8,747	244,908	117,104
98,728	-8,798	244,722	116,962
99,743	-8,733	244,360	116,833
100,757	-8,982	244,392	116,630
101,772	-8,931	244,307	116,622
102,787	-8,694	243,982	116,653
103,801	-8,586	243,761	116,626
104,816	-8,541	243,663	116,607
105,830	-8,552	243,570	116,543
106,845	-8,378	243,310	116,552
107,860	-8,511	243,131	116,346
108,874	-8,618	243,023	116,195
109,889	-8,517	242,847	116,185
110,903	-8,557	242,534	115,992
111,918	-8,704	242,445	115,817
112,933	-8,675	242,222	115,724
113,947	-8,680	242,108	115,655
114,962	-8,538	241,888	115,657
115,976	-8,458	241,671	115,609
116,991	-8,492	241,570	115,522
118,006	-8,650	241,407	115,304
119,020	-8,548	241,329	115,340
120,035	-8,506	241,175	115,291
121,049	-8,445	240,960	115,228
122,064	-8,420	240,772	115,148
123,079	-8,579	240,644	114,946
124,093	-8,611	240,356	114,773
125,108	-8,871	240,174	114,463
126,122	-8,796	239,869	114,369
127,137	-9,038	239,664	114,063
128,151	-8,944	239,609	114,104
129,166	-8,670	239,306	114,172
130,181	-8,704	239,163	114,066
131,195	-8,872	238,904	113,795
132,210	-8,676	238,860	113,924
133,224	-8,313	238,677	114,121
134,239	-8,630	238,585	113,809
135,254	-8,487	238,487	113,869
136,268	-8,632	238,214	113,610
137,283	-9,005	237,965	113,180
138,297	-9,068	237,596	112,943
139,312	-8,831	237,381	113,023
140,327	-8,715	237,488	113,157
141,341	-8,222	237,504	113,552
142,356	-8,232	237,259	113,418
143,370	-8,227	237,109	113,340
144,385	-8,176	237,045	113,340
145,400	-8,016	236,839	113,360
146,414	-8,150	236,607	113,131
147,429	-8,250	236,548	113,013
148,443	-8,193	236,140	112,854
149,458	-8,307	236,108	112,737
150,473	-8,184	235,972	112,760
151,487	-8,194	235,723	112,623
152,502	-8,202	235,570	112,533
153,516	-8,171	235,480	112,505
154,531	-7,936	235,241	112,568
155,546	-8,237	235,074	112,238
156,560	-8,316	234,920	112,093
157,575	-8,648	234,827	111,773
158,589	-8,299	234,419	111,846
159,604	-8,038	234,403	112,037
160,619	-8,041	234,221	111,937
161,633	-8,072	234,123	111,856
162,648	-7,917	233,933	111,878
163,662	-8,227	233,640	111,482
164,677	-8,082	233,514	111,527
165,692	-7,990	233,472	111,570
166,706	-8,012	233,377	111,497
167,721	-7,913	233,287	111,522
168,735	-8,037	233,186	111,367
169,750	-8,065	232,738	111,120
170,764	-8,009	232,580	111,079
171,779	-8,081	232,517	110,983
172,794	-8,096	232,462	110,934
173,808	-8,157	232,256	110,779
174,823	-8,688	231,886	110,174
175,837	-8,737	231,617	109,998
176,852	-8,490	231,691	110,218
177,867	-8,140	231,604	110,441
178,881	-8,135	231,419	110,347
179,896	-8,061	231,348	110,362
180,910	-7,972	231,149	110,326
181,925	-8,217	231,091	110,097
182,940	-7,876	230,837	110,233
183,954	-7,990	230,785	110,109
184,969	-7,847	230,629	110,136
185,983	-7,617	230,479	110,235
186,998	-8,149	230,376	109,761
188,013	-8,027	230,241	109,781
189,027	-8,124	230,138	109,647
190,042	-8,043	229,805	109,541
191,056	-7,821	229,537	109,576
192,071	-7,856	229,486	109,515
193,086	-7,976	229,228	109,289
194,100	-8,069	229,143	109,167
195,115	-8,359	228,802	108,770
196,129	-8,773	228,571	108,330
197,144	-4,411	230,248	112,511
198,159	1,219	231,703	117,611
199,173	3,160	232,181	119,358
200,188	3,430	232,179	119,557
201,202	3,522	231,865	119,457
202,217	3,722	231,846	119,592
203,232	3,933	231,845	119,745
204,246	4,095	231,658	119,764
205,261	3,962	231,548	119,593
206,275	4,429	231,388	119,862
207,290	4,421	231,394	119,849
208,304	4,209	231,124	119,534
209,319	4,061	230,852	119,267
210,334	3,943	230,781	119,129
211,348	3,794	230,578	118,899
212,363	3,695	230,267	118,651
213,377	3,342	230,072	118,267
214,392	3,181	229,957	118,073
215,407	3,346	229,868	118,144
216,421	3,615	229,626	118,216
217,436	3,456	229,380	117,957
218,450	3,444	229,032	117,759
219,465	3,260	229,018	117,600
220,480	3,167	229,029	117,523
221,494	3,283	228,753	117,460
222,509	3,646	228,687	117,694
223,523	3,343	228,697	117,456
224,538	3,350	228,320	117,257
225,553	3,346	228,188	117,176
226,567	3,633	228,190	117,386
227,582	3,656	228,098	117,346
228,596	3,799	228,068	117,429
229,611	3,518	227,829	117,082
230,626	3,278	227,485	116,711
231,640	3,246	227,385	116,626
232,655	3,520	227,501	116,883
233,669	4,083	227,239	117,167
234,684	3,904	227,256	117,029
235,699	3,785	226,926	116,758
236,713	3,556	226,678	116,446
237,728	3,591	226,431	116,335
238,742	3,216	226,354	116,001
239,757	3,334	226,260	116,032
240,772	3,215	225,999	115,797
241,786	3,220	225,914	115,748
242,801	3,476	225,878	115,912
243,815	3,651	225,892	116,042
244,830	3,939	225,512	116,053
245,844	3,453	225,372	115,604
246,859	3,429	225,314	115,546
247,874	3,631	225,162	115,610
248,888	3,835	224,941	115,640
249,903	3,648	224,811	115,422
250,917	3,472	224,590	115,166
251,932	3,318	224,506	114,997
252,947	3,374	224,217	114,881
253,961	3,244	224,138	114,733
254,976	3,133	224,062	114,601
255,990	3,497	224,124	114,895
257,005	3,583	223,905	114,837
258,020	3,359	223,739	114,574
259,034	3,746	223,564	114,763
260,049	3,740	223,476	114,703
261,063	3,559	223,263	114,449
262,078	3,762	223,129	114,521
263,093	3,862	223,030	114,535
264,107	3,683	222,849	114,298
265,122	3,676	222,606	114,158
266,136	3,768	222,620	114,223
267,151	3,831	222,519	114,208
268,166	3,679	222,238	113,941
269,180	3,251	221,902	113,441
270,195	3,347	221,751	113,425
271,209	3,501	221,593	113,448
272,224	3,442	221,597	113,397
273,239	3,548	221,544	113,437
274,253	3,556	221,316	113,317
275,268	3,275	221,090	112,983
276,282	3,347	220,883	112,921
277,297	3,287	220,848	112,848
278,312	3,367	220,738	112,841
279,326	3,303	220,723	112,776
280,341	3,488	220,499	112,788
281,355	3,560	220,322	112,740
282,370	3,319	220,081	112,430
283,384	3,000	219,933	112,110
284,399	2,935	219,813	111,992
285,414	3,199	219,648	112,091
286,428	3,395	219,720	112,261
287,443	3,359	219,667	112,198
288,457	3,575	219,431	112,225
289,472	3,322	219,136	111,879
290,487	2,968	218,991	111,537
291,501	3,087	218,683	111,457
292,516	2,967	218,812	111,425
293,530	2,953	218,562	111,278
294,545	2,872	218,434	111,143
295,560	3,084	218,425	111,284
296,574	3,360	218,145	111,332
297,589	3,357	218,003	111,247
298,603	3,577	218,004	111,398
299,618	3,455	217,820	111,205
300,633	3,529	217,656	111,165
301,647	3,919	217,577	111,397
302,662	3,641	217,417	111,104
303,676	3,465	217,346	110,930
304,691	3,662	217,074	110,924
305,706	3,710	216,985	110,904
306,720	3,718	216,806	110,807
307,735	3,479	216,640	110,541
308,749	3,423	216,534	110,436
309,764	3,556	216,411	110,460
310,779	3,609	216,242	110,402
311,793	3,531	216,211	110,320
312,808	3,646	216,019	110,295
313,822	3,682	215,881	110,241
314,837	3,568	215,645	110,028
315,852	3,443	215,588	109,900
316,866	3,244	215,484	109,694
317,881	3,582	215,348	109,857
318,895	3,567	215,194	109,758
319,910	3,509	214,946	109,580
320,925	3,218	214,702	109,238
321,939	3,059	214,579	109,053
322,954	2,953	214,535	108,946
323,968	3,476	214,579	109,330
324,983	3,871	214,312	109,466
325,997	3,617	214,333	109,286
327,012	3,579	214,104	109,133
328,027	3,640	213,940	109,083
329,041	3,667	213,963	109,104
330,056	3,886	213,900	109,218
331,070	3,583	213,680	108,881
332,085	3,141	213,315	108,372
333,100	3,172	213,237	108,344
334,114	3,535	213,100	108,522
335,129	3,590	212,989	108,495
336,143	2,985	212,813	107,968
337,158	3,170	212,769	108,067
338,173	3,614	212,462	108,215
339,187	3,212	212,349	107,864
340,202	3,328	212,194	107,857
341,216	3,106	212,039	107,613
342,231	3,177	212,007	107,637
343,246	3,128	211,774	107,475
344,260	3,333	211,720	107,581
345,275	3,259	211,811	107,566
346,289	3,500	211,540	107,588
347,304	3,625	211,316	107,552
348,319	3,306	211,257	107,289
349,333	3,438	211,116	107,300
350,348	3,507	211,013	107,286
351,362	3,354	210,827	107,076
352,377	3,499	210,808	107,157
353,392	3,397	210,705	107,025
354,406	3,399	210,516	106,920
355,421	195,367	1341,341	1427,185
356,435	156,026	1479,144	1427,238
