DTS Sentinel unit serial number:	SN410029Multiplexer serial number:	ORYXHardware model number:	OX2-SRSoftware version number:	ORYX F/W v4,00 Oryx Data Collector v3.7.2.0data status	okinstallation	B6 Nyhavnadifferential loss correction	single-endedforward channel	channel 2reverse channel	N/Adate	2023/12/09time	06:15:08forward acquisition time	300,00reverse acquisition time	0,00gamma	499,1914k internal	0,3141k external	0,3141temperature offset calibration	1,0000default loss term (dB/km)	0,3820temperature slope calibration	1,0000multiplexer offset coefficient	1,0000multiplexer slope coefficient	1,0000fibre end	0,00T internal ref (°C)	18,37T ext. ref 1 (°C)	2,29T ext. ref 2 (°C)	2,32length (m)	temperature (°C)	Stokes	anti-Stokes-744,400	-200,000	-0,005	-0,032
-743,385	-108,301	-0,194	-0,031
-742,371	64,863	0,073	0,054
-741,356	-24,010	-0,288	0,127
-740,342	7,109	0,111	0,061
-739,327	-85,433	-0,299	-0,068
-738,312	6,373	0,117	-0,064
-737,298	-56,321	-0,342	0,112
-736,283	-133,352	0,131	0,012
-735,269	-92,625	-0,180	0,037
-734,254	150,139	0,107	0,108
-733,239	-1,907	-0,422	-0,219
-732,225	-200,000	0,014	-0,068
-731,210	-200,000	-0,032	0,165
-730,196	-108,906	-0,161	-0,025
-729,181	-200,000	-0,008	-0,136
-728,167	-200,000	0,002	-0,052
-727,152	457,882	-0,032	-0,053
-726,137	16,929	-0,117	-0,069
-725,123	800,000	-0,075	0,166
-724,108	-85,146	-0,155	0,036
-723,094	329,518	-0,075	-0,107
-722,079	86,551	-0,086	0,070
-721,064	282,564	-0,076	-0,101
-720,050	-200,000	0,004	-0,115
-719,035	-51,304	-0,079	0,027
-718,021	618,703	0,058	-0,109
-717,006	-117,757	-0,121	0,016
-715,991	-200,000	-0,001	-0,085
-714,977	34,178	0,120	-0,078
-713,962	143,880	0,070	0,069
-712,948	-200,000	-0,008	0,139
-711,933	-200,000	-0,025	-0,088
-710,918	-200,000	-0,006	-0,101
-709,904	-200,000	0,005	-0,071
-708,889	-35,023	-0,095	-0,038
-707,875	800,000	-0,047	0,137
-706,860	50,572	0,203	0,142
-705,845	-42,628	-0,103	0,038
-704,831	330,354	0,104	-0,148
-703,816	-154,326	-0,157	-0,008
-702,802	-200,000	-0,001	0,009
-701,787	8,211	-0,091	0,050
-700,772	-200,000	0,022	-0,116
-699,758	-200,000	-0,014	0,059
-698,743	-116,727	-0,026	-0,003
-697,729	-200,000	0,006	0,029
-696,714	-200,000	0,025	0,149
-695,699	800,000	-0,036	-0,077
-694,685	164,800	0,071	-0,074
-693,670	-200,000	-0,004	-0,129
-692,656	174,331	-0,022	0,024
-691,641	679,592	0,068	-0,131
-690,627	800,000	-0,024	0,076
-689,612	-200,000	0,005	-0,075
-688,597	39,484	-0,086	-0,057
-687,583	-2,887	-0,120	0,062
-686,568	-200,000	0,007	-0,037
-685,554	112,146	-0,099	-0,088
-684,539	-166,858	0,206	-0,006
-683,524	800,000	-0,055	0,138
-682,510	7,667	-0,061	-0,033
-681,495	-34,184	-0,038	0,015
-680,481	800,000	-0,024	0,077
-679,466	-145,372	-0,150	-0,010
-678,451	473,587	-0,058	-0,096
-677,437	-200,000	0,013	-0,051
-676,422	213,222	-0,042	0,049
-675,408	-159,218	0,069	-0,003
-674,393	-200,000	0,002	0,031
-673,378	83,737	-0,054	0,043
-672,364	-200,000	-0,007	0,068
-671,349	-46,042	-0,054	0,019
-670,335	447,920	0,058	0,095
-669,320	-108,655	0,047	-0,007
-668,305	-16,343	-0,185	-0,086
-667,291	800,000	-0,034	-0,094
-666,276	-200,000	0,003	0,067
-665,262	800,000	0,017	-0,036
-664,247	549,774	0,054	0,095
-663,232	62,386	0,110	-0,081
-662,218	-200,000	-0,012	0,063
-661,203	78,940	0,043	0,034
-660,189	-169,497	-0,078	0,002
-659,174	-87,132	-0,112	-0,025
-658,159	-49,017	0,069	-0,024
-657,145	-143,252	0,043	-0,003
-656,130	10,710	0,150	-0,084
-655,116	800,000	0,013	-0,030
-654,101	800,000	-0,021	0,066
-653,086	151,139	-0,079	-0,079
-652,072	-92,241	-0,152	-0,031
-651,057	-111,552	-0,135	0,020
-650,043	-200,000	-0,010	-0,059
-649,028	376,539	-0,054	-0,082
-648,014	800,000	-0,016	-0,047
-646,999	148,496	0,060	-0,060
-645,984	-179,700	-0,077	0,001
-644,970	-200,000	-0,006	0,064
-643,955	-51,876	-0,141	-0,048
-642,941	210,365	-0,070	0,081
-641,926	634,459	0,013	-0,024
-640,911	197,289	-0,054	0,061
-639,897	-168,497	-0,051	0,001
-638,882	685,570	0,012	-0,024
-637,868	800,000	-0,034	0,075
-636,853	-200,000	-0,019	-0,067
-635,838	-38,737	-0,106	0,041
-634,824	156,277	-0,029	-0,029
-633,809	-200,000	-0,003	-0,016
-632,795	-28,252	0,087	-0,037
-631,780	-28,469	-0,013	-0,006
-630,765	237,009	-0,019	-0,023
-629,751	99,099	-0,085	-0,073
-628,736	-0,783	-0,173	-0,090
-627,722	-200,000	-0,000	-0,027
-626,707	-200,000	0,013	-0,083
-625,692	125,237	0,015	-0,014
-624,678	-200,000	0,018	0,096
-623,663	476,233	-0,022	-0,037
-622,649	88,116	0,134	-0,109
-621,634	76,484	-0,077	0,060
-620,619	2,955	0,071	-0,038
-619,605	65,635	0,094	0,070
-618,590	21,981	-0,043	-0,026
-617,576	-59,737	0,087	-0,027
-616,561	103,170	0,027	0,023
-615,546	9,411	-0,068	-0,038
-614,532	378,175	-0,112	-0,170
-613,517	60,531	0,110	-0,080
-612,503	-53,428	0,132	-0,044
-611,488	-200,000	0,005	0,028
-610,474	-104,114	-0,064	0,011
-609,459	800,000	-0,030	0,074
-608,444	50,893	0,064	0,045
-607,430	-12,702	-0,135	-0,064
-606,415	129,166	-0,015	-0,014
-605,401	-72,404	-0,028	0,008
-604,386	54,353	0,055	0,039
-603,371	78,124	0,097	0,076
-602,357	-200,000	0,022	-0,099
-601,342	-74,335	0,112	-0,030
-600,328	-200,000	-0,012	-0,207
-599,313	4,978	0,054	-0,029
-598,298	-114,987	-0,053	0,007
-597,284	800,000	0,001	-0,002
-596,269	-9,619	0,135	-0,066
-595,255	800,000	0,061	0,134
-594,240	22,394	-0,096	-0,058
-593,225	-79,088	-0,050	-0,012
-592,211	519,732	0,037	-0,065
-591,196	800,000	0,024	0,060
-590,182	722,275	0,030	-0,059
-589,167	148,282	0,074	0,074
-588,152	800,000	-0,016	-0,049
-587,138	13,228	-0,125	0,071
-586,123	142,531	0,103	-0,100
-585,109	-200,000	-0,015	-0,184
-584,094	154,548	0,095	-0,096
-583,079	426,640	0,061	-0,098
-582,065	800,000	-0,071	0,164
-581,050	-200,000	-0,012	0,084
-580,036	-99,989	-0,073	0,013
-579,021	-200,000	0,023	-0,092
-578,006	-200,000	-0,011	0,083
-576,992	-56,930	-0,017	-0,005
-575,977	558,642	0,016	0,029
-574,963	-53,638	0,160	-0,054
-573,948	119,346	0,032	0,029
-572,934	136,850	-0,022	-0,021
-571,919	-200,000	-0,016	0,075
-570,904	-7,470	0,052	0,026
-569,890	6,293	-0,047	-0,026
-568,875	-200,000	0,022	0,118
-567,861	800,000	-0,036	-0,074
-566,846	192,715	-0,070	-0,078
-565,831	-80,730	0,149	0,036
-564,817	565,654	-0,007	0,012
-563,802	6,177	0,100	0,055
-562,788	-93,388	0,058	0,012
-561,773	478,181	-0,029	-0,049
-560,758	800,000	0,035	-0,072
-559,744	123,442	0,037	0,034
-558,729	-33,743	0,115	0,047
-557,715	225,349	-0,082	0,097
-556,700	158,669	-0,046	0,047
-555,685	100,946	-0,134	-0,114
-554,671	-60,607	0,086	0,027
-553,656	37,809	-0,077	0,050
-552,642	-96,403	-0,069	-0,013
-551,627	-200,000	0,004	-0,079
-550,612	-200,000	-0,012	-0,054
-549,598	-200,000	-0,041	-0,163
-548,583	-56,998	0,103	-0,033
-547,569	183,852	-0,086	-0,094
-546,554	-171,047	0,084	-0,002
-545,539	-35,073	-0,103	-0,041
-544,525	74,001	-0,062	0,047
-543,510	800,000	-0,040	0,128
-542,496	-200,000	-0,016	0,121
-541,481	144,211	-0,065	-0,064
-540,466	-60,851	0,076	-0,023
-539,452	305,000	-0,047	-0,064
-538,437	27,878	0,104	-0,064
-537,423	-200,000	-0,001	-0,026
-536,408	100,749	-0,103	0,088
-535,393	-54,810	-0,074	-0,025
-534,379	-200,000	-0,028	-0,141
-533,364	-116,172	0,141	0,019
-532,350	33,715	-0,037	-0,024
-531,335	90,688	0,029	0,024
-530,321	71,586	0,129	0,098
-529,306	-141,710	-0,079	0,006
-528,291	-200,000	-0,014	0,176
-527,277	182,344	-0,028	-0,031
-526,262	186,032	-0,107	-0,117
-525,248	143,766	0,076	0,074
-524,233	-97,953	0,085	0,016
-523,218	800,000	0,051	0,118
-522,204	61,618	-0,027	-0,020
-521,189	-89,167	-0,121	-0,026
-520,175	800,000	0,018	0,048
-519,160	563,636	0,016	-0,029
-518,145	800,000	0,070	0,153
-517,131	38,798	0,103	0,068
-516,116	131,427	-0,048	-0,045
-515,102	-200,000	-0,015	0,122
-514,087	59,119	-0,017	-0,013
-513,072	-200,000	-0,018	-0,164
-512,058	-200,000	0,000	0,038
-511,043	-200,000	-0,002	-0,061
-510,029	-43,490	0,093	0,034
-509,014	-200,000	0,004	0,017
-507,999	-8,795	-0,080	-0,039
-506,985	-77,392	-0,076	-0,019
-505,970	218,135	-0,062	-0,073
-504,956	-200,000	0,011	0,062
-503,941	197,357	0,033	-0,037
-502,926	691,418	0,091	0,176
-501,912	-200,000	0,012	0,077
-500,897	-116,304	-0,037	-0,005
-499,883	-136,001	-0,098	-0,008
-498,868	323,707	-0,070	-0,098
-497,853	800,000	0,007	-0,014
-496,839	-136,248	0,054	0,005
-495,824	696,398	-0,034	0,066
-494,810	-200,000	0,020	0,148
-493,795	-102,232	-0,096	-0,017
-492,781	-200,000	0,001	-0,002
-491,766	-200,000	0,015	-0,114
-490,751	101,845	0,040	-0,034
-489,737	800,000	0,015	0,036
-488,722	-56,181	0,034	-0,011
-487,708	-90,658	0,123	-0,026
-486,693	125,595	-0,045	0,042
-485,678	620,403	-0,049	-0,090
-484,664	800,000	-0,049	-0,124
-483,649	-100,615	-0,121	0,022
-482,635	7,780	0,008	-0,004
-481,620	800,000	0,051	-0,108
-480,605	-85,797	0,133	0,030
-479,591	257,140	-0,065	0,082
-478,576	0,382	0,041	-0,021
-477,562	-6,492	0,049	-0,024
-476,547	-170,636	0,096	0,002
-475,532	800,000	-0,062	0,154
-474,518	233,673	0,083	0,101
-473,503	-81,516	0,122	0,029
-472,489	-85,785	0,023	-0,005
-471,474	3,061	-0,135	0,072
-470,459	-200,000	0,002	-0,050
-469,445	-200,000	0,004	-0,035
-468,430	-200,000	0,001	0,016
-467,416	283,103	-0,066	0,087
-466,401	414,083	0,022	0,034
-465,386	28,598	0,065	0,040
-464,372	-200,000	-0,018	-0,067
-463,357	-43,405	0,180	0,066
-462,343	115,313	-0,041	-0,037
-461,328	-200,000	0,017	-0,157
-460,313	-200,000	-0,030	0,115
-459,299	-59,342	0,099	-0,031
-458,284	-4,214	-0,142	0,072
-457,270	-200,000	0,007	0,036
-456,255	800,000	-0,026	0,067
-455,241	-146,749	0,094	0,006
-454,226	-43,506	-0,131	-0,048
-453,211	449,454	-0,035	-0,057
-452,197	525,393	0,032	-0,056
-451,182	116,082	0,050	0,045
-450,168	24,523	-0,065	0,039
-449,153	-89,820	-0,045	0,010
-448,138	-200,000	0,007	-0,084
-447,124	-200,000	0,009	-0,161
-446,109	-200,000	0,001	-0,041
-445,095	800,000	-0,019	0,046
-444,080	-66,022	0,118	-0,034
-443,065	43,477	-0,122	0,081
-442,051	-47,834	-0,068	-0,024
-441,036	-200,000	0,012	-0,075
-440,022	-85,314	-0,021	-0,005
-439,007	47,384	0,063	-0,043
-437,992	-51,606	0,072	-0,024
-436,978	-140,726	-0,075	0,006
-435,963	140,976	-0,131	0,126
-434,949	-200,000	-0,004	-0,114
-433,934	5,894	-0,116	-0,063
-432,919	-200,000	0,005	0,045
-431,905	110,414	-0,020	0,017
-430,890	-200,000	-0,007	0,088
-429,876	48,996	0,133	0,091
-428,861	32,686	-0,147	0,093
-427,846	214,089	0,087	0,102
-426,832	365,411	-0,054	-0,080
-425,817	-200,000	0,007	-0,106
-424,803	364,249	0,039	-0,057
-423,788	40,409	0,057	0,038
-422,773	156,770	-0,086	0,087
-421,759	-85,489	0,137	-0,031
-420,744	222,357	0,089	-0,105
-419,730	42,552	0,103	-0,069
-418,715	-200,000	0,002	0,091
-417,701	-200,000	0,005	0,035
-416,686	518,532	0,047	0,080
-415,671	800,000	0,054	-0,122
-414,657	-48,753	-0,200	0,070
-413,642	-173,285	-0,065	0,001
-412,628	114,188	-0,039	-0,035
-411,613	-200,000	-0,001	-0,021
-410,598	-73,953	0,068	-0,018
-409,584	800,000	0,062	-0,173
-408,569	-84,169	0,062	-0,014
-407,555	55,883	0,013	-0,009
-406,540	-50,776	0,119	-0,041
-405,525	-67,087	0,032	-0,009
-404,511	800,000	-0,052	0,112
-403,496	83,125	0,082	0,066
-402,482	-200,000	0,023	0,106
-401,467	-102,123	0,054	0,009
-400,452	82,866	0,025	0,020
-399,438	139,697	0,045	-0,043
-398,423	-157,906	0,102	0,004
-397,409	671,787	0,054	-0,103
-396,394	163,479	0,083	-0,086
-395,379	153,093	-0,010	-0,010
-394,365	92,838	-0,014	-0,012
-393,350	70,443	-0,125	0,094
-392,336	243,101	-0,101	0,124
-391,321	-200,000	0,010	0,066
-390,306	517,194	0,021	-0,037
-389,292	-55,604	0,041	-0,013
-388,277	-200,000	0,003	0,048
-387,263	-89,190	-0,055	0,012
-386,248	800,000	0,044	0,136
-385,233	-200,000	0,085	0,000
-384,219	800,000	-0,077	-0,183
-383,204	800,000	0,041	-0,095
-382,190	-57,222	0,028	-0,009
-381,175	80,336	-0,110	0,087
-380,160	292,328	0,041	0,054
-379,146	-7,685	-0,115	0,057
-378,131	-9,232	0,030	0,014
-377,117	-200,000	0,006	-0,060
-376,102	-53,501	-0,108	-0,036
-375,088	707,355	-0,090	-0,174
-374,073	-134,649	0,104	-0,009
-373,058	-65,517	0,143	-0,042
-372,044	30,988	-0,089	0,055
-371,029	227,699	-0,044	-0,053
-370,015	-167,412	0,049	-0,001
-369,000	488,093	-0,056	-0,094
-367,985	800,000	0,027	0,081
-366,971	160,783	0,057	-0,058
-365,956	209,009	0,113	-0,129
-364,942	-200,000	0,005	0,043
-363,927	106,273	-0,012	0,011
-362,912	800,000	0,019	0,052
-361,898	-9,107	0,063	0,030
-360,883	-23,149	-0,061	-0,027
-359,869	-200,000	-0,003	-0,212
-358,854	-147,210	0,056	-0,003
-357,839	-110,104	0,044	0,007
-356,825	-200,000	-0,002	0,027
-355,810	283,342	0,048	-0,063
-354,796	301,950	-0,077	0,105
-353,781	800,000	0,017	0,038
-352,766	463,776	0,022	-0,035
-351,752	388,567	-0,056	-0,084
-350,737	82,363	0,069	0,055
-349,723	239,531	-0,043	0,052
-348,708	-85,519	0,074	0,017
-347,693	98,312	0,065	-0,055
-346,679	-200,000	0,010	-0,124
-345,664	-200,000	0,050	-0,200
-344,650	-68,636	0,098	-0,027
-343,635	-172,861	0,063	-0,001
-342,620	-106,883	0,059	0,010
-341,606	-39,932	-0,046	0,017
-340,591	-200,000	-0,028	-0,154
-339,577	-6,823	-0,131	-0,065
-338,562	-200,000	0,007	0,069
-337,548	-172,451	-0,148	0,003
-336,533	329,318	0,038	0,053
-335,518	-200,000	-0,019	-0,069
-334,504	-105,929	0,119	0,019
-333,489	-200,000	0,002	-0,034
-332,475	-43,853	0,014	-0,005
-331,460	337,354	-0,072	-0,102
-330,445	-200,000	0,016	0,053
-329,431	-200,000	-0,001	0,103
-328,416	-200,000	0,005	0,028
-327,402	-200,000	-0,020	0,077
-326,387	800,000	-0,024	-0,064
-325,372	456,970	0,053	-0,087
-324,358	589,388	0,044	-0,079
-323,343	-200,000	0,018	-0,106
-322,329	-40,937	-0,082	0,031
-321,314	-34,823	0,126	-0,050
-320,299	-200,000	0,002	0,125
-319,285	800,000	-0,003	0,007
-318,270	-200,000	0,000	0,018
-317,256	-200,000	0,036	0,131
-316,241	-136,144	-0,123	-0,010
-315,226	800,000	0,020	-0,043
-314,212	87,070	-0,068	0,055
-313,197	-200,000	0,009	0,107
-312,183	-51,227	-0,102	0,035
-311,168	800,000	0,023	0,052
-310,153	-149,968	0,087	-0,005
-309,139	49,192	-0,091	-0,063
-308,124	474,376	-0,044	0,073
-307,110	276,811	0,117	0,152
-306,095	18,336	0,080	-0,046
-305,080	82,454	0,046	0,036
-304,066	-200,000	-0,009	0,076
-303,051	26,043	-0,063	0,038
-302,037	134,471	-0,055	0,052
-301,022	-200,000	0,018	0,062
-300,008	-145,603	0,072	-0,005
-298,993	352,955	0,074	0,108
-297,978	-128,333	0,037	0,004
-296,964	23,950	-0,118	-0,071
-295,949	722,077	-0,043	0,083
-294,935	800,000	-0,064	-0,146
-293,920	-200,000	0,010	-0,035
-292,905	64,147	-0,014	0,010
-291,891	-200,000	-0,012	0,153
-290,876	-17,066	0,054	0,025
-289,862	187,232	0,045	0,048
-288,847	-34,894	-0,101	-0,040
-287,832	-105,362	0,055	0,009
-286,818	205,259	-0,051	0,058
-285,803	-200,000	-0,015	0,078
-284,789	-200,000	-0,008	-0,027
-283,774	-200,000	0,007	0,109
-282,759	-200,000	0,002	-0,047
-281,745	240,026	0,026	-0,032
-280,730	668,700	0,042	0,079
-279,716	800,000	-0,021	0,045
-278,701	152,558	-0,030	0,030
-277,686	-40,572	-0,049	0,019
-276,672	178,157	0,078	-0,083
-275,657	426,257	-0,058	0,091
-274,643	-200,000	0,005	-0,018
-273,628	119,240	-0,038	0,034
-272,613	-200,000	-0,006	0,046
-271,599	340,657	-0,076	0,109
-270,584	-46,578	0,120	0,043
-269,570	86,460	-0,060	0,048
-268,555	-200,000	-0,001	0,044
-267,540	344,936	0,007	-0,010
-266,526	-110,418	0,089	0,013
-265,511	225,907	-0,019	-0,023
-264,497	-135,578	-0,076	0,006
-263,482	800,000	-0,036	-0,079
-262,467	115,855	-0,015	0,014
-261,453	427,733	-0,054	-0,085
-260,438	-113,799	-0,148	-0,021
-259,424	800,000	0,026	-0,061
-258,409	31,789	-0,057	0,035
-257,395	-106,294	-0,017	-0,003
-256,380	-200,000	0,022	0,187
-255,365	-200,000	0,010	0,065
-254,351	146,310	-0,067	0,065
-253,336	128,356	0,015	-0,014
-252,322	-69,976	-0,133	0,037
-251,307	-200,000	-0,001	-0,127
-250,292	186,200	-0,038	-0,041
-249,278	800,000	0,031	0,084
-248,263	-6,589	-0,120	-0,059
-247,249	50,961	-0,051	-0,035
-246,234	-100,485	-0,122	0,022
-245,219	-3,535	-0,028	-0,014
-244,205	754,670	0,026	-0,051
-243,190	-200,000	0,022	0,127
-242,176	-128,326	0,033	-0,003
-241,161	93,776	0,025	-0,020
-240,146	133,405	0,051	0,048
-239,132	-200,000	0,020	-0,081
-238,117	-95,787	-0,053	-0,010
-237,103	-200,000	0,009	-0,088
-236,088	62,573	-0,017	0,012
-235,073	800,000	0,036	0,094
-234,059	-116,304	0,041	0,005
-233,044	-200,000	-0,018	0,132
-232,030	-123,112	0,192	-0,022
-231,015	-200,000	0,026	-0,162
-230,000	76,412	-0,109	-0,084
-228,986	-200,000	0,020	-0,073
-227,971	272,537	0,064	0,083
-226,957	376,878	0,110	0,163
-225,942	-200,000	0,007	0,096
-224,927	67,893	-0,114	-0,085
-223,913	-200,000	-0,002	-0,091
-222,898	173,723	0,050	-0,052
-221,884	196,825	-0,082	0,091
-220,869	152,730	-0,030	-0,030
-219,855	-200,000	-0,006	-0,039
-218,840	224,002	-0,051	-0,060
-217,825	-11,302	0,136	0,065
-216,811	565,455	0,066	0,116
-215,796	-200,000	-0,014	-0,065
-214,782	91,893	-0,132	0,108
-213,767	-200,000	-0,007	0,080
-212,752	178,538	-0,025	-0,026
-211,738	200,499	-0,046	0,051
-210,723	252,808	-0,033	0,041
-209,709	800,000	-0,034	-0,102
-208,694	-49,199	0,083	-0,029
-207,679	-200,000	-0,003	0,011
-206,665	-200,000	0,021	0,086
-205,650	-11,664	0,053	-0,025
-204,636	116,034	0,007	-0,006
-203,621	-200,000	0,012	0,087
-202,606	121,992	0,020	-0,018
-201,592	800,000	-0,042	0,085
-200,577	300,290	-0,015	-0,020
-199,563	-136,896	-0,193	-0,016
-198,548	-200,000	0,018	0,142
-197,533	72,663	0,115	0,087
-196,519	677,226	-0,088	0,166
-195,504	800,000	0,022	-0,048
-194,490	124,785	-0,141	0,129
-193,475	-200,000	0,032	0,129
-192,460	670,834	-0,093	0,175
-191,446	-200,000	-0,004	-0,052
-190,431	-200,000	0,005	0,058
-189,417	-154,131	-0,063	0,003
-188,402	800,000	0,043	-0,122
-187,387	-200,000	-0,055	-0,191
-186,373	-200,000	-0,008	0,117
-185,358	-200,000	-0,017	-0,083
-184,344	-163,394	0,121	-0,004
-183,329	-200,000	0,022	-0,157
-182,315	800,000	-0,029	0,083
-181,300	-79,189	0,046	0,011
-180,285	56,572	0,034	-0,024
-179,271	-0,414	0,042	-0,021
-178,256	-200,000	-0,032	-0,117
-177,242	227,601	0,018	0,021
-176,227	129,382	0,006	-0,006
-175,212	800,000	-0,055	-0,138
-174,198	257,588	0,041	-0,051
-173,183	527,573	-0,060	-0,103
-172,169	235,433	-0,097	0,116
-171,154	-200,000	0,004	-0,088
-170,139	-200,000	0,020	-0,071
-169,125	301,750	0,011	-0,015
-168,110	-37,066	-0,062	0,024
-167,096	-200,000	-0,017	0,124
-166,081	800,000	0,015	0,038
-165,066	274,806	-0,050	0,064
-164,052	-39,568	0,056	-0,021
-163,037	188,146	0,034	-0,037
-162,023	800,000	0,016	0,034
-161,008	-36,826	0,239	0,092
-159,993	-28,858	0,059	0,025
-158,979	-200,000	-0,006	-0,048
-157,964	-93,916	-0,031	0,006
-156,950	-11,247	-0,110	-0,052
-155,935	-200,000	-0,009	-0,066
-154,920	172,361	0,039	0,041
-153,906	800,000	-0,014	-0,032
-152,891	800,000	0,045	-0,137
-151,877	393,547	0,098	-0,148
-150,862	-200,000	-0,002	0,017
-149,847	121,558	0,022	-0,020
-148,833	-110,747	-0,068	0,010
-147,818	-66,206	0,038	0,011
-146,804	335,107	0,019	0,026
-145,789	800,000	0,037	0,116
-144,775	-69,494	0,123	0,034
-143,760	22,161	-0,062	0,036
-142,745	-200,000	-0,056	0,000
-141,731	91,054	0,036	-0,029
-140,716	-200,000	0,034	-0,130
-139,702	-59,223	0,128	-0,040
-138,687	45,585	-0,071	-0,047
-137,672	-70,677	-0,135	-0,037
-136,658	-200,000	0,011	0,044
-135,643	800,000	-0,041	-0,084
-134,629	133,461	0,034	0,032
-133,614	-59,591	-0,072	0,022
-132,599	-200,000	0,015	0,118
-131,585	54,313	0,164	0,114
-130,570	21,044	-0,057	-0,033
-129,556	800,000	0,027	-0,087
-128,541	-129,309	-0,008	-0,001
-127,526	-200,000	0,046	-0,152
-126,512	-157,841	0,080	0,003
-125,497	-115,681	0,089	0,012
-124,483	-200,000	-0,001	-0,108
-123,468	14,674	-0,064	0,036
-122,453	188,433	-0,080	0,087
-121,439	-17,268	0,094	-0,043
-120,424	46,487	-0,143	0,096
-119,410	305,256	-0,003	-0,005
-118,395	240,801	0,040	0,048
-117,380	35,345	0,043	-0,027
-116,366	-165,780	0,071	0,002
-115,351	-67,833	0,040	0,011
-114,337	-200,000	0,001	-0,086
-113,322	-200,000	-0,001	0,046
-112,307	-128,912	0,068	-0,007
-111,293	800,000	0,018	0,042
-110,278	-37,400	0,140	0,054
-109,264	-200,000	0,002	0,100
-108,249	-200,000	0,039	-0,130
-107,234	-69,957	-0,107	0,029
-106,220	-25,482	-0,035	-0,015
-105,205	-50,748	0,029	0,010
-104,191	325,382	0,020	0,028
-103,176	-125,763	0,103	-0,011
-102,162	-200,000	0,002	-0,089
-101,147	-25,808	0,123	-0,052
-100,132	800,000	-0,085	-0,176
-99,118	-96,615	0,060	-0,011
-98,103	466,073	-0,033	-0,054
-97,089	-24,886	-0,080	-0,034
-96,074	-200,000	-0,006	-0,028
-95,059	-200,000	-0,007	0,091
-94,045	-200,000	0,018	-0,067
-93,030	-94,028	0,065	-0,013
-92,016	-84,599	-0,055	-0,012
-91,001	-116,806	0,096	-0,013
-89,986	-200,000	0,003	0,073
-88,972	-132,385	-0,051	0,005
-87,957	-27,738	-0,036	-0,015
-86,943	-111,968	0,082	-0,012
-85,928	800,000	-0,051	-0,154
-84,913	304,835	-0,020	-0,027
-83,899	800,000	0,037	-0,088
-82,884	800,000	0,043	0,129
-81,870	-53,921	0,042	0,014
-80,855	59,204	0,035	0,025
-79,840	-200,000	0,028	-0,099
-78,826	736,874	-0,025	-0,049
-77,811	94,762	-0,060	-0,049
-76,797	800,000	-0,015	-0,032
-75,782	-34,126	-0,157	-0,062
-74,767	-200,000	0,023	-0,126
-73,753	-114,622	0,081	-0,011
-72,738	335,306	-0,074	0,104
-71,724	-200,000	0,006	-0,109
-70,709	-200,000	0,010	-0,080
-69,694	-200,000	0,006	0,099
-68,680	54,308	-0,060	0,041
-67,665	-35,042	0,149	0,058
-66,651	-200,000	-0,024	0,090
-65,636	-138,301	0,114	0,009
-64,622	-200,000	-0,002	0,037
-63,607	-190,387	-0,112	-0,001
-62,592	-37,976	-0,120	0,046
-61,578	62,823	-0,123	0,089
-60,563	254,756	0,008	-0,010
-59,549	138,664	-0,088	0,084
-58,534	-34,506	-1,750	-0,688
-57,519	800,000	-0,559	-1,313
-56,505	-200,000	-1,143	-4,740
-55,490	-113,467	0,816	0,114
-54,476	800,000	5,339	12,121
-53,461	-200,000	15,834	279,003
-52,446	-200,000	703,647	2245,131
-51,432	561,664	1619,786	2837,341
-50,417	121,824	1623,609	1461,251
-49,403	82,600	1284,528	1005,660
-48,388	36,838	1028,759	654,697
-47,373	21,520	990,880	579,929
-46,359	20,370	979,430	569,414
-45,344	18,665	975,179	561,312
-44,330	18,724	973,923	560,763
-43,315	18,494	972,100	558,937
-42,300	18,437	971,164	558,189
-41,286	18,392	970,180	557,454
-40,271	18,378	969,360	556,916
-39,257	18,442	968,352	556,523
-38,242	18,447	967,560	556,061
-37,227	18,400	966,967	555,546
-36,213	18,443	966,049	555,135
-35,198	18,423	965,124	554,517
-34,184	18,477	964,309	554,202
-33,169	18,372	963,508	553,381
-32,154	18,479	962,510	553,133
-31,140	18,458	961,619	552,530
-30,125	18,501	961,071	552,331
-29,111	18,478	960,233	551,754
-28,096	18,463	959,467	551,245
-27,082	18,349	959,170	550,681
-26,067	18,423	957,935	550,191
-25,052	18,411	957,269	549,749
-24,038	18,348	956,704	549,197
-23,023	18,368	955,997	548,833
-22,009	18,437	955,251	548,606
-20,994	18,417	954,663	548,181
-19,979	18,432	953,868	547,754
-18,965	18,451	953,339	547,490
-17,950	18,446	952,627	547,042
-16,936	18,411	951,970	546,532
-15,921	18,334	951,444	545,959
-14,906	18,226	950,847	545,249
-13,892	18,335	950,042	545,115
-12,877	18,295	949,260	544,516
-11,863	18,215	948,890	544,026
-10,848	18,248	948,301	543,772
-9,833	18,304	947,957	543,732
-8,819	18,273	947,083	543,110
-7,804	18,235	946,632	542,711
-6,790	18,244	945,953	542,327
-5,775	18,325	945,435	542,269
-4,760	18,279	944,984	541,841
-3,746	18,314	944,004	541,369
-2,731	18,112	943,306	540,304
-1,717	18,074	942,824	539,886
-0,702	18,067	942,038	539,392
0,313	17,877	941,413	539,247
1,327	21,102	939,616	548,381
2,342	30,213	796,715	489,242
3,356	27,517	449,207	271,783
4,371	-2,282	295,065	148,706
5,386	-6,391	276,318	135,349
6,400	-7,581	270,566	131,412
7,415	-8,028	268,385	129,929
8,429	-7,769	266,883	129,428
9,444	-7,858	266,165	128,986
10,459	-7,996	265,624	128,587
11,473	-8,001	264,879	128,210
12,488	-8,116	264,169	127,751
13,502	-8,214	263,761	127,454
14,517	-8,267	263,307	127,175
15,531	-8,255	262,864	126,961
16,546	-7,974	262,508	127,031
17,561	-8,091	262,208	126,769
18,575	-8,137	261,843	126,539
19,590	-8,369	261,500	126,154
20,604	-8,134	261,255	126,236
21,619	-8,403	261,042	125,880
22,634	-8,286	260,711	125,814
23,648	-8,273	260,248	125,591
24,663	-8,383	260,049	125,386
25,677	-8,307	259,756	125,301
26,692	-8,166	259,506	125,295
27,707	-8,345	259,419	125,083
28,721	-8,429	259,034	124,811
29,736	-8,342	258,609	124,672
30,750	-8,328	258,397	124,571
31,765	-8,457	258,259	124,380
32,780	-8,480	257,879	124,165
33,794	-8,472	257,709	124,079
34,809	-8,537	257,509	123,914
35,823	-8,257	257,145	123,975
36,838	-8,651	257,024	123,558
37,853	-8,456	256,663	123,546
38,867	-8,497	256,407	123,375
39,882	-8,362	256,167	123,367
40,896	-8,575	256,038	123,107
41,911	-8,398	255,795	123,134
42,926	-8,446	255,506	122,942
43,940	-8,704	255,406	122,658
44,955	-8,542	255,120	122,651
45,969	-8,652	254,790	122,385
46,984	-8,852	254,742	122,176
47,999	-8,972	254,241	121,821
49,013	-9,244	253,996	121,456
50,028	-9,216	253,919	121,432
51,042	-9,429	253,573	121,071
52,057	-9,370	253,385	121,022
53,071	-9,154	253,138	121,080
54,086	-9,093	253,038	121,075
55,101	-8,962	252,831	121,078
56,115	-8,896	252,662	121,044
57,130	-8,458	252,609	121,386
58,144	-8,168	252,469	121,559
59,159	-8,043	252,332	121,590
60,174	-8,215	252,128	121,332
61,188	-8,175	251,752	121,176
62,203	-8,334	251,650	120,978
63,217	-8,269	251,322	120,866
64,232	-8,229	251,159	120,811
65,247	-8,294	251,053	120,693
66,261	-8,193	250,651	120,576
67,276	-8,689	250,529	120,081
68,290	-8,760	250,333	119,916
69,305	-8,947	249,916	119,546
70,320	-8,804	249,819	119,611
71,334	-8,496	249,674	119,794
72,349	-8,382	249,718	119,901
73,363	-8,300	249,321	119,770
74,378	-8,263	249,154	119,711
75,393	-8,293	248,918	119,561
76,407	-8,491	248,706	119,280
77,422	-8,296	248,483	119,328
78,436	-8,302	248,333	119,241
79,451	-8,232	248,107	119,181
80,466	-8,548	247,751	118,731
81,480	-8,753	247,613	118,481
82,495	-8,631	247,391	118,467
83,509	-8,744	247,345	118,340
84,524	-8,613	247,079	118,312
85,539	-8,969	246,949	117,939
86,553	-8,907	246,656	117,841
87,568	-8,746	246,407	117,847
88,582	-8,766	246,129	117,687
89,597	-8,805	246,094	117,627
90,611	-8,581	245,966	117,743
91,626	-8,353	245,811	117,850
92,641	-8,439	245,698	117,713
93,655	-8,559	245,400	117,459
94,670	-8,671	245,192	117,255
95,684	-8,523	244,994	117,274
96,699	-8,534	244,696	117,112
97,714	-8,738	244,584	116,877
98,728	-8,674	244,391	116,828
99,743	-8,698	244,273	116,741
100,757	-8,859	244,095	116,512
101,772	-8,787	243,759	116,401
102,787	-8,757	243,696	116,386
103,801	-8,617	243,537	116,415
104,816	-8,612	243,299	116,295
105,830	-8,403	243,144	116,384
106,845	-8,299	243,029	116,405
107,860	-8,345	242,711	116,204
108,874	-8,499	242,625	116,025
109,889	-8,687	242,495	115,798
110,903	-8,656	242,188	115,666
111,918	-8,736	241,959	115,481
112,933	-8,512	241,840	115,598
113,947	-8,519	241,762	115,545
114,962	-8,587	241,604	115,403
115,976	-8,505	241,431	115,377
116,991	-8,442	241,198	115,308
118,006	-8,668	241,093	115,062
119,020	-8,431	240,899	115,153
120,035	-8,300	240,750	115,179
121,049	-8,453	240,621	114,982
122,064	-8,442	240,349	114,850
123,079	-8,363	240,217	114,842
124,093	-8,711	240,041	114,463
125,108	-8,879	239,734	114,169
126,122	-8,959	239,423	113,946
127,137	-8,974	239,214	113,824
128,151	-8,854	239,233	113,920
129,166	-8,499	238,927	114,053
130,181	-8,909	238,774	113,637
131,195	-8,692	238,566	113,704
132,210	-8,816	238,627	113,622
133,224	-8,523	238,260	113,675
134,239	-8,483	238,184	113,660
135,254	-8,579	238,085	113,525
136,268	-8,641	237,800	113,329
137,283	-8,879	237,567	113,016
138,297	-8,868	237,344	112,909
139,312	-8,842	237,156	112,830
140,327	-8,694	237,144	112,934
141,341	-8,116	237,091	113,364
142,356	-8,181	237,123	113,317
143,370	-8,148	236,770	113,165
144,385	-8,050	236,557	113,131
145,400	-8,016	236,614	113,176
146,414	-7,935	236,294	113,078
147,429	-8,099	236,067	112,827
148,443	-8,101	235,852	112,713
149,458	-8,078	235,736	112,666
150,473	-8,207	235,468	112,425
151,487	-8,323	235,369	112,275
152,502	-8,177	235,287	112,342
153,516	-8,009	234,975	112,318
154,531	-7,949	234,907	112,323
155,546	-8,149	234,878	112,140
156,560	-8,307	234,674	111,907
157,575	-8,504	234,259	111,542
158,589	-8,474	234,188	111,522
159,604	-8,052	234,052	111,782
160,619	-7,896	233,933	111,839
161,633	-7,878	233,736	111,749
162,648	-8,035	233,642	111,570
163,662	-8,099	233,522	111,452
164,677	-8,327	233,329	111,170
165,692	-8,236	233,197	111,169
166,706	-7,804	232,966	111,390
167,721	-7,698	232,772	111,371
168,735	-7,943	232,771	111,168
169,750	-7,981	232,548	111,021
170,764	-8,252	232,510	110,779
171,779	-8,117	232,350	110,799
172,794	-8,212	232,245	110,665
173,808	-8,140	231,890	110,542
174,823	-8,523	231,413	110,005
175,837	-8,830	231,428	109,761
176,852	-8,339	231,316	110,083
177,867	-8,324	231,342	110,098
178,881	-8,122	230,990	110,078
179,896	-7,983	231,025	110,194
180,910	-7,717	230,735	110,253
181,925	-8,059	230,730	109,974
182,940	-8,012	230,569	109,924
183,954	-8,031	230,492	109,863
184,969	-7,976	230,356	109,831
185,983	-7,993	230,232	109,749
186,998	-7,960	230,064	109,685
188,013	-7,754	229,836	109,727
189,027	-7,744	229,620	109,621
190,042	-8,017	229,514	109,349
191,056	-7,809	229,468	109,479
192,071	-7,813	229,167	109,322
193,086	-7,846	229,042	109,227
194,100	-7,730	228,866	109,223
195,115	-7,957	228,703	108,960
196,129	-8,258	228,678	108,706
197,144	-4,156	229,956	112,491
198,159	0,343	231,289	116,639
199,173	3,289	231,846	119,206
200,188	3,693	231,749	119,460
201,202	3,840	231,738	119,558
202,217	3,707	231,751	119,451
203,232	3,937	231,610	119,546
204,246	4,213	231,213	119,545
205,261	4,098	231,117	119,396
206,275	4,399	230,979	119,547
207,290	4,327	230,979	119,480
208,304	4,277	230,735	119,304
209,319	4,264	230,601	119,214
210,334	4,320	230,334	119,109
211,348	4,093	230,116	118,811
212,363	3,800	229,846	118,435
213,377	3,396	229,726	118,051
214,392	3,577	229,534	118,081
215,407	3,225	229,584	117,825
216,421	3,749	229,263	118,053
217,436	3,489	229,121	117,770
218,450	3,369	228,700	117,451
219,465	3,158	228,674	117,265
220,480	3,293	228,612	117,327
221,494	3,208	228,462	117,174
222,509	3,321	228,364	117,200
223,523	3,384	228,242	117,175
224,538	3,402	227,927	117,016
225,553	3,456	227,806	116,985
226,567	3,643	227,764	117,096
227,582	3,566	227,826	117,058
228,596	3,737	227,602	117,063
229,611	3,617	227,373	116,844
230,626	3,454	227,217	116,629
231,640	3,211	226,966	116,305
232,655	3,518	227,080	116,587
233,669	3,916	226,994	116,834
234,684	4,029	226,782	116,800
235,699	3,801	226,556	116,501
236,713	3,414	226,448	116,142
237,728	3,514	226,218	116,089
238,742	3,425	225,866	115,831
239,757	3,182	225,993	115,702
240,772	3,273	225,677	115,599
241,786	3,508	225,546	115,698
242,801	3,482	225,587	115,690
243,815	3,938	225,450	115,953
244,830	3,821	225,241	115,747
245,844	3,625	225,050	115,491
246,859	3,480	224,829	115,259
247,874	3,759	224,793	115,439
248,888	3,602	224,673	115,249
249,903	3,597	224,395	115,093
250,917	3,518	224,306	114,977
251,932	3,380	224,019	114,717
252,947	3,367	223,914	114,643
253,961	3,237	223,778	114,466
254,976	3,341	223,654	114,470
255,990	3,484	223,601	114,539
257,005	3,711	223,377	114,584
258,020	3,671	223,523	114,619
259,034	3,762	223,288	114,556
260,049	3,783	223,070	114,449
261,063	3,628	222,908	114,241
262,078	3,796	222,727	114,263
263,093	3,873	222,665	114,278
264,107	3,808	222,517	114,144
265,122	3,750	222,406	114,033
266,136	3,914	222,383	114,133
267,151	4,037	222,051	114,044
268,166	3,341	221,795	113,387
269,180	3,355	221,547	113,261
270,195	3,497	221,322	113,240
271,209	3,207	221,406	113,059
272,224	3,503	221,238	113,182
273,239	3,455	221,186	113,109
274,253	3,478	220,900	112,969
275,268	2,988	220,755	112,525
276,282	3,379	220,491	112,667
277,297	3,094	220,441	112,423
278,312	3,268	220,255	112,446
279,326	3,459	220,212	112,554
280,341	3,505	220,133	112,537
281,355	3,545	220,086	112,532
282,370	3,462	219,861	112,347
283,384	3,101	219,557	111,917
284,399	3,210	219,467	111,941
285,414	3,066	219,500	111,842
286,428	3,491	219,304	112,044
287,443	3,484	219,177	111,964
288,457	3,450	219,093	111,886
289,472	3,338	218,864	111,677
290,487	3,146	218,521	111,352
291,501	3,316	218,432	111,420
292,516	3,212	218,193	111,213
293,530	3,286	218,274	111,298
294,545	3,180	218,091	111,118
295,560	3,489	217,928	111,250
296,574	3,775	217,755	111,358
297,589	3,370	217,725	111,039
298,603	3,511	217,665	111,101
299,618	3,464	217,613	111,031
300,633	3,545	217,342	110,941
301,647	3,729	217,292	111,039
302,662	3,635	217,121	110,874
303,676	3,669	217,035	110,845
304,691	3,601	216,764	110,647
305,706	3,713	216,709	110,690
306,720	3,816	216,495	110,645
307,735	3,558	216,238	110,318
308,749	3,345	216,129	110,099
309,764	3,376	216,095	110,095
310,779	3,978	215,907	110,422
311,793	3,601	215,678	110,024
312,808	3,604	215,545	109,948
313,822	3,699	215,350	109,907
314,837	3,187	215,303	109,507
315,852	3,165	215,189	109,423
316,866	2,923	215,032	109,161
317,881	3,779	214,999	109,746
318,895	3,836	214,940	109,747
319,910	3,646	214,669	109,463
320,925	3,357	214,336	109,078
321,939	2,872	214,392	108,751
322,954	3,186	214,235	108,885
323,968	3,380	214,247	109,020
324,983	3,696	214,014	109,116
325,997	3,664	213,806	108,977
327,012	3,545	213,668	108,813
328,027	3,496	213,639	108,754
329,041	3,984	213,542	109,041
330,056	3,945	213,484	108,974
331,070	3,565	213,192	108,546
332,085	3,077	213,014	108,101
333,100	3,413	212,871	108,256
334,114	3,722	212,768	108,412
335,129	3,742	212,704	108,384
336,143	3,394	212,581	108,066
337,158	3,425	212,364	107,968
338,173	3,363	212,244	107,853
339,187	3,172	212,069	107,621
340,202	3,117	211,899	107,486
341,216	2,991	211,726	107,301
342,231	3,362	211,697	107,537
343,246	3,186	211,606	107,357
344,260	3,232	211,447	107,300
345,275	3,430	211,264	107,336
346,289	3,632	211,120	107,394
347,304	3,583	211,126	107,353
348,319	3,286	210,979	107,061
349,333	3,256	210,783	106,931
350,348	3,791	210,597	107,201
351,362	3,764	210,576	107,162
352,377	3,660	210,512	107,047
353,392	3,502	210,394	106,868
354,406	3,595	210,175	106,811
355,421	194,186	1342,203	1423,302
356,435	155,014	1480,159	1423,335
