DTS Sentinel unit serial number:	SN410029Multiplexer serial number:	ORYXHardware model number:	OX2-SRSoftware version number:	ORYX F/W v4,00 Oryx Data Collector v3.7.2.0data status	okinstallation	B6 Nyhavnadifferential loss correction	single-endedforward channel	channel 2reverse channel	N/Adate	2023/12/10time	01:35:08forward acquisition time	300,00reverse acquisition time	0,00gamma	499,1914k internal	0,3125k external	0,3125temperature offset calibration	1,0000default loss term (dB/km)	0,3820temperature slope calibration	1,0000multiplexer offset coefficient	1,0000multiplexer slope coefficient	1,0000fibre end	0,00T internal ref (°C)	21,92T ext. ref 1 (°C)	5,67T ext. ref 2 (°C)	5,67length (m)	temperature (°C)	Stokes	anti-Stokes-744,400	-200,000	0,013	-0,133
-743,385	165,037	-0,137	0,144
-742,371	-200,000	0,027	-0,102
-741,356	5,500	-0,276	0,151
-740,342	176,192	0,094	0,102
-739,327	-36,119	-0,346	0,139
-738,312	-11,377	0,107	-0,052
-737,298	-98,293	-0,319	0,060
-736,283	294,760	-0,058	-0,079
-735,269	-127,902	-0,144	0,015
-734,254	800,000	0,004	-0,009
-733,239	-62,535	-0,455	-0,140
-732,225	-124,921	0,117	0,013
-731,210	800,000	0,025	-0,081
-730,196	800,000	0,016	-0,036
-729,181	800,000	-0,030	-0,086
-728,167	266,994	-0,072	-0,094
-727,152	-200,000	0,008	-0,074
-726,137	-62,441	-0,060	-0,018
-725,123	-200,000	-0,024	0,091
-724,108	374,011	0,027	0,041
-723,094	39,716	-0,072	0,048
-722,079	-136,727	-0,113	-0,010
-721,064	49,802	0,094	-0,066
-720,050	-200,000	-0,008	-0,153
-719,035	800,000	-0,028	0,081
-718,021	4,758	-0,104	0,057
-717,006	144,474	-0,022	0,022
-715,991	800,000	0,011	0,034
-714,977	-11,242	-0,104	-0,051
-713,962	-13,530	0,040	0,019
-712,948	800,000	0,062	0,135
-711,933	359,682	0,040	-0,060
-710,918	3,161	0,126	0,068
-709,904	42,115	-0,045	0,030
-708,889	12,908	-0,023	0,013
-707,875	800,000	-0,066	-0,149
-706,860	800,000	0,016	-0,045
-705,845	-80,050	0,051	-0,013
-704,831	587,136	-0,022	-0,040
-703,816	14,395	-0,109	0,063
-702,802	-200,000	0,000	-0,187
-701,787	-200,000	-0,028	-0,127
-700,772	239,136	0,111	-0,137
-699,758	-0,285	-0,095	-0,050
-698,743	800,000	0,029	-0,066
-697,729	44,718	-0,068	0,047
-696,714	-79,541	-0,073	-0,018
-695,699	-10,782	-0,049	-0,024
-694,685	80,671	0,075	0,060
-693,670	201,808	0,068	-0,078
-692,656	239,024	-0,033	-0,041
-691,641	-200,000	0,014	-0,105
-690,627	800,000	-0,033	-0,080
-689,612	-170,575	-0,121	0,003
-688,597	-38,514	-0,116	0,045
-687,583	27,334	-0,046	0,029
-686,568	243,188	0,043	-0,054
-685,554	-200,000	-0,004	-0,028
-684,539	-54,506	-0,024	0,008
-683,524	-200,000	0,021	-0,122
-682,510	223,530	0,088	0,105
-681,495	120,349	-0,098	-0,090
-680,481	22,130	-0,062	-0,037
-679,466	-75,205	0,136	0,036
-678,451	-143,487	-0,111	-0,008
-677,437	604,256	-0,034	-0,063
-676,422	-76,783	0,080	-0,021
-675,408	-139,651	-0,114	0,009
-674,393	71,206	-0,072	0,055
-673,378	84,127	-0,096	-0,078
-672,364	22,382	-0,163	-0,099
-671,349	-200,000	-0,026	-0,109
-670,335	75,734	0,051	0,040
-669,320	-25,674	0,117	0,051
-668,305	-200,000	0,000	0,016
-667,291	-200,000	-0,020	-0,088
-666,276	-200,000	0,027	-0,121
-665,262	227,438	-0,112	-0,135
-664,247	-171,427	-0,058	-0,001
-663,232	78,527	0,011	-0,009
-662,218	-200,000	0,004	-0,047
-661,203	105,440	-0,002	-0,002
-660,189	416,267	0,092	-0,146
-659,174	-119,300	-0,095	-0,012
-658,159	800,000	0,047	-0,109
-657,145	-37,504	-0,149	0,059
-656,130	800,000	-0,038	-0,119
-655,116	-200,000	0,007	-0,106
-654,101	121,472	0,055	-0,050
-653,086	800,000	0,054	-0,118
-652,072	-200,000	-0,011	-0,076
-651,057	-200,000	-0,020	-0,073
-650,043	-200,000	0,013	-0,198
-649,028	141,995	0,056	0,055
-648,014	154,726	0,054	-0,055
-646,999	-200,000	0,010	-0,047
-645,984	129,855	-0,062	0,059
-644,970	-200,000	-0,012	-0,125
-643,955	61,415	-0,077	-0,057
-642,941	594,389	-0,053	-0,098
-641,926	-30,071	-0,043	0,018
-640,911	103,750	-0,045	0,039
-639,897	64,520	-0,084	-0,063
-638,882	-17,886	-0,025	0,012
-637,868	7,428	0,053	0,029
-636,853	-61,824	-0,030	0,009
-635,838	-150,845	0,043	-0,002
-634,824	800,000	0,042	-0,086
-633,809	235,363	-0,079	0,097
-632,795	30,315	0,042	0,027
-631,780	93,228	0,146	0,122
-630,765	-43,761	-0,141	-0,053
-629,751	-200,000	-0,022	-0,141
-628,736	550,961	-0,054	-0,097
-627,722	57,331	-0,087	-0,063
-626,707	264,950	0,148	-0,192
-625,692	-200,000	0,017	-0,085
-624,678	364,713	-0,100	-0,150
-623,663	-200,000	0,008	-0,086
-622,649	666,533	0,063	0,122
-621,634	15,759	-0,181	-0,105
-620,619	0,223	0,062	-0,033
-619,605	800,000	-0,016	-0,049
-618,590	800,000	-0,025	0,077
-617,576	541,244	-0,010	-0,018
-616,561	-20,542	-0,066	-0,030
-615,546	-127,025	-0,099	-0,011
-614,532	463,023	-0,049	-0,082
-613,517	-28,798	-0,174	-0,074
-612,503	20,644	-0,100	-0,060
-611,488	-200,000	-0,024	0,117
-610,474	202,598	0,034	-0,039
-609,459	-120,586	0,133	-0,017
-608,444	163,140	0,034	-0,036
-607,430	-13,599	0,123	-0,059
-606,415	-146,703	-0,194	-0,012
-605,401	276,811	-0,029	0,038
-604,386	-114,378	0,084	0,012
-603,371	-200,000	-0,027	0,105
-602,357	-37,123	-0,148	-0,058
-601,342	-200,000	-0,007	-0,064
-600,328	451,388	-0,108	-0,178
-599,313	45,498	0,025	0,017
-598,298	109,728	0,053	0,047
-597,284	-200,000	0,000	-0,015
-596,269	273,008	-0,050	-0,066
-595,255	-200,000	0,003	0,052
-594,240	1,463	-0,064	0,034
-593,225	-105,308	-0,037	-0,006
-592,211	666,750	-0,044	-0,085
-591,196	-200,000	-0,005	-0,090
-590,182	-58,051	-0,161	0,052
-589,167	20,137	0,068	-0,040
-588,152	800,000	-0,039	-0,081
-587,138	261,920	-0,017	-0,021
-586,123	-89,401	-0,067	-0,014
-585,109	-200,000	-0,010	-0,076
-584,094	412,350	0,029	0,046
-583,079	-200,000	-0,008	0,153
-582,065	-200,000	-0,009	-0,100
-581,050	-74,548	0,019	0,005
-580,036	-200,000	-0,014	0,062
-579,021	-127,467	0,063	0,007
-578,006	-55,450	-0,050	-0,016
-576,992	800,000	0,027	-0,071
-575,977	142,059	-0,066	-0,065
-574,963	36,341	-0,096	-0,063
-573,948	-158,729	0,076	0,003
-572,934	237,052	0,045	0,055
-571,919	-58,983	-0,036	-0,011
-570,904	-200,000	0,011	-0,147
-569,890	-200,000	-0,001	0,015
-568,875	-53,300	-0,144	0,049
-567,861	-116,886	0,266	0,036
-566,846	800,000	-0,091	0,189
-565,831	-152,835	-0,087	0,004
-564,817	-5,286	-0,096	0,049
-563,802	-48,329	-0,178	-0,063
-562,788	800,000	-0,066	-0,185
-561,773	-27,310	-0,079	-0,034
-560,758	-200,000	-0,014	0,078
-559,744	-127,752	0,051	-0,005
-558,729	-200,000	0,006	-0,202
-557,715	-84,209	-0,139	-0,032
-556,700	-89,486	0,084	-0,018
-555,685	224,802	-0,128	-0,153
-554,671	-22,491	0,069	0,031
-553,656	-200,000	-0,002	-0,079
-552,642	20,528	0,077	-0,046
-551,627	17,105	0,043	-0,025
-550,612	-200,000	0,027	-0,120
-549,598	800,000	0,040	-0,094
-548,583	515,048	-0,061	-0,106
-547,569	784,353	-0,004	-0,007
-546,554	10,049	0,167	0,093
-545,539	800,000	0,039	0,116
-544,525	250,197	-0,019	0,024
-543,510	-55,025	0,065	0,022
-542,496	409,159	-0,023	0,036
-541,481	-124,942	-0,120	0,014
-540,466	-200,000	-0,045	-0,175
-539,452	-39,134	0,145	-0,056
-538,437	451,163	0,021	-0,035
-537,423	800,000	0,027	0,082
-536,408	800,000	-0,023	-0,067
-535,393	59,247	-0,098	0,071
-534,379	-158,187	-0,023	0,001
-533,364	221,428	-0,062	0,074
-532,350	-17,788	-0,125	-0,058
-531,335	443,796	0,079	-0,128
-530,321	-200,000	-0,004	-0,111
-529,306	195,888	-0,074	0,083
-528,291	66,252	-0,061	-0,046
-527,277	482,242	-0,089	-0,150
-526,262	-200,000	0,026	-0,090
-525,248	-200,000	-0,002	0,029
-524,233	-200,000	0,015	0,073
-523,218	363,616	-0,042	0,062
-522,204	472,666	0,059	0,099
-521,189	-109,020	-0,130	0,020
-520,175	-126,382	0,039	-0,004
-519,160	5,825	-0,025	-0,014
-518,145	-108,887	-0,116	0,018
-517,131	-200,000	-0,042	0,198
-516,116	15,022	-0,122	0,071
-515,102	-39,656	0,044	-0,017
-514,087	-200,000	-0,011	-0,041
-513,072	331,484	0,037	0,053
-512,058	-200,000	-0,008	-0,026
-511,043	2,464	0,129	0,069
-510,029	367,555	0,051	-0,077
-509,014	80,612	0,073	-0,058
-507,999	53,117	-0,121	0,086
-506,985	-35,111	-0,113	0,045
-505,970	-37,339	0,098	0,038
-504,956	-85,851	-0,063	-0,014
-503,941	800,000	0,030	-0,086
-502,926	-16,286	0,215	0,100
-501,912	-29,319	0,055	-0,023
-500,897	-74,807	-0,143	0,037
-499,883	-200,000	-0,029	-0,167
-498,868	800,000	-0,062	-0,165
-497,853	-130,036	-0,100	0,010
-496,839	-69,735	-0,127	0,035
-495,824	-200,000	0,012	0,156
-494,810	-115,558	-0,050	0,007
-493,795	-99,363	0,079	0,015
-492,781	-200,000	0,003	-0,124
-491,766	643,660	-0,019	-0,036
-490,751	164,927	0,057	0,059
-489,737	185,231	-0,027	0,029
-488,722	-200,000	0,023	0,077
-487,708	25,585	-0,076	-0,046
-486,693	800,000	0,040	0,122
-485,678	151,642	-0,097	0,097
-484,664	168,668	0,020	-0,021
-483,649	69,733	0,054	0,041
-482,635	-200,000	-0,007	-0,125
-481,620	-200,000	-0,025	0,110
-480,605	-125,306	0,084	-0,009
-479,591	75,057	-0,102	-0,079
-478,576	-88,617	0,078	0,017
-477,562	0,018	-0,068	-0,036
-476,547	627,174	-0,041	-0,077
-475,532	-200,000	0,009	0,059
-474,518	111,960	-0,050	0,044
-473,503	188,155	-0,045	-0,050
-472,489	67,386	0,159	-0,120
-471,474	305,568	-0,065	-0,089
-470,459	-200,000	-0,012	-0,074
-469,445	-77,300	0,014	0,003
-468,430	-41,093	0,145	-0,055
-467,416	63,726	-0,019	-0,014
-466,401	-135,870	-0,016	0,001
-465,386	-87,827	0,037	-0,008
-464,372	800,000	-0,012	0,032
-463,357	10,015	0,104	0,058
-462,343	-91,665	0,028	-0,006
-461,328	800,000	-0,094	-0,195
-460,313	-103,075	0,134	0,023
-459,299	0,972	0,104	-0,055
-458,284	406,519	0,042	-0,066
-457,270	30,736	0,067	-0,042
-456,255	800,000	-0,035	-0,072
-455,241	800,000	0,024	-0,064
-454,226	47,054	0,096	0,066
-453,211	-75,845	-0,038	0,010
-452,197	-114,383	0,095	-0,013
-451,182	136,942	0,095	0,091
-450,168	800,000	-0,070	0,163
-449,153	-200,000	0,016	-0,060
-448,138	-129,696	-0,120	-0,012
-447,124	-116,313	0,163	0,022
-446,109	271,385	0,015	0,020
-445,095	169,305	-0,043	-0,045
-444,080	800,000	0,031	0,067
-443,065	-38,466	0,130	0,050
-442,051	800,000	-0,048	-0,104
-441,036	715,661	-0,049	0,097
-440,022	-200,000	0,015	-0,133
-439,007	-165,156	0,044	-0,001
-437,992	671,617	-0,016	0,030
-436,978	-200,000	-0,021	0,271
-435,963	-200,000	0,041	0,192
-434,949	-93,667	-0,062	0,012
-433,934	66,100	-0,106	-0,079
-432,919	-200,000	0,024	-0,127
-431,905	141,174	-0,042	-0,041
-430,890	76,366	-0,028	-0,022
-429,876	-37,302	0,085	-0,033
-428,861	-200,000	-0,055	0,197
-427,846	336,379	-0,018	-0,026
-426,832	291,010	0,041	-0,055
-425,817	139,367	-0,046	0,045
-424,803	-58,116	0,130	0,042
-423,788	239,150	-0,036	-0,044
-422,773	-74,761	-0,048	-0,013
-421,759	-169,338	0,084	-0,002
-420,744	-75,620	0,029	0,008
-419,730	69,839	-0,082	-0,062
-418,715	-47,366	-0,057	-0,020
-417,701	-125,121	0,062	0,007
-416,686	-53,207	-0,029	0,010
-415,671	154,055	-0,100	0,100
-414,657	570,061	0,043	0,077
-413,642	-104,859	0,156	0,026
-412,628	-80,687	-0,137	-0,033
-411,613	31,496	0,032	0,020
-410,598	256,450	-0,031	-0,039
-409,584	800,000	0,044	-0,127
-408,569	440,044	0,036	-0,059
-407,555	-200,000	-0,024	0,127
-406,540	800,000	-0,060	0,149
-405,525	-200,000	0,012	-0,060
-404,511	-174,427	-0,068	0,001
-403,496	-129,628	-0,064	-0,006
-402,482	635,138	-0,059	0,111
-401,467	-13,799	0,055	-0,026
-400,452	-68,243	0,135	0,038
-399,438	-200,000	0,004	0,087
-398,423	227,132	-0,102	-0,122
-397,409	-147,268	-0,066	0,004
-396,394	-200,000	0,041	0,190
-395,379	61,207	0,057	0,042
-394,365	800,000	-0,020	0,043
-393,350	-200,000	0,017	-0,105
-392,336	-120,239	0,063	0,008
-391,321	800,000	-0,026	0,063
-390,306	800,000	-0,042	0,093
-389,292	139,701	-0,035	0,034
-388,277	800,000	-0,043	0,089
-387,263	333,208	0,028	0,040
-386,248	800,000	0,019	0,042
-385,233	10,876	-0,095	0,053
-384,219	-135,743	0,042	-0,004
-383,204	130,955	0,064	-0,060
-382,190	25,813	0,024	0,014
-381,175	105,719	-0,066	-0,058
-380,160	800,000	0,032	-0,101
-379,146	-200,000	-0,018	0,105
-378,131	188,233	-0,021	0,023
-377,117	214,971	0,077	-0,090
-376,102	-112,298	-0,188	0,027
-375,088	-200,000	0,006	-0,049
-374,073	-150,083	-0,102	-0,006
-373,058	-125,255	0,020	0,002
-372,044	-200,000	0,033	0,156
-371,029	-142,063	0,050	0,004
-370,015	784,212	0,042	0,085
-369,000	86,575	-0,053	0,043
-367,985	155,103	0,044	0,044
-366,971	441,667	0,090	-0,145
-365,956	-63,569	-0,081	-0,024
-364,942	14,654	-0,081	-0,047
-363,927	-113,285	0,094	0,013
-362,912	-200,000	-0,027	0,110
-361,898	-200,000	-0,010	-0,089
-360,883	409,076	0,009	-0,014
-359,869	-46,200	0,049	-0,018
-358,854	-200,000	0,005	0,052
-357,839	-157,844	-0,030	0,001
-356,825	-200,000	-0,020	0,126
-355,810	-200,000	0,004	0,159
-354,796	800,000	-0,016	0,043
-353,781	-104,851	0,022	0,004
-352,766	-200,000	-0,020	-0,116
-351,752	150,447	0,062	0,061
-350,737	-190,048	0,050	-0,000
-349,723	149,069	0,089	0,088
-348,708	144,126	0,093	0,091
-347,693	-200,000	-0,021	0,101
-346,679	-115,012	-0,058	-0,008
-345,664	138,423	-0,073	-0,071
-344,650	46,378	0,057	-0,039
-343,635	-107,533	-0,019	0,003
-342,620	409,492	0,060	0,093
-341,606	64,089	-0,120	0,089
-340,591	-200,000	0,025	0,108
-339,577	-150,276	-0,074	-0,004
-338,562	69,414	0,061	-0,046
-337,548	-200,000	0,013	-0,121
-336,533	92,734	0,075	0,062
-335,518	-7,392	0,142	0,070
-334,504	-80,436	-0,028	0,007
-333,489	-15,149	-0,072	-0,034
-332,475	-89,300	0,047	-0,010
-331,460	-157,810	0,071	0,003
-330,445	800,000	0,029	-0,069
-329,431	-44,392	-0,066	0,024
-328,416	59,903	0,094	-0,068
-327,402	42,686	0,045	0,030
-326,387	503,823	0,036	0,062
-325,372	21,180	0,028	0,017
-324,358	-200,000	-0,000	-0,097
-323,343	394,525	-0,067	-0,102
-322,329	800,000	-0,030	0,079
-321,314	47,452	0,141	-0,096
-320,299	-200,000	0,010	0,063
-319,285	-200,000	-0,008	-0,094
-318,270	-46,908	-0,190	-0,068
-317,256	-200,000	0,039	0,149
-316,241	304,003	0,045	0,061
-315,226	800,000	0,031	-0,087
-314,212	-73,678	0,147	-0,039
-313,197	128,738	-0,066	0,061
-312,183	10,164	0,115	0,064
-311,168	33,710	-0,159	-0,101
-310,153	-100,566	0,140	-0,025
-309,139	800,000	0,009	-0,026
-308,124	-87,892	-0,050	0,011
-307,110	575,686	0,043	0,077
-306,095	-200,000	0,002	-0,197
-305,080	-35,833	-0,013	-0,005
-304,066	5,916	-0,076	0,041
-303,051	-200,000	-0,015	0,097
-302,037	800,000	0,026	-0,055
-301,022	13,604	0,175	0,099
-300,008	-0,426	0,095	-0,049
-298,993	-51,973	0,037	-0,013
-297,978	158,982	-0,027	0,028
-296,964	-32,929	-0,027	0,011
-295,949	-6,585	-0,170	0,084
-294,935	-200,000	-0,007	-0,067
-293,920	24,601	0,047	-0,028
-292,905	519,399	-0,047	-0,082
-291,891	-85,534	0,058	-0,013
-290,876	-16,024	-0,003	-0,002
-289,862	-42,818	-0,183	0,068
-288,847	251,565	-0,050	-0,063
-287,832	125,258	-0,100	0,092
-286,818	-68,262	0,108	-0,030
-285,803	-200,000	-0,016	0,092
-284,789	800,000	0,046	-0,134
-283,774	-200,000	0,006	0,061
-282,759	76,588	0,089	-0,069
-281,745	231,422	0,037	-0,044
-280,730	258,111	0,064	-0,081
-279,716	-200,000	-0,001	0,016
-278,701	67,552	0,025	-0,018
-277,686	347,077	0,056	-0,082
-276,672	800,000	-0,021	-0,056
-275,657	-109,383	0,164	0,025
-274,643	276,729	-0,087	0,113
-273,628	-92,764	-0,132	-0,027
-272,613	222,984	0,077	0,090
-271,599	-70,462	0,037	0,010
-270,584	121,656	0,071	-0,065
-269,570	683,506	0,045	0,087
-268,555	305,527	-0,063	-0,086
-267,540	230,670	0,078	0,093
-266,526	525,832	0,042	0,073
-265,511	800,000	-0,026	0,064
-264,497	800,000	0,062	-0,137
-263,482	-200,000	0,028	-0,091
-262,467	-148,992	0,026	0,002
-261,453	-55,070	-0,028	0,009
-260,438	457,960	0,040	0,065
-259,424	-13,315	0,074	0,035
-258,409	-200,000	0,001	-0,111
-257,395	-200,000	-0,009	-0,089
-256,380	-200,000	0,027	-0,106
-255,365	116,780	0,213	0,191
-254,351	473,603	-0,058	0,096
-253,336	-93,090	-0,125	0,025
-252,322	-2,070	-0,013	0,007
-251,307	730,631	0,041	0,079
-250,292	-96,796	0,153	0,029
-249,278	-200,000	-0,012	0,093
-248,263	-200,000	-0,005	0,063
-247,249	15,639	0,111	0,064
-246,234	-200,000	-0,008	0,043
-245,219	467,819	-0,047	0,076
-244,205	500,500	0,037	-0,063
-243,190	-68,364	0,058	-0,016
-242,176	-46,340	0,139	0,049
-241,161	-180,564	0,108	-0,002
-240,146	-40,711	-0,030	-0,011
-239,132	38,309	0,090	-0,058
-238,117	-200,000	0,000	-0,038
-237,103	193,866	0,024	-0,026
-236,088	381,981	-0,059	0,089
-235,073	-200,000	0,015	0,141
-234,059	-72,301	0,064	0,017
-233,044	-56,759	0,144	0,046
-232,030	80,980	0,009	-0,007
-231,015	223,110	-0,055	0,065
-230,000	-119,380	0,034	-0,004
-228,986	19,093	0,023	0,014
-227,971	448,983	0,076	0,122
-226,957	-179,092	0,070	0,001
-225,942	-97,896	0,120	-0,022
-224,927	575,566	-0,071	-0,127
-223,913	-91,500	-0,120	-0,025
-222,898	-200,000	-0,012	0,047
-221,884	33,449	-0,068	0,043
-220,869	262,734	0,055	0,070
-219,855	-200,000	0,165	-0,000
-218,840	-5,508	-0,005	0,003
-217,825	-200,000	-0,012	0,044
-216,811	210,613	-0,035	-0,040
-215,796	18,355	0,029	0,017
-214,782	26,159	-0,072	-0,044
-213,767	-170,756	0,026	-0,001
-212,752	6,376	-0,024	-0,013
-211,738	-200,000	-0,010	0,072
-210,723	28,472	0,038	-0,024
-209,709	-91,686	-0,029	-0,006
-208,694	-68,991	0,049	0,014
-207,679	81,364	0,087	0,069
-206,665	800,000	0,068	0,142
-205,650	800,000	0,039	0,087
-204,636	800,000	0,054	0,109
-203,621	-200,000	0,008	0,071
-202,606	-38,783	-0,106	0,041
-201,592	-200,000	-0,003	-0,115
-200,577	-138,568	-0,102	-0,008
-199,563	-85,347	0,061	0,014
-198,548	607,329	-0,047	-0,085
-197,533	-53,506	0,040	0,013
-196,519	278,361	-0,052	0,068
-195,504	-5,861	-0,106	0,053
-194,490	67,103	-0,058	-0,043
-193,475	34,651	0,079	-0,050
-192,460	84,065	0,075	-0,060
-191,446	286,773	0,056	0,074
-190,431	-200,000	-0,018	0,114
-189,417	-187,059	-0,111	-0,001
-188,402	-34,918	-0,058	0,023
-187,387	-103,383	0,086	-0,015
-186,373	496,573	0,024	0,041
-185,358	2,326	-0,042	0,022
-184,344	-116,967	0,124	0,016
-183,329	-34,131	0,086	0,034
-182,315	-200,000	-0,020	0,178
-181,300	587,530	-0,034	-0,061
-180,285	435,585	-0,069	-0,110
-179,271	-10,443	-0,092	-0,044
-178,256	82,175	-0,108	-0,085
-177,242	-178,147	0,135	0,002
-176,227	-147,805	0,097	-0,006
-175,212	201,386	-0,067	-0,075
-174,198	1,548	0,093	-0,049
-173,183	676,271	0,048	-0,091
-172,169	-12,636	0,105	0,049
-171,154	625,964	0,024	0,045
-170,139	300,347	0,021	-0,029
-169,125	0,055	-0,083	0,043
-168,110	180,165	-0,016	-0,017
-167,096	505,211	-0,023	-0,039
-166,081	37,170	-0,118	-0,076
-165,066	-29,281	0,043	0,018
-164,052	-200,000	-0,018	0,062
-163,037	-26,121	-0,075	-0,032
-162,023	331,794	0,064	0,090
-161,008	-200,000	-0,029	0,097
-159,993	-200,000	0,033	0,160
-158,979	-154,343	-0,058	-0,003
-157,964	29,981	-0,132	-0,082
-156,950	-200,000	-0,026	0,107
-155,935	401,802	-0,032	0,049
-154,920	16,824	0,023	0,013
-153,906	800,000	-0,063	-0,137
-152,891	800,000	-0,029	-0,064
-151,877	-18,241	-0,272	-0,123
-150,862	34,170	-0,082	0,052
-149,847	206,669	0,102	-0,116
-148,833	800,000	0,047	0,117
-147,818	371,087	-0,043	0,064
-146,804	258,169	-0,024	0,030
-145,789	800,000	-0,048	0,118
-144,775	199,649	0,025	0,028
-143,760	162,105	-0,079	-0,081
-142,745	26,529	-0,166	-0,101
-141,731	417,538	0,032	0,049
-140,716	126,891	0,066	-0,061
-139,702	250,618	-0,060	0,074
-138,687	18,305	-0,096	0,055
-137,672	800,000	0,044	0,140
-136,658	-200,000	0,000	0,007
-135,643	-200,000	-0,017	-0,057
-134,629	-200,000	0,017	-0,104
-133,614	-138,000	0,124	-0,010
-132,599	-200,000	-0,007	0,024
-131,585	-200,000	0,022	0,170
-130,570	800,000	-0,035	0,090
-129,556	60,769	-0,074	-0,054
-128,541	-200,000	-0,013	-0,073
-127,526	-2,587	0,118	-0,060
-126,512	178,466	0,091	-0,097
-125,497	155,679	-0,073	0,073
-124,483	513,200	0,056	0,095
-123,468	-1,031	-0,024	-0,012
-122,453	800,000	-0,048	-0,120
-121,439	66,258	0,074	0,055
-120,424	800,000	-0,025	-0,056
-119,410	-121,983	0,094	0,011
-118,395	-64,546	-0,098	-0,029
-117,380	758,123	0,030	0,060
-116,366	-159,790	0,192	-0,008
-115,351	-200,000	0,027	0,107
-114,337	-200,000	0,022	-0,111
-113,322	800,000	0,040	-0,095
-112,307	-176,182	0,046	-0,001
-111,293	-200,000	-0,003	0,028
-110,278	-85,210	0,060	0,013
-109,264	-63,271	0,033	-0,010
-108,249	210,301	-0,057	0,065
-107,234	246,778	0,064	-0,079
-106,220	-150,733	0,119	0,006
-105,205	800,000	0,056	-0,145
-104,191	-17,834	0,039	0,017
-103,176	-90,926	0,085	0,018
-102,162	493,430	-0,081	0,135
-101,147	-200,000	-0,033	0,149
-100,132	-200,000	-0,002	0,030
-99,118	-200,000	0,014	0,068
-98,103	-96,986	0,041	-0,008
-97,089	800,000	-0,045	0,123
-96,074	-132,544	-0,048	-0,004
-95,059	-200,000	0,013	0,054
-94,045	-94,400	-0,068	-0,013
-93,030	39,441	0,016	-0,010
-92,016	-200,000	-0,008	-0,044
-91,001	800,000	0,035	0,082
-89,986	-40,463	-0,101	0,038
-88,972	12,115	0,127	-0,071
-87,957	460,075	0,040	-0,065
-86,943	-200,000	0,037	0,167
-85,928	274,733	-0,095	-0,123
-84,913	90,953	-0,070	-0,057
-83,899	-200,000	-0,005	-0,183
-82,884	18,700	0,011	-0,006
-81,870	-153,940	0,149	0,007
-80,855	-78,578	0,067	0,016
-79,840	605,044	-0,039	-0,070
-78,826	-77,328	-0,100	0,025
-77,811	64,257	-0,082	-0,060
-76,797	-200,000	0,031	0,174
-75,782	-200,000	0,016	-0,062
-74,767	46,008	0,088	-0,059
-73,753	-94,528	-0,079	0,016
-72,738	30,580	0,038	-0,023
-71,724	-178,163	-0,084	-0,001
-70,709	-33,830	-0,060	0,024
-69,694	-33,775	-0,093	0,037
-68,680	800,000	0,053	0,130
-67,665	-134,505	0,209	-0,018
-66,651	-200,000	-0,006	0,025
-65,636	736,878	-0,038	0,075
-64,622	-57,128	0,092	-0,029
-63,607	-18,220	-0,171	-0,077
-62,592	-85,825	-0,095	-0,021
-61,578	-200,000	0,003	0,020
-60,563	-39,850	0,062	-0,023
-59,549	135,206	-0,097	0,092
-58,534	-115,418	-1,404	-0,190
-57,519	694,683	-0,750	-1,433
-56,505	-200,000	-0,937	-4,437
-55,490	-13,389	0,596	-0,279
-54,476	800,000	4,964	11,810
-53,461	-200,000	13,949	253,251
-52,446	-200,000	693,381	2239,501
-51,432	574,140	1624,077	2884,350
-50,417	117,478	1632,872	1456,306
-49,403	72,346	1286,753	971,137
-48,388	37,474	1023,213	656,579
-47,373	23,911	981,149	585,025
-46,359	23,105	970,934	576,271
-45,344	22,131	966,677	570,540
-44,330	22,110	965,223	569,593
-43,315	21,929	963,747	568,107
-42,300	21,893	962,620	567,306
-41,286	21,937	961,748	566,911
-40,271	21,923	960,648	566,194
-39,257	21,947	959,671	565,674
-38,242	21,941	958,786	565,111
-37,227	21,925	958,035	564,594
-36,213	21,916	957,098	563,989
-35,198	21,872	956,241	563,320
-34,184	21,934	955,640	563,146
-33,169	21,840	954,898	562,381
-32,154	21,957	953,739	562,053
-31,140	21,978	953,093	561,716
-30,125	22,001	951,972	561,109
-29,111	21,952	951,262	560,509
-28,096	21,970	950,668	560,197
-27,082	21,970	950,003	559,781
-26,067	21,999	949,168	559,361
-25,052	21,983	948,294	558,771
-24,038	21,931	947,815	558,302
-23,023	21,887	947,207	557,780
-22,009	21,983	946,413	557,598
-20,994	21,977	945,930	557,271
-19,979	21,988	945,098	556,795
-18,965	22,007	944,616	556,551
-17,950	21,980	943,806	555,964
-16,936	21,885	943,371	555,381
-15,921	21,898	942,550	554,920
-14,906	21,792	941,980	554,225
-13,892	21,827	941,303	553,915
-12,877	21,864	940,683	553,646
-11,863	21,847	939,950	553,140
-10,848	21,854	939,531	552,891
-9,833	21,967	938,891	552,850
-8,819	21,888	938,420	552,304
-7,804	21,833	937,713	551,690
-6,790	21,819	937,261	551,359
-5,775	21,877	936,515	551,082
-4,760	21,845	935,875	550,582
-3,746	21,795	935,440	550,144
-2,731	21,683	934,618	549,285
-1,717	21,599	934,037	548,658
-0,702	21,605	933,249	548,194
0,313	21,400	932,718	548,063
1,327	24,565	930,615	556,719
2,342	34,060	794,621	500,602
3,356	31,883	450,664	280,616
4,371	1,181	293,397	152,102
5,386	-3,363	274,408	137,951
6,400	-4,656	268,979	134,010
7,415	-5,038	266,477	132,401
8,429	-4,749	265,410	132,124
9,444	-4,968	264,549	131,484
10,459	-4,969	263,957	131,177
11,473	-4,867	263,257	130,910
12,488	-4,939	262,677	130,544
13,502	-5,151	262,333	130,170
14,517	-5,028	261,884	130,047
15,531	-4,913	261,483	129,939
16,546	-4,751	261,043	129,855
17,561	-4,947	260,694	129,494
18,575	-4,853	260,506	129,473
19,590	-4,847	260,067	129,248
20,604	-4,862	259,888	129,135
21,619	-4,929	259,548	128,894
22,634	-5,017	259,159	128,611
23,648	-4,999	258,699	128,388
24,663	-4,951	258,604	128,372
25,677	-4,952	258,157	128,138
26,692	-5,000	258,020	128,015
27,707	-5,203	257,922	127,775
28,721	-5,063	257,576	127,716
29,736	-5,157	257,398	127,534
30,750	-5,094	257,053	127,407
31,765	-5,074	256,922	127,349
32,780	-5,084	256,625	127,181
33,794	-4,978	256,436	127,169
34,809	-4,991	256,124	126,992
35,823	-4,982	255,794	126,825
36,838	-5,153	255,630	126,582
37,853	-4,999	255,489	126,636
38,867	-5,171	255,307	126,383
39,882	-5,015	255,029	126,372
40,896	-4,969	254,763	126,269
41,911	-5,067	254,566	126,074
42,926	-5,060	254,338	125,956
43,940	-4,993	253,888	125,781
44,955	-5,374	254,033	125,509
45,969	-5,234	253,690	125,450
46,984	-5,346	253,549	125,271
47,999	-5,603	253,237	124,882
49,013	-5,684	252,970	124,668
50,028	-5,779	252,553	124,370
51,042	-5,688	252,257	124,292
52,057	-5,745	252,130	124,168
53,071	-5,861	251,986	123,986
54,086	-5,707	251,892	124,062
55,101	-5,729	251,718	123,946
56,115	-5,461	251,597	124,107
57,130	-4,962	251,440	124,450
58,144	-4,816	251,341	124,516
59,159	-4,722	250,968	124,401
60,174	-4,948	250,923	124,173
61,188	-4,926	250,683	124,062
62,203	-4,970	250,541	123,943
63,217	-4,958	250,218	123,782
64,232	-4,980	249,957	123,624
65,247	-4,884	249,745	123,590
66,261	-4,899	249,556	123,473
67,276	-5,243	249,363	123,072
68,290	-5,071	249,012	123,034
69,305	-5,258	248,784	122,752
70,320	-5,421	248,706	122,562
71,334	-4,942	248,422	122,820
72,349	-4,869	248,411	122,866
73,363	-4,918	248,158	122,688
74,378	-5,094	248,117	122,507
75,393	-4,848	247,718	122,508
76,407	-4,957	247,489	122,291
77,422	-5,127	247,417	122,101
78,436	-4,885	247,185	122,181
79,451	-4,948	246,906	121,978
80,466	-4,922	246,667	121,872
81,480	-5,191	246,595	121,597
82,495	-5,270	246,262	121,355
83,509	-5,168	246,189	121,395
84,524	-5,200	246,050	121,289
85,539	-5,494	245,609	120,813
86,553	-5,376	245,369	120,784
87,568	-5,318	245,426	120,850
88,582	-5,205	245,060	120,753
89,597	-5,408	245,005	120,545
90,611	-5,133	244,921	120,723
91,626	-5,047	244,737	120,695
92,641	-5,137	244,557	120,519
93,655	-5,104	244,297	120,408
94,670	-5,170	244,046	120,218
95,684	-5,210	243,939	120,122
96,699	-5,209	243,720	120,003
97,714	-5,200	243,522	119,904
98,728	-5,314	243,404	119,740
99,743	-5,222	243,171	119,690
100,757	-5,238	242,904	119,535
101,772	-5,052	242,597	119,528
102,787	-5,465	242,687	119,219
103,801	-5,246	242,440	119,268
104,816	-5,171	242,292	119,248
105,830	-4,977	242,042	119,274
106,845	-5,019	242,001	119,208
107,860	-4,985	241,777	119,116
108,874	-5,028	241,499	118,933
109,889	-5,011	241,290	118,833
110,903	-5,401	241,197	118,455
111,918	-5,210	241,076	118,542
112,933	-5,236	240,917	118,432
113,947	-5,029	240,654	118,463
114,962	-5,177	240,470	118,240
115,976	-5,172	240,393	118,195
116,991	-5,226	240,210	118,050
118,006	-5,114	239,955	118,007
119,020	-5,190	240,034	117,972
120,035	-5,215	239,772	117,813
121,049	-5,045	239,510	117,813
122,064	-5,032	239,353	117,736
123,079	-5,144	239,208	117,562
124,093	-5,385	239,085	117,295
125,108	-5,142	238,734	117,310
126,122	-5,411	238,520	116,975
127,137	-5,369	238,283	116,883
128,151	-5,262	238,131	116,885
129,166	-5,016	237,957	116,989
130,181	-5,320	237,715	116,613
131,195	-5,313	237,586	116,545
132,210	-5,314	237,548	116,515
133,224	-5,027	237,311	116,621
134,239	-5,163	237,210	116,451
135,254	-4,954	237,055	116,533
136,268	-5,311	236,918	116,167
137,283	-5,469	236,536	115,842
138,297	-5,342	236,362	115,849
139,312	-5,475	236,239	115,671
140,327	-5,026	236,169	115,988
141,341	-4,931	236,041	115,991
142,356	-4,847	235,997	116,027
143,370	-4,906	235,814	115,879
144,385	-4,704	235,532	115,892
145,400	-4,610	235,544	115,963
146,414	-4,765	235,486	115,800
147,429	-4,902	235,089	115,484
148,443	-4,860	235,004	115,466
149,458	-4,769	234,718	115,389
150,473	-4,766	234,600	115,322
151,487	-4,753	234,293	115,172
152,502	-4,874	234,325	115,081
153,516	-4,881	234,192	114,999
154,531	-4,899	233,859	114,812
155,546	-4,737	233,763	114,883
156,560	-4,868	233,505	114,641
157,575	-5,274	233,484	114,298
158,589	-5,045	233,307	114,383
159,604	-4,774	233,156	114,514
160,619	-4,751	232,987	114,439
161,633	-4,751	232,702	114,289
162,648	-4,569	232,539	114,343
163,662	-4,789	232,481	114,130
164,677	-4,880	232,339	113,978
165,692	-4,940	232,412	113,956
166,706	-4,768	232,207	113,981
167,721	-4,661	231,914	113,912
168,735	-4,583	231,809	113,912
169,750	-4,782	231,742	113,712
170,764	-4,716	231,481	113,626
171,779	-4,775	231,430	113,544
172,794	-4,814	231,305	113,442
173,808	-4,916	231,032	113,218
174,823	-5,210	230,699	112,814
175,837	-5,177	230,462	112,714
176,852	-5,021	230,387	112,789
177,867	-4,768	230,406	112,987
178,881	-4,971	230,282	112,757
179,896	-4,763	230,165	112,852
180,910	-4,914	230,006	112,646
181,925	-4,653	229,664	112,672
182,940	-4,620	229,525	112,620
183,954	-4,587	229,453	112,600
184,969	-4,614	229,158	112,424
185,983	-4,522	229,143	112,478
186,998	-4,516	228,914	112,360
188,013	-4,638	228,973	112,285
189,027	-4,667	228,649	112,093
190,042	-4,562	228,484	112,084
191,056	-4,569	228,424	112,039
192,071	-4,717	228,233	111,821
193,086	-4,643	228,002	111,754
194,100	-4,579	227,873	111,731
195,115	-4,939	227,549	111,285
196,129	-5,105	227,512	111,128
197,144	-2,545	228,247	113,459
198,159	1,322	229,377	117,012
199,173	3,663	229,920	119,096
200,188	3,980	229,841	119,290
201,202	3,910	229,727	119,166
202,217	4,210	229,574	119,309
203,232	4,437	229,432	119,400
204,246	4,402	229,399	119,345
205,261	4,310	229,287	119,205
206,275	4,533	229,248	119,346
207,290	4,815	228,951	119,399
208,304	4,655	228,934	119,256
209,319	4,636	228,615	119,065
210,334	4,517	228,567	118,938
211,348	4,490	228,201	118,716
212,363	4,034	227,913	118,205
213,377	4,033	227,611	118,037
214,392	4,052	227,499	117,983
215,407	3,891	227,378	117,787
216,421	3,892	227,423	117,800
217,436	3,958	227,118	117,682
218,450	3,672	226,870	117,324
219,465	3,419	226,736	117,051
220,480	3,845	226,670	117,332
221,494	3,386	226,597	116,933
222,509	3,834	226,360	117,143
223,523	3,744	226,115	116,936
224,538	3,752	226,068	116,908
225,553	3,599	226,002	116,747
226,567	3,770	225,854	116,790
227,582	3,965	225,849	116,925
228,596	4,064	225,877	117,004
229,611	3,912	225,290	116,575
230,626	3,546	225,269	116,277
231,640	3,621	225,095	116,232
232,655	3,865	225,041	116,379
233,669	4,241	224,998	116,631
234,684	4,511	224,891	116,769
235,699	4,263	224,627	116,435
236,713	4,110	224,411	116,197
237,728	3,731	224,177	115,780
238,742	3,851	224,104	115,822
239,757	3,571	224,031	115,563
240,772	3,685	223,761	115,499
241,786	3,858	223,461	115,464
242,801	4,264	223,550	115,805
243,815	4,253	223,561	115,792
244,830	4,375	223,224	115,698
245,844	4,141	223,102	115,450
246,859	3,878	222,915	115,146
247,874	4,053	222,797	115,206
248,888	4,064	222,773	115,190
249,903	3,740	222,555	114,826
250,917	3,775	222,437	114,781
251,932	3,965	222,136	114,757
252,947	3,786	222,052	114,570
253,961	3,661	221,884	114,380
254,976	3,856	221,643	114,391
255,990	3,850	221,666	114,388
257,005	3,994	221,547	114,423
258,020	4,017	221,457	114,383
259,034	4,090	221,442	114,420
260,049	4,315	221,114	114,407
261,063	4,112	220,863	114,117
262,078	4,135	220,957	114,172
263,093	4,103	220,830	114,072
264,107	3,880	220,674	113,817
265,122	3,975	220,523	113,799
266,136	4,388	220,396	114,029
267,151	4,181	220,222	113,776
268,166	3,917	220,003	113,458
269,180	3,667	219,727	113,121
270,195	3,862	219,486	113,130
271,209	3,874	219,341	113,054
272,224	3,638	219,410	112,906
273,239	3,925	219,193	112,996
274,253	3,856	219,076	112,874
275,268	3,659	218,843	112,600
276,282	3,546	218,563	112,362
277,297	3,513	218,506	112,299
278,312	3,589	218,341	112,260
279,326	3,464	218,427	112,203
280,341	3,604	218,414	112,288
281,355	3,932	218,111	112,362
282,370	3,694	218,125	112,185
283,384	3,520	217,722	111,841
284,399	3,600	217,563	111,808
285,414	3,493	217,491	111,683
286,428	3,777	217,427	111,847
287,443	3,985	217,280	111,913
288,457	3,980	217,122	111,818
289,472	3,784	217,006	111,606
290,487	3,403	216,692	111,158
291,501	3,240	216,633	110,999
292,516	3,401	216,408	110,991
293,530	3,559	216,267	111,023
294,545	3,286	215,950	110,653
295,560	3,550	216,224	110,975
296,574	3,800	216,055	111,059
297,589	3,712	215,899	110,905
298,603	4,078	215,786	111,101
299,618	4,103	215,655	111,042
300,633	3,992	215,335	110,787
301,647	4,084	215,406	110,880
302,662	4,134	215,299	110,852
303,676	4,067	215,122	110,703
304,691	4,084	215,002	110,643
305,706	4,170	214,801	110,591
306,720	4,179	214,721	110,547
307,735	3,992	214,473	110,275
308,749	3,585	214,278	109,874
309,764	3,905	214,291	110,099
310,779	3,988	214,200	110,102
311,793	4,016	213,984	110,002
312,808	3,744	213,875	109,741
313,822	3,956	213,618	109,751
314,837	3,675	213,626	109,545
315,852	3,730	213,335	109,425
316,866	3,763	213,297	109,419
317,881	4,273	213,070	109,656
318,895	4,012	213,013	109,432
319,910	3,859	212,863	109,236
320,925	3,862	212,655	109,122
321,939	3,359	212,484	108,667
322,954	3,501	212,367	108,698
323,968	3,795	212,312	108,869
324,983	4,052	212,244	109,006
325,997	4,209	212,170	109,070
327,012	4,034	211,868	108,780
328,027	3,768	211,863	108,581
329,041	4,176	211,793	108,823
330,056	4,479	211,677	108,968
331,070	3,853	211,442	108,396
332,085	3,651	211,218	108,129
333,100	4,003	210,980	108,245
334,114	3,867	210,971	108,136
335,129	4,095	210,878	108,238
336,143	3,550	210,671	107,739
337,158	3,647	210,548	107,735
338,173	3,791	210,356	107,729
339,187	3,605	210,214	107,516
340,202	3,308	210,016	107,197
341,216	3,370	209,925	107,184
342,231	3,444	209,929	107,228
343,246	3,793	209,602	107,296
344,260	3,601	209,515	107,107
345,275	3,752	209,503	107,197
346,289	3,949	209,352	107,248
347,304	3,793	209,311	107,108
348,319	3,755	209,080	106,955
349,333	4,125	208,870	107,095
350,348	3,929	208,866	106,946
351,362	4,101	208,660	106,951
352,377	4,066	208,713	106,944
353,392	3,778	208,604	106,679
354,406	3,973	208,491	106,747
355,421	193,508	1346,086	1432,321
356,435	154,378	1484,787	1432,428
