DTS Sentinel unit serial number:	SN410029Multiplexer serial number:	ORYXHardware model number:	OX2-SRSoftware version number:	ORYX F/W v4,00 Oryx Data Collector v3.7.2.0data status	okinstallation	B6 Nyhavnadifferential loss correction	single-endedforward channel	channel 2reverse channel	N/Adate	2023/12/09time	00:20:08forward acquisition time	300,00reverse acquisition time	0,00gamma	499,1914k internal	0,3157k external	0,3157temperature offset calibration	1,0000default loss term (dB/km)	0,3820temperature slope calibration	1,0000multiplexer offset coefficient	1,0000multiplexer slope coefficient	1,0000fibre end	0,00T internal ref (°C)	15,57T ext. ref 1 (°C)	-0,84T ext. ref 2 (°C)	-0,87length (m)	temperature (°C)	Stokes	anti-Stokes-744,400	204,657	0,041	0,047
-743,385	-131,476	-0,324	0,031
-742,371	-124,455	0,194	0,022
-741,356	-88,719	-0,243	0,053
-740,342	-200,000	-0,024	0,103
-739,327	-108,857	-0,346	-0,054
-738,312	-6,701	0,074	0,037
-737,298	-115,521	-0,340	-0,047
-736,283	29,187	0,076	-0,048
-735,269	-29,750	-0,220	-0,092
-734,254	-95,608	0,016	-0,003
-733,239	-43,092	-0,434	-0,161
-732,225	-23,904	0,161	0,071
-731,210	-200,000	-0,037	-0,000
-730,196	-200,000	-0,031	0,107
-729,181	31,020	-0,026	0,016
-728,167	-42,117	-0,115	-0,043
-727,152	800,000	-0,007	0,018
-726,137	297,820	-0,020	-0,028
-725,123	132,954	-0,105	0,100
-724,108	27,281	-0,085	0,053
-723,094	81,042	-0,056	-0,045
-722,079	314,326	-0,053	-0,073
-721,064	67,065	-0,178	-0,133
-720,050	-200,000	0,011	-0,059
-719,035	-121,124	-0,065	0,008
-718,021	275,575	-0,068	-0,089
-717,006	-77,041	-0,046	0,012
-715,991	-200,000	-0,047	-0,165
-714,977	-200,000	-0,030	-0,129
-713,962	800,000	-0,074	0,153
-712,948	-155,462	0,102	-0,005
-711,933	-40,905	-0,091	-0,035
-710,918	-200,000	0,026	0,106
-709,904	309,347	-0,073	-0,101
-708,889	-68,765	0,092	-0,026
-707,875	451,610	-0,089	-0,146
-706,860	-200,000	0,030	0,149
-705,845	800,000	-0,068	0,147
-704,831	216,162	0,059	-0,069
-703,816	178,698	-0,027	0,029
-702,802	15,165	0,020	0,011
-701,787	800,000	-0,070	-0,144
-700,772	256,424	0,048	0,061
-699,758	146,435	0,083	0,082
-698,743	800,000	-0,019	-0,045
-697,729	105,158	0,094	0,082
-696,714	-70,477	-0,032	0,009
-695,699	-113,625	-0,094	0,013
-694,685	-200,000	0,005	-0,055
-693,670	53,749	-0,124	-0,087
-692,656	188,664	0,028	0,031
-691,641	-174,964	0,030	-0,001
-690,627	-200,000	0,028	0,135
-689,612	-73,538	0,119	0,032
-688,597	-200,000	-0,040	-0,171
-687,583	95,228	-0,105	-0,088
-686,568	130,517	-0,154	-0,145
-685,554	-200,000	-0,015	-0,096
-684,539	141,110	0,041	-0,040
-683,524	518,316	0,031	0,054
-682,510	-115,982	-0,067	-0,009
-681,495	800,000	-0,060	-0,131
-680,481	-55,229	-0,083	-0,027
-679,466	211,233	-0,089	-0,103
-678,451	-200,000	-0,075	-0,000
-677,437	-200,000	-0,073	0,000
-676,422	137,397	-0,044	0,042
-675,408	787,245	0,055	-0,112
-674,393	-133,226	-0,143	-0,013
-673,378	-200,000	0,035	-0,116
-672,364	-95,511	-0,155	-0,030
-671,349	800,000	-0,026	-0,084
-670,335	23,396	-0,045	-0,027
-669,320	105,520	0,119	-0,103
-668,305	800,000	-0,053	0,131
-667,291	11,434	-0,056	-0,031
-666,276	662,552	-0,056	-0,107
-665,262	-143,248	-0,175	-0,012
-664,247	82,315	-0,047	-0,037
-663,232	-200,000	0,025	-0,120
-662,218	648,807	0,063	0,120
-661,203	1,492	0,161	0,085
-660,189	331,594	-0,025	-0,035
-659,174	305,364	0,050	-0,069
-658,159	207,686	-0,095	-0,109
-657,145	42,374	-0,031	-0,021
-656,130	-11,180	0,090	-0,044
-655,116	-200,000	-0,013	0,133
-654,101	152,222	0,119	0,119
-653,086	167,139	-0,040	-0,042
-652,072	310,895	-0,067	-0,093
-651,057	250,019	-0,062	-0,078
-650,043	432,994	0,046	-0,074
-649,028	-60,249	-0,094	0,029
-648,014	800,000	0,026	0,068
-646,999	-28,253	0,040	0,017
-645,984	334,702	-0,092	0,132
-644,970	195,762	0,037	-0,042
-643,955	800,000	0,020	-0,042
-642,941	240,097	0,020	-0,025
-641,926	-200,000	0,005	-0,034
-640,911	-38,943	-0,019	0,007
-639,897	342,845	-0,057	0,082
-638,882	233,036	0,032	-0,039
-637,868	-200,000	0,026	-0,126
-636,853	9,328	-0,041	0,023
-635,838	800,000	0,050	-0,143
-634,824	-30,485	0,066	-0,027
-633,809	270,742	0,029	0,037
-632,795	-46,475	0,114	-0,041
-631,780	748,061	-0,037	0,074
-630,765	97,944	-0,065	-0,055
-629,751	-149,088	-0,134	-0,008
-628,736	-200,000	0,002	-0,101
-627,722	426,414	0,039	0,062
-626,707	-200,000	0,015	-0,065
-625,692	35,973	0,191	0,123
-624,678	800,000	-0,003	0,008
-623,663	770,576	-0,026	-0,053
-622,649	-200,000	-0,008	-0,056
-621,634	134,044	-0,134	-0,128
-620,619	800,000	-0,037	-0,100
-619,605	116,239	0,024	-0,021
-618,590	-33,489	0,097	0,039
-617,576	800,000	0,023	0,053
-616,561	-32,716	0,152	0,062
-615,546	-200,000	0,006	0,102
-614,532	-145,281	0,041	-0,003
-613,517	800,000	0,086	-0,204
-612,503	-200,000	0,007	-0,146
-611,488	464,758	0,057	-0,093
-610,474	-32,396	-0,059	0,024
-609,459	28,446	-0,117	-0,073
-608,444	-33,827	-0,113	0,045
-607,430	-34,263	-0,079	0,032
-606,415	40,628	-0,083	0,055
-605,401	205,455	0,048	-0,055
-604,386	-200,000	0,023	-0,096
-603,371	110,343	0,089	0,078
-602,357	283,351	-0,024	0,031
-601,342	-200,000	-0,006	-0,096
-600,328	-148,760	-0,175	-0,010
-599,313	-145,993	-0,103	0,007
-598,298	-200,000	-0,019	-0,082
-597,284	189,141	0,064	-0,070
-596,269	-200,000	0,002	-0,069
-595,255	28,449	0,043	-0,027
-594,240	-200,000	0,054	-0,178
-593,225	-113,966	-0,124	0,017
-592,211	-165,890	-0,111	-0,003
-591,196	25,434	-0,091	-0,055
-590,182	132,297	0,110	0,104
-589,167	154,958	-0,052	-0,053
-588,152	-200,000	-0,026	-0,093
-587,138	113,442	0,041	0,037
-586,123	62,882	0,082	0,060
-585,109	-53,440	-0,146	-0,049
-584,094	38,089	0,089	0,058
-583,079	-147,823	0,113	0,007
-582,065	800,000	-0,029	0,076
-581,050	-143,631	-0,129	0,009
-580,036	530,561	-0,087	-0,151
-579,021	28,987	-0,172	-0,107
-578,006	199,108	-0,057	0,064
-576,992	800,000	0,017	0,054
-575,977	-200,000	-0,013	0,053
-574,963	-114,698	-0,102	0,014
-573,948	306,970	0,013	0,018
-572,934	800,000	0,006	0,016
-571,919	566,774	-0,048	-0,085
-570,904	-200,000	-0,025	-0,119
-569,890	110,867	-0,064	-0,057
-568,875	-110,254	0,121	0,018
-567,861	-200,000	-0,046	0,151
-566,846	492,624	-0,102	0,172
-565,831	119,416	-0,029	-0,026
-564,817	-60,146	-0,085	0,026
-563,802	-43,006	-0,127	0,047
-562,788	-77,659	0,029	0,007
-561,773	800,000	-0,036	-0,093
-560,758	142,086	0,084	-0,081
-559,744	-112,279	0,033	-0,005
-558,729	-83,238	-0,052	0,012
-557,715	-200,000	0,006	0,033
-556,700	536,140	0,042	0,073
-555,685	800,000	-0,026	0,073
-554,671	147,669	-0,133	0,132
-553,656	424,992	-0,042	0,067
-552,642	404,214	0,081	0,125
-551,627	-200,000	-0,024	0,124
-550,612	94,397	0,029	-0,024
-549,598	-200,000	-0,009	-0,121
-548,583	83,784	-0,027	-0,021
-547,569	172,537	-0,044	-0,047
-546,554	-18,366	0,058	-0,026
-545,539	-65,407	-0,073	-0,021
-544,525	-200,000	-0,022	0,110
-543,510	-200,000	0,013	0,130
-542,496	120,946	-0,071	0,065
-541,481	-200,000	-0,001	0,029
-540,466	301,185	-0,044	0,060
-539,452	-200,000	0,000	0,033
-538,437	335,313	-0,026	-0,037
-537,423	-200,000	-0,033	-0,170
-536,408	-104,061	0,066	-0,011
-535,393	-200,000	-0,006	-0,044
-534,379	-200,000	-0,017	-0,116
-533,364	-83,831	0,120	0,028
-532,350	67,408	-0,075	0,056
-531,335	-200,000	0,006	0,217
-530,321	-200,000	-0,007	-0,046
-529,306	-47,946	0,039	-0,014
-528,291	193,108	-0,030	-0,034
-527,277	800,000	-0,018	-0,047
-526,262	250,981	0,028	0,035
-525,248	247,280	-0,079	0,097
-524,233	463,139	0,060	0,099
-523,218	-200,000	0,016	0,054
-522,204	202,050	-0,056	-0,063
-521,189	-200,000	0,001	0,060
-520,175	-200,000	0,009	-0,114
-519,160	-200,000	0,043	-0,164
-518,145	-200,000	0,021	-0,158
-517,131	227,117	-0,084	0,100
-516,116	345,483	0,043	0,061
-515,102	-200,000	0,010	0,138
-514,087	188,692	0,067	0,073
-513,072	67,728	-0,086	-0,064
-512,058	-200,000	0,002	-0,068
-511,043	629,609	0,034	0,063
-510,029	-89,189	0,215	0,046
-509,014	201,166	-0,068	0,076
-507,999	-155,372	-0,114	-0,005
-506,985	358,633	-0,034	-0,050
-505,970	88,697	0,071	-0,057
-504,956	202,225	0,041	-0,046
-503,941	-175,366	0,188	-0,004
-502,926	-119,878	0,052	0,006
-501,912	-200,000	-0,017	0,074
-500,897	-24,751	0,034	0,015
-499,883	-200,000	0,020	0,126
-498,868	270,246	0,080	-0,103
-497,853	800,000	0,031	0,065
-496,839	-23,750	-0,057	-0,025
-495,824	-150,965	0,109	0,006
-494,810	-122,484	0,062	0,007
-493,795	-200,000	-0,017	0,136
-492,781	70,436	0,125	0,095
-491,766	800,000	-0,036	-0,108
-490,751	-142,820	0,203	0,014
-489,737	329,621	-0,036	0,051
-488,722	81,350	0,107	0,085
-487,708	-200,000	-0,000	0,098
-486,693	91,924	0,024	0,020
-485,678	-118,159	-0,141	-0,018
-484,664	31,006	-0,037	-0,023
-483,649	-200,000	-0,026	-0,088
-482,635	-36,334	-0,091	-0,035
-481,620	-50,911	0,090	-0,031
-480,605	269,531	0,043	-0,055
-479,591	618,385	0,042	0,078
-478,576	335,953	-0,011	0,016
-477,562	184,635	-0,111	-0,120
-476,547	98,749	0,069	0,058
-475,532	368,949	-0,045	0,067
-474,518	-200,000	0,010	-0,049
-473,503	-110,279	-0,129	0,019
-472,489	381,579	-0,005	-0,008
-471,474	-200,000	-0,002	-0,071
-470,459	-200,000	0,022	0,142
-469,445	-106,076	-0,043	0,007
-468,430	120,805	-0,038	-0,035
-467,416	7,243	-0,024	-0,013
-466,401	-34,532	0,141	0,056
-465,386	-157,694	0,056	-0,002
-464,372	-179,837	-0,016	0,000
-463,357	-200,000	-0,004	-0,118
-462,343	18,041	-0,092	-0,054
-461,328	-200,000	0,002	-0,076
-460,313	-110,096	0,031	-0,005
-459,299	-200,000	0,014	0,051
-458,284	-200,000	-0,004	0,022
-457,270	79,324	0,154	-0,120
-456,255	6,678	-0,131	0,071
-455,241	186,942	0,029	-0,032
-454,226	-200,000	0,010	-0,055
-453,211	417,690	0,050	-0,078
-452,197	-200,000	0,005	-0,059
-451,182	24,743	-0,075	0,045
-450,168	-2,385	-0,036	0,019
-449,153	-200,000	0,019	0,134
-448,138	58,619	-0,076	-0,054
-447,124	88,044	0,065	0,053
-446,109	-200,000	-0,013	0,162
-445,095	675,641	-0,053	0,100
-444,080	286,122	0,068	0,090
-443,065	41,609	0,113	0,074
-442,051	-66,546	0,111	0,032
-441,036	286,999	-0,020	-0,027
-440,022	-200,000	0,001	0,033
-439,007	800,000	-0,021	-0,067
-437,992	800,000	0,019	0,040
-436,978	-200,000	0,015	0,303
-435,963	38,103	0,122	0,079
-434,949	-200,000	0,008	-0,100
-433,934	-200,000	-0,002	-0,018
-432,919	-93,674	-0,101	0,020
-431,905	382,543	0,077	-0,115
-430,890	97,675	0,116	-0,097
-429,876	113,485	0,070	0,062
-428,861	245,747	-0,059	-0,072
-427,846	-131,939	-0,073	0,007
-426,832	6,929	-0,108	-0,058
-425,817	-21,982	0,025	0,011
-424,803	-66,585	-0,008	-0,002
-423,788	53,068	0,028	-0,019
-422,773	245,835	-0,041	0,050
-421,759	-200,000	0,014	-0,199
-420,744	-200,000	-0,009	-0,188
-419,730	240,278	0,031	-0,038
-418,715	-154,578	0,160	0,008
-417,701	-200,000	-0,008	-0,136
-416,686	195,808	0,038	0,042
-415,671	48,257	-0,137	0,093
-414,657	-200,000	-0,008	0,037
-413,642	-72,737	-0,045	-0,012
-412,628	34,923	-0,068	0,043
-411,613	65,476	-0,061	0,045
-410,598	389,911	0,116	0,175
-409,584	-200,000	0,015	0,175
-408,569	-102,728	0,126	0,022
-407,555	27,963	0,061	0,037
-406,540	800,000	-0,030	0,074
-405,525	275,511	0,060	-0,077
-404,511	-200,000	0,006	0,128
-403,496	-77,127	-0,160	-0,040
-402,482	-24,892	0,129	0,055
-401,467	-200,000	0,008	-0,084
-400,452	246,710	0,063	-0,077
-399,438	-157,404	0,054	0,002
-398,423	-200,000	0,010	-0,119
-397,409	175,441	-0,092	-0,097
-396,394	400,288	-0,016	0,024
-395,379	532,838	-0,022	0,038
-394,365	16,097	-0,067	-0,038
-393,350	20,931	0,041	0,024
-392,336	440,583	0,026	-0,042
-391,321	-102,394	-0,050	0,009
-390,306	800,000	0,081	-0,240
-389,292	800,000	-0,055	-0,133
-388,277	-200,000	-0,007	-0,095
-387,263	-133,733	0,014	0,001
-386,248	-200,000	-0,009	0,111
-385,233	-145,299	0,120	-0,008
-384,219	-81,947	-0,076	-0,018
-383,204	761,311	-0,031	0,062
-382,190	198,782	0,009	0,010
-381,175	-63,606	0,072	0,021
-380,160	-200,000	-0,027	-0,169
-379,146	800,000	0,027	-0,059
-378,131	-140,740	0,099	0,007
-377,117	314,262	0,094	0,129
-376,102	18,170	-0,061	-0,035
-375,088	65,323	-0,075	-0,055
-374,073	274,368	-0,016	0,020
-373,058	14,432	-0,075	0,042
-372,044	-200,000	0,012	0,057
-371,029	-200,000	-0,006	0,182
-370,015	800,000	-0,008	0,020
-369,000	-200,000	-0,003	-0,166
-367,985	399,316	-0,040	0,060
-366,971	-200,000	-0,003	0,139
-365,956	495,183	-0,029	0,048
-364,942	40,011	-0,124	0,081
-363,927	735,068	0,025	0,048
-362,912	454,610	0,031	-0,049
-361,898	-63,764	-0,163	-0,048
-360,883	74,471	-0,043	-0,033
-359,869	470,021	0,028	0,045
-358,854	-200,000	0,005	-0,036
-357,839	800,000	0,037	0,109
-356,825	-200,000	-0,003	0,052
-355,810	504,541	-0,072	-0,121
-354,796	-53,663	-0,004	0,001
-353,781	800,000	-0,044	-0,128
-352,766	181,460	-0,067	0,071
-351,752	-161,556	0,079	0,003
-350,737	-200,000	-0,007	0,100
-349,723	800,000	-0,030	0,088
-348,708	123,169	-0,062	-0,056
-347,693	-23,078	-0,061	-0,027
-346,679	-71,082	-0,140	-0,038
-345,664	303,077	-0,056	0,076
-344,650	800,000	0,013	0,036
-343,635	252,978	0,051	0,063
-342,620	95,556	0,146	0,121
-341,606	-33,197	0,089	-0,036
-340,591	-128,993	-0,118	0,012
-339,577	800,000	-0,029	-0,075
-338,562	185,959	-0,030	-0,032
-337,548	46,645	-0,029	0,019
-336,533	-118,724	0,065	0,008
-335,518	592,716	0,049	0,089
-334,504	485,247	-0,071	0,118
-333,489	-200,000	0,003	-0,039
-332,475	160,089	0,018	-0,018
-331,460	800,000	-0,044	-0,128
-330,445	-182,118	0,208	-0,003
-329,431	551,014	-0,031	0,054
-328,416	59,215	0,037	0,026
-327,402	-174,475	-0,090	0,002
-326,387	179,184	-0,104	0,110
-325,372	-200,000	-0,042	0,156
-324,358	-200,000	-0,024	-0,138
-323,343	-193,136	-0,036	-0,000
-322,329	151,525	-0,054	-0,054
-321,314	408,024	0,117	0,180
-320,299	349,860	0,038	-0,054
-319,285	800,000	-0,042	0,113
-318,270	588,210	0,055	-0,098
-317,256	-200,000	-0,002	-0,052
-316,241	225,716	0,067	-0,079
-315,226	-200,000	-0,005	0,081
-314,212	800,000	-0,072	0,176
-313,197	400,006	0,089	0,136
-312,183	800,000	-0,003	-0,008
-311,168	31,740	-0,078	-0,049
-310,153	76,273	0,069	-0,053
-309,139	800,000	0,004	0,009
-308,124	-61,955	0,106	0,032
-307,110	25,922	-0,017	-0,010
-306,095	800,000	-0,039	-0,111
-305,080	150,996	0,097	0,096
-304,066	99,736	-0,041	0,034
-303,051	-200,000	0,023	-0,084
-302,037	-200,000	0,027	-0,200
-301,022	80,776	0,053	-0,042
-300,008	-200,000	0,027	0,089
-298,993	-164,522	-0,057	0,002
-297,978	6,078	-0,075	0,040
-296,964	754,112	0,041	-0,081
-295,949	-123,806	0,117	-0,013
-294,935	-67,363	-0,138	0,039
-293,920	-200,000	-0,036	-0,132
-292,905	-200,000	-0,011	0,093
-291,891	-200,000	-0,015	0,081
-290,876	394,430	0,052	-0,079
-289,862	11,895	-0,088	0,049
-288,847	90,126	-0,057	0,046
-287,832	255,379	-0,031	-0,039
-286,818	-124,598	0,097	-0,011
-285,803	800,000	-0,008	-0,019
-284,789	-87,477	0,027	0,006
-283,774	-40,943	0,104	0,039
-282,759	473,104	0,020	-0,033
-281,745	350,980	-0,034	0,049
-280,730	-200,000	0,004	-0,045
-279,716	800,000	0,060	-0,136
-278,701	771,271	0,025	-0,050
-277,686	-31,789	-0,031	0,012
-276,672	157,496	0,035	-0,035
-275,657	-200,000	-0,000	-0,075
-274,643	234,878	0,026	-0,032
-273,628	800,000	0,041	-0,122
-272,613	198,171	0,064	-0,071
-271,599	800,000	-0,023	-0,059
-270,584	800,000	0,007	0,019
-269,570	244,059	0,119	0,145
-268,555	-124,397	0,114	-0,013
-267,540	800,000	0,048	-0,124
-266,526	-151,181	-0,035	-0,002
-265,511	94,903	-0,039	-0,032
-264,497	-84,063	0,147	-0,034
-263,482	800,000	-0,031	0,087
-262,467	800,000	0,048	0,114
-261,453	-142,688	-0,191	0,013
-260,438	0,794	0,058	0,030
-259,424	800,000	0,029	-0,069
-258,409	800,000	0,048	-0,148
-257,395	38,612	-0,089	-0,058
-256,380	320,627	0,021	-0,029
-255,365	37,377	-0,137	0,087
-254,351	-124,279	-0,068	0,008
-253,336	-90,880	-0,084	0,017
-252,322	1,816	-0,147	-0,076
-251,307	-200,000	0,001	-0,037
-250,292	-17,483	0,000	0,000
-249,278	-14,206	-0,064	-0,030
-248,263	128,350	-0,045	-0,041
-247,249	-25,065	-0,046	0,019
-246,234	-200,000	0,016	-0,080
-245,219	800,000	0,026	0,055
-244,205	800,000	-0,047	-0,104
-243,190	-14,920	-0,080	-0,037
-242,176	800,000	-0,032	0,067
-241,161	-107,092	0,045	-0,007
-240,146	800,000	0,067	0,148
-239,132	-57,577	-0,040	0,013
-238,117	-84,514	-0,123	0,028
-237,103	-54,299	0,039	-0,013
-236,088	258,237	0,082	-0,102
-235,073	84,142	0,037	0,029
-234,059	-9,259	0,101	-0,049
-233,044	-35,492	-0,103	-0,040
-232,030	27,571	-0,072	0,044
-231,015	-130,554	0,095	0,009
-230,000	-200,000	0,027	-0,092
-228,986	-200,000	-0,006	-0,018
-227,971	-75,441	-0,119	-0,030
-226,957	-166,655	0,060	0,002
-225,942	71,862	-0,047	-0,035
-224,927	-45,574	0,200	0,071
-223,913	-64,850	-0,057	0,017
-222,898	-163,190	0,170	-0,006
-221,884	-200,000	-0,009	0,034
-220,869	-200,000	0,008	0,102
-219,855	-97,834	0,074	0,014
-218,840	-200,000	-0,006	0,032
-217,825	800,000	-0,007	-0,019
-216,811	228,092	-0,034	-0,039
-215,796	98,724	0,107	0,089
-214,782	547,349	-0,017	0,030
-213,767	-92,761	0,016	-0,003
-212,752	126,578	-0,067	0,061
-211,738	800,000	-0,014	0,040
-210,723	-143,296	0,192	-0,013
-209,709	-15,734	0,117	-0,054
-208,694	67,695	-0,085	-0,063
-207,679	651,264	0,027	-0,051
-206,665	-99,083	0,010	0,002
-205,650	14,225	0,063	0,036
-204,636	-92,866	-0,078	-0,016
-203,621	-200,000	0,006	-0,081
-202,606	-95,127	0,078	0,015
-201,592	17,903	-0,145	0,083
-200,577	-114,691	0,093	-0,013
-199,563	-15,873	0,103	-0,047
-198,548	93,886	-0,114	0,093
-197,533	-42,804	-0,018	0,007
-196,519	41,254	-0,080	0,052
-195,504	-114,643	-0,011	-0,002
-194,490	195,855	-0,068	-0,074
-193,475	434,680	-0,033	-0,052
-192,460	800,000	-0,011	-0,029
-191,446	285,769	0,025	0,033
-190,431	800,000	0,041	0,085
-189,417	-200,000	0,006	0,127
-188,402	154,822	-0,081	-0,081
-187,387	14,389	0,027	-0,015
-186,373	-200,000	0,015	0,069
-185,358	360,120	-0,046	0,067
-184,344	440,555	-0,032	0,050
-183,329	-200,000	-0,003	0,113
-182,315	-200,000	0,018	-0,136
-181,300	158,623	-0,139	-0,140
-180,285	245,333	0,082	-0,100
-179,271	-63,042	-0,116	-0,034
-178,256	800,000	-0,014	-0,032
-177,242	-198,349	0,079	0,000
-176,227	57,880	0,050	-0,036
-175,212	38,594	-0,038	-0,024
-174,198	-72,376	0,115	0,030
-173,183	-53,598	-0,141	-0,046
-172,169	800,000	0,067	-0,141
-171,154	800,000	0,027	-0,077
-170,139	-200,000	-0,004	0,114
-169,125	112,525	0,045	0,039
-168,110	800,000	-0,013	0,026
-167,096	530,520	-0,029	-0,050
-166,081	385,570	0,036	0,054
-165,066	-200,000	-0,025	-0,081
-164,052	18,724	0,153	-0,088
-163,037	44,600	0,063	-0,041
-162,023	800,000	-0,049	0,116
-161,008	-2,005	0,052	0,026
-159,993	800,000	0,039	-0,092
-158,979	170,727	0,029	0,029
-157,964	-175,798	-0,082	0,002
-156,950	-200,000	0,041	0,220
-155,935	-59,717	-0,175	0,054
-154,920	-23,724	-0,080	0,034
-153,906	-126,707	0,204	0,022
-152,891	-0,286	0,051	-0,026
-151,877	-200,000	0,009	-0,063
-150,862	-134,640	0,122	0,011
-149,847	-200,000	0,030	-0,130
-148,833	-47,583	0,055	-0,019
-147,818	621,546	0,087	0,158
-146,804	-200,000	0,025	0,084
-145,789	-4,610	-0,084	0,042
-144,775	-200,000	-0,010	-0,046
-143,760	3,180	-0,042	0,022
-142,745	209,417	-0,030	-0,034
-141,731	-200,000	-0,019	0,094
-140,716	-200,000	-0,001	-0,012
-139,702	461,769	-0,044	0,070
-138,687	800,000	0,025	-0,058
-137,672	261,139	-0,051	0,063
-136,658	10,075	-0,046	-0,025
-135,643	800,000	-0,069	-0,169
-134,629	800,000	0,055	0,124
-133,614	-200,000	-0,008	0,034
-132,599	-200,000	0,012	0,118
-131,585	-200,000	0,007	0,027
-130,570	60,583	0,085	-0,061
-129,556	-200,000	-0,017	-0,113
-128,541	4,318	0,075	-0,040
-127,526	-200,000	-0,008	-0,035
-126,512	-97,323	-0,008	0,002
-125,497	-200,000	0,008	-0,131
-124,483	40,373	0,079	-0,051
-123,468	217,882	0,079	0,091
-122,453	13,863	0,123	-0,069
-121,439	-130,858	-0,065	0,006
-120,424	-89,747	0,054	-0,011
-119,410	-85,457	0,242	0,054
-118,395	-77,614	0,096	0,024
-117,380	195,921	0,081	-0,089
-116,366	-200,000	0,035	-0,183
-115,351	33,005	-0,039	0,024
-114,337	778,359	-0,023	0,045
-113,322	800,000	0,038	-0,079
-112,307	-13,653	0,025	-0,012
-111,293	-133,417	0,083	-0,007
-110,278	-200,000	-0,054	0,202
-109,264	-154,826	-0,049	0,002
-108,249	-200,000	0,020	0,168
-107,234	248,925	0,118	-0,144
-106,220	13,336	0,071	0,040
-105,205	8,251	0,026	-0,014
-104,191	448,117	0,051	0,081
-103,176	-76,248	-0,098	0,025
-102,162	-172,623	-0,025	-0,001
-101,147	-0,168	0,111	-0,057
-100,132	-200,000	0,047	-0,157
-99,118	-154,746	-0,171	0,008
-98,103	800,000	0,040	0,102
-97,089	-200,000	-0,011	-0,093
-96,074	800,000	0,028	-0,063
-95,059	271,127	-0,050	-0,064
-94,045	129,563	-0,009	-0,008
-93,030	195,546	0,040	-0,044
-92,016	-200,000	-0,010	-0,146
-91,001	-62,045	-0,040	-0,012
-89,986	-39,583	-0,035	0,013
-88,972	-200,000	0,016	0,074
-87,957	332,935	0,101	-0,141
-86,943	-75,476	-0,050	-0,013
-85,928	-40,726	-0,082	-0,030
-84,913	800,000	0,047	-0,099
-83,899	415,827	-0,038	-0,058
-82,884	-27,504	0,036	0,015
-81,870	800,000	0,042	0,095
-80,855	-200,000	0,011	0,110
-79,840	47,507	-0,038	-0,025
-78,826	669,566	0,039	0,072
-77,811	-12,711	0,075	0,035
-76,797	-200,000	0,036	-0,168
-75,782	-35,789	0,091	0,035
-74,767	-200,000	-0,026	0,086
-73,753	132,535	-0,181	0,168
-72,738	800,000	0,013	0,026
-71,724	800,000	0,074	-0,157
-70,709	641,660	-0,057	0,106
-69,694	44,473	0,083	0,055
-68,680	258,803	-0,050	-0,062
-67,665	93,685	-0,033	-0,027
-66,651	496,709	-0,062	0,102
-65,636	800,000	0,016	0,033
-64,622	42,568	0,066	0,043
-63,607	-200,000	-0,019	-0,078
-62,592	-75,935	0,139	0,035
-61,578	-200,000	0,013	-0,126
-60,563	-200,000	-0,018	0,161
-59,549	-111,840	0,199	-0,029
-58,534	19,841	-1,936	-1,117
-57,519	-200,000	-0,097	-0,860
-56,505	-200,000	-1,296	-5,113
-55,490	24,701	0,850	0,504
-54,476	800,000	5,464	12,154
-53,461	-200,000	17,543	289,060
-52,446	800,000	723,793	2233,440
-51,432	541,048	1636,583	2809,417
-50,417	111,028	1628,020	1406,949
-49,403	74,518	1283,729	967,865
-48,388	32,272	1027,197	634,931
-47,373	20,014	989,486	571,194
-46,359	18,449	977,683	559,224
-45,344	15,958	973,659	548,748
-44,330	16,104	972,141	548,347
-43,315	15,670	970,240	545,837
-42,300	15,586	969,495	545,122
-41,286	15,563	968,136	544,261
-40,271	15,566	967,434	543,855
-39,257	15,604	966,470	543,415
-38,242	15,612	965,676	542,972
-37,227	15,594	964,899	542,454
-36,213	15,597	963,968	541,918
-35,198	15,607	962,974	541,373
-34,184	15,638	962,146	540,985
-33,169	15,553	961,308	540,219
-32,154	15,627	960,297	539,866
-31,140	15,603	959,483	539,311
-30,125	15,641	958,839	539,048
-29,111	15,591	957,986	538,388
-28,096	15,653	957,282	538,170
-27,082	15,600	956,687	537,644
-26,067	15,615	955,906	537,233
-25,052	15,570	955,202	536,671
-24,038	15,627	954,254	536,300
-23,023	15,576	953,690	535,796
-22,009	15,593	953,030	535,460
-20,994	15,575	952,533	535,101
-19,979	15,614	951,994	534,901
-18,965	15,592	951,385	534,468
-17,950	15,625	950,663	534,148
-16,936	15,585	949,920	533,580
-15,921	15,533	949,595	533,211
-14,906	15,497	948,631	532,535
-13,892	15,540	947,928	532,256
-12,877	15,473	947,443	531,749
-11,863	15,467	946,877	531,389
-10,848	15,509	946,119	531,076
-9,833	15,558	945,816	531,043
-8,819	15,552	945,162	530,634
-7,804	15,488	944,501	530,041
-6,790	15,471	943,795	529,568
-5,775	15,504	943,142	529,285
-4,760	15,568	942,535	529,128
-3,746	15,459	942,181	528,561
-2,731	15,362	941,481	527,842
-1,717	15,308	940,768	527,251
-0,702	15,379	940,013	527,029
0,313	15,132	939,577	526,802
1,327	18,592	937,370	536,421
2,342	28,054	791,077	477,660
3,356	24,715	445,198	263,842
4,371	-5,087	295,561	145,373
5,386	-9,106	276,982	132,416
6,400	-10,319	271,404	128,610
7,415	-10,707	269,066	127,133
8,429	-10,648	267,683	126,523
9,444	-10,710	266,753	126,015
10,459	-10,656	266,050	125,721
11,473	-10,633	265,474	125,458
12,488	-10,805	265,113	125,120
13,502	-11,092	264,389	124,508
14,517	-10,860	263,943	124,496
15,531	-10,780	263,524	124,361
16,546	-10,736	263,201	124,236
17,561	-10,914	262,807	123,879
18,575	-10,793	262,654	123,905
19,590	-10,950	262,177	123,528
20,604	-10,749	261,910	123,571
21,619	-10,898	261,600	123,280
22,634	-10,759	261,173	123,193
23,648	-10,898	260,975	122,964
24,663	-10,914	260,667	122,794
25,677	-10,957	260,595	122,711
26,692	-10,917	260,073	122,489
27,707	-10,862	259,818	122,407
28,721	-10,973	259,575	122,184
29,736	-11,042	259,415	122,036
30,750	-10,946	259,025	121,927
31,765	-11,077	259,008	121,792
32,780	-10,988	258,613	121,673
33,794	-10,946	258,375	121,588
34,809	-10,988	258,202	121,459
35,823	-10,954	257,883	121,327
36,838	-11,087	257,610	121,071
37,853	-11,032	257,523	121,068
38,867	-11,157	257,151	120,773
39,882	-11,028	256,882	120,749
40,896	-11,053	256,687	120,625
41,911	-10,937	256,455	120,607
42,926	-11,015	256,098	120,359
43,940	-11,175	255,995	120,161
44,955	-11,172	255,685	120,007
45,969	-11,278	255,459	119,798
46,984	-11,451	255,320	119,570
47,999	-11,615	255,103	119,316
49,013	-11,685	254,679	119,046
50,028	-11,965	254,426	118,675
51,042	-11,874	254,136	118,607
52,057	-12,224	253,941	118,202
53,071	-11,944	253,693	118,319
54,086	-11,915	253,781	118,374
55,101	-11,722	253,485	118,393
56,115	-11,499	253,276	118,477
57,130	-11,050	253,216	118,826
58,144	-10,793	253,075	118,971
59,159	-10,915	252,979	118,810
60,174	-10,802	252,649	118,742
61,188	-10,802	252,359	118,595
62,203	-10,921	252,125	118,372
63,217	-10,912	251,983	118,303
64,232	-11,046	251,806	118,094
65,247	-10,771	251,456	118,155
66,261	-10,907	251,268	117,939
67,276	-11,331	251,040	117,459
68,290	-11,536	250,689	117,110
69,305	-11,606	250,572	116,985
70,320	-11,278	250,369	117,159
71,334	-11,100	250,250	117,245
72,349	-10,986	250,116	117,269
73,363	-10,849	249,889	117,269
74,378	-10,750	249,629	117,220
75,393	-10,861	249,477	117,044
76,407	-10,884	249,213	116,890
77,422	-10,901	249,112	116,818
78,436	-10,922	248,748	116,619
79,451	-10,753	248,546	116,657
80,466	-11,245	248,442	116,182
81,480	-11,278	248,063	115,966
82,495	-11,232	247,994	115,962
83,509	-11,213	247,660	115,813
84,524	-11,201	247,458	115,718
85,539	-11,416	247,291	115,448
86,553	-11,418	247,132	115,362
87,568	-11,516	246,826	115,127
88,582	-11,193	246,675	115,317
89,597	-11,299	246,458	115,116
90,611	-11,054	246,286	115,231
91,626	-11,001	246,276	115,261
92,641	-11,081	246,163	115,130
93,655	-11,074	245,835	114,972
94,670	-10,996	245,567	114,902
95,684	-11,082	245,510	114,793
96,699	-11,132	245,207	114,600
97,714	-11,416	245,096	114,301
98,728	-11,306	244,829	114,258
99,743	-11,322	244,408	114,037
100,757	-11,404	244,394	113,953
101,772	-11,291	244,281	113,984
102,787	-11,315	244,103	113,871
103,801	-11,205	243,988	113,899
104,816	-11,090	243,753	113,874
105,830	-10,801	243,606	114,033
106,845	-11,034	243,471	113,768
107,860	-11,235	243,317	113,520
108,874	-11,067	243,039	113,519
109,889	-11,055	242,751	113,384
110,903	-11,242	242,692	113,192
111,918	-11,399	242,540	112,982
112,933	-11,105	242,309	113,106
113,947	-11,025	242,053	113,042
114,962	-11,036	241,936	112,968
115,976	-11,038	241,900	112,940
116,991	-10,932	241,573	112,864
118,006	-11,248	241,517	112,569
119,020	-11,051	241,226	112,585
120,035	-11,122	241,297	112,549
121,049	-10,935	241,064	112,583
122,064	-11,030	240,881	112,410
123,079	-11,056	240,577	112,237
124,093	-11,149	240,438	112,087
125,108	-11,376	240,067	111,719
126,122	-11,539	239,895	111,496
127,137	-11,475	239,613	111,407
128,151	-11,315	239,523	111,485
129,166	-11,291	239,355	111,417
130,181	-11,335	239,145	111,273
131,195	-11,384	239,194	111,246
132,210	-11,381	238,999	111,149
133,224	-11,056	238,740	111,281
134,239	-11,080	238,598	111,185
135,254	-11,072	238,388	111,084
136,268	-11,231	238,127	110,824
137,283	-11,490	237,918	110,509
138,297	-11,469	237,653	110,392
139,312	-11,558	237,494	110,237
140,327	-11,169	237,520	110,553
141,341	-10,790	237,376	110,780
142,356	-10,656	237,302	110,843
143,370	-10,682	237,132	110,733
144,385	-10,630	237,024	110,714
145,400	-10,650	236,989	110,672
146,414	-10,698	236,586	110,436
147,429	-10,742	236,401	110,304
148,443	-10,718	236,313	110,272
149,458	-10,813	236,153	110,112
150,473	-10,770	235,957	110,045
151,487	-10,770	235,809	109,966
152,502	-10,760	235,596	109,865
153,516	-10,858	235,591	109,774
154,531	-10,700	235,291	109,751
155,546	-10,790	235,070	109,566
156,560	-10,959	234,902	109,344
157,575	-11,104	234,611	109,084
158,589	-10,972	234,476	109,116
159,604	-10,793	234,471	109,246
160,619	-10,655	234,329	109,280
161,633	-10,490	234,100	109,294
162,648	-10,600	233,994	109,147
163,662	-10,637	233,807	109,021
164,677	-10,943	233,581	108,664
165,692	-10,668	233,299	108,740
166,706	-10,569	233,292	108,806
167,721	-10,459	233,218	108,847
168,735	-10,532	233,099	108,725
169,750	-10,596	232,845	108,547
170,764	-10,893	232,828	108,296
171,779	-10,745	232,705	108,345
172,794	-10,742	232,531	108,257
173,808	-10,668	232,219	108,160
174,823	-11,412	231,846	107,394
175,837	-11,439	231,710	107,300
176,852	-11,000	231,653	107,608
177,867	-10,750	231,606	107,771
178,881	-10,660	231,406	107,739
179,896	-10,474	231,301	107,826
180,910	-10,626	231,201	107,651
181,925	-10,578	230,999	107,585
182,940	-10,842	230,941	107,343
183,954	-10,715	230,724	107,331
184,969	-10,461	230,582	107,453
185,983	-10,239	230,357	107,510
186,998	-10,359	230,264	107,364
188,013	-10,316	230,036	107,282
189,027	-10,604	229,933	107,001
190,042	-10,631	229,761	106,891
191,056	-10,464	229,689	106,977
192,071	-10,422	229,517	106,920
193,086	-10,586	229,323	106,693
194,100	-10,549	229,174	106,643
195,115	-10,598	228,799	106,421
196,129	-10,782	228,749	106,247
197,144	-4,964	230,607	111,613
198,159	0,440	232,359	116,663
199,173	3,285	232,981	119,181
200,188	3,614	232,928	119,400
201,202	3,429	232,688	119,122
202,217	3,570	232,762	119,259
203,232	3,586	232,716	119,237
204,246	4,013	232,443	119,418
205,261	4,172	232,320	119,468
206,275	4,349	232,112	119,487
207,290	4,219	232,199	119,421
208,304	4,109	231,951	119,197
209,319	4,144	231,700	119,084
210,334	4,125	231,441	118,926
211,348	3,798	231,361	118,623
212,363	3,398	231,067	118,153
213,377	3,327	230,815	117,958
214,392	3,042	230,736	117,688
215,407	3,174	230,583	117,701
216,421	3,443	230,352	117,779
217,436	3,466	230,224	117,722
218,450	3,231	230,092	117,463
219,465	3,171	229,822	117,269
220,480	3,205	229,753	117,249
221,494	3,089	229,530	117,036
222,509	3,548	229,543	117,383
223,523	3,188	229,337	116,992
224,538	3,184	229,144	116,880
225,553	3,124	229,055	116,779
226,567	3,352	228,932	116,880
227,582	3,825	228,786	117,156
228,596	3,639	228,762	116,991
229,611	3,637	228,612	116,902
230,626	3,235	228,372	116,463
231,640	3,213	228,173	116,334
232,655	3,710	228,079	116,654
233,669	4,094	228,030	116,910
234,684	4,087	227,834	116,794
235,699	3,728	227,744	116,465
236,713	3,614	227,392	116,188
237,728	3,588	227,193	116,057
238,742	3,162	227,091	115,672
239,757	3,418	227,028	115,823
240,772	3,484	226,644	115,666
241,786	3,107	226,602	115,350
242,801	3,406	226,660	115,595
243,815	3,660	226,474	115,681
244,830	3,668	226,365	115,621
245,844	3,431	226,089	115,291
246,859	3,500	225,876	115,225
247,874	3,456	225,892	115,190
248,888	3,767	225,707	115,318
249,903	3,575	225,564	115,091
250,917	3,490	225,402	114,934
251,932	3,461	225,211	114,805
252,947	3,117	225,122	114,492
253,961	3,132	224,992	114,427
254,976	3,300	224,699	114,393
255,990	3,585	224,689	114,591
257,005	3,511	224,608	114,484
258,020	3,593	224,405	114,432
259,034	3,919	224,262	114,592
260,049	3,633	224,150	114,311
261,063	3,488	224,050	114,142
262,078	3,713	223,872	114,208
263,093	3,853	223,784	114,257
264,107	3,645	223,564	113,981
265,122	3,884	223,415	114,071
266,136	3,672	223,363	113,878
267,151	3,810	223,086	113,828
268,166	3,275	222,848	113,301
269,180	3,158	222,655	113,106
270,195	3,349	222,494	113,155
271,209	3,068	222,542	112,962
272,224	3,426	222,285	113,086
273,239	3,378	222,261	113,028
274,253	3,153	222,127	112,784
275,268	3,051	221,858	112,562
276,282	2,931	221,664	112,365
277,297	3,241	221,434	112,466
278,312	3,321	221,398	112,497
279,326	3,254	221,422	112,450
280,341	3,419	221,101	112,398
281,355	3,504	221,123	112,461
282,370	3,349	220,884	112,216
283,384	3,109	220,663	111,918
284,399	2,998	220,530	111,759
285,414	3,126	220,278	111,716
286,428	3,270	220,263	111,804
287,443	3,483	220,157	111,895
288,457	3,425	220,250	111,889
289,472	3,394	219,903	111,681
290,487	2,718	219,649	111,049
291,501	2,906	219,579	111,142
292,516	2,825	219,595	111,080
293,530	2,936	219,357	111,031
294,545	2,926	219,154	110,911
295,560	3,218	219,044	111,057
296,574	3,086	218,915	110,886
297,589	3,165	218,753	110,852
298,603	3,466	218,770	111,069
299,618	3,462	218,578	110,958
300,633	3,237	218,537	110,764
301,647	3,492	218,296	110,817
302,662	3,212	218,392	110,653
303,676	3,628	218,038	110,765
304,691	3,536	217,937	110,637
305,706	3,554	217,687	110,513
306,720	3,404	217,772	110,438
307,735	3,701	217,359	110,432
308,749	3,326	217,219	110,082
309,764	3,605	217,222	110,274
310,779	3,552	217,098	110,164
311,793	3,674	216,846	110,113
312,808	3,502	216,783	109,948
313,822	3,333	216,630	109,740
314,837	3,442	216,579	109,782
315,852	3,415	216,230	109,576
316,866	3,250	216,224	109,445
317,881	3,539	216,158	109,609
318,895	3,359	215,860	109,319
319,910	3,360	215,627	109,192
320,925	3,138	215,514	108,967
321,939	2,888	215,329	108,686
322,954	2,807	215,210	108,559
323,968	3,148	215,167	108,770
324,983	3,449	215,132	108,956
325,997	3,866	214,941	109,146
327,012	3,536	214,811	108,836
328,027	3,336	214,954	108,757
329,041	3,648	214,674	108,826
330,056	3,845	214,573	108,906
331,070	3,590	214,276	108,564
332,085	3,352	214,009	108,251
333,100	3,148	213,992	108,089
334,114	3,343	213,925	108,183
335,129	3,541	213,613	108,155
336,143	3,510	213,485	108,059
337,158	3,423	213,396	107,943
338,173	3,484	213,294	107,924
339,187	3,127	213,124	107,578
340,202	3,107	212,977	107,480
341,216	3,197	212,702	107,395
342,231	3,245	212,602	107,369
343,246	3,170	212,503	107,256
344,260	3,222	212,453	107,258
345,275	3,252	212,433	107,259
346,289	3,475	212,344	107,361
347,304	3,343	212,258	107,216
348,319	3,414	211,940	107,095
349,333	3,413	211,782	107,005
350,348	3,505	211,616	106,976
351,362	3,784	211,622	107,164
352,377	3,622	211,523	106,991
353,392	3,454	211,370	106,787
354,406	3,476	211,332	106,774
355,421	196,168	1340,131	1420,316
356,435	156,722	1477,636	1420,292
