DTS Sentinel unit serial number:	SN410029Multiplexer serial number:	ORYXHardware model number:	OX2-SRSoftware version number:	ORYX F/W v4,00 Oryx Data Collector v3.7.2.0data status	okinstallation	B6 Nyhavnadifferential loss correction	single-endedforward channel	channel 2reverse channel	N/Adate	2023/12/09time	20:00:08forward acquisition time	300,00reverse acquisition time	0,00gamma	499,1914k internal	0,3129k external	0,3129temperature offset calibration	1,0000default loss term (dB/km)	0,3820temperature slope calibration	1,0000multiplexer offset coefficient	1,0000multiplexer slope coefficient	1,0000fibre end	0,00T internal ref (°C)	21,19T ext. ref 1 (°C)	5,22T ext. ref 2 (°C)	5,18length (m)	temperature (°C)	Stokes	anti-Stokes-744,400	107,178	0,150	-0,133
-743,385	-24,535	-0,250	0,110
-742,371	12,273	0,087	-0,050
-741,356	53,394	-0,198	0,141
-740,342	41,146	0,217	0,146
-739,327	88,399	-0,321	0,265
-738,312	-200,000	-0,003	0,050
-737,298	-21,696	-0,169	0,076
-736,283	800,000	-0,027	0,086
-735,269	16,209	-0,245	0,143
-734,254	-153,988	0,042	0,002
-733,239	-124,520	-0,520	-0,059
-732,225	-41,448	0,191	0,073
-731,210	-102,893	0,184	-0,032
-730,196	291,498	0,050	-0,067
-729,181	168,648	0,027	0,028
-728,167	156,296	0,020	0,021
-727,152	138,624	-0,133	-0,130
-726,137	2,084	-0,084	-0,045
-725,123	51,876	-0,112	-0,079
-724,108	2,083	-0,068	0,037
-723,094	-200,000	0,003	-0,135
-722,079	4,356	0,077	-0,042
-721,064	-143,019	-0,108	-0,008
-720,050	23,108	0,068	0,041
-719,035	-103,899	-0,094	0,016
-718,021	548,498	0,055	0,098
-717,006	-53,616	-0,098	-0,033
-715,991	-60,386	-0,210	-0,066
-714,977	27,808	-0,122	-0,076
-713,962	800,000	0,024	-0,069
-712,948	119,030	0,084	-0,077
-711,933	242,281	-0,111	0,139
-710,918	56,981	-0,016	-0,012
-709,904	-58,451	-0,100	0,032
-708,889	-2,062	0,039	-0,020
-707,875	227,426	-0,042	-0,051
-706,860	-200,000	0,014	-0,100
-705,845	780,088	-0,061	-0,124
-704,831	800,000	0,028	0,065
-703,816	538,677	-0,086	0,153
-702,802	-200,000	-0,010	0,180
-701,787	-200,000	-0,024	-0,146
-700,772	-200,000	-0,008	-0,232
-699,758	140,829	-0,071	-0,070
-698,743	328,899	-0,040	-0,058
-697,729	351,609	-0,101	0,150
-696,714	-200,000	-0,005	-0,059
-695,699	435,401	-0,049	-0,079
-694,685	-65,409	-0,123	-0,037
-693,670	456,033	-0,094	-0,155
-692,656	-198,456	0,135	0,001
-691,641	800,000	0,021	-0,060
-690,627	800,000	-0,021	0,061
-689,612	-166,295	-0,076	-0,002
-688,597	7,494	0,165	-0,091
-687,583	700,940	-0,072	-0,141
-686,568	-12,080	-0,119	0,057
-685,554	-147,354	-0,097	0,006
-684,539	179,476	0,053	0,057
-683,524	23,129	0,050	0,030
-682,510	-102,572	-0,008	0,001
-681,495	27,154	0,082	0,051
-680,481	63,950	-0,084	-0,063
-679,466	-200,000	0,012	-0,058
-678,451	-107,621	-0,073	-0,012
-677,437	109,021	0,011	-0,009
-676,422	24,789	0,046	-0,028
-675,408	121,929	-0,070	0,065
-674,393	-200,000	0,001	0,123
-673,378	-31,312	-0,083	-0,035
-672,364	306,742	-0,007	-0,010
-671,349	334,984	0,038	-0,055
-670,335	-200,000	0,018	-0,143
-669,320	800,000	-0,067	-0,216
-668,305	701,808	0,071	-0,140
-667,291	262,932	-0,038	-0,049
-666,276	800,000	-0,015	-0,043
-665,262	19,103	0,039	-0,023
-664,247	800,000	-0,070	-0,201
-663,232	-15,815	0,082	0,038
-662,218	436,598	-0,018	0,030
-661,203	174,005	-0,028	-0,031
-660,189	410,705	0,021	0,032
-659,174	-27,448	-0,090	0,038
-658,159	-129,668	0,166	-0,017
-657,145	328,030	-0,062	0,089
-656,130	281,609	-0,073	-0,097
-655,116	250,452	-0,061	-0,078
-654,101	497,862	-0,124	0,213
-653,086	-200,000	-0,014	-0,101
-652,072	98,166	-0,101	-0,087
-651,057	-200,000	0,002	-0,158
-650,043	62,810	-0,037	0,027
-649,028	-113,099	0,078	-0,011
-648,014	198,922	0,046	-0,053
-646,999	800,000	0,021	0,048
-645,984	152,893	-0,018	0,019
-644,970	75,047	-0,059	0,046
-643,955	-5,620	-0,128	-0,065
-642,941	20,866	-0,130	0,078
-641,926	-200,000	0,007	0,062
-640,911	85,780	-0,148	-0,121
-639,897	-200,000	0,008	-0,077
-638,882	57,983	-0,044	0,032
-637,868	800,000	-0,007	0,023
-636,853	-200,000	0,006	0,024
-635,838	780,700	-0,051	-0,104
-634,824	526,757	-0,028	0,049
-633,809	52,794	0,103	-0,073
-632,795	-117,124	-0,093	-0,012
-631,780	-107,889	-0,050	0,008
-630,765	-200,000	-0,021	-0,111
-629,751	-38,062	-0,106	-0,041
-628,736	-200,000	0,017	0,061
-627,722	229,380	0,050	0,061
-626,707	-200,000	0,010	-0,038
-625,692	-160,749	0,162	-0,006
-624,678	30,868	0,055	0,035
-623,663	800,000	-0,041	-0,088
-622,649	-200,000	0,006	-0,048
-621,634	-200,000	0,013	-0,094
-620,619	-200,000	-0,041	-0,152
-619,605	800,000	-0,080	-0,184
-618,590	-3,828	0,078	-0,040
-617,576	-200,000	-0,024	0,103
-616,561	-86,219	-0,044	-0,010
-615,546	255,429	-0,032	-0,040
-614,532	-200,000	0,003	-0,064
-613,517	-75,312	0,195	-0,051
-612,503	49,846	-0,061	-0,042
-611,488	-57,415	0,094	-0,030
-610,474	86,247	-0,048	-0,039
-609,459	231,430	-0,030	0,037
-608,444	-170,602	0,153	-0,004
-607,430	131,301	-0,072	-0,069
-606,415	-67,183	-0,175	0,051
-605,401	-104,094	-0,061	0,010
-604,386	-118,577	0,067	0,009
-603,371	-55,095	0,057	-0,019
-602,357	-89,300	0,067	-0,014
-601,342	-93,473	-0,050	0,010
-600,328	43,667	0,046	-0,031
-599,313	307,449	-0,048	-0,066
-598,298	-111,050	0,038	0,006
-597,284	-148,064	0,057	0,003
-596,269	190,346	-0,054	-0,060
-595,255	6,633	0,090	0,050
-594,240	-88,451	0,092	0,020
-593,225	-200,000	-0,058	-0,227
-592,211	65,506	0,078	0,059
-591,196	39,697	-0,080	0,053
-590,182	800,000	0,012	-0,026
-589,167	-9,485	-0,023	0,011
-588,152	15,452	-0,063	-0,036
-587,138	-67,239	-0,057	0,017
-586,123	-200,000	0,019	-0,084
-585,109	-200,000	-0,024	0,128
-584,094	800,000	0,030	-0,078
-583,079	336,313	0,013	-0,019
-582,065	31,878	-0,018	-0,011
-581,050	-200,000	0,004	0,060
-580,036	-167,077	-0,243	-0,007
-579,021	-200,000	-0,031	-0,110
-578,006	259,982	-0,034	-0,044
-576,992	299,331	0,074	-0,101
-575,977	111,359	0,064	-0,057
-574,963	654,112	-0,029	0,055
-573,948	420,826	0,090	-0,143
-572,934	40,569	-0,033	-0,022
-571,919	27,397	-0,115	-0,071
-570,904	800,000	0,088	-0,184
-569,890	29,181	0,055	0,034
-568,875	-102,614	0,080	0,014
-567,861	-167,492	0,020	0,001
-566,846	-200,000	-0,002	0,022
-565,831	-200,000	0,027	0,145
-564,817	133,442	-0,121	0,115
-563,802	-200,000	-0,044	0,184
-562,788	-200,000	0,009	0,053
-561,773	-200,000	-0,051	0,206
-560,758	-200,000	0,030	-0,113
-559,744	-82,535	0,111	-0,026
-558,729	396,491	-0,057	-0,089
-557,715	168,677	0,036	-0,038
-556,700	-200,000	-0,020	-0,134
-555,685	800,000	-0,057	-0,179
-554,671	-200,000	-0,001	-0,024
-553,656	-15,601	0,096	0,045
-552,642	192,645	-0,053	0,059
-551,627	-66,312	0,140	0,041
-550,612	385,697	-0,025	0,038
-549,598	-35,899	-0,067	0,027
-548,583	-200,000	-0,022	-0,142
-547,569	800,000	0,055	-0,141
-546,554	800,000	0,027	0,058
-545,539	-35,907	0,082	0,033
-544,525	162,674	-0,044	-0,046
-543,510	735,075	-0,012	0,024
-542,496	-16,314	-0,074	-0,035
-541,481	164,343	0,018	-0,019
-540,466	-125,546	-0,051	0,006
-539,452	271,354	0,018	-0,024
-538,437	-39,956	-0,089	0,034
-537,423	-200,000	0,032	0,110
-536,408	-137,322	-0,087	-0,007
-535,393	800,000	0,078	-0,167
-534,379	-139,865	-0,133	0,010
-533,364	-200,000	-0,009	0,032
-532,350	-26,155	-0,083	-0,036
-531,335	-116,353	0,096	-0,013
-530,321	-200,000	-0,012	0,086
-529,306	109,736	0,136	-0,121
-528,291	-200,000	-0,026	0,088
-527,277	10,395	-0,107	0,060
-526,262	80,846	-0,116	-0,092
-525,248	99,515	0,057	0,048
-524,233	-200,000	-0,020	0,104
-523,218	156,008	-0,080	0,081
-522,204	-200,000	0,023	0,106
-521,189	-200,000	0,019	0,071
-520,175	1,817	0,123	-0,065
-519,160	800,000	0,007	-0,015
-518,145	-14,076	0,123	0,058
-517,131	259,905	-0,060	-0,077
-516,116	600,347	0,056	-0,104
-515,102	139,745	-0,031	-0,030
-514,087	9,200	-0,072	0,040
-513,072	247,609	-0,036	-0,045
-512,058	-30,142	0,154	-0,064
-511,043	-123,723	0,063	0,007
-510,029	370,462	0,053	0,079
-509,014	215,963	0,054	-0,063
-507,999	334,604	-0,028	0,040
-506,985	-36,211	-0,096	0,038
-505,970	38,423	-0,069	0,045
-504,956	-127,226	0,108	-0,012
-503,941	800,000	0,019	0,043
-502,926	626,708	0,022	0,041
-501,912	-26,309	0,054	0,023
-500,897	133,616	0,037	0,036
-499,883	-200,000	0,017	0,105
-498,868	-9,690	-0,027	-0,013
-497,853	-99,164	0,053	-0,010
-496,839	378,043	-0,026	-0,040
-495,824	-32,049	0,119	-0,049
-494,810	401,842	-0,061	0,095
-493,795	-43,181	0,086	0,032
-492,781	-200,000	-0,023	-0,074
-491,766	204,672	-0,043	0,049
-490,751	-200,000	-0,012	0,166
-489,737	208,603	-0,140	-0,161
-488,722	243,640	0,039	-0,048
-487,708	-87,628	0,082	0,018
-486,693	-11,402	-0,027	0,013
-485,678	-24,818	0,016	0,007
-484,664	-98,452	-0,097	0,018
-483,649	77,940	-0,098	0,077
-482,635	57,208	0,058	-0,042
-481,620	102,846	0,054	0,047
-480,605	-39,321	0,068	0,026
-479,591	800,000	-0,008	0,021
-478,576	62,362	0,067	-0,050
-477,562	800,000	-0,032	-0,098
-476,547	-15,200	-0,096	0,045
-475,532	800,000	0,007	-0,019
-474,518	-200,000	-0,031	-0,107
-473,503	-57,740	0,046	0,015
-472,489	-111,643	0,032	-0,005
-471,474	143,030	0,110	0,108
-470,459	-200,000	0,024	-0,112
-469,445	-103,109	-0,041	-0,007
-468,430	514,765	0,042	-0,072
-467,416	-23,601	0,086	0,038
-466,401	-149,586	0,080	-0,005
-465,386	21,811	-0,064	0,038
-464,372	15,484	-0,046	-0,027
-463,357	-200,000	-0,019	-0,100
-462,343	-200,000	-0,001	-0,178
-461,328	-200,000	-0,001	0,026
-460,313	-8,126	0,102	-0,050
-459,299	-200,000	-0,004	0,100
-458,284	176,625	-0,035	0,038
-457,270	-99,842	0,177	0,032
-456,255	45,196	0,047	0,032
-455,241	-29,704	-0,079	0,033
-454,226	-200,000	0,012	-0,050
-453,211	90,602	0,063	-0,051
-452,197	82,352	-0,030	0,024
-451,182	381,762	0,119	0,180
-450,168	694,969	0,059	-0,115
-449,153	663,661	0,036	0,068
-448,138	234,640	-0,049	-0,059
-447,124	212,951	0,015	-0,017
-446,109	800,000	0,055	-0,161
-445,095	-31,023	-0,199	-0,082
-444,080	258,891	-0,018	-0,023
-443,065	-2,711	0,067	-0,034
-442,051	-200,000	0,029	0,107
-441,036	-200,000	0,010	-0,082
-440,022	346,466	0,040	-0,057
-439,007	800,000	-0,006	-0,016
-437,992	-78,533	0,121	0,030
-436,978	-200,000	0,025	0,127
-435,963	91,276	-0,047	-0,039
-434,949	-200,000	-0,004	-0,094
-433,934	-11,294	0,063	0,030
-432,919	203,254	-0,026	-0,029
-431,905	-109,385	0,026	0,004
-430,890	55,396	-0,058	-0,041
-429,876	137,695	-0,067	0,064
-428,861	214,448	-0,035	-0,041
-427,846	-163,128	0,160	-0,006
-426,832	800,000	0,016	-0,045
-425,817	126,454	0,032	-0,030
-424,803	165,554	-0,093	0,097
-423,788	-200,000	0,016	-0,073
-422,773	29,535	0,183	-0,114
-421,759	-3,113	-0,023	0,011
-420,744	-200,000	0,026	0,086
-419,730	131,469	-0,084	0,079
-418,715	155,100	-0,021	-0,021
-417,701	272,762	0,102	-0,133
-416,686	-200,000	0,003	0,082
-415,671	800,000	-0,019	0,040
-414,657	309,401	-0,032	-0,044
-413,642	-200,000	0,013	-0,062
-412,628	-200,000	-0,014	-0,053
-411,613	87,221	0,074	0,060
-410,598	539,518	0,032	-0,057
-409,584	195,699	-0,050	-0,056
-408,569	-93,521	-0,124	-0,025
-407,555	800,000	0,012	0,040
-406,540	-2,249	-0,110	0,057
-405,525	-162,310	-0,122	0,004
-404,511	-200,000	-0,010	-0,065
-403,496	-62,635	-0,077	-0,023
-402,482	-101,186	0,059	0,010
-401,467	-8,877	0,096	-0,047
-400,452	89,071	-0,078	0,063
-399,438	-39,587	0,102	0,039
-398,423	-109,083	0,075	-0,012
-397,409	-39,550	-0,045	-0,017
-396,394	-53,747	-0,159	0,053
-395,379	-200,000	0,012	0,046
-394,365	301,765	0,040	0,055
-393,350	61,153	-0,184	-0,134
-392,336	-200,000	-0,010	-0,039
-391,321	15,965	0,040	-0,023
-390,306	-200,000	-0,018	-0,071
-389,292	209,780	0,053	0,061
-388,277	439,994	-0,046	0,074
-387,263	-173,579	0,048	0,001
-386,248	-200,000	0,024	0,091
-385,233	91,527	-0,061	0,050
-384,219	774,848	-0,005	0,011
-383,204	33,100	0,060	0,038
-382,190	-36,265	0,033	0,013
-381,175	-200,000	-0,009	0,104
-380,160	-200,000	-0,013	0,197
-379,146	-17,442	0,119	-0,054
-378,131	-141,248	0,132	0,010
-377,117	-81,700	-0,061	-0,015
-376,102	200,144	-0,055	-0,062
-375,088	-46,073	0,069	-0,025
-374,073	46,433	0,097	0,066
-373,058	-67,750	0,069	0,020
-372,044	-200,000	0,019	0,069
-371,029	-38,461	0,124	-0,048
-370,015	218,217	0,099	0,115
-369,000	-200,000	-0,018	-0,058
-367,985	229,261	0,076	0,091
-366,971	-200,000	-0,027	-0,093
-365,956	92,918	0,060	-0,049
-364,942	169,383	0,034	0,036
-363,927	20,131	0,098	-0,058
-362,912	-200,000	-0,032	0,131
-361,898	-158,733	-0,133	-0,005
-360,883	-38,583	-0,132	-0,051
-359,869	88,754	0,053	0,043
-358,854	-200,000	-0,034	-0,126
-357,839	237,242	-0,038	0,046
-356,825	750,321	-0,100	0,199
-355,810	800,000	-0,023	0,049
-354,796	800,000	0,008	0,017
-353,781	-83,506	-0,018	-0,004
-352,766	142,102	-0,086	0,083
-351,752	-151,028	-0,030	0,002
-350,737	-200,000	0,001	-0,005
-349,723	-200,000	0,002	0,107
-348,708	-72,087	-0,052	-0,014
-347,693	364,355	-0,081	0,120
-346,679	275,889	-0,067	0,087
-345,664	-27,594	-0,038	0,016
-344,650	-9,372	0,122	0,059
-343,635	-49,951	-0,184	-0,063
-342,620	58,890	0,081	-0,059
-341,606	-4,159	0,054	-0,028
-340,591	-200,000	-0,013	-0,050
-339,577	800,000	-0,001	0,003
-338,562	-200,000	0,015	-0,048
-337,548	800,000	0,046	-0,098
-336,533	-194,783	0,088	-0,000
-335,518	-117,999	0,107	-0,014
-334,504	-200,000	-0,029	0,122
-333,489	-100,414	0,086	-0,015
-332,475	-136,814	-0,213	0,018
-331,460	-67,846	0,071	-0,020
-330,445	800,000	0,021	0,067
-329,431	-168,549	-0,111	0,003
-328,416	14,936	0,069	-0,040
-327,402	201,108	-0,004	-0,005
-326,387	-97,337	0,172	0,032
-325,372	41,681	0,081	-0,054
-324,358	103,275	-0,049	0,042
-323,343	-149,690	-0,085	-0,005
-322,329	347,931	-0,088	0,127
-321,314	317,471	-0,081	0,113
-320,299	220,436	0,038	-0,044
-319,285	618,874	-0,071	0,131
-318,270	-17,396	-0,187	-0,086
-317,256	522,094	0,030	0,051
-316,241	727,521	-0,043	0,085
-315,226	27,181	0,072	0,044
-314,212	-200,000	-0,012	-0,178
-313,197	-173,614	0,086	0,002
-312,183	-200,000	-0,008	0,140
-311,168	141,797	-0,068	-0,066
-310,153	-157,971	-0,078	-0,003
-309,139	-48,160	-0,082	-0,029
-308,124	22,371	-0,094	0,056
-307,110	319,947	0,062	0,086
-306,095	-18,727	-0,032	0,015
-305,080	-169,266	0,118	-0,003
-304,066	180,477	0,081	-0,088
-303,051	-200,000	0,055	-0,217
-302,037	55,019	-0,014	-0,010
-301,022	227,019	0,083	0,099
-300,008	-101,031	-0,085	0,015
-298,993	568,980	0,034	0,060
-297,978	40,624	-0,122	0,080
-296,964	23,040	0,095	-0,057
-295,949	81,936	0,034	0,027
-294,935	-140,193	0,070	0,005
-293,920	539,334	-0,043	0,075
-292,905	-200,000	-0,005	-0,054
-291,891	69,416	0,060	0,045
-290,876	-200,000	0,001	-0,041
-289,862	800,000	0,040	0,120
-288,847	-200,000	0,027	-0,129
-287,832	218,099	-0,022	-0,026
-286,818	-200,000	0,013	0,196
-285,803	158,850	0,074	0,076
-284,789	800,000	0,027	-0,074
-283,774	-190,758	0,193	0,001
-282,759	-200,000	-0,031	-0,114
-281,745	302,935	0,065	-0,089
-280,730	-161,863	0,121	-0,004
-279,716	30,062	-0,061	0,038
-278,701	-200,000	-0,014	0,079
-277,686	59,751	-0,046	0,033
-276,672	665,866	-0,075	0,142
-275,657	237,548	0,068	-0,083
-274,643	103,306	0,008	0,006
-273,628	-22,617	-0,054	-0,024
-272,613	-127,249	-0,074	0,008
-271,599	178,639	-0,133	0,142
-270,584	320,564	0,048	-0,067
-269,570	-57,025	0,104	0,033
-268,555	-200,000	-0,044	0,218
-267,540	237,462	-0,051	-0,062
-266,526	133,935	-0,100	-0,094
-265,511	-41,965	-0,072	0,027
-264,497	296,920	-0,039	-0,053
-263,482	800,000	0,002	-0,005
-262,467	344,532	0,044	0,063
-261,453	-200,000	0,008	0,124
-260,438	-172,706	-0,110	-0,002
-259,424	60,064	-0,111	0,080
-258,409	48,798	-0,125	-0,085
-257,395	78,448	-0,053	-0,042
-256,380	-166,797	0,051	-0,001
-255,365	-200,000	0,015	-0,053
-254,351	163,144	0,074	0,075
-253,336	779,466	0,050	-0,101
-252,322	286,227	0,020	0,027
-251,307	-53,252	0,148	0,049
-250,292	-200,000	-0,030	-0,097
-249,278	800,000	0,022	0,062
-248,263	68,103	-0,081	0,060
-247,249	75,241	-0,056	-0,043
-246,234	103,753	0,050	0,043
-245,219	-200,000	-0,010	0,105
-244,205	-78,177	-0,108	-0,027
-243,190	151,916	0,023	-0,023
-242,176	-6,475	0,101	-0,050
-241,161	470,257	0,036	-0,059
-240,146	-28,413	0,074	-0,031
-239,132	194,269	-0,046	-0,051
-238,117	-174,191	-0,131	0,003
-237,103	27,537	0,108	0,066
-236,088	-200,000	-0,005	-0,034
-235,073	421,907	0,037	0,057
-234,059	800,000	0,028	-0,091
-233,044	171,297	0,014	-0,014
-232,030	-116,945	-0,040	0,005
-231,015	-133,471	-0,094	-0,008
-230,000	282,760	0,123	-0,161
-228,986	225,411	-0,105	-0,124
-227,971	35,929	-0,103	-0,066
-226,957	0,559	0,073	0,038
-225,942	-184,670	0,103	-0,001
-224,927	108,890	-0,046	-0,040
-223,913	-200,000	-0,001	-0,008
-222,898	-200,000	-0,001	0,084
-221,884	-200,000	0,005	0,099
-220,869	111,656	0,022	0,020
-219,855	139,253	-0,086	0,083
-218,840	75,441	0,100	0,077
-217,825	347,739	0,049	-0,071
-216,811	9,311	-0,070	0,039
-215,796	-200,000	-0,002	0,013
-214,782	205,601	-0,064	-0,073
-213,767	667,056	-0,035	0,067
-212,752	319,321	0,052	0,071
-211,738	-53,907	0,131	0,043
-210,723	-183,162	-0,082	0,001
-209,709	-200,000	0,037	-0,151
-208,694	753,064	-0,036	-0,071
-207,679	225,447	-0,060	0,070
-206,665	516,652	-0,031	0,053
-205,650	345,528	0,087	0,125
-204,636	-200,000	0,016	0,059
-203,621	691,550	0,028	0,053
-202,606	-200,000	0,001	0,060
-201,592	339,870	-0,040	0,057
-200,577	-131,470	-0,125	-0,012
-199,563	-200,000	-0,002	0,070
-198,548	-10,089	-0,016	-0,008
-197,533	485,612	0,039	-0,064
-196,519	191,117	-0,050	0,055
-195,504	-200,000	-0,010	-0,192
-194,490	-200,000	0,007	-0,092
-193,475	33,651	-0,105	0,066
-192,460	-130,640	-0,093	0,009
-191,446	-119,507	-0,096	0,012
-190,431	800,000	-0,024	0,065
-189,417	542,625	0,059	0,102
-188,402	532,777	0,071	0,123
-187,387	-168,892	-0,052	-0,001
-186,373	41,786	0,074	0,049
-185,358	104,962	0,048	0,041
-184,344	-96,952	0,032	0,006
-183,329	75,587	0,078	0,060
-182,315	-37,226	-0,131	-0,051
-181,300	-200,000	-0,017	-0,144
-180,285	34,314	-0,113	-0,071
-179,271	-151,526	-0,085	-0,005
-178,256	-11,506	0,085	0,040
-177,242	-200,000	0,035	-0,125
-176,227	750,303	0,033	-0,066
-175,212	104,414	0,042	-0,036
-174,198	-200,000	-0,011	0,045
-173,183	-50,234	0,128	-0,044
-172,169	81,746	-0,131	-0,103
-171,154	800,000	-0,078	0,166
-170,139	11,730	0,111	0,062
-169,125	-155,107	-0,053	-0,002
-168,110	-200,000	0,005	0,101
-167,096	522,062	-0,093	0,159
-166,081	32,866	0,082	-0,052
-165,066	31,528	-0,071	-0,045
-164,052	57,769	-0,119	-0,084
-163,037	470,780	0,041	-0,067
-162,023	72,072	0,019	0,015
-161,008	70,591	0,073	0,055
-159,993	800,000	0,034	0,078
-158,979	-200,000	0,009	-0,148
-157,964	97,117	-0,064	0,054
-156,950	-28,775	-0,101	-0,042
-155,935	190,914	0,026	0,029
-154,920	109,873	0,063	0,055
-153,906	-88,199	0,039	0,008
-152,891	-200,000	-0,001	-0,074
-151,877	-27,709	-0,138	-0,058
-150,862	197,846	-0,056	0,063
-149,847	-164,731	0,116	-0,004
-148,833	32,241	-0,018	0,011
-147,818	324,170	0,025	-0,034
-146,804	-63,711	0,061	-0,018
-145,789	177,121	0,029	0,031
-144,775	85,589	-0,104	-0,083
-143,760	-200,000	-0,007	0,047
-142,745	17,204	-0,167	-0,096
-141,731	281,731	0,107	-0,139
-140,716	-45,081	-0,159	-0,057
-139,702	16,394	-0,032	0,018
-138,687	54,859	0,072	0,050
-137,672	-5,498	0,110	-0,055
-136,658	202,850	-0,049	-0,055
-135,643	101,912	-0,020	-0,017
-134,629	-200,000	0,013	-0,148
-133,614	-200,000	0,016	0,119
-132,599	478,264	-0,012	0,020
-131,585	239,891	0,039	-0,047
-130,570	23,329	0,091	-0,054
-129,556	-97,734	0,023	-0,004
-128,541	-200,000	0,026	-0,149
-127,526	471,189	0,061	-0,100
-126,512	39,855	0,029	0,019
-125,497	-200,000	0,010	0,099
-124,483	554,122	0,046	0,081
-123,468	8,922	0,112	-0,061
-122,453	800,000	-0,018	0,042
-121,439	138,544	-0,074	0,071
-120,424	700,466	-0,068	0,130
-119,410	-50,689	0,077	-0,026
-118,395	-200,000	0,006	0,097
-117,380	578,109	0,045	-0,079
-116,366	-200,000	-0,002	0,049
-115,351	-200,000	-0,004	-0,032
-114,337	-58,390	-0,051	-0,016
-113,322	-200,000	-0,014	-0,067
-112,307	199,825	0,051	0,057
-111,293	-96,349	0,083	-0,016
-110,278	-200,000	-0,006	-0,141
-109,264	-5,237	-0,162	-0,080
-108,249	34,096	0,024	0,015
-107,234	800,000	0,039	-0,120
-106,220	45,950	0,039	0,026
-105,205	-147,755	0,024	0,001
-104,191	232,495	-0,051	0,061
-103,176	-200,000	-0,003	0,041
-102,162	-200,000	0,003	-0,070
-101,147	-200,000	-0,004	-0,057
-100,132	-51,738	-0,048	0,016
-99,118	267,254	0,066	-0,083
-98,103	282,570	0,083	0,108
-97,089	368,549	-0,025	-0,037
-96,074	-11,266	-0,093	-0,044
-95,059	91,026	0,035	0,029
-94,045	-92,476	-0,103	0,021
-93,030	105,264	-0,169	-0,145
-92,016	191,117	-0,101	0,110
-91,001	-200,000	0,013	0,054
-89,986	-25,597	-0,127	0,054
-88,972	69,256	0,036	0,027
-87,957	-200,000	0,002	0,111
-86,943	323,668	-0,018	0,026
-85,928	4,393	0,083	0,044
-84,913	371,938	0,091	0,134
-83,899	-200,000	0,007	0,041
-82,884	765,085	0,028	0,056
-81,870	-55,891	0,060	-0,019
-80,855	517,028	0,049	0,084
-79,840	-27,393	0,070	-0,029
-78,826	-117,690	-0,015	-0,002
-77,811	800,000	0,012	0,037
-76,797	-200,000	-0,023	-0,109
-75,782	527,083	0,068	-0,117
-74,767	-125,029	-0,098	-0,011
-73,753	16,501	0,034	0,020
-72,738	314,768	-0,034	0,046
-71,724	-200,000	0,005	0,029
-70,709	-200,000	0,025	0,146
-69,694	208,184	0,022	0,025
-68,680	800,000	0,017	0,046
-67,665	-200,000	-0,014	-0,121
-66,651	285,752	0,058	-0,076
-65,636	-200,000	0,000	0,059
-64,622	-200,000	-0,015	0,050
-63,607	132,339	-0,085	-0,079
-62,592	-84,399	0,122	0,028
-61,578	-124,884	0,113	-0,013
-60,563	-36,745	0,046	0,018
-59,549	-200,000	-0,017	0,094
-58,534	-76,621	-1,501	-0,378
-57,519	611,266	-0,790	-1,436
-56,505	-200,000	-0,942	-4,489
-55,490	-155,696	0,653	-0,030
-54,476	800,000	4,990	11,793
-53,461	-200,000	14,449	257,266
-52,446	-200,000	696,922	2231,946
-51,432	564,689	1623,797	2860,887
-50,417	117,161	1630,724	1450,920
-49,403	74,049	1284,520	975,028
-48,388	37,382	1022,544	654,956
-47,373	23,316	981,685	582,585
-46,359	22,617	970,907	573,879
-45,344	21,479	966,664	567,637
-44,330	21,501	964,977	566,694
-43,315	21,202	963,845	565,035
-42,300	21,227	962,643	564,387
-41,286	21,145	961,836	563,625
-40,271	21,226	960,572	563,126
-39,257	21,246	959,661	562,633
-38,242	21,246	958,747	562,077
-37,227	21,230	957,949	561,535
-36,213	21,191	957,057	560,862
-35,198	21,134	956,136	560,117
-34,184	21,212	955,678	560,079
-33,169	21,178	954,666	559,354
-32,154	21,186	953,784	558,840
-31,140	21,222	952,976	558,459
-30,125	21,274	951,982	558,023
-29,111	21,242	951,259	557,475
-28,096	21,248	950,580	557,072
-27,082	21,187	949,996	556,512
-26,067	21,251	949,141	556,197
-25,052	21,229	948,263	555,590
-24,038	21,270	947,724	555,380
-23,023	21,281	947,149	555,058
-22,009	21,252	946,454	554,537
-20,994	21,239	946,080	554,252
-19,979	21,235	945,497	553,878
-18,965	21,231	944,788	553,425
-17,950	21,251	944,006	553,011
-16,936	21,201	943,508	552,539
-15,921	21,179	942,794	552,028
-14,906	21,132	941,971	551,375
-13,892	21,112	941,355	550,929
-12,877	21,107	940,794	550,561
-11,863	21,022	940,291	549,977
-10,848	21,131	939,629	549,913
-9,833	21,181	939,235	549,817
-8,819	21,187	938,472	549,371
-7,804	21,110	937,952	548,800
-6,790	21,123	937,305	548,441
-5,775	21,111	936,923	548,156
-4,760	21,068	936,262	547,614
-3,746	21,117	935,380	547,232
-2,731	20,960	934,767	546,355
-1,717	20,981	933,709	545,779
-0,702	20,924	933,433	545,417
0,313	20,792	932,595	545,336
1,327	23,731	930,825	553,482
2,342	32,940	794,144	496,668
3,356	30,423	451,215	278,380
4,371	0,440	295,270	152,115
5,386	-3,995	276,490	138,209
6,400	-5,105	270,763	134,299
7,415	-5,550	268,463	132,734
8,429	-5,305	267,350	132,398
9,444	-5,185	266,290	131,971
10,459	-5,165	265,686	131,678
11,473	-5,298	265,157	131,283
12,488	-5,373	264,523	130,889
13,502	-5,567	263,933	130,409
14,517	-5,481	263,630	130,326
15,531	-5,507	263,201	130,079
16,546	-5,577	262,849	129,829
17,561	-5,638	262,475	129,579
18,575	-5,615	262,337	129,520
19,590	-5,546	261,785	129,297
20,604	-5,479	261,489	129,200
21,619	-5,606	261,284	128,973
22,634	-5,518	260,774	128,789
23,648	-5,586	260,534	128,598
24,663	-5,601	260,263	128,439
25,677	-5,520	260,023	128,381
26,692	-5,683	259,746	128,087
27,707	-5,733	259,597	127,958
28,721	-5,518	259,268	127,977
29,736	-5,684	258,986	127,678
30,750	-5,570	258,714	127,634
31,765	-5,640	258,415	127,413
32,780	-5,782	258,369	127,252
33,794	-5,564	257,983	127,244
34,809	-5,644	257,814	127,078
35,823	-5,606	257,393	126,893
36,838	-5,625	257,358	126,848
37,853	-5,779	256,952	126,501
38,867	-5,618	256,888	126,599
39,882	-5,722	256,638	126,374
40,896	-5,661	256,328	126,264
41,911	-5,794	256,183	126,063
42,926	-5,678	256,092	126,110
43,940	-5,838	255,745	125,787
44,955	-5,779	255,501	125,708
45,969	-5,954	255,319	125,454
46,984	-6,081	255,060	125,204
47,999	-6,080	254,673	125,003
49,013	-6,364	254,618	124,717
50,028	-6,434	254,385	124,531
51,042	-6,430	253,957	124,313
52,057	-6,294	253,693	124,292
53,071	-6,283	253,638	124,263
54,086	-6,255	253,438	124,178
55,101	-6,109	253,201	124,178
56,115	-6,088	253,279	124,223
57,130	-5,689	253,106	124,474
58,144	-5,371	252,917	124,646
59,159	-5,384	252,533	124,435
60,174	-5,534	252,458	124,256
61,188	-5,668	252,290	124,047
62,203	-5,551	252,035	124,012
63,217	-5,553	251,824	123,896
64,232	-5,409	251,603	123,899
65,247	-5,712	251,321	123,489
66,261	-5,578	251,102	123,486
67,276	-5,628	250,814	123,290
68,290	-5,870	250,549	122,940
69,305	-6,004	250,289	122,687
70,320	-5,786	250,226	122,832
71,334	-5,872	250,155	122,713
72,349	-5,599	250,015	122,867
73,363	-5,332	249,654	122,907
74,378	-5,530	249,483	122,643
75,393	-5,339	249,134	122,623
76,407	-5,464	249,140	122,508
77,422	-5,457	248,738	122,306
78,436	-5,476	248,613	122,217
79,451	-5,620	248,545	122,051
80,466	-5,616	248,153	121,850
81,480	-5,707	247,887	121,632
82,495	-5,929	247,863	121,421
83,509	-5,694	247,591	121,475
84,524	-5,762	247,358	121,293
85,539	-5,886	247,253	121,126
86,553	-5,940	247,073	120,981
87,568	-5,959	246,951	120,894
88,582	-5,834	246,738	120,885
89,597	-5,892	246,520	120,718
90,611	-5,987	246,436	120,586
91,626	-5,683	246,256	120,744
92,641	-5,757	246,038	120,563
93,655	-5,723	245,800	120,465
94,670	-5,777	245,646	120,333
95,684	-5,790	245,354	120,168
96,699	-5,707	245,283	120,193
97,714	-5,718	245,028	120,048
98,728	-5,800	244,864	119,888
99,743	-5,936	244,675	119,672
100,757	-5,965	244,322	119,463
101,772	-6,028	244,219	119,350
102,787	-5,794	244,084	119,469
103,801	-5,838	243,936	119,349
104,816	-5,550	243,773	119,498
105,830	-5,434	243,605	119,502
106,845	-5,759	243,464	119,152
107,860	-5,693	243,258	119,095
108,874	-5,559	242,959	119,050
109,889	-5,448	242,663	118,986
110,903	-5,737	242,726	118,767
111,918	-5,778	242,436	118,580
112,933	-5,715	242,170	118,492
113,947	-5,516	242,085	118,604
114,962	-5,554	241,947	118,495
115,976	-5,784	241,764	118,204
116,991	-5,729	241,642	118,180
118,006	-5,742	241,409	118,044
119,020	-5,731	241,390	118,033
120,035	-5,687	241,313	118,022
121,049	-5,622	241,058	117,939
122,064	-5,618	240,873	117,842
123,079	-5,474	240,621	117,826
124,093	-5,635	240,301	117,527
125,108	-5,857	240,196	117,284
126,122	-6,081	239,989	116,989
127,137	-6,119	239,702	116,807
128,151	-6,196	239,794	116,778
129,166	-5,677	239,409	117,005
130,181	-5,806	239,272	116,822
131,195	-5,887	239,062	116,643
132,210	-5,712	238,983	116,736
133,224	-5,757	238,861	116,630
134,239	-5,455	238,548	116,712
135,254	-5,634	238,554	116,559
136,268	-5,644	238,233	116,384
137,283	-5,962	237,967	115,986
138,297	-6,011	237,840	115,873
139,312	-6,194	237,689	115,641
140,327	-5,856	237,675	115,898
141,341	-5,435	237,507	116,146
142,356	-5,358	237,303	116,099
143,370	-5,304	237,229	116,095
144,385	-5,258	237,023	116,022
145,400	-5,285	236,776	115,869
146,414	-5,283	236,802	115,872
147,429	-5,253	236,505	115,741
148,443	-5,392	236,246	115,492
149,458	-5,329	236,242	115,531
150,473	-5,236	236,035	115,494
151,487	-5,492	235,876	115,200
152,502	-5,312	235,651	115,225
153,516	-5,381	235,565	115,116
154,531	-5,366	235,397	115,037
155,546	-5,359	235,252	114,961
156,560	-5,395	234,766	114,685
157,575	-5,381	234,687	114,647
158,589	-5,608	234,652	114,438
159,604	-5,258	234,500	114,633
160,619	-5,178	234,298	114,588
161,633	-5,061	233,970	114,511
162,648	-5,263	233,953	114,331
163,662	-5,431	233,876	114,150
164,677	-5,481	233,799	114,062
165,692	-5,284	233,546	114,085
166,706	-5,047	233,221	114,103
167,721	-5,097	233,013	113,952
168,735	-5,326	233,160	113,833
169,750	-5,221	232,969	113,813
170,764	-5,162	232,790	113,761
171,779	-5,516	232,769	113,461
172,794	-5,307	232,694	113,580
173,808	-5,493	232,315	113,237
174,823	-5,701	231,892	112,858
175,837	-5,867	231,719	112,633
176,852	-5,563	231,797	112,900
177,867	-5,286	231,689	113,055
178,881	-5,435	231,600	112,884
179,896	-5,153	231,291	112,945
180,910	-5,156	231,028	112,805
181,925	-5,282	231,063	112,713
182,940	-5,337	230,979	112,618
183,954	-5,118	230,712	112,650
184,969	-5,060	230,640	112,650
185,983	-5,071	230,462	112,544
186,998	-5,052	230,325	112,482
188,013	-5,186	230,184	112,299
189,027	-5,031	230,006	112,323
190,042	-5,157	229,872	112,149
191,056	-5,126	229,708	112,083
192,071	-4,802	229,403	112,176
193,086	-5,063	229,344	111,935
194,100	-5,078	229,206	111,846
195,115	-5,279	228,942	111,551
196,129	-5,676	228,798	111,163
197,144	-3,009	229,735	113,683
198,159	1,475	230,975	117,788
199,173	3,726	231,461	119,782
200,188	3,882	231,418	119,871
201,202	3,941	231,195	119,791
202,217	4,048	231,069	119,798
203,232	4,282	230,990	119,928
204,246	4,166	230,935	119,799
205,261	4,370	230,806	119,879
206,275	4,409	230,590	119,787
207,290	4,649	230,515	119,924
208,304	4,642	230,237	119,764
209,319	4,507	230,094	119,574
210,334	4,273	229,988	119,326
211,348	4,143	229,845	119,141
212,363	3,915	229,386	118,717
213,377	3,859	229,221	118,577
214,392	3,587	229,200	118,347
215,407	3,720	228,990	118,330
216,421	3,728	228,857	118,256
217,436	3,624	228,675	118,072
218,450	3,447	228,484	117,827
219,465	3,422	228,273	117,688
220,480	3,615	228,065	117,718
221,494	3,620	227,951	117,653
222,509	3,456	228,011	117,548
223,523	3,507	227,669	117,400
224,538	3,544	227,465	117,313
225,553	3,671	227,443	117,388
226,567	3,767	227,430	117,444
227,582	3,973	227,231	117,488
228,596	4,247	227,112	117,625
229,611	3,798	226,829	117,126
230,626	3,385	226,747	116,759
231,640	3,599	226,573	116,821
232,655	3,669	226,476	116,815
233,669	4,357	226,377	117,276
234,684	4,490	226,285	117,319
235,699	4,032	226,137	116,884
236,713	3,826	225,924	116,607
237,728	3,564	225,686	116,276
238,742	3,649	225,533	116,251
239,757	3,727	225,372	116,216
240,772	3,670	225,164	116,056
241,786	3,691	225,000	115,977
242,801	3,917	225,015	116,144
243,815	4,014	224,977	116,188
244,830	4,143	224,886	116,228
245,844	3,902	224,515	115,844
246,859	3,921	224,450	115,815
247,874	4,058	224,347	115,855
248,888	4,035	224,182	115,742
249,903	3,864	223,922	115,468
250,917	3,792	223,758	115,319
251,932	3,541	223,776	115,130
252,947	3,574	223,465	114,985
253,961	3,726	223,284	114,995
254,976	3,498	223,246	114,794
255,990	3,783	223,134	114,940
257,005	3,747	222,984	114,825
258,020	3,776	222,878	114,783
259,034	3,889	222,776	114,804
260,049	3,973	222,590	114,760
261,063	3,962	222,400	114,644
262,078	3,855	222,291	114,498
263,093	4,228	222,100	114,667
264,107	3,998	222,039	114,454
265,122	3,752	222,044	114,264
266,136	4,305	221,726	114,500
267,151	4,267	221,564	114,379
268,166	3,667	221,388	113,833
269,180	3,441	221,203	113,559
270,195	3,556	220,912	113,485
271,209	3,668	220,878	113,541
272,224	3,681	220,801	113,500
273,239	3,660	220,695	113,421
274,253	3,836	220,451	113,415
275,268	3,557	220,274	113,108
276,282	3,124	220,244	112,763
277,297	3,553	220,004	112,946
278,312	3,503	219,994	112,894
279,326	3,577	219,829	112,854
280,341	3,494	219,646	112,688
281,355	3,808	219,541	112,856
282,370	3,642	219,280	112,590
283,384	3,373	219,127	112,303
284,399	3,477	218,945	112,276
285,414	3,514	218,792	112,215
286,428	3,624	218,924	112,353
287,443	3,737	218,600	112,260
288,457	3,888	218,578	112,349
289,472	3,856	218,332	112,189
290,487	3,232	218,246	111,679
291,501	3,282	217,858	111,507
292,516	3,593	217,724	111,655
293,530	3,304	217,761	111,454
294,545	3,163	217,784	111,353
295,560	3,561	217,519	111,497
296,574	3,839	217,268	111,560
297,589	3,655	217,220	111,392
298,603	3,733	217,039	111,346
299,618	3,836	216,881	111,330
300,633	3,658	216,857	111,178
301,647	4,048	216,854	111,449
302,662	4,096	216,743	111,417
303,676	3,805	216,449	111,046
304,691	4,000	216,366	111,134
305,706	3,828	216,320	110,976
306,720	3,856	216,102	110,874
307,735	3,691	215,773	110,577
308,749	3,562	215,680	110,426
309,764	3,769	215,604	110,528
310,779	4,061	215,638	110,745
311,793	3,817	215,399	110,437
312,808	3,727	215,191	110,255
313,822	3,898	214,989	110,265
314,837	3,717	215,006	110,134
315,852	3,531	214,773	109,872
316,866	3,630	214,671	109,880
317,881	3,878	214,596	110,009
318,895	4,066	214,283	109,974
319,910	3,772	214,176	109,699
320,925	3,359	214,009	109,309
321,939	3,323	213,743	109,138
322,954	3,585	213,699	109,292
323,968	3,729	213,790	109,431
324,983	3,708	213,627	109,323
325,997	3,823	213,565	109,364
327,012	3,903	213,226	109,237
328,027	3,704	213,205	109,076
329,041	3,903	213,235	109,223
330,056	4,232	212,959	109,305
331,070	3,688	212,724	108,789
332,085	3,539	212,491	108,555
333,100	3,390	212,616	108,503
334,114	3,675	212,471	108,622
335,129	3,888	212,237	108,642
336,143	3,451	211,958	108,181
337,158	3,324	211,960	108,083
338,173	3,596	211,648	108,106
339,187	3,586	211,523	108,026
340,202	3,317	211,359	107,743
341,216	3,349	211,265	107,708
342,231	3,369	211,155	107,656
343,246	3,401	211,121	107,652
344,260	3,570	210,940	107,669
345,275	3,764	210,866	107,758
346,289	3,634	210,827	107,636
347,304	3,792	210,675	107,660
348,319	3,572	210,487	107,400
349,333	3,528	210,272	107,250
350,348	3,709	210,311	107,387
351,362	3,924	210,185	107,464
352,377	3,788	209,918	107,223
353,392	3,498	209,754	106,927
354,406	3,616	209,705	106,975
355,421	194,862	1344,492	1433,126
356,435	155,561	1482,829	1433,222
