DTS Sentinel unit serial number:	SN410029Multiplexer serial number:	ORYXHardware model number:	OX2-SRSoftware version number:	ORYX F/W v4,00 Oryx Data Collector v3.7.2.0data status	okinstallation	B6 Nyhavnadifferential loss correction	single-endedforward channel	channel 2reverse channel	N/Adate	2023/12/09time	10:40:08forward acquisition time	300,00reverse acquisition time	0,00gamma	499,1914k internal	0,3139k external	0,3139temperature offset calibration	1,0000default loss term (dB/km)	0,3820temperature slope calibration	1,0000multiplexer offset coefficient	1,0000multiplexer slope coefficient	1,0000fibre end	0,00T internal ref (°C)	18,60T ext. ref 1 (°C)	2,40T ext. ref 2 (°C)	2,40length (m)	temperature (°C)	Stokes	anti-Stokes-744,400	83,146	0,067	-0,054
-743,385	-35,548	-0,200	0,080
-742,371	-114,287	0,098	0,014
-741,356	-54,904	-0,083	0,027
-740,342	-138,003	0,128	-0,010
-739,327	9,537	-0,316	0,177
-738,312	-71,968	0,113	-0,031
-737,298	-81,727	-0,224	-0,054
-736,283	30,887	0,048	0,030
-735,269	45,940	-0,094	-0,065
-734,254	122,089	0,038	-0,036
-733,239	-82,990	-0,488	-0,116
-732,225	-81,335	0,337	-0,082
-731,210	-200,000	0,002	-0,059
-730,196	-74,031	-0,021	-0,006
-729,181	-40,710	-0,018	0,007
-728,167	-200,000	0,007	-0,097
-727,152	185,822	-0,083	-0,092
-726,137	-82,397	-0,197	0,047
-725,123	-53,569	-0,038	-0,013
-724,108	800,000	-0,031	-0,078
-723,094	214,751	-0,086	-0,101
-722,079	47,272	-0,183	-0,126
-721,064	-116,165	-0,153	0,021
-720,050	-200,000	0,005	0,055
-719,035	43,264	0,038	0,026
-718,021	-157,943	-0,134	-0,006
-717,006	517,491	-0,021	-0,037
-715,991	104,704	-0,036	-0,032
-714,977	139,451	0,010	-0,010
-713,962	46,828	0,149	0,103
-712,948	-200,000	-0,035	0,164
-711,933	-200,000	0,006	-0,059
-710,918	132,934	-0,078	-0,075
-709,904	96,780	-0,031	-0,026
-708,889	-200,000	-0,050	-0,195
-707,875	-0,463	0,145	-0,076
-706,860	-200,000	0,003	0,016
-705,845	428,110	-0,067	0,108
-704,831	-8,690	0,063	-0,031
-703,816	-200,000	-0,022	-0,078
-702,802	212,456	0,011	0,013
-701,787	32,663	0,035	-0,022
-700,772	-66,485	-0,069	-0,020
-699,758	-69,954	0,048	-0,013
-698,743	-53,495	0,041	-0,014
-697,729	-200,000	0,017	0,179
-696,714	-57,544	0,122	0,039
-695,699	-122,215	-0,052	-0,006
-694,685	-25,910	-0,013	0,005
-693,670	1,885	-0,155	-0,083
-692,656	-42,894	-0,040	-0,015
-691,641	35,424	0,081	0,053
-690,627	-200,000	0,005	0,196
-689,612	60,078	-0,024	-0,018
-688,597	275,986	0,006	-0,008
-687,583	800,000	-0,024	-0,073
-686,568	-40,572	0,068	-0,026
-685,554	-95,209	-0,185	-0,037
-684,539	-67,943	0,090	0,026
-683,524	120,557	-0,124	0,114
-682,510	93,110	0,028	-0,023
-681,495	-24,080	-0,150	-0,066
-680,481	-200,000	-0,007	0,056
-679,466	446,443	-0,097	0,158
-678,451	-72,760	0,056	0,015
-677,437	-71,930	-0,055	-0,015
-676,422	-200,000	0,005	0,024
-675,408	-200,000	0,009	0,088
-674,393	-99,345	-0,080	0,015
-673,378	-91,701	-0,029	-0,006
-672,364	106,794	0,052	-0,046
-671,349	-150,259	0,082	0,005
-670,335	77,775	-0,031	0,025
-669,320	800,000	-0,037	-0,110
-668,305	-14,573	0,102	-0,048
-667,291	577,349	0,019	-0,035
-666,276	800,000	0,046	-0,151
-665,262	800,000	0,106	-0,307
-664,247	24,192	0,093	-0,057
-663,232	-98,994	-0,106	0,020
-662,218	-200,000	0,025	-0,088
-661,203	-97,471	0,070	-0,013
-660,189	-42,168	-0,066	-0,025
-659,174	354,068	-0,093	-0,136
-658,159	92,473	-0,023	0,019
-657,145	127,388	0,034	-0,032
-656,130	615,734	0,048	-0,089
-655,116	64,275	0,016	-0,012
-654,101	-200,000	-0,010	-0,070
-653,086	-47,636	0,033	-0,012
-652,072	25,830	-0,058	-0,036
-651,057	193,335	-0,016	-0,018
-650,043	-129,356	-0,124	0,013
-649,028	-36,324	0,005	-0,002
-648,014	-200,000	0,043	0,200
-646,999	95,609	0,140	0,118
-645,984	-127,730	-0,175	0,018
-644,970	-5,689	-0,159	-0,080
-643,955	66,126	-0,127	-0,095
-642,941	208,632	-0,028	0,033
-641,926	-200,000	0,005	-0,142
-640,911	168,129	0,066	0,069
-639,897	252,165	-0,005	-0,007
-638,882	-200,000	-0,006	0,109
-637,868	800,000	0,037	-0,090
-636,853	-83,486	-0,098	-0,023
-635,838	52,998	0,049	-0,035
-634,824	-157,074	0,072	-0,003
-633,809	800,000	0,019	0,044
-632,795	239,375	0,086	-0,106
-631,780	50,950	0,167	0,117
-630,765	-27,994	-0,062	-0,026
-629,751	120,608	0,042	-0,039
-628,736	681,892	-0,074	-0,143
-627,722	-7,175	0,090	-0,045
-626,707	99,482	0,155	-0,133
-625,692	-200,000	0,009	-0,119
-624,678	-58,287	-0,123	-0,039
-623,663	-63,471	-0,121	-0,036
-622,649	800,000	0,022	-0,047
-621,634	800,000	-0,028	0,075
-620,619	-78,953	0,166	-0,041
-619,605	-6,108	0,017	0,009
-618,590	306,274	-0,064	0,088
-617,576	800,000	-0,019	-0,053
-616,561	-89,628	-0,120	0,026
-615,546	800,000	-0,033	0,077
-614,532	-200,000	0,020	-0,099
-613,517	-136,872	-0,087	-0,007
-612,503	175,070	0,046	0,050
-611,488	-31,709	0,081	-0,033
-610,474	285,422	0,083	0,110
-609,459	-130,384	0,227	0,022
-608,444	212,112	-0,060	-0,070
-607,430	800,000	-0,047	-0,139
-606,415	-36,538	-0,033	-0,013
-605,401	-119,974	-0,076	-0,010
-604,386	533,437	0,083	0,146
-603,371	-200,000	-0,040	0,170
-602,357	-88,488	-0,080	-0,018
-601,342	788,120	0,027	0,054
-600,328	44,717	0,060	-0,041
-599,313	224,003	-0,053	-0,064
-598,298	36,656	-0,012	0,008
-597,284	-4,428	-0,041	-0,021
-596,269	37,094	0,060	-0,039
-595,255	800,000	0,026	0,070
-594,240	482,141	-0,082	0,138
-593,225	800,000	-0,044	-0,098
-592,211	-63,174	-0,098	-0,030
-591,196	-79,823	0,136	0,033
-590,182	-28,724	0,024	0,010
-589,167	-200,000	0,010	-0,048
-588,152	286,517	-0,002	0,002
-587,138	586,080	0,048	-0,088
-586,123	-76,207	0,039	-0,010
-585,109	-4,115	-0,098	-0,050
-584,094	800,000	0,030	-0,074
-583,079	160,752	-0,016	-0,017
-582,065	250,124	0,099	0,124
-581,050	298,556	0,027	-0,037
-580,036	-200,000	0,009	-0,072
-579,021	23,952	0,080	-0,049
-578,006	248,085	-0,033	-0,042
-576,992	388,605	0,039	0,060
-575,977	150,431	0,054	-0,054
-574,963	-15,987	0,075	-0,035
-573,948	332,205	-0,061	0,087
-572,934	-29,499	-0,132	-0,055
-571,919	28,066	0,084	-0,052
-570,904	800,000	0,017	0,035
-569,890	304,069	-0,059	0,081
-568,875	800,000	-0,037	-0,102
-567,861	-67,532	0,073	-0,021
-566,846	-200,000	0,003	0,011
-565,831	-59,072	0,109	0,034
-564,817	6,386	-0,108	-0,059
-563,802	171,006	0,133	0,140
-562,788	-74,016	0,037	0,010
-561,773	289,984	0,070	-0,094
-560,758	-0,698	0,026	0,014
-559,744	-58,062	0,117	0,037
-558,729	-109,119	-0,071	-0,011
-557,715	-167,883	0,056	0,002
-556,700	800,000	0,037	0,086
-555,685	-109,794	-0,093	-0,014
-554,671	10,466	0,082	0,046
-553,656	-78,665	-0,054	-0,013
-552,642	1,891	0,183	-0,097
-551,627	205,420	-0,024	0,028
-550,612	-200,000	-0,004	-0,090
-549,598	-81,675	-0,115	-0,027
-548,583	274,318	0,159	-0,207
-547,569	-5,356	-0,063	-0,032
-546,554	12,939	-0,115	0,065
-545,539	800,000	-0,017	0,052
-544,525	-30,286	-0,040	-0,017
-543,510	528,915	-0,065	-0,113
-542,496	489,885	-0,027	0,046
-541,481	251,317	0,016	-0,021
-540,466	800,000	-0,022	0,057
-539,452	800,000	-0,039	0,099
-538,437	-111,370	0,159	0,024
-537,423	571,764	0,044	0,079
-536,408	-200,000	0,029	-0,115
-535,393	-92,207	-0,132	-0,027
-534,379	659,135	0,073	0,138
-533,364	-200,000	0,017	0,100
-532,350	-200,000	0,028	0,102
-531,335	-200,000	-0,020	0,077
-530,321	800,000	0,053	0,114
-529,306	-200,000	-0,048	-0,158
-528,291	-89,720	-0,112	0,024
-527,277	239,226	-0,090	-0,110
-526,262	-66,375	0,084	-0,024
-525,248	-71,175	-0,070	0,019
-524,233	-100,453	-0,055	-0,010
-523,218	-55,286	0,042	0,014
-522,204	-136,304	-0,164	-0,014
-521,189	176,625	-0,114	-0,122
-520,175	800,000	0,033	0,068
-519,160	-200,000	0,009	-0,083
-518,145	403,568	0,038	-0,058
-517,131	-109,248	-0,015	0,002
-516,116	-200,000	0,018	-0,064
-515,102	271,193	-0,068	-0,088
-514,087	155,986	0,028	-0,029
-513,072	286,459	-0,041	-0,055
-512,058	133,058	-0,074	-0,070
-511,043	10,384	-0,005	-0,003
-510,029	-200,000	-0,023	-0,084
-509,014	-64,385	-0,058	-0,017
-507,999	-200,000	-0,001	0,218
-506,985	99,073	0,128	0,109
-505,970	-200,000	0,020	-0,151
-504,956	-141,583	-0,093	0,007
-503,941	-72,233	0,101	0,027
-502,926	196,104	0,062	0,070
-501,912	-200,000	0,013	0,101
-500,897	-128,186	0,056	-0,006
-499,883	-2,303	0,027	0,014
-498,868	30,591	0,030	0,019
-497,853	-100,760	-0,136	0,024
-496,839	-114,377	-0,090	-0,013
-495,824	370,123	0,051	0,076
-494,810	-189,088	0,059	0,001
-493,795	-200,000	0,006	-0,137
-492,781	-200,000	-0,031	-0,111
-491,766	-113,591	0,044	-0,006
-490,751	494,907	-0,044	-0,074
-489,737	-200,000	-0,017	-0,089
-488,722	-74,866	0,166	0,043
-487,708	47,076	0,078	0,053
-486,693	-31,845	-0,078	0,032
-485,678	-200,000	0,001	-0,034
-484,664	258,221	-0,089	-0,113
-483,649	756,033	-0,039	-0,077
-482,635	800,000	0,054	-0,150
-481,620	33,971	0,052	0,033
-480,605	-200,000	-0,025	0,168
-479,591	-58,339	0,044	0,014
-478,576	202,849	-0,066	-0,075
-477,562	-200,000	-0,004	-0,130
-476,547	-113,290	-0,082	-0,012
-475,532	-200,000	-0,011	-0,055
-474,518	201,240	-0,053	-0,060
-473,503	800,000	0,024	0,060
-472,489	131,273	-0,122	0,115
-471,474	23,605	-0,074	0,044
-470,459	800,000	0,031	0,068
-469,445	16,737	-0,041	-0,024
-468,430	800,000	-0,048	-0,107
-467,416	565,805	-0,063	0,113
-466,401	203,904	0,111	0,127
-465,386	800,000	-0,022	0,056
-464,372	-200,000	-0,011	0,040
-463,357	800,000	-0,033	0,091
-462,343	126,332	-0,055	0,051
-461,328	-200,000	-0,003	-0,032
-460,313	-200,000	0,013	-0,044
-459,299	347,793	0,030	0,043
-458,284	-200,000	0,028	0,128
-457,270	-200,000	-0,001	-0,058
-456,255	800,000	0,023	-0,051
-455,241	800,000	-0,023	0,059
-454,226	-133,020	0,063	-0,006
-453,211	800,000	0,042	0,101
-452,197	-200,000	-0,022	-0,080
-451,182	69,305	0,073	-0,055
-450,168	332,062	-0,085	-0,120
-449,153	202,783	0,019	0,021
-448,138	-200,000	0,014	-0,074
-447,124	800,000	0,031	-0,063
-446,109	-57,560	0,077	-0,025
-445,095	662,316	-0,040	0,076
-444,080	-49,259	0,100	-0,035
-443,065	800,000	-0,015	0,045
-442,051	-200,000	-0,010	0,086
-441,036	13,542	0,084	-0,047
-440,022	157,689	-0,062	-0,063
-439,007	-3,867	-0,143	-0,072
-437,992	16,222	-0,078	0,045
-436,978	-90,834	0,074	0,015
-435,963	141,119	0,076	-0,074
-434,949	-122,502	-0,137	-0,016
-433,934	8,551	-0,109	-0,060
-432,919	37,736	-0,072	-0,046
-431,905	114,879	0,024	0,022
-430,890	-123,948	0,115	0,013
-429,876	89,780	-0,102	-0,084
-428,861	-40,367	-0,093	0,035
-427,846	-200,000	-0,009	-0,044
-426,832	-117,014	0,111	0,015
-425,817	-157,767	0,012	0,001
-424,803	-200,000	-0,037	-0,139
-423,788	800,000	0,022	0,050
-422,773	-113,947	0,065	-0,009
-421,759	800,000	-0,035	0,079
-420,744	66,199	0,038	0,028
-419,730	-70,684	0,137	0,038
-418,715	721,381	-0,007	0,014
-417,701	800,000	0,047	0,137
-416,686	-200,000	-0,006	-0,041
-415,671	-200,000	-0,008	0,147
-414,657	244,456	-0,026	-0,032
-413,642	-73,848	-0,075	-0,020
-412,628	776,667	-0,017	-0,035
-411,613	233,314	-0,018	-0,022
-410,598	661,388	-0,047	-0,088
-409,584	-200,000	-0,008	-0,212
-408,569	215,019	-0,091	0,105
-407,555	800,000	-0,050	-0,139
-406,540	800,000	-0,041	0,092
-405,525	-117,270	-0,059	0,008
-404,511	549,044	-0,057	-0,101
-403,496	-41,202	-0,164	-0,062
-402,482	-135,726	0,036	-0,003
-401,467	-79,930	-0,052	0,013
-400,452	-34,309	-0,015	0,006
-399,438	-73,101	0,106	0,028
-398,423	119,762	-0,021	-0,019
-397,409	176,524	-0,078	0,083
-396,394	800,000	-0,032	0,082
-395,379	166,756	0,002	0,003
-394,365	-200,000	-0,027	0,093
-393,350	133,914	-0,062	-0,058
-392,336	-200,000	-0,018	0,072
-391,321	800,000	0,021	-0,042
-390,306	273,994	-0,067	-0,087
-389,292	-75,701	0,062	0,016
-388,277	-200,000	0,023	0,101
-387,263	800,000	0,060	-0,138
-386,248	-62,982	0,036	0,011
-385,233	147,412	-0,109	-0,108
-384,219	453,555	0,058	-0,094
-383,204	-23,958	-0,139	-0,060
-382,190	-157,878	-0,065	-0,003
-381,175	78,519	-0,082	-0,064
-380,160	-46,877	0,145	0,051
-379,146	-200,000	0,014	0,069
-378,131	338,128	0,097	0,138
-377,117	459,008	0,032	-0,053
-376,102	-200,000	-0,043	-0,182
-375,088	529,011	0,035	-0,061
-374,073	-200,000	0,002	0,030
-373,058	176,794	0,017	0,018
-372,044	800,000	-0,001	0,003
-371,029	-39,655	-0,070	0,027
-370,015	67,496	-0,063	-0,047
-369,000	531,219	-0,068	0,118
-367,985	141,416	0,062	0,060
-366,971	800,000	-0,029	0,090
-365,956	-200,000	0,001	0,118
-364,942	-119,963	0,049	0,006
-363,927	-149,118	0,115	-0,007
-362,912	-91,317	-0,139	-0,029
-361,898	50,948	0,078	-0,054
-360,883	-200,000	0,042	-0,167
-359,869	-178,070	-0,066	0,001
-358,854	-93,785	0,087	-0,017
-357,839	173,298	0,066	0,070
-356,825	-71,189	-0,093	0,025
-355,810	48,593	-0,159	-0,109
-354,796	82,274	-0,105	-0,083
-353,781	214,320	-0,071	0,082
-352,766	70,189	-0,036	-0,027
-351,752	139,487	-0,055	-0,053
-350,737	-148,473	0,127	-0,007
-349,723	355,243	-0,051	0,074
-348,708	800,000	0,044	0,105
-347,693	800,000	-0,002	0,005
-346,679	192,368	0,052	-0,057
-345,664	63,279	-0,077	-0,056
-344,650	-47,529	0,098	0,035
-343,635	-2,621	0,066	-0,033
-342,620	81,184	0,122	0,096
-341,606	-200,000	0,007	0,030
-340,591	-70,369	0,049	0,013
-339,577	24,980	0,028	-0,017
-338,562	-155,553	0,055	0,003
-337,548	233,582	-0,096	0,116
-336,533	-121,904	0,156	0,019
-335,518	-200,000	-0,012	0,079
-334,504	-5,530	0,170	-0,085
-333,489	-22,277	-0,080	-0,035
-332,475	-200,000	-0,031	0,180
-331,460	-83,317	-0,088	0,020
-330,445	-200,000	0,027	-0,109
-329,431	84,031	-0,068	-0,054
-328,416	800,000	0,036	0,081
-327,402	669,752	-0,083	0,157
-326,387	286,673	0,037	-0,049
-325,372	-200,000	-0,012	0,077
-324,358	-200,000	0,002	-0,092
-323,343	-138,369	0,082	0,007
-322,329	800,000	-0,048	-0,146
-321,314	-100,415	0,118	0,021
-320,299	-200,000	0,017	0,076
-319,285	28,923	-0,180	0,111
-318,270	-200,000	-0,037	-0,121
-317,256	-94,005	-0,071	-0,014
-316,241	131,472	0,025	-0,023
-315,226	673,252	0,032	-0,060
-314,212	-200,000	-0,027	0,119
-313,197	-200,000	0,026	0,152
-312,183	-60,871	0,163	0,050
-311,168	313,701	-0,055	0,075
-310,153	455,203	0,083	-0,134
-309,139	320,777	0,106	-0,148
-308,124	-75,929	0,033	-0,009
-307,110	512,866	0,030	0,051
-306,095	62,099	0,055	0,040
-305,080	143,113	-0,085	-0,083
-304,066	-92,103	0,023	0,005
-303,051	46,424	-0,103	-0,069
-302,037	-39,281	-0,096	-0,037
-301,022	179,799	0,050	-0,053
-300,008	336,628	-0,053	0,075
-298,993	370,523	0,058	-0,086
-297,978	800,000	-0,029	0,088
-296,964	382,333	-0,032	0,048
-295,949	-200,000	-0,029	-0,131
-294,935	-1,597	-0,160	-0,082
-293,920	221,981	-0,045	0,053
-292,905	-12,395	-0,039	0,018
-291,891	-107,168	0,063	0,010
-290,876	800,000	0,012	-0,030
-289,862	467,637	-0,051	0,084
-288,847	-66,951	-0,046	-0,013
-287,832	-35,315	0,043	0,017
-286,818	407,483	0,028	-0,044
-285,803	800,000	0,052	0,140
-284,789	93,363	0,084	0,069
-283,774	-83,948	-0,077	0,018
-282,759	-200,000	-0,017	0,101
-281,745	14,138	-0,032	-0,018
-280,730	-86,494	-0,165	0,037
-279,716	-52,972	0,141	-0,047
-278,701	333,967	0,079	-0,111
-277,686	414,433	0,060	0,093
-276,672	-134,087	-0,102	-0,009
-275,657	-26,432	-0,059	-0,025
-274,643	-200,000	0,040	-0,136
-273,628	800,000	-0,030	-0,095
-272,613	64,310	-0,078	-0,057
-271,599	-8,417	-0,016	-0,008
-270,584	57,263	0,049	0,035
-269,570	-20,596	0,064	0,028
-268,555	800,000	-0,055	0,122
-267,540	26,725	-0,073	-0,044
-266,526	800,000	-0,029	-0,083
-265,511	-10,656	-0,053	0,026
-264,497	397,843	-0,011	0,017
-263,482	-32,558	-0,175	0,070
-262,467	385,998	0,004	-0,006
-261,453	58,996	0,088	-0,063
-260,438	-200,000	-0,004	0,079
-259,424	89,395	0,044	0,036
-258,409	-200,000	-0,010	-0,074
-257,395	501,919	0,046	0,077
-256,380	90,083	0,121	-0,099
-255,365	800,000	0,019	0,048
-254,351	-109,772	-0,128	-0,019
-253,336	235,364	0,007	-0,008
-252,322	107,328	-0,097	0,083
-251,307	357,767	0,043	-0,062
-250,292	87,868	0,207	0,167
-249,278	135,532	0,051	0,048
-248,263	-54,369	0,134	-0,044
-247,249	45,661	-0,154	0,103
-246,234	33,623	-0,026	0,017
-245,219	408,792	-0,048	0,074
-244,205	-122,467	-0,007	0,001
-243,190	68,054	-0,063	0,046
-242,176	197,706	0,084	0,094
-241,161	641,467	0,070	0,131
-240,146	-200,000	0,004	-0,095
-239,132	-35,945	-0,047	-0,018
-238,117	800,000	0,027	0,074
-237,103	-140,964	0,015	-0,001
-236,088	800,000	0,014	0,034
-235,073	-85,252	0,030	-0,007
-234,059	800,000	0,052	-0,151
-233,044	57,542	0,093	0,066
-232,030	704,297	-0,089	0,171
-231,015	-3,253	0,050	0,025
-230,000	102,285	-0,037	-0,031
-228,986	-70,254	-0,103	0,028
-227,971	221,835	0,113	0,132
-226,957	246,080	-0,073	0,090
-225,942	-200,000	0,035	0,137
-224,927	-52,858	0,059	0,020
-223,913	54,505	-0,099	-0,069
-222,898	-34,225	-0,171	-0,068
-221,884	-200,000	0,030	-0,129
-220,869	417,985	-0,036	0,056
-219,855	97,535	0,113	-0,094
-218,840	380,732	0,034	0,050
-217,825	-200,000	0,008	-0,075
-216,811	800,000	-0,059	-0,170
-215,796	32,042	-0,081	-0,051
-214,782	-200,000	0,011	-0,099
-213,767	-135,175	-0,031	-0,003
-212,752	-14,930	0,079	0,037
-211,738	-131,112	-0,041	0,004
-210,723	800,000	-0,035	-0,101
-209,709	800,000	-0,019	-0,044
-208,694	355,726	0,071	-0,102
-207,679	-56,489	-0,099	0,032
-206,665	-200,000	-0,006	0,085
-205,650	-55,275	0,115	0,037
-204,636	-200,000	0,001	-0,036
-203,621	-59,573	0,119	-0,037
-202,606	13,626	-0,136	-0,077
-201,592	800,000	-0,030	-0,086
-200,577	-200,000	0,036	0,182
-199,563	-8,026	0,206	-0,100
-198,548	368,437	0,062	0,092
-197,533	800,000	0,012	0,033
-196,519	260,800	0,024	-0,030
-195,504	435,360	0,026	0,041
-194,490	-200,000	-0,024	-0,145
-193,475	800,000	0,016	-0,036
-192,460	283,104	0,113	-0,148
-191,446	800,000	0,054	0,151
-190,431	-101,951	0,142	-0,025
-189,417	571,414	0,047	-0,083
-188,402	800,000	0,080	0,180
-187,387	68,438	-0,069	0,051
-186,373	-200,000	-0,008	0,042
-185,358	70,182	-0,033	0,024
-184,344	-200,000	0,006	0,036
-183,329	245,517	-0,055	0,068
-182,315	86,261	-0,082	0,066
-181,300	42,588	0,099	0,065
-180,285	-169,482	-0,047	-0,001
-179,271	205,451	-0,052	-0,058
-178,256	66,556	0,059	-0,044
-177,242	60,559	0,059	-0,043
-176,227	-200,000	-0,003	0,053
-175,212	304,098	0,045	0,061
-174,198	800,000	0,030	-0,083
-173,183	108,523	-0,051	-0,044
-172,169	-97,909	-0,031	0,006
-171,154	-200,000	0,006	0,041
-170,139	800,000	-0,018	0,042
-169,125	-161,057	0,034	-0,001
-168,110	245,531	-0,088	0,108
-167,096	149,732	0,042	0,042
-166,081	800,000	0,053	0,149
-165,066	-110,584	-0,165	0,025
-164,052	-107,913	0,116	-0,018
-163,037	-134,068	0,044	-0,004
-162,023	-85,207	0,086	0,019
-161,008	343,707	-0,062	-0,088
-159,993	-38,422	0,009	-0,003
-158,979	800,000	0,036	0,088
-157,964	-200,000	0,012	0,069
-156,950	-27,994	0,085	0,036
-155,935	4,824	0,025	0,013
-154,920	-105,989	0,076	0,012
-153,906	-200,000	0,009	0,081
-152,891	-62,882	-0,088	-0,026
-151,877	-139,971	0,126	0,009
-150,862	800,000	0,027	-0,078
-149,847	332,196	-0,043	-0,060
-148,833	-200,000	0,018	0,179
-147,818	101,874	0,129	0,109
-146,804	-22,004	0,046	0,020
-145,789	-77,859	0,018	0,004
-144,775	173,988	0,012	0,013
-143,760	-200,000	-0,001	-0,062
-142,745	-23,998	-0,174	-0,075
-141,731	-33,113	0,139	-0,056
-140,716	203,696	-0,034	0,038
-139,702	698,321	0,011	-0,022
-138,687	75,246	0,067	-0,051
-137,672	-200,000	-0,018	0,096
-136,658	-122,975	0,077	-0,009
-135,643	-200,000	0,028	0,121
-134,629	239,049	-0,031	0,037
-133,614	171,098	-0,116	0,121
-132,599	-200,000	0,004	0,053
-131,585	516,122	-0,048	0,082
-130,570	-109,499	0,102	-0,016
-129,556	460,918	-0,037	-0,061
-128,541	-29,871	-0,086	-0,035
-127,526	691,973	0,041	0,078
-126,512	-23,304	-0,019	-0,008
-125,497	-28,959	0,035	0,015
-124,483	112,763	0,028	0,024
-123,468	136,305	0,043	0,041
-122,453	33,335	-0,080	0,050
-121,439	75,410	0,025	-0,019
-120,424	800,000	-0,038	-0,107
-119,410	-141,864	0,063	-0,004
-118,395	-50,876	0,044	-0,015
-117,380	-200,000	0,021	0,137
-116,366	83,066	0,021	0,017
-115,351	800,000	-0,029	0,062
-114,337	145,493	-0,126	-0,122
-113,322	-10,799	0,029	0,014
-112,307	87,265	-0,080	-0,064
-111,293	800,000	0,056	0,135
-110,278	800,000	-0,032	0,064
-109,264	-200,000	0,005	0,039
-108,249	-200,000	0,002	-0,114
-107,234	142,971	-0,102	0,098
-106,220	-156,993	-0,098	-0,004
-105,205	-200,000	-0,033	0,110
-104,191	10,777	-0,111	0,061
-103,176	288,799	0,066	-0,087
-102,162	112,254	-0,090	0,079
-101,147	-200,000	-0,038	0,159
-100,132	800,000	0,030	-0,086
-99,118	260,161	0,030	-0,038
-98,103	-99,886	-0,050	-0,009
-97,089	-200,000	0,002	-0,047
-96,074	-200,000	0,027	-0,093
-95,059	-7,455	-0,110	0,054
-94,045	97,045	-0,009	0,007
-93,030	426,244	0,087	-0,136
-92,016	-200,000	0,003	-0,139
-91,001	-53,344	-0,049	0,016
-89,986	64,252	0,164	0,119
-88,972	-113,363	0,131	0,018
-87,957	800,000	-0,016	-0,034
-86,943	800,000	0,079	-0,210
-85,928	-39,948	-0,091	-0,034
-84,913	-64,005	0,032	-0,009
-83,899	-33,893	-0,089	-0,035
-82,884	-200,000	0,004	-0,016
-81,870	-68,834	-0,067	-0,019
-80,855	-200,000	-0,004	-0,019
-79,840	195,622	0,032	-0,035
-78,826	13,526	-0,047	0,027
-77,811	-4,432	-0,169	-0,084
-76,797	15,312	-0,137	-0,077
-75,782	105,487	0,160	0,136
-74,767	-200,000	0,047	0,205
-73,753	800,000	0,040	-0,112
-72,738	65,559	-0,035	-0,026
-71,724	-200,000	-0,011	-0,219
-70,709	132,807	0,073	-0,068
-69,694	136,995	-0,059	-0,056
-68,680	363,072	0,053	0,077
-67,665	3,126	-0,040	0,021
-66,651	800,000	0,007	0,016
-65,636	-200,000	-0,023	-0,084
-64,622	-200,000	0,025	0,133
-63,607	-45,251	0,143	-0,051
-62,592	-64,397	-0,076	0,022
-61,578	92,763	-0,159	0,130
-60,563	74,779	0,105	0,079
-59,549	287,420	-0,082	0,107
-58,534	-16,552	-1,762	-0,803
-57,519	800,000	-0,561	-1,276
-56,505	-200,000	-1,100	-4,752
-55,490	-129,747	0,661	0,065
-54,476	800,000	5,185	12,268
-53,461	-200,000	15,834	278,432
-52,446	-200,000	702,626	2247,803
-51,432	564,562	1618,765	2843,070
-50,417	121,416	1623,358	1459,962
-49,403	81,635	1284,013	1002,009
-48,388	36,757	1027,922	654,267
-47,373	21,625	989,806	579,987
-46,359	20,567	978,480	569,840
-45,344	18,879	974,467	561,933
-44,330	18,968	973,065	561,394
-43,315	18,736	971,298	559,592
-42,300	18,662	970,384	558,802
-41,286	18,671	969,302	558,186
-40,271	18,695	968,273	557,649
-39,257	18,674	967,489	557,106
-38,242	18,646	966,892	556,650
-37,227	18,673	965,931	556,163
-36,213	18,606	965,284	555,548
-35,198	18,614	964,166	554,909
-34,184	18,595	963,675	554,544
-33,169	18,648	962,505	554,021
-32,154	18,620	961,806	553,505
-31,140	18,666	960,880	553,099
-30,125	18,751	960,118	552,912
-29,111	18,716	959,224	552,263
-28,096	18,662	958,708	551,770
-27,082	18,612	958,023	551,194
-26,067	18,603	957,146	550,636
-25,052	18,610	956,395	550,204
-24,038	18,698	955,722	550,081
-23,023	18,617	955,210	549,504
-22,009	18,657	954,451	549,172
-20,994	18,701	953,689	548,855
-19,979	18,641	953,247	548,386
-18,965	18,587	952,731	547,893
-17,950	18,585	951,948	547,416
-16,936	18,624	951,355	547,176
-15,921	18,577	950,585	546,561
-14,906	18,579	949,836	546,116
-13,892	18,479	949,304	545,469
-12,877	18,466	948,735	545,077
-11,863	18,484	947,905	544,637
-10,848	18,452	947,553	544,310
-9,833	18,596	946,895	544,372
-8,819	18,568	946,243	543,885
-7,804	18,543	945,658	543,448
-6,790	18,557	945,050	543,123
-5,775	18,555	944,517	542,788
-4,760	18,560	943,961	542,461
-3,746	18,537	943,171	541,912
-2,731	18,369	942,545	540,999
-1,717	18,353	941,767	540,481
-0,702	18,401	940,957	540,147
0,313	18,106	940,718	539,887
1,327	21,224	938,996	548,724
2,342	30,358	796,063	489,509
3,356	27,373	449,016	271,609
4,371	-2,090	295,021	148,965
5,386	-6,198	276,365	135,633
6,400	-7,584	270,742	131,571
7,415	-7,896	268,224	130,049
8,429	-7,813	267,035	129,536
9,444	-7,657	266,034	129,183
10,459	-7,832	265,616	128,808
11,473	-7,937	264,790	128,300
12,488	-8,134	264,364	127,903
13,502	-8,295	263,807	127,476
14,517	-8,127	263,280	127,363
15,531	-8,162	262,971	127,170
16,546	-8,133	262,586	126,999
17,561	-8,102	262,282	126,868
18,575	-8,145	262,032	126,697
19,590	-8,360	261,587	126,278
20,604	-8,024	261,258	126,409
21,619	-8,132	260,867	126,111
22,634	-7,991	260,520	126,059
23,648	-8,082	260,255	125,838
24,663	-8,149	260,040	125,663
25,677	-8,175	259,798	125,512
26,692	-8,242	259,559	125,325
27,707	-8,251	259,311	125,186
28,721	-8,150	259,042	125,135
29,736	-8,159	258,635	124,919
30,750	-8,271	258,484	124,736
31,765	-8,214	258,147	124,613
32,780	-8,121	257,839	124,535
33,794	-8,247	257,726	124,358
34,809	-8,191	257,522	124,298
35,823	-8,165	257,307	124,206
36,838	-8,361	257,035	123,891
37,853	-8,399	256,777	123,722
38,867	-8,139	256,457	123,786
39,882	-8,192	256,306	123,655
40,896	-8,218	256,188	123,564
41,911	-8,461	255,907	123,204
42,926	-8,415	255,597	123,084
43,940	-8,418	255,548	123,047
44,955	-8,427	255,339	122,928
45,969	-8,542	255,119	122,711
46,984	-8,775	254,885	122,383
47,999	-8,824	254,409	122,101
49,013	-9,133	254,180	121,711
50,028	-8,962	253,976	121,751
51,042	-9,176	253,645	121,396
52,057	-9,192	253,433	121,269
53,071	-9,009	253,234	121,322
54,086	-9,014	253,153	121,269
55,101	-8,873	252,994	121,304
56,115	-8,516	252,705	121,463
57,130	-8,236	252,798	121,740
58,144	-8,023	252,677	121,854
59,159	-8,096	252,524	121,708
60,174	-8,084	252,012	121,460
61,188	-8,231	252,000	121,316
62,203	-8,162	251,985	121,358
63,217	-8,224	251,582	121,099
64,232	-8,268	251,259	120,895
65,247	-7,918	251,207	121,161
66,261	-8,151	250,944	120,823
67,276	-8,460	250,638	120,400
68,290	-8,588	250,390	120,160
69,305	-8,663	250,117	119,954
70,320	-8,623	249,914	119,881
71,334	-8,369	249,755	120,011
72,349	-8,233	249,736	120,107
73,363	-8,014	249,546	120,192
74,378	-8,257	249,431	119,918
75,393	-8,307	249,163	119,736
76,407	-8,226	248,862	119,650
77,422	-8,296	248,741	119,522
78,436	-7,998	248,431	119,614
79,451	-8,099	248,252	119,432
80,466	-8,357	248,073	119,117
81,480	-8,678	247,933	118,767
82,495	-8,493	247,621	118,763
83,509	-8,488	247,523	118,710
84,524	-8,498	247,191	118,531
85,539	-8,752	247,054	118,241
86,553	-8,681	246,841	118,188
87,568	-8,415	246,612	118,292
88,582	-8,505	246,512	118,158
89,597	-8,806	246,243	117,766
90,611	-8,527	246,272	118,004
91,626	-8,322	245,977	118,024
92,641	-8,227	245,745	117,982
93,655	-8,334	245,470	117,749
94,670	-8,554	245,416	117,528
95,684	-8,522	245,256	117,468
96,699	-8,465	245,027	117,395
97,714	-8,555	244,837	117,219
98,728	-8,695	244,446	116,904
99,743	-8,711	244,395	116,856
100,757	-8,759	244,225	116,725
101,772	-8,697	244,002	116,660
102,787	-8,525	243,991	116,787
103,801	-8,463	243,744	116,710
104,816	-8,383	243,636	116,714
105,830	-8,241	243,407	116,712
106,845	-8,092	243,283	116,766
107,860	-8,195	243,126	116,595
108,874	-8,501	242,872	116,209
109,889	-8,493	242,565	116,058
110,903	-8,435	242,388	116,012
111,918	-8,452	242,247	115,919
112,933	-8,420	242,048	115,840
113,947	-8,374	241,971	115,831
114,962	-8,392	241,734	115,693
115,976	-8,300	241,595	115,691
116,991	-8,272	241,424	115,622
118,006	-8,350	241,196	115,438
119,020	-8,347	241,192	115,429
120,035	-8,361	240,983	115,307
121,049	-8,115	240,729	115,377
122,064	-8,150	240,667	115,308
123,079	-8,486	240,550	114,966
124,093	-8,506	240,218	114,781
125,108	-8,548	240,046	114,655
126,122	-8,701	239,733	114,370
127,137	-8,757	239,587	114,244
128,151	-8,719	239,368	114,161
129,166	-8,702	239,281	114,123
130,181	-8,622	239,033	114,059
131,195	-8,655	238,892	113,955
132,210	-8,458	238,656	113,992
133,224	-8,260	238,485	114,061
134,239	-8,278	238,418	114,005
135,254	-8,323	238,302	113,903
136,268	-8,319	238,024	113,762
137,283	-8,625	237,723	113,361
138,297	-8,801	237,593	113,147
139,312	-8,798	237,436	113,065
140,327	-8,619	237,349	113,157
141,341	-8,069	237,270	113,553
142,356	-7,951	237,136	113,574
143,370	-8,034	237,035	113,449
144,385	-7,965	236,882	113,421
145,400	-8,027	236,715	113,282
146,414	-7,780	236,438	113,337
147,429	-7,958	236,230	113,084
148,443	-8,122	236,044	112,854
149,458	-8,133	235,934	112,782
150,473	-7,955	235,806	112,853
151,487	-7,877	235,550	112,783
152,502	-8,012	235,484	112,634
153,516	-8,109	235,445	112,527
154,531	-7,968	235,251	112,537
155,546	-8,045	235,003	112,347
156,560	-8,167	234,804	112,144
157,575	-8,314	234,653	111,946
158,589	-8,347	234,423	111,800
159,604	-8,147	234,424	111,949
160,619	-7,719	234,094	112,121
161,633	-7,741	234,028	112,062
162,648	-7,796	233,841	111,920
163,662	-8,102	233,684	111,592
164,677	-8,041	233,430	111,509
165,692	-7,854	233,373	111,620
166,706	-7,907	233,299	111,532
167,721	-7,731	233,014	111,525
168,735	-7,757	232,906	111,443
169,750	-7,751	232,749	111,362
170,764	-7,988	232,677	111,131
171,779	-7,848	232,457	111,126
172,794	-7,793	232,319	111,094
173,808	-7,956	232,101	110,852
174,823	-8,519	231,780	110,246
175,837	-8,535	231,608	110,142
176,852	-8,169	231,626	110,428
177,867	-7,983	231,546	110,526
178,881	-8,068	231,524	110,439
179,896	-7,719	231,194	110,545
180,910	-7,906	231,167	110,376
181,925	-7,866	231,004	110,320
182,940	-7,775	230,770	110,269
183,954	-7,697	230,500	110,191
184,969	-7,680	230,411	110,152
185,983	-7,756	230,256	110,009
186,998	-7,602	230,142	110,064
188,013	-7,478	229,944	110,056
189,027	-7,825	229,916	109,763
190,042	-7,870	229,801	109,664
191,056	-7,635	229,537	109,710
192,071	-7,649	229,497	109,671
193,086	-7,689	229,241	109,507
194,100	-7,511	229,044	109,541
195,115	-7,929	228,763	109,074
196,129	-8,396	228,555	108,604
197,144	-4,006	230,204	112,794
198,159	1,535	231,687	117,837
199,173	3,477	231,871	119,435
200,188	3,471	231,877	119,423
201,202	3,448	231,805	119,356
202,217	3,707	231,679	119,483
203,232	4,145	231,561	119,752
204,246	4,413	231,339	119,835
205,261	4,274	231,359	119,727
206,275	4,286	231,245	119,666
207,290	4,444	231,067	119,685
208,304	4,370	230,872	119,516
209,319	4,203	230,864	119,372
210,334	4,139	230,554	119,152
211,348	3,952	230,325	118,878
212,363	3,682	230,050	118,517
213,377	3,515	229,820	118,260
214,392	3,521	229,665	118,173
215,407	3,523	229,653	118,159
216,421	3,598	229,520	118,138
217,436	3,315	229,341	117,817
218,450	3,284	228,982	117,598
219,465	3,289	228,857	117,527
220,480	3,256	228,816	117,471
221,494	3,473	228,608	117,520
222,509	3,518	228,634	117,557
223,523	3,563	228,369	117,445
224,538	3,404	228,176	117,213
225,553	3,562	228,100	117,285
226,567	3,746	228,015	117,372
227,582	3,756	227,955	117,338
228,596	4,082	227,749	117,470
229,611	3,682	227,580	117,067
230,626	3,181	227,393	116,579
231,640	3,301	227,271	116,598
232,655	3,504	227,101	116,654
233,669	3,994	227,079	117,005
234,684	4,139	226,978	117,053
235,699	3,924	226,823	116,799
236,713	3,690	226,466	116,427
237,728	3,292	226,515	116,140
238,742	3,470	226,131	116,068
239,757	3,363	226,012	115,915
240,772	3,414	225,907	115,890
241,786	3,520	225,728	115,868
242,801	3,477	225,741	115,832
243,815	3,957	225,602	116,112
244,830	4,006	225,253	115,959
245,844	3,688	225,044	115,602
246,859	3,591	224,982	115,487
247,874	3,424	225,063	115,393
248,888	3,637	224,777	115,396
249,903	3,806	224,537	115,389
250,917	3,667	224,387	115,198
251,932	3,301	224,388	114,913
252,947	3,406	224,194	114,882
253,961	3,403	223,973	114,756
254,976	3,423	223,829	114,688
255,990	3,532	223,902	114,796
257,005	3,505	223,730	114,678
258,020	3,437	223,615	114,557
259,034	3,887	223,471	114,810
260,049	3,705	223,270	114,561
261,063	3,593	223,115	114,387
262,078	4,006	222,780	114,512
263,093	3,950	222,733	114,437
264,107	3,820	222,587	114,254
265,122	3,790	222,586	114,221
266,136	3,949	222,525	114,298
267,151	3,847	222,171	114,031
268,166	3,669	221,988	113,794
269,180	3,331	221,684	113,378
270,195	3,551	221,576	113,476
271,209	3,397	221,482	113,303
272,224	3,395	221,428	113,264
273,239	3,427	221,440	113,284
274,253	3,430	221,087	113,095
275,268	3,238	220,940	112,869
276,282	3,371	220,831	112,901
277,297	3,173	220,518	112,585
278,312	3,080	220,573	112,535
279,326	3,340	220,488	112,672
280,341	3,557	220,258	112,704
281,355	3,595	220,107	112,645
282,370	3,445	220,017	112,479
283,384	3,232	219,883	112,244
284,399	2,998	219,689	111,963
285,414	3,102	219,607	111,988
286,428	3,433	219,440	112,135
287,443	3,586	219,410	112,222
288,457	3,447	219,217	112,012
289,472	3,651	219,020	112,049
290,487	2,890	218,752	111,348
291,501	3,174	218,489	111,411
292,516	3,230	218,453	111,423
293,530	3,330	218,302	111,409
294,545	3,084	218,351	111,245
295,560	3,396	218,179	111,374
296,574	3,274	218,100	111,235
297,589	3,442	217,802	111,196
298,603	3,601	217,796	111,298
299,618	3,491	217,721	111,170
300,633	3,450	217,596	111,066
301,647	3,767	217,504	111,239
302,662	3,770	217,306	111,131
303,676	3,701	217,099	110,964
304,691	3,838	217,059	111,033
305,706	3,780	216,870	110,884
306,720	3,899	216,681	110,864
307,735	3,524	216,436	110,458
308,749	3,174	216,477	110,218
309,764	3,661	216,253	110,444
310,779	3,544	216,199	110,322
311,793	3,746	216,001	110,357
312,808	3,803	215,957	110,365
313,822	3,852	215,679	110,249
314,837	3,336	215,699	109,879
315,852	3,214	215,435	109,647
316,866	3,623	215,178	109,799
317,881	3,593	215,255	109,807
318,895	3,572	215,190	109,749
319,910	3,384	214,951	109,484
320,925	3,047	214,664	109,087
321,939	2,903	214,416	108,849
322,954	3,234	214,331	109,032
323,968	3,641	214,320	109,306
324,983	3,696	214,201	109,275
325,997	3,671	214,214	109,253
327,012	3,623	213,925	109,062
328,027	3,703	213,785	109,039
329,041	4,010	213,638	109,171
330,056	3,991	213,577	109,117
331,070	3,765	213,401	108,857
332,085	3,357	213,107	108,408
333,100	3,615	213,043	108,549
334,114	3,735	212,922	108,562
335,129	3,652	212,745	108,404
336,143	3,324	212,655	108,117
337,158	3,329	212,513	108,038
338,173	3,227	212,484	107,942
339,187	3,181	212,342	107,828
340,202	3,125	212,068	107,640
341,216	3,011	211,950	107,490
342,231	3,317	211,818	107,629
343,246	3,404	211,764	107,653
344,260	3,432	211,496	107,526
345,275	3,584	211,372	107,560
346,289	3,527	211,361	107,505
347,304	3,644	211,312	107,553
348,319	3,594	211,023	107,361
349,333	3,475	210,979	107,246
350,348	3,396	210,934	107,158
351,362	3,730	210,695	107,261
352,377	3,507	210,659	107,077
353,392	3,399	210,422	106,872
354,406	3,388	210,251	106,767
355,421	195,612	1342,082	1428,632
356,435	156,217	1480,006	1428,670
