DTS Sentinel unit serial number:	SN410029Multiplexer serial number:	ORYXHardware model number:	OX2-SRSoftware version number:	ORYX F/W v4,00 Oryx Data Collector v3.7.2.0data status	okinstallation	B6 Nyhavnadifferential loss correction	single-endedforward channel	channel 2reverse channel	N/Adate	2023/12/08time	00:50:08forward acquisition time	300,00reverse acquisition time	0,00gamma	499,1914k internal	0,3165k external	0,3165temperature offset calibration	1,0000default loss term (dB/km)	0,3820temperature slope calibration	1,0000multiplexer offset coefficient	1,0000multiplexer slope coefficient	1,0000fibre end	0,00T internal ref (°C)	13,30T ext. ref 1 (°C)	-3,60T ext. ref 2 (°C)	-3,58length (m)	temperature (°C)	Stokes	anti-Stokes-744,400	800,000	0,048	-0,114
-743,385	-84,336	-0,304	0,070
-742,371	-200,000	0,012	0,058
-741,356	-83,204	-0,241	0,057
-740,342	439,708	0,075	0,121
-739,327	-155,922	-0,393	-0,018
-738,312	611,005	0,076	0,139
-737,298	-159,304	-0,369	-0,015
-736,283	-37,578	0,118	0,046
-735,269	-100,340	-0,348	0,063
-734,254	-200,000	0,162	-0,001
-733,239	-15,491	-0,599	-0,280
-732,225	-74,412	0,283	-0,075
-731,210	13,214	0,078	-0,044
-730,196	800,000	-0,013	-0,029
-729,181	-95,217	-0,166	0,033
-728,167	15,957	-0,118	0,068
-727,152	10,124	-0,079	0,044
-726,137	800,000	-0,022	0,046
-725,123	-25,016	-0,078	-0,034
-724,108	-113,102	-0,089	-0,013
-723,094	87,976	-0,069	0,057
-722,079	315,756	0,028	-0,038
-721,064	-200,000	0,009	-0,177
-720,050	16,802	0,082	-0,047
-719,035	230,920	-0,007	-0,008
-718,021	270,890	-0,034	0,044
-717,006	-54,795	0,085	-0,028
-715,991	139,618	-0,091	-0,088
-714,977	733,285	-0,027	0,054
-713,962	19,257	-0,080	-0,047
-712,948	800,000	0,041	0,110
-711,933	243,043	-0,065	-0,081
-710,918	-56,450	-0,057	0,019
-709,904	-200,000	-0,005	-0,110
-708,889	117,903	-0,058	0,053
-707,875	-84,818	-0,123	-0,028
-706,860	-200,000	-0,010	-0,046
-705,845	16,093	0,162	-0,093
-704,831	-200,000	-0,002	0,064
-703,816	-132,031	0,212	0,020
-702,802	414,533	0,121	0,190
-701,787	515,105	-0,068	-0,116
-700,772	-90,539	0,148	-0,031
-699,758	-200,000	-0,011	0,044
-698,743	-200,000	0,032	0,108
-697,729	-124,478	-0,029	-0,003
-696,714	800,000	-0,058	-0,119
-695,699	800,000	0,018	-0,044
-694,685	-200,000	-0,010	-0,137
-693,670	800,000	-0,009	0,026
-692,656	800,000	0,035	0,082
-691,641	-73,615	0,144	0,038
-690,627	-166,807	-0,130	0,004
-689,612	183,719	-0,068	0,073
-688,597	800,000	0,012	0,031
-687,583	-6,153	0,081	-0,040
-686,568	-200,000	0,003	-0,085
-685,554	-6,649	-0,013	0,007
-684,539	-125,517	0,150	0,016
-683,524	172,106	0,047	-0,050
-682,510	144,694	-0,076	0,074
-681,495	-127,489	-0,108	0,011
-680,481	72,216	-0,036	0,028
-679,466	-200,000	0,011	-0,109
-678,451	163,145	0,048	-0,050
-677,437	-200,000	-0,002	-0,013
-676,422	800,000	0,029	0,092
-675,408	-4,649	-0,046	-0,023
-674,393	690,224	-0,040	0,077
-673,378	-200,000	0,011	-0,065
-672,364	-70,893	-0,040	-0,011
-671,349	66,552	-0,070	0,052
-670,335	159,939	-0,049	-0,050
-669,320	-200,000	-0,002	0,046
-668,305	-60,094	-0,079	-0,025
-667,291	11,643	-0,043	-0,024
-666,276	-131,090	-0,025	-0,002
-665,262	212,807	0,058	0,067
-664,247	-81,932	0,105	-0,025
-663,232	-65,838	0,106	0,031
-662,218	-200,000	-0,029	0,095
-661,203	-106,452	0,159	0,026
-660,189	800,000	-0,048	-0,125
-659,174	-200,000	0,014	-0,152
-658,159	-22,046	0,043	0,019
-657,145	453,218	-0,027	0,043
-656,130	102,893	0,186	-0,160
-655,116	-115,602	0,006	0,001
-654,101	-200,000	-0,025	0,088
-653,086	800,000	-0,024	0,055
-652,072	-200,000	0,003	-0,066
-651,057	112,213	-0,064	-0,057
-650,043	800,000	-0,058	-0,146
-649,028	99,908	-0,054	0,046
-648,014	-88,807	0,116	0,025
-646,999	-200,000	-0,004	-0,025
-645,984	-200,000	-0,011	-0,051
-644,970	-200,000	0,007	-0,071
-643,955	-200,000	-0,012	0,130
-642,941	183,001	0,048	-0,052
-641,926	-200,000	-0,002	0,185
-640,911	148,528	0,068	0,067
-639,897	800,000	0,010	0,023
-638,882	-171,753	-0,037	0,001
-637,868	-83,560	0,115	-0,027
-636,853	-200,000	0,011	-0,096
-635,838	-200,000	0,013	0,056
-634,824	-138,860	-0,063	0,005
-633,809	-200,000	-0,003	0,067
-632,795	-51,527	0,103	0,035
-631,780	-42,896	0,141	0,052
-630,765	-97,770	-0,110	-0,021
-629,751	-200,000	0,027	-0,139
-628,736	800,000	0,041	0,119
-627,722	297,800	-0,030	-0,041
-626,707	-85,095	-0,027	-0,006
-625,692	-17,782	-0,056	0,025
-624,678	42,615	-0,023	-0,015
-623,663	-200,000	-0,033	-0,139
-622,649	106,905	0,079	-0,068
-621,634	309,866	0,032	-0,044
-620,619	-200,000	-0,022	-0,081
-619,605	168,841	0,067	0,070
-618,590	18,318	-0,026	0,015
-617,576	192,972	-0,057	0,063
-616,561	-200,000	0,000	-0,033
-615,546	-22,765	0,105	0,046
-614,532	70,099	-0,052	0,039
-613,517	-200,000	-0,051	-0,180
-612,503	-13,523	0,109	-0,051
-611,488	-200,000	-0,010	0,104
-610,474	11,009	-0,134	-0,075
-609,459	395,029	0,059	0,090
-608,444	-55,748	-0,089	-0,029
-607,430	-142,248	-0,203	-0,014
-606,415	133,960	0,098	-0,093
-605,401	194,562	0,140	-0,156
-604,386	487,199	-0,073	-0,123
-603,371	-200,000	0,016	0,072
-602,357	800,000	-0,047	-0,109
-601,342	-169,793	-0,164	-0,004
-600,328	277,494	-0,060	0,078
-599,313	529,135	-0,045	0,079
-598,298	733,795	0,032	-0,062
-597,284	76,911	0,110	0,085
-596,269	115,050	-0,029	-0,026
-595,255	461,524	-0,044	0,072
-594,240	30,459	-0,064	0,040
-593,225	261,381	-0,022	-0,028
-592,211	144,266	0,098	-0,096
-591,196	-185,263	0,086	0,001
-590,182	800,000	0,049	0,109
-589,167	-200,000	0,018	0,212
-588,152	453,705	-0,070	-0,114
-587,138	8,557	0,058	-0,032
-586,123	230,832	-0,116	0,139
-585,109	-105,286	-0,070	0,012
-584,094	800,000	0,041	0,130
-583,079	-105,851	0,191	-0,031
-582,065	-123,808	0,060	-0,007
-581,050	0,788	0,038	0,020
-580,036	800,000	-0,021	-0,050
-579,021	322,417	0,009	0,013
-578,006	11,807	-0,012	0,007
-576,992	-200,000	0,019	-0,069
-575,977	69,079	0,121	-0,091
-574,963	313,489	0,062	0,086
-573,948	-105,935	-0,120	-0,020
-572,934	-48,505	-0,200	-0,070
-571,919	228,102	0,013	-0,016
-570,904	543,318	0,026	0,045
-569,890	-163,417	-0,076	0,003
-568,875	800,000	0,024	0,049
-567,861	-30,745	-0,097	0,040
-566,846	598,839	0,037	0,068
-565,831	296,083	-0,089	0,119
-564,817	277,488	-0,041	-0,054
-563,802	62,752	-0,087	-0,064
-562,788	62,619	0,067	-0,049
-561,773	-70,388	0,054	0,015
-560,758	5,257	0,165	-0,089
-559,744	800,000	-0,043	0,120
-558,729	-45,682	0,106	0,038
-557,715	-200,000	-0,016	-0,056
-556,700	211,097	0,122	0,140
-555,685	-127,108	0,131	-0,014
-554,671	357,479	0,025	0,036
-553,656	-95,068	0,070	-0,014
-552,642	-200,000	0,034	0,133
-551,627	150,779	-0,060	-0,059
-550,612	162,207	-0,133	0,136
-549,598	525,775	0,012	-0,021
-548,583	800,000	-0,030	0,067
-547,569	-120,095	0,040	0,005
-546,554	-35,230	-0,053	0,021
-545,539	51,478	0,092	-0,064
-544,525	-200,000	0,010	-0,091
-543,510	20,578	0,052	0,030
-542,496	-200,000	0,002	-0,144
-541,481	-69,014	-0,171	-0,048
-540,466	151,657	-0,091	0,091
-539,452	-17,452	-0,048	-0,022
-538,437	348,958	-0,041	0,059
-537,423	108,065	-0,026	-0,023
-536,408	397,903	-0,032	0,049
-535,393	-37,470	0,115	0,045
-534,379	-200,000	-0,037	-0,155
-533,364	-200,000	-0,015	-0,050
-532,350	221,566	0,084	-0,099
-531,335	3,387	0,096	0,051
-530,321	800,000	-0,053	0,111
-529,306	35,308	-0,037	0,024
-528,291	252,246	-0,087	-0,108
-527,277	-200,000	-0,009	0,053
-526,262	-166,270	-0,144	-0,004
-525,248	-115,360	0,133	-0,018
-524,233	-143,840	-0,132	0,009
-523,218	-162,079	-0,075	-0,003
-522,204	81,801	-0,063	0,050
-521,189	800,000	-0,032	-0,072
-520,175	-200,000	-0,004	-0,029
-519,160	-9,494	-0,078	-0,038
-518,145	-83,635	0,054	-0,013
-517,131	800,000	-0,046	0,100
-516,116	-200,000	-0,019	0,103
-515,102	417,540	-0,072	-0,112
-514,087	12,394	-0,064	-0,036
-513,072	-52,390	0,018	0,006
-512,058	-95,668	0,217	-0,042
-511,043	-130,620	0,122	-0,012
-510,029	57,085	-0,079	-0,056
-509,014	-97,319	0,142	0,027
-507,999	-79,562	-0,078	-0,019
-506,985	-200,000	0,001	-0,035
-505,970	-200,000	0,005	-0,088
-504,956	185,004	0,061	-0,066
-503,941	-200,000	0,014	-0,072
-502,926	455,955	-0,025	-0,041
-501,912	-200,000	-0,016	0,054
-500,897	-137,226	0,136	0,011
-499,883	10,555	-0,175	-0,097
-498,868	-6,751	-0,160	-0,079
-497,853	-200,000	0,013	0,069
-496,839	-109,083	0,113	0,017
-495,824	-24,001	0,074	0,032
-494,810	-200,000	0,023	0,156
-493,795	-200,000	-0,006	-0,035
-492,781	449,767	0,088	-0,142
-491,766	702,948	0,006	-0,011
-490,751	-76,456	-0,069	0,018
-489,737	-200,000	-0,001	0,207
-488,722	83,428	-0,067	0,053
-487,708	-137,686	0,124	0,010
-486,693	-96,506	-0,062	-0,012
-485,678	-200,000	-0,008	0,055
-484,664	-200,000	-0,000	0,060
-483,649	130,778	-0,067	-0,062
-482,635	170,587	-0,092	-0,096
-481,620	688,186	-0,060	-0,115
-480,605	374,253	-0,041	0,061
-479,591	-200,000	-0,003	0,052
-478,576	471,010	0,018	-0,030
-477,562	-154,867	-0,097	-0,005
-476,547	235,835	-0,055	-0,067
-475,532	800,000	0,018	-0,047
-474,518	-200,000	-0,007	-0,042
-473,503	54,362	0,077	0,054
-472,489	-138,985	-0,136	-0,011
-471,474	9,499	0,091	0,050
-470,459	211,396	-0,008	-0,009
-469,445	-99,061	-0,059	-0,011
-468,430	169,359	0,091	0,095
-467,416	-200,000	-0,020	-0,155
-466,401	138,266	0,099	-0,095
-465,386	-126,409	-0,075	-0,008
-464,372	-200,000	-0,010	0,063
-463,357	37,154	-0,140	-0,090
-462,343	-200,000	-0,004	0,021
-461,328	-5,115	-0,163	-0,081
-460,313	800,000	-0,043	0,088
-459,299	708,424	-0,021	-0,041
-458,284	-78,582	-0,107	0,026
-457,270	-18,996	-0,061	0,027
-456,255	800,000	0,032	0,071
-455,241	-24,867	0,048	-0,021
-454,226	800,000	-0,031	-0,086
-453,211	-200,000	-0,032	-0,128
-452,197	-2,323	0,068	-0,035
-451,182	290,904	0,072	0,095
-450,168	-24,940	-0,100	0,043
-449,153	-60,194	0,056	-0,017
-448,138	-49,159	0,097	-0,034
-447,124	179,244	-0,084	-0,089
-446,109	-81,173	0,125	0,030
-445,095	4,894	0,125	0,066
-444,080	-70,960	-0,169	-0,046
-443,065	-200,000	0,007	0,064
-442,051	35,652	-0,159	-0,101
-441,036	171,180	-0,043	-0,045
-440,022	800,000	-0,011	0,028
-439,007	-3,031	-0,034	0,017
-437,992	-64,541	0,071	-0,021
-436,978	-200,000	-0,026	0,087
-435,963	131,711	-0,016	0,015
-434,949	422,224	-0,021	-0,033
-433,934	229,427	-0,073	0,087
-432,919	-70,444	-0,116	0,032
-431,905	-60,152	-0,077	0,024
-430,890	613,983	-0,022	-0,040
-429,876	-179,545	0,077	0,001
-428,861	96,228	-0,141	-0,117
-427,846	-13,008	0,051	-0,024
-426,832	66,676	0,012	-0,009
-425,817	-200,000	-0,001	0,048
-424,803	-92,450	-0,075	0,015
-423,788	135,281	-0,070	0,066
-422,773	-200,000	0,038	0,149
-421,759	234,378	-0,039	0,046
-420,744	148,232	-0,106	-0,104
-419,730	166,173	-0,099	-0,102
-418,715	-60,596	0,040	-0,012
-417,701	406,520	-0,047	-0,072
-416,686	-200,000	-0,009	-0,141
-415,671	483,019	0,026	0,043
-414,657	-70,656	-0,133	0,036
-413,642	-200,000	0,019	0,079
-412,628	121,839	-0,052	0,047
-411,613	54,756	-0,052	0,037
-410,598	16,333	-0,019	-0,011
-409,584	-38,881	-0,128	-0,049
-408,569	-200,000	-0,014	-0,067
-407,555	716,878	-0,129	0,250
-406,540	501,108	0,063	-0,107
-405,525	-193,499	-0,104	-0,001
-404,511	-159,671	-0,058	-0,002
-403,496	-200,000	0,011	0,140
-402,482	-105,521	0,181	0,030
-401,467	-200,000	-0,029	0,109
-400,452	137,839	0,149	0,142
-399,438	190,961	0,017	-0,019
-398,423	70,527	-0,116	0,087
-397,409	800,000	-0,041	-0,117
-396,394	-76,189	-0,112	0,028
-395,379	590,556	-0,021	-0,038
-394,365	-200,000	-0,005	0,096
-393,350	800,000	0,042	-0,101
-392,336	1,865	0,094	-0,049
-391,321	-200,000	0,005	-0,061
-390,306	185,495	-0,074	0,080
-389,292	800,000	-0,077	-0,166
-388,277	360,034	0,062	-0,091
-387,263	-131,952	0,200	0,019
-386,248	-79,318	0,052	-0,013
-385,233	800,000	-0,010	-0,030
-384,219	800,000	-0,041	-0,098
-383,204	784,083	0,064	-0,128
-382,190	147,634	-0,052	-0,051
-381,175	358,286	-0,094	-0,136
-380,160	-81,407	0,123	-0,029
-379,146	-200,000	-0,022	-0,093
-378,131	219,042	0,036	-0,042
-377,117	800,000	-0,044	0,101
-376,102	412,230	-0,039	-0,060
-375,088	203,254	0,080	-0,089
-374,073	208,620	-0,048	-0,054
-373,058	341,551	0,065	-0,092
-372,044	-166,593	0,023	-0,001
-371,029	435,238	-0,076	0,120
-370,015	-58,976	0,086	0,027
-369,000	473,396	-0,030	-0,049
-367,985	81,767	-0,070	0,055
-366,971	62,403	-0,018	0,013
-365,956	-200,000	0,016	0,060
-364,942	194,962	0,124	0,137
-363,927	-86,791	0,046	0,010
-362,912	-200,000	0,031	0,102
-361,898	-200,000	-0,008	-0,046
-360,883	669,809	0,014	0,027
-359,869	50,590	0,062	-0,042
-358,854	-96,728	-0,096	-0,018
-357,839	-200,000	-0,001	-0,019
-356,825	-70,955	-0,152	0,041
-355,810	-200,000	-0,006	0,067
-354,796	-166,192	-0,021	-0,001
-353,781	-44,729	0,067	0,024
-352,766	-200,000	0,017	-0,166
-351,752	735,343	0,027	0,052
-350,737	110,557	-0,050	0,043
-349,723	27,885	0,055	0,034
-348,708	27,085	0,136	0,082
-347,693	-157,820	0,048	0,002
-346,679	-155,015	0,104	-0,005
-345,664	129,478	0,093	-0,086
-344,650	35,599	0,026	-0,016
-343,635	59,737	0,098	0,070
-342,620	-22,120	-0,052	0,023
-341,606	-69,557	0,081	0,022
-340,591	-200,000	0,014	0,070
-339,577	800,000	0,037	-0,086
-338,562	618,225	-0,056	0,102
-337,548	16,794	-0,040	-0,023
-336,533	318,825	0,028	0,039
-335,518	-200,000	0,003	0,096
-334,504	-14,628	-0,025	-0,012
-333,489	566,621	-0,013	-0,022
-332,475	560,531	0,029	0,051
-331,460	-185,918	-0,085	-0,001
-330,445	-200,000	-0,024	0,128
-329,431	256,560	-0,051	0,064
-328,416	800,000	-0,058	0,173
-327,402	21,614	0,067	-0,040
-326,387	-83,045	-0,054	-0,012
-325,372	-94,838	-0,176	-0,034
-324,358	86,658	-0,142	-0,113
-323,343	800,000	-0,035	-0,089
-322,329	343,532	0,116	-0,165
-321,314	103,261	0,151	-0,128
-320,299	-8,675	0,027	0,013
-319,285	204,631	-0,027	0,030
-318,270	30,293	-0,033	0,020
-317,256	-183,796	-0,111	-0,001
-316,241	-7,697	0,015	-0,007
-315,226	440,332	-0,023	-0,036
-314,212	22,247	-0,014	-0,008
-313,197	-21,224	0,008	0,003
-312,183	28,494	-0,080	0,049
-311,168	-41,737	-0,100	0,037
-310,153	109,076	-0,048	-0,041
-309,139	-74,937	-0,100	-0,026
-308,124	224,991	-0,024	0,028
-307,110	177,948	0,077	0,081
-306,095	17,144	0,109	0,062
-305,080	18,446	0,109	0,063
-304,066	416,733	-0,062	-0,096
-303,051	710,677	-0,033	-0,063
-302,037	145,928	0,073	-0,071
-301,022	34,343	-0,060	-0,038
-300,008	72,423	0,100	0,075
-298,993	-200,000	0,033	0,110
-297,978	340,942	0,020	0,029
-296,964	-136,332	-0,110	0,009
-295,949	725,182	0,078	0,151
-294,935	800,000	-0,089	0,229
-293,920	55,229	0,157	-0,110
-292,905	-200,000	0,028	-0,140
-291,891	-200,000	0,007	0,178
-290,876	98,788	0,085	0,071
-289,862	0,719	-0,055	-0,029
-288,847	-200,000	-0,002	-0,046
-287,832	-200,000	0,005	-0,086
-286,818	327,794	0,031	-0,044
-285,803	357,050	0,021	-0,030
-284,789	450,486	0,043	-0,069
-283,774	800,000	0,090	-0,191
-282,759	182,724	-0,088	0,094
-281,745	-200,000	0,030	-0,123
-280,730	-200,000	-0,004	-0,037
-279,716	-50,626	0,142	0,048
-278,701	89,207	0,062	0,050
-277,686	40,575	-0,152	0,099
-276,672	800,000	0,034	-0,082
-275,657	192,351	-0,044	-0,048
-274,643	-102,501	-0,083	0,014
-273,628	-67,944	-0,227	-0,064
-272,613	800,000	0,065	0,172
-271,599	-58,213	0,088	-0,027
-270,584	-143,026	-0,098	0,007
-269,570	-200,000	0,044	0,241
-268,555	-139,778	0,133	-0,010
-267,540	-200,000	0,001	-0,035
-266,526	-24,135	0,034	0,015
-265,511	-200,000	-0,008	0,025
-264,497	-74,472	0,061	-0,016
-263,482	3,845	-0,024	0,013
-262,467	541,877	0,050	-0,086
-261,453	-200,000	0,007	-0,056
-260,438	-49,387	-0,095	-0,032
-259,424	-200,000	-0,020	-0,097
-258,409	696,030	0,040	0,076
-257,395	663,769	0,056	-0,105
-256,380	473,270	0,059	-0,096
-255,365	274,253	0,082	0,106
-254,351	-200,000	-0,016	0,123
-253,336	-200,000	0,002	0,120
-252,322	-200,000	0,004	-0,025
-251,307	232,355	0,079	0,093
-250,292	-200,000	0,023	-0,120
-249,278	-33,034	0,054	0,021
-248,263	-158,332	-0,083	0,003
-247,249	-93,360	0,139	-0,028
-246,234	-200,000	0,024	0,000
-245,219	800,000	-0,034	-0,092
-244,205	27,886	-0,037	-0,023
-243,190	38,664	0,089	0,057
-242,176	-184,956	0,158	-0,002
-241,161	80,773	-0,068	-0,053
-240,146	-164,560	0,156	-0,005
-239,132	-164,309	-0,050	-0,002
-238,117	10,968	-0,245	-0,135
-237,103	69,247	-0,065	-0,048
-236,088	-200,000	-0,002	-0,106
-235,073	-121,112	0,078	-0,009
-234,059	39,972	0,173	0,112
-233,044	800,000	-0,049	0,103
-232,030	-200,000	0,004	0,152
-231,015	287,418	0,047	0,061
-230,000	-191,522	-0,112	-0,001
-228,986	-121,014	-0,171	0,020
-227,971	115,392	-0,036	0,031
-226,957	-178,911	0,109	0,002
-225,942	800,000	-0,031	-0,077
-224,927	-152,160	0,048	-0,002
-223,913	-50,915	-0,013	0,005
-222,898	25,521	0,054	-0,032
-221,884	0,193	0,019	-0,010
-220,869	-200,000	-0,004	-0,031
-219,855	-17,409	0,081	0,037
-218,840	305,487	-0,108	-0,145
-217,825	800,000	0,022	-0,068
-216,811	800,000	-0,038	-0,086
-215,796	314,281	-0,099	-0,135
-214,782	-0,081	-0,100	-0,051
-213,767	-153,126	0,066	-0,003
-212,752	800,000	0,053	0,135
-211,738	-200,000	-0,025	0,093
-210,723	-154,270	0,048	0,002
-209,709	504,052	-0,035	0,058
-208,694	22,232	-0,099	-0,058
-207,679	-200,000	-0,002	0,074
-206,665	-200,000	-0,011	0,044
-205,650	300,380	0,088	-0,117
-204,636	44,417	0,125	-0,082
-203,621	-57,419	-0,078	0,024
-202,606	800,000	0,023	0,050
-201,592	114,316	0,036	-0,031
-200,577	-200,000	0,021	-0,082
-199,563	-200,000	0,002	-0,079
-198,548	-60,352	-0,038	-0,011
-197,533	36,933	0,084	-0,053
-196,519	691,963	-0,065	0,124
-195,504	3,097	0,063	0,033
-194,490	-200,000	-0,028	-0,111
-193,475	-41,393	0,079	-0,029
-192,460	800,000	0,029	0,077
-191,446	-200,000	-0,003	0,027
-190,431	325,468	0,025	0,034
-189,417	800,000	0,014	0,030
-188,402	-51,957	0,034	-0,011
-187,387	-125,874	-0,062	0,007
-186,373	-99,426	0,138	-0,025
-185,358	646,519	-0,060	-0,110
-184,344	-200,000	0,058	0,193
-183,329	206,299	0,079	0,089
-182,315	82,035	-0,053	-0,041
-181,300	-200,000	0,025	-0,088
-180,285	-116,399	0,171	-0,023
-179,271	-107,213	-0,103	-0,016
-178,256	604,251	0,027	-0,049
-177,242	-200,000	0,018	0,124
-176,227	220,328	0,152	0,176
-175,212	40,885	0,075	0,049
-174,198	62,668	-0,058	-0,042
-173,183	-200,000	-0,003	0,070
-172,169	192,579	-0,036	0,039
-171,154	107,766	-0,064	0,055
-170,139	73,987	0,148	0,112
-169,125	-200,000	0,012	-0,131
-168,110	-144,753	0,070	0,005
-167,096	-200,000	-0,030	0,155
-166,081	8,538	0,051	-0,028
-165,066	-200,000	-0,020	-0,133
-164,052	146,367	-0,094	0,091
-163,037	-130,897	-0,026	-0,003
-162,023	505,328	-0,037	0,062
-161,008	-67,988	0,018	-0,005
-159,993	104,548	0,061	0,052
-158,979	-200,000	-0,031	-0,120
-157,964	141,866	-0,036	0,035
-156,950	421,294	0,040	-0,061
-155,935	-116,891	0,148	0,019
-154,920	800,000	-0,011	-0,025
-153,906	-119,612	0,138	0,017
-152,891	-25,237	0,109	0,046
-151,877	102,586	-0,071	-0,060
-150,862	-200,000	0,017	-0,091
-149,847	415,738	-0,086	-0,132
-148,833	357,735	-0,116	0,167
-147,818	6,057	0,109	-0,058
-146,804	13,378	-0,137	-0,076
-145,789	341,826	0,057	0,080
-144,775	9,844	0,041	0,022
-143,760	-200,000	-0,023	0,143
-142,745	292,303	-0,056	-0,074
-141,731	35,011	0,060	-0,038
-140,716	-200,000	0,015	0,098
-139,702	426,137	-0,070	-0,109
-138,687	-183,962	-0,067	-0,001
-137,672	-46,151	-0,068	-0,024
-136,658	291,008	0,050	-0,065
-135,643	127,558	0,075	-0,068
-134,629	10,465	-0,101	0,055
-133,614	-200,000	0,044	0,180
-132,599	-43,724	0,119	0,043
-131,585	-73,799	-0,087	-0,023
-130,570	-75,991	-0,051	0,013
-129,556	740,361	-0,036	-0,069
-128,541	800,000	0,019	0,039
-127,526	267,701	0,047	0,060
-126,512	-150,180	0,057	0,003
-125,497	9,755	0,073	0,040
-124,483	627,565	-0,032	0,057
-123,468	146,628	0,029	-0,028
-122,453	800,000	0,017	-0,041
-121,439	-147,298	-0,085	0,005
-120,424	115,769	0,011	-0,010
-119,410	-96,639	0,111	-0,021
-118,395	-82,176	0,151	0,035
-117,380	-15,801	-0,110	0,050
-116,366	800,000	-0,051	-0,120
-115,351	-60,532	-0,081	-0,024
-114,337	178,127	-0,081	-0,085
-113,322	-154,281	0,125	0,006
-112,307	-148,491	-0,100	-0,006
-111,293	800,000	0,043	0,115
-110,278	800,000	-0,032	-0,075
-109,264	-68,796	0,101	0,028
-108,249	-156,841	-0,090	-0,004
-107,234	800,000	0,027	-0,063
-106,220	64,493	0,034	0,025
-105,205	84,796	-0,050	-0,039
-104,191	-129,673	0,068	0,007
-103,176	10,243	0,078	0,043
-102,162	-89,309	0,160	-0,034
-101,147	-171,923	-0,061	-0,001
-100,132	179,540	-0,060	0,064
-99,118	-101,587	-0,105	-0,018
-98,103	-61,589	0,071	-0,021
-97,089	186,458	0,056	-0,060
-96,074	81,814	-0,021	-0,016
-95,059	-87,082	-0,039	-0,008
-94,045	404,715	0,054	-0,083
-93,030	258,295	-0,016	0,020
-92,016	31,571	-0,101	-0,062
-91,001	-200,000	0,032	-0,112
-89,986	363,521	-0,054	0,078
-88,972	800,000	0,052	0,128
-87,957	310,625	-0,026	0,036
-86,943	-7,118	-0,156	-0,076
-85,928	63,949	-0,020	-0,014
-84,913	-110,790	-0,064	0,009
-83,899	371,631	-0,087	-0,127
-82,884	104,995	0,060	0,051
-81,870	800,000	0,020	0,041
-80,855	149,886	0,016	0,016
-79,840	-83,012	-0,094	-0,022
-78,826	800,000	0,005	-0,016
-77,811	186,381	0,070	-0,075
-76,797	-200,000	-0,007	0,068
-75,782	-24,010	0,163	0,070
-74,767	-200,000	-0,020	-0,092
-73,753	68,194	-0,052	0,038
-72,738	71,084	0,126	0,094
-71,724	-119,569	-0,056	-0,007
-70,709	-71,962	-0,184	-0,049
-69,694	-145,140	0,075	-0,005
-68,680	-42,339	-0,072	0,026
-67,665	-200,000	0,016	0,152
-66,651	800,000	0,052	0,145
-65,636	115,815	0,087	0,076
-64,622	-200,000	-0,024	0,093
-63,607	-90,788	-0,074	-0,015
-62,592	526,607	-0,039	-0,066
-61,578	-200,000	0,011	-0,076
-60,563	-193,396	-0,109	0,001
-59,549	-200,000	0,024	0,121
-58,534	20,619	-2,377	-1,374
-57,519	-200,000	0,079	-0,698
-56,505	-200,000	-1,416	-5,240
-55,490	97,295	0,867	0,712
-54,476	800,000	5,316	12,002
-53,461	-200,000	18,862	317,719
-52,446	800,000	740,760	2320,546
-51,432	549,433	1654,183	2850,268
-50,417	110,000	1637,277	1406,489
-49,403	73,501	1288,110	964,660
-48,388	29,744	1029,262	626,010
-47,373	19,617	992,053	569,924
-46,359	17,101	979,587	554,483
-45,344	13,688	976,140	541,317
-44,330	14,031	974,302	541,401
-43,315	13,379	972,431	538,206
-42,300	13,308	971,539	537,459
-41,286	13,334	970,714	537,066
-40,271	13,296	969,746	536,387
-39,257	13,307	968,910	535,938
-38,242	13,322	968,048	535,488
-37,227	13,338	967,171	535,035
-36,213	13,384	966,220	534,636
-35,198	13,294	965,492	533,922
-34,184	13,302	964,652	533,462
-33,169	13,246	963,682	532,720
-32,154	13,385	962,618	532,563
-31,140	13,277	961,938	531,817
-30,125	13,377	960,990	531,594
-29,111	13,337	960,182	530,996
-28,096	13,316	959,600	530,586
-27,082	13,421	958,761	530,441
-26,067	13,398	958,073	529,964
-25,052	13,372	957,263	529,410
-24,038	13,317	956,700	528,900
-23,023	13,286	956,083	528,439
-22,009	13,352	955,356	528,228
-20,994	13,352	954,841	527,924
-19,979	13,354	954,214	527,563
-18,965	13,333	953,575	527,122
-17,950	13,320	952,915	526,694
-16,936	13,250	952,383	526,154
-15,921	13,261	951,568	525,718
-14,906	13,221	950,999	525,255
-13,892	13,259	950,367	525,006
-12,877	13,210	949,747	524,487
-11,863	13,205	949,037	524,057
-10,848	13,267	948,488	523,931
-9,833	13,311	947,805	523,675
-8,819	13,241	947,402	523,207
-7,804	13,255	946,612	522,794
-6,790	13,197	946,307	522,421
-5,775	13,277	945,613	522,272
-4,760	13,233	945,101	521,829
-3,746	13,238	944,281	521,372
-2,731	13,061	943,569	520,397
-1,717	13,067	942,839	519,991
-0,702	13,053	942,336	519,649
0,313	12,911	941,628	519,595
1,327	16,329	939,351	529,081
2,342	25,493	789,961	469,074
3,356	21,502	444,406	257,955
4,371	-7,762	297,298	143,148
5,386	-11,504	279,150	130,830
6,400	-12,808	273,362	126,888
7,415	-12,818	270,984	125,764
8,429	-13,119	269,638	124,851
9,444	-13,269	268,693	124,264
10,459	-13,158	267,850	123,965
11,473	-13,297	267,510	123,670
12,488	-13,260	266,819	123,373
13,502	-13,452	266,338	122,964
14,517	-13,286	265,846	122,877
15,531	-13,324	265,560	122,699
16,546	-13,166	265,063	122,602
17,561	-13,203	264,612	122,349
18,575	-13,055	264,441	122,393
19,590	-13,197	264,155	122,121
20,604	-13,310	263,833	121,859
21,619	-13,280	263,352	121,654
22,634	-13,365	263,064	121,433
23,648	-13,387	262,740	121,253
24,663	-13,444	262,557	121,107
25,677	-13,149	262,162	121,178
26,692	-13,185	261,899	121,014
27,707	-13,303	261,649	120,782
28,721	-13,353	261,456	120,637
29,736	-13,296	261,170	120,545
30,750	-13,444	260,843	120,252
31,765	-13,460	260,707	120,165
32,780	-13,356	260,367	120,090
33,794	-13,416	260,130	119,916
34,809	-13,217	259,829	119,943
35,823	-13,365	259,477	119,638
36,838	-13,344	259,278	119,555
37,853	-13,391	259,168	119,452
38,867	-13,478	258,905	119,243
39,882	-13,300	258,604	119,251
40,896	-13,469	258,423	119,008
41,911	-13,314	257,997	118,937
42,926	-13,311	257,910	118,889
43,940	-13,530	257,652	118,568
44,955	-13,429	257,426	118,542
45,969	-13,575	257,079	118,244
46,984	-13,722	256,899	118,021
47,999	-13,863	256,604	117,752
49,013	-14,087	256,408	117,456
50,028	-13,988	256,069	117,377
51,042	-14,285	255,930	117,044
52,057	-14,175	255,573	116,966
53,071	-14,189	255,533	116,924
54,086	-13,933	255,387	117,070
55,101	-13,946	255,268	116,994
56,115	-13,716	255,075	117,094
57,130	-13,444	254,909	117,244
58,144	-13,040	254,677	117,478
59,159	-13,103	254,584	117,369
60,174	-13,117	254,244	117,190
61,188	-13,279	254,164	117,002
62,203	-13,251	253,851	116,872
63,217	-13,260	253,634	116,754
64,232	-12,985	253,368	116,858
65,247	-13,138	253,129	116,606
66,261	-13,267	253,007	116,429
67,276	-13,477	252,601	116,051
68,290	-13,724	252,414	115,742
69,305	-13,815	252,211	115,561
70,320	-13,937	251,920	115,313
71,334	-13,350	251,875	115,784
72,349	-13,398	251,739	115,671
73,363	-13,345	251,566	115,626
74,378	-13,180	251,298	115,634
75,393	-13,289	251,127	115,452
76,407	-13,329	250,946	115,324
77,422	-13,236	250,703	115,281
78,436	-13,307	250,446	115,092
79,451	-13,142	250,072	115,050
80,466	-13,255	249,848	114,841
81,480	-13,406	249,616	114,597
82,495	-13,571	249,402	114,348
83,509	-13,437	249,339	114,423
84,524	-13,559	249,214	114,252
85,539	-13,616	248,813	114,009
86,553	-13,615	248,749	113,971
87,568	-13,514	248,554	113,957
88,582	-13,648	248,208	113,674
89,597	-13,806	248,115	113,489
90,611	-13,426	247,980	113,736
91,626	-13,458	247,785	113,610
92,641	-13,249	247,665	113,721
93,655	-13,547	247,469	113,371
94,670	-13,420	247,195	113,341
95,684	-13,476	246,991	113,190
96,699	-13,437	246,805	113,128
97,714	-13,500	246,508	112,930
98,728	-13,796	246,551	112,691
99,743	-13,524	246,265	112,778
100,757	-13,665	245,919	112,491
101,772	-13,579	245,809	112,503
102,787	-13,498	245,656	112,490
103,801	-13,610	245,412	112,275
104,816	-13,470	245,327	112,343
105,830	-13,388	245,222	112,353
106,845	-13,248	245,032	112,373
107,860	-13,361	244,751	112,140
108,874	-13,389	244,568	112,023
109,889	-13,732	244,398	111,650
110,903	-13,399	244,016	111,742
111,918	-13,446	243,998	111,684
112,933	-13,537	243,795	111,506
113,947	-13,259	243,595	111,635
114,962	-13,317	243,591	111,575
115,976	-13,164	243,266	111,542
116,991	-13,466	243,183	111,246
118,006	-13,577	242,949	111,037
119,020	-13,374	242,803	111,127
120,035	-13,202	242,655	111,190
121,049	-13,277	242,657	111,120
122,064	-13,393	242,309	110,855
123,079	-13,392	242,124	110,762
124,093	-13,565	241,785	110,456
125,108	-13,568	241,589	110,354
126,122	-13,899	241,439	110,005
127,137	-14,001	241,164	109,787
128,151	-13,882	241,049	109,821
129,166	-13,654	240,871	109,916
130,181	-13,697	240,547	109,724
131,195	-13,811	240,536	109,616
132,210	-13,423	240,259	109,796
133,224	-13,512	240,152	109,664
134,239	-13,408	240,087	109,710
135,254	-13,186	239,686	109,697
136,268	-13,423	239,490	109,405
137,283	-13,744	239,275	109,038
138,297	-13,637	239,017	108,997
139,312	-13,941	238,826	108,654
140,327	-13,400	238,846	109,090
141,341	-13,281	238,885	109,195
142,356	-13,105	238,780	109,279
143,370	-13,119	238,553	109,154
144,385	-13,074	238,372	109,098
145,400	-13,258	238,308	108,910
146,414	-13,031	237,984	108,936
147,429	-13,225	237,844	108,706
148,443	-13,083	237,517	108,660
149,458	-13,354	237,631	108,485
150,473	-13,220	237,266	108,416
151,487	-13,322	237,078	108,239
152,502	-13,157	237,003	108,328
153,516	-12,942	236,792	108,393
154,531	-13,053	236,571	108,193
155,546	-13,150	236,403	108,030
156,560	-13,253	236,293	107,887
157,575	-13,467	236,123	107,630
158,589	-13,343	235,837	107,589
159,604	-13,209	235,794	107,666
160,619	-12,971	235,534	107,726
161,633	-12,972	235,405	107,657
162,648	-13,007	235,275	107,561
163,662	-13,093	235,012	107,363
164,677	-13,105	234,905	107,294
165,692	-13,107	234,686	107,183
166,706	-13,155	234,704	107,145
167,721	-12,837	234,497	107,291
168,735	-12,887	234,302	107,153
169,750	-13,010	234,060	106,936
170,764	-13,012	234,026	106,909
171,779	-13,138	233,970	106,775
172,794	-12,832	233,718	106,891
173,808	-13,044	233,509	106,619
174,823	-13,606	233,131	105,996
175,837	-13,721	232,970	105,823
176,852	-13,400	233,075	106,113
177,867	-12,977	232,951	106,379
178,881	-12,964	232,627	106,232
179,896	-12,988	232,607	106,194
180,910	-12,953	232,453	106,142
181,925	-13,000	232,144	105,955
182,940	-12,971	232,085	105,941
183,954	-12,822	232,001	106,010
184,969	-13,089	231,852	105,724
185,983	-12,839	231,611	105,799
186,998	-12,777	231,375	105,731
188,013	-12,885	231,380	105,639
189,027	-12,861	231,164	105,549
190,042	-13,082	231,080	105,330
191,056	-12,967	231,011	105,379
192,071	-13,026	230,690	105,177
193,086	-13,145	230,576	105,023
194,100	-12,924	230,390	105,101
195,115	-13,238	229,847	104,601
196,129	-13,028	230,083	104,861
197,144	-7,824	231,824	109,698
198,159	-2,559	233,532	114,616
199,173	1,738	234,737	118,568
200,188	2,832	234,770	119,430
201,202	2,763	234,549	119,253
202,217	2,810	234,363	119,185
203,232	2,828	234,307	119,160
204,246	2,864	234,212	119,129
205,261	3,155	234,057	119,266
206,275	3,153	233,911	119,179
207,290	3,168	233,619	119,032
208,304	3,194	233,604	119,034
209,319	3,232	233,398	118,948
210,334	3,016	233,280	118,709
211,348	2,684	233,040	118,319
212,363	2,277	232,866	117,904
213,377	2,287	232,589	117,761
214,392	2,263	232,423	117,648
215,407	2,286	232,399	117,644
216,421	2,515	232,291	117,755
217,436	2,519	231,871	117,535
218,450	2,262	231,640	117,209
219,465	2,157	231,715	117,156
220,480	2,252	231,508	117,114
221,494	2,337	231,291	117,059
222,509	2,441	231,241	117,103
223,523	2,450	231,241	117,099
224,538	2,212	230,907	116,737
225,553	2,363	230,694	116,735
226,567	2,352	230,500	116,618
227,582	2,742	230,523	116,918
228,596	2,806	230,490	116,940
229,611	2,475	230,150	116,504
230,626	2,277	229,927	116,229
231,640	2,268	229,804	116,150
232,655	2,515	229,661	116,256
233,669	2,828	229,705	116,507
234,684	2,885	229,524	116,448
235,699	2,839	229,321	116,300
236,713	2,381	229,209	115,883
237,728	2,358	228,944	115,722
238,742	2,263	228,721	115,527
239,757	2,350	228,611	115,527
240,772	2,424	228,519	115,526
241,786	2,141	228,374	115,228
242,801	2,547	228,261	115,469
243,815	2,920	228,210	115,715
244,830	2,846	227,866	115,474
245,844	2,619	227,843	115,281
246,859	2,434	227,537	114,976
247,874	2,526	227,549	115,042
248,888	2,646	227,446	115,069
249,903	2,623	227,250	114,942
250,917	2,392	227,068	114,666
251,932	2,397	226,945	114,597
252,947	2,308	226,616	114,354
253,961	2,126	226,602	114,200
254,976	2,113	226,329	114,043
255,990	2,671	226,457	114,517
257,005	2,799	226,178	114,461
258,020	2,361	226,226	114,146
259,034	2,681	225,995	114,260
260,049	2,636	225,791	114,112
261,063	2,449	225,655	113,894
262,078	2,577	225,652	113,978
263,093	2,759	225,517	114,036
264,107	2,787	225,250	113,912
265,122	2,803	225,138	113,856
266,136	3,002	225,063	113,957
267,151	2,915	224,929	113,814
268,166	2,600	224,522	113,363
269,180	2,058	224,375	112,876
270,195	2,220	224,196	112,896
271,209	2,519	223,996	113,007
272,224	2,559	223,952	113,005
273,239	2,345	223,956	112,838
274,253	2,420	223,700	112,754
275,268	2,299	223,404	112,505
276,282	2,296	223,213	112,397
277,297	2,287	223,145	112,347
278,312	2,496	222,969	112,402
279,326	2,240	223,012	112,225
280,341	2,328	222,911	112,229
281,355	2,444	222,740	112,219
282,370	2,567	222,546	112,201
283,384	2,242	222,295	111,825
284,399	2,197	222,140	111,704
285,414	2,159	222,083	111,638
286,428	2,537	222,116	111,922
287,443	2,507	221,923	111,793
288,457	2,744	221,747	111,868
289,472	2,182	221,725	111,434
290,487	1,946	221,322	111,050
291,501	1,638	221,247	110,776
292,516	1,858	221,014	110,811
293,530	1,859	221,020	110,805
294,545	2,143	220,748	110,865
295,560	2,496	220,613	111,045
296,574	2,181	220,647	110,823
297,589	2,278	220,424	110,772
298,603	2,428	220,361	110,840
299,618	2,427	220,222	110,759
300,633	2,489	220,053	110,709
301,647	2,501	220,049	110,706
302,662	2,854	219,811	110,833
303,676	2,651	219,690	110,615
304,691	2,694	219,489	110,535
305,706	2,605	219,392	110,412
306,720	2,849	219,295	110,530
307,735	2,397	219,175	110,132
308,749	2,162	219,012	109,871
309,764	2,554	218,841	110,058
310,779	2,723	218,678	110,088
311,793	2,629	218,563	109,953
312,808	2,690	218,364	109,887
313,822	2,458	218,266	109,661
314,837	2,468	218,091	109,571
315,852	2,166	217,927	109,261
316,866	2,569	217,702	109,428
317,881	2,738	217,733	109,555
318,895	2,752	217,496	109,436
319,910	2,329	217,268	109,008
320,925	2,064	217,059	108,704
321,939	1,528	216,841	108,202
322,954	1,805	216,940	108,440
323,968	2,389	216,927	108,841
324,983	2,561	216,838	108,910
325,997	2,737	216,630	108,922
327,012	2,567	216,500	108,725
328,027	2,600	216,313	108,644
329,041	2,707	216,273	108,692
330,056	2,875	216,202	108,766
331,070	2,573	215,947	108,413
332,085	2,242	215,763	108,075
333,100	2,405	215,635	108,117
334,114	2,609	215,456	108,163
335,129	2,513	215,269	107,991
336,143	2,458	215,051	107,833
337,158	2,467	214,924	107,766
338,173	2,356	214,861	107,647
339,187	2,043	214,733	107,352
340,202	1,871	214,515	107,111
341,216	2,799	214,443	107,721
342,231	2,693	214,266	107,548
343,246	2,340	214,214	107,263
344,260	2,189	214,197	107,139
345,275	2,759	214,001	107,432
346,289	2,755	213,951	107,395
347,304	2,736	213,635	107,214
348,319	2,456	213,432	106,906
349,333	2,583	213,329	106,934
350,348	2,719	213,291	107,000
351,362	2,593	213,231	106,872
352,377	2,599	213,183	106,843
353,392	2,519	213,058	106,715
354,406	2,736	212,809	106,733
355,421	197,262	1312,625	1391,112
356,435	157,816	1446,576	1391,048
