DTS Sentinel unit serial number:	SN410029Multiplexer serial number:	ORYXHardware model number:	OX2-SRSoftware version number:	ORYX F/W v4,00 Oryx Data Collector v3.7.2.0data status	okinstallation	B6 Nyhavnadifferential loss correction	single-endedforward channel	channel 2reverse channel	N/Adate	2023/12/08time	23:20:08forward acquisition time	300,00reverse acquisition time	0,00gamma	499,1914k internal	0,3157k external	0,3157temperature offset calibration	1,0000default loss term (dB/km)	0,3820temperature slope calibration	1,0000multiplexer offset coefficient	1,0000multiplexer slope coefficient	1,0000fibre end	0,00T internal ref (°C)	15,44T ext. ref 1 (°C)	-1,01T ext. ref 2 (°C)	-1,00length (m)	temperature (°C)	Stokes	anti-Stokes-744,400	254,064	0,054	0,069
-743,385	-111,174	-0,307	0,046
-742,371	-200,000	-0,007	0,098
-741,356	-25,321	-0,283	0,123
-740,342	-46,344	0,152	0,055
-739,327	-60,825	-0,266	-0,083
-738,312	-200,000	0,004	0,085
-737,298	-173,841	-0,217	-0,005
-736,283	93,914	0,166	0,139
-735,269	-103,037	-0,227	0,039
-734,254	-95,949	0,168	0,033
-733,239	-44,110	-0,474	-0,174
-732,225	193,059	0,171	-0,191
-731,210	43,803	0,191	-0,128
-730,196	222,685	0,096	-0,114
-729,181	800,000	0,016	-0,049
-728,167	58,624	-0,037	0,027
-727,152	-171,876	-0,179	-0,004
-726,137	-19,450	-0,185	-0,084
-725,123	-200,000	-0,038	-0,178
-724,108	-200,000	-0,002	0,048
-723,094	-62,737	-0,130	-0,039
-722,079	800,000	0,006	-0,014
-721,064	-200,000	0,004	-0,127
-720,050	348,455	0,033	-0,049
-719,035	554,327	0,063	0,113
-718,021	-102,924	-0,011	0,002
-717,006	459,110	0,147	-0,242
-715,991	-127,151	-0,055	-0,006
-714,977	-126,543	-0,007	0,001
-713,962	-65,372	-0,058	-0,017
-712,948	-200,000	-0,002	0,090
-711,933	-200,000	-0,004	-0,122
-710,918	286,923	0,037	-0,049
-709,904	-106,697	-0,075	0,012
-708,889	800,000	-0,043	-0,114
-707,875	-200,000	-0,013	0,058
-706,860	800,000	0,045	0,100
-705,845	184,118	0,079	-0,086
-704,831	800,000	-0,063	-0,165
-703,816	-200,000	-0,017	-0,070
-702,802	212,913	-0,084	-0,098
-701,787	-71,994	0,035	-0,009
-700,772	800,000	-0,044	-0,118
-699,758	140,397	-0,020	-0,020
-698,743	110,966	0,074	0,066
-697,729	675,785	-0,035	0,067
-696,714	68,610	-0,048	0,036
-695,699	26,396	-0,068	-0,042
-694,685	800,000	-0,086	-0,199
-693,670	-200,000	0,029	-0,123
-692,656	88,881	-0,031	-0,025
-691,641	-117,006	0,135	-0,018
-690,627	82,599	0,064	0,051
-689,612	-200,000	-0,006	0,049
-688,597	366,058	0,031	0,046
-687,583	-4,642	-0,117	0,059
-686,568	-137,863	-0,141	0,011
-685,554	116,129	-0,020	-0,018
-684,539	-57,073	-0,021	0,007
-683,524	150,065	0,036	-0,036
-682,510	-200,000	0,009	0,084
-681,495	-177,918	-0,120	-0,002
-680,481	-200,000	-0,049	-0,171
-679,466	203,009	0,040	0,046
-678,451	72,764	-0,046	-0,035
-677,437	800,000	0,064	-0,161
-676,422	281,183	-0,034	0,045
-675,408	-71,463	-0,083	0,023
-674,393	-45,998	-0,184	0,066
-673,378	77,110	-0,042	0,032
-672,364	361,409	-0,052	0,076
-671,349	-20,258	-0,061	0,028
-670,335	-68,973	-0,081	-0,023
-669,320	173,020	0,050	0,054
-668,305	603,428	-0,025	-0,047
-667,291	-51,737	-0,085	-0,029
-666,276	-200,000	0,014	-0,073
-665,262	-64,063	-0,186	-0,056
-664,247	-4,694	-0,110	-0,056
-663,232	-151,255	0,092	-0,005
-662,218	-200,000	-0,002	0,061
-661,203	800,000	0,050	0,105
-660,189	-200,000	0,009	-0,077
-659,174	800,000	0,029	-0,090
-658,159	-200,000	-0,007	-0,092
-657,145	800,000	-0,030	0,065
-656,130	12,075	0,016	0,009
-655,116	-73,699	-0,023	0,006
-654,101	25,261	0,071	-0,043
-653,086	-200,000	-0,004	0,024
-652,072	800,000	0,063	-0,155
-651,057	183,366	-0,025	-0,027
-650,043	-30,081	0,071	0,029
-649,028	800,000	-0,016	0,036
-648,014	10,169	-0,015	0,008
-646,999	-200,000	-0,001	-0,027
-645,984	-200,000	-0,031	0,134
-644,970	-191,600	-0,245	-0,002
-643,955	-130,391	-0,165	0,016
-642,941	-50,684	-0,099	-0,034
-641,926	-200,000	-0,014	0,103
-640,911	96,508	-0,101	-0,085
-639,897	29,371	-0,039	-0,024
-638,882	432,454	0,096	-0,153
-637,868	-200,000	0,010	0,053
-636,853	-25,614	0,064	0,028
-635,838	-200,000	0,014	-0,135
-634,824	800,000	-0,051	-0,157
-633,809	127,991	-0,089	0,083
-632,795	210,740	0,050	-0,058
-631,780	-27,057	0,096	-0,041
-630,765	230,670	-0,097	-0,117
-629,751	413,652	0,061	-0,096
-628,736	51,764	-0,061	0,042
-627,722	800,000	-0,016	0,034
-626,707	196,957	0,015	0,016
-625,692	800,000	0,035	-0,100
-624,678	-200,000	0,025	0,136
-623,663	-200,000	-0,011	0,084
-622,649	-200,000	0,003	0,015
-621,634	180,342	-0,096	-0,104
-620,619	-147,968	-0,040	-0,002
-619,605	-47,271	-0,035	0,013
-618,590	-200,000	0,002	0,045
-617,576	800,000	0,013	-0,032
-616,561	278,052	0,087	0,113
-615,546	-40,635	0,017	0,007
-614,532	800,000	0,027	-0,073
-613,517	37,965	-0,102	-0,067
-612,503	-87,995	-0,103	-0,022
-611,488	-62,846	0,071	-0,021
-610,474	-200,000	0,002	0,057
-609,459	-41,432	0,076	0,028
-608,444	800,000	-0,030	-0,071
-607,430	112,625	-0,031	-0,028
-606,415	99,428	-0,101	0,085
-605,401	-149,747	0,032	-0,002
-604,386	800,000	0,031	-0,092
-603,371	89,253	-0,022	-0,018
-602,357	298,580	0,075	0,101
-601,342	463,384	-0,027	-0,045
-600,328	243,764	0,067	0,083
-599,313	-200,000	-0,003	-0,147
-598,298	-5,718	0,055	-0,028
-597,284	-132,459	0,059	0,006
-596,269	-200,000	-0,028	0,107
-595,255	128,491	-0,084	0,079
-594,240	294,934	-0,073	0,098
-593,225	-50,020	-0,142	-0,049
-592,211	-200,000	0,004	-0,025
-591,196	-0,973	0,025	0,013
-590,182	-184,129	-0,062	0,001
-589,167	-200,000	0,022	-0,102
-588,152	210,695	-0,034	0,039
-587,138	-200,000	0,001	-0,046
-586,123	391,706	0,057	0,088
-585,109	-200,000	-0,009	-0,057
-584,094	-200,000	0,008	-0,131
-583,079	213,115	-0,154	0,178
-582,065	388,995	-0,035	0,054
-581,050	66,625	-0,093	-0,069
-580,036	-130,435	-0,201	-0,020
-579,021	-200,000	-0,010	-0,229
-578,006	-200,000	-0,013	-0,100
-576,992	-21,193	-0,093	0,042
-575,977	330,118	0,042	-0,060
-574,963	-27,689	0,094	0,040
-573,948	800,000	0,014	-0,042
-572,934	51,680	-0,034	-0,024
-571,919	152,673	-0,038	0,038
-570,904	-137,310	-0,064	-0,005
-569,890	-200,000	-0,016	-0,059
-568,875	58,923	0,046	-0,033
-567,861	492,187	0,042	0,071
-566,846	83,618	-0,105	0,084
-565,831	-200,000	-0,034	-0,163
-564,817	-183,601	-0,027	0,000
-563,802	-123,503	0,174	0,020
-562,788	-200,000	0,015	-0,066
-561,773	-200,000	-0,011	-0,165
-560,758	703,387	-0,050	0,096
-559,744	-74,416	-0,056	0,015
-558,729	54,524	0,037	-0,026
-557,715	-200,000	0,037	0,158
-556,700	198,310	0,083	-0,093
-555,685	-200,000	0,014	0,062
-554,671	33,178	-0,028	-0,017
-553,656	800,000	0,025	0,065
-552,642	55,038	0,092	0,065
-551,627	-200,000	0,031	-0,182
-550,612	-8,881	-0,104	-0,051
-549,598	-23,536	0,011	-0,005
-548,583	256,622	0,046	-0,058
-547,569	165,537	-0,018	-0,018
-546,554	-131,371	0,086	0,008
-545,539	-112,511	0,081	-0,012
-544,525	217,893	0,073	-0,085
-543,510	-200,000	0,002	-0,072
-542,496	-200,000	0,010	0,052
-541,481	-200,000	0,012	-0,124
-540,466	800,000	-0,041	-0,102
-539,452	-105,195	0,079	-0,013
-538,437	488,241	-0,041	0,068
-537,423	-200,000	0,003	0,069
-536,408	-92,227	-0,027	0,006
-535,393	800,000	-0,025	0,062
-534,379	-26,561	-0,136	-0,058
-533,364	48,338	0,020	-0,013
-532,350	183,262	0,127	0,137
-531,335	-102,281	-0,074	0,013
-530,321	800,000	-0,022	0,054
-529,306	800,000	-0,022	0,060
-528,291	-154,990	-0,032	-0,002
-527,277	800,000	-0,064	-0,181
-526,262	-120,523	0,091	-0,011
-525,248	-105,051	0,123	-0,020
-524,233	199,579	0,054	0,061
-523,218	-200,000	-0,114	0,000
-522,204	-200,000	-0,005	-0,144
-521,189	372,215	-0,037	0,055
-520,175	-36,255	0,038	0,015
-519,160	375,071	-0,068	0,101
-518,145	-79,195	-0,007	-0,002
-517,131	-200,000	0,023	0,119
-516,116	67,823	0,081	0,060
-515,102	417,725	0,012	-0,020
-514,087	800,000	0,026	0,069
-513,072	251,011	-0,033	-0,042
-512,058	109,644	-0,117	-0,102
-511,043	-35,775	-0,019	0,008
-510,029	300,123	0,030	-0,040
-509,014	47,639	-0,148	0,101
-507,999	800,000	0,060	0,141
-506,985	800,000	-0,054	-0,109
-505,970	800,000	-0,037	-0,080
-504,956	-200,000	0,034	-0,151
-503,941	667,899	0,046	0,087
-502,926	144,038	0,046	0,045
-501,912	-116,254	-0,040	0,005
-500,897	-54,818	-0,026	-0,008
-499,883	486,484	0,017	0,029
-498,868	-200,000	0,016	-0,065
-497,853	-200,000	-0,005	-0,049
-496,839	-33,276	-0,068	0,028
-495,824	-200,000	-0,031	0,109
-494,810	-149,567	0,240	-0,014
-493,795	93,572	-0,093	-0,077
-492,781	-49,558	-0,200	-0,069
-491,766	487,168	0,050	0,083
-490,751	-200,000	0,001	-0,050
-489,737	545,735	0,086	-0,150
-488,722	242,461	-0,031	-0,038
-487,708	-32,189	-0,086	0,035
-486,693	-185,109	0,089	-0,001
-485,678	216,155	-0,030	0,034
-484,664	-200,000	0,024	-0,087
-483,649	-76,303	-0,082	0,021
-482,635	800,000	0,023	0,053
-481,620	-56,459	0,151	0,049
-480,605	57,981	-0,064	0,045
-479,591	-200,000	0,010	-0,062
-478,576	170,785	-0,090	-0,094
-477,562	325,685	0,024	-0,034
-476,547	25,387	-0,092	0,056
-475,532	574,480	0,026	-0,047
-474,518	-149,176	0,041	0,002
-473,503	-188,305	0,073	0,001
-472,489	-76,989	-0,135	-0,034
-471,474	-107,359	-0,092	0,015
-470,459	-156,791	-0,068	0,003
-469,445	800,000	-0,014	-0,040
-468,430	-105,379	0,034	0,006
-467,416	-91,770	-0,154	0,032
-466,401	10,270	0,174	-0,096
-465,386	-125,806	0,055	0,006
-464,372	281,501	-0,081	-0,106
-463,357	-200,000	0,019	0,089
-462,343	14,184	0,066	0,038
-461,328	73,333	-0,092	-0,070
-460,313	-181,156	-0,007	0,000
-459,299	-200,000	-0,009	-0,042
-458,284	800,000	-0,014	-0,038
-457,270	800,000	-0,044	-0,123
-456,255	-128,051	0,145	-0,015
-455,241	800,000	0,058	-0,133
-454,226	-200,000	-0,002	0,057
-453,211	594,139	0,029	0,053
-452,197	-200,000	0,027	0,138
-451,182	68,755	-0,058	0,044
-450,168	40,208	-0,135	0,088
-449,153	-200,000	-0,007	-0,173
-448,138	-200,000	-0,014	-0,061
-447,124	-200,000	0,001	-0,088
-446,109	25,509	0,065	-0,039
-445,095	-14,328	0,086	-0,040
-444,080	-200,000	0,015	-0,070
-443,065	19,962	-0,070	-0,041
-442,051	-200,000	0,013	-0,083
-441,036	-200,000	-0,025	-0,125
-440,022	541,640	0,036	-0,063
-439,007	435,037	0,029	0,046
-437,992	-87,422	0,086	-0,019
-436,978	-200,000	0,011	0,120
-435,963	800,000	-0,039	-0,079
-434,949	751,408	0,013	-0,025
-433,934	800,000	-0,068	-0,148
-432,919	259,733	-0,030	-0,038
-431,905	-200,000	-0,009	-0,039
-430,890	502,498	0,060	0,101
-429,876	-200,000	0,035	0,153
-428,861	-200,000	0,023	0,131
-427,846	-200,000	-0,001	0,098
-426,832	800,000	0,020	0,063
-425,817	-200,000	0,039	-0,152
-424,803	335,861	0,064	-0,090
-423,788	-134,919	0,063	0,005
-422,773	659,751	-0,075	-0,141
-421,759	800,000	-0,018	0,043
-420,744	-14,117	-0,064	-0,030
-419,730	-81,959	-0,056	-0,013
-418,715	525,173	-0,035	0,060
-417,701	-34,697	-0,105	0,042
-416,686	143,469	0,109	-0,106
-415,671	-12,716	0,007	-0,003
-414,657	-200,000	-0,003	-0,133
-413,642	-200,000	0,023	-0,141
-412,628	-200,000	0,024	-0,145
-411,613	800,000	0,006	0,019
-410,598	-13,402	-0,086	0,041
-409,584	800,000	0,037	0,097
-408,569	-200,000	-0,002	0,037
-407,555	-39,723	0,181	0,068
-406,540	-50,350	0,033	0,011
-405,525	-200,000	-0,007	-0,087
-404,511	-126,830	-0,160	-0,017
-403,496	-200,000	-0,003	-0,095
-402,482	800,000	-0,042	0,087
-401,467	396,274	-0,078	0,119
-400,452	-24,776	-0,110	-0,047
-399,438	-200,000	0,026	0,083
-398,423	377,299	0,014	-0,021
-397,409	-179,706	0,013	0,000
-396,394	-200,000	-0,016	0,083
-395,379	-109,850	0,095	0,014
-394,365	14,851	0,179	0,102
-393,350	147,487	0,064	0,063
-392,336	46,659	-0,043	0,029
-391,321	-91,733	0,013	-0,003
-390,306	138,057	-0,029	0,028
-389,292	75,302	-0,060	0,046
-388,277	-200,000	-0,010	-0,075
-387,263	170,200	0,072	-0,075
-386,248	96,313	-0,077	0,064
-385,233	-96,383	0,035	0,007
-384,219	-168,261	-0,043	-0,001
-383,204	800,000	-0,046	-0,097
-382,190	-200,000	0,016	0,110
-381,175	-3,886	-0,126	0,063
-380,160	292,717	-0,068	0,090
-379,146	-7,322	-0,121	0,059
-378,131	-149,536	0,042	0,002
-377,117	800,000	-0,013	0,033
-376,102	83,386	-0,067	-0,053
-375,088	-200,000	-0,001	-0,111
-374,073	-200,000	0,000	-0,187
-373,058	554,577	-0,052	-0,092
-372,044	-6,976	-0,102	0,050
-371,029	-119,279	-0,059	0,007
-370,015	172,084	0,042	-0,043
-369,000	170,031	-0,058	0,060
-367,985	108,851	0,032	-0,027
-366,971	31,758	-0,056	0,035
-365,956	-200,000	0,006	0,074
-364,942	-200,000	0,015	-0,088
-363,927	-200,000	0,028	0,146
-362,912	-26,693	-0,052	-0,022
-361,898	222,268	0,020	0,023
-360,883	35,116	-0,080	0,051
-359,869	237,495	0,026	0,032
-358,854	-169,819	0,244	0,006
-357,839	159,055	-0,014	-0,014
-356,825	-200,000	0,017	-0,064
-355,810	171,531	0,039	0,041
-354,796	23,434	0,082	-0,049
-353,781	0,075	-0,002	0,001
-352,766	-93,895	-0,064	0,013
-351,752	-173,545	0,081	0,002
-350,737	800,000	0,021	0,056
-349,723	309,288	0,022	0,030
-348,708	-130,364	0,120	-0,012
-347,693	-200,000	0,004	-0,143
-346,679	-200,000	0,008	-0,095
-345,664	-200,000	-0,009	-0,051
-344,650	-200,000	-0,034	0,174
-343,635	22,139	0,152	0,090
-342,620	-70,111	0,098	0,027
-341,606	-200,000	0,000	0,016
-340,591	-33,866	0,078	-0,031
-339,577	218,557	-0,061	0,070
-338,562	9,684	-0,082	-0,045
-337,548	299,418	0,039	-0,052
-336,533	800,000	-0,038	-0,109
-335,518	318,552	0,057	0,078
-334,504	294,042	-0,033	-0,044
-333,489	79,304	0,114	0,089
-332,475	-94,345	0,090	-0,018
-331,460	161,821	-0,066	-0,067
-330,445	346,410	-0,048	-0,068
-329,431	314,064	-0,053	-0,072
-328,416	-23,552	0,060	0,026
-327,402	800,000	-0,049	-0,099
-326,387	800,000	0,031	0,085
-325,372	-200,000	0,013	-0,118
-324,358	550,033	-0,084	-0,147
-323,343	-200,000	0,011	0,046
-322,329	294,190	0,043	0,058
-321,314	18,310	0,157	-0,091
-320,299	36,939	0,091	0,058
-319,285	182,673	0,076	0,081
-318,270	-200,000	0,015	0,048
-317,256	-40,917	-0,127	-0,047
-316,241	-77,375	-0,111	-0,028
-315,226	800,000	-0,056	0,119
-314,212	-95,143	0,077	-0,015
-313,197	311,220	0,050	0,068
-312,183	203,092	0,008	-0,008
-311,168	196,262	0,079	-0,087
-310,153	43,877	-0,077	0,051
-309,139	373,843	0,035	-0,052
-308,124	486,135	-0,058	0,097
-307,110	-200,000	0,014	-0,080
-306,095	317,032	0,057	0,079
-305,080	-200,000	0,024	0,101
-304,066	-200,000	-0,026	0,093
-303,051	-144,665	-0,072	0,005
-302,037	531,040	0,076	-0,130
-301,022	321,453	0,029	-0,040
-300,008	114,497	0,047	-0,041
-298,993	-144,553	0,031	0,002
-297,978	-8,274	0,080	0,039
-296,964	577,726	-0,057	-0,102
-295,949	349,891	-0,002	-0,003
-294,935	-35,606	0,050	0,019
-293,920	-200,000	0,008	0,082
-292,905	233,257	0,088	0,105
-291,891	-14,804	0,141	0,065
-290,876	326,931	0,028	-0,039
-289,862	-200,000	0,003	-0,153
-288,847	-200,000	-0,000	0,023
-287,832	-177,216	-0,105	-0,002
-286,818	204,081	0,049	-0,055
-285,803	426,605	-0,034	0,054
-284,789	104,032	-0,053	0,045
-283,774	18,860	0,076	0,044
-282,759	-86,228	0,085	-0,019
-281,745	0,711	-0,050	0,026
-280,730	-187,908	-0,095	0,001
-279,716	-200,000	-0,034	0,125
-278,701	21,055	0,056	0,033
-277,686	-200,000	-0,007	0,035
-276,672	748,446	0,082	0,161
-275,657	800,000	0,016	0,036
-274,643	-200,000	-0,022	-0,204
-273,628	-58,583	0,144	-0,045
-272,613	800,000	0,020	0,041
-271,599	-200,000	0,007	0,112
-270,584	-125,000	0,054	-0,006
-269,570	198,690	-0,026	-0,029
-268,555	800,000	-0,040	0,107
-267,540	81,342	-0,142	0,111
-266,526	568,754	-0,041	-0,072
-265,511	-200,000	0,013	0,126
-264,497	-34,175	-0,127	-0,050
-263,482	543,552	-0,052	0,091
-262,467	-115,342	0,101	-0,014
-261,453	-200,000	0,003	-0,093
-260,438	-79,015	-0,111	-0,027
-259,424	-134,881	-0,056	-0,005
-258,409	-200,000	0,015	-0,086
-257,395	-121,538	0,048	-0,006
-256,380	-200,000	0,020	0,144
-255,365	51,370	-0,058	0,040
-254,351	138,873	0,106	0,101
-253,336	-200,000	0,005	0,135
-252,322	56,700	0,056	0,039
-251,307	39,342	0,035	-0,023
-250,292	-164,085	0,013	0,000
-249,278	307,670	0,062	-0,083
-248,263	237,540	0,106	0,127
-247,249	-143,336	0,029	-0,002
-246,234	-200,000	-0,025	-0,083
-245,219	180,342	0,081	-0,086
-244,205	-200,000	-0,004	0,070
-243,190	-59,688	-0,123	-0,038
-242,176	-158,259	0,024	0,001
-241,161	793,451	0,046	0,092
-240,146	-45,008	0,118	0,042
-239,132	668,535	0,017	0,032
-238,117	148,359	-0,085	0,083
-237,103	114,024	0,050	-0,044
-236,088	189,405	-0,026	-0,028
-235,073	-66,608	-0,069	0,020
-234,059	-47,559	0,161	-0,056
-233,044	-200,000	0,019	-0,085
-232,030	83,564	0,088	0,069
-231,015	-200,000	-0,007	0,042
-230,000	-200,000	-0,011	-0,204
-228,986	-15,939	0,044	-0,020
-227,971	-73,855	-0,123	0,032
-226,957	-71,085	0,050	0,014
-225,942	57,823	-0,053	0,037
-224,927	8,371	0,068	-0,037
-223,913	47,114	-0,055	0,037
-222,898	-200,000	0,011	-0,162
-221,884	-200,000	-0,036	-0,129
-220,869	-111,183	0,136	-0,020
-219,855	-200,000	0,030	0,098
-218,840	-19,601	0,105	-0,047
-217,825	456,173	0,064	0,102
-216,811	88,928	0,084	-0,067
-215,796	383,518	-0,128	-0,191
-214,782	209,224	-0,049	-0,055
-213,767	254,449	0,076	0,094
-212,752	185,798	0,090	0,097
-211,738	24,359	0,100	0,060
-210,723	406,858	0,064	0,098
-209,709	-65,615	-0,073	0,021
-208,694	-200,000	-0,008	0,089
-207,679	-133,101	-0,041	0,004
-206,665	-200,000	-0,015	0,128
-205,650	-23,916	0,091	0,039
-204,636	440,431	-0,033	0,052
-203,621	546,848	-0,097	0,168
-202,606	-200,000	0,009	0,050
-201,592	-125,263	-0,073	0,008
-200,577	326,532	-0,032	-0,044
-199,563	-172,123	0,094	-0,002
-198,548	11,465	0,077	0,043
-197,533	-200,000	0,010	0,084
-196,519	-200,000	0,022	0,217
-195,504	109,330	-0,049	-0,042
-194,490	513,378	-0,048	0,080
-193,475	731,733	-0,043	-0,083
-192,460	-108,595	-0,118	0,018
-191,446	21,376	-0,100	-0,058
-190,431	-200,000	-0,003	-0,109
-189,417	800,000	-0,028	-0,066
-188,402	581,354	0,036	-0,064
-187,387	-171,621	-0,060	-0,001
-186,373	-200,000	-0,018	-0,150
-185,358	-109,542	0,152	-0,023
-184,344	123,613	-0,033	-0,030
-183,329	496,673	0,072	0,120
-182,315	800,000	0,039	0,118
-181,300	-55,491	-0,155	0,050
-180,285	-200,000	-0,002	-0,024
-179,271	92,905	-0,083	0,068
-178,256	-200,000	-0,011	-0,113
-177,242	408,746	-0,047	0,072
-176,227	156,009	0,054	-0,054
-175,212	8,902	0,196	0,106
-174,198	262,145	-0,112	0,141
-173,183	133,648	-0,038	0,036
-172,169	305,453	0,007	-0,009
-171,154	195,271	0,082	-0,090
-170,139	800,000	0,087	0,218
-169,125	-200,000	0,002	0,118
-168,110	800,000	0,033	0,101
-167,096	-131,665	-0,067	0,006
-166,081	-200,000	0,023	-0,079
-165,066	800,000	0,026	-0,059
-164,052	-29,470	-0,091	0,037
-163,037	770,438	0,039	-0,077
-162,023	370,892	-0,081	-0,118
-161,008	47,496	0,125	0,084
-159,993	211,100	-0,040	0,045
-158,979	41,313	0,142	0,092
-157,964	397,111	-0,011	-0,016
-156,950	-120,116	-0,030	0,004
-155,935	33,467	-0,096	0,060
-154,920	-200,000	-0,000	0,164
-153,906	254,416	0,081	0,099
-152,891	100,569	-0,053	-0,044
-151,877	-97,963	-0,098	0,018
-150,862	4,486	0,077	-0,041
-149,847	-69,111	-0,037	-0,010
-148,833	274,181	0,034	0,044
-147,818	-164,187	0,169	0,005
-146,804	122,619	-0,115	0,104
-145,789	493,427	0,046	-0,077
-144,775	-200,000	-0,014	-0,052
-143,760	800,000	-0,011	-0,024
-142,745	800,000	-0,068	-0,156
-141,731	64,965	0,078	0,057
-140,716	-84,598	-0,076	-0,017
-139,702	-78,989	0,102	-0,025
-138,687	205,689	0,023	0,026
-137,672	748,105	-0,032	0,063
-136,658	-26,910	-0,102	0,043
-135,643	427,629	-0,119	0,185
-134,629	-200,000	-0,006	0,052
-133,614	85,586	-0,124	0,098
-132,599	538,351	0,050	0,085
-131,585	-102,230	-0,057	0,010
-130,570	245,341	0,057	-0,070
-129,556	-33,102	-0,087	-0,035
-128,541	303,583	-0,059	0,079
-127,526	16,822	-0,066	-0,037
-126,512	87,083	-0,174	-0,138
-125,497	800,000	0,015	0,045
-124,483	-162,887	0,082	0,003
-123,468	32,917	0,041	0,025
-122,453	-200,000	-0,038	-0,138
-121,439	-200,000	-0,016	0,074
-120,424	-124,456	0,127	0,014
-119,410	407,904	0,067	0,102
-118,395	-45,520	0,087	0,031
-117,380	123,417	0,088	0,079
-116,366	-9,942	-0,116	-0,055
-115,351	67,449	-0,052	-0,038
-114,337	45,332	0,092	0,061
-113,322	387,914	0,034	-0,051
-112,307	167,824	0,107	0,109
-111,293	-200,000	0,022	-0,090
-110,278	-200,000	0,003	-0,012
-109,264	-200,000	0,021	0,098
-108,249	52,849	-0,079	0,054
-107,234	-200,000	-0,035	-0,116
-106,220	-52,902	0,036	0,012
-105,205	-200,000	-0,013	-0,077
-104,191	-71,603	0,097	-0,026
-103,176	98,648	-0,018	-0,015
-102,162	650,611	-0,076	-0,140
-101,147	252,650	-0,045	0,055
-100,132	-28,613	0,051	0,021
-99,118	670,198	0,037	-0,069
-98,103	86,542	-0,113	-0,090
-97,089	-123,039	0,144	0,016
-96,074	166,429	0,020	0,021
-95,059	-18,835	-0,117	0,052
-94,045	13,985	0,106	0,059
-93,030	644,841	0,049	-0,090
-92,016	-136,654	-0,161	-0,013
-91,001	151,335	0,066	0,064
-89,986	63,227	-0,076	0,054
-88,972	-200,000	0,006	-0,035
-87,957	800,000	0,008	0,024
-86,943	-119,998	-0,019	-0,002
-85,928	800,000	0,060	-0,131
-84,913	67,681	-0,060	0,044
-83,899	800,000	0,007	-0,016
-82,884	16,915	0,201	-0,114
-81,870	-0,467	0,030	0,015
-80,855	-134,847	0,191	0,016
-79,840	422,536	-0,052	-0,080
-78,826	-200,000	-0,025	-0,079
-77,811	362,709	-0,066	-0,095
-76,797	553,732	-0,047	0,081
-75,782	-126,243	0,056	0,006
-74,767	-200,000	-0,004	0,218
-73,753	-21,140	-0,060	0,026
-72,738	-49,327	0,024	0,008
-71,724	95,354	-0,040	0,033
-70,709	-200,000	0,013	-0,085
-69,694	800,000	0,023	-0,061
-68,680	-76,520	0,063	-0,016
-67,665	91,373	-0,078	-0,063
-66,651	582,186	-0,072	-0,127
-65,636	-200,000	0,005	0,024
-64,622	107,674	-0,066	-0,056
-63,607	141,608	0,106	-0,100
-62,592	683,861	-0,037	0,070
-61,578	442,947	-0,069	-0,109
-60,563	252,540	0,027	-0,033
-59,549	-200,000	0,012	0,057
-58,534	18,099	-1,987	-1,135
-57,519	-200,000	-0,251	-0,861
-56,505	-200,000	-1,254	-5,009
-55,490	-7,582	0,760	0,368
-54,476	800,000	5,316	12,169
-53,461	-200,000	17,596	288,773
-52,446	800,000	724,383	2234,473
-51,432	541,226	1637,533	2810,949
-50,417	110,851	1628,393	1406,191
-49,403	74,438	1283,408	967,140
-48,388	32,063	1026,639	633,768
-47,373	19,951	988,746	570,461
-46,359	18,429	976,698	558,500
-45,344	15,747	972,879	547,523
-44,330	15,968	971,294	547,331
-43,315	15,608	969,393	545,064
-42,300	15,513	968,639	544,308
-41,286	15,464	967,421	543,444
-40,271	15,461	966,476	542,881
-39,257	15,415	965,694	542,273
-38,242	15,499	964,599	541,908
-37,227	15,458	964,006	541,420
-36,213	15,508	963,005	541,000
-35,198	15,401	962,162	540,157
-34,184	15,474	961,590	540,050
-33,169	15,425	960,538	539,280
-32,154	15,540	959,573	539,089
-31,140	15,498	958,754	538,471
-30,125	15,532	957,890	538,075
-29,111	15,475	957,161	537,458
-28,096	15,509	956,634	537,251
-27,082	15,449	955,988	536,674
-26,067	15,482	955,183	536,307
-25,052	15,400	954,646	535,720
-24,038	15,499	953,550	535,404
-23,023	15,464	953,027	534,977
-22,009	15,473	952,333	534,593
-20,994	15,473	951,868	534,312
-19,979	15,494	951,160	533,959
-18,965	15,454	950,514	533,448
-17,950	15,479	950,032	533,235
-16,936	15,362	949,459	532,521
-15,921	15,442	948,753	532,358
-14,906	15,391	947,962	531,730
-13,892	15,381	947,178	531,238
-12,877	15,321	946,790	530,807
-11,863	15,349	945,958	530,410
-10,848	15,348	945,563	530,164
-9,833	15,426	945,110	530,136
-8,819	15,404	944,310	529,597
-7,804	15,399	943,865	529,311
-6,790	15,362	943,178	528,786
-5,775	15,432	942,637	528,686
-4,760	15,434	941,706	528,148
-3,746	15,386	941,286	527,738
-2,731	15,227	940,759	526,919
-1,717	15,207	940,012	526,419
-0,702	15,207	939,398	526,054
0,313	14,973	938,613	525,669
1,327	18,453	936,812	535,574
2,342	27,754	790,889	476,676
3,356	24,572	445,021	263,481
4,371	-5,284	294,967	144,857
5,386	-9,299	276,705	132,078
6,400	-10,445	270,889	128,228
7,415	-10,914	268,738	126,767
8,429	-10,780	267,275	126,188
9,444	-10,803	266,307	125,698
10,459	-10,758	265,747	125,464
11,473	-11,036	265,284	124,982
12,488	-10,966	264,765	124,789
13,502	-11,227	264,058	124,209
14,517	-10,937	263,587	124,239
15,531	-10,849	263,313	124,178
16,546	-10,950	262,959	123,908
17,561	-10,989	262,468	123,631
18,575	-10,786	262,177	123,665
19,590	-11,071	261,927	123,280
20,604	-10,957	261,615	123,225
21,619	-11,069	261,283	122,958
22,634	-11,151	260,892	122,689
23,648	-11,088	260,578	122,587
24,663	-11,109	260,298	122,426
25,677	-10,991	260,101	122,427
26,692	-11,010	259,847	122,280
27,707	-11,059	259,547	122,084
28,721	-11,066	259,299	121,950
29,736	-11,192	259,007	121,690
30,750	-11,104	258,816	121,667
31,765	-10,972	258,488	121,619
32,780	-11,225	258,349	121,320
33,794	-11,052	258,033	121,313
34,809	-10,986	257,747	121,225
35,823	-11,073	257,322	120,939
36,838	-11,051	257,330	120,951
37,853	-11,405	257,138	120,539
38,867	-11,073	256,700	120,614
39,882	-11,152	256,480	120,431
40,896	-11,097	256,370	120,417
41,911	-11,215	255,998	120,128
42,926	-10,956	255,792	120,247
43,940	-11,379	255,675	119,812
44,955	-11,402	255,435	119,669
45,969	-11,358	255,227	119,599
46,984	-11,636	254,907	119,197
47,999	-11,933	254,743	118,851
49,013	-11,893	254,322	118,678
50,028	-11,912	254,156	118,575
51,042	-11,926	253,828	118,398
52,057	-12,138	253,517	118,060
53,071	-12,062	253,553	118,132
54,086	-11,911	253,292	118,129
55,101	-11,882	253,045	118,029
56,115	-11,576	253,021	118,271
57,130	-11,061	252,877	118,638
58,144	-10,866	252,705	118,714
59,159	-11,160	252,542	118,374
60,174	-10,957	252,326	118,437
61,188	-10,962	251,952	118,247
62,203	-10,996	251,767	118,120
63,217	-11,162	251,627	117,901
64,232	-11,051	251,511	117,932
65,247	-10,962	251,211	117,857
66,261	-10,970	250,952	117,718
67,276	-11,184	250,804	117,455
68,290	-11,576	250,424	116,932
69,305	-11,530	250,162	116,838
70,320	-11,675	250,056	116,655
71,334	-11,347	250,038	116,916
72,349	-11,032	249,731	117,029
73,363	-10,927	249,676	117,082
74,378	-10,982	249,234	116,818
75,393	-11,011	249,127	116,733
76,407	-11,135	249,001	116,559
77,422	-11,084	248,658	116,431
78,436	-10,947	248,486	116,456
79,451	-11,163	248,456	116,248
80,466	-11,300	248,115	115,962
81,480	-11,388	247,808	115,735
82,495	-11,345	247,613	115,670
83,509	-11,522	247,437	115,428
84,524	-11,312	247,132	115,452
85,539	-11,467	246,881	115,194
86,553	-11,668	246,826	114,990
87,568	-11,338	246,622	115,162
88,582	-11,368	246,310	114,980
89,597	-11,353	246,257	114,958
90,611	-11,246	246,014	114,924
91,626	-11,189	246,005	114,957
92,641	-11,031	245,729	114,949
93,655	-11,296	245,634	114,674
94,670	-11,237	245,413	114,610
95,684	-11,397	245,157	114,347
96,699	-11,275	244,984	114,357
97,714	-11,340	244,804	114,209
98,728	-11,438	244,650	114,046
99,743	-11,666	244,448	113,751
100,757	-11,598	244,035	113,606
101,772	-11,544	243,951	113,602
102,787	-11,466	243,747	113,561
103,801	-11,391	243,624	113,555
104,816	-11,197	243,420	113,611
105,830	-11,273	243,364	113,511
106,845	-11,214	243,292	113,516
107,860	-11,032	242,969	113,505
108,874	-11,170	242,763	113,285
109,889	-11,373	242,570	113,018
110,903	-11,440	242,358	112,854
111,918	-11,375	242,130	112,791
112,933	-11,217	242,142	112,916
113,947	-11,394	242,020	112,704
114,962	-11,427	241,743	112,538
115,976	-11,136	241,580	112,691
116,991	-11,188	241,251	112,485
118,006	-11,301	241,229	112,372
119,020	-11,172	241,059	112,389
120,035	-11,138	240,920	112,341
121,049	-10,907	240,737	112,435
122,064	-11,239	240,619	112,099
123,079	-11,165	240,306	112,003
124,093	-11,225	240,058	111,828
125,108	-11,516	239,869	111,494
126,122	-11,707	239,629	111,218
127,137	-11,719	239,382	111,083
128,151	-11,645	239,401	111,142
129,166	-11,488	239,094	111,117
130,181	-11,571	238,962	110,978
131,195	-11,564	238,741	110,871
132,210	-11,199	238,541	111,064
133,224	-11,390	238,576	110,916
134,239	-11,278	238,355	110,894
135,254	-11,103	237,988	110,854
136,268	-11,367	237,868	110,576
137,283	-11,622	237,674	110,270
138,297	-11,896	237,372	109,900
139,312	-11,707	237,293	110,005
140,327	-11,290	237,114	110,247
141,341	-11,078	237,235	110,464
142,356	-10,832	237,065	110,573
143,370	-10,770	236,861	110,517
144,385	-10,861	236,685	110,352
145,400	-10,814	236,566	110,325
146,414	-10,630	236,262	110,319
147,429	-11,025	236,188	109,960
148,443	-10,882	235,973	109,964
149,458	-10,941	235,822	109,837
150,473	-11,114	235,703	109,634
151,487	-10,857	235,402	109,689
152,502	-10,969	235,387	109,582
153,516	-10,805	235,198	109,615
154,531	-10,867	234,936	109,435
155,546	-11,183	234,836	109,127
156,560	-10,931	234,581	109,199
157,575	-11,359	234,598	108,858
158,589	-11,094	234,258	108,900
159,604	-10,966	234,179	108,955
160,619	-10,723	233,852	108,985
161,633	-10,520	233,726	109,077
162,648	-10,789	233,657	108,823
163,662	-10,816	233,411	108,677
164,677	-10,994	233,336	108,492
165,692	-10,861	233,153	108,502
166,706	-10,702	233,057	108,573
167,721	-10,599	233,002	108,619
168,735	-10,773	232,782	108,370
169,750	-10,762	232,616	108,291
170,764	-10,762	232,487	108,222
171,779	-10,902	232,358	108,042
172,794	-10,667	232,182	108,134
173,808	-10,858	231,935	107,860
174,823	-11,437	231,621	107,252
175,837	-11,808	231,525	106,908
176,852	-11,266	231,489	107,305
177,867	-10,962	231,318	107,454
178,881	-10,902	231,264	107,466
179,896	-10,847	231,004	107,378
180,910	-10,739	230,909	107,409
181,925	-10,678	230,700	107,350
182,940	-10,587	230,591	107,360
183,954	-10,619	230,375	107,225
184,969	-10,695	230,336	107,139
185,983	-10,598	230,209	107,145
186,998	-10,451	230,052	107,176
188,013	-10,525	229,867	107,024
189,027	-10,664	229,641	106,801
190,042	-10,455	229,427	106,853
191,056	-10,719	229,455	106,653
192,071	-10,786	229,325	106,531
193,086	-10,839	229,091	106,372
194,100	-10,542	228,863	106,486
195,115	-10,858	228,414	106,024
196,129	-10,974	228,499	105,965
197,144	-5,743	230,327	110,856
198,159	0,221	232,170	116,377
199,173	2,949	232,826	118,820
200,188	3,420	232,639	119,080
201,202	3,351	232,612	119,003
202,217	3,710	232,426	119,175
203,232	3,712	232,497	119,203
204,246	3,852	232,247	119,173
205,261	3,770	232,192	119,070
206,275	4,253	231,879	119,272
207,290	4,236	231,861	119,240
208,304	4,105	231,692	119,041
209,319	4,076	231,454	118,886
210,334	4,014	231,379	118,788
211,348	3,734	231,173	118,456
212,363	3,575	230,791	118,128
213,377	3,347	230,566	117,827
214,392	2,940	230,559	117,500
215,407	3,295	230,246	117,602
216,421	3,457	230,215	117,700
217,436	3,423	229,965	117,536
218,450	3,247	229,808	117,310
219,465	3,046	229,706	117,093
220,480	3,114	229,433	116,996
221,494	3,231	229,480	117,099
222,509	3,535	229,246	117,202
223,523	3,290	229,197	116,979
224,538	3,238	228,918	116,786
225,553	3,273	228,804	116,745
226,567	3,334	228,818	116,787
227,582	3,473	228,684	116,815
228,596	3,811	228,538	116,987
229,611	3,530	228,392	116,688
230,626	3,015	228,154	116,165
231,640	3,058	227,863	116,039
232,655	3,494	227,737	116,295
233,669	3,746	227,828	116,523
234,684	4,088	227,585	116,647
235,699	3,748	227,505	116,338
236,713	3,391	227,166	115,884
237,728	3,254	227,095	115,734
238,742	3,220	226,840	115,569
239,757	3,273	226,608	115,480
240,772	3,409	226,523	115,528
241,786	3,252	226,409	115,342
242,801	3,481	226,310	115,453
243,815	3,684	226,383	115,633
244,830	3,694	226,087	115,479
245,844	3,471	225,892	115,202
246,859	3,433	225,673	115,052
247,874	3,547	225,645	115,113
248,888	3,479	225,552	115,004
249,903	3,470	225,454	114,937
250,917	3,187	225,160	114,565
251,932	3,383	225,106	114,674
252,947	3,080	224,665	114,213
253,961	3,215	224,736	114,339
254,976	3,460	224,500	114,392
255,990	3,406	224,539	114,361
257,005	3,538	224,429	114,394
258,020	3,508	224,145	114,216
259,034	3,753	224,188	114,411
260,049	3,653	223,930	114,194
261,063	3,520	223,950	114,095
262,078	3,463	223,794	113,964
263,093	3,665	223,512	113,959
264,107	3,564	223,436	113,836
265,122	3,539	223,212	113,692
266,136	3,709	223,269	113,838
267,151	3,702	222,968	113,669
268,166	3,208	222,684	113,149
269,180	3,133	222,567	113,023
270,195	3,520	222,324	113,176
271,209	2,946	222,430	112,796
272,224	3,232	222,123	112,841
273,239	3,394	222,090	112,933
274,253	3,263	221,780	112,670
275,268	2,995	221,645	112,393
276,282	3,108	221,500	112,393
277,297	2,862	221,318	112,110
278,312	2,957	221,245	112,133
279,326	3,171	221,167	112,241
280,341	3,339	221,004	112,271
281,355	3,422	220,960	112,299
282,370	3,127	220,820	112,002
283,384	3,055	220,544	111,799
284,399	3,045	220,242	111,629
285,414	3,032	220,212	111,595
286,428	3,350	220,033	111,726
287,443	3,658	219,976	111,912
288,457	3,403	219,850	111,652
289,472	3,161	219,742	111,410
290,487	2,800	219,496	111,013
291,501	2,562	219,416	110,789
292,516	3,194	219,119	111,089
293,530	3,009	218,985	110,877
294,545	3,071	218,961	110,900
295,560	3,185	218,853	110,918
296,574	3,224	218,667	110,842
297,589	3,218	218,574	110,780
298,603	3,368	218,547	110,866
299,618	3,256	218,375	110,687
300,633	3,477	218,212	110,755
301,647	3,471	218,154	110,711
302,662	3,556	218,035	110,702
303,676	3,583	217,748	110,566
304,691	3,568	217,815	110,579
305,706	3,673	217,559	110,515
306,720	3,530	217,333	110,288
307,735	3,255	217,286	110,056
308,749	3,031	217,044	109,763
309,764	3,416	217,111	110,063
310,779	3,592	216,798	110,021
311,793	3,358	216,743	109,816
312,808	3,553	216,446	109,795
313,822	3,486	216,372	109,700
314,837	3,548	216,203	109,648
315,852	3,161	216,011	109,265
316,866	3,151	215,936	109,211
317,881	3,529	215,698	109,350
318,895	3,279	215,759	109,193
319,910	3,229	215,527	109,030
320,925	2,970	215,434	108,789
321,939	2,826	215,205	108,560
322,954	2,914	215,046	108,534
323,968	3,245	214,828	108,648
324,983	3,267	214,877	108,679
325,997	3,469	214,935	108,843
327,012	3,508	214,689	108,736
328,027	3,273	214,583	108,506
329,041	3,741	214,443	108,757
330,056	3,850	214,378	108,791
331,070	3,705	213,945	108,459
332,085	3,265	213,789	108,060
333,100	3,353	213,830	108,134
334,114	3,362	213,515	107,971
335,129	3,243	213,574	107,907
336,143	3,096	213,431	107,722
337,158	3,156	213,387	107,732
338,173	3,242	213,163	107,670
339,187	3,315	212,926	107,592
340,202	3,087	212,751	107,334
341,216	2,806	212,598	107,050
342,231	2,852	212,560	107,054
343,246	3,012	212,273	107,012
344,260	3,188	212,260	107,118
345,275	3,257	212,162	107,108
346,289	3,338	211,994	107,070
347,304	3,246	212,028	107,013
348,319	3,294	211,718	106,881
349,333	3,263	211,634	106,808
350,348	3,601	211,438	106,935
351,362	3,574	211,381	106,878
352,377	3,543	211,335	106,823
353,392	3,275	211,144	106,530
354,406	3,451	210,977	106,559
355,421	196,471	1340,184	1421,107
356,435	156,966	1477,730	1421,080
