DTS Sentinel unit serial number:	SN410029Multiplexer serial number:	ORYXHardware model number:	OX2-SRSoftware version number:	ORYX F/W v4,00 Oryx Data Collector v3.7.2.0data status	okinstallation	B6 Nyhavnadifferential loss correction	single-endedforward channel	channel 2reverse channel	N/Adate	2023/12/11time	04:05:08forward acquisition time	300,00reverse acquisition time	0,00gamma	499,1914k internal	0,3125k external	0,3125temperature offset calibration	1,0000default loss term (dB/km)	0,3820temperature slope calibration	1,0000multiplexer offset coefficient	1,0000multiplexer slope coefficient	1,0000fibre end	0,00T internal ref (°C)	20,79T ext. ref 1 (°C)	3,53T ext. ref 2 (°C)	3,55length (m)	temperature (°C)	Stokes	anti-Stokes-744,400	-35,960	0,065	-0,026
-743,385	8,828	-0,290	0,163
-742,371	-37,602	0,219	-0,087
-741,356	-78,180	-0,315	0,080
-740,342	155,064	0,023	-0,024
-739,327	-71,663	-0,174	0,048
-738,312	440,517	-0,052	0,084
-737,298	-82,960	-0,204	-0,049
-736,283	27,985	-0,031	-0,019
-735,269	-101,037	-0,187	0,034
-734,254	-61,377	0,081	0,025
-733,239	-122,364	-0,487	-0,058
-732,225	-200,000	0,023	0,142
-731,210	70,533	-0,060	0,046
-730,196	205,513	0,085	-0,099
-729,181	-87,235	-0,071	-0,016
-728,167	-136,377	-0,055	0,005
-727,152	167,121	-0,032	-0,034
-726,137	57,435	-0,128	-0,093
-725,123	490,133	-0,063	-0,108
-724,108	685,001	-0,098	-0,191
-723,094	442,458	-0,083	-0,136
-722,079	-200,000	0,005	-0,072
-721,064	-196,343	0,074	-0,000
-720,050	-83,625	-0,066	0,016
-719,035	-61,985	0,120	0,037
-718,021	-74,769	-0,074	-0,020
-717,006	800,000	0,038	-0,086
-715,991	-108,030	-0,076	0,012
-714,977	-40,248	-0,064	-0,025
-713,962	-70,149	-0,223	0,063
-712,948	-40,858	0,132	-0,051
-711,933	-200,000	0,015	0,107
-710,918	-200,000	0,005	0,138
-709,904	-61,146	0,081	0,025
-708,889	145,815	0,055	0,055
-707,875	-200,000	-0,004	-0,070
-706,860	-200,000	0,009	0,069
-705,845	398,213	0,004	-0,006
-704,831	1,088	0,097	0,052
-703,816	-160,955	0,141	0,005
-702,802	-58,967	-0,144	0,046
-701,787	-36,462	-0,122	-0,049
-700,772	373,263	-0,010	-0,015
-699,758	29,082	-0,191	-0,120
-698,743	199,591	0,098	0,112
-697,729	800,000	0,011	0,027
-696,714	705,363	-0,078	0,153
-695,699	-75,521	-0,054	-0,014
-694,685	576,215	-0,031	-0,056
-693,670	231,218	-0,051	-0,062
-692,656	800,000	0,026	0,082
-691,641	75,393	-0,041	0,032
-690,627	-11,939	0,075	-0,036
-689,612	-65,076	-0,069	-0,020
-688,597	800,000	0,045	-0,111
-687,583	52,668	-0,125	-0,089
-686,568	-82,868	-0,031	0,007
-685,554	-200,000	0,018	-0,107
-684,539	-200,000	0,017	-0,060
-683,524	-200,000	0,001	-0,009
-682,510	-48,831	-0,136	0,048
-681,495	-30,477	-0,146	0,061
-680,481	-29,831	-0,171	0,072
-679,466	555,194	0,005	-0,010
-678,451	119,970	-0,066	-0,061
-677,437	-58,193	-0,101	0,032
-676,422	39,158	-0,060	0,040
-675,408	-200,000	-0,005	0,061
-674,393	-200,000	-0,000	0,150
-673,378	-99,670	-0,060	0,011
-672,364	145,003	-0,087	-0,087
-671,349	140,787	-0,143	-0,140
-670,335	14,640	0,051	0,030
-669,320	-200,000	0,007	0,073
-668,305	-200,000	0,000	0,009
-667,291	-200,000	0,015	-0,070
-666,276	56,840	-0,031	-0,023
-665,262	768,616	-0,048	-0,097
-664,247	93,959	-0,053	0,045
-663,232	-46,087	0,077	0,028
-662,218	88,065	0,145	0,120
-661,203	106,470	0,059	0,052
-660,189	-200,000	-0,001	0,040
-659,174	-62,499	-0,153	0,047
-658,159	-3,294	-0,127	-0,066
-657,145	358,515	0,033	-0,049
-656,130	800,000	-0,060	-0,155
-655,116	-200,000	0,010	-0,046
-654,101	254,985	0,068	-0,087
-653,086	373,900	-0,045	0,069
-652,072	535,304	-0,042	0,074
-651,057	74,781	-0,054	0,042
-650,043	-121,998	-0,146	-0,018
-649,028	65,920	0,077	0,058
-648,014	4,933	0,065	0,035
-646,999	-119,056	-0,104	-0,013
-645,984	-200,000	-0,041	0,153
-644,970	43,360	-0,070	0,048
-643,955	46,702	-0,052	-0,036
-642,941	800,000	0,015	-0,044
-641,926	153,197	0,040	0,040
-640,911	-200,000	-0,031	0,131
-639,897	436,840	-0,067	0,109
-638,882	-200,000	0,011	0,121
-637,868	171,494	-0,071	0,076
-636,853	494,613	0,045	-0,076
-635,838	17,422	-0,139	0,082
-634,824	20,434	-0,117	0,070
-633,809	-22,260	-0,045	0,020
-632,795	200,148	0,082	-0,094
-631,780	-200,000	0,004	0,103
-630,765	800,000	-0,050	0,122
-629,751	125,422	0,051	0,047
-628,736	44,629	-0,181	-0,123
-627,722	-92,143	-0,176	-0,037
-626,707	54,185	0,085	-0,061
-625,692	-101,266	0,075	0,013
-624,678	-5,662	-0,050	0,025
-623,663	-200,000	-0,024	0,100
-622,649	162,863	-0,075	-0,078
-621,634	-200,000	0,001	0,005
-620,619	206,755	-0,041	-0,048
-619,605	-48,327	-0,040	0,014
-618,590	401,945	-0,034	0,052
-617,576	-200,000	0,025	0,129
-616,561	174,953	0,016	-0,018
-615,546	800,000	0,030	0,081
-614,532	151,474	0,068	-0,069
-613,517	-175,831	-0,108	-0,002
-612,503	800,000	-0,039	0,125
-611,488	-183,382	0,038	-0,000
-610,474	12,832	0,030	-0,017
-609,459	-61,331	-0,103	-0,032
-608,444	-24,519	0,080	0,035
-607,430	-200,000	-0,004	0,057
-606,415	-200,000	-0,022	-0,100
-605,401	800,000	0,021	-0,059
-604,386	-79,757	-0,053	-0,013
-603,371	338,056	0,057	-0,082
-602,357	655,507	0,038	-0,072
-601,342	739,639	0,049	0,097
-600,328	-129,908	-0,104	-0,010
-599,313	800,000	0,018	-0,053
-598,298	495,627	-0,027	0,045
-597,284	-200,000	-0,025	-0,164
-596,269	-36,912	-0,057	-0,023
-595,255	-26,382	0,095	-0,041
-594,240	-200,000	-0,010	-0,125
-593,225	-200,000	0,034	0,125
-592,211	-200,000	-0,003	-0,138
-591,196	-60,999	0,037	0,011
-590,182	-200,000	0,025	-0,161
-589,167	-137,044	-0,016	0,001
-588,152	-200,000	-0,024	0,111
-587,138	37,975	0,046	-0,030
-586,123	-41,383	-0,049	0,018
-585,109	229,546	-0,098	-0,119
-584,094	-200,000	0,005	-0,127
-583,079	-66,008	0,088	-0,026
-582,065	800,000	-0,027	-0,077
-581,050	-21,639	0,097	-0,043
-580,036	311,128	0,079	-0,110
-579,021	204,753	-0,017	-0,020
-578,006	361,512	0,049	-0,073
-576,992	-66,368	0,019	-0,006
-575,977	-62,876	0,018	-0,005
-574,963	358,329	0,064	0,094
-573,948	82,065	0,075	0,060
-572,934	429,122	0,061	0,098
-571,919	-200,000	-0,003	-0,043
-570,904	341,830	-0,084	-0,122
-569,890	349,234	0,021	0,031
-568,875	-200,000	0,007	-0,053
-567,861	-155,815	0,068	0,003
-566,846	-99,718	0,104	-0,019
-565,831	-50,086	-0,163	-0,057
-564,817	-27,700	-0,128	0,055
-563,802	-61,322	-0,100	-0,031
-562,788	408,512	0,084	-0,132
-561,773	800,000	-0,031	0,090
-560,758	-200,000	0,005	0,085
-559,744	-46,778	0,105	0,038
-558,729	-200,000	0,004	-0,046
-557,715	170,847	0,055	0,058
-556,700	406,788	-0,098	-0,153
-555,685	-45,163	0,078	-0,028
-554,671	-200,000	0,012	-0,072
-553,656	-200,000	0,018	0,129
-552,642	-39,167	0,075	-0,029
-551,627	-200,000	0,009	-0,035
-550,612	-200,000	0,029	-0,145
-549,598	-200,000	0,020	-0,158
-548,583	458,351	0,065	-0,107
-547,569	-6,870	-0,065	-0,033
-546,554	-200,000	0,003	-0,068
-545,539	-58,029	0,074	-0,024
-544,525	72,870	-0,116	-0,089
-543,510	800,000	0,043	-0,139
-542,496	-200,000	-0,028	-0,092
-541,481	-200,000	0,007	0,051
-540,466	-200,000	-0,001	-0,030
-539,452	152,130	0,035	0,036
-538,437	800,000	0,038	0,091
-537,423	54,411	-0,039	-0,028
-536,408	85,088	0,040	0,032
-535,393	-110,270	-0,144	-0,022
-534,379	603,675	-0,031	0,058
-533,364	800,000	0,074	0,161
-532,350	57,119	0,057	0,041
-531,335	-65,157	0,111	0,033
-530,321	-85,670	-0,156	0,035
-529,306	250,548	0,040	-0,050
-528,291	800,000	0,042	0,095
-527,277	-178,698	-0,037	-0,001
-526,262	155,742	-0,072	-0,073
-525,248	-16,138	-0,012	-0,006
-524,233	376,045	0,137	0,207
-523,218	-105,300	0,045	-0,008
-522,204	-41,115	-0,095	-0,036
-521,189	-200,000	0,002	-0,018
-520,175	-26,785	-0,095	0,041
-519,160	-17,628	0,143	-0,066
-518,145	800,000	0,016	0,034
-517,131	132,305	0,118	-0,112
-516,116	699,670	0,060	-0,118
-515,102	15,852	0,068	-0,039
-514,087	256,183	-0,118	-0,149
-513,072	596,103	0,063	0,116
-512,058	-195,021	0,032	0,000
-511,043	235,307	-0,052	-0,064
-510,029	800,000	-0,079	0,171
-509,014	-200,000	-0,004	0,020
-507,999	-200,000	0,003	0,072
-506,985	87,735	0,007	-0,006
-505,970	-102,513	-0,045	0,008
-504,956	-200,000	-0,013	-0,155
-503,941	4,529	0,070	-0,038
-502,926	-200,000	0,007	0,048
-501,912	215,969	0,100	0,117
-500,897	-200,000	0,000	0,033
-499,883	-200,000	-0,008	-0,031
-498,868	-153,881	-0,030	-0,001
-497,853	138,842	-0,020	0,019
-496,839	-200,000	-0,008	-0,197
-495,824	17,058	0,121	-0,071
-494,810	-72,841	0,063	0,017
-493,795	-200,000	-0,004	-0,024
-492,781	58,714	0,038	0,027
-491,766	-74,653	0,124	0,033
-490,751	-200,000	0,006	-0,041
-489,737	800,000	-0,027	0,056
-488,722	344,142	0,038	-0,055
-487,708	17,221	0,079	-0,046
-486,693	-200,000	0,027	-0,157
-485,678	-200,000	0,003	0,085
-484,664	-58,634	-0,112	0,036
-483,649	-16,170	-0,117	-0,055
-482,635	800,000	0,037	-0,100
-481,620	-200,000	0,022	-0,097
-480,605	-200,000	0,021	0,183
-479,591	748,706	0,035	0,070
-478,576	478,919	0,073	-0,123
-477,562	-92,859	-0,025	0,005
-476,547	-200,000	0,007	0,070
-475,532	-14,292	-0,051	-0,024
-474,518	-57,596	0,039	-0,013
-473,503	6,152	0,060	0,032
-472,489	-173,297	0,107	-0,002
-471,474	-200,000	0,005	0,093
-470,459	-7,301	-0,023	0,012
-469,445	-200,000	0,049	-0,221
-468,430	800,000	0,013	-0,027
-467,416	-200,000	-0,066	0,000
-466,401	-98,258	-0,089	-0,017
-465,386	-200,000	0,006	0,043
-464,372	-54,969	0,017	0,006
-463,357	-200,000	-0,008	-0,141
-462,343	-200,000	-0,022	-0,103
-461,328	14,392	-0,094	-0,054
-460,313	129,003	0,025	0,024
-459,299	-119,425	0,076	-0,010
-458,284	55,947	-0,155	0,110
-457,270	-31,688	0,084	0,035
-456,255	3,347	-0,053	-0,028
-455,241	263,025	-0,042	0,054
-454,226	319,235	-0,041	0,058
-453,211	800,000	0,040	-0,108
-452,197	289,331	0,076	0,102
-451,182	47,120	0,044	0,030
-450,168	-200,000	-0,002	-0,021
-449,153	-125,508	0,048	0,005
-448,138	-200,000	0,025	-0,152
-447,124	48,198	-0,065	-0,044
-446,109	-89,324	0,139	-0,030
-445,095	98,131	0,092	-0,078
-444,080	800,000	0,014	0,046
-443,065	800,000	-0,055	0,146
-442,051	146,110	0,056	0,055
-441,036	65,645	-0,078	0,058
-440,022	585,852	0,043	-0,078
-439,007	-182,512	0,044	-0,001
-437,992	92,656	0,054	0,045
-436,978	-25,192	0,120	-0,052
-435,963	800,000	0,049	0,104
-434,949	800,000	-0,047	-0,113
-433,934	-5,640	0,062	0,031
-432,919	143,183	-0,121	-0,118
-431,905	144,249	-0,049	-0,048
-430,890	-60,896	0,184	0,057
-429,876	106,120	-0,060	0,052
-428,861	200,924	0,086	-0,098
-427,846	106,066	-0,058	-0,051
-426,832	-137,905	-0,038	0,003
-425,817	118,897	-0,059	-0,054
-424,803	196,036	0,079	-0,089
-423,788	90,416	0,043	0,036
-422,773	354,774	0,042	0,062
-421,759	-89,055	-0,101	0,022
-420,744	239,879	0,118	-0,144
-419,730	343,926	0,070	-0,101
-418,715	-56,353	-0,010	0,003
-417,701	13,758	0,127	0,072
-416,686	184,527	-0,067	-0,073
-415,671	134,314	-0,073	0,070
-414,657	614,373	0,041	0,076
-413,642	-21,683	0,109	0,049
-412,628	23,819	-0,154	-0,093
-411,613	-200,000	0,002	0,019
-410,598	107,640	-0,050	-0,044
-409,584	15,735	0,040	0,023
-408,569	492,168	0,043	0,073
-407,555	-94,335	-0,069	-0,014
-406,540	34,093	-0,095	-0,061
-405,525	-200,000	-0,006	-0,079
-404,511	-200,000	0,006	0,026
-403,496	200,681	0,036	-0,041
-402,482	228,733	-0,105	-0,126
-401,467	242,567	0,065	0,081
-400,452	24,016	0,051	-0,031
-399,438	-200,000	-0,001	-0,041
-398,423	800,000	0,014	-0,040
-397,409	10,147	0,066	-0,037
-396,394	-200,000	-0,010	0,070
-395,379	101,218	0,112	-0,095
-394,365	211,032	0,106	0,123
-393,350	-200,000	0,015	-0,092
-392,336	64,925	0,020	0,015
-391,321	605,834	-0,040	0,074
-390,306	-200,000	0,005	-0,041
-389,292	-200,000	0,020	-0,114
-388,277	184,312	-0,038	-0,041
-387,263	-200,000	0,006	0,061
-386,248	410,118	0,050	0,077
-385,233	218,871	-0,070	0,082
-384,219	-200,000	-0,056	-0,184
-383,204	582,473	0,036	-0,066
-382,190	13,033	-0,057	0,033
-381,175	144,178	-0,062	0,061
-380,160	20,341	-0,087	-0,051
-379,146	12,637	0,160	0,090
-378,131	-47,661	0,156	0,055
-377,117	-12,176	-0,074	-0,035
-376,102	-75,739	-0,105	-0,027
-375,088	800,000	0,036	0,094
-374,073	-119,567	-0,078	-0,010
-373,058	-200,000	0,008	-0,082
-372,044	571,757	0,046	0,082
-371,029	-200,000	-0,031	-0,145
-370,015	-148,220	-0,171	0,010
-369,000	180,658	0,046	-0,049
-367,985	27,630	-0,071	-0,044
-366,971	229,740	-0,039	0,046
-365,956	-64,876	-0,025	-0,007
-364,942	252,802	0,061	-0,076
-363,927	148,534	0,032	-0,032
-362,912	252,227	-0,065	0,082
-361,898	6,987	0,145	-0,079
-360,883	800,000	0,015	-0,046
-359,869	-200,000	-0,036	0,211
-358,854	-33,295	0,105	0,042
-357,839	-96,987	0,042	0,008
-356,825	148,811	-0,013	-0,013
-355,810	144,753	0,035	0,034
-354,796	629,044	-0,045	0,083
-353,781	-171,503	-0,142	-0,003
-352,766	-73,294	0,121	0,032
-351,752	102,019	0,065	0,055
-350,737	800,000	0,022	0,044
-349,723	356,845	-0,077	-0,113
-348,708	-200,000	-0,002	0,102
-347,693	-133,834	0,039	-0,003
-346,679	-200,000	-0,014	-0,058
-345,664	-200,000	-0,016	-0,153
-344,650	221,599	-0,020	0,024
-343,635	568,793	-0,052	-0,094
-342,620	-200,000	0,035	0,196
-341,606	800,000	0,056	0,121
-340,591	137,316	-0,114	-0,110
-339,577	-200,000	0,033	-0,117
-338,562	-200,000	0,012	-0,083
-337,548	-142,703	0,084	0,006
-336,533	397,363	-0,053	0,081
-335,518	-200,000	0,019	-0,065
-334,504	-200,000	0,021	0,147
-333,489	-88,252	-0,177	0,039
-332,475	383,111	-0,067	-0,101
-331,460	176,170	-0,068	-0,072
-330,445	-31,102	-0,100	0,041
-329,431	-200,000	-0,001	0,020
-328,416	-200,000	0,035	0,137
-327,402	800,000	-0,046	-0,134
-326,387	462,916	0,038	0,063
-325,372	-49,491	-0,092	0,032
-324,358	800,000	0,027	0,073
-323,343	-71,642	-0,107	-0,029
-322,329	241,955	-0,048	0,059
-321,314	7,117	0,147	0,080
-320,299	800,000	0,028	0,079
-319,285	174,396	0,062	0,066
-318,270	-81,784	-0,096	-0,023
-317,256	-17,624	0,074	-0,034
-316,241	-31,546	-0,087	0,036
-315,226	102,140	0,027	0,023
-314,212	-138,362	0,081	-0,006
-313,197	283,544	-0,079	0,104
-312,183	417,634	0,056	0,088
-311,168	34,334	-0,083	-0,053
-310,153	-175,447	-0,051	0,001
-309,139	800,000	-0,035	-0,076
-308,124	313,952	0,056	-0,077
-307,110	773,032	0,052	0,104
-306,095	-200,000	-0,011	0,079
-305,080	4,587	0,099	-0,053
-304,066	-198,895	-0,064	0,000
-303,051	-70,547	0,012	-0,003
-302,037	69,536	-0,054	0,040
-301,022	-44,470	-0,017	-0,006
-300,008	800,000	-0,026	-0,057
-298,993	-200,000	0,023	0,135
-297,978	62,559	0,034	-0,025
-296,964	385,578	-0,026	-0,039
-295,949	159,792	-0,065	-0,066
-294,935	-200,000	-0,025	0,110
-293,920	233,125	0,024	-0,029
-292,905	-200,000	-0,041	0,177
-291,891	-200,000	0,007	0,156
-290,876	168,731	-0,045	0,047
-289,862	-200,000	0,002	-0,021
-288,847	58,417	-0,054	0,039
-287,832	71,725	-0,072	-0,055
-286,818	800,000	-0,044	-0,093
-285,803	205,589	-0,025	0,029
-284,789	-200,000	0,023	0,142
-283,774	-113,719	0,099	-0,014
-282,759	18,099	-0,108	0,063
-281,745	-69,938	-0,062	0,017
-280,730	-200,000	0,004	-0,023
-279,716	-124,494	-0,092	0,010
-278,701	56,283	0,169	-0,120
-277,686	-200,000	0,019	0,119
-276,672	-200,000	0,009	0,070
-275,657	-200,000	0,002	-0,062
-274,643	360,523	-0,036	-0,053
-273,628	-130,280	-0,173	-0,017
-272,613	197,527	-0,019	-0,022
-271,599	583,493	0,060	-0,109
-270,584	345,152	-0,028	0,041
-269,570	452,784	-0,040	0,065
-268,555	-148,082	-0,057	0,003
-267,540	702,813	-0,019	-0,037
-266,526	-63,435	-0,117	0,035
-265,511	-200,000	0,037	-0,197
-264,497	-72,755	0,119	0,032
-263,482	16,048	-0,070	0,040
-262,467	-55,181	0,115	0,038
-261,453	366,254	0,019	-0,029
-260,438	183,879	0,047	0,051
-259,424	68,889	0,010	0,007
-258,409	0,981	0,087	-0,045
-257,395	-40,548	-0,169	0,064
-256,380	-200,000	0,002	0,047
-255,365	-200,000	-0,045	0,150
-254,351	770,913	0,026	0,053
-253,336	-200,000	0,010	-0,042
-252,322	212,549	-0,102	-0,117
-251,307	-73,364	-0,029	0,008
-250,292	140,458	-0,104	0,100
-249,278	-200,000	0,008	0,068
-248,263	-125,413	0,107	-0,012
-247,249	800,000	-0,031	0,064
-246,234	800,000	-0,064	-0,131
-245,219	17,965	0,014	-0,008
-244,205	-73,513	-0,065	0,017
-243,190	651,508	-0,090	0,169
-242,176	-200,000	-0,002	-0,015
-241,161	800,000	0,025	0,054
-240,146	279,079	0,033	0,043
-239,132	127,486	0,079	0,073
-238,117	-21,700	-0,063	0,028
-237,103	82,853	0,075	-0,060
-236,088	800,000	0,047	-0,131
-235,073	-200,000	0,059	0,216
-234,059	-200,000	0,018	0,158
-233,044	612,327	0,089	0,164
-232,030	-200,000	-0,019	0,111
-231,015	537,459	-0,028	0,049
-230,000	-19,046	-0,066	-0,030
-228,986	-52,891	0,181	0,061
-227,971	-85,103	0,113	-0,026
-226,957	165,808	0,054	0,056
-225,942	-34,522	-0,034	0,013
-224,927	800,000	-0,044	-0,139
-223,913	140,765	-0,045	0,043
-222,898	-139,101	-0,088	0,007
-221,884	243,606	0,062	0,077
-220,869	-200,000	0,023	0,076
-219,855	-71,128	-0,168	-0,046
-218,840	-200,000	0,039	-0,160
-217,825	800,000	-0,044	0,098
-216,811	154,725	-0,102	-0,103
-215,796	89,955	-0,066	0,054
-214,782	23,164	-0,094	0,056
-213,767	369,839	0,112	0,166
-212,752	379,845	-0,058	0,087
-211,738	800,000	-0,045	0,127
-210,723	-22,171	0,039	0,017
-209,709	33,173	-0,055	-0,035
-208,694	-200,000	-0,002	-0,012
-207,679	664,335	0,018	-0,034
-206,665	800,000	-0,026	-0,056
-205,650	-83,803	0,150	0,035
-204,636	343,528	-0,023	0,033
-203,621	79,381	-0,022	-0,017
-202,606	-164,915	0,055	0,002
-201,592	33,254	-0,017	-0,011
-200,577	-200,000	0,004	0,066
-199,563	237,934	-0,022	-0,027
-198,548	54,738	-0,074	0,052
-197,533	-177,033	0,022	0,000
-196,519	129,775	-0,128	-0,119
-195,504	320,656	0,055	-0,077
-194,490	645,256	-0,022	-0,041
-193,475	40,073	-0,078	0,051
-192,460	-68,740	-0,046	-0,013
-191,446	-200,000	0,011	0,100
-190,431	82,952	-0,061	-0,048
-189,417	-200,000	-0,008	0,028
-188,402	244,152	-0,070	-0,086
-187,387	53,343	0,101	-0,070
-186,373	615,752	-0,006	-0,011
-185,358	800,000	0,043	-0,119
-184,344	190,389	0,082	0,090
-183,329	74,629	-0,013	-0,010
-182,315	37,461	-0,020	0,013
-181,300	-200,000	0,012	0,051
-180,285	-200,000	0,005	0,041
-179,271	63,820	0,148	-0,109
-178,256	374,519	-0,010	0,015
-177,242	800,000	0,053	-0,134
-176,227	90,195	0,041	0,033
-175,212	-200,000	0,012	-0,061
-174,198	-9,677	0,066	-0,032
-173,183	800,000	-0,037	-0,082
-172,169	-196,442	-0,106	-0,001
-171,154	800,000	0,017	-0,040
-170,139	-81,130	0,025	0,006
-169,125	42,939	0,063	0,042
-168,110	800,000	-0,036	-0,073
-167,096	-200,000	0,007	-0,035
-166,081	-83,225	0,022	0,005
-165,066	-117,258	-0,135	-0,018
-164,052	-200,000	0,014	-0,099
-163,037	-114,591	0,188	-0,026
-162,023	-200,000	-0,027	0,087
-161,008	800,000	-0,045	0,097
-159,993	409,521	-0,081	0,125
-158,979	-166,704	-0,111	-0,003
-157,964	-200,000	0,029	-0,194
-156,950	-200,000	0,012	-0,090
-155,935	-8,392	0,088	-0,043
-154,920	608,271	0,099	0,180
-153,906	155,435	0,035	0,035
-152,891	800,000	0,030	0,060
-151,877	172,817	-0,088	-0,092
-150,862	-33,935	-0,131	-0,052
-149,847	-4,748	-0,145	-0,073
-148,833	-13,467	-0,037	-0,017
-147,818	680,173	-0,069	0,132
-146,804	15,707	-0,066	-0,038
-145,789	-30,014	0,059	0,024
-144,775	-41,390	0,038	0,014
-143,760	-106,183	-0,115	-0,019
-142,745	161,626	-0,059	0,060
-141,731	-53,966	0,085	-0,028
-140,716	-82,104	-0,070	-0,017
-139,702	-68,365	0,112	0,031
-138,687	134,871	-0,015	0,014
-137,672	91,773	0,023	-0,019
-136,658	800,000	0,039	-0,105
-135,643	-200,000	-0,023	-0,092
-134,629	800,000	0,048	0,110
-133,614	-5,747	0,122	0,060
-132,599	-200,000	0,003	-0,040
-131,585	715,316	-0,048	-0,093
-130,570	38,321	-0,048	0,031
-129,556	14,849	-0,039	0,022
-128,541	-179,899	-0,147	0,002
-127,526	-51,094	-0,077	0,026
-126,512	-200,000	0,003	0,029
-125,497	800,000	0,079	0,174
-124,483	38,536	-0,156	0,101
-123,468	85,118	0,029	0,023
-122,453	-164,949	-0,138	0,004
-121,439	255,522	-0,096	-0,120
-120,424	-200,000	0,016	-0,213
-119,410	193,409	0,061	0,067
-118,395	-98,971	0,081	0,015
-117,380	800,000	0,057	0,144
-116,366	144,775	-0,064	0,062
-115,351	-200,000	-0,038	-0,151
-114,337	-4,913	0,001	-0,001
-113,322	320,875	-0,046	0,064
-112,307	-84,941	-0,106	-0,024
-111,293	-90,742	0,146	0,030
-110,278	800,000	0,016	0,040
-109,264	-18,618	0,137	-0,062
-108,249	76,505	0,031	-0,024
-107,234	751,161	0,085	-0,167
-106,220	-200,000	0,010	-0,031
-105,205	127,066	-0,054	-0,049
-104,191	-35,698	0,089	0,035
-103,176	-200,000	0,045	0,176
-102,162	800,000	-0,024	-0,066
-101,147	19,112	0,070	-0,041
-100,132	-13,626	-0,076	0,035
-99,118	301,684	-0,083	-0,112
-98,103	-200,000	-0,002	-0,061
-97,089	-89,010	0,071	-0,015
-96,074	-64,025	-0,069	-0,020
-95,059	800,000	-0,049	0,105
-94,045	-200,000	0,028	0,092
-93,030	800,000	0,048	-0,150
-92,016	-94,674	-0,132	0,026
-91,001	198,897	0,038	0,042
-89,986	800,000	0,064	-0,148
-88,972	210,378	0,017	-0,019
-87,957	-75,239	0,036	-0,009
-86,943	800,000	-0,045	-0,122
-85,928	-200,000	0,000	-0,002
-84,913	-146,294	-0,084	-0,005
-83,899	-117,775	-0,159	-0,020
-82,884	-90,350	-0,017	0,003
-81,870	122,893	-0,026	-0,023
-80,855	-104,692	0,190	-0,031
-79,840	-73,329	0,019	-0,005
-78,826	-200,000	0,001	-0,036
-77,811	800,000	0,013	-0,036
-76,797	-12,766	0,033	0,016
-75,782	63,827	0,017	-0,013
-74,767	111,448	0,054	-0,047
-73,753	141,070	0,090	-0,087
-72,738	-63,631	0,059	-0,017
-71,724	-30,989	0,068	-0,028
-70,709	-124,972	-0,120	-0,013
-69,694	723,220	-0,023	0,046
-68,680	-96,095	-0,097	0,018
-67,665	-200,000	0,004	-0,106
-66,651	170,670	0,129	0,134
-65,636	-36,583	-0,166	-0,065
-64,622	-70,256	-0,079	0,022
-63,607	-22,079	-0,190	-0,083
-62,592	-200,000	0,003	0,024
-61,578	-200,000	0,003	-0,020
-60,563	-200,000	0,005	0,117
-59,549	-150,327	-0,064	0,004
-58,534	-84,270	-1,489	-0,339
-57,519	800,000	-0,617	-1,414
-56,505	-200,000	-0,982	-4,563
-55,490	-65,251	0,568	-0,165
-54,476	800,000	5,091	11,864
-53,461	-200,000	14,738	265,221
-52,446	-200,000	697,445	2269,009
-51,432	588,116	1622,498	2909,100
-50,417	121,027	1630,780	1471,207
-49,403	78,837	1284,579	995,630
-48,388	38,036	1022,822	658,210
-47,373	23,138	982,571	583,285
-46,359	22,285	971,726	574,024
-45,344	21,101	967,485	567,623
-44,330	21,062	966,028	566,618
-43,315	20,852	964,562	565,051
-42,300	20,865	963,528	564,467
-41,286	20,890	962,537	563,945
-40,271	20,818	961,515	563,087
-39,257	20,867	960,718	562,760
-38,242	20,844	959,808	562,131
-37,227	20,804	958,997	561,501
-36,213	20,739	958,033	560,705
-35,198	20,763	957,166	560,252
-34,184	20,859	956,346	560,061
-33,169	20,770	955,661	559,349
-32,154	20,833	954,654	558,943
-31,140	20,829	953,810	558,413
-30,125	20,902	952,815	558,045
-29,111	20,837	952,183	557,443
-28,096	20,864	951,383	557,038
-27,082	20,834	950,804	556,580
-26,067	20,828	949,848	555,978
-25,052	20,775	949,112	555,356
-24,038	20,831	948,469	555,137
-23,023	20,791	947,914	554,663
-22,009	20,835	947,294	554,419
-20,994	20,858	946,737	554,145
-19,979	20,841	946,132	553,713
-18,965	20,831	945,391	553,226
-17,950	20,816	944,984	552,917
-16,936	20,775	944,153	552,279
-15,921	20,799	943,342	551,858
-14,906	20,738	942,709	551,274
-13,892	20,653	942,278	550,728
-12,877	20,694	941,513	550,389
-11,863	20,733	940,669	549,999
-10,848	20,747	940,509	549,927
-9,833	20,815	940,000	549,823
-8,819	20,763	939,402	549,287
-7,804	20,775	938,668	548,873
-6,790	20,726	938,053	548,337
-5,775	20,773	937,493	548,137
-4,760	20,743	936,899	547,673
-3,746	20,701	936,297	547,169
-2,731	20,610	935,564	546,429
-1,717	20,522	934,812	545,691
-0,702	20,561	934,168	545,415
0,313	20,346	933,644	545,254
1,327	23,283	931,720	553,330
2,342	32,399	794,162	495,893
3,356	29,671	451,173	277,582
4,371	-0,616	295,795	151,509
5,386	-4,927	277,022	137,765
6,400	-6,521	271,224	133,377
7,415	-6,774	268,952	132,013
8,429	-6,687	267,850	131,541
9,444	-6,619	267,046	131,197
10,459	-6,425	266,392	131,043
11,473	-6,403	265,704	130,713
12,488	-6,470	265,222	130,403
13,502	-6,670	264,745	129,973
14,517	-6,500	264,309	129,903
15,531	-6,316	263,992	129,903
16,546	-5,954	263,543	130,000
17,561	-6,170	263,300	129,673
18,575	-5,948	262,938	129,684
19,590	-6,286	262,630	129,215
20,604	-6,001	262,208	129,253
21,619	-6,090	262,037	129,077
22,634	-6,025	261,585	128,901
23,648	-6,312	261,419	128,549
24,663	-6,156	261,154	128,548
25,677	-6,190	260,944	128,402
26,692	-6,067	260,472	128,269
27,707	-6,136	260,397	128,159
28,721	-6,139	260,111	128,004
29,736	-6,270	259,781	127,712
30,750	-6,322	259,605	127,568
31,765	-6,300	259,473	127,512
32,780	-6,218	259,071	127,375
33,794	-6,214	258,913	127,290
34,809	-6,239	258,672	127,138
35,823	-6,400	258,478	126,889
36,838	-6,164	258,123	126,913
37,853	-6,146	257,869	126,793
38,867	-6,159	257,528	126,602
39,882	-6,159	257,475	126,565
40,896	-6,242	257,267	126,377
41,911	-6,188	256,832	126,201
42,926	-6,430	256,900	126,008
43,940	-6,232	256,555	126,002
44,955	-6,192	256,291	125,897
45,969	-6,327	256,020	125,634
46,984	-6,508	255,775	125,343
47,999	-6,689	255,622	125,098
49,013	-6,793	255,441	124,907
50,028	-6,816	255,060	124,689
51,042	-6,964	254,857	124,449
52,057	-7,085	254,693	124,252
53,071	-6,946	254,364	124,202
54,086	-6,682	254,192	124,338
55,101	-6,598	253,977	124,295
56,115	-6,490	253,970	124,374
57,130	-6,222	253,860	124,544
58,144	-6,121	253,608	124,497
59,159	-6,041	253,318	124,412
60,174	-6,235	253,370	124,259
61,188	-6,082	253,056	124,226
62,203	-6,222	252,749	123,943
63,217	-6,182	252,573	123,880
64,232	-6,148	252,319	123,774
65,247	-6,359	252,235	123,539
66,261	-6,261	251,867	123,432
67,276	-6,304	251,675	123,290
68,290	-6,413	251,306	123,005
69,305	-6,631	251,266	122,786
70,320	-6,735	251,008	122,559
71,334	-6,446	250,912	122,750
72,349	-6,184	250,778	122,899
73,363	-6,157	250,622	122,836
74,378	-6,197	250,369	122,666
75,393	-6,122	250,047	122,561
76,407	-6,087	249,975	122,545
77,422	-6,198	249,769	122,338
78,436	-6,294	249,617	122,171
79,451	-6,384	249,369	121,962
80,466	-6,540	249,184	121,726
81,480	-6,402	248,828	121,659
82,495	-6,482	248,732	121,534
83,509	-6,319	248,449	121,523
84,524	-6,465	248,382	121,356
85,539	-6,545	248,104	121,141
86,553	-6,472	247,833	121,060
87,568	-6,564	247,756	120,934
88,582	-6,568	247,516	120,802
89,597	-6,427	247,348	120,829
90,611	-6,356	247,133	120,773
91,626	-6,261	247,086	120,820
92,641	-6,096	246,807	120,812
93,655	-6,422	246,593	120,421
94,670	-6,382	246,502	120,400
95,684	-6,444	246,144	120,161
96,699	-6,524	246,136	120,080
97,714	-6,293	245,682	120,042
98,728	-6,637	245,689	119,745
99,743	-6,587	245,546	119,707
100,757	-6,450	245,146	119,616
101,772	-6,541	245,013	119,464
102,787	-6,687	245,101	119,374
103,801	-6,540	244,732	119,307
104,816	-6,342	244,547	119,372
105,830	-6,442	244,567	119,287
106,845	-6,230	244,251	119,299
107,860	-6,267	244,106	119,188
108,874	-6,480	243,831	118,865
109,889	-6,636	243,572	118,598
110,903	-6,744	243,453	118,439
111,918	-6,468	243,281	118,575
112,933	-6,522	243,121	118,441
113,947	-6,613	242,900	118,247
114,962	-6,437	242,858	118,362
115,976	-6,397	242,523	118,222
116,991	-6,467	242,643	118,212
118,006	-6,359	242,312	118,130
119,020	-6,538	242,205	117,919
120,035	-6,056	241,950	118,183
121,049	-6,132	241,860	118,066
122,064	-6,371	241,648	117,754
123,079	-6,529	241,501	117,542
124,093	-6,347	241,169	117,519
125,108	-6,562	240,983	117,241
126,122	-6,766	240,789	116,968
127,137	-6,637	240,662	117,002
128,151	-6,573	240,400	116,917
129,166	-6,641	240,381	116,842
130,181	-6,645	240,111	116,696
131,195	-6,552	239,960	116,689
132,210	-6,463	239,769	116,658
133,224	-6,747	239,693	116,379
134,239	-6,411	239,514	116,557
135,254	-6,539	239,233	116,305
136,268	-6,625	239,093	116,156
137,283	-6,587	238,789	116,029
138,297	-6,710	238,626	115,840
139,312	-6,570	238,246	115,758
140,327	-6,687	238,412	115,734
141,341	-6,260	238,406	116,067
142,356	-6,171	238,069	115,966
143,370	-6,476	238,102	115,723
144,385	-5,962	237,724	115,946
145,400	-6,118	237,687	115,792
146,414	-6,094	237,551	115,734
147,429	-6,251	237,403	115,524
148,443	-6,245	237,134	115,388
149,458	-6,380	236,986	115,197
150,473	-5,950	236,813	115,450
151,487	-6,378	236,594	114,988
152,502	-6,139	236,422	115,086
153,516	-6,135	236,369	115,053
154,531	-6,044	236,014	114,944
155,546	-6,244	235,868	114,701
156,560	-6,324	235,783	114,586
157,575	-6,360	235,412	114,366
158,589	-6,444	235,375	114,271
159,604	-6,104	235,314	114,504
160,619	-5,909	235,071	114,531
161,633	-6,121	235,028	114,330
162,648	-5,986	234,809	114,321
163,662	-6,079	234,603	114,136
164,677	-6,299	234,400	113,853
165,692	-6,209	234,362	113,895
166,706	-5,827	234,260	114,140
167,721	-5,989	234,076	113,911
168,735	-5,870	233,896	113,908
169,750	-6,032	233,759	113,702
170,764	-6,164	233,530	113,477
171,779	-6,302	233,358	113,273
172,794	-6,123	233,289	113,372
173,808	-6,327	233,092	113,104
174,823	-6,589	232,693	112,692
175,837	-6,652	232,680	112,626
176,852	-6,400	232,415	112,688
177,867	-6,096	232,462	112,940
178,881	-6,053	232,298	112,885
179,896	-6,056	232,292	112,869
180,910	-6,005	232,050	112,782
181,925	-6,072	231,895	112,644
182,940	-6,100	231,705	112,519
183,954	-6,079	231,499	112,426
184,969	-6,277	231,491	112,256
185,983	-5,934	231,298	112,422
186,998	-6,047	231,173	112,262
188,013	-5,713	230,861	112,363
189,027	-5,922	230,754	112,137
190,042	-5,775	230,605	112,170
191,056	-5,766	230,262	112,000
192,071	-5,926	230,204	111,837
193,086	-6,054	230,143	111,697
194,100	-6,175	229,694	111,374
195,115	-6,892	229,500	110,712
196,129	-7,409	229,090	110,102
197,144	-3,890	230,330	113,439
198,159	0,915	231,725	117,886
199,173	4,151	232,654	120,890
200,188	4,580	232,647	121,213
201,202	4,626	232,384	121,101
202,217	4,586	232,399	121,067
203,232	4,935	232,263	121,258
204,246	4,910	232,073	121,128
205,261	4,976	231,951	121,106
206,275	5,107	231,790	121,113
207,290	5,217	231,743	121,164
208,304	5,354	231,471	121,117
209,319	5,170	231,397	120,924
210,334	5,046	231,099	120,662
211,348	4,691	231,042	120,345
212,363	4,567	230,694	120,057
213,377	4,183	230,373	119,581
214,392	4,175	230,347	119,550
215,407	4,426	230,112	119,612
216,421	4,545	230,088	119,682
217,436	4,308	229,828	119,352
218,450	4,068	229,709	119,094
219,465	4,047	229,413	118,914
220,480	4,208	229,283	118,960
221,494	4,091	229,072	118,749
222,509	4,228	229,152	118,886
223,523	4,163	228,948	118,720
224,538	4,141	228,729	118,579
225,553	4,210	228,679	118,595
226,567	4,429	228,577	118,700
227,582	4,523	228,537	118,741
228,596	4,735	228,381	118,813
229,611	4,529	227,967	118,429
230,626	3,980	227,944	117,985
231,640	3,966	227,866	117,923
232,655	4,423	227,599	118,124
233,669	4,855	227,573	118,431
234,684	4,949	227,450	118,428
235,699	4,614	227,162	118,012
236,713	4,421	227,110	117,827
237,728	4,361	226,875	117,648
238,742	4,028	226,648	117,267
239,757	4,150	226,557	117,302
240,772	4,203	226,489	117,297
241,786	4,209	226,202	117,142
242,801	4,524	226,163	117,352
243,815	4,484	226,194	117,327
244,830	4,730	226,039	117,422
245,844	4,427	225,748	117,030
246,859	4,387	225,660	116,944
247,874	4,591	225,383	116,945
248,888	4,501	225,464	116,909
249,903	4,479	225,179	116,734
250,917	4,390	224,967	116,546
251,932	4,393	224,782	116,442
252,947	4,241	224,606	116,226
253,961	3,950	224,593	115,989
254,976	4,066	224,361	115,946
255,990	4,448	224,274	116,179
257,005	4,341	224,334	116,119
258,020	4,462	224,040	116,048
259,034	4,444	224,026	116,016
260,049	4,847	223,687	116,132
261,063	4,349	223,627	115,717
262,078	4,668	223,389	115,823
263,093	4,539	223,347	115,694
264,107	4,463	223,199	115,550
265,122	4,385	222,982	115,370
266,136	4,752	222,963	115,624
267,151	4,567	222,847	115,415
268,166	4,315	222,591	115,084
269,180	4,240	222,232	114,833
270,195	4,244	222,033	114,722
271,209	4,094	222,130	114,651
272,224	4,306	222,018	114,740
273,239	4,172	221,889	114,563
274,253	4,267	221,704	114,529
275,268	3,943	221,520	114,183
276,282	4,061	221,289	114,142
277,297	3,982	221,184	114,019
278,312	4,272	220,997	114,126
279,326	4,205	220,857	113,995
280,341	4,017	220,889	113,861
281,355	4,254	220,764	113,962
282,370	4,281	220,441	113,805
283,384	4,040	220,383	113,588
284,399	3,999	220,074	113,387
285,414	4,307	219,961	113,546
286,428	4,381	219,834	113,525
287,443	4,290	219,838	113,450
288,457	4,481	219,660	113,489
289,472	4,332	219,415	113,243
290,487	3,885	219,241	112,815
291,501	3,900	219,088	112,737
292,516	4,019	219,130	112,835
293,530	3,923	218,990	112,683
294,545	3,731	218,794	112,432
295,560	4,184	218,594	112,650
296,574	4,300	218,467	112,659
297,589	4,045	218,444	112,451
298,603	4,245	218,370	112,549
299,618	4,163	218,285	112,435
300,633	4,304	218,007	112,385
301,647	4,447	218,005	112,478
302,662	4,619	217,692	112,431
303,676	4,435	217,776	112,331
304,691	4,332	217,586	112,148
305,706	4,379	217,275	112,012
306,720	4,513	217,167	112,043
307,735	4,487	216,988	111,923
308,749	4,067	216,911	111,569
309,764	4,328	216,836	111,708
310,779	4,493	216,645	111,720
311,793	4,602	216,538	111,734
312,808	4,453	216,338	111,513
313,822	4,358	216,216	111,372
314,837	4,281	215,956	111,172
315,852	3,999	215,836	110,897
316,866	4,257	215,760	111,034
317,881	4,618	215,620	111,212
318,895	4,492	215,645	111,124
319,910	4,297	215,395	110,845
320,925	3,898	215,123	110,409
321,939	3,831	214,982	110,279
322,954	3,957	214,968	110,352
323,968	4,441	214,818	110,612
324,983	4,469	214,798	110,612
325,997	4,401	214,631	110,467
327,012	4,265	214,493	110,289
328,027	4,281	214,180	110,130
329,041	4,436	214,266	110,274
330,056	4,448	214,202	110,241
331,070	4,512	213,762	110,050
332,085	3,832	213,811	109,581
333,100	3,791	213,582	109,424
334,114	4,235	213,493	109,685
335,129	4,317	213,253	109,610
336,143	4,103	213,094	109,367
337,158	4,107	212,949	109,285
338,173	4,171	212,905	109,298
339,187	4,025	212,747	109,104
340,202	3,825	212,664	108,911
341,216	4,121	212,405	108,977
342,231	4,249	212,287	108,998
343,246	4,293	212,084	108,915
344,260	4,028	212,057	108,704
345,275	4,198	211,935	108,752
346,289	4,414	211,851	108,851
347,304	4,171	211,739	108,613
348,319	4,256	211,625	108,605
349,333	4,393	211,464	108,609
350,348	4,221	211,372	108,431
351,362	4,206	211,289	108,368
352,377	4,495	211,107	108,468
353,392	4,087	210,926	108,079
354,406	4,474	210,784	108,268
355,421	192,200	1346,509	1428,411
356,435	153,348	1484,963	1428,504
