DTS Sentinel unit serial number:	SN410029Multiplexer serial number:	ORYXHardware model number:	OX2-SRSoftware version number:	ORYX F/W v4,00 Oryx Data Collector v3.7.2.0data status	okinstallation	B6 Nyhavnadifferential loss correction	single-endedforward channel	channel 2reverse channel	N/Adate	2023/12/08time	12:15:08forward acquisition time	300,00reverse acquisition time	0,00gamma	499,1914k internal	0,3159k external	0,3159temperature offset calibration	1,0000default loss term (dB/km)	0,3820temperature slope calibration	1,0000multiplexer offset coefficient	1,0000multiplexer slope coefficient	1,0000fibre end	0,00T internal ref (°C)	15,05T ext. ref 1 (°C)	-1,47T ext. ref 2 (°C)	-1,48length (m)	temperature (°C)	Stokes	anti-Stokes-744,400	0,686	0,074	0,039
-743,385	-155,719	-0,322	-0,015
-742,371	64,828	0,116	0,086
-741,356	-171,016	-0,436	-0,011
-740,342	-17,137	0,199	0,092
-739,327	-138,420	-0,325	-0,026
-738,312	-94,048	0,194	0,039
-737,298	-166,071	-0,436	-0,013
-736,283	-26,177	0,076	-0,033
-735,269	-37,678	-0,314	-0,122
-734,254	-32,233	0,133	0,054
-733,239	68,658	-0,392	-0,296
-732,225	-68,663	-0,041	-0,012
-731,210	244,726	-0,010	0,013
-730,196	-171,663	0,083	0,002
-729,181	-200,000	0,034	0,149
-728,167	4,002	-0,107	0,057
-727,152	-186,187	0,072	0,001
-726,137	121,156	-0,113	0,104
-725,123	98,461	0,117	-0,099
-724,108	-138,483	-0,046	-0,004
-723,094	-200,000	0,002	-0,019
-722,079	606,858	-0,045	-0,084
-721,064	800,000	0,037	0,110
-720,050	376,171	-0,070	-0,106
-719,035	800,000	-0,021	0,067
-718,021	116,954	-0,142	-0,128
-717,006	800,000	-0,034	-0,109
-715,991	-97,017	-0,087	-0,017
-714,977	-122,386	-0,113	-0,013
-713,962	-41,811	-0,111	-0,042
-712,948	1,435	-0,048	0,025
-711,933	160,509	0,124	0,128
-710,918	-85,385	-0,072	0,016
-709,904	-165,516	-0,129	-0,004
-708,889	-200,000	0,006	-0,022
-707,875	-200,000	0,007	-0,073
-706,860	135,366	0,065	-0,062
-705,845	-200,000	0,009	-0,088
-704,831	-200,000	-0,007	0,047
-703,816	-54,748	-0,195	-0,064
-702,802	800,000	0,044	0,114
-701,787	7,078	0,115	0,063
-700,772	-52,038	-0,069	0,023
-699,758	-200,000	-0,005	0,101
-698,743	32,257	-0,003	0,002
-697,729	473,216	0,018	-0,030
-696,714	-200,000	0,001	-0,160
-695,699	-200,000	0,011	0,160
-694,685	396,379	-0,055	0,084
-693,670	-16,027	0,075	-0,035
-692,656	228,054	-0,058	-0,069
-691,641	-124,095	-0,091	0,010
-690,627	-200,000	-0,043	0,177
-689,612	800,000	0,023	0,049
-688,597	12,011	-0,095	0,054
-687,583	-89,849	-0,100	0,021
-686,568	-105,661	-0,011	-0,002
-685,554	-200,000	-0,003	0,072
-684,539	63,772	0,058	-0,043
-683,524	-170,177	0,167	0,004
-682,510	-200,000	-0,007	0,071
-681,495	201,122	-0,180	-0,204
-680,481	121,975	-0,084	-0,077
-679,466	800,000	-0,053	-0,109
-678,451	-200,000	-0,022	0,118
-677,437	323,925	0,037	-0,052
-676,422	-200,000	-0,035	-0,122
-675,408	98,228	-0,101	-0,086
-674,393	-200,000	-0,013	-0,046
-673,378	117,559	-0,082	0,074
-672,364	275,126	-0,072	-0,094
-671,349	800,000	-0,034	0,094
-670,335	472,344	0,059	-0,098
-669,320	-136,636	-0,131	0,011
-668,305	126,503	0,043	-0,040
-667,291	800,000	0,053	0,116
-666,276	800,000	-0,015	-0,041
-665,262	-29,032	0,174	0,073
-664,247	-200,000	0,011	0,149
-663,232	285,104	-0,057	-0,075
-662,218	581,120	-0,102	0,184
-661,203	-49,321	-0,181	0,063
-660,189	-200,000	-0,016	-0,095
-659,174	800,000	-0,064	-0,149
-658,159	800,000	0,049	-0,113
-657,145	-200,000	-0,001	-0,044
-656,130	-200,000	-0,018	-0,138
-655,116	548,606	0,005	-0,008
-654,101	800,000	-0,051	0,105
-653,086	-128,547	-0,100	-0,010
-652,072	-83,732	-0,102	-0,024
-651,057	-200,000	-0,003	0,112
-650,043	-100,753	0,125	0,022
-649,028	-200,000	-0,024	-0,139
-648,014	-116,216	0,047	-0,006
-646,999	48,530	0,062	0,042
-645,984	-67,731	-0,060	-0,017
-644,970	-22,794	-0,046	0,020
-643,955	-200,000	0,021	-0,084
-642,941	145,899	-0,064	-0,063
-641,926	-200,000	0,002	-0,045
-640,911	-167,799	0,208	-0,006
-639,897	-88,860	-0,012	-0,003
-638,882	-200,000	0,011	-0,095
-637,868	188,861	0,028	-0,030
-636,853	-8,821	-0,078	0,038
-635,838	-14,590	-0,201	0,094
-634,824	-200,000	0,025	-0,167
-633,809	115,285	-0,127	0,114
-632,795	-182,906	0,087	0,001
-631,780	-200,000	0,009	-0,085
-630,765	-83,046	-0,096	-0,022
-629,751	800,000	-0,012	-0,033
-628,736	800,000	0,006	0,014
-627,722	800,000	0,039	-0,103
-626,707	288,043	0,029	0,039
-625,692	160,296	-0,107	-0,110
-624,678	207,300	-0,079	0,090
-623,663	47,335	0,047	-0,032
-622,649	283,309	-0,132	-0,174
-621,634	-70,841	-0,017	-0,005
-620,619	14,780	-0,111	-0,063
-619,605	48,674	0,101	0,069
-618,590	9,377	0,086	0,047
-617,576	-63,582	-0,070	0,021
-616,561	273,037	-0,115	0,150
-615,546	316,481	0,033	-0,045
-614,532	270,024	-0,053	0,069
-613,517	-20,937	0,031	-0,014
-612,503	112,407	-0,096	-0,085
-611,488	-200,000	0,009	0,030
-610,474	-91,546	-0,081	0,017
-609,459	174,571	0,020	0,021
-608,444	-200,000	-0,002	-0,009
-607,430	-63,304	0,127	0,038
-606,415	-200,000	0,002	-0,123
-605,401	-200,000	0,023	-0,090
-604,386	-200,000	-0,034	0,136
-603,371	-200,000	0,002	-0,022
-602,357	-33,571	-0,094	0,038
-601,342	800,000	0,016	0,046
-600,328	211,526	-0,138	-0,160
-599,313	-42,398	-0,126	-0,047
-598,298	223,684	0,108	-0,128
-597,284	529,425	0,006	0,011
-596,269	800,000	0,033	0,081
-595,255	800,000	0,006	-0,014
-594,240	37,642	0,058	0,038
-593,225	-96,680	0,018	-0,003
-592,211	79,853	0,037	0,029
-591,196	-110,371	0,067	0,010
-590,182	219,573	-0,033	0,038
-589,167	-83,428	0,065	-0,015
-588,152	583,218	-0,020	0,036
-587,138	-200,000	0,017	-0,198
-586,123	-200,000	0,012	-0,057
-585,109	-89,730	-0,108	0,023
-584,094	-21,352	-0,135	-0,060
-583,079	215,893	0,050	-0,058
-582,065	6,063	0,071	-0,039
-581,050	-200,000	0,029	-0,123
-580,036	-200,000	-0,002	0,026
-579,021	-98,468	-0,072	0,013
-578,006	-200,000	-0,031	0,110
-576,992	333,764	-0,026	0,037
-575,977	130,937	-0,042	0,039
-574,963	58,993	0,031	0,023
-573,948	-200,000	-0,005	0,057
-572,934	800,000	0,044	0,140
-571,919	-200,000	0,007	0,076
-570,904	8,135	-0,138	-0,076
-569,890	-200,000	0,012	-0,075
-568,875	800,000	0,041	0,098
-567,861	-162,058	0,046	0,002
-566,846	-140,995	-0,069	-0,005
-565,831	800,000	0,039	0,081
-564,817	0,588	-0,209	-0,109
-563,802	-200,000	-0,019	-0,101
-562,788	415,464	-0,037	-0,058
-561,773	-98,574	-0,048	0,009
-560,758	53,153	0,077	0,054
-559,744	-153,061	0,057	-0,003
-558,729	800,000	-0,011	0,029
-557,715	66,040	0,093	0,069
-556,700	-200,000	0,033	-0,119
-555,685	123,923	-0,059	0,054
-554,671	-29,938	0,033	-0,014
-553,656	167,589	0,075	0,078
-552,642	-200,000	0,024	0,173
-551,627	0,625	0,014	0,007
-550,612	-118,817	0,143	0,018
-549,598	-43,149	-0,025	-0,009
-548,583	-101,371	-0,022	0,004
-547,569	-44,160	-0,168	0,061
-546,554	255,130	-0,023	0,029
-545,539	-117,029	0,117	-0,015
-544,525	145,260	0,065	-0,063
-543,510	681,308	-0,061	0,118
-542,496	103,913	0,019	0,016
-541,481	551,188	0,017	0,030
-540,466	-143,369	-0,119	0,008
-539,452	-119,282	-0,117	-0,015
-538,437	8,025	-0,052	0,029
-537,423	-55,472	0,116	-0,038
-536,408	-75,567	-0,109	0,028
-535,393	138,698	-0,080	0,077
-534,379	98,717	0,059	-0,050
-533,364	-200,000	-0,003	-0,098
-532,350	-111,953	0,077	-0,011
-531,335	-62,291	0,060	0,018
-530,321	70,515	-0,045	0,034
-529,306	-200,000	-0,003	0,080
-528,291	302,855	-0,110	0,149
-527,277	-160,893	-0,101	0,004
-526,262	193,052	-0,036	-0,040
-525,248	101,667	-0,093	0,080
-524,233	-124,436	0,072	0,008
-523,218	182,611	-0,015	-0,016
-522,204	27,455	0,045	0,028
-521,189	-32,760	0,073	-0,030
-520,175	-200,000	0,042	-0,140
-519,160	263,862	0,037	-0,047
-518,145	-172,804	0,088	-0,002
-517,131	-18,470	0,193	0,088
-516,116	-171,641	0,027	0,001
-515,102	-60,050	-0,164	-0,051
-514,087	-165,869	-0,141	-0,004
-513,072	87,622	0,076	-0,062
-512,058	41,517	-0,031	-0,020
-511,043	800,000	0,024	0,059
-510,029	531,385	-0,044	0,076
-509,014	800,000	-0,035	0,104
-507,999	207,407	0,054	0,062
-506,985	166,804	-0,029	-0,030
-505,970	286,848	0,085	-0,113
-504,956	5,289	-0,058	-0,031
-503,941	201,794	-0,069	0,077
-502,926	-89,224	-0,017	0,004
-501,912	148,240	0,050	0,050
-500,897	268,854	0,053	-0,068
-499,883	-66,729	0,038	-0,011
-498,868	120,869	0,051	-0,046
-497,853	314,225	-0,059	-0,081
-496,839	138,009	-0,127	0,121
-495,824	-43,275	0,080	0,029
-494,810	-142,615	-0,030	0,002
-493,795	-59,478	0,019	-0,006
-492,781	-200,000	0,037	-0,132
-491,766	395,629	-0,086	0,131
-490,751	64,035	0,053	-0,039
-489,737	74,029	0,082	-0,063
-488,722	36,248	0,131	0,084
-487,708	800,000	-0,042	0,093
-486,693	800,000	-0,016	0,049
-485,678	318,001	0,092	-0,128
-484,664	-143,422	0,067	-0,005
-483,649	184,774	0,138	-0,149
-482,635	211,602	-0,040	-0,046
-481,620	-149,573	0,122	0,007
-480,605	-104,795	-0,077	-0,013
-479,591	43,836	0,041	-0,027
-478,576	-119,506	-0,092	0,011
-477,562	-0,501	0,056	-0,029
-476,547	-200,000	0,018	0,085
-475,532	-95,103	-0,082	0,016
-474,518	-72,220	-0,162	0,043
-473,503	44,250	-0,051	0,034
-472,489	-200,000	0,009	0,105
-471,474	-200,000	0,017	-0,116
-470,459	-200,000	-0,001	-0,021
-469,445	605,641	-0,079	-0,144
-468,430	-200,000	-0,010	-0,138
-467,416	34,046	-0,058	0,037
-466,401	199,615	0,098	-0,109
-465,386	40,172	0,037	-0,024
-464,372	-106,491	-0,164	-0,026
-463,357	800,000	0,010	-0,022
-462,343	800,000	0,024	-0,064
-461,328	198,182	-0,037	0,041
-460,313	208,559	0,032	-0,036
-459,299	-200,000	0,003	0,155
-458,284	791,820	-0,055	0,110
-457,270	40,688	0,057	0,037
-456,255	800,000	-0,040	-0,109
-455,241	-16,223	-0,014	-0,007
-454,226	800,000	0,017	-0,050
-453,211	-200,000	0,023	-0,101
-452,197	-200,000	0,002	0,062
-451,182	800,000	0,023	-0,069
-450,168	51,190	-0,073	0,050
-449,153	278,056	0,036	0,047
-448,138	255,745	-0,028	0,035
-447,124	287,457	-0,068	-0,089
-446,109	482,156	-0,089	-0,148
-445,095	-200,000	0,016	0,084
-444,080	-15,278	0,139	0,065
-443,065	260,345	-0,045	0,057
-442,051	264,232	0,039	-0,050
-441,036	82,506	-0,056	-0,044
-440,022	-200,000	-0,024	-0,082
-439,007	365,028	0,073	-0,107
-437,992	146,361	-0,060	-0,058
-436,978	459,016	0,040	-0,065
-435,963	-135,982	0,069	0,006
-434,949	312,153	-0,029	0,040
-433,934	-103,598	-0,121	0,020
-432,919	-200,000	0,012	-0,075
-431,905	287,634	0,048	-0,063
-430,890	-200,000	-0,008	0,169
-429,876	444,416	-0,047	-0,075
-428,861	11,265	-0,036	-0,020
-427,846	233,650	0,105	0,126
-426,832	-112,156	-0,127	-0,018
-425,817	-200,000	-0,002	-0,061
-424,803	68,219	0,071	-0,053
-423,788	-200,000	0,014	-0,082
-422,773	278,634	0,120	0,156
-421,759	800,000	0,060	0,170
-420,744	-200,000	0,036	0,151
-419,730	800,000	-0,039	-0,109
-418,715	800,000	-0,063	-0,169
-417,701	63,719	-0,028	-0,020
-416,686	800,000	-0,028	0,086
-415,671	52,292	0,040	0,028
-414,657	800,000	-0,042	0,129
-413,642	71,400	-0,081	0,061
-412,628	-114,944	-0,046	0,006
-411,613	-17,520	-0,075	-0,034
-410,598	-200,000	0,007	0,027
-409,584	-43,886	0,095	0,034
-408,569	-200,000	0,022	0,152
-407,555	-20,450	0,098	-0,044
-406,540	-200,000	0,000	0,076
-405,525	-5,297	0,072	0,036
-404,511	475,837	-0,071	-0,117
-403,496	-75,456	0,174	-0,045
-402,482	800,000	-0,030	-0,066
-401,467	277,840	0,008	-0,011
-400,452	-50,548	-0,049	0,017
-399,438	-200,000	-0,003	0,040
-398,423	800,000	-0,028	0,057
-397,409	167,347	0,062	-0,064
-396,394	-45,295	-0,110	0,040
-395,379	0,470	0,131	-0,068
-394,365	197,963	0,090	0,100
-393,350	-200,000	-0,056	0,182
-392,336	538,882	-0,019	-0,033
-391,321	-75,490	-0,091	-0,023
-390,306	282,021	0,058	0,076
-389,292	35,618	-0,103	-0,066
-388,277	205,472	-0,075	0,084
-387,263	-128,614	-0,121	0,012
-386,248	-44,048	-0,029	0,011
-385,233	142,371	0,036	-0,035
-384,219	152,957	0,030	0,030
-383,204	23,403	0,051	-0,030
-382,190	73,918	-0,031	-0,023
-381,175	-200,000	0,018	0,084
-380,160	17,547	-0,089	-0,051
-379,146	-39,577	0,108	0,041
-378,131	-200,000	-0,000	0,068
-377,117	94,882	-0,118	-0,098
-376,102	800,000	-0,069	0,197
-375,088	-51,380	0,030	0,010
-374,073	-200,000	-0,032	-0,129
-373,058	98,389	0,151	-0,127
-372,044	-200,000	0,019	-0,178
-371,029	377,439	0,063	0,094
-370,015	481,007	0,106	0,176
-369,000	-96,101	-0,180	0,034
-367,985	442,442	0,047	0,076
-366,971	800,000	0,073	0,202
-365,956	384,494	-0,032	0,048
-364,942	-200,000	-0,005	0,150
-363,927	-200,000	-0,026	0,090
-362,912	176,260	-0,013	-0,014
-361,898	800,000	0,027	-0,068
-360,883	456,748	0,019	-0,030
-359,869	800,000	-0,072	-0,148
-358,854	419,721	-0,012	-0,019
-357,839	800,000	-0,006	0,018
-356,825	-200,000	-0,003	0,117
-355,810	-200,000	0,008	-0,111
-354,796	648,258	0,029	-0,053
-353,781	-150,177	-0,090	0,005
-352,766	307,509	0,104	-0,142
-351,752	-190,918	-0,189	0,001
-350,737	59,099	-0,033	0,023
-349,723	-24,331	0,078	-0,033
-348,708	-108,913	0,021	0,003
-347,693	-200,000	-0,019	0,087
-346,679	564,157	-0,016	-0,027
-345,664	-200,000	-0,045	0,146
-344,650	800,000	-0,023	0,062
-343,635	-200,000	-0,002	0,055
-342,620	20,750	-0,063	0,037
-341,606	800,000	0,003	-0,007
-340,591	-144,865	-0,090	0,006
-339,577	-157,705	-0,035	0,002
-338,562	246,959	0,041	0,051
-337,548	800,000	0,027	-0,055
-336,533	282,427	-0,038	0,049
-335,518	8,880	0,124	0,068
-334,504	224,376	0,122	0,143
-333,489	202,547	-0,020	-0,023
-332,475	800,000	-0,008	-0,024
-331,460	0,554	0,156	-0,081
-330,445	405,617	0,046	-0,071
-329,431	-200,000	-0,008	-0,076
-328,416	-200,000	0,006	-0,040
-327,402	800,000	-0,023	0,070
-326,387	800,000	0,061	-0,129
-325,372	374,302	0,068	-0,101
-324,358	-29,980	-0,084	0,034
-323,343	-200,000	-0,032	0,134
-322,329	6,733	-0,063	0,034
-321,314	-128,488	-0,105	0,011
-320,299	-200,000	-0,019	0,189
-319,285	-127,040	-0,045	-0,005
-318,270	-105,376	-0,068	-0,011
-317,256	-200,000	-0,002	-0,022
-316,241	-23,221	0,034	0,015
-315,226	279,766	-0,049	-0,063
-314,212	-200,000	-0,015	0,111
-313,197	192,562	0,081	0,089
-312,183	45,219	-0,066	-0,044
-311,168	-156,017	-0,110	0,005
-310,153	594,469	0,036	0,065
-309,139	800,000	0,032	-0,094
-308,124	-109,811	0,170	0,026
-307,110	45,378	0,038	0,025
-306,095	-200,000	0,011	-0,200
-305,080	390,984	0,047	0,071
-304,066	-92,553	-0,062	-0,013
-303,051	800,000	0,020	-0,061
-302,037	161,712	-0,019	0,019
-301,022	800,000	0,034	0,079
-300,008	148,581	0,082	0,080
-298,993	105,862	-0,049	-0,042
-297,978	136,455	0,078	-0,074
-296,964	-128,227	0,053	-0,005
-295,949	800,000	0,076	-0,162
-294,935	-153,367	-0,089	0,004
-293,920	800,000	-0,040	0,090
-292,905	-178,719	0,054	-0,001
-291,891	-9,642	0,034	-0,016
-290,876	-200,000	-0,010	-0,105
-289,862	-28,278	0,049	-0,020
-288,847	86,353	0,063	-0,050
-287,832	445,946	-0,046	-0,073
-286,818	800,000	0,024	0,061
-285,803	251,612	0,103	0,127
-284,789	530,646	0,030	0,051
-283,774	800,000	-0,063	0,141
-282,759	-72,265	-0,094	-0,025
-281,745	130,264	0,103	-0,096
-280,730	-200,000	0,021	-0,095
-279,716	-28,891	0,147	-0,061
-278,701	57,502	0,096	0,068
-277,686	417,291	0,059	-0,092
-276,672	181,648	-0,074	0,079
-275,657	-86,547	0,049	0,011
-274,643	-61,372	0,026	-0,008
-273,628	800,000	-0,017	-0,052
-272,613	800,000	0,027	-0,057
-271,599	-95,880	0,120	-0,023
-270,584	-160,970	0,107	-0,004
-269,570	800,000	0,028	0,063
-268,555	199,049	0,006	-0,007
-267,540	17,556	0,034	-0,019
-266,526	27,960	0,033	0,020
-265,511	228,124	0,029	-0,034
-264,497	67,401	-0,148	0,109
-263,482	56,148	-0,105	0,073
-262,467	4,534	0,150	-0,079
-261,453	800,000	0,046	0,105
-260,438	-200,000	-0,001	-0,102
-259,424	573,911	0,084	-0,149
-258,409	139,568	-0,049	-0,046
-257,395	43,884	0,023	-0,015
-256,380	-50,953	0,187	0,063
-255,365	404,012	0,023	0,036
-254,351	-200,000	-0,001	0,049
-253,336	-24,814	-0,031	0,013
-252,322	184,423	0,044	0,047
-251,307	119,073	-0,055	0,049
-250,292	-116,402	-0,076	-0,010
-249,278	-131,215	-0,119	-0,011
-248,263	431,906	0,058	0,091
-247,249	800,000	-0,067	0,168
-246,234	-116,243	-0,140	-0,019
-245,219	-36,044	-0,029	-0,011
-244,205	-200,000	-0,007	0,038
-243,190	141,258	-0,108	0,103
-242,176	-200,000	-0,013	-0,071
-241,161	124,867	0,058	0,053
-240,146	-200,000	0,042	0,199
-239,132	-106,455	-0,064	0,010
-238,117	362,146	0,031	-0,045
-237,103	800,000	-0,069	-0,213
-236,088	-200,000	0,045	-0,186
-235,073	366,580	-0,064	0,094
-234,059	392,272	-0,012	0,019
-233,044	-200,000	0,050	-0,211
-232,030	800,000	0,027	-0,063
-231,015	-200,000	0,001	-0,039
-230,000	-200,000	0,002	0,064
-228,986	85,949	-0,084	-0,067
-227,971	278,152	-0,014	-0,018
-226,957	50,137	0,009	0,006
-225,942	-200,000	0,003	0,117
-224,927	-95,940	-0,105	-0,020
-223,913	-42,058	-0,055	0,020
-222,898	-200,000	0,001	-0,017
-221,884	102,776	0,060	0,051
-220,869	71,207	0,114	-0,085
-219,855	32,759	0,141	-0,088
-218,840	-54,195	0,051	0,017
-217,825	-200,000	-0,014	-0,081
-216,811	-69,626	-0,175	-0,048
-215,796	800,000	0,053	-0,127
-214,782	-112,514	-0,044	-0,006
-213,767	229,132	0,066	-0,078
-212,752	-200,000	-0,023	0,131
-211,738	577,744	-0,027	0,048
-210,723	-161,377	0,040	-0,001
-209,709	30,606	0,071	-0,044
-208,694	765,383	-0,041	0,080
-207,679	-200,000	0,029	0,099
-206,665	84,909	0,106	-0,084
-205,650	-200,000	0,002	0,172
-204,636	204,141	-0,058	0,065
-203,621	-200,000	-0,014	-0,048
-202,606	-126,353	-0,148	0,016
-201,592	178,083	0,059	-0,063
-200,577	135,480	-0,104	-0,098
-199,563	-0,340	0,018	-0,009
-198,548	140,044	0,049	0,047
-197,533	-79,676	0,086	0,021
-196,519	239,062	-0,074	0,089
-195,504	-200,000	-0,021	0,097
-194,490	227,841	0,048	-0,056
-193,475	-200,000	0,010	-0,113
-192,460	295,440	0,052	-0,069
-191,446	-89,438	0,167	0,035
-190,431	268,154	0,031	-0,039
-189,417	-28,656	-0,056	0,023
-188,402	-200,000	0,015	0,049
-187,387	24,917	-0,160	-0,096
-186,373	466,169	0,041	-0,066
-185,358	-200,000	-0,012	-0,043
-184,344	-12,765	0,099	0,046
-183,329	153,711	0,080	-0,079
-182,315	800,000	0,014	0,040
-181,300	343,804	0,090	-0,127
-180,285	652,930	0,026	-0,047
-179,271	219,342	0,033	-0,038
-178,256	93,586	0,077	0,063
-177,242	91,111	-0,024	-0,020
-176,227	99,180	-0,074	0,062
-175,212	-200,000	-0,012	-0,051
-174,198	133,026	0,084	0,079
-173,183	-140,306	-0,105	-0,008
-172,169	576,181	0,044	-0,077
-171,154	233,857	-0,046	0,055
-170,139	67,062	0,189	0,139
-169,125	557,564	-0,041	0,072
-168,110	800,000	0,027	0,060
-167,096	775,262	-0,014	0,027
-166,081	800,000	0,021	-0,064
-165,066	-19,019	-0,152	0,068
-164,052	34,257	0,046	-0,029
-163,037	-200,000	0,008	0,038
-162,023	-200,000	-0,003	-0,114
-161,008	84,131	-0,039	0,030
-159,993	800,000	-0,036	-0,090
-158,979	281,151	0,030	0,039
-157,964	437,277	-0,072	-0,114
-156,950	707,190	0,007	-0,014
-155,935	-200,000	0,022	0,078
-154,920	-59,405	0,049	0,015
-153,906	15,731	0,023	0,013
-152,891	-99,142	-0,105	-0,019
-151,877	-113,096	-0,029	0,004
-150,862	-103,864	0,039	-0,006
-149,847	425,617	0,085	-0,132
-148,833	800,000	-0,034	0,094
-147,818	164,302	-0,076	-0,077
-146,804	94,228	0,040	0,033
-145,789	-200,000	0,017	-0,088
-144,775	-200,000	-0,029	-0,091
-143,760	99,216	-0,064	-0,053
-142,745	-73,945	0,070	0,018
-141,731	800,000	0,080	-0,172
-140,716	800,000	0,015	-0,030
-139,702	-69,686	0,080	-0,022
-138,687	800,000	0,049	0,116
-137,672	-200,000	0,004	-0,078
-136,658	-200,000	0,007	-0,114
-135,643	-200,000	0,042	-0,175
-134,629	800,000	0,023	-0,058
-133,614	248,355	0,057	0,069
-132,599	364,299	0,015	0,022
-131,585	73,370	0,102	0,077
-130,570	800,000	0,042	-0,088
-129,556	-25,475	-0,028	-0,012
-128,541	24,340	-0,066	0,039
-127,526	108,222	-0,121	-0,104
-126,512	275,329	-0,001	0,002
-125,497	800,000	0,048	0,139
-124,483	378,078	0,053	0,078
-123,468	800,000	-0,022	-0,051
-122,453	-200,000	0,001	-0,039
-121,439	76,204	-0,121	-0,092
-120,424	64,468	-0,058	-0,042
-119,410	114,942	-0,036	-0,032
-118,395	-155,462	0,111	-0,005
-117,380	-200,000	-0,006	-0,037
-116,366	-117,732	0,079	0,010
-115,351	40,827	0,024	0,015
-114,337	-110,403	-0,135	0,020
-113,322	108,025	0,020	0,017
-112,307	-53,973	0,070	-0,023
-111,293	120,356	0,115	-0,103
-110,278	183,004	0,077	-0,082
-109,264	-83,385	0,087	-0,020
-108,249	-200,000	-0,004	-0,173
-107,234	481,863	0,058	-0,095
-106,220	794,660	0,038	-0,075
-105,205	-120,159	0,071	0,009
-104,191	800,000	-0,034	-0,072
-103,176	-53,695	0,140	0,046
-102,162	800,000	0,040	0,105
-101,147	-53,883	-0,041	0,013
-100,132	-128,293	-0,175	-0,018
-99,118	-65,895	0,100	0,029
-98,103	336,694	-0,032	-0,044
-97,089	460,232	0,085	0,137
-96,074	-200,000	-0,024	0,119
-95,059	800,000	-0,043	-0,113
-94,045	-147,004	-0,023	-0,001
-93,030	800,000	-0,030	-0,064
-92,016	455,875	-0,047	-0,075
-91,001	800,000	0,032	-0,064
-89,986	288,420	-0,073	0,096
-88,972	547,513	0,083	-0,144
-87,957	201,753	0,032	0,036
-86,943	-0,437	0,064	-0,033
-85,928	83,410	-0,112	0,087
-84,913	37,556	-0,045	-0,029
-83,899	39,169	0,071	0,046
-82,884	-37,084	-0,052	0,020
-81,870	-200,000	-0,011	0,130
-80,855	264,985	0,044	-0,055
-79,840	-98,880	0,096	-0,017
-78,826	7,504	0,118	-0,063
-77,811	0,238	-0,075	-0,038
-76,797	-200,000	-0,003	-0,079
-75,782	164,894	-0,050	-0,051
-74,767	176,127	0,050	0,052
-73,753	207,546	-0,058	0,065
-72,738	300,811	-0,077	-0,102
-71,724	-13,307	-0,131	-0,061
-70,709	-200,000	0,021	-0,123
-69,694	-106,330	-0,129	-0,021
-68,680	-174,775	0,045	0,001
-67,665	-14,216	-0,037	0,017
-66,651	192,728	0,034	0,037
-65,636	28,622	0,114	-0,069
-64,622	230,831	0,041	-0,048
-63,607	153,221	-0,139	-0,137
-62,592	-7,362	-0,017	0,008
-61,578	80,509	0,126	0,097
-60,563	-200,000	0,020	0,115
-59,549	800,000	0,034	0,084
-58,534	9,292	-2,046	-1,107
-57,519	-200,000	-0,140	-0,849
-56,505	-200,000	-1,351	-5,101
-55,490	23,354	0,890	0,523
-54,476	800,000	5,189	12,012
-53,461	-200,000	17,811	289,535
-52,446	800,000	726,999	2223,396
-51,432	532,862	1639,889	2795,588
-50,417	108,766	1629,459	1396,383
-49,403	72,465	1282,872	958,306
-48,388	31,182	1025,560	629,759
-47,373	19,908	987,525	569,298
-46,359	18,151	975,702	556,710
-45,344	15,368	971,727	545,332
-44,330	15,587	970,318	545,233
-43,315	15,108	968,411	542,579
-42,300	15,054	967,393	541,812
-41,286	15,074	966,320	541,254
-40,271	15,082	965,259	540,666
-39,257	15,111	964,403	540,258
-38,242	15,096	963,593	539,734
-37,227	15,103	962,808	539,296
-36,213	15,080	961,859	538,669
-35,198	15,046	960,970	538,041
-34,184	15,067	960,425	537,782
-33,169	15,050	959,453	537,159
-32,154	15,105	958,391	536,721
-31,140	15,092	957,554	536,191
-30,125	15,080	956,851	535,737
-29,111	15,058	955,924	535,125
-28,096	15,068	955,421	534,855
-27,082	15,144	954,481	534,550
-26,067	15,144	953,802	534,149
-25,052	15,031	953,227	533,445
-24,038	15,074	952,418	533,107
-23,023	15,022	951,909	532,634
-22,009	15,087	951,295	532,478
-20,994	15,131	950,632	532,229
-19,979	15,076	950,012	531,682
-18,965	15,096	949,186	531,264
-17,950	15,084	948,799	530,987
-16,936	14,972	948,119	530,229
-15,921	15,052	947,339	530,026
-14,906	14,979	946,593	529,356
-13,892	14,940	946,102	528,937
-12,877	14,974	945,349	528,602
-11,863	14,908	944,930	528,139
-10,848	14,890	944,253	527,682
-9,833	15,054	943,694	527,868
-8,819	15,072	943,019	527,526
-7,804	15,017	942,620	527,109
-6,790	14,998	941,928	526,641
-5,775	15,146	941,334	526,755
-4,760	15,040	940,594	525,987
-3,746	14,968	939,995	525,403
-2,731	14,884	939,230	524,687
-1,717	14,746	938,775	523,979
-0,702	14,884	937,937	523,924
0,313	14,653	937,420	523,700
1,327	18,060	935,493	533,287
2,342	27,504	789,035	474,638
3,356	23,983	444,046	261,886
4,371	-5,628	295,086	144,488
5,386	-9,677	276,748	131,667
6,400	-10,874	271,140	127,877
7,415	-10,981	268,635	126,586
8,429	-10,934	267,479	126,073
9,444	-11,056	266,533	125,504
10,459	-10,958	265,890	125,279
11,473	-11,041	265,298	124,914
12,488	-11,202	264,806	124,525
13,502	-11,406	264,129	124,012
14,517	-11,295	263,826	123,959
15,531	-11,020	263,332	123,963
16,546	-11,077	263,063	123,775
17,561	-11,204	262,774	123,513
18,575	-11,282	262,340	123,228
19,590	-11,377	262,231	123,081
20,604	-11,050	261,704	123,115
21,619	-11,307	261,570	122,811
22,634	-11,284	260,946	122,528
23,648	-11,326	260,847	122,433
24,663	-11,371	260,465	122,203
25,677	-11,190	260,150	122,205
26,692	-11,102	260,012	122,208
27,707	-11,137	259,605	121,974
28,721	-11,316	259,375	121,697
29,736	-11,199	259,068	121,645
30,750	-11,347	258,864	121,408
31,765	-11,295	258,532	121,288
32,780	-11,173	258,450	121,345
33,794	-11,513	258,257	120,944
34,809	-11,301	258,042	121,020
35,823	-11,167	257,610	120,924
36,838	-11,339	257,442	120,683
37,853	-11,287	257,229	120,618
38,867	-11,539	257,055	120,305
39,882	-11,495	256,758	120,193
40,896	-11,391	256,495	120,151
41,911	-11,285	256,228	120,108
42,926	-11,276	256,067	120,030
43,940	-11,517	255,790	119,679
44,955	-11,447	255,511	119,598
45,969	-11,497	255,307	119,449
46,984	-11,569	254,917	119,193
47,999	-11,883	254,773	118,842
49,013	-11,928	254,484	118,658
50,028	-12,154	254,262	118,347
51,042	-12,131	254,072	118,269
52,057	-12,257	253,756	118,002
53,071	-12,211	253,620	117,968
54,086	-12,036	253,434	118,022
55,101	-11,984	253,327	118,006
56,115	-11,759	253,066	118,069
57,130	-11,385	253,049	118,373
58,144	-10,914	252,843	118,672
59,159	-10,924	252,732	118,601
60,174	-11,000	252,446	118,390
61,188	-11,091	252,268	118,218
62,203	-11,268	252,054	117,955
63,217	-11,226	251,745	117,836
64,232	-11,262	251,704	117,776
65,247	-11,185	251,504	117,737
66,261	-11,336	251,043	117,382
67,276	-11,381	250,765	117,203
68,290	-11,607	250,633	116,938
69,305	-11,760	250,273	116,629
70,320	-11,651	250,151	116,655
71,334	-11,451	250,045	116,765
72,349	-11,146	249,897	116,945
73,363	-11,378	249,743	116,666
74,378	-11,153	249,475	116,720
75,393	-11,240	249,276	116,544
76,407	-11,123	249,063	116,533
77,422	-11,197	248,883	116,375
78,436	-11,242	248,599	116,194
79,451	-11,321	248,458	116,051
80,466	-11,429	248,171	115,816
81,480	-11,507	247,815	115,574
82,495	-11,342	247,651	115,626
83,509	-11,470	247,604	115,485
84,524	-11,562	247,347	115,278
85,539	-11,577	247,192	115,183
86,553	-11,841	247,023	114,872
87,568	-11,547	246,752	114,983
88,582	-11,630	246,548	114,808
89,597	-11,599	246,327	114,721
90,611	-11,605	246,322	114,703
91,626	-11,318	246,108	114,833
92,641	-11,226	245,954	114,828
93,655	-11,320	245,765	114,651
94,670	-11,548	245,579	114,364
95,684	-11,462	245,279	114,286
96,699	-11,427	245,037	114,192
97,714	-11,603	244,904	113,973
98,728	-11,671	244,758	113,839
99,743	-11,668	244,361	113,646
100,757	-11,854	244,467	113,531
101,772	-11,671	244,149	113,525
102,787	-11,685	244,008	113,438
103,801	-11,656	243,630	113,276
104,816	-11,470	243,702	113,453
105,830	-11,380	243,555	113,449
106,845	-11,294	243,334	113,407
107,860	-11,465	243,078	113,136
108,874	-11,686	242,987	112,902
109,889	-11,368	242,622	112,983
110,903	-11,542	242,512	112,780
111,918	-11,503	242,330	112,717
112,933	-11,714	242,193	112,470
113,947	-11,461	241,935	112,547
114,962	-11,325	241,740	112,558
115,976	-11,399	241,660	112,450
116,991	-11,326	241,465	112,409
118,006	-11,536	241,329	112,164
119,020	-11,242	241,135	112,304
120,035	-11,411	241,119	112,149
121,049	-11,234	240,838	112,152
122,064	-11,217	240,576	112,034
123,079	-11,450	240,566	111,829
124,093	-11,557	240,206	111,565
125,108	-11,532	240,034	111,496
126,122	-11,774	239,746	111,155
127,137	-11,806	239,438	110,977
128,151	-11,731	239,354	110,989
129,166	-11,647	239,105	110,931
130,181	-11,751	239,173	110,869
131,195	-11,899	238,952	110,637
132,210	-11,595	238,780	110,793
133,224	-11,436	238,502	110,782
134,239	-11,475	238,470	110,727
135,254	-11,353	238,290	110,731
136,268	-11,387	237,888	110,507
137,283	-11,879	237,628	109,981
138,297	-12,069	237,522	109,769
139,312	-12,097	237,379	109,671
140,327	-11,455	237,366	110,171
141,341	-11,044	237,240	110,432
142,356	-10,930	237,075	110,436
143,370	-11,085	236,984	110,260
144,385	-10,965	236,937	110,325
145,400	-10,921	236,559	110,174
146,414	-11,096	236,523	110,008
147,429	-11,049	236,201	109,886
148,443	-10,989	236,026	109,842
149,458	-11,101	235,990	109,727
150,473	-11,065	235,620	109,573
151,487	-11,265	235,515	109,355
152,502	-11,295	235,430	109,283
153,516	-11,171	235,253	109,289
154,531	-11,181	235,084	109,193
155,546	-11,077	234,952	109,204
156,560	-11,162	234,607	108,967
157,575	-11,539	234,420	108,572
158,589	-11,305	234,274	108,680
159,604	-11,062	234,135	108,798
160,619	-10,829	234,109	108,960
161,633	-10,885	233,833	108,777
162,648	-10,825	233,658	108,734
163,662	-10,978	233,515	108,537
164,677	-11,263	233,395	108,247
165,692	-11,083	233,339	108,353
166,706	-11,082	233,299	108,326
167,721	-10,930	233,045	108,318
168,735	-11,032	232,946	108,181
169,750	-10,980	232,730	108,113
170,764	-11,235	232,517	107,804
171,779	-11,077	232,419	107,873
172,794	-10,942	232,169	107,853
173,808	-11,153	231,986	107,594
174,823	-11,741	231,670	106,978
175,837	-11,558	231,594	107,076
176,852	-11,221	231,460	107,268
177,867	-11,198	231,515	107,301
178,881	-11,047	231,399	107,356
179,896	-10,916	231,245	107,377
180,910	-10,891	230,932	107,242
181,925	-10,969	230,873	107,143
182,940	-10,994	230,623	106,999
183,954	-11,011	230,475	106,907
184,969	-10,841	230,387	106,989
185,983	-10,818	230,196	106,909
186,998	-10,737	229,985	106,863
188,013	-10,612	229,928	106,925
189,027	-10,568	229,645	106,818
190,042	-10,977	229,595	106,468
191,056	-10,799	229,339	106,478
192,071	-10,898	229,276	106,363
193,086	-10,889	228,864	106,169
194,100	-10,982	228,918	106,113
195,115	-11,244	228,497	105,707
196,129	-11,434	228,486	105,546
197,144	-6,548	230,154	110,089
198,159	-0,648	231,948	115,527
199,173	2,675	232,697	118,475
200,188	2,851	232,754	118,631
201,202	3,102	232,591	118,732
202,217	3,226	232,507	118,774
203,232	3,640	232,381	119,021
204,246	3,642	232,206	118,923
205,261	3,383	232,215	118,716
206,275	3,706	232,112	118,903
207,290	3,889	231,953	118,952
208,304	3,903	231,727	118,836
209,319	3,795	231,552	118,653
210,334	3,552	231,336	118,344
211,348	3,317	231,219	118,093
212,363	3,186	230,797	117,766
213,377	2,928	230,644	117,478
214,392	2,987	230,533	117,457
215,407	2,951	230,424	117,363
216,421	3,176	230,337	117,481
217,436	2,976	230,122	117,208
218,450	3,008	229,641	116,976
219,465	2,699	229,758	116,789
220,480	2,843	229,701	116,860
221,494	2,646	229,460	116,577
222,509	3,035	229,336	116,800
223,523	2,990	229,275	116,724
224,538	2,937	229,083	116,576
225,553	2,963	228,919	116,502
226,567	3,130	228,691	116,503
227,582	3,231	228,640	116,543
228,596	3,348	228,602	116,602
229,611	3,013	228,393	116,230
230,626	2,813	228,065	115,901
231,640	3,144	227,908	116,063
232,655	3,099	227,908	116,018
233,669	3,279	227,884	116,132
234,684	3,596	227,688	116,262
235,699	3,412	227,492	116,012
236,713	3,181	227,149	115,652
237,728	2,878	226,931	115,302
238,742	2,686	226,872	115,117
239,757	3,090	226,733	115,341
240,772	3,106	226,475	115,212
241,786	2,979	226,440	115,087
242,801	3,283	226,407	115,290
243,815	3,503	226,483	115,484
244,830	3,429	226,173	115,260
245,844	3,152	225,898	114,902
246,859	3,004	225,865	114,763
247,874	3,019	225,776	114,719
248,888	3,481	225,518	114,924
249,903	3,274	225,376	114,686
250,917	3,023	225,278	114,438
251,932	3,239	224,918	114,407
252,947	2,805	224,916	114,071
253,961	2,790	224,792	113,987
254,976	2,836	224,561	113,894
255,990	3,122	224,569	114,101
257,005	3,559	224,316	114,288
258,020	3,096	224,313	113,931
259,034	3,459	224,181	114,124
260,049	3,164	224,000	113,802
261,063	3,230	223,711	113,695
262,078	3,411	223,677	113,801
263,093	3,233	223,442	113,540
264,107	3,193	223,391	113,474
265,122	3,387	223,167	113,494
266,136	3,595	223,076	113,592
267,151	3,453	222,926	113,400
268,166	3,155	222,668	113,039
269,180	2,818	222,459	112,674
270,195	2,740	222,509	112,631
271,209	3,089	222,251	112,748
272,224	3,018	222,213	112,666
273,239	3,073	222,064	112,621
274,253	3,001	221,869	112,459
275,268	2,895	221,652	112,261
276,282	3,024	221,478	112,258
277,297	2,516	221,285	111,777
278,312	2,564	221,346	111,834
279,326	3,050	221,102	112,056
280,341	2,824	221,075	111,867
281,355	3,166	220,973	112,056
282,370	2,909	220,700	111,719
283,384	2,731	220,584	111,521
284,399	2,818	220,356	111,459
285,414	2,694	220,251	111,305
286,428	2,737	220,254	111,328
287,443	3,232	220,068	111,585
288,457	3,006	219,974	111,363
289,472	2,945	219,717	111,178
290,487	2,498	219,469	110,718
291,501	2,508	219,243	110,602
292,516	2,909	219,281	110,902
293,530	2,720	219,126	110,676
294,545	2,700	218,924	110,550
295,560	2,916	218,808	110,638
296,574	2,927	218,793	110,628
297,589	2,971	218,630	110,568
298,603	3,038	218,627	110,605
299,618	3,089	218,486	110,561
300,633	3,248	218,288	110,566
301,647	3,367	218,078	110,536
302,662	3,131	218,012	110,322
303,676	3,273	217,859	110,337
304,691	2,976	217,866	110,117
305,706	3,074	217,627	110,057
306,720	3,127	217,583	110,063
307,735	2,924	217,173	109,699
308,749	2,641	217,200	109,500
309,764	3,146	216,915	109,710
310,779	3,387	216,836	109,832
311,793	3,359	216,751	109,759
312,808	3,389	216,622	109,706
313,822	3,140	216,457	109,434
314,837	3,090	216,213	109,266
315,852	2,802	216,037	108,961
316,866	3,126	215,939	109,133
317,881	3,303	215,885	109,222
318,895	3,107	215,729	108,994
319,910	3,177	215,547	108,942
320,925	2,874	215,447	108,666
321,939	2,381	215,100	108,131
322,954	2,430	215,228	108,221
323,968	2,942	215,108	108,514
324,983	3,287	214,875	108,633
325,997	3,200	214,685	108,464
327,012	3,164	214,584	108,378
328,027	3,030	214,512	108,238
329,041	3,490	214,359	108,476
330,056	3,561	214,309	108,491
331,070	2,760	214,100	107,810
332,085	2,716	213,796	107,616
333,100	2,541	213,672	107,420
334,114	2,704	213,683	107,532
335,129	2,946	213,507	107,604
336,143	2,900	213,463	107,540
337,158	3,160	213,371	107,667
338,173	3,003	213,132	107,426
339,187	3,037	212,893	107,320
340,202	2,565	212,773	106,919
341,216	2,741	212,715	107,003
342,231	2,943	212,434	106,994
343,246	2,841	212,394	106,893
344,260	2,893	212,339	106,892
345,275	3,141	212,183	106,978
346,289	3,186	212,001	106,907
347,304	3,119	211,866	106,784
348,319	3,034	211,668	106,615
349,333	2,983	211,688	106,580
350,348	2,912	211,704	106,529
351,362	3,179	211,496	106,600
352,377	3,264	211,359	106,581
353,392	3,260	211,163	106,471
354,406	3,139	211,040	106,315
355,421	196,200	1337,583	1416,691
356,435	156,751	1474,807	1416,656
