DTS Sentinel unit serial number:	SN410029Multiplexer serial number:	ORYXHardware model number:	OX2-SRSoftware version number:	ORYX F/W v4,00 Oryx Data Collector v3.7.2.0data status	okinstallation	B6 Nyhavnadifferential loss correction	single-endedforward channel	channel 2reverse channel	N/Adate	2023/12/08time	15:50:08forward acquisition time	300,00reverse acquisition time	0,00gamma	499,1914k internal	0,3159k external	0,3159temperature offset calibration	1,0000default loss term (dB/km)	0,3820temperature slope calibration	1,0000multiplexer offset coefficient	1,0000multiplexer slope coefficient	1,0000fibre end	0,00T internal ref (°C)	15,08T ext. ref 1 (°C)	-1,51T ext. ref 2 (°C)	-1,51length (m)	temperature (°C)	Stokes	anti-Stokes-744,400	-28,541	0,146	-0,062
-743,385	-168,199	-0,237	0,007
-742,371	536,954	0,095	0,168
-741,356	-117,391	-0,396	-0,052
-740,342	124,961	-0,015	-0,014
-739,327	-124,267	-0,277	-0,031
-738,312	-65,097	0,169	0,050
-737,298	-178,644	-0,376	-0,006
-736,283	-105,179	0,180	-0,030
-735,269	-49,636	-0,395	-0,138
-734,254	-128,644	0,093	-0,010
-733,239	-3,996	-0,494	-0,252
-732,225	-200,000	0,340	0,001
-731,210	72,303	-0,033	0,025
-730,196	14,939	-0,170	0,098
-729,181	-7,959	-0,088	0,044
-728,167	-85,064	-0,073	0,017
-727,152	-200,000	0,016	-0,060
-726,137	746,016	-0,066	-0,132
-725,123	800,000	-0,010	-0,024
-724,108	800,000	0,016	-0,036
-723,094	-200,000	0,028	-0,103
-722,079	-76,246	-0,101	0,026
-721,064	-200,000	0,002	-0,041
-720,050	800,000	-0,054	-0,140
-719,035	610,845	0,008	-0,016
-718,021	453,841	-0,014	0,024
-717,006	36,598	-0,098	-0,064
-715,991	50,165	-0,117	-0,081
-714,977	-35,249	-0,095	-0,038
-713,962	102,330	0,032	0,028
-712,948	-178,638	0,141	-0,002
-711,933	45,065	-0,105	0,071
-710,918	-200,000	-0,037	-0,164
-709,904	94,915	0,055	0,046
-708,889	748,730	-0,017	-0,034
-707,875	-105,120	-0,068	0,011
-706,860	800,000	-0,022	0,054
-705,845	-130,967	-0,071	0,007
-704,831	800,000	-0,050	0,113
-703,816	-200,000	0,030	-0,139
-702,802	-20,315	0,094	0,043
-701,787	800,000	-0,078	-0,181
-700,772	-200,000	0,004	0,023
-699,758	-200,000	0,013	-0,045
-698,743	-200,000	-0,006	-0,104
-697,729	-57,812	-0,014	-0,004
-696,714	78,283	-0,043	0,034
-695,699	-200,000	0,022	-0,090
-694,685	-200,000	0,010	-0,091
-693,670	-200,000	-0,007	0,035
-692,656	-157,449	-0,106	-0,005
-691,641	-0,027	-0,124	-0,065
-690,627	-200,000	0,003	-0,057
-689,612	-200,000	-0,009	-0,115
-688,597	152,085	-0,105	-0,106
-687,583	-200,000	-0,001	-0,208
-686,568	-40,577	-0,064	0,024
-685,554	692,359	-0,065	-0,126
-684,539	94,695	-0,042	-0,035
-683,524	800,000	0,035	-0,089
-682,510	162,333	-0,101	-0,104
-681,495	-28,243	-0,061	-0,026
-680,481	-39,921	-0,109	0,042
-679,466	351,862	0,096	0,140
-678,451	800,000	-0,020	0,051
-677,437	352,645	0,015	-0,021
-676,422	-200,000	-0,028	-0,100
-675,408	-200,000	-0,027	-0,089
-674,393	139,782	-0,153	-0,149
-673,378	800,000	-0,014	-0,041
-672,364	472,002	-0,080	-0,133
-671,349	-100,640	-0,040	0,007
-670,335	89,636	0,117	-0,096
-669,320	32,470	0,085	0,054
-668,305	800,000	-0,057	-0,157
-667,291	-200,000	-0,012	-0,061
-666,276	-40,074	-0,157	-0,060
-665,262	-167,283	-0,152	-0,004
-664,247	181,303	-0,022	0,024
-663,232	800,000	-0,017	0,041
-662,218	800,000	-0,055	0,164
-661,203	-127,020	0,055	0,006
-660,189	-200,000	0,015	-0,065
-659,174	-200,000	0,001	-0,014
-658,159	-200,000	-0,003	0,090
-657,145	34,697	-0,055	0,035
-656,130	179,140	0,128	-0,137
-655,116	533,993	-0,066	-0,115
-654,101	-130,718	0,222	-0,022
-653,086	69,823	0,048	0,036
-652,072	800,000	-0,083	-0,186
-651,057	-96,370	-0,108	-0,021
-650,043	677,336	-0,021	-0,040
-649,028	323,509	0,091	-0,127
-648,014	766,436	0,054	0,109
-646,999	-200,000	-0,031	0,104
-645,984	118,952	0,091	-0,082
-644,970	283,893	-0,031	-0,041
-643,955	800,000	-0,034	-0,073
-642,941	800,000	0,008	-0,020
-641,926	-200,000	0,033	-0,132
-640,911	4,033	-0,090	-0,048
-639,897	-151,354	0,192	-0,010
-638,882	190,094	-0,074	-0,082
-637,868	179,594	-0,037	-0,039
-636,853	761,870	-0,080	-0,159
-635,838	33,809	-0,114	-0,073
-634,824	-41,764	-0,156	-0,058
-633,809	-50,800	0,111	-0,038
-632,795	800,000	-0,044	0,101
-631,780	-160,933	0,109	0,004
-630,765	-200,000	0,005	-0,085
-629,751	-178,345	-0,054	0,001
-628,736	625,772	0,037	-0,069
-627,722	800,000	0,050	0,103
-626,707	795,678	0,044	0,089
-625,692	41,989	-0,040	0,026
-624,678	185,620	-0,044	0,048
-623,663	-200,000	-0,008	0,036
-622,649	-200,000	0,001	-0,015
-621,634	-135,092	0,023	0,002
-620,619	-200,000	-0,002	-0,089
-619,605	41,710	-0,109	-0,072
-618,590	-34,785	-0,105	0,042
-617,576	800,000	-0,040	0,104
-616,561	-63,615	-0,027	-0,008
-615,546	-200,000	0,014	-0,065
-614,532	-10,050	0,063	-0,030
-613,517	754,248	-0,039	-0,077
-612,503	530,077	-0,029	-0,050
-611,488	178,946	-0,030	0,033
-610,474	272,769	0,063	0,082
-609,459	637,875	-0,149	0,279
-608,444	-108,121	0,171	0,027
-607,430	176,805	-0,093	-0,099
-606,415	-200,000	0,012	-0,092
-605,401	-200,000	-0,025	-0,115
-604,386	-116,059	0,094	-0,013
-603,371	48,618	-0,084	-0,058
-602,357	19,041	0,093	0,055
-601,342	-27,199	-0,096	-0,041
-600,328	800,000	-0,061	-0,144
-599,313	78,912	0,095	-0,074
-598,298	-200,000	-0,014	-0,064
-597,284	-70,515	0,092	-0,025
-596,269	-127,898	-0,052	0,005
-595,255	29,407	-0,072	-0,045
-594,240	-59,190	0,033	-0,010
-593,225	-200,000	-0,008	-0,036
-592,211	445,678	0,116	-0,187
-591,196	700,521	-0,031	0,061
-590,182	-53,454	0,051	0,017
-589,167	-152,375	-0,097	0,005
-588,152	-171,135	-0,125	-0,003
-587,138	38,368	0,087	-0,056
-586,123	78,745	-0,177	-0,138
-585,109	182,762	-0,133	-0,144
-584,094	120,356	0,187	-0,170
-583,079	-200,000	0,016	-0,114
-582,065	7,624	-0,061	0,033
-581,050	-200,000	-0,001	-0,050
-580,036	-200,000	-0,012	-0,100
-579,021	800,000	0,047	0,109
-578,006	-35,016	-0,146	-0,058
-576,992	-122,835	-0,075	-0,009
-575,977	800,000	0,022	-0,046
-574,963	8,735	0,015	0,008
-573,948	-200,000	-0,055	0,178
-572,934	237,027	-0,058	-0,070
-571,919	-117,636	-0,096	-0,013
-570,904	-141,396	-0,113	0,008
-569,890	-200,000	0,018	0,113
-568,875	115,298	0,031	-0,028
-567,861	-93,405	0,084	0,017
-566,846	-200,000	0,018	-0,081
-565,831	-200,000	0,002	0,007
-564,817	-118,979	0,029	0,004
-563,802	117,052	-0,072	-0,065
-562,788	-21,965	0,119	0,053
-561,773	-200,000	0,039	0,131
-560,758	153,969	-0,069	0,069
-559,744	399,928	0,112	0,172
-558,729	-200,000	-0,031	0,102
-557,715	387,648	0,042	-0,063
-556,700	92,535	-0,046	-0,038
-555,685	-0,022	-0,102	-0,053
-554,671	100,155	0,166	-0,141
-553,656	148,222	0,114	-0,113
-552,642	-43,504	0,144	0,053
-551,627	797,359	-0,097	0,196
-550,612	800,000	0,029	-0,090
-549,598	-156,756	-0,075	0,003
-548,583	98,431	-0,043	-0,037
-547,569	785,496	0,045	0,092
-546,554	115,291	0,061	-0,055
-545,539	506,330	0,022	-0,037
-544,525	800,000	-0,066	0,153
-543,510	-5,803	-0,126	-0,063
-542,496	-200,000	0,006	-0,039
-541,481	187,701	-0,097	-0,106
-540,466	-200,000	-0,001	-0,088
-539,452	226,753	0,138	0,164
-538,437	347,320	-0,040	0,058
-537,423	-27,997	-0,087	-0,036
-536,408	800,000	0,048	-0,105
-535,393	-200,000	-0,051	-0,249
-534,379	532,929	-0,079	-0,137
-533,364	800,000	0,046	-0,131
-532,350	-91,991	0,111	-0,023
-531,335	-93,566	-0,205	0,041
-530,321	16,358	0,196	0,113
-529,306	800,000	-0,011	-0,025
-528,291	-200,000	-0,006	-0,118
-527,277	-7,187	-0,056	0,027
-526,262	-15,768	0,102	-0,047
-525,248	12,437	0,139	0,078
-524,233	800,000	-0,034	0,079
-523,218	395,143	0,071	0,108
-522,204	132,674	-0,017	-0,016
-521,189	44,007	-0,106	0,071
-520,175	-17,942	-0,092	-0,042
-519,160	-71,339	-0,116	0,031
-518,145	628,882	-0,054	0,099
-517,131	-58,661	0,190	-0,060
-516,116	1,402	-0,159	-0,083
-515,102	668,098	-0,046	-0,087
-514,087	800,000	0,058	0,135
-513,072	104,577	-0,048	0,041
-512,058	-28,563	-0,096	-0,040
-511,043	-90,106	0,068	0,014
-510,029	285,928	0,072	0,095
-509,014	96,565	0,067	0,056
-507,999	188,612	-0,024	0,026
-506,985	-62,191	0,066	0,020
-505,970	91,045	0,040	0,033
-504,956	-85,886	0,062	0,014
-503,941	-200,000	0,031	0,000
-502,926	-107,657	-0,138	0,022
-501,912	800,000	0,026	0,082
-500,897	-200,000	0,028	0,163
-499,883	800,000	-0,021	0,052
-498,868	800,000	-0,051	-0,154
-497,853	162,157	-0,139	-0,143
-496,839	800,000	0,030	0,094
-495,824	-20,314	0,069	0,031
-494,810	-200,000	-0,001	0,111
-493,795	800,000	-0,010	-0,026
-492,781	-200,000	-0,001	0,101
-491,766	-79,267	-0,104	-0,025
-490,751	-77,004	-0,026	0,006
-489,737	494,286	-0,018	0,030
-488,722	-130,568	0,026	-0,002
-487,708	-200,000	-0,019	0,140
-486,693	-105,744	0,112	0,018
-485,678	169,140	0,057	-0,060
-484,664	800,000	0,041	0,090
-483,649	37,899	-0,082	0,053
-482,635	268,196	-0,016	-0,021
-481,620	-200,000	-0,017	0,059
-480,605	-54,318	-0,112	0,037
-479,591	359,772	-0,041	0,060
-478,576	89,604	-0,027	0,022
-477,562	-200,000	-0,005	-0,050
-476,547	382,574	-0,056	-0,084
-475,532	105,981	0,086	0,074
-474,518	-200,000	-0,006	0,054
-473,503	-77,976	0,090	0,022
-472,489	-9,296	0,055	0,027
-471,474	-200,000	-0,022	-0,082
-470,459	23,603	0,057	-0,034
-469,445	-200,000	0,003	0,101
-468,430	-200,000	0,017	0,104
-467,416	58,993	-0,058	-0,042
-466,401	62,096	0,097	0,070
-465,386	-200,000	-0,051	0,183
-464,372	663,625	-0,063	0,119
-463,357	-36,166	-0,115	0,045
-462,343	-41,922	0,010	0,004
-461,328	-104,528	0,064	0,011
-460,313	-124,064	0,025	0,003
-459,299	-55,676	-0,077	0,025
-458,284	-200,000	-0,015	0,111
-457,270	372,026	-0,040	0,059
-456,255	276,733	-0,036	0,046
-455,241	-114,181	0,010	0,001
-454,226	-158,263	-0,096	0,004
-453,211	199,974	0,105	-0,118
-452,197	271,948	0,050	-0,064
-451,182	-40,810	0,091	-0,034
-450,168	-200,000	0,015	-0,058
-449,153	60,537	0,102	0,074
-448,138	-48,993	0,035	0,012
-447,124	-122,808	0,090	0,010
-446,109	125,226	0,032	0,029
-445,095	-87,318	0,148	0,033
-444,080	-30,381	0,106	0,044
-443,065	-200,000	0,025	0,195
-442,051	-75,106	0,060	0,016
-441,036	26,359	0,048	0,029
-440,022	-32,832	0,064	-0,026
-439,007	756,177	-0,082	0,162
-437,992	-12,020	0,041	-0,020
-436,978	-200,000	0,010	-0,152
-435,963	-200,000	0,005	0,062
-434,949	-32,068	0,129	-0,052
-433,934	-71,485	-0,065	0,018
-432,919	428,426	-0,054	-0,085
-431,905	-119,150	0,115	0,014
-430,890	-74,408	-0,057	-0,015
-429,876	800,000	0,026	-0,085
-428,861	-200,000	-0,007	0,221
-427,846	-200,000	-0,004	0,087
-426,832	-200,000	-0,009	-0,047
-425,817	547,564	-0,030	-0,052
-424,803	515,315	0,049	0,084
-423,788	-61,606	-0,080	0,024
-422,773	-200,000	-0,042	0,149
-421,759	71,083	0,063	0,048
-420,744	-180,227	0,055	-0,001
-419,730	-200,000	0,022	-0,110
-418,715	330,016	-0,109	-0,153
-417,701	20,097	0,068	0,040
-416,686	197,015	0,138	0,153
-415,671	602,776	-0,007	0,013
-414,657	800,000	-0,037	-0,086
-413,642	-200,000	-0,008	-0,233
-412,628	-5,647	0,044	0,022
-411,613	140,430	-0,075	-0,072
-410,598	800,000	-0,026	-0,078
-409,584	-200,000	0,002	0,107
-408,569	-200,000	0,042	0,290
-407,555	-200,000	0,033	0,110
-406,540	783,121	-0,044	0,087
-405,525	320,664	-0,061	-0,084
-404,511	-11,331	0,218	0,104
-403,496	800,000	0,021	0,061
-402,482	-67,332	0,051	0,015
-401,467	-26,575	0,158	0,067
-400,452	-200,000	-0,029	0,103
-399,438	176,252	-0,141	0,149
-398,423	505,848	-0,021	0,035
-397,409	-200,000	0,005	0,064
-396,394	-200,000	-0,003	0,026
-395,379	-124,257	-0,016	0,002
-394,365	-87,652	-0,105	0,023
-393,350	-62,787	0,042	-0,013
-392,336	-200,000	-0,018	-0,071
-391,321	251,476	-0,103	0,128
-390,306	58,355	0,061	-0,043
-389,292	-129,065	-0,095	0,009
-388,277	-200,000	0,008	-0,081
-387,263	800,000	0,037	-0,102
-386,248	-49,784	0,081	-0,028
-385,233	-8,080	0,049	0,024
-384,219	800,000	0,018	0,059
-383,204	676,299	-0,037	-0,070
-382,190	680,738	-0,054	-0,102
-381,175	23,691	0,095	-0,057
-380,160	49,800	0,172	-0,118
-379,146	-115,813	-0,073	-0,010
-378,131	58,371	-0,088	-0,063
-377,117	-31,254	-0,031	-0,013
-376,102	-62,986	-0,117	0,035
-375,088	-24,926	-0,044	0,019
-374,073	800,000	0,039	0,084
-373,058	390,525	0,053	0,080
-372,044	-79,835	0,165	-0,040
-371,029	800,000	0,039	0,110
-370,015	159,820	0,141	-0,143
-369,000	186,304	-0,138	-0,149
-367,985	-200,000	-0,012	-0,185
-366,971	108,150	-0,062	0,054
-365,956	-37,925	-0,016	-0,006
-364,942	23,105	-0,039	-0,023
-363,927	-22,344	-0,034	-0,015
-362,912	-120,917	0,132	-0,016
-361,898	31,427	0,061	0,038
-360,883	-17,688	-0,037	-0,017
-359,869	-200,000	-0,005	-0,023
-358,854	309,583	0,141	-0,192
-357,839	15,142	0,053	-0,030
-356,825	-107,583	0,150	-0,024
-355,810	475,466	-0,054	0,088
-354,796	-71,581	0,117	0,032
-353,781	291,825	-0,076	-0,101
-352,766	-87,964	0,056	-0,012
-351,752	-73,127	0,190	-0,050
-350,737	682,246	-0,031	0,059
-349,723	-21,195	0,200	-0,088
-348,708	-48,426	-0,151	-0,053
-347,693	-200,000	-0,006	-0,025
-346,679	-44,279	-0,235	-0,085
-345,664	467,620	0,110	-0,180
-344,650	93,575	0,037	0,031
-343,635	-200,000	0,001	0,078
-342,620	120,908	0,039	-0,035
-341,606	-129,825	0,090	-0,009
-340,591	800,000	-0,007	-0,021
-339,577	-200,000	-0,006	-0,045
-338,562	-200,000	0,024	-0,105
-337,548	-200,000	0,016	-0,202
-336,533	-95,785	0,026	0,005
-335,518	155,316	0,086	0,086
-334,504	-81,513	0,099	-0,023
-333,489	-200,000	-0,016	0,067
-332,475	18,005	-0,078	-0,045
-331,460	196,501	-0,030	-0,034
-330,445	-200,000	-0,013	-0,046
-329,431	-113,419	-0,074	-0,010
-328,416	-200,000	0,012	-0,122
-327,402	-106,242	-0,147	0,024
-326,387	800,000	0,029	0,088
-325,372	32,196	-0,091	-0,057
-324,358	27,049	-0,100	-0,061
-323,343	800,000	-0,024	0,048
-322,329	-111,055	0,047	0,007
-321,314	-200,000	0,003	0,039
-320,299	531,068	-0,054	-0,093
-319,285	390,038	-0,041	-0,061
-318,270	228,112	-0,056	0,066
-317,256	-95,049	-0,032	0,006
-316,241	139,684	0,064	0,062
-315,226	451,913	0,049	0,078
-314,212	646,099	-0,014	0,026
-313,197	-200,000	0,032	0,127
-312,183	-140,491	-0,042	0,003
-311,168	-168,546	-0,146	-0,004
-310,153	447,208	-0,021	0,034
-309,139	800,000	-0,035	-0,082
-308,124	-22,971	0,198	-0,086
-307,110	800,000	0,020	0,062
-306,095	-200,000	-0,006	0,090
-305,080	-200,000	-0,019	0,095
-304,066	-98,203	-0,112	-0,021
-303,051	167,621	-0,130	-0,134
-302,037	800,000	-0,033	-0,074
-301,022	800,000	-0,007	-0,021
-300,008	-11,663	-0,040	0,019
-298,993	73,476	0,081	0,061
-297,978	474,982	0,060	-0,098
-296,964	159,017	-0,055	-0,056
-295,949	-200,000	-0,004	0,015
-294,935	446,061	0,064	-0,102
-293,920	-123,110	0,046	0,005
-292,905	800,000	-0,077	-0,233
-291,891	-200,000	0,008	-0,050
-290,876	195,597	-0,061	0,067
-289,862	800,000	-0,080	-0,177
-288,847	-200,000	-0,019	-0,109
-287,832	-149,879	0,052	-0,003
-286,818	-200,000	0,001	0,099
-285,803	-51,193	0,085	-0,029
-284,789	161,077	-0,102	-0,103
-283,774	-200,000	0,018	0,100
-282,759	45,088	-0,079	-0,053
-281,745	800,000	-0,041	0,113
-280,730	-147,452	-0,207	0,012
-279,716	-200,000	0,003	0,017
-278,701	-91,806	0,114	-0,023
-277,686	-12,717	0,043	-0,020
-276,672	-200,000	0,007	0,072
-275,657	800,000	-0,039	0,112
-274,643	304,537	0,133	-0,180
-273,628	-42,180	0,135	-0,050
-272,613	-38,038	-0,092	-0,035
-271,599	737,315	0,018	0,036
-270,584	800,000	0,007	-0,015
-269,570	-0,658	0,091	0,046
-268,555	225,061	-0,020	0,024
-267,540	129,841	-0,071	-0,066
-266,526	800,000	-0,036	-0,093
-265,511	-57,857	0,124	-0,039
-264,497	-200,000	0,028	0,120
-263,482	178,867	-0,083	0,087
-262,467	260,316	-0,083	0,104
-261,453	438,592	-0,018	-0,029
-260,438	619,426	-0,061	-0,112
-259,424	176,731	0,033	-0,035
-258,409	704,460	-0,044	0,084
-257,395	254,147	0,068	-0,084
-256,380	260,442	0,060	-0,075
-255,365	598,404	0,041	-0,074
-254,351	-63,424	-0,114	-0,034
-253,336	-200,000	0,023	-0,132
-252,322	227,977	-0,078	0,091
-251,307	8,305	0,179	0,097
-250,292	306,231	-0,019	0,026
-249,278	-9,838	0,041	0,020
-248,263	503,427	0,040	0,068
-247,249	-200,000	-0,030	0,109
-246,234	-86,245	0,042	0,009
-245,219	-11,898	-0,117	-0,055
-244,205	198,911	0,031	-0,035
-243,190	30,150	0,005	-0,003
-242,176	219,944	-0,030	0,035
-241,161	-48,317	0,036	0,013
-240,146	7,893	0,072	0,039
-239,132	619,071	-0,087	0,159
-238,117	-200,000	0,003	-0,068
-237,103	14,544	-0,053	0,030
-236,088	800,000	-0,024	0,049
-235,073	-200,000	-0,030	0,178
-234,059	800,000	-0,020	0,057
-233,044	392,414	-0,018	-0,028
-232,030	-126,600	0,097	-0,010
-231,015	-60,695	-0,184	-0,056
-230,000	-20,663	0,097	-0,043
-228,986	-200,000	-0,032	0,170
-227,971	800,000	-0,025	0,058
-226,957	800,000	0,038	0,095
-225,942	800,000	0,081	0,187
-224,927	-2,701	-0,118	0,059
-223,913	98,701	-0,066	0,055
-222,898	21,360	-0,060	0,035
-221,884	-200,000	-0,003	0,087
-220,869	-51,286	-0,024	-0,008
-219,855	-200,000	-0,028	0,104
-218,840	31,872	0,136	-0,085
-217,825	-126,225	0,086	-0,009
-216,811	800,000	0,050	0,109
-215,796	234,265	0,025	-0,030
-214,782	-200,000	0,003	-0,017
-213,767	-200,000	-0,009	0,036
-212,752	-200,000	-0,009	-0,038
-211,738	-200,000	0,016	-0,111
-210,723	-63,269	-0,066	0,019
-209,709	136,084	0,102	-0,096
-208,694	800,000	-0,031	-0,090
-207,679	0,480	-0,105	-0,054
-206,665	-76,648	-0,106	-0,027
-205,650	-79,288	0,175	0,043
-204,636	-146,026	0,139	0,009
-203,621	800,000	0,072	-0,151
-202,606	181,238	0,035	0,037
-201,592	800,000	-0,039	0,091
-200,577	-62,315	-0,055	-0,016
-199,563	280,328	-0,048	0,062
-198,548	-200,000	-0,020	0,165
-197,533	205,338	0,100	-0,112
-196,519	19,150	-0,086	-0,049
-195,504	-54,257	-0,068	0,022
-194,490	-158,518	-0,114	-0,005
-193,475	-198,910	-0,039	0,000
-192,460	-63,395	-0,047	-0,014
-191,446	800,000	0,031	0,098
-190,431	-200,000	-0,012	0,044
-189,417	-148,707	-0,009	-0,000
-188,402	73,539	0,057	0,043
-187,387	146,767	-0,097	-0,095
-186,373	53,147	-0,092	0,063
-185,358	44,763	-0,060	0,040
-184,344	224,010	0,035	-0,041
-183,329	-33,596	0,060	-0,024
-182,315	-200,000	-0,002	-0,086
-181,300	91,240	0,072	-0,058
-180,285	-200,000	0,008	0,031
-179,271	-124,909	-0,054	0,006
-178,256	-38,761	0,062	0,024
-177,242	175,570	0,107	0,112
-176,227	644,941	-0,045	-0,083
-175,212	-200,000	0,003	-0,021
-174,198	467,491	0,010	0,016
-173,183	800,000	0,012	-0,037
-172,169	-37,013	0,144	-0,055
-171,154	-99,863	-0,161	0,029
-170,139	-200,000	-0,017	0,130
-169,125	-200,000	0,000	-0,008
-168,110	-200,000	-0,060	0,207
-167,096	75,708	-0,051	-0,039
-166,081	800,000	-0,009	-0,028
-165,066	105,320	-0,077	0,065
-164,052	-200,000	0,038	-0,135
-163,037	66,829	-0,017	0,012
-162,023	-45,400	0,074	0,026
-161,008	800,000	0,077	0,177
-159,993	-200,000	-0,028	-0,134
-158,979	35,645	-0,159	-0,100
-157,964	335,819	0,083	-0,117
-156,950	-69,197	-0,034	-0,009
-155,935	-114,965	0,092	-0,012
-154,920	-200,000	0,016	0,159
-153,906	51,108	0,038	0,026
-152,891	800,000	-0,065	0,155
-151,877	-200,000	0,020	0,097
-150,862	-200,000	-0,002	-0,059
-149,847	800,000	-0,043	0,098
-148,833	-200,000	-0,025	0,122
-147,818	-154,485	0,128	-0,006
-146,804	619,349	0,041	-0,075
-145,789	-123,062	0,051	-0,006
-144,775	-200,000	-0,004	-0,074
-143,760	36,380	-0,042	-0,027
-142,745	76,538	-0,148	-0,113
-141,731	-24,656	-0,097	0,041
-140,716	-47,151	0,146	0,051
-139,702	488,742	0,081	0,133
-138,687	215,685	0,037	-0,042
-137,672	-200,000	0,002	-0,039
-136,658	-137,492	-0,011	0,001
-135,643	-200,000	0,036	-0,141
-134,629	-121,853	0,096	0,011
-133,614	643,769	0,068	-0,125
-132,599	-200,000	0,018	0,090
-131,585	-95,965	0,038	0,007
-130,570	245,898	-0,031	0,037
-129,556	800,000	0,022	0,060
-128,541	461,629	-0,045	-0,072
-127,526	50,065	0,147	0,100
-126,512	188,814	-0,054	-0,058
-125,497	192,560	-0,081	0,088
-124,483	225,930	-0,133	0,156
-123,468	-200,000	0,035	0,152
-122,453	-200,000	0,022	-0,085
-121,439	-48,316	0,082	-0,028
-120,424	238,220	-0,035	0,042
-119,410	19,368	-0,087	-0,050
-118,395	-52,824	-0,062	0,020
-117,380	-42,047	0,163	0,060
-116,366	-200,000	0,008	-0,149
-115,351	-46,736	0,082	0,029
-114,337	800,000	-0,002	0,007
-113,322	800,000	0,075	0,157
-112,307	-81,579	0,126	-0,030
-111,293	200,244	0,062	-0,069
-110,278	17,017	-0,083	-0,047
-109,264	153,887	0,046	0,045
-108,249	800,000	-0,003	0,005
-107,234	-200,000	0,005	0,064
-106,220	-200,000	0,004	-0,116
-105,205	260,035	-0,011	0,014
-104,191	20,551	0,137	-0,079
-103,176	800,000	-0,040	0,102
-102,162	-84,636	0,049	-0,011
-101,147	48,505	-0,125	0,084
-100,132	-133,361	-0,084	-0,008
-99,118	-200,000	-0,035	0,119
-98,103	-200,000	0,006	-0,077
-97,089	-39,449	0,169	0,063
-96,074	194,209	-0,112	0,122
-95,059	222,907	-0,060	0,070
-94,045	19,285	0,054	-0,031
-93,030	680,171	0,045	0,085
-92,016	-200,000	0,042	-0,146
-91,001	800,000	0,017	-0,035
-89,986	-200,000	0,003	-0,062
-88,972	-200,000	-0,004	-0,061
-87,957	-200,000	-0,011	0,077
-86,943	-12,148	0,059	-0,028
-85,928	498,311	-0,072	-0,119
-84,913	-200,000	0,021	-0,124
-83,899	3,036	-0,051	0,026
-82,884	-200,000	-0,018	-0,081
-81,870	-200,000	0,007	0,156
-80,855	674,468	-0,030	0,056
-79,840	135,034	-0,030	0,028
-78,826	-200,000	-0,024	-0,194
-77,811	-200,000	-0,008	-0,111
-76,797	800,000	-0,047	0,097
-75,782	-200,000	0,005	0,105
-74,767	307,171	-0,073	0,097
-73,753	-200,000	0,009	-0,084
-72,738	375,698	0,042	0,062
-71,724	134,723	-0,140	-0,131
-70,709	-200,000	0,020	0,105
-69,694	76,554	-0,003	0,003
-68,680	-200,000	-0,019	0,089
-67,665	-200,000	-0,016	0,119
-66,651	-92,535	0,084	-0,017
-65,636	11,875	-0,048	-0,026
-64,622	800,000	-0,069	0,159
-63,607	75,238	0,043	0,033
-62,592	-200,000	-0,013	0,096
-61,578	800,000	-0,074	-0,158
-60,563	-117,548	0,097	-0,012
-59,549	-200,000	0,020	-0,063
-58,534	10,811	-2,048	-1,119
-57,519	-200,000	-0,102	-0,819
-56,505	-200,000	-1,362	-5,110
-55,490	203,525	0,821	0,913
-54,476	800,000	5,044	11,598
-53,461	-200,000	18,011	290,341
-52,446	800,000	728,094	2225,139
-51,432	532,739	1640,358	2796,554
-50,417	108,750	1629,572	1396,619
-49,403	72,597	1282,868	958,982
-48,388	31,189	1025,819	630,041
-47,373	19,850	987,963	569,446
-46,359	18,144	976,029	556,960
-45,344	15,332	972,092	545,503
-44,330	15,579	970,506	545,397
-43,315	15,104	968,845	542,895
-42,300	15,078	967,669	542,128
-41,286	15,123	966,465	541,578
-40,271	15,094	965,640	541,001
-39,257	15,155	964,563	540,575
-38,242	15,095	964,096	540,095
-37,227	15,094	963,066	539,494
-36,213	15,085	962,226	538,972
-35,198	15,099	961,335	538,497
-34,184	15,166	960,638	538,303
-33,169	15,074	959,766	537,496
-32,154	15,097	958,844	537,033
-31,140	15,135	957,918	536,614
-30,125	15,179	957,106	536,279
-29,111	15,124	956,284	535,622
-28,096	15,111	955,679	535,220
-27,082	15,158	955,045	534,994
-26,067	15,141	954,183	534,436
-25,052	15,143	953,353	533,957
-24,038	15,122	952,765	533,539
-23,023	15,085	952,165	533,064
-22,009	15,195	951,457	532,996
-20,994	15,155	950,973	532,578
-19,979	15,090	950,351	531,999
-18,965	15,078	949,698	531,573
-17,950	15,108	949,108	531,319
-16,936	15,033	948,429	530,678
-15,921	15,129	947,614	530,506
-14,906	14,976	947,094	529,709
-13,892	15,011	946,316	529,364
-12,877	14,993	945,601	528,885
-11,863	15,021	944,937	528,582
-10,848	14,971	944,655	528,245
-9,833	15,070	944,195	528,281
-8,819	15,063	943,500	527,847
-7,804	15,009	943,009	527,381
-6,790	14,999	942,280	526,921
-5,775	15,054	941,809	526,810
-4,760	15,021	941,157	526,320
-3,746	15,035	940,447	525,948
-2,731	14,893	939,750	525,089
-1,717	14,859	939,022	524,554
-0,702	14,856	938,418	524,185
0,313	14,634	937,956	524,018
1,327	18,166	935,737	533,843
2,342	27,341	789,324	474,458
3,356	23,969	444,137	261,958
4,371	-5,617	295,305	144,629
5,386	-9,701	276,927	131,750
6,400	-11,089	271,434	127,835
7,415	-11,257	269,039	126,541
8,429	-11,189	267,635	125,933
9,444	-11,173	266,711	125,501
10,459	-11,050	266,067	125,299
11,473	-11,262	265,469	124,813
12,488	-11,376	265,013	124,485
13,502	-11,654	264,313	123,893
14,517	-11,400	263,960	123,946
15,531	-11,366	263,616	123,805
16,546	-11,226	263,105	123,679
17,561	-11,293	262,805	123,467
18,575	-11,330	262,594	123,323
19,590	-11,382	262,121	123,043
20,604	-11,299	262,027	123,062
21,619	-11,292	261,524	122,822
22,634	-11,282	261,288	122,709
23,648	-11,489	260,921	122,342
24,663	-11,533	260,707	122,190
25,677	-11,242	260,575	122,377
26,692	-11,468	260,287	122,030
27,707	-11,408	259,847	121,866
28,721	-11,360	259,495	121,733
29,736	-11,494	259,355	121,537
30,750	-11,464	259,065	121,417
31,765	-11,378	258,791	121,354
32,780	-11,487	258,731	121,219
33,794	-11,424	258,312	121,067
34,809	-11,525	258,029	120,835
35,823	-11,483	258,006	120,850
36,838	-11,534	257,785	120,691
37,853	-11,614	257,466	120,461
38,867	-11,536	257,114	120,353
39,882	-11,772	256,950	120,059
40,896	-11,532	256,589	120,090
41,911	-11,654	256,463	119,913
42,926	-11,689	256,232	119,764
43,940	-11,542	256,013	119,779
44,955	-11,567	255,630	119,568
45,969	-11,610	255,451	119,436
46,984	-11,989	255,319	119,034
47,999	-12,176	255,011	118,717
49,013	-12,313	254,695	118,440
50,028	-12,428	254,353	118,170
51,042	-12,458	254,116	118,024
52,057	-12,318	253,783	117,980
53,071	-12,240	253,654	117,977
54,086	-12,332	253,576	117,851
55,101	-12,074	253,393	117,978
56,115	-11,940	253,286	118,033
57,130	-11,445	253,188	118,405
58,144	-11,277	253,005	118,453
59,159	-11,167	252,835	118,458
60,174	-11,190	252,667	118,348
61,188	-11,376	252,445	118,074
62,203	-11,283	252,282	118,067
63,217	-11,173	252,048	118,042
64,232	-11,348	251,791	117,761
65,247	-11,458	251,474	117,507
66,261	-11,638	251,330	117,275
67,276	-11,532	250,958	117,183
68,290	-11,785	250,765	116,866
69,305	-11,834	250,460	116,671
70,320	-12,009	250,347	116,459
71,334	-11,545	250,319	116,831
72,349	-11,489	250,113	116,773
73,363	-11,114	249,861	116,964
74,378	-11,271	249,689	116,739
75,393	-11,407	249,397	116,477
76,407	-11,319	249,246	116,470
77,422	-11,507	249,125	116,244
78,436	-11,439	248,842	116,159
79,451	-11,505	248,740	116,046
80,466	-11,525	248,283	115,804
81,480	-11,595	248,019	115,613
82,495	-11,645	247,872	115,491
83,509	-11,785	247,772	115,317
84,524	-11,754	247,514	115,212
85,539	-11,846	247,346	115,047
86,553	-11,736	246,984	114,960
87,568	-11,712	246,996	114,976
88,582	-11,708	246,709	114,835
89,597	-11,764	246,603	114,728
90,611	-11,614	246,461	114,778
91,626	-11,547	246,324	114,759
92,641	-11,585	246,276	114,696
93,655	-11,631	245,932	114,486
94,670	-11,655	245,800	114,394
95,684	-11,488	245,396	114,336
96,699	-11,720	245,282	114,079
97,714	-11,713	245,103	113,991
98,728	-11,710	244,949	113,912
99,743	-11,822	244,606	113,649
100,757	-11,935	244,518	113,505
101,772	-11,718	244,264	113,557
102,787	-11,757	244,131	113,453
103,801	-11,634	243,963	113,466
104,816	-11,599	243,735	113,379
105,830	-11,423	243,577	113,440
106,845	-11,388	243,476	113,413
107,860	-11,348	243,192	113,304
108,874	-11,596	242,980	112,990
109,889	-11,642	242,841	112,877
110,903	-11,412	242,463	112,880
111,918	-11,793	242,459	112,555
112,933	-11,657	242,311	112,588
113,947	-11,638	242,171	112,529
114,962	-11,553	242,007	112,512
115,976	-11,416	241,721	112,482
116,991	-11,573	241,529	112,254
118,006	-11,580	241,533	112,240
119,020	-11,468	241,466	112,290
120,035	-11,331	241,307	112,319
121,049	-11,350	241,171	112,229
122,064	-11,450	240,897	112,011
123,079	-11,442	240,613	111,875
124,093	-11,528	240,412	111,701
125,108	-11,711	240,105	111,400
126,122	-12,060	239,898	111,010
127,137	-12,024	239,667	110,923
128,151	-12,074	239,593	110,838
129,166	-11,783	239,318	110,938
130,181	-11,777	239,137	110,847
131,195	-11,921	239,114	110,711
132,210	-11,564	238,922	110,901
133,224	-11,482	238,762	110,883
134,239	-11,644	238,603	110,668
135,254	-11,674	238,455	110,566
136,268	-11,649	238,154	110,436
137,283	-11,540	237,823	110,361
138,297	-11,899	237,612	109,964
139,312	-12,142	237,559	109,735
140,327	-11,693	237,653	110,129
141,341	-11,411	237,547	110,297
142,356	-11,341	237,370	110,261
143,370	-11,325	237,086	110,132
144,385	-11,095	236,828	110,187
145,400	-11,240	236,819	110,057
146,414	-11,102	236,587	110,050
147,429	-11,184	236,380	109,878
148,443	-11,408	236,249	109,628
149,458	-11,063	236,083	109,817
150,473	-11,399	235,967	109,485
151,487	-11,315	235,612	109,378
152,502	-11,288	235,429	109,305
153,516	-11,295	235,398	109,275
154,531	-11,204	235,172	109,232
155,546	-11,143	234,961	109,173
156,560	-11,260	234,816	109,003
157,575	-11,403	234,673	108,814
158,589	-11,311	234,502	108,798
159,604	-11,180	234,445	108,865
160,619	-10,904	234,305	109,009
161,633	-11,232	234,261	108,719
162,648	-11,153	233,910	108,609
163,662	-10,945	233,739	108,684
164,677	-11,171	233,432	108,353
165,692	-11,117	233,260	108,306
166,706	-11,229	233,399	108,273
167,721	-10,882	233,104	108,400
168,735	-11,075	233,044	108,210
169,750	-11,213	232,881	108,016
170,764	-11,240	232,814	107,954
171,779	-11,189	232,548	107,861
172,794	-11,313	232,403	107,688
173,808	-11,271	232,230	107,631
174,823	-11,819	231,841	107,012
175,837	-12,063	231,717	106,754
176,852	-11,526	231,648	107,133
177,867	-11,293	231,618	107,291
178,881	-11,274	231,601	107,289
179,896	-11,147	231,300	107,238
180,910	-11,059	231,076	107,194
181,925	-11,160	231,003	107,072
182,940	-11,113	230,742	106,978
183,954	-11,320	230,658	106,769
184,969	-11,082	230,588	106,912
185,983	-11,046	230,456	106,869
186,998	-10,953	230,123	106,777
188,013	-10,792	230,078	106,871
189,027	-10,838	229,820	106,707
190,042	-10,870	229,770	106,649
191,056	-10,766	229,612	106,647
192,071	-11,208	229,488	106,238
193,086	-11,076	229,302	106,245
194,100	-10,867	229,007	106,259
195,115	-11,462	228,655	105,628
196,129	-12,117	228,453	105,022
197,144	-7,159	230,203	109,656
198,159	-0,554	232,058	115,673
199,173	2,743	232,976	118,689
200,188	3,248	233,017	119,092
201,202	3,155	232,940	118,970
202,217	3,412	232,726	119,050
203,232	3,521	232,627	119,073
204,246	3,641	232,527	119,104
205,261	3,680	232,395	119,057
206,275	4,155	232,205	119,316
207,290	3,699	232,199	118,949
208,304	3,996	231,875	119,002
209,319	3,879	231,763	118,844
210,334	3,865	231,604	118,742
211,348	3,485	231,390	118,328
212,363	3,276	231,017	117,966
213,377	3,043	230,748	117,638
214,392	2,701	230,879	117,431
215,407	3,088	230,607	117,580
216,421	3,138	230,429	117,517
217,436	2,937	230,222	117,247
218,450	2,939	229,953	117,101
219,465	2,830	229,900	116,979
220,480	2,921	229,716	116,945
221,494	2,625	229,678	116,689
222,509	3,139	229,654	117,060
223,523	3,139	229,392	116,916
224,538	2,937	229,284	116,696
225,553	3,042	229,065	116,654
226,567	3,108	229,053	116,688
227,582	3,233	228,992	116,742
228,596	3,339	228,918	116,775
229,611	3,134	228,620	116,456
230,626	2,866	228,278	116,068
231,640	2,931	228,154	116,044
232,655	3,105	228,215	116,197
233,669	3,681	228,045	116,537
234,684	3,723	228,025	116,548
235,699	3,504	227,702	116,207
236,713	3,102	227,603	115,842
237,728	3,134	227,370	115,737
238,742	3,148	226,919	115,508
239,757	2,989	227,113	115,476
240,772	3,284	226,729	115,493
241,786	3,151	226,665	115,350
242,801	3,215	226,673	115,392
243,815	3,505	226,707	115,617
244,830	3,482	226,472	115,469
245,844	2,992	226,184	114,944
246,859	3,322	226,064	115,121
247,874	3,200	225,932	114,951
248,888	3,525	225,678	115,056
249,903	3,179	225,690	114,793
250,917	3,191	225,456	114,672
251,932	3,241	225,243	114,591
252,947	3,160	225,067	114,431
253,961	3,110	224,897	114,297
254,976	3,021	224,738	114,139
255,990	3,294	224,822	114,375
257,005	3,091	224,717	114,161
258,020	3,298	224,427	114,157
259,034	3,169	224,454	114,065
260,049	3,305	224,300	114,078
261,063	3,295	223,979	113,896
262,078	3,446	223,994	114,006
263,093	3,524	223,727	113,918
264,107	3,454	223,654	113,819
265,122	3,292	223,439	113,579
266,136	3,514	223,514	113,772
267,151	3,669	223,162	113,698
268,166	3,180	222,990	113,237
269,180	3,072	222,635	112,968
270,195	2,718	222,843	112,801
271,209	2,805	222,540	112,702
272,224	2,948	222,393	112,723
273,239	3,062	222,219	112,709
274,253	2,869	222,050	112,471
275,268	2,704	221,836	112,231
276,282	2,899	221,656	112,273
277,297	2,820	221,530	112,142
278,312	3,101	221,474	112,310
279,326	3,229	221,451	112,382
280,341	3,278	221,155	112,258
281,355	3,020	221,027	111,993
282,370	3,101	221,088	112,074
283,384	2,706	220,767	111,612
284,399	2,791	220,445	111,501
285,414	2,933	220,331	111,537
286,428	2,933	220,309	111,516
287,443	3,438	220,300	111,871
288,457	3,184	220,227	111,639
289,472	3,138	219,935	111,447
290,487	2,763	219,685	111,037
291,501	2,620	219,533	110,847
292,516	2,707	219,577	110,922
293,530	2,849	219,363	110,907
294,545	2,731	219,185	110,722
295,560	2,948	219,051	110,801
296,574	3,175	218,856	110,858
297,589	3,158	218,814	110,814
298,603	3,315	218,662	110,841
299,618	3,315	218,463	110,730
300,633	2,999	218,524	110,522
301,647	3,274	218,351	110,624
302,662	3,409	218,183	110,626
303,676	3,439	217,964	110,527
304,691	3,302	217,904	110,388
305,706	3,467	217,804	110,446
306,720	3,298	217,706	110,265
307,735	2,804	217,520	109,806
308,749	2,886	217,207	109,697
309,764	3,235	217,191	109,930
310,779	3,275	217,159	109,932
311,793	3,213	216,903	109,748
312,808	3,387	216,807	109,815
313,822	3,293	216,649	109,658
314,837	3,097	216,388	109,375
315,852	3,024	216,254	109,246
316,866	3,101	216,240	109,284
317,881	3,145	216,090	109,230
318,895	3,291	215,925	109,242
319,910	3,185	215,649	109,016
320,925	2,786	215,594	108,695
321,939	2,750	215,437	108,580
322,954	2,747	215,299	108,499
323,968	2,916	215,229	108,574
324,983	3,359	215,144	108,836
325,997	3,249	214,964	108,657
327,012	2,925	214,898	108,385
328,027	3,140	214,733	108,444
329,041	3,567	214,717	108,729
330,056	3,322	214,528	108,450
331,070	3,043	214,285	108,120
332,085	2,529	214,032	107,620
333,100	2,810	213,898	107,740
334,114	3,321	213,850	108,068
335,129	2,966	213,932	107,849
336,143	3,359	213,504	107,901
337,158	3,176	213,438	107,729
338,173	3,322	213,268	107,736
339,187	3,081	213,145	107,495
340,202	2,566	213,017	107,059
341,216	2,745	212,759	107,045
342,231	2,849	212,738	107,098
343,246	2,605	212,628	106,862
344,260	2,916	212,506	107,009
345,275	3,148	212,448	107,133
346,289	3,323	212,297	107,169
347,304	3,187	212,111	106,971
348,319	3,005	212,051	106,804
349,333	3,094	211,824	106,743
350,348	3,109	211,792	106,727
351,362	3,357	211,609	106,798
352,377	3,131	211,538	106,595
353,392	3,197	211,363	106,543
354,406	3,248	211,282	106,529
355,421	195,289	1339,345	1415,842
356,435	155,985	1476,747	1415,802
