DTS Sentinel unit serial number:	SN410029Multiplexer serial number:	ORYXHardware model number:	OX2-SRSoftware version number:	ORYX F/W v4,00 Oryx Data Collector v3.7.2.0data status	okinstallation	B6 Nyhavnadifferential loss correction	single-endedforward channel	channel 2reverse channel	N/Adate	2023/12/10time	21:45:08forward acquisition time	300,00reverse acquisition time	0,00gamma	499,1914k internal	0,3122k external	0,3122temperature offset calibration	1,0000default loss term (dB/km)	0,3820temperature slope calibration	1,0000multiplexer offset coefficient	1,0000multiplexer slope coefficient	1,0000fibre end	0,00T internal ref (°C)	22,30T ext. ref 1 (°C)	6,07T ext. ref 2 (°C)	6,07length (m)	temperature (°C)	Stokes	anti-Stokes-744,400	-200,000	-0,002	0,077
-743,385	-3,716	-0,159	0,082
-742,371	-138,254	-0,123	0,010
-741,356	112,426	-0,225	0,203
-740,342	84,869	0,129	0,106
-739,327	164,679	-0,264	0,278
-738,312	38,028	0,125	-0,083
-737,298	-170,849	-0,389	-0,010
-736,283	800,000	0,055	-0,145
-735,269	57,439	-0,218	0,159
-734,254	249,931	-0,044	0,055
-733,239	-106,159	-0,288	-0,048
-732,225	-54,221	0,135	0,045
-731,210	195,577	-0,070	0,080
-730,196	800,000	0,028	-0,073
-729,181	676,389	-0,039	-0,075
-728,167	-200,000	0,008	-0,086
-727,152	229,593	-0,027	-0,033
-726,137	655,706	-0,090	-0,172
-725,123	171,265	-0,038	0,041
-724,108	-200,000	0,004	-0,104
-723,094	72,141	-0,110	-0,085
-722,079	-200,000	0,007	-0,080
-721,064	-42,661	-0,023	0,009
-720,050	-166,966	-0,081	-0,002
-719,035	-200,000	0,006	-0,042
-718,021	800,000	-0,009	-0,025
-717,006	110,783	-0,049	-0,044
-715,991	4,937	-0,177	-0,097
-714,977	314,152	-0,038	-0,053
-713,962	241,994	0,021	-0,026
-712,948	732,891	-0,018	-0,035
-711,933	135,367	0,038	0,037
-710,918	-15,866	-0,063	0,030
-709,904	-17,983	-0,139	-0,065
-708,889	-111,022	-0,045	0,007
-707,875	800,000	-0,042	-0,118
-706,860	7,029	-0,059	-0,033
-705,845	-54,569	-0,039	0,013
-704,831	-33,534	-0,034	-0,014
-703,816	793,265	-0,084	-0,173
-702,802	-200,000	0,027	-0,090
-701,787	-200,000	-0,011	-0,168
-700,772	800,000	-0,046	-0,137
-699,758	-200,000	0,029	0,133
-698,743	-200,000	0,027	0,121
-697,729	62,061	-0,048	-0,036
-696,714	70,502	0,033	0,025
-695,699	-200,000	-0,014	0,052
-694,685	-200,000	-0,011	-0,143
-693,670	153,507	-0,054	-0,055
-692,656	800,000	0,037	0,091
-691,641	104,200	-0,013	-0,011
-690,627	-86,021	-0,081	-0,019
-689,612	133,410	0,060	-0,057
-688,597	52,693	-0,153	-0,108
-687,583	-200,000	-0,048	-0,228
-686,568	-84,756	0,139	0,032
-685,554	800,000	-0,083	-0,243
-684,539	-200,000	0,006	-0,030
-683,524	82,096	0,077	-0,062
-682,510	17,522	-0,027	-0,016
-681,495	-87,954	0,066	-0,015
-680,481	-200,000	-0,024	-0,138
-679,466	800,000	-0,027	0,079
-678,451	-73,338	-0,110	-0,030
-677,437	339,567	-0,037	-0,054
-676,422	-140,557	-0,027	0,002
-675,408	417,942	0,137	-0,218
-674,393	299,471	0,029	0,040
-673,378	117,272	-0,035	-0,032
-672,364	-200,000	-0,037	-0,122
-671,349	154,552	-0,059	-0,061
-670,335	-200,000	-0,003	-0,029
-669,320	800,000	0,017	0,054
-668,305	719,871	-0,006	0,011
-667,291	80,713	-0,092	-0,074
-666,276	800,000	0,020	-0,044
-665,262	800,000	-0,020	-0,043
-664,247	75,701	-0,051	0,040
-663,232	53,458	-0,098	-0,070
-662,218	648,606	0,081	-0,155
-661,203	784,429	0,055	-0,112
-660,189	-200,000	0,013	-0,083
-659,174	800,000	-0,014	-0,036
-658,159	124,462	0,003	0,003
-657,145	5,642	0,052	0,028
-656,130	-86,453	0,208	0,047
-655,116	17,399	-0,061	-0,036
-654,101	-200,000	0,027	0,091
-653,086	-123,286	0,009	-0,001
-652,072	80,953	-0,029	0,023
-651,057	-9,529	-0,170	0,084
-650,043	-37,338	0,145	-0,057
-649,028	800,000	-0,092	-0,224
-648,014	-169,467	0,053	0,001
-646,999	-115,223	0,018	-0,003
-645,984	800,000	-0,027	0,065
-644,970	609,838	0,043	-0,080
-643,955	-69,706	-0,108	-0,030
-642,941	79,380	0,070	-0,056
-641,926	-18,597	-0,080	0,037
-640,911	-193,141	0,178	-0,001
-639,897	-200,000	-0,025	0,104
-638,882	-58,281	0,053	0,017
-637,868	537,653	-0,021	-0,037
-636,853	-59,966	0,055	-0,017
-635,838	-200,000	-0,019	0,063
-634,824	-31,777	0,049	-0,020
-633,809	-178,009	0,100	0,002
-632,795	800,000	0,016	0,038
-631,780	800,000	0,026	-0,068
-630,765	-200,000	0,009	-0,087
-629,751	-200,000	0,007	-0,042
-628,736	800,000	-0,041	0,095
-627,722	-200,000	0,044	-0,178
-626,707	196,485	0,088	-0,100
-625,692	570,804	0,049	0,089
-624,678	800,000	0,041	0,110
-623,663	-200,000	-0,018	-0,081
-622,649	-12,474	-0,183	-0,088
-621,634	-131,150	-0,117	-0,011
-620,619	-200,000	-0,027	-0,114
-619,605	188,737	0,018	-0,020
-618,590	-200,000	-0,022	0,098
-617,576	311,833	0,031	0,044
-616,561	-41,847	-0,186	0,071
-615,546	800,000	-0,037	0,117
-614,532	211,562	-0,019	-0,022
-613,517	-200,000	-0,008	-0,123
-612,503	-30,267	-0,067	-0,028
-611,488	698,515	0,049	0,095
-610,474	-200,000	0,012	0,117
-609,459	-18,999	-0,064	-0,029
-608,444	-200,000	-0,005	-0,101
-607,430	-200,000	-0,014	-0,069
-606,415	12,079	-0,059	-0,034
-605,401	-200,000	-0,006	0,080
-604,386	-29,024	-0,068	0,029
-603,371	202,433	-0,142	0,163
-602,357	250,573	-0,028	0,036
-601,342	-108,648	-0,174	-0,027
-600,328	-200,000	0,002	-0,032
-599,313	-200,000	-0,018	-0,139
-598,298	-200,000	0,001	-0,070
-597,284	91,167	0,034	0,029
-596,269	465,301	0,071	0,118
-595,255	800,000	0,038	-0,079
-594,240	62,863	-0,088	0,065
-593,225	-200,000	0,013	-0,063
-592,211	-200,000	0,010	-0,080
-591,196	-128,705	-0,089	-0,009
-590,182	4,621	0,050	0,027
-589,167	-144,330	0,081	0,006
-588,152	-24,742	-0,155	-0,068
-587,138	35,454	0,052	0,034
-586,123	77,520	-0,043	-0,034
-585,109	800,000	-0,077	-0,226
-584,094	22,400	-0,071	-0,043
-583,079	-200,000	0,006	-0,045
-582,065	-200,000	0,004	-0,021
-581,050	-107,529	-0,043	0,007
-580,036	249,087	-0,077	0,097
-579,021	-165,499	-0,092	0,003
-578,006	241,222	0,093	0,116
-576,992	382,801	0,095	-0,145
-575,977	106,776	-0,038	-0,033
-574,963	-200,000	-0,002	-0,023
-573,948	384,847	-0,065	0,100
-572,934	800,000	-0,005	-0,014
-571,919	613,470	0,097	-0,181
-570,904	236,494	0,027	0,033
-569,890	800,000	-0,012	0,035
-568,875	396,527	0,030	0,047
-567,861	32,823	0,079	0,051
-566,846	115,735	-0,026	0,023
-565,831	800,000	-0,027	0,077
-564,817	-200,000	0,056	-0,200
-563,802	660,380	-0,063	0,121
-562,788	456,682	-0,070	-0,116
-561,773	-2,500	-0,075	-0,039
-560,758	-200,000	-0,026	-0,091
-559,744	85,950	0,090	-0,073
-558,729	-173,798	0,065	0,001
-557,715	-86,350	-0,090	0,020
-556,700	110,559	-0,140	-0,125
-555,685	-93,461	0,023	-0,005
-554,671	0,482	-0,059	-0,031
-553,656	563,559	0,079	0,142
-552,642	-149,696	0,055	-0,003
-551,627	-52,777	0,137	-0,046
-550,612	800,000	-0,035	0,077
-549,598	800,000	-0,029	0,066
-548,583	704,874	0,034	0,067
-547,569	-200,000	0,030	-0,103
-546,554	-35,075	0,063	-0,025
-545,539	362,407	0,015	-0,023
-544,525	-200,000	-0,010	0,091
-543,510	67,458	-0,071	-0,053
-542,496	800,000	-0,041	-0,124
-541,481	800,000	0,025	-0,055
-540,466	-200,000	-0,008	0,134
-539,452	800,000	0,021	0,058
-538,437	3,165	0,016	-0,008
-537,423	171,835	0,046	-0,049
-536,408	24,912	0,050	-0,031
-535,393	642,550	-0,059	0,112
-534,379	203,749	0,047	0,054
-533,364	800,000	-0,067	-0,182
-532,350	361,457	0,028	-0,042
-531,335	800,000	-0,038	-0,114
-530,321	-200,000	0,004	-0,080
-529,306	-170,309	0,074	-0,002
-528,291	800,000	0,023	0,063
-527,277	-200,000	-0,001	0,076
-526,262	209,831	-0,051	0,060
-525,248	4,552	0,126	0,068
-524,233	-23,376	0,042	-0,018
-523,218	800,000	-0,026	0,058
-522,204	0,473	0,037	0,020
-521,189	87,316	-0,108	-0,088
-520,175	-64,843	-0,044	-0,013
-519,160	-200,000	0,032	-0,157
-518,145	83,215	-0,034	0,028
-517,131	120,521	0,068	0,063
-516,116	800,000	-0,031	0,086
-515,102	800,000	-0,044	0,098
-514,087	-23,005	0,010	0,005
-513,072	140,707	0,105	-0,103
-512,058	197,320	-0,043	-0,049
-511,043	-62,649	-0,095	-0,029
-510,029	800,000	0,023	-0,068
-509,014	12,981	-0,093	0,053
-507,999	-200,000	-0,008	0,078
-506,985	67,525	-0,042	-0,031
-505,970	8,142	0,053	0,029
-504,956	58,088	-0,050	0,036
-503,941	-110,867	0,051	0,008
-502,926	179,145	0,033	0,036
-501,912	29,979	-0,020	0,013
-500,897	124,740	-0,048	-0,045
-499,883	-11,901	0,054	-0,026
-498,868	227,918	-0,030	0,036
-497,853	55,757	-0,083	-0,060
-496,839	800,000	-0,022	0,063
-495,824	-200,000	-0,039	0,159
-494,810	318,579	-0,083	0,116
-493,795	116,726	0,057	0,052
-492,781	-200,000	0,018	-0,138
-491,766	-200,000	-0,020	-0,146
-490,751	393,377	0,021	0,032
-489,737	306,412	-0,029	-0,040
-488,722	172,335	0,050	0,053
-487,708	572,226	0,019	0,034
-486,693	-102,360	0,024	0,004
-485,678	49,468	0,031	-0,021
-484,664	213,736	-0,103	-0,121
-483,649	-200,000	-0,003	0,010
-482,635	31,618	-0,044	-0,028
-481,620	-64,003	-0,054	0,016
-480,605	-167,802	0,142	0,004
-479,591	126,392	0,068	0,064
-478,576	-200,000	-0,016	0,056
-477,562	146,534	0,073	0,073
-476,547	16,856	-0,143	0,084
-475,532	557,697	0,019	0,034
-474,518	332,847	0,019	-0,027
-473,503	48,309	0,049	0,033
-472,489	-33,740	-0,067	0,027
-471,474	-186,948	-0,055	-0,001
-470,459	-200,000	0,013	0,051
-469,445	-200,000	0,008	0,039
-468,430	800,000	-0,045	0,125
-467,416	67,757	0,097	0,073
-466,401	-200,000	0,001	0,068
-465,386	-200,000	-0,025	-0,109
-464,372	-1,438	-0,068	-0,035
-463,357	800,000	0,038	0,088
-462,343	-200,000	0,006	-0,147
-461,328	-185,326	0,117	-0,001
-460,313	399,058	0,060	0,093
-459,299	-134,535	0,042	0,004
-458,284	-200,000	0,071	0,241
-457,270	-200,000	-0,012	-0,116
-456,255	-27,807	0,083	-0,035
-455,241	120,083	-0,170	-0,155
-454,226	-200,000	-0,007	-0,080
-453,211	800,000	-0,004	0,012
-452,197	-128,895	-0,062	-0,006
-451,182	63,135	-0,042	0,031
-450,168	-200,000	-0,000	0,066
-449,153	800,000	0,043	-0,103
-448,138	28,715	-0,106	0,066
-447,124	-69,029	0,132	0,037
-446,109	33,896	-0,068	0,043
-445,095	317,964	-0,058	-0,082
-444,080	588,420	-0,055	0,100
-443,065	90,234	0,027	0,022
-442,051	-21,418	0,111	-0,050
-441,036	142,851	-0,039	-0,039
-440,022	-200,000	-0,013	-0,046
-439,007	151,728	-0,085	-0,085
-437,992	235,100	-0,067	0,082
-436,978	-109,940	0,183	0,028
-435,963	-200,000	-0,011	0,065
-434,949	21,915	-0,028	0,017
-433,934	-200,000	-0,018	-0,130
-432,919	-42,629	-0,049	0,018
-431,905	800,000	0,049	-0,108
-430,890	-58,135	-0,180	0,057
-429,876	-106,185	-0,115	0,019
-428,861	32,678	0,179	0,114
-427,846	277,135	0,011	0,014
-426,832	-58,821	-0,035	0,011
-425,817	-200,000	0,013	-0,072
-424,803	91,732	0,039	-0,032
-423,788	-200,000	-0,031	0,114
-422,773	-200,000	-0,016	0,176
-421,759	113,205	0,049	0,044
-420,744	-200,000	-0,024	-0,159
-419,730	271,699	-0,083	-0,107
-418,715	800,000	-0,029	0,094
-417,701	-81,585	0,126	0,030
-416,686	800,000	0,021	0,044
-415,671	-200,000	-0,003	0,010
-414,657	97,299	-0,070	0,059
-413,642	296,319	-0,109	-0,147
-412,628	-24,945	0,085	0,037
-411,613	-200,000	-0,014	-0,064
-410,598	235,466	0,023	-0,029
-409,584	-9,491	0,062	-0,030
-408,569	32,285	-0,059	-0,037
-407,555	306,262	0,047	-0,064
-406,540	800,000	-0,025	-0,058
-405,525	456,705	-0,023	-0,038
-404,511	-29,224	0,073	0,031
-403,496	-142,640	-0,116	0,008
-402,482	60,980	-0,075	-0,055
-401,467	-200,000	-0,072	-0,305
-400,452	460,828	-0,035	0,058
-399,438	197,158	-0,030	0,033
-398,423	-153,330	-0,101	0,005
-397,409	-200,000	0,123	0,000
-396,394	271,201	0,020	0,026
-395,379	368,662	0,042	0,063
-394,365	20,495	0,121	-0,072
-393,350	-5,579	0,072	0,036
-392,336	-200,000	-0,018	0,075
-391,321	-78,895	0,067	0,017
-390,306	179,769	-0,064	0,069
-389,292	-200,000	0,020	-0,083
-388,277	21,580	0,055	0,033
-387,263	695,758	0,082	0,160
-386,248	58,311	0,064	0,046
-385,233	-0,728	0,166	-0,086
-384,219	-200,000	-0,004	0,030
-383,204	-116,701	0,051	-0,007
-382,190	-200,000	0,033	-0,111
-381,175	-37,960	0,144	-0,056
-380,160	147,660	0,092	0,092
-379,146	371,576	-0,042	0,063
-378,131	-91,617	-0,050	0,010
-377,117	800,000	-0,051	0,104
-376,102	-9,952	0,015	-0,007
-375,088	107,900	0,025	0,022
-374,073	80,586	-0,104	-0,082
-373,058	-200,000	0,015	-0,166
-372,044	-200,000	0,011	-0,097
-371,029	-200,000	-0,013	0,083
-370,015	76,601	0,089	0,069
-369,000	178,342	-0,054	-0,058
-367,985	224,662	-0,099	0,117
-366,971	-4,506	-0,039	0,020
-365,956	443,750	0,045	0,073
-364,942	598,256	0,036	0,066
-363,927	118,039	-0,097	-0,088
-362,912	-117,848	-0,053	-0,007
-361,898	-83,111	-0,171	-0,040
-360,883	87,480	-0,092	0,074
-359,869	760,455	-0,037	0,075
-358,854	-200,000	-0,004	0,058
-357,839	125,299	0,085	0,078
-356,825	-156,542	0,131	-0,006
-355,810	-140,492	-0,110	-0,008
-354,796	-56,253	0,122	-0,040
-353,781	108,879	-0,046	0,041
-352,766	3,115	0,152	-0,081
-351,752	-19,961	-0,072	0,032
-350,737	-113,479	0,080	0,011
-349,723	-39,900	-0,061	0,023
-348,708	800,000	-0,037	0,075
-347,693	-200,000	0,021	0,068
-346,679	204,681	-0,095	-0,109
-345,664	-123,300	-0,036	0,004
-344,650	29,373	0,120	0,075
-343,635	-102,544	-0,116	0,020
-342,620	800,000	-0,036	0,082
-341,606	136,993	0,031	-0,030
-340,591	146,856	-0,102	-0,101
-339,577	210,490	-0,089	0,102
-338,562	-186,730	-0,112	0,001
-337,548	800,000	0,044	0,107
-336,533	-7,394	-0,129	-0,064
-335,518	800,000	0,035	-0,074
-334,504	131,702	-0,087	0,082
-333,489	239,273	-0,063	0,077
-332,475	93,090	0,093	-0,077
-331,460	-50,653	-0,052	-0,018
-330,445	-89,859	0,021	-0,004
-329,431	12,961	0,133	-0,075
-328,416	-200,000	-0,001	0,098
-327,402	-76,936	-0,079	-0,020
-326,387	277,458	0,057	-0,074
-325,372	486,836	-0,067	-0,113
-324,358	382,069	0,078	-0,118
-323,343	-150,604	-0,092	0,005
-322,329	-200,000	-0,011	0,074
-321,314	-10,658	0,117	0,056
-320,299	94,940	-0,133	0,111
-319,285	-200,000	0,003	-0,014
-318,270	-200,000	0,007	0,030
-317,256	225,901	-0,090	-0,108
-316,241	-200,000	-0,014	0,054
-315,226	800,000	0,049	-0,133
-314,212	-115,695	0,090	-0,012
-313,197	-37,886	0,096	-0,037
-312,183	-200,000	-0,002	-0,095
-311,168	78,459	0,026	0,020
-310,153	36,111	-0,096	0,062
-309,139	800,000	0,019	0,055
-308,124	-200,000	0,023	-0,079
-307,110	528,424	0,020	-0,035
-306,095	-126,420	0,081	-0,009
-305,080	-180,394	0,181	0,003
-304,066	169,016	-0,086	-0,090
-303,051	-94,902	-0,098	-0,019
-302,037	135,641	-0,062	0,059
-301,022	800,000	0,036	-0,093
-300,008	-87,103	0,042	-0,009
-298,993	112,494	0,076	0,067
-297,978	92,622	0,020	-0,016
-296,964	85,775	-0,069	0,056
-295,949	-200,000	-0,012	-0,122
-294,935	-200,000	-0,004	0,018
-293,920	200,587	-0,030	-0,033
-292,905	1,006	0,186	0,097
-291,891	-55,503	0,081	-0,027
-290,876	179,090	0,142	0,152
-289,862	-36,436	0,057	0,022
-288,847	-99,620	-0,121	0,022
-287,832	-30,537	0,009	0,004
-286,818	-200,000	0,008	-0,044
-285,803	130,894	-0,092	-0,086
-284,789	-200,000	0,004	0,041
-283,774	379,369	0,033	0,049
-282,759	-44,389	0,053	-0,019
-281,745	2,779	-0,078	-0,041
-280,730	-69,745	-0,112	-0,031
-279,716	17,113	-0,070	-0,041
-278,701	194,745	0,045	0,050
-277,686	173,009	-0,038	-0,041
-276,672	-200,000	-0,011	0,067
-275,657	18,634	0,031	0,018
-274,643	-100,324	-0,093	0,017
-273,628	7,884	-0,038	-0,021
-272,613	-200,000	0,028	-0,096
-271,599	-200,000	0,008	0,047
-270,584	-41,022	0,101	-0,038
-269,570	-15,771	0,016	-0,007
-268,555	103,219	0,074	0,064
-267,540	145,462	-0,056	0,055
-266,526	38,801	0,008	-0,005
-265,511	-200,000	-0,018	-0,059
-264,497	641,541	0,017	0,032
-263,482	-126,191	0,115	0,012
-262,467	77,082	-0,066	0,052
-261,453	-200,000	-0,002	0,038
-260,438	522,437	0,084	-0,145
-259,424	-200,000	0,010	-0,081
-258,409	450,432	-0,087	-0,142
-257,395	96,041	0,068	-0,056
-256,380	-40,303	0,093	-0,035
-255,365	302,948	0,045	0,061
-254,351	-58,971	-0,053	-0,017
-253,336	800,000	-0,026	-0,054
-252,322	658,474	0,012	0,023
-251,307	230,043	0,097	-0,117
-250,292	156,222	-0,041	0,041
-249,278	-16,818	0,029	0,014
-248,263	-103,407	0,080	0,014
-247,249	77,159	0,054	0,042
-246,234	-200,000	0,010	-0,086
-245,219	-118,793	-0,061	0,008
-244,205	202,723	0,084	-0,096
-243,190	-169,417	0,101	-0,003
-242,176	-94,070	0,153	0,030
-241,161	46,785	-0,073	0,049
-240,146	800,000	-0,007	-0,021
-239,132	-6,582	0,146	0,073
-238,117	-81,520	-0,138	0,033
-237,103	-200,000	0,019	0,098
-236,088	1,166	-0,114	0,060
-235,073	-24,328	0,166	-0,072
-234,059	294,776	0,024	0,032
-233,044	39,036	0,046	0,030
-232,030	158,281	0,077	0,078
-231,015	-116,398	-0,049	0,007
-230,000	428,148	0,020	-0,031
-228,986	157,757	0,085	-0,086
-227,971	73,706	0,047	0,036
-226,957	-36,544	0,042	-0,016
-225,942	6,519	0,023	-0,012
-224,927	-132,743	-0,073	-0,007
-223,913	-200,000	-0,010	-0,039
-222,898	800,000	0,039	0,111
-221,884	239,314	0,065	0,079
-220,869	-131,924	-0,069	-0,007
-219,855	768,952	0,012	-0,023
-218,840	-200,000	0,004	0,025
-217,825	-200,000	0,017	0,091
-216,811	133,428	-0,045	0,043
-215,796	-200,000	0,006	-0,073
-214,782	-76,753	-0,120	0,030
-213,767	-101,081	0,073	-0,013
-212,752	12,683	-0,091	-0,051
-211,738	79,877	0,047	0,037
-210,723	421,905	-0,031	0,049
-209,709	-200,000	0,012	-0,058
-208,694	-155,966	-0,089	-0,004
-207,679	131,709	0,017	0,016
-206,665	-53,673	0,176	-0,058
-205,650	-22,011	0,334	-0,148
-204,636	470,151	0,046	0,076
-203,621	-120,945	-0,149	0,018
-202,606	50,311	0,065	-0,045
-201,592	800,000	0,010	-0,029
-200,577	-200,000	0,002	-0,028
-199,563	29,975	0,090	0,056
-198,548	-200,000	-0,014	0,064
-197,533	800,000	-0,032	0,084
-196,519	-200,000	-0,029	0,100
-195,504	800,000	-0,018	0,047
-194,490	-148,271	-0,076	0,004
-193,475	138,577	-0,131	-0,125
-192,460	-200,000	0,014	0,107
-191,446	244,241	0,062	0,076
-190,431	-184,223	0,097	-0,001
-189,417	-81,879	-0,232	-0,055
-188,402	800,000	0,037	-0,097
-187,387	-117,345	0,050	-0,007
-186,373	204,541	-0,073	0,083
-185,358	-121,514	0,122	-0,015
-184,344	-16,670	0,059	0,027
-183,329	-200,000	-0,028	0,126
-182,315	179,321	0,117	-0,125
-181,300	120,979	0,031	-0,028
-180,285	-15,192	-0,080	0,037
-179,271	206,368	0,037	-0,042
-178,256	-69,281	-0,073	-0,020
-177,242	-200,000	0,017	-0,074
-176,227	196,882	0,081	0,090
-175,212	-200,000	-0,001	0,092
-174,198	318,941	0,045	-0,062
-173,183	327,900	-0,045	0,063
-172,169	782,454	-0,056	0,113
-171,154	800,000	0,026	-0,057
-170,139	-178,727	-0,083	-0,001
-169,125	-198,973	0,140	0,001
-168,110	210,156	0,037	0,042
-167,096	-200,000	-0,020	0,077
-166,081	51,149	0,154	-0,106
-165,066	-107,924	-0,250	-0,039
-164,052	-12,714	0,064	0,030
-163,037	42,765	0,049	0,033
-162,023	800,000	0,081	0,183
-161,008	-20,645	0,103	0,046
-159,993	125,804	-0,040	-0,036
-158,979	30,388	-0,098	0,061
-157,964	-127,088	0,089	-0,009
-156,950	800,000	0,050	-0,139
-155,935	-7,818	-0,142	0,070
-154,920	-39,207	-0,117	0,045
-153,906	-84,677	-0,167	0,038
-152,891	-79,612	-0,099	-0,024
-151,877	-200,000	-0,023	-0,125
-150,862	-200,000	-0,022	-0,077
-149,847	-200,000	0,008	-0,057
-148,833	-200,000	-0,018	-0,068
-147,818	68,560	-0,120	-0,090
-146,804	158,280	-0,093	0,094
-145,789	-200,000	-0,012	0,047
-144,775	-110,944	0,063	-0,009
-143,760	-97,320	-0,085	-0,016
-142,745	577,763	-0,030	0,055
-141,731	-200,000	-0,010	-0,055
-140,716	-200,000	0,049	-0,185
-139,702	-200,000	0,011	-0,075
-138,687	-200,000	-0,023	0,087
-137,672	106,648	-0,116	-0,101
-136,658	151,307	-0,043	-0,043
-135,643	391,973	-0,105	-0,159
-134,629	-200,000	-0,002	0,027
-133,614	-75,627	-0,090	-0,023
-132,599	800,000	0,033	0,083
-131,585	47,221	0,191	-0,129
-130,570	-12,831	-0,061	0,029
-129,556	-200,000	-0,009	-0,210
-128,541	532,558	-0,060	0,104
-127,526	800,000	0,041	-0,096
-126,512	47,082	0,153	-0,103
-125,497	-200,000	0,007	-0,133
-124,483	800,000	0,027	0,071
-123,468	-122,599	-0,063	-0,007
-122,453	800,000	-0,060	-0,144
-121,439	-200,000	-0,015	-0,103
-120,424	-108,049	-0,097	0,015
-119,410	63,738	0,100	0,073
-118,395	-101,869	-0,075	0,013
-117,380	55,563	0,097	0,068
-116,366	800,000	0,014	0,031
-115,351	-47,936	-0,058	0,020
-114,337	-186,337	-0,095	-0,001
-113,322	-200,000	0,022	-0,132
-112,307	281,829	-0,051	-0,067
-111,293	442,907	0,012	-0,020
-110,278	127,208	-0,073	-0,068
-109,264	-61,949	-0,080	0,024
-108,249	-99,715	0,060	0,011
-107,234	800,000	-0,039	-0,095
-106,220	99,597	-0,051	0,043
-105,205	418,529	0,080	0,124
-104,191	545,599	0,041	0,072
-103,176	-200,000	-0,018	0,143
-102,162	800,000	-0,032	-0,067
-101,147	800,000	0,016	-0,042
-100,132	126,830	-0,014	0,013
-99,118	-7,122	-0,042	-0,020
-98,103	223,310	-0,017	0,020
-97,089	-200,000	0,000	0,035
-96,074	329,784	0,074	0,104
-95,059	-200,000	-0,003	0,027
-94,045	631,721	0,053	0,098
-93,030	800,000	0,014	-0,033
-92,016	-200,000	0,001	0,049
-91,001	-200,000	0,000	0,042
-89,986	-200,000	0,002	0,012
-88,972	8,876	0,033	0,018
-87,957	800,000	-0,026	-0,064
-86,943	-0,989	0,149	-0,077
-85,928	67,353	-0,087	0,064
-84,913	-128,667	-0,112	0,011
-83,899	-1,032	-0,046	0,024
-82,884	-200,000	0,012	0,076
-81,870	145,533	-0,038	0,037
-80,855	-200,000	-0,002	-0,087
-79,840	-200,000	0,003	-0,101
-78,826	-128,110	-0,060	0,006
-77,811	-200,000	0,005	0,036
-76,797	406,505	0,046	0,070
-75,782	-200,000	-0,012	0,077
-74,767	-130,006	0,056	-0,005
-73,753	230,376	0,031	-0,037
-72,738	800,000	0,036	-0,075
-71,724	122,082	0,107	-0,097
-70,709	46,505	-0,025	0,017
-69,694	201,664	-0,066	-0,074
-68,680	-118,988	-0,134	0,017
-67,665	-143,466	0,049	0,003
-66,651	11,338	0,122	0,068
-65,636	319,460	-0,127	0,176
-64,622	-88,318	0,184	-0,040
-63,607	281,047	0,061	-0,079
-62,592	101,062	0,048	-0,040
-61,578	300,114	0,044	0,059
-60,563	475,426	-0,026	0,043
-59,549	50,818	0,038	-0,026
-58,534	-122,072	-1,367	-0,161
-57,519	605,675	-0,784	-1,424
-56,505	-200,000	-0,908	-4,367
-55,490	38,839	0,490	-0,317
-54,476	800,000	5,026	11,938
-53,461	-200,000	13,729	253,373
-52,446	-200,000	690,514	2257,167
-51,432	589,647	1622,576	2914,922
-50,417	118,900	1634,787	1466,078
-49,403	73,099	1288,613	976,459
-48,388	37,948	1024,100	659,341
-47,373	24,271	981,760	587,097
-46,359	23,478	971,532	578,355
-45,344	22,502	967,045	572,472
-44,330	22,529	965,597	571,680
-43,315	22,361	964,235	570,305
-42,300	22,344	963,194	569,610
-41,286	22,321	962,293	568,981
-40,271	22,313	961,242	568,311
-39,257	22,340	960,344	567,845
-38,242	22,293	959,415	567,120
-37,227	22,318	958,454	566,612
-36,213	22,240	957,836	565,972
-35,198	22,234	957,007	565,439
-34,184	22,264	956,331	565,114
-33,169	22,277	955,371	564,567
-32,154	22,328	954,390	564,127
-31,140	22,363	953,437	563,657
-30,125	22,384	952,746	563,292
-29,111	22,348	951,866	562,634
-28,096	22,344	951,135	562,168
-27,082	22,361	950,641	561,907
-26,067	22,388	949,673	561,400
-25,052	22,332	948,988	560,791
-24,038	22,317	948,505	560,436
-23,023	22,319	947,944	560,090
-22,009	22,404	947,096	559,839
-20,994	22,360	946,689	559,434
-19,979	22,366	945,843	558,931
-18,965	22,363	945,152	558,491
-17,950	22,350	944,678	558,148
-16,936	22,296	944,061	557,589
-15,921	22,313	943,184	557,103
-14,906	22,254	942,526	556,504
-13,892	22,219	941,980	556,049
-12,877	22,185	941,397	555,575
-11,863	22,235	940,699	555,299
-10,848	22,199	940,005	554,754
-9,833	22,332	939,619	554,926
-8,819	22,305	938,942	554,419
-7,804	22,271	938,258	553,883
-6,790	22,248	937,724	553,474
-5,775	22,207	937,194	553,010
-4,760	22,296	936,319	552,753
-3,746	22,216	935,930	552,249
-2,731	22,153	935,070	551,520
-1,717	22,015	934,580	550,773
-0,702	22,043	933,879	550,427
0,313	21,894	933,159	550,365
1,327	24,996	931,197	558,911
2,342	34,766	796,002	503,789
3,356	32,821	451,746	282,952
4,371	1,749	294,053	153,151
5,386	-2,668	275,151	139,106
6,400	-4,293	269,193	134,572
7,415	-4,772	266,743	132,895
8,429	-4,446	265,610	132,618
9,444	-4,276	264,513	132,212
10,459	-4,356	263,935	131,840
11,473	-4,591	263,393	131,343
12,488	-4,544	262,869	131,113
13,502	-4,726	262,307	130,657
14,517	-4,762	261,948	130,434
15,531	-4,641	261,574	130,345
16,546	-4,741	261,165	130,039
17,561	-4,567	260,793	129,998
18,575	-4,429	260,487	129,958
19,590	-4,691	260,199	129,568
20,604	-4,644	260,087	129,543
21,619	-4,763	259,680	129,222
22,634	-4,716	259,141	128,985
23,648	-4,683	258,949	128,906
24,663	-4,790	258,563	128,608
25,677	-4,757	258,453	128,571
26,692	-4,834	258,107	128,318
27,707	-4,754	257,910	128,281
28,721	-4,800	257,696	128,122
29,736	-4,891	257,388	127,877
30,750	-4,796	257,128	127,820
31,765	-4,787	257,007	127,756
32,780	-4,741	256,592	127,579
33,794	-4,737	256,400	127,476
34,809	-4,816	256,274	127,332
35,823	-4,750	255,895	127,191
36,838	-4,831	255,686	127,004
37,853	-4,913	255,492	126,825
38,867	-4,700	255,250	126,881
39,882	-4,807	255,117	126,709
40,896	-4,803	254,752	126,520
41,911	-4,902	254,667	126,380
42,926	-4,927	254,327	126,178
43,940	-4,935	254,166	126,080
44,955	-4,953	253,948	125,945
45,969	-4,992	253,595	125,724
46,984	-5,124	253,456	125,529
47,999	-5,416	253,126	125,100
49,013	-5,445	252,733	124,870
50,028	-5,671	252,769	124,680
51,042	-5,631	252,366	124,505
52,057	-5,588	252,116	124,407
53,071	-5,566	252,002	124,359
54,086	-5,643	251,844	124,203
55,101	-5,558	251,670	124,180
56,115	-5,150	251,462	124,419
57,130	-4,830	251,500	124,703
58,144	-4,326	251,275	125,016
59,159	-4,775	251,073	124,517
60,174	-4,706	250,839	124,449
61,188	-4,673	250,676	124,386
62,203	-4,594	250,468	124,339
63,217	-4,716	250,178	124,080
64,232	-4,756	250,049	123,970
65,247	-4,731	249,844	123,879
66,261	-4,647	249,506	123,772
67,276	-4,854	249,293	123,479
68,290	-5,022	249,012	123,185
69,305	-5,329	248,933	122,872
70,320	-4,838	248,599	123,115
71,334	-5,093	248,546	122,860
72,349	-4,608	248,405	123,193
73,363	-4,466	248,180	123,192
74,378	-4,531	248,051	123,062
75,393	-4,615	247,805	122,857
76,407	-4,701	247,546	122,644
77,422	-4,831	247,385	122,443
78,436	-4,404	247,120	122,664
79,451	-4,547	247,011	122,478
80,466	-4,759	246,683	122,124
81,480	-4,881	246,471	121,906
82,495	-5,200	246,409	121,594
83,509	-4,885	246,273	121,782
84,524	-4,998	245,963	121,523
85,539	-5,080	245,623	121,275
86,553	-4,967	245,503	121,299
87,568	-5,254	245,471	121,032
88,582	-4,892	245,127	121,155
89,597	-5,111	244,910	120,854
90,611	-5,123	244,929	120,843
91,626	-4,801	244,668	120,972
92,641	-4,800	244,564	120,911
93,655	-4,787	244,408	120,835
94,670	-4,930	244,238	120,619
95,684	-4,785	243,910	120,568
96,699	-4,947	243,894	120,414
97,714	-4,996	243,658	120,246
98,728	-5,050	243,259	119,994
99,743	-5,208	243,139	119,792
100,757	-5,216	242,930	119,672
101,772	-5,183	242,782	119,615
102,787	-5,078	242,580	119,592
103,801	-5,056	242,443	119,532
104,816	-4,951	242,452	119,613
105,830	-4,768	242,264	119,662
106,845	-4,779	242,070	119,546
107,860	-4,825	241,908	119,418
108,874	-4,867	241,587	119,213
109,889	-4,925	241,420	119,072
110,903	-4,871	241,196	118,996
111,918	-4,868	240,993	118,888
112,933	-4,895	240,902	118,810
113,947	-4,700	240,572	118,797
114,962	-4,773	240,596	118,739
115,976	-4,770	240,361	118,614
116,991	-4,743	240,260	118,576
118,006	-4,820	240,103	118,425
119,020	-4,695	239,990	118,461
120,035	-4,645	239,680	118,339
121,049	-4,579	239,506	118,296
122,064	-4,527	239,463	118,306
123,079	-4,718	239,160	117,990
124,093	-4,966	238,938	117,668
125,108	-5,063	238,756	117,489
126,122	-5,190	238,537	117,267
127,137	-5,150	238,251	117,148
128,151	-5,298	238,148	116,967
129,166	-5,209	238,113	117,012
130,181	-5,346	237,930	116,800
131,195	-5,312	237,769	116,738
132,210	-5,021	237,548	116,855
133,224	-4,769	237,428	116,990
134,239	-4,874	237,307	116,835
135,254	-4,799	237,124	116,795
136,268	-5,045	236,851	116,451
137,283	-5,119	236,554	116,235
138,297	-5,254	236,432	116,056
139,312	-5,561	236,172	115,671
140,327	-5,010	236,197	116,116
141,341	-4,361	236,099	116,581
142,356	-4,490	235,950	116,393
143,370	-4,303	235,714	116,417
144,385	-4,352	235,609	116,315
145,400	-4,183	235,431	116,353
146,414	-4,587	235,315	115,960
147,429	-4,556	235,101	115,870
148,443	-4,560	234,919	115,767
149,458	-4,566	234,804	115,695
150,473	-4,379	234,682	115,774
151,487	-4,569	234,527	115,535
152,502	-4,602	234,337	115,405
153,516	-4,474	234,137	115,398
154,531	-4,591	233,983	115,219
155,546	-4,529	233,837	115,187
156,560	-4,628	233,664	115,012
157,575	-4,597	233,448	114,920
158,589	-4,613	233,215	114,782
159,604	-4,446	232,977	114,788
160,619	-4,280	232,954	114,898
161,633	-4,433	232,870	114,725
162,648	-4,326	232,679	114,705
163,662	-4,663	232,691	114,434
164,677	-4,521	232,250	114,319
165,692	-4,497	232,358	114,381
166,706	-4,187	231,947	114,413
167,721	-4,492	231,982	114,179
168,735	-4,403	231,808	114,153
169,750	-4,389	231,713	114,107
170,764	-4,444	231,527	113,962
171,779	-4,285	231,343	113,987
172,794	-4,212	231,017	113,873
173,808	-4,478	230,915	113,605
174,823	-4,998	230,607	113,035
175,837	-5,083	230,398	112,855
176,852	-4,616	230,360	113,192
177,867	-4,402	230,208	113,275
178,881	-4,347	230,264	113,336
179,896	-4,070	230,154	113,488
180,910	-4,422	229,779	113,019
181,925	-4,426	229,770	113,001
182,940	-4,436	229,524	112,862
183,954	-4,324	229,477	112,916
184,969	-4,413	229,373	112,785
185,983	-4,328	229,315	112,813
186,998	-4,365	229,278	112,756
188,013	-4,322	228,901	112,594
189,027	-4,299	228,680	112,494
190,042	-4,063	228,463	112,559
191,056	-4,238	228,331	112,349
192,071	-4,147	228,252	112,371
193,086	-4,245	228,053	112,186
194,100	-4,417	228,067	112,051
195,115	-4,545	227,580	111,702
196,129	-5,318	227,308	110,962
197,144	-2,039	228,472	114,062
198,159	2,360	229,635	118,053
199,173	4,078	229,993	119,561
200,188	4,411	229,833	119,726
201,202	4,297	229,796	119,608
202,217	4,467	229,775	119,718
203,232	4,673	229,614	119,783
204,246	4,758	229,375	119,713
205,261	4,884	229,238	119,729
206,275	5,031	229,232	119,828
207,290	5,116	228,954	119,738
208,304	4,923	228,903	119,551
209,319	4,887	228,664	119,388
210,334	4,688	228,497	119,138
211,348	4,766	228,097	118,978
212,363	4,313	227,944	118,540
213,377	4,194	227,810	118,368
214,392	3,927	227,570	118,028
215,407	4,112	227,561	118,154
216,421	4,268	227,494	118,229
217,436	4,330	227,204	118,115
218,450	4,053	226,895	117,732
219,465	3,773	226,856	117,487
220,480	4,110	226,732	117,670
221,494	3,879	226,584	117,406
222,509	4,030	226,553	117,495
223,523	4,163	226,380	117,496
224,538	3,995	226,086	117,205
225,553	4,009	225,951	117,136
226,567	4,228	225,878	117,253
227,582	4,394	225,862	117,361
228,596	4,640	225,739	117,474
229,611	4,119	225,431	116,908
230,626	3,848	225,261	116,603
231,640	4,036	225,184	116,696
232,655	4,223	225,197	116,834
233,669	4,698	225,003	117,083
234,684	4,601	224,943	116,967
235,699	4,548	224,667	116,774
236,713	4,196	224,605	116,465
237,728	3,994	224,332	116,161
238,742	4,096	224,043	116,077
239,757	4,101	223,933	116,014
240,772	4,131	223,740	115,926
241,786	4,121	223,616	115,844
242,801	4,155	223,718	115,912
243,815	4,566	223,353	116,021
244,830	4,506	223,277	115,926
245,844	4,199	223,073	115,579
246,859	4,303	223,039	115,630
247,874	4,379	222,968	115,640
248,888	4,293	222,901	115,531
249,903	4,320	222,593	115,381
250,917	4,186	222,333	115,135
251,932	4,306	222,106	115,097
252,947	4,117	222,084	114,934
253,961	3,908	221,879	114,662
254,976	4,159	221,778	114,787
255,990	4,344	221,671	114,859
257,005	4,462	221,482	114,838
258,020	4,194	221,333	114,552
259,034	4,486	221,417	114,802
260,049	4,333	221,217	114,575
261,063	4,279	221,049	114,438
262,078	4,362	220,882	114,402
263,093	4,612	220,732	114,499
264,107	4,513	220,600	114,347
265,122	4,488	220,482	114,258
266,136	4,628	220,434	114,326
267,151	4,612	220,432	114,303
268,166	4,133	220,021	113,726
269,180	3,917	219,733	113,408
270,195	4,075	219,553	113,422
271,209	3,965	219,435	113,269
272,224	4,093	219,428	113,350
273,239	4,164	219,330	113,342
274,253	4,075	219,161	113,179
275,268	3,796	218,920	112,839
276,282	3,927	218,703	112,813
277,297	4,069	218,544	112,825
278,312	3,870	218,515	112,655
279,326	3,949	218,368	112,627
280,341	3,954	218,367	112,619
281,355	4,161	218,057	112,601
282,370	4,022	217,980	112,449
283,384	3,893	217,662	112,181
284,399	3,682	217,815	112,096
285,414	3,910	217,616	112,150
286,428	4,034	217,486	112,163
287,443	4,218	217,400	112,243
288,457	4,144	217,310	112,132
289,472	4,339	217,067	112,139
290,487	3,793	216,698	111,542
291,501	3,894	216,572	111,541
292,516	3,973	216,486	111,543
293,530	3,790	216,408	111,361
294,545	4,077	216,294	111,500
295,560	3,960	216,157	111,335
296,574	4,145	216,005	111,381
297,589	4,078	215,959	111,298
298,603	3,985	215,739	111,108
299,618	4,021	215,631	111,068
300,633	4,071	215,628	111,093
301,647	4,402	215,331	111,169
302,662	4,384	215,331	111,145
303,676	4,076	215,100	110,795
304,691	4,333	215,074	110,957
305,706	4,378	214,922	110,901
306,720	4,315	214,710	110,736
307,735	4,282	214,545	110,617
308,749	4,071	214,477	110,421
309,764	4,133	214,401	110,417
310,779	4,338	214,220	110,460
311,793	4,416	214,160	110,475
312,808	4,460	213,918	110,372
313,822	4,289	213,743	110,150
314,837	4,108	213,512	109,891
315,852	4,059	213,399	109,789
316,866	4,041	213,231	109,680
317,881	4,128	213,227	109,730
318,895	4,151	213,209	109,728
319,910	4,259	212,821	109,595
320,925	3,973	212,620	109,278
321,939	3,608	212,447	108,920
322,954	3,663	212,354	108,902
323,968	4,373	212,324	109,381
324,983	4,440	212,168	109,338
325,997	4,429	212,145	109,309
327,012	4,409	211,901	109,158
328,027	4,168	211,838	108,946
329,041	4,455	211,702	109,069
330,056	4,597	211,675	109,147
331,070	4,080	211,530	108,697
332,085	3,994	211,146	108,429
333,100	4,111	211,080	108,467
334,114	4,012	210,948	108,321
335,129	3,986	210,726	108,179
336,143	3,734	210,635	107,945
337,158	3,747	210,564	107,909
338,173	4,113	210,297	108,019
339,187	3,762	210,183	107,705
340,202	3,865	209,996	107,671
341,216	3,705	209,912	107,506
342,231	3,836	209,941	107,604
343,246	3,925	209,650	107,507
344,260	4,132	209,552	107,592
345,275	4,384	209,436	107,698
346,289	4,314	209,399	107,621
347,304	4,307	209,210	107,509
348,319	4,149	209,091	107,329
349,333	4,129	208,990	107,253
350,348	4,353	208,717	107,259
351,362	4,597	208,611	107,365
352,377	4,717	208,418	107,339
353,392	4,134	208,513	106,974
354,406	4,201	208,430	106,968
355,421	194,802	1345,211	1436,896
356,435	155,472	1483,816	1437,030
