DTS Sentinel unit serial number:	SN410029Multiplexer serial number:	ORYXHardware model number:	OX2-SRSoftware version number:	ORYX F/W v4,00 Oryx Data Collector v3.7.2.0data status	okinstallation	B6 Nyhavnadifferential loss correction	single-endedforward channel	channel 2reverse channel	N/Adate	2023/12/10time	00:20:08forward acquisition time	300,00reverse acquisition time	0,00gamma	499,1914k internal	0,3126k external	0,3126temperature offset calibration	1,0000default loss term (dB/km)	0,3820temperature slope calibration	1,0000multiplexer offset coefficient	1,0000multiplexer slope coefficient	1,0000fibre end	0,00T internal ref (°C)	21,81T ext. ref 1 (°C)	5,69T ext. ref 2 (°C)	5,66length (m)	temperature (°C)	Stokes	anti-Stokes-744,400	800,000	-0,056	0,163
-743,385	57,159	-0,161	0,117
-742,371	164,354	0,071	0,075
-741,356	-30,251	-0,234	0,099
-740,342	101,057	-0,046	0,040
-739,327	-85,710	-0,160	0,037
-738,312	-7,708	0,142	0,071
-737,298	-82,841	-0,272	0,065
-736,283	-84,271	0,037	-0,009
-735,269	-74,407	-0,165	0,044
-734,254	-200,000	-0,024	-0,085
-733,239	-55,792	-0,374	-0,124
-732,225	-6,746	0,098	-0,049
-731,210	-11,841	0,023	-0,011
-730,196	-200,000	-0,005	0,048
-729,181	-122,658	-0,153	0,018
-728,167	151,487	-0,037	-0,037
-727,152	-109,436	0,058	-0,009
-726,137	193,478	-0,023	-0,026
-725,123	-200,000	-0,029	-0,158
-724,108	60,341	-0,055	0,040
-723,094	800,000	-0,039	-0,082
-722,079	178,793	-0,079	-0,086
-721,064	119,758	0,112	-0,103
-720,050	187,889	0,055	0,061
-719,035	-200,000	-0,007	0,107
-718,021	800,000	-0,037	-0,077
-717,006	-168,081	-0,068	-0,002
-715,991	211,250	-0,110	-0,129
-714,977	120,555	-0,108	-0,100
-713,962	444,307	0,062	0,102
-712,948	-200,000	0,006	-0,133
-711,933	309,434	0,034	0,047
-710,918	433,285	0,014	0,023
-709,904	714,242	0,044	0,088
-708,889	16,454	-0,086	-0,051
-707,875	800,000	-0,083	-0,188
-706,860	17,404	-0,133	0,078
-705,845	-57,285	-0,090	-0,029
-704,831	-200,000	-0,004	-0,046
-703,816	-148,276	0,069	0,004
-702,802	45,147	-0,021	-0,014
-701,787	-14,980	-0,097	0,046
-700,772	-200,000	-0,034	-0,194
-699,758	78,481	0,092	-0,073
-698,743	30,756	0,139	0,088
-697,729	-133,421	0,054	0,005
-696,714	800,000	-0,058	-0,192
-695,699	-200,000	-0,142	-0,000
-694,685	-176,068	-0,033	-0,001
-693,670	800,000	0,043	-0,093
-692,656	-187,368	0,135	0,001
-691,641	800,000	-0,032	0,095
-690,627	800,000	0,027	0,080
-689,612	38,172	-0,104	0,069
-688,597	589,693	-0,025	0,046
-687,583	-200,000	-0,000	0,017
-686,568	465,624	-0,060	0,100
-685,554	-63,679	0,060	-0,018
-684,539	124,186	-0,083	-0,078
-683,524	265,152	0,027	0,035
-682,510	-8,754	0,047	0,023
-681,495	165,244	-0,072	0,075
-680,481	-123,836	-0,063	0,007
-679,466	-28,829	-0,199	-0,084
-678,451	224,469	-0,051	-0,061
-677,437	33,550	-0,044	0,029
-676,422	227,946	0,058	0,071
-675,408	131,977	0,126	0,120
-674,393	199,012	-0,047	-0,054
-673,378	-112,725	-0,182	0,027
-672,364	130,266	0,030	-0,028
-671,349	208,771	0,046	-0,053
-670,335	52,229	0,073	0,052
-669,320	800,000	-0,043	0,097
-668,305	90,361	0,119	0,099
-667,291	-200,000	-0,003	-0,112
-666,276	-200,000	-0,047	-0,156
-665,262	-200,000	0,010	-0,135
-664,247	-200,000	-0,027	-0,155
-663,232	296,321	0,094	-0,128
-662,218	-97,961	-0,091	-0,017
-661,203	800,000	0,037	0,103
-660,189	800,000	0,053	-0,124
-659,174	99,170	-0,134	0,115
-658,159	81,362	0,066	-0,053
-657,145	-103,550	-0,022	-0,004
-656,130	226,596	0,061	-0,073
-655,116	294,459	0,028	-0,038
-654,101	800,000	-0,041	0,112
-653,086	149,470	-0,047	0,047
-652,072	-16,652	-0,135	-0,063
-651,057	-29,513	-0,145	0,061
-650,043	-157,976	0,017	-0,001
-649,028	-65,949	-0,083	0,025
-648,014	-49,697	0,035	-0,012
-646,999	8,211	-0,040	0,022
-645,984	-129,112	0,101	0,010
-644,970	-103,940	-0,056	0,010
-643,955	-120,276	0,099	-0,012
-642,941	800,000	0,029	0,081
-641,926	-24,050	-0,092	-0,041
-640,911	109,226	-0,032	0,029
-639,897	-143,294	0,013	0,001
-638,882	7,630	-0,088	0,049
-637,868	43,541	-0,022	0,015
-636,853	207,284	0,051	0,059
-635,838	391,592	0,020	-0,031
-634,824	-28,864	-0,052	0,022
-633,809	373,207	0,045	0,068
-632,795	292,167	0,045	0,060
-631,780	-200,000	-0,002	-0,123
-630,765	-109,372	0,013	0,002
-629,751	-200,000	-0,005	-0,076
-628,736	-200,000	0,042	-0,188
-627,722	-200,000	-0,006	-0,039
-626,707	115,683	0,086	-0,078
-625,692	-200,000	-0,005	-0,057
-624,678	-20,028	-0,063	0,029
-623,663	-200,000	-0,006	0,063
-622,649	-143,600	-0,137	0,010
-621,634	-170,848	-0,038	-0,001
-620,619	-200,000	-0,024	0,081
-619,605	-200,000	-0,007	-0,085
-618,590	-200,000	-0,007	0,113
-617,576	158,465	0,058	0,060
-616,561	-85,741	-0,118	0,027
-615,546	114,794	-0,123	-0,111
-614,532	-97,163	-0,154	-0,029
-613,517	800,000	0,008	-0,024
-612,503	6,729	-0,036	-0,020
-611,488	14,654	-0,035	-0,020
-610,474	-106,837	0,130	0,021
-609,459	24,305	-0,027	-0,016
-608,444	73,252	0,134	-0,104
-607,430	417,289	-0,070	0,110
-606,415	658,058	0,036	0,069
-605,401	-105,424	-0,114	-0,019
-604,386	17,549	0,101	0,059
-603,371	-150,412	0,038	-0,002
-602,357	-101,046	-0,098	-0,018
-601,342	800,000	-0,026	0,063
-600,328	257,002	-0,035	-0,044
-599,313	-200,000	0,013	-0,185
-598,298	-200,000	-0,005	-0,123
-597,284	-200,000	-0,041	-0,162
-596,269	17,140	0,198	-0,116
-595,255	-200,000	-0,025	-0,133
-594,240	800,000	0,024	-0,078
-593,225	-10,500	0,065	-0,032
-592,211	145,052	-0,037	-0,036
-591,196	-200,000	-0,016	0,076
-590,182	-88,722	-0,048	-0,011
-589,167	-200,000	0,033	0,141
-588,152	800,000	-0,018	0,050
-587,138	371,135	-0,059	0,089
-586,123	312,751	-0,006	0,009
-585,109	780,087	-0,040	-0,081
-584,094	-200,000	-0,002	0,012
-583,079	387,240	-0,032	0,049
-582,065	-200,000	0,062	-0,000
-581,050	-34,950	-0,006	0,002
-580,036	-30,513	0,044	-0,018
-579,021	211,050	-0,042	-0,049
-578,006	-200,000	0,022	-0,084
-576,992	-200,000	0,008	-0,044
-575,977	-200,000	-0,006	-0,037
-574,963	-116,987	-0,120	-0,016
-573,948	-3,265	-0,069	0,036
-572,934	150,720	0,119	-0,119
-571,919	-200,000	0,002	0,011
-570,904	-12,909	0,043	0,020
-569,890	-52,301	-0,026	-0,009
-568,875	-133,967	0,096	0,009
-567,861	158,706	-0,054	-0,055
-566,846	116,663	0,018	-0,016
-565,831	-106,619	0,109	0,018
-564,817	177,006	-0,125	-0,134
-563,802	191,800	0,026	0,029
-562,788	800,000	0,049	-0,137
-561,773	167,659	-0,049	0,051
-560,758	-200,000	-0,010	0,107
-559,744	-37,274	0,053	-0,021
-558,729	-138,479	0,112	0,009
-557,715	-87,172	-0,087	-0,019
-556,700	-200,000	-0,038	-0,160
-555,685	-200,000	-0,023	-0,080
-554,671	267,022	0,030	-0,039
-553,656	40,629	-0,054	-0,036
-552,642	-200,000	0,007	0,086
-551,627	148,958	0,117	0,117
-550,612	-39,204	-0,130	-0,050
-549,598	-200,000	-0,001	-0,069
-548,583	-200,000	-0,009	-0,050
-547,569	-200,000	0,009	-0,071
-546,554	-200,000	-0,030	0,127
-545,539	44,630	-0,057	0,038
-544,525	-38,974	0,097	0,037
-543,510	-111,052	0,086	-0,013
-542,496	-200,000	0,000	-0,075
-541,481	67,776	0,108	-0,081
-540,466	-85,058	-0,115	0,026
-539,452	166,411	-0,028	0,029
-538,437	800,000	0,040	0,104
-537,423	-20,011	-0,072	-0,033
-536,408	13,836	0,017	-0,010
-535,393	-83,616	-0,167	-0,039
-534,379	-73,159	-0,047	0,013
-533,364	-134,689	-0,086	-0,008
-532,350	-200,000	0,009	0,137
-531,335	-200,000	-0,013	-0,044
-530,321	51,518	-0,115	-0,081
-529,306	-135,844	-0,101	-0,009
-528,291	-128,515	0,065	-0,007
-527,277	325,050	-0,015	-0,021
-526,262	-200,000	-0,006	0,050
-525,248	-200,000	0,004	-0,157
-524,233	612,776	0,078	-0,144
-523,218	766,711	-0,022	0,045
-522,204	171,274	0,049	-0,052
-521,189	39,459	-0,016	0,011
-520,175	136,094	-0,089	-0,085
-519,160	-183,122	0,099	-0,001
-518,145	27,663	0,087	-0,054
-517,131	-2,055	0,075	0,039
-516,116	376,343	-0,082	-0,124
-515,102	-114,540	-0,075	-0,011
-514,087	351,052	-0,067	-0,099
-513,072	42,353	0,035	-0,023
-512,058	-200,000	-0,015	0,071
-511,043	244,122	-0,044	0,055
-510,029	800,000	-0,003	0,009
-509,014	53,190	0,111	-0,078
-507,999	-10,275	0,049	0,024
-506,985	-200,000	0,016	0,161
-505,970	-28,144	-0,095	-0,040
-504,956	-69,472	-0,091	-0,026
-503,941	-8,182	0,011	0,006
-502,926	-200,000	0,025	0,085
-501,912	3,055	0,063	-0,034
-500,897	-47,187	0,079	-0,028
-499,883	-200,000	0,006	0,054
-498,868	114,924	0,129	-0,116
-497,853	-18,288	-0,067	0,031
-496,839	-200,000	0,006	0,095
-495,824	-121,227	0,085	0,010
-494,810	98,898	-0,047	0,040
-493,795	800,000	-0,039	-0,095
-492,781	10,634	-0,143	-0,080
-491,766	57,705	-0,111	-0,080
-490,751	-200,000	-0,004	-0,146
-489,737	12,918	0,083	-0,047
-488,722	37,427	-0,055	-0,036
-487,708	111,536	0,056	0,050
-486,693	3,190	0,072	-0,039
-485,678	162,956	0,064	-0,067
-484,664	102,107	-0,008	-0,007
-483,649	800,000	-0,053	-0,113
-482,635	-119,321	0,116	-0,015
-481,620	-67,477	-0,055	0,016
-480,605	48,443	0,097	-0,067
-479,591	-200,000	0,001	0,054
-478,576	800,000	0,016	-0,049
-477,562	-57,743	-0,144	-0,046
-476,547	-158,477	-0,100	-0,004
-475,532	452,106	0,004	0,006
-474,518	34,517	0,054	0,034
-473,503	-94,932	0,060	0,012
-472,489	-1,276	-0,054	0,028
-471,474	93,209	0,063	0,052
-470,459	-59,458	-0,161	-0,051
-469,445	145,074	0,040	0,040
-468,430	202,130	-0,025	-0,028
-467,416	140,661	0,062	0,060
-466,401	-200,000	-0,011	0,083
-465,386	-200,000	0,039	0,138
-464,372	-132,068	-0,120	0,011
-463,357	299,467	0,077	-0,105
-462,343	800,000	-0,028	0,058
-461,328	-29,112	0,111	0,047
-460,313	196,997	0,076	-0,085
-459,299	-72,671	0,098	0,026
-458,284	7,566	0,042	0,023
-457,270	-180,178	0,023	0,000
-456,255	646,821	-0,054	0,103
-455,241	-87,861	-0,097	-0,021
-454,226	-68,629	-0,034	-0,010
-453,211	-197,642	0,218	-0,001
-452,197	-55,607	-0,019	0,006
-451,182	-118,564	-0,004	-0,001
-450,168	-200,000	0,022	-0,156
-449,153	162,908	-0,055	0,057
-448,138	-200,000	0,016	-0,122
-447,124	-169,581	-0,135	-0,004
-446,109	-155,312	-0,073	-0,003
-445,095	97,548	0,089	-0,075
-444,080	-200,000	0,051	0,166
-443,065	220,891	0,090	0,106
-442,051	-22,474	-0,082	0,036
-441,036	73,970	0,050	-0,038
-440,022	193,334	-0,114	0,127
-439,007	-200,000	0,023	0,092
-437,992	-18,774	0,160	-0,073
-436,978	201,224	0,091	0,103
-435,963	675,025	0,043	-0,083
-434,949	-131,088	0,096	-0,009
-433,934	-6,725	0,026	0,013
-432,919	8,550	-0,010	0,006
-431,905	-200,000	0,026	0,153
-430,890	-146,258	-0,005	0,000
-429,876	562,933	0,077	0,137
-428,861	-53,844	0,060	-0,020
-427,846	-14,334	-0,061	-0,029
-426,832	-200,000	0,036	0,144
-425,817	-200,000	-0,002	-0,043
-424,803	-189,125	-0,053	0,000
-423,788	450,940	-0,075	0,123
-422,773	-27,185	-0,024	-0,010
-421,759	800,000	-0,026	-0,060
-420,744	-79,363	0,124	0,031
-419,730	762,751	-0,020	-0,041
-418,715	-200,000	-0,040	-0,184
-417,701	619,801	-0,095	-0,177
-416,686	126,284	0,084	0,078
-415,671	38,097	-0,009	-0,006
-414,657	-42,685	-0,052	-0,019
-413,642	800,000	-0,005	-0,013
-412,628	800,000	-0,057	-0,157
-411,613	56,772	-0,080	0,057
-410,598	109,487	-0,040	-0,036
-409,584	-200,000	0,018	0,065
-408,569	-200,000	-0,002	-0,029
-407,555	229,550	0,168	0,202
-406,540	-200,000	0,026	0,108
-405,525	503,114	-0,023	0,038
-404,511	800,000	-0,049	0,151
-403,496	175,271	-0,066	0,071
-402,482	144,588	-0,087	0,086
-401,467	-164,990	0,132	0,004
-400,452	-200,000	-0,019	0,090
-399,438	-91,608	-0,066	-0,014
-398,423	168,460	0,050	0,052
-397,409	-72,729	-0,098	-0,026
-396,394	-24,448	-0,121	0,053
-395,379	-200,000	-0,012	0,138
-394,365	367,118	0,020	0,030
-393,350	189,916	-0,053	-0,059
-392,336	249,520	-0,021	0,026
-391,321	-55,086	0,064	0,021
-390,306	41,135	-0,074	-0,049
-389,292	-200,000	0,005	-0,040
-388,277	800,000	-0,022	-0,065
-387,263	-200,000	0,014	0,051
-386,248	800,000	0,041	0,105
-385,233	-21,075	0,036	0,016
-384,219	169,633	-0,109	0,114
-383,204	-89,921	-0,040	0,009
-382,190	-200,000	0,043	-0,164
-381,175	-117,155	0,045	-0,006
-380,160	800,000	0,057	0,126
-379,146	-200,000	-0,019	-0,130
-378,131	-200,000	-0,044	0,164
-377,117	-200,000	-0,025	-0,138
-376,102	-200,000	0,009	0,043
-375,088	-200,000	0,024	0,094
-374,073	-200,000	0,015	0,075
-373,058	30,362	0,054	0,034
-372,044	-200,000	0,000	0,059
-371,029	140,987	-0,032	0,031
-370,015	-200,000	0,005	0,020
-369,000	800,000	-0,081	-0,199
-367,985	800,000	-0,042	-0,101
-366,971	309,670	0,145	-0,199
-365,956	-118,121	-0,064	-0,008
-364,942	89,525	0,083	0,068
-363,927	318,427	-0,037	0,052
-362,912	-75,341	0,105	-0,027
-361,898	82,674	0,044	-0,035
-360,883	800,000	0,019	-0,057
-359,869	-200,000	0,002	0,022
-358,854	238,629	0,067	-0,082
-357,839	0,022	0,103	0,054
-356,825	800,000	0,058	0,118
-355,810	596,546	-0,026	0,047
-354,796	-186,173	-0,121	-0,001
-353,781	260,161	-0,070	-0,090
-352,766	800,000	0,020	-0,057
-351,752	-200,000	-0,008	0,138
-350,737	-200,000	0,004	0,112
-349,723	-200,000	0,010	-0,044
-348,708	-200,000	0,019	-0,065
-347,693	362,517	-0,045	0,066
-346,679	37,969	-0,049	-0,032
-345,664	800,000	-0,026	-0,060
-344,650	-12,761	-0,019	0,009
-343,635	-200,000	-0,005	0,067
-342,620	406,257	0,024	0,037
-341,606	-200,000	-0,005	-0,106
-340,591	111,937	0,038	0,034
-339,577	-200,000	-0,023	0,122
-338,562	-200,000	-0,004	-0,110
-337,548	-79,955	0,146	-0,036
-336,533	-200,000	-0,010	-0,051
-335,518	-200,000	-0,015	0,066
-334,504	-54,143	-0,113	-0,037
-333,489	23,332	0,101	0,060
-332,475	46,602	-0,033	-0,022
-331,460	20,791	-0,127	-0,075
-330,445	-171,929	0,089	0,002
-329,431	237,826	0,035	0,042
-328,416	316,068	0,057	-0,078
-327,402	-200,000	0,011	-0,093
-326,387	-21,650	-0,041	0,018
-325,372	293,728	0,025	-0,033
-324,358	-200,000	0,010	-0,080
-323,343	-34,048	0,058	-0,023
-322,329	446,815	-0,013	0,022
-321,314	-200,000	0,010	-0,059
-320,299	-68,539	-0,048	-0,014
-319,285	-50,136	0,029	0,010
-318,270	-17,569	-0,033	0,015
-317,256	216,808	-0,066	-0,077
-316,241	-47,324	-0,066	0,023
-315,226	800,000	0,030	-0,070
-314,212	-118,523	0,214	0,027
-313,197	-200,000	0,008	0,031
-312,183	82,986	-0,095	0,076
-311,168	323,619	0,031	-0,043
-310,153	268,281	-0,161	-0,206
-309,139	332,606	0,052	-0,073
-308,124	-133,986	0,090	-0,008
-307,110	-127,449	0,123	0,013
-306,095	800,000	-0,062	-0,161
-305,080	207,271	-0,024	0,027
-304,066	12,750	0,097	0,055
-303,051	800,000	0,095	0,267
-302,037	-12,411	-0,030	0,015
-301,022	112,874	-0,116	0,103
-300,008	300,217	0,118	0,160
-298,993	800,000	-0,009	0,024
-297,978	483,922	-0,121	-0,202
-296,964	126,125	-0,133	0,123
-295,949	439,023	-0,018	0,029
-294,935	800,000	-0,053	-0,132
-293,920	374,453	0,048	0,072
-292,905	-135,460	-0,098	-0,008
-291,891	260,337	0,091	0,116
-290,876	324,066	0,093	0,130
-289,862	-32,446	0,052	-0,021
-288,847	-200,000	0,024	0,085
-287,832	-157,315	-0,094	-0,004
-286,818	-95,389	0,156	0,030
-285,803	203,369	0,064	0,072
-284,789	-23,926	0,159	0,069
-283,774	800,000	0,004	-0,009
-282,759	52,077	-0,114	-0,079
-281,745	-133,149	-0,170	-0,016
-280,730	7,966	-0,098	0,053
-279,716	280,819	0,094	0,123
-278,701	52,212	0,140	0,098
-277,686	-200,000	0,015	0,072
-276,672	-58,839	-0,078	0,025
-275,657	75,270	0,030	0,023
-274,643	28,576	-0,162	-0,100
-273,628	-200,000	-0,034	-0,121
-272,613	54,820	-0,138	-0,097
-271,599	745,539	0,019	0,037
-270,584	-200,000	0,022	0,199
-269,570	18,207	0,097	0,057
-268,555	-86,457	0,163	0,036
-267,540	-110,564	-0,230	0,034
-266,526	-200,000	0,010	-0,143
-265,511	100,522	-0,078	-0,067
-264,497	800,000	0,023	-0,048
-263,482	-134,942	0,146	-0,013
-262,467	28,610	-0,064	0,040
-261,453	99,133	-0,032	0,027
-260,438	654,285	-0,032	-0,060
-259,424	493,993	-0,061	-0,103
-258,409	139,962	0,055	-0,053
-257,395	583,175	-0,016	-0,029
-256,380	-200,000	0,006	0,050
-255,365	-65,840	-0,091	0,026
-254,351	63,308	0,068	0,050
-253,336	-200,000	-0,005	-0,123
-252,322	24,204	-0,091	0,055
-251,307	-143,615	-0,063	-0,004
-250,292	-89,745	-0,093	0,020
-249,278	-66,884	0,087	0,025
-248,263	295,585	0,025	-0,034
-247,249	-55,564	0,010	0,003
-246,234	182,198	-0,073	-0,078
-245,219	117,676	0,093	-0,084
-244,205	-200,000	0,016	-0,065
-243,190	-26,629	0,183	-0,078
-242,176	49,454	0,137	0,094
-241,161	-152,007	0,086	-0,005
-240,146	18,109	0,239	-0,139
-239,132	157,026	-0,079	0,080
-238,117	800,000	0,016	0,047
-237,103	-2,312	0,070	-0,035
-236,088	800,000	-0,022	-0,060
-235,073	-108,415	0,088	0,014
-234,059	-3,411	-0,089	0,045
-233,044	-200,000	0,025	-0,120
-232,030	-10,813	0,033	-0,016
-231,015	-4,611	-0,041	0,021
-230,000	736,012	-0,082	-0,161
-228,986	800,000	-0,044	0,100
-227,971	-200,000	0,002	0,077
-226,957	-2,801	0,048	0,024
-225,942	166,670	-0,026	0,027
-224,927	-200,000	-0,005	0,055
-223,913	-77,712	-0,052	0,013
-222,898	-63,001	-0,034	-0,010
-221,884	-107,310	0,090	-0,014
-220,869	800,000	-0,056	0,137
-219,855	228,781	0,074	-0,088
-218,840	55,815	0,082	0,058
-217,825	-64,918	-0,105	0,031
-216,811	-32,968	0,051	0,021
-215,796	-200,000	-0,012	-0,086
-214,782	148,443	0,086	-0,084
-213,767	800,000	0,040	0,108
-212,752	-39,639	-0,013	0,005
-211,738	-66,977	-0,034	-0,010
-210,723	800,000	-0,017	0,046
-209,709	800,000	-0,039	0,108
-208,694	560,313	0,048	-0,086
-207,679	111,171	-0,065	0,057
-206,665	-29,769	0,120	0,050
-205,650	-200,000	0,003	-0,050
-204,636	378,502	0,074	0,111
-203,621	-20,252	-0,104	0,046
-202,606	120,572	-0,071	0,064
-201,592	-150,689	-0,115	0,006
-200,577	-106,675	-0,067	0,011
-199,563	633,428	-0,030	-0,056
-198,548	154,077	0,035	0,035
-197,533	800,000	-0,011	-0,022
-196,519	800,000	-0,060	0,163
-195,504	-28,592	-0,116	0,049
-194,490	394,558	-0,077	0,118
-193,475	-200,000	0,032	-0,172
-192,460	657,117	-0,041	0,078
-191,446	800,000	0,040	0,097
-190,431	-200,000	0,027	-0,119
-189,417	54,127	0,004	-0,003
-188,402	-138,647	0,131	-0,010
-187,387	-21,281	-0,075	-0,033
-186,373	26,255	0,072	-0,044
-185,358	9,148	-0,016	-0,009
-184,344	561,511	-0,030	0,053
-183,329	16,466	0,066	0,038
-182,315	-200,000	0,020	0,064
-181,300	800,000	-0,105	-0,219
-180,285	16,046	0,023	0,013
-179,271	-200,000	0,003	0,029
-178,256	800,000	0,050	0,143
-177,242	124,231	0,027	0,025
-176,227	6,666	-0,037	0,020
-175,212	800,000	-0,032	-0,066
-174,198	259,931	0,031	-0,039
-173,183	-67,290	0,088	-0,025
-172,169	-200,000	-0,004	-0,084
-171,154	-200,000	-0,014	-0,151
-170,139	64,084	-0,143	-0,104
-169,125	-200,000	-0,004	0,055
-168,110	-147,680	0,065	0,004
-167,096	136,137	-0,123	0,116
-166,081	800,000	0,018	0,043
-165,066	529,705	-0,067	-0,115
-164,052	-0,764	-0,101	-0,052
-163,037	800,000	0,025	0,072
-162,023	-200,000	-0,011	0,037
-161,008	800,000	0,054	0,118
-159,993	375,209	0,009	-0,013
-158,979	-24,264	0,056	0,024
-157,964	-200,000	-0,013	0,123
-156,950	109,573	0,050	0,044
-155,935	-200,000	-0,007	0,047
-154,920	-95,338	0,211	-0,041
-153,906	800,000	0,075	0,159
-152,891	770,577	-0,040	0,079
-151,877	-200,000	0,054	0,226
-150,862	-0,543	-0,094	0,048
-149,847	69,120	-0,091	0,068
-148,833	693,706	0,036	0,069
-147,818	21,386	0,030	0,018
-146,804	137,354	0,132	-0,125
-145,789	482,456	0,051	0,084
-144,775	132,677	0,040	-0,037
-143,760	-53,541	0,084	-0,028
-142,745	-200,000	0,005	-0,024
-141,731	-97,518	0,089	0,017
-140,716	-94,045	0,149	-0,029
-139,702	-200,000	0,027	0,135
-138,687	410,694	-0,045	-0,070
-137,672	-123,985	0,046	0,005
-136,658	-130,970	-0,027	-0,003
-135,643	1,007	-0,149	-0,077
-134,629	-75,569	0,078	0,020
-133,614	311,197	0,037	-0,050
-132,599	-150,795	0,102	0,006
-131,585	771,335	0,034	0,067
-130,570	800,000	-0,011	-0,026
-129,556	800,000	-0,017	0,051
-128,541	-40,777	-0,126	-0,047
-127,526	800,000	-0,038	0,084
-126,512	-200,000	0,008	-0,091
-125,497	-200,000	0,034	0,178
-124,483	-200,000	0,034	0,190
-123,468	-87,523	0,113	0,025
-122,453	196,721	-0,079	0,087
-121,439	800,000	-0,052	-0,114
-120,424	800,000	0,014	-0,034
-119,410	-200,000	0,004	0,095
-118,395	800,000	-0,051	0,113
-117,380	-200,000	-0,036	0,149
-116,366	800,000	-0,046	0,104
-115,351	-182,562	-0,119	0,002
-114,337	-85,544	-0,075	-0,017
-113,322	-200,000	0,003	-0,073
-112,307	-200,000	-0,005	-0,062
-111,293	114,364	0,037	0,033
-110,278	494,269	0,122	0,205
-109,264	311,172	-0,020	-0,027
-108,249	-200,000	0,003	-0,152
-107,234	800,000	0,025	-0,062
-106,220	800,000	-0,027	0,059
-105,205	-137,791	-0,092	0,007
-104,191	-200,000	0,004	0,074
-103,176	550,869	-0,020	-0,035
-102,162	800,000	-0,019	0,059
-101,147	274,389	-0,035	-0,045
-100,132	800,000	-0,039	-0,086
-99,118	337,623	0,052	0,074
-98,103	135,183	0,051	-0,048
-97,089	79,001	0,102	0,079
-96,074	101,336	0,124	0,105
-95,059	800,000	0,030	0,082
-94,045	-53,725	-0,115	0,038
-93,030	160,147	-0,075	-0,075
-92,016	-200,000	-0,004	0,045
-91,001	-200,000	0,004	0,156
-89,986	-84,454	0,123	0,028
-88,972	30,650	-0,090	0,056
-87,957	34,160	0,153	-0,097
-86,943	-200,000	0,020	-0,081
-85,928	-200,000	0,007	-0,172
-84,913	-58,382	0,051	0,016
-83,899	-200,000	0,002	0,134
-82,884	-200,000	0,003	0,022
-81,870	308,804	0,053	-0,071
-80,855	82,634	-0,070	0,055
-79,840	-114,275	-0,016	0,002
-78,826	-107,009	-0,145	-0,023
-77,811	359,024	0,074	-0,107
-76,797	800,000	-0,053	-0,112
-75,782	231,277	-0,041	-0,049
-74,767	-158,548	0,129	0,005
-73,753	-200,000	-0,016	0,091
-72,738	-200,000	0,004	-0,106
-71,724	-74,894	-0,022	-0,006
-70,709	84,123	-0,045	-0,036
-69,694	-200,000	0,026	-0,144
-68,680	23,346	0,145	-0,086
-67,665	-200,000	0,000	-0,035
-66,651	22,068	0,011	0,007
-65,636	339,601	0,066	0,094
-64,622	800,000	0,062	-0,147
-63,607	-200,000	-0,027	-0,168
-62,592	-137,064	-0,008	0,001
-61,578	259,280	0,042	-0,053
-60,563	-200,000	0,001	0,083
-59,549	328,677	0,061	0,086
-58,534	-104,653	-1,388	-0,230
-57,519	589,536	-0,828	-1,485
-56,505	-200,000	-0,879	-4,416
-55,490	-78,216	0,631	-0,156
-54,476	800,000	4,956	11,750
-53,461	-200,000	14,122	254,118
-52,446	-200,000	695,308	2237,487
-51,432	570,752	1625,183	2878,515
-50,417	117,217	1632,513	1454,248
-49,403	72,567	1286,121	971,226
-48,388	37,443	1023,136	656,203
-47,373	23,860	981,216	584,697
-46,359	23,018	970,957	575,804
-45,344	22,042	966,639	570,034
-44,330	22,011	965,290	569,115
-43,315	21,855	963,513	567,536
-42,300	21,777	962,723	566,795
-41,286	21,838	961,629	566,324
-40,271	21,831	960,643	565,700
-39,257	21,742	959,775	564,879
-38,242	21,774	958,994	564,500
-37,227	21,791	958,028	563,963
-36,213	21,831	957,005	563,469
-35,198	21,757	956,222	562,748
-34,184	21,855	955,658	562,707
-33,169	21,834	954,565	561,975
-32,154	21,847	953,687	561,476
-31,140	21,861	952,880	561,026
-30,125	21,883	952,060	560,592
-29,111	21,871	951,218	560,033
-28,096	21,889	950,655	559,739
-27,082	21,888	949,814	559,216
-26,067	21,802	949,351	558,646
-25,052	21,844	948,406	558,203
-24,038	21,838	947,813	557,813
-23,023	21,883	946,985	557,448
-22,009	21,884	946,508	557,146
-20,994	21,852	945,809	556,611
-19,979	21,827	945,246	556,178
-18,965	21,867	944,498	555,845
-17,950	21,824	944,111	555,458
-16,936	21,779	943,171	554,740
-15,921	21,841	942,446	554,487
-14,906	21,747	941,817	553,795
-13,892	21,728	941,238	553,374
-12,877	21,739	940,676	553,057
-11,863	21,736	939,898	552,567
-10,848	21,732	939,559	552,333
-9,833	21,819	939,182	552,365
-8,819	21,815	938,358	551,846
-7,804	21,784	937,703	551,342
-6,790	21,748	937,068	550,833
-5,775	21,761	936,601	550,578
-4,760	21,724	936,045	550,110
-3,746	21,771	935,312	549,808
-2,731	21,627	934,789	549,022
-1,717	21,539	933,821	548,157
-0,702	21,532	933,237	547,770
0,313	21,341	932,721	547,694
1,327	24,419	930,727	556,139
2,342	34,071	794,241	500,223
3,356	31,988	449,774	280,125
4,371	1,123	292,788	151,676
5,386	-3,416	273,841	137,569
6,400	-4,721	268,012	133,423
7,415	-4,924	265,722	132,085
8,429	-4,935	264,454	131,433
9,444	-4,914	263,646	131,039
10,459	-4,718	262,916	130,842
11,473	-5,053	262,592	130,366
12,488	-4,886	261,811	130,117
13,502	-5,057	261,365	129,730
14,517	-5,141	261,014	129,468
15,531	-4,985	260,582	129,383
16,546	-5,091	260,281	129,127
17,561	-5,066	259,777	128,887
18,575	-4,799	259,490	128,973
19,590	-5,058	259,146	128,559
20,604	-4,948	258,903	128,525
21,619	-5,079	258,532	128,213
22,634	-5,072	258,294	128,089
23,648	-5,137	258,050	127,900
24,663	-5,070	257,710	127,779
25,677	-5,056	257,387	127,620
26,692	-4,961	257,165	127,582
27,707	-5,000	256,866	127,388
28,721	-4,925	256,595	127,309
29,736	-4,960	256,327	127,134
30,750	-5,193	256,121	126,815
31,765	-5,118	255,911	126,766
32,780	-5,133	255,766	126,669
33,794	-5,320	255,512	126,367
34,809	-5,025	255,106	126,414
35,823	-5,201	254,897	126,145
36,838	-5,287	254,853	126,037
37,853	-5,004	254,542	126,120
38,867	-5,239	254,420	125,842
39,882	-5,140	254,056	125,738
40,896	-5,042	253,783	125,677
41,911	-5,151	253,594	125,477
42,926	-4,982	253,262	125,448
43,940	-5,159	253,105	125,205
44,955	-5,189	252,900	125,067
45,969	-5,303	252,728	124,872
46,984	-5,332	252,387	124,667
47,999	-5,589	252,332	124,405
49,013	-5,502	251,951	124,282
50,028	-5,783	251,735	123,921
51,042	-5,935	251,500	123,663
52,057	-5,848	251,125	123,542
53,071	-5,547	251,104	123,782
54,086	-5,808	250,968	123,478
55,101	-5,612	250,602	123,456
56,115	-5,388	250,593	123,633
57,130	-5,121	250,607	123,858
58,144	-4,921	250,272	123,854
59,159	-4,857	250,086	123,806
60,174	-4,913	249,951	123,680
61,188	-4,980	249,675	123,475
62,203	-4,976	249,440	123,351
63,217	-4,984	249,235	123,232
64,232	-5,045	249,075	123,090
65,247	-4,972	248,857	123,034
66,261	-5,006	248,592	122,862
67,276	-4,923	248,230	122,743
68,290	-5,279	248,078	122,354
69,305	-5,347	247,783	122,140
70,320	-5,598	247,807	121,927
71,334	-5,011	247,440	122,234
72,349	-4,905	247,351	122,270
73,363	-5,035	247,362	122,154
74,378	-4,862	247,024	122,122
75,393	-5,070	246,875	121,862
76,407	-4,831	246,579	121,907
77,422	-5,136	246,402	121,550
78,436	-4,789	246,082	121,675
79,451	-4,922	245,956	121,489
80,466	-5,011	245,614	121,235
81,480	-5,186	245,435	120,989
82,495	-5,361	245,389	120,808
83,509	-5,264	245,272	120,821
84,524	-5,169	244,963	120,737
85,539	-5,491	244,777	120,365
86,553	-5,224	244,472	120,428
87,568	-5,328	244,325	120,257
88,582	-5,188	244,303	120,354
89,597	-5,270	243,974	120,112
90,611	-5,419	243,934	119,957
91,626	-4,980	243,885	120,289
92,641	-5,002	243,507	120,074
93,655	-5,053	243,417	119,976
94,670	-5,352	243,181	119,600
95,684	-5,268	242,997	119,569
96,699	-5,277	242,895	119,501
97,714	-5,160	242,541	119,413
98,728	-5,321	242,438	119,218
99,743	-5,372	242,194	119,045
100,757	-5,379	241,957	118,912
101,772	-5,399	241,944	118,878
102,787	-5,269	241,669	118,841
103,801	-5,200	241,428	118,768
104,816	-5,123	241,257	118,737
105,830	-5,030	241,167	118,759
106,845	-4,962	240,996	118,720
107,860	-5,014	240,730	118,535
108,874	-5,079	240,526	118,372
109,889	-5,116	240,411	118,274
110,903	-5,175	240,111	118,067
111,918	-5,145	239,964	118,009
112,933	-5,115	239,928	118,005
113,947	-5,276	239,937	117,867
114,962	-5,142	239,659	117,830
115,976	-5,093	239,482	117,772
116,991	-5,184	239,240	117,568
118,006	-5,331	238,982	117,312
119,020	-5,077	239,066	117,550
120,035	-4,974	238,668	117,427
121,049	-4,938	238,767	117,495
122,064	-5,000	238,606	117,355
123,079	-4,997	238,185	117,139
124,093	-5,168	238,091	116,944
125,108	-5,292	237,812	116,696
126,122	-5,351	237,610	116,538
127,137	-5,483	237,524	116,378
128,151	-5,423	237,286	116,300
129,166	-5,256	237,058	116,313
130,181	-5,355	236,846	116,119
131,195	-5,210	236,625	116,117
132,210	-5,176	236,673	116,158
133,224	-5,203	236,533	116,057
134,239	-4,988	236,251	116,081
135,254	-4,793	236,071	116,140
136,268	-5,182	235,888	115,726
137,283	-5,235	235,585	115,525
138,297	-5,421	235,521	115,334
139,312	-5,554	235,349	115,132
140,327	-5,159	235,128	115,331
141,341	-4,740	235,142	115,664
142,356	-4,584	235,058	115,736
143,370	-4,716	234,887	115,536
144,385	-4,608	234,664	115,503
145,400	-4,616	234,576	115,443
146,414	-4,817	234,334	115,152
147,429	-4,741	234,156	115,115
148,443	-4,758	234,047	115,039
149,458	-4,589	233,770	115,026
150,473	-4,745	233,598	114,808
151,487	-4,747	233,462	114,729
152,502	-4,658	233,297	114,708
153,516	-4,735	233,164	114,571
154,531	-4,663	232,986	114,531
155,546	-4,882	232,889	114,299
156,560	-4,993	232,619	114,069
157,575	-5,249	232,535	113,815
158,589	-4,900	232,190	113,911
159,604	-4,733	232,122	114,000
160,619	-4,670	232,007	113,983
161,633	-4,824	231,893	113,796
162,648	-4,636	231,743	113,860
163,662	-4,730	231,573	113,692
164,677	-4,930	231,353	113,416
165,692	-4,779	231,321	113,510
166,706	-4,822	231,127	113,370
167,721	-4,654	231,022	113,441
168,735	-4,663	230,711	113,271
169,750	-4,589	230,597	113,263
170,764	-4,844	230,515	113,012
171,779	-4,772	230,379	112,993
172,794	-4,653	230,169	112,972
173,808	-4,815	229,895	112,701
174,823	-5,276	229,660	112,216
175,837	-5,295	229,474	112,101
176,852	-4,949	229,619	112,431
177,867	-4,894	229,390	112,352
178,881	-4,746	229,282	112,405
179,896	-4,528	229,135	112,492
180,910	-4,808	228,977	112,186
181,925	-4,733	228,793	112,145
182,940	-4,656	228,682	112,140
183,954	-4,616	228,429	112,037
184,969	-4,631	228,234	111,920
185,983	-4,696	228,195	111,840
186,998	-4,689	228,000	111,740
188,013	-4,494	227,926	111,845
189,027	-4,584	227,642	111,626
190,042	-4,541	227,668	111,662
191,056	-4,672	227,434	111,436
192,071	-4,475	227,306	111,515
193,086	-4,499	227,037	111,355
194,100	-4,653	226,856	111,138
195,115	-4,850	226,649	110,875
196,129	-5,224	226,504	110,507
197,144	-2,514	227,276	112,961
198,159	1,362	228,456	116,534
199,173	3,741	228,895	118,586
200,188	3,899	228,901	118,700
201,202	3,977	228,814	118,705
202,217	4,170	228,646	118,756
203,232	4,288	228,593	118,808
204,246	4,579	228,397	118,920
205,261	4,427	228,262	118,722
206,275	4,499	228,203	118,736
207,290	4,653	228,064	118,771
208,304	4,665	227,901	118,685
209,319	4,737	227,721	118,636
210,334	4,389	227,530	118,260
211,348	4,391	227,300	118,131
212,363	3,910	227,141	117,670
213,377	3,734	226,857	117,378
214,392	3,691	226,770	117,289
215,407	3,913	226,602	117,361
216,421	3,916	226,465	117,282
217,436	3,713	226,258	117,009
218,450	3,706	225,875	116,796
219,465	3,686	225,911	116,789
220,480	3,465	225,858	116,583
221,494	3,584	225,667	116,564
222,509	3,436	225,576	116,395
223,523	3,620	225,456	116,462
224,538	3,767	225,146	116,403
225,553	3,607	225,138	116,267
226,567	4,100	224,903	116,508
227,582	4,065	224,937	116,489
228,596	4,280	224,791	116,566
229,611	3,720	224,651	116,060
230,626	3,561	224,279	115,737
231,640	3,786	224,148	115,829
232,655	4,064	224,058	115,982
233,669	4,218	224,192	116,157
234,684	4,623	223,858	116,278
235,699	4,334	223,595	115,914
236,713	3,882	223,426	115,476
237,728	3,693	223,385	115,303
238,742	3,680	223,095	115,134
239,757	3,932	222,917	115,220
240,772	3,633	222,937	114,996
241,786	3,759	222,589	114,900
242,801	3,887	222,678	115,032
243,815	4,256	222,626	115,271
244,830	4,294	222,516	115,232
245,844	3,957	222,224	114,819
246,859	3,974	222,013	114,713
247,874	3,817	221,932	114,543
248,888	4,115	221,842	114,709
249,903	3,989	221,505	114,431
250,917	3,662	221,463	114,156
251,932	3,826	221,219	114,141
252,947	3,911	221,057	114,111
253,961	3,612	220,869	113,782
254,976	3,657	220,872	113,807
255,990	4,172	220,717	114,098
257,005	3,993	220,607	113,898
258,020	3,972	220,559	113,848
259,034	4,151	220,532	113,956
260,049	4,137	220,267	113,799
261,063	4,135	219,989	113,644
262,078	3,922	220,050	113,507
263,093	4,165	219,868	113,583
264,107	3,999	219,809	113,420
265,122	4,066	219,498	113,298
266,136	4,290	219,268	113,335
267,151	4,155	219,213	113,197
268,166	3,916	219,015	112,909
269,180	3,664	218,785	112,595
270,195	3,827	218,569	112,594
271,209	3,637	218,469	112,393
272,224	4,000	218,327	112,575
273,239	3,827	218,324	112,437
274,253	3,710	218,210	112,283
275,268	3,721	218,000	112,173
276,282	3,597	217,891	112,016
277,297	3,444	217,727	111,811
278,312	3,492	217,613	111,778
279,326	3,601	217,501	111,789
280,341	3,697	217,338	111,765
281,355	3,761	217,341	111,803
282,370	3,796	217,010	111,649
283,384	3,382	216,874	111,267
284,399	3,502	216,572	111,190
285,414	3,520	216,622	111,219
286,428	3,953	216,517	111,469
287,443	3,890	216,533	111,421
288,457	3,817	216,238	111,207
289,472	3,769	216,067	111,074
290,487	3,371	215,884	110,683
291,501	3,399	215,584	110,539
292,516	3,489	215,516	110,559
293,530	3,397	215,594	110,523
294,545	3,419	215,288	110,373
295,560	3,554	215,204	110,417
296,574	4,037	215,033	110,666
297,589	4,037	214,991	110,635
298,603	4,071	214,860	110,582
299,618	3,823	214,922	110,426
300,633	3,765	214,718	110,269
301,647	4,022	214,577	110,372
302,662	4,019	214,319	110,227
303,676	4,018	214,227	110,169
304,691	4,278	213,982	110,220
305,706	4,028	214,027	110,054
306,720	3,814	213,827	109,788
307,735	3,911	213,494	109,677
308,749	3,668	213,421	109,456
309,764	3,855	213,396	109,567
310,779	3,846	213,236	109,469
311,793	3,947	213,101	109,462
312,808	3,921	212,996	109,379
313,822	4,091	212,698	109,337
314,837	3,913	212,470	109,084
315,852	3,800	212,523	109,021
316,866	3,609	212,394	108,810
317,881	4,020	212,283	109,035
318,895	4,136	211,998	108,960
319,910	3,794	211,838	108,627
320,925	3,526	211,663	108,338
321,939	3,177	211,485	107,991
322,954	3,420	211,437	108,128
323,968	3,939	211,418	108,475
324,983	3,938	211,303	108,405
325,997	4,050	211,251	108,448
327,012	3,761	211,065	108,140
328,027	3,760	211,019	108,106
329,041	4,252	210,832	108,346
330,056	4,298	210,708	108,305
331,070	3,865	210,548	107,909
332,085	3,541	210,274	107,532
333,100	3,730	210,204	107,619
334,114	3,872	210,148	107,680
335,129	3,902	209,970	107,600
336,143	3,819	209,684	107,386
337,158	3,624	209,724	107,261
338,173	3,688	209,501	107,182
339,187	3,442	209,431	106,965
340,202	3,434	209,237	106,850
341,216	3,431	209,147	106,793
342,231	3,840	208,895	106,940
343,246	3,606	208,821	106,730
344,260	3,902	208,717	106,873
345,275	3,546	208,619	106,565
346,289	4,086	208,493	106,867
347,304	4,058	208,480	106,831
348,319	3,820	208,243	106,535
349,333	3,673	208,077	106,339
350,348	3,799	208,033	106,394
351,362	3,906	207,891	106,385
352,377	3,969	207,854	106,401
353,392	3,893	207,554	106,185
354,406	3,930	207,580	106,215
355,421	194,171	1345,741	1433,643
356,435	154,906	1484,509	1433,739
