DTS Sentinel unit serial number:	SN410029Multiplexer serial number:	ORYXHardware model number:	OX2-SRSoftware version number:	ORYX F/W v4,00 Oryx Data Collector v3.7.2.0data status	okinstallation	B6 Nyhavnadifferential loss correction	single-endedforward channel	channel 2reverse channel	N/Adate	2023/12/10time	05:10:08forward acquisition time	300,00reverse acquisition time	0,00gamma	499,1914k internal	0,3125k external	0,3125temperature offset calibration	1,0000default loss term (dB/km)	0,3820temperature slope calibration	1,0000multiplexer offset coefficient	1,0000multiplexer slope coefficient	1,0000fibre end	0,00T internal ref (°C)	22,37T ext. ref 1 (°C)	6,42T ext. ref 2 (°C)	6,40length (m)	temperature (°C)	Stokes	anti-Stokes-744,400	52,232	-0,057	-0,040
-743,385	72,054	-0,137	0,106
-742,371	-32,108	0,077	0,032
-741,356	341,551	-0,067	0,098
-740,342	147,030	0,123	-0,123
-739,327	0,640	-0,181	0,096
-738,312	800,000	0,058	-0,156
-737,298	-92,655	-0,185	-0,038
-736,283	-35,070	0,055	-0,022
-735,269	-28,683	-0,120	0,051
-734,254	-200,000	-0,001	-0,099
-733,239	-82,627	-0,484	-0,116
-732,225	62,452	0,139	-0,103
-731,210	-200,000	0,011	0,044
-730,196	800,000	0,042	-0,096
-729,181	-92,625	0,079	-0,016
-728,167	168,964	0,093	-0,098
-727,152	231,426	-0,021	0,026
-726,137	-200,000	-0,013	-0,060
-725,123	-117,809	-0,070	-0,009
-724,108	204,948	-0,066	-0,076
-723,094	-200,000	-0,042	-0,149
-722,079	128,988	0,023	0,022
-721,064	800,000	-0,015	0,032
-720,050	37,940	0,205	-0,135
-719,035	187,736	-0,063	-0,071
-718,021	-54,237	-0,097	-0,033
-717,006	118,574	-0,116	-0,106
-715,991	28,777	0,041	-0,026
-714,977	800,000	-0,072	-0,167
-713,962	-37,554	-0,064	-0,025
-712,948	62,647	0,110	-0,081
-711,933	106,329	0,094	-0,083
-710,918	105,577	-0,061	0,054
-709,904	308,937	0,100	-0,140
-708,889	143,731	-0,147	-0,146
-707,875	-164,919	-0,135	-0,004
-706,860	-107,508	-0,230	-0,037
-705,845	-86,910	0,062	0,014
-704,831	800,000	0,022	0,068
-703,816	-6,441	0,048	-0,024
-702,802	227,938	0,043	0,052
-701,787	800,000	-0,026	0,071
-700,772	62,338	-0,196	-0,145
-699,758	-8,035	-0,225	-0,113
-698,743	-156,198	0,120	-0,006
-697,729	-196,994	0,111	-0,001
-696,714	638,988	-0,035	0,066
-695,699	-170,877	-0,083	0,002
-694,685	-53,211	0,117	-0,040
-693,670	800,000	0,027	-0,083
-692,656	-99,307	0,065	-0,012
-691,641	-200,000	0,028	0,174
-690,627	-200,000	-0,018	0,103
-689,612	477,051	0,073	0,123
-688,597	-51,151	-0,059	-0,020
-687,583	10,348	0,047	0,027
-686,568	-39,778	-0,140	-0,054
-685,554	102,021	0,064	-0,056
-684,539	-200,000	-0,015	0,062
-683,524	200,275	0,043	0,049
-682,510	38,948	-0,111	0,073
-681,495	179,939	0,072	-0,078
-680,481	800,000	-0,024	-0,071
-679,466	-200,000	0,021	-0,148
-678,451	800,000	-0,029	-0,093
-677,437	-10,659	-0,078	-0,038
-676,422	800,000	-0,034	-0,106
-675,408	-200,000	-0,021	0,116
-674,393	315,358	-0,018	0,026
-673,378	248,581	-0,111	-0,139
-672,364	-200,000	-0,001	-0,038
-671,349	35,208	0,020	0,013
-670,335	95,920	-0,040	0,034
-669,320	77,838	-0,110	0,087
-668,305	-59,280	0,077	0,025
-667,291	-24,618	-0,083	-0,037
-666,276	466,309	-0,049	-0,082
-665,262	-45,662	-0,014	0,005
-664,247	-200,000	0,016	-0,144
-663,232	-133,371	0,098	-0,009
-662,218	73,975	-0,046	0,036
-661,203	-200,000	-0,001	0,059
-660,189	626,642	0,068	-0,128
-659,174	7,118	-0,079	-0,044
-658,159	-200,000	-0,001	-0,043
-657,145	-200,000	-0,013	-0,095
-656,130	-200,000	0,008	-0,053
-655,116	-117,029	0,115	0,015
-654,101	312,990	-0,018	0,025
-653,086	159,039	-0,058	-0,060
-652,072	-107,106	-0,155	0,025
-651,057	1,081	0,024	0,013
-650,043	-120,829	-0,030	-0,004
-649,028	800,000	-0,014	-0,043
-648,014	-78,189	0,038	-0,010
-646,999	-200,000	-0,020	0,066
-645,984	324,275	0,060	0,086
-644,970	142,767	-0,057	0,056
-643,955	14,483	-0,019	0,011
-642,941	-200,000	-0,016	0,053
-641,926	164,823	0,070	-0,073
-640,911	446,177	-0,033	0,054
-639,897	90,757	-0,111	0,093
-638,882	-24,907	0,113	-0,049
-637,868	-155,466	0,009	0,000
-636,853	453,942	-0,016	0,027
-635,838	4,879	-0,212	-0,115
-634,824	-200,000	-0,026	-0,144
-633,809	80,633	-0,067	-0,054
-632,795	58,974	0,016	0,012
-631,780	800,000	-0,019	0,049
-630,765	257,449	-0,049	-0,063
-629,751	-200,000	-0,028	-0,136
-628,736	-200,000	0,024	-0,254
-627,722	-114,329	-0,238	0,034
-626,707	-146,646	-0,075	0,005
-625,692	-200,000	0,031	0,131
-624,678	9,989	0,051	-0,029
-623,663	397,192	0,045	0,070
-622,649	56,125	-0,019	0,014
-621,634	-200,000	-0,017	-0,159
-620,619	148,565	0,094	-0,094
-619,605	-38,640	0,025	-0,010
-618,590	32,557	0,063	0,040
-617,576	322,675	-0,096	0,135
-616,561	30,190	-0,110	0,069
-615,546	97,125	-0,184	-0,157
-614,532	-20,283	-0,115	-0,052
-613,517	-200,000	0,004	-0,041
-612,503	293,841	-0,076	-0,103
-611,488	-26,097	-0,110	-0,048
-610,474	-200,000	0,025	-0,085
-609,459	-30,514	-0,104	-0,044
-608,444	800,000	0,017	0,056
-607,430	800,000	0,033	0,075
-606,415	-200,000	-0,010	0,072
-605,401	73,740	0,113	-0,088
-604,386	-126,927	0,072	-0,008
-603,371	34,287	0,022	-0,014
-602,357	800,000	0,033	0,068
-601,342	107,598	0,047	0,041
-600,328	367,117	0,044	-0,065
-599,313	508,124	0,009	-0,016
-598,298	120,135	-0,085	-0,078
-597,284	800,000	-0,023	0,069
-596,269	-200,000	0,010	-0,039
-595,255	-106,401	0,153	0,025
-594,240	-38,142	-0,046	-0,018
-593,225	395,685	-0,099	-0,153
-592,211	-200,000	-0,036	-0,140
-591,196	-60,504	-0,079	0,025
-590,182	427,718	-0,043	-0,068
-589,167	98,886	-0,100	0,086
-588,152	-200,000	-0,004	-0,107
-587,138	-200,000	0,005	-0,020
-586,123	-58,529	-0,193	-0,062
-585,109	800,000	-0,036	-0,076
-584,094	-200,000	0,046	-0,188
-583,079	118,606	0,054	0,050
-582,065	108,448	0,079	-0,070
-581,050	620,061	0,026	-0,049
-580,036	-182,521	-0,096	-0,001
-579,021	800,000	-0,013	-0,032
-578,006	161,252	-0,053	-0,055
-576,992	-100,325	0,053	0,010
-575,977	-49,806	0,101	-0,035
-574,963	-200,000	0,008	0,094
-573,948	70,377	0,060	-0,046
-572,934	144,522	-0,117	-0,115
-571,919	-114,850	0,058	0,008
-570,904	206,851	0,035	-0,040
-569,890	-133,926	-0,178	0,016
-568,875	-200,000	-0,047	-0,155
-567,861	-3,115	0,044	-0,023
-566,846	209,195	-0,136	0,158
-565,831	226,746	-0,032	0,038
-564,817	800,000	-0,030	0,081
-563,802	-149,450	-0,026	-0,001
-562,788	-98,159	-0,041	0,008
-561,773	78,745	0,068	0,054
-560,758	-94,490	0,130	-0,026
-559,744	-163,196	0,056	0,002
-558,729	4,962	-0,057	-0,031
-557,715	41,645	-0,053	-0,036
-556,700	-200,000	0,003	-0,127
-555,685	621,765	0,061	0,114
-554,671	-88,275	0,116	0,025
-553,656	-34,402	0,082	-0,033
-552,642	-136,328	-0,137	0,012
-551,627	32,332	0,039	-0,025
-550,612	575,669	0,033	-0,060
-549,598	-200,000	-0,002	-0,049
-548,583	800,000	0,049	-0,111
-547,569	45,880	0,073	-0,050
-546,554	80,401	0,035	0,028
-545,539	800,000	0,035	0,091
-544,525	800,000	0,046	-0,111
-543,510	114,460	0,038	-0,034
-542,496	-113,764	-0,071	-0,010
-541,481	-20,638	-0,053	-0,024
-540,466	11,378	0,047	-0,027
-539,452	-200,000	-0,018	0,069
-538,437	98,523	0,057	-0,049
-537,423	105,616	-0,005	-0,004
-536,408	-154,737	-0,092	-0,004
-535,393	-11,541	-0,185	-0,089
-534,379	-132,356	-0,132	-0,012
-533,364	185,186	-0,023	-0,025
-532,350	-105,472	0,043	-0,007
-531,335	-14,773	-0,101	-0,048
-530,321	-200,000	0,005	0,092
-529,306	305,357	0,029	0,040
-528,291	-8,257	0,075	0,037
-527,277	9,029	-0,139	-0,077
-526,262	712,638	-0,025	-0,049
-525,248	13,880	0,029	0,017
-524,233	-200,000	0,010	0,138
-523,218	-153,162	0,036	0,002
-522,204	51,623	-0,135	-0,094
-521,189	-34,761	-0,072	-0,029
-520,175	105,619	0,153	-0,133
-519,160	94,134	-0,080	-0,067
-518,145	20,083	-0,097	0,058
-517,131	-56,288	0,119	0,039
-516,116	-92,337	0,072	-0,015
-515,102	118,402	0,035	-0,032
-514,087	-18,913	0,172	-0,079
-513,072	800,000	-0,036	-0,079
-512,058	-91,819	-0,016	-0,003
-511,043	8,253	0,043	-0,024
-510,029	37,149	0,011	0,007
-509,014	-200,000	0,024	-0,111
-507,999	-3,692	0,028	0,014
-506,985	-15,909	0,105	-0,049
-505,970	800,000	-0,017	-0,035
-504,956	-64,566	-0,117	-0,035
-503,941	-127,796	0,084	0,009
-502,926	-200,000	0,011	0,175
-501,912	102,224	0,062	-0,053
-500,897	-156,172	0,042	-0,002
-499,883	800,000	0,014	-0,041
-498,868	226,637	-0,073	-0,088
-497,853	-200,000	-0,023	-0,136
-496,839	95,044	-0,049	0,041
-495,824	-27,508	-0,124	-0,053
-494,810	110,225	-0,036	-0,032
-493,795	288,114	-0,024	0,032
-492,781	800,000	0,016	-0,050
-491,766	-93,011	-0,152	0,031
-490,751	-200,000	-0,027	-0,227
-489,737	-200,000	-0,004	0,029
-488,722	41,856	0,059	-0,040
-487,708	-161,626	0,064	0,002
-486,693	-200,000	0,003	0,089
-485,678	-106,870	-0,056	-0,009
-484,664	-200,000	0,025	-0,121
-483,649	-12,895	0,030	0,015
-482,635	800,000	-0,013	0,035
-481,620	211,261	0,028	0,032
-480,605	12,850	0,071	0,041
-479,591	50,768	0,105	-0,074
-478,576	-56,942	0,042	-0,014
-477,562	165,181	-0,035	0,037
-476,547	422,406	-0,015	-0,024
-475,532	-6,138	-0,006	-0,003
-474,518	-101,623	-0,117	0,021
-473,503	280,426	0,127	0,167
-472,489	-38,303	-0,070	0,027
-471,474	-85,376	0,048	-0,011
-470,459	-94,745	-0,104	0,021
-469,445	-147,720	-0,084	-0,005
-468,430	52,066	0,046	-0,032
-467,416	-56,458	-0,085	-0,028
-466,401	-200,000	0,001	-0,016
-465,386	723,568	0,046	0,092
-464,372	-200,000	0,007	-0,099
-463,357	-30,728	0,056	-0,023
-462,343	800,000	-0,020	-0,052
-461,328	-200,000	-0,007	0,133
-460,313	-200,000	0,009	0,133
-459,299	-96,384	0,059	0,011
-458,284	89,984	0,065	0,053
-457,270	-127,393	0,096	-0,010
-456,255	449,398	0,051	-0,083
-455,241	-121,356	-0,156	0,019
-454,226	-200,000	0,031	-0,102
-453,211	800,000	0,035	-0,110
-452,197	119,835	0,023	0,021
-451,182	504,763	0,029	-0,050
-450,168	309,243	-0,059	0,081
-449,153	-19,663	0,072	0,032
-448,138	148,581	0,040	0,040
-447,124	23,126	-0,022	0,013
-446,109	-34,090	-0,094	0,038
-445,095	133,114	0,056	0,053
-444,080	-101,902	0,126	-0,022
-443,065	800,000	-0,027	0,059
-442,051	6,183	-0,081	-0,044
-441,036	-86,983	0,046	-0,010
-440,022	-121,941	-0,053	-0,006
-439,007	-91,721	-0,041	0,009
-437,992	-200,000	-0,011	0,044
-436,978	134,747	0,066	0,063
-435,963	115,827	-0,095	-0,085
-434,949	652,742	0,053	0,100
-433,934	-173,877	0,052	0,001
-432,919	-179,962	0,112	0,002
-431,905	58,650	-0,053	-0,038
-430,890	800,000	-0,037	-0,081
-429,876	-142,178	0,114	-0,008
-428,861	-200,000	-0,021	0,103
-427,846	-131,284	0,099	0,010
-426,832	66,692	-0,096	-0,072
-425,817	800,000	-0,024	0,057
-424,803	-200,000	-0,023	-0,110
-423,788	800,000	0,026	-0,057
-422,773	19,841	0,074	-0,044
-421,759	280,082	-0,089	0,118
-420,744	-200,000	0,045	-0,168
-419,730	95,969	0,012	-0,010
-418,715	800,000	-0,028	-0,058
-417,701	-100,693	-0,065	0,012
-416,686	110,274	0,108	-0,096
-415,671	-200,000	-0,007	0,064
-414,657	800,000	0,034	0,077
-413,642	-200,000	-0,028	0,202
-412,628	-139,757	-0,166	-0,013
-411,613	-200,000	-0,011	-0,042
-410,598	800,000	-0,031	0,081
-409,584	639,375	-0,079	0,149
-408,569	-76,187	0,114	0,029
-407,555	-28,106	-0,097	-0,041
-406,540	129,151	-0,083	-0,078
-405,525	-24,265	-0,041	-0,018
-404,511	0,838	-0,075	0,039
-403,496	441,892	0,012	-0,019
-402,482	102,804	-0,099	-0,085
-401,467	-138,759	0,136	-0,011
-400,452	85,925	-0,063	0,051
-399,438	191,510	-0,053	0,059
-398,423	489,203	0,068	-0,114
-397,409	800,000	-0,038	-0,105
-396,394	-200,000	0,007	-0,176
-395,379	-67,661	0,083	-0,024
-394,365	-200,000	-0,011	-0,042
-393,350	81,317	0,088	-0,070
-392,336	-110,557	0,058	0,009
-391,321	-48,076	0,054	-0,019
-390,306	-148,034	0,082	0,005
-389,292	-200,000	0,030	0,112
-388,277	-153,274	0,127	-0,006
-387,263	-35,792	0,080	-0,032
-386,248	257,768	0,110	0,139
-385,233	800,000	-0,025	-0,053
-384,219	315,183	-0,112	-0,155
-383,204	96,593	-0,075	-0,063
-382,190	-200,000	0,014	-0,050
-381,175	-200,000	0,007	0,055
-380,160	-128,274	-0,097	0,010
-379,146	594,596	-0,031	0,056
-378,131	182,258	-0,023	0,025
-377,117	-15,788	-0,140	-0,065
-376,102	-200,000	0,008	0,173
-375,088	125,970	-0,073	-0,068
-374,073	-25,778	0,180	0,078
-373,058	-19,819	0,124	0,056
-372,044	800,000	0,067	0,179
-371,029	800,000	0,032	0,082
-370,015	-80,884	0,070	0,017
-369,000	-200,000	0,015	0,071
-367,985	-151,174	0,082	0,004
-366,971	800,000	-0,050	-0,118
-365,956	28,641	0,067	0,041
-364,942	-26,776	0,164	0,070
-363,927	-200,000	0,043	-0,142
-362,912	29,940	-0,097	0,061
-361,898	450,937	-0,021	0,034
-360,883	140,403	0,102	-0,099
-359,869	800,000	-0,038	-0,110
-358,854	675,294	0,086	-0,164
-357,839	277,854	-0,022	-0,029
-356,825	148,864	0,070	0,069
-355,810	-200,000	0,016	0,058
-354,796	800,000	0,018	0,038
-353,781	267,344	-0,072	0,093
-352,766	541,727	0,091	-0,160
-351,752	-69,051	-0,158	-0,044
-350,737	643,248	0,066	0,123
-349,723	800,000	-0,027	0,060
-348,708	162,379	0,007	-0,007
-347,693	-200,000	0,011	0,043
-346,679	-81,090	0,088	0,021
-345,664	-50,648	-0,132	0,045
-344,650	-200,000	-0,001	0,186
-343,635	83,089	-0,040	-0,032
-342,620	-200,000	-0,017	0,139
-341,606	800,000	0,051	0,131
-340,591	160,063	-0,047	0,048
-339,577	-86,705	-0,191	0,042
-338,562	193,573	-0,062	-0,069
-337,548	327,095	0,018	-0,026
-336,533	-200,000	-0,007	0,035
-335,518	-108,520	0,023	0,004
-334,504	387,414	-0,051	-0,077
-333,489	436,611	0,030	-0,048
-332,475	147,141	0,039	0,038
-331,460	-200,000	0,017	-0,126
-330,445	-200,000	-0,026	-0,127
-329,431	-8,922	0,052	0,025
-328,416	165,675	0,087	0,090
-327,402	-200,000	0,000	0,042
-326,387	31,078	-0,017	0,011
-325,372	-107,967	0,069	0,011
-324,358	-70,289	-0,040	-0,011
-323,343	69,861	-0,066	0,050
-322,329	92,915	0,124	-0,103
-321,314	-200,000	-0,013	0,069
-320,299	-200,000	0,018	0,085
-319,285	239,335	0,055	-0,067
-318,270	-96,520	0,103	0,020
-317,256	-76,384	-0,062	-0,016
-316,241	200,282	0,018	0,020
-315,226	155,752	-0,075	-0,076
-314,212	-171,285	0,040	-0,001
-313,197	588,300	-0,048	0,088
-312,183	-45,380	0,111	0,040
-311,168	36,710	-0,120	0,078
-310,153	136,402	-0,074	-0,071
-309,139	-200,000	-0,032	-0,219
-308,124	142,639	-0,012	0,012
-307,110	800,000	-0,040	0,110
-306,095	-85,864	0,009	0,002
-305,080	-125,242	0,044	-0,005
-304,066	-200,000	0,003	0,068
-303,051	-48,559	0,035	0,012
-302,037	759,177	0,032	-0,064
-301,022	87,625	0,070	0,056
-300,008	36,651	-0,136	0,088
-298,993	-144,430	0,136	-0,009
-297,978	-200,000	0,003	-0,072
-296,964	-200,000	-0,005	0,079
-295,949	467,613	-0,068	0,113
-294,935	-200,000	0,000	0,043
-293,920	-197,410	0,068	-0,000
-292,905	35,238	0,021	-0,014
-291,891	-162,337	-0,111	-0,004
-290,876	-200,000	-0,009	0,074
-289,862	-3,578	-0,062	0,031
-288,847	11,406	-0,037	-0,021
-287,832	-200,000	0,011	-0,158
-286,818	196,167	-0,012	0,013
-285,803	-196,460	-0,072	0,000
-284,789	800,000	0,065	0,177
-283,774	252,590	0,086	0,108
-282,759	-200,000	-0,034	-0,136
-281,745	-77,872	0,015	-0,004
-280,730	81,267	-0,065	-0,052
-279,716	137,825	0,005	-0,005
-278,701	-4,323	-0,064	-0,032
-277,686	-200,000	0,010	0,192
-276,672	-57,860	-0,090	-0,029
-275,657	800,000	-0,053	-0,157
-274,643	-162,977	0,099	0,003
-273,628	800,000	-0,030	0,066
-272,613	334,021	-0,087	0,124
-271,599	-16,295	-0,096	0,044
-270,584	-149,479	0,055	-0,003
-269,570	177,221	-0,123	0,131
-268,555	-200,000	0,054	0,191
-267,540	-200,000	-0,015	-0,134
-266,526	800,000	0,040	0,083
-265,511	-53,062	0,073	0,025
-264,497	-200,000	-0,014	0,047
-263,482	-200,000	0,003	0,101
-262,467	-97,372	-0,034	0,006
-261,453	-200,000	0,044	0,230
-260,438	387,069	-0,049	-0,075
-259,424	-80,781	0,127	-0,031
-258,409	-99,986	-0,075	0,013
-257,395	23,962	-0,053	0,032
-256,380	-200,000	0,009	0,065
-255,365	189,014	-0,082	-0,090
-254,351	-15,656	0,066	0,030
-253,336	58,453	-0,103	0,074
-252,322	-200,000	0,006	-0,023
-251,307	208,074	0,075	0,085
-250,292	-152,226	-0,083	-0,004
-249,278	73,674	0,096	0,073
-248,263	-30,654	0,121	0,050
-247,249	133,824	0,040	0,037
-246,234	-200,000	-0,114	0,000
-245,219	-10,839	-0,133	0,064
-244,205	63,799	-0,030	-0,022
-243,190	62,401	0,159	-0,116
-242,176	800,000	0,013	0,032
-241,161	-193,144	-0,065	-0,000
-240,146	76,381	0,069	0,053
-239,132	-150,017	0,142	-0,008
-238,117	-67,831	0,121	0,034
-237,103	-49,250	-0,120	-0,042
-236,088	-58,381	-0,191	0,060
-235,073	-140,772	0,086	-0,006
-234,059	39,287	0,080	-0,052
-233,044	327,642	-0,081	0,114
-232,030	-44,264	0,032	0,012
-231,015	-200,000	-0,011	-0,064
-230,000	-18,525	0,146	0,066
-228,986	340,389	0,093	0,133
-227,971	331,784	0,056	0,079
-226,957	-200,000	0,014	0,056
-225,942	215,795	0,082	0,096
-224,927	-74,116	-0,061	-0,016
-223,913	214,925	0,049	0,057
-222,898	800,000	-0,059	0,136
-221,884	-200,000	0,014	-0,053
-220,869	-26,919	0,042	0,018
-219,855	-139,545	0,074	0,006
-218,840	-87,257	-0,076	0,017
-217,825	800,000	-0,015	0,044
-216,811	113,189	-0,058	-0,051
-215,796	-84,118	-0,094	-0,022
-214,782	-11,348	-0,011	-0,005
-213,767	61,199	-0,065	-0,047
-212,752	207,501	0,067	0,077
-211,738	-200,000	0,005	0,054
-210,723	80,462	0,059	0,046
-209,709	708,585	-0,043	-0,083
-208,694	609,204	0,051	-0,093
-207,679	-103,290	-0,066	0,011
-206,665	-200,000	-0,004	-0,020
-205,650	51,432	0,032	0,022
-204,636	800,000	0,059	0,139
-203,621	-200,000	-0,018	0,132
-202,606	-200,000	0,013	0,123
-201,592	-200,000	0,005	-0,036
-200,577	1,385	-0,115	0,060
-199,563	546,405	0,077	0,135
-198,548	800,000	0,017	-0,052
-197,533	-1,324	0,073	0,037
-196,519	119,197	0,107	-0,097
-195,504	237,255	-0,028	0,034
-194,490	-200,000	0,006	-0,145
-193,475	-67,490	0,081	0,023
-192,460	-152,467	-0,071	-0,004
-191,446	272,834	-0,032	-0,042
-190,431	-158,975	-0,021	-0,001
-189,417	-200,000	0,003	-0,060
-188,402	800,000	-0,025	-0,054
-187,387	-121,027	0,063	0,008
-186,373	-53,226	0,061	0,020
-185,358	13,425	0,115	-0,065
-184,344	-200,000	0,016	0,117
-183,329	269,852	0,030	0,039
-182,315	-48,908	0,089	0,031
-181,300	753,844	-0,017	0,033
-180,285	193,729	-0,029	0,032
-179,271	-23,409	0,144	-0,063
-178,256	-152,591	-0,126	-0,006
-177,242	260,169	-0,064	0,081
-176,227	-200,000	0,036	0,134
-175,212	-200,000	-0,055	0,190
-174,198	-200,000	-0,004	0,188
-173,183	-62,614	-0,140	-0,042
-172,169	800,000	0,030	0,079
-171,154	-200,000	0,010	-0,125
-170,139	-200,000	0,015	0,141
-169,125	415,836	0,064	-0,100
-168,110	-200,000	-0,018	-0,096
-167,096	8,778	0,091	-0,050
-166,081	139,555	0,076	0,073
-165,066	177,872	0,055	-0,058
-164,052	-1,015	0,043	-0,022
-163,037	556,419	0,039	-0,068
-162,023	-44,874	0,077	-0,028
-161,008	-200,000	0,005	-0,029
-159,993	-200,000	0,024	-0,164
-158,979	26,043	-0,047	-0,029
-157,964	382,249	-0,099	0,149
-156,950	-200,000	0,031	-0,117
-155,935	119,008	0,075	0,068
-154,920	800,000	-0,042	-0,101
-153,906	-200,000	0,002	-0,126
-152,891	800,000	-0,008	0,020
-151,877	20,196	-0,152	0,089
-150,862	254,529	-0,050	-0,062
-149,847	457,240	0,021	0,034
-148,833	-51,319	0,078	-0,026
-147,818	800,000	-0,054	-0,119
-146,804	800,000	-0,031	-0,065
-145,789	800,000	-0,050	0,153
-144,775	77,166	-0,043	0,033
-143,760	723,714	0,035	-0,068
-142,745	-200,000	-0,006	0,023
-141,731	-200,000	-0,006	0,162
-140,716	80,121	-0,078	0,061
-139,702	-200,000	-0,018	-0,070
-138,687	-115,998	0,070	-0,009
-137,672	800,000	-0,062	0,174
-136,658	69,015	0,089	0,066
-135,643	-15,056	0,049	-0,023
-134,629	-200,000	0,016	-0,082
-133,614	21,532	0,122	0,072
-132,599	13,242	0,049	-0,028
-131,585	-83,744	-0,014	-0,003
-130,570	800,000	-0,081	-0,189
-129,556	-71,457	-0,119	-0,032
-128,541	-200,000	0,015	-0,128
-127,526	13,806	0,126	0,071
-126,512	-200,000	-0,025	0,086
-125,497	634,146	-0,026	0,049
-124,483	-53,233	0,058	-0,019
-123,468	334,286	0,041	0,058
-122,453	-109,849	-0,094	-0,014
-121,439	-119,545	-0,044	0,005
-120,424	-200,000	-0,002	0,142
-119,410	800,000	0,037	0,080
-118,395	461,217	-0,037	-0,060
-117,380	-200,000	-0,017	0,068
-116,366	125,624	-0,071	-0,065
-115,351	800,000	0,023	0,068
-114,337	115,870	0,040	0,036
-113,322	-46,750	0,110	0,039
-112,307	-107,196	0,091	-0,014
-111,293	-110,964	0,061	0,009
-110,278	-84,769	0,119	0,027
-109,264	-200,000	-0,002	-0,024
-108,249	-200,000	-0,004	-0,065
-107,234	252,946	-0,111	-0,138
-106,220	-3,431	0,109	-0,055
-105,205	-164,721	-0,085	0,003
-104,191	146,608	0,078	-0,076
-103,176	800,000	0,057	0,147
-102,162	800,000	0,036	0,087
-101,147	190,392	0,078	0,086
-100,132	114,736	-0,091	-0,080
-99,118	-75,722	0,089	-0,023
-98,103	147,055	-0,108	0,105
-97,089	81,815	-0,025	-0,020
-96,074	107,069	0,065	0,056
-95,059	-200,000	0,071	0,229
-94,045	-81,238	0,050	0,012
-93,030	43,509	0,041	-0,027
-92,016	81,612	-0,062	0,049
-91,001	-200,000	-0,002	-0,032
-89,986	81,880	0,088	0,069
-88,972	58,767	-0,031	0,022
-87,957	-200,000	-0,011	0,133
-86,943	52,916	-0,061	0,042
-85,928	-200,000	-0,029	0,188
-84,913	661,219	0,053	0,100
-83,899	-148,120	-0,064	-0,004
-82,884	154,997	0,110	-0,110
-81,870	56,969	-0,079	-0,056
-80,855	250,556	0,035	0,043
-79,840	-169,393	-0,096	-0,002
-78,826	800,000	-0,055	-0,142
-77,811	800,000	-0,064	-0,206
-76,797	-200,000	-0,031	0,119
-75,782	-151,676	-0,113	-0,006
-74,767	-200,000	0,008	-0,030
-73,753	-149,536	-0,100	-0,006
-72,738	343,537	0,048	0,068
-71,724	-200,000	0,002	-0,014
-70,709	337,776	-0,017	-0,024
-69,694	-157,509	-0,167	-0,007
-68,680	478,885	0,034	-0,055
-67,665	-200,000	0,001	-0,020
-66,651	800,000	0,030	-0,062
-65,636	-200,000	-0,015	-0,113
-64,622	-200,000	-0,019	0,109
-63,607	-6,614	-0,089	-0,044
-62,592	375,507	-0,027	0,039
-61,578	158,423	-0,074	-0,075
-60,563	-96,564	-0,079	-0,015
-59,549	-134,528	-0,069	0,006
-58,534	-151,274	-1,274	-0,068
-57,519	546,932	-0,769	-1,339
-56,505	-200,000	-0,935	-4,470
-55,490	24,615	0,680	-0,407
-54,476	800,000	5,021	11,762
-53,461	-200,000	13,460	252,275
-52,446	-200,000	689,184	2255,614
-51,432	588,773	1622,385	2910,731
-50,417	119,651	1635,145	1468,893
-49,403	73,200	1289,066	976,494
-48,388	38,191	1024,029	659,635
-47,373	24,351	981,604	586,839
-46,359	23,573	971,340	578,129
-45,344	22,610	967,003	572,380
-44,330	22,594	965,432	571,375
-43,315	22,488	964,137	570,242
-42,300	22,421	963,188	569,441
-41,286	22,414	962,326	568,886
-40,271	22,360	961,299	568,078
-39,257	22,390	960,402	567,625
-38,242	22,397	959,276	566,958
-37,227	22,421	958,547	566,585
-36,213	22,352	957,820	565,907
-35,198	22,359	956,763	565,286
-34,184	22,352	956,297	564,964
-33,169	22,373	955,266	564,400
-32,154	22,429	954,516	564,115
-31,140	22,454	953,335	563,476
-30,125	22,410	952,890	563,049
-29,111	22,419	951,889	562,462
-28,096	22,402	951,132	561,939
-27,082	22,419	950,502	561,600
-26,067	22,382	949,828	561,059
-25,052	22,427	949,045	560,720
-24,038	22,418	948,447	560,313
-23,023	22,346	947,928	559,755
-22,009	22,428	947,151	559,536
-20,994	22,451	946,613	559,269
-19,979	22,428	945,957	558,787
-18,965	22,474	945,325	558,539
-17,950	22,447	944,674	558,044
-16,936	22,354	944,095	557,386
-15,921	22,303	943,239	556,696
-14,906	22,261	942,636	556,182
-13,892	22,275	942,056	555,864
-12,877	22,234	941,388	555,317
-11,863	22,231	940,834	554,959
-10,848	22,292	940,360	554,849
-9,833	22,375	939,778	554,747
-8,819	22,349	939,238	554,326
-7,804	22,305	938,451	553,699
-6,790	22,307	937,743	553,265
-5,775	22,334	937,216	553,018
-4,760	22,384	936,619	552,804
-3,746	22,233	936,122	552,009
-2,731	22,180	935,260	551,312
-1,717	22,173	934,505	550,824
-0,702	22,153	933,970	550,423
0,313	21,942	933,278	550,183
1,327	24,973	931,321	558,502
2,342	34,435	795,816	502,425
3,356	32,489	450,953	281,749
4,371	1,693	292,853	152,357
5,386	-2,945	273,926	138,124
6,400	-4,146	268,101	134,064
7,415	-4,556	265,826	132,539
8,429	-4,136	264,579	132,288
9,444	-4,286	263,809	131,755
10,459	-4,071	263,014	131,542
11,473	-4,294	262,401	131,022
12,488	-4,395	262,122	130,779
13,502	-4,489	261,417	130,331
14,517	-4,610	261,094	130,050
15,531	-4,608	260,728	129,857
16,546	-4,368	260,199	129,798
17,561	-4,373	259,804	129,585
18,575	-4,285	259,438	129,469
19,590	-4,455	259,254	129,214
20,604	-4,585	259,061	128,990
21,619	-4,510	258,587	128,809
22,634	-4,484	258,135	128,595
23,648	-4,684	258,015	128,347
24,663	-4,659	257,705	128,204
25,677	-4,532	257,406	128,156
26,692	-4,481	257,160	128,067
27,707	-4,647	256,880	127,769
28,721	-4,563	256,558	127,672
29,736	-4,688	256,410	127,477
30,750	-4,722	256,143	127,302
31,765	-4,523	255,857	127,325
32,780	-4,512	255,727	127,258
33,794	-4,397	255,431	127,201
34,809	-4,665	255,194	126,836
35,823	-4,788	255,014	126,627
36,838	-4,704	254,625	126,496
37,853	-4,708	254,555	126,447
38,867	-4,527	254,281	126,457
39,882	-4,805	254,199	126,162
40,896	-4,629	253,900	126,157
41,911	-4,613	253,607	126,013
42,926	-4,740	253,349	125,764
43,940	-4,662	253,186	125,740
44,955	-4,697	252,918	125,565
45,969	-4,842	252,814	125,376
46,984	-5,215	252,531	124,900
47,999	-5,209	252,294	124,777
49,013	-5,130	251,959	124,668
50,028	-5,319	251,669	124,351
51,042	-5,369	251,434	124,180
52,057	-5,273	251,293	124,182
53,071	-5,508	251,043	123,845
54,086	-5,348	250,958	123,930
55,101	-5,146	250,779	124,005
56,115	-5,058	250,659	124,010
57,130	-4,659	250,569	124,297
58,144	-4,431	250,505	124,451
59,159	-4,189	250,043	124,418
60,174	-4,353	249,882	124,187
61,188	-4,670	249,705	123,816
62,203	-4,554	249,480	123,793
63,217	-4,534	249,238	123,679
64,232	-4,359	248,923	123,661
65,247	-4,379	248,879	123,611
66,261	-4,610	248,777	123,352
67,276	-4,605	248,248	123,083
68,290	-4,861	248,023	122,742
69,305	-5,121	247,871	122,435
70,320	-5,096	247,759	122,390
71,334	-4,815	247,587	122,533
72,349	-4,432	247,534	122,821
73,363	-4,350	247,264	122,746
74,378	-4,369	247,077	122,625
75,393	-4,324	246,746	122,488
76,407	-4,743	246,666	122,083
77,422	-4,477	246,375	122,153
78,436	-4,363	246,376	122,239
79,451	-4,392	246,055	122,045
80,466	-4,610	245,792	121,719
81,480	-4,759	245,685	121,530
82,495	-4,613	245,364	121,483
83,509	-4,807	245,164	121,210
84,524	-4,822	244,934	121,073
85,539	-4,821	244,741	120,968
86,553	-4,939	244,540	120,759
87,568	-4,659	244,481	120,954
88,582	-4,856	244,296	120,686
89,597	-4,906	244,033	120,504
90,611	-4,700	243,993	120,646
91,626	-4,544	243,907	120,723
92,641	-4,532	243,681	120,610
93,655	-4,572	243,355	120,404
94,670	-4,642	243,167	120,243
95,684	-4,718	243,000	120,086
96,699	-4,646	242,850	120,061
97,714	-4,733	242,670	119,889
98,728	-4,802	242,446	119,710
99,743	-4,927	242,179	119,464
100,757	-4,927	242,066	119,398
101,772	-4,880	241,725	119,258
102,787	-4,765	241,539	119,251
103,801	-4,768	241,550	119,243
104,816	-4,575	241,312	119,274
105,830	-4,357	241,063	119,320
106,845	-4,419	240,998	119,226
107,860	-4,483	240,818	119,074
108,874	-4,674	240,674	118,835
109,889	-4,560	240,446	118,805
110,903	-4,730	240,286	118,576
111,918	-4,648	240,172	118,577
112,933	-4,629	239,934	118,464
113,947	-4,670	239,938	118,422
114,962	-4,627	239,734	118,346
115,976	-4,544	239,511	118,294
116,991	-4,850	239,302	117,929
118,006	-4,892	239,284	117,875
119,020	-4,628	239,111	117,995
120,035	-4,500	239,069	118,069
121,049	-4,515	238,792	117,909
122,064	-4,502	238,607	117,818
123,079	-4,658	238,413	117,585
124,093	-4,646	238,127	117,443
125,108	-4,748	237,844	117,209
126,122	-4,952	237,658	116,942
127,137	-4,982	237,489	116,824
128,151	-5,045	237,325	116,682
129,166	-4,673	237,268	116,945
130,181	-4,803	236,927	116,662
131,195	-4,757	236,809	116,630
132,210	-4,758	236,675	116,553
133,224	-4,658	236,710	116,641
134,239	-4,674	236,366	116,448
135,254	-4,437	236,093	116,493
136,268	-4,591	235,968	116,298
137,283	-5,031	235,904	115,902
138,297	-4,829	235,426	115,819
139,312	-5,037	235,518	115,686
140,327	-4,701	235,412	115,894
141,341	-4,437	235,459	116,119
142,356	-4,243	235,241	116,156
143,370	-4,303	234,928	115,944
144,385	-4,111	234,838	116,043
145,400	-4,251	234,639	115,821
146,414	-4,107	234,476	115,846
147,429	-4,270	234,280	115,609
148,443	-4,257	234,057	115,499
149,458	-4,362	233,979	115,366
150,473	-4,352	233,831	115,291
151,487	-4,157	233,473	115,259
152,502	-4,305	233,427	115,108
153,516	-4,244	233,391	115,129
154,531	-4,278	232,972	114,885
155,546	-4,319	232,954	114,833
156,560	-4,367	232,691	114,655
157,575	-4,380	232,578	114,580
158,589	-4,289	232,344	114,526
159,604	-4,303	232,375	114,520
160,619	-4,179	232,070	114,457
161,633	-4,060	231,938	114,476
162,648	-4,082	231,867	114,413
163,662	-4,288	231,747	114,182
164,677	-4,433	231,574	113,971
165,692	-4,164	231,280	114,029
166,706	-4,116	231,327	114,080
167,721	-4,043	230,968	113,949
168,735	-3,878	230,840	114,006
169,750	-4,273	230,928	113,729
170,764	-4,207	230,708	113,662
171,779	-4,119	230,429	113,583
172,794	-4,088	230,333	113,550
173,808	-4,290	230,151	113,292
174,823	-4,554	229,828	112,917
175,837	-4,667	229,705	112,758
176,852	-4,344	229,525	112,912
177,867	-4,096	229,512	113,089
178,881	-4,235	229,378	112,905
179,896	-4,208	229,340	112,896
180,910	-4,091	229,148	112,883
181,925	-4,114	228,797	112,683
182,940	-4,196	228,816	112,617
183,954	-4,030	228,609	112,635
184,969	-4,171	228,523	112,473
185,983	-4,128	228,346	112,409
186,998	-3,864	228,123	112,494
188,013	-3,976	228,070	112,371
189,027	-3,900	227,831	112,302
190,042	-3,916	227,666	112,199
191,056	-4,103	227,561	111,992
192,071	-4,189	227,481	111,876
193,086	-3,989	227,347	111,954
194,100	-4,142	227,137	111,724
195,115	-4,214	226,826	111,505
196,129	-4,481	226,599	111,178
197,144	-2,239	227,294	113,237
198,159	0,848	228,261	116,094
199,173	3,715	228,884	118,617
200,188	4,194	228,854	118,961
201,202	4,215	228,664	118,868
202,217	4,174	228,704	118,847
203,232	4,718	228,531	119,165
204,246	4,599	228,520	119,058
205,261	4,708	228,339	119,036
206,275	4,904	228,215	119,112
207,290	4,909	228,033	119,010
208,304	4,670	227,826	118,708
209,319	4,649	227,768	118,651
210,334	4,748	227,554	118,604
211,348	4,466	227,181	118,184
212,363	4,163	226,953	117,823
213,377	3,735	226,765	117,388
214,392	3,775	226,675	117,361
215,407	3,922	226,740	117,497
216,421	4,125	226,306	117,416
217,436	3,797	226,325	117,165
218,450	3,716	225,939	116,894
219,465	3,588	225,782	116,704
220,480	3,739	225,693	116,763
221,494	3,643	225,526	116,594
222,509	3,906	225,588	116,815
223,523	3,722	225,284	116,507
224,538	3,737	225,178	116,454
225,553	3,716	225,137	116,406
226,567	4,037	224,866	116,498
227,582	4,170	224,823	116,567
228,596	4,195	224,799	116,563
229,611	3,830	224,620	116,184
230,626	3,767	224,376	115,999
231,640	3,736	224,172	115,859
232,655	4,197	224,070	116,145
233,669	4,462	223,968	116,280
234,684	4,702	223,843	116,386
235,699	4,389	223,595	116,011
236,713	4,152	223,481	115,764
237,728	4,002	223,328	115,562
238,742	3,813	223,151	115,318
239,757	3,695	222,933	115,106
240,772	3,938	222,818	115,219
241,786	3,606	222,622	114,858
242,801	4,010	222,540	115,109
243,815	4,327	222,559	115,345
244,830	4,149	222,355	115,096
245,844	4,095	222,015	114,870
246,859	3,940	222,067	114,771
247,874	4,223	221,948	114,910
248,888	4,209	221,763	114,793
249,903	4,090	221,579	114,599
250,917	3,827	221,401	114,302
251,932	4,059	221,331	114,428
252,947	3,850	221,037	114,110
253,961	3,692	221,058	113,994
254,976	4,075	220,827	114,148
255,990	4,075	220,812	114,131
257,005	3,966	220,624	113,942
258,020	4,039	220,495	113,920
259,034	4,269	220,411	114,036
260,049	4,003	220,315	113,780
261,063	4,135	220,101	113,756
262,078	4,115	220,085	113,723
263,093	4,161	219,793	113,596
264,107	4,096	219,597	113,437
265,122	4,145	219,566	113,447
266,136	4,233	219,492	113,463
267,151	4,397	219,280	113,464
268,166	3,928	219,061	112,997
269,180	3,733	218,750	112,682
270,195	3,871	218,611	112,702
271,209	3,895	218,404	112,603
272,224	4,022	218,402	112,685
273,239	4,028	218,235	112,593
274,253	3,597	218,141	112,219
275,268	3,754	217,980	112,241
276,282	3,729	217,744	112,091
277,297	3,664	217,549	111,934
278,312	3,756	217,554	111,994
279,326	4,035	217,470	112,144
280,341	3,943	217,305	111,981
281,355	3,961	217,184	111,922
282,370	4,123	216,944	111,906
283,384	3,770	216,797	111,564
284,399	3,483	216,716	111,304
285,414	3,452	216,616	111,220
286,428	3,640	216,520	111,297
287,443	4,034	216,392	111,508
288,457	4,120	216,122	111,421
289,472	4,080	215,950	111,293
290,487	3,680	215,780	110,906
291,501	3,348	215,454	110,489
292,516	3,599	215,365	110,615
293,530	3,741	215,379	110,715
294,545	3,379	215,299	110,403
295,560	3,668	215,035	110,465
296,574	3,660	215,135	110,501
297,589	3,866	214,989	110,564
298,603	3,958	214,795	110,521
299,618	3,996	214,649	110,463
300,633	4,158	214,515	110,501
301,647	4,091	214,589	110,481
302,662	4,119	214,360	110,373
303,676	4,098	214,217	110,275
304,691	4,016	213,919	110,053
305,706	4,172	214,031	110,213
306,720	4,138	213,769	110,043
307,735	3,821	213,570	109,705
308,749	3,802	213,500	109,646
309,764	4,008	213,461	109,763
310,779	4,205	213,250	109,785
311,793	3,867	213,173	109,494
312,808	3,994	212,987	109,480
313,822	4,091	212,809	109,447
314,837	4,027	212,556	109,262
315,852	3,938	212,482	109,151
316,866	3,869	212,406	109,053
317,881	3,879	212,284	108,988
318,895	4,153	212,085	109,070
319,910	3,861	211,954	108,786
320,925	3,546	211,713	108,431
321,939	3,521	211,457	108,272
322,954	3,567	211,450	108,291
323,968	4,218	211,448	108,740
324,983	4,094	211,424	108,631
325,997	4,229	211,189	108,595
327,012	4,055	211,034	108,383
328,027	4,014	210,917	108,284
329,041	4,330	210,816	108,445
330,056	4,477	210,653	108,455
331,070	3,942	210,460	107,971
332,085	3,835	210,218	107,761
333,100	3,881	210,100	107,724
334,114	3,895	210,017	107,681
335,129	4,024	209,895	107,700
336,143	3,672	209,865	107,429
337,158	3,868	209,688	107,465
338,173	4,058	209,483	107,483
339,187	3,615	209,323	107,082
340,202	3,655	209,170	107,023
341,216	3,552	209,140	106,926
342,231	3,645	208,918	106,867
343,246	3,689	208,673	106,763
344,260	3,515	208,763	106,679
345,275	3,823	208,561	106,780
346,289	4,243	208,399	106,979
347,304	4,000	208,400	106,802
348,319	3,820	208,273	106,602
349,333	3,825	208,159	106,538
350,348	3,859	208,033	106,487
351,362	4,262	207,847	106,661
352,377	4,071	207,798	106,494
353,392	3,888	207,667	106,291
354,406	4,053	207,463	106,292
355,421	193,429	1346,982	1433,226
356,435	154,278	1485,921	1433,341
