DTS Sentinel unit serial number:	SN410029Multiplexer serial number:	ORYXHardware model number:	OX2-SRSoftware version number:	ORYX F/W v4,00 Oryx Data Collector v3.7.2.0data status	okinstallation	B6 Nyhavnadifferential loss correction	single-endedforward channel	channel 2reverse channel	N/Adate	2023/12/07time	21:50:08forward acquisition time	300,00reverse acquisition time	0,00gamma	499,1914k internal	0,3165k external	0,3165temperature offset calibration	1,0000default loss term (dB/km)	0,3820temperature slope calibration	1,0000multiplexer offset coefficient	1,0000multiplexer slope coefficient	1,0000fibre end	0,00T internal ref (°C)	13,65T ext. ref 1 (°C)	-3,28T ext. ref 2 (°C)	-3,29length (m)	temperature (°C)	Stokes	anti-Stokes-744,400	63,729	0,011	0,008
-743,385	-30,692	-0,258	-0,107
-742,371	48,841	0,092	0,063
-741,356	-80,808	-0,342	0,083
-740,342	95,512	0,140	0,117
-739,327	-143,661	-0,428	0,029
-738,312	-200,000	0,011	0,062
-737,298	-123,332	-0,288	-0,033
-736,283	223,168	0,058	-0,069
-735,269	-166,332	-0,339	0,010
-734,254	276,521	0,114	0,150
-733,239	-84,954	-0,524	-0,120
-732,225	67,977	0,100	0,075
-731,210	529,146	0,055	0,095
-730,196	394,637	-0,040	0,061
-729,181	-15,326	-0,245	-0,115
-728,167	800,000	0,053	-0,121
-727,152	243,802	-0,141	-0,175
-726,137	27,776	0,069	-0,043
-725,123	-54,954	-0,228	-0,075
-724,108	479,657	-0,065	0,109
-723,094	545,367	0,049	0,087
-722,079	-200,000	-0,019	-0,116
-721,064	6,874	-0,048	0,026
-720,050	74,336	-0,088	0,068
-719,035	-200,000	0,005	-0,068
-718,021	-200,000	0,029	0,130
-717,006	58,445	0,084	-0,061
-715,991	-38,402	-0,170	-0,066
-714,977	501,396	0,023	-0,039
-713,962	800,000	0,036	-0,084
-712,948	-99,930	-0,092	0,017
-711,933	-135,193	0,054	0,005
-710,918	475,437	-0,078	0,130
-709,904	39,233	-0,070	-0,046
-708,889	55,772	-0,044	-0,031
-707,875	-62,427	-0,118	-0,036
-706,860	-200,000	-0,001	-0,026
-705,845	-185,399	-0,126	0,001
-704,831	-121,247	0,060	0,007
-703,816	-200,000	-0,022	-0,119
-702,802	4,405	-0,071	0,038
-701,787	15,461	-0,048	-0,028
-700,772	146,034	-0,064	-0,063
-699,758	-105,106	-0,104	0,017
-698,743	-200,000	0,010	0,112
-697,729	800,000	0,026	0,075
-696,714	316,788	0,052	0,073
-695,699	58,846	-0,099	-0,071
-694,685	-200,000	-0,008	-0,129
-693,670	-14,053	0,074	-0,035
-692,656	-200,000	0,025	-0,118
-691,641	542,406	-0,009	-0,016
-690,627	366,222	0,097	0,145
-689,612	-80,498	0,212	-0,051
-688,597	-7,953	-0,161	-0,080
-687,583	37,539	-0,123	-0,080
-686,568	800,000	0,051	-0,133
-685,554	-200,000	-0,001	-0,097
-684,539	800,000	-0,066	0,150
-683,524	-27,564	-0,035	-0,015
-682,510	-38,282	0,120	0,046
-681,495	36,986	0,027	-0,018
-680,481	-200,000	-0,019	-0,071
-679,466	106,641	-0,157	-0,137
-678,451	-169,220	-0,080	-0,002
-677,437	154,302	0,040	0,040
-676,422	-200,000	-0,017	0,180
-675,408	800,000	0,039	-0,090
-674,393	-116,901	0,077	-0,010
-673,378	53,369	-0,106	0,074
-672,364	-200,000	-0,022	0,097
-671,349	742,484	-0,091	-0,180
-670,335	137,976	0,063	0,061
-669,320	-11,137	-0,064	0,031
-668,305	100,824	0,043	-0,037
-667,291	256,184	-0,021	-0,027
-666,276	102,751	-0,070	0,060
-665,262	-200,000	-0,037	-0,159
-664,247	199,956	-0,052	-0,059
-663,232	-171,480	0,083	-0,002
-662,218	-106,033	0,043	0,007
-661,203	-107,208	0,089	-0,014
-660,189	112,189	-0,076	-0,067
-659,174	24,827	-0,083	0,050
-658,159	-132,834	-0,142	0,013
-657,145	-200,000	0,011	-0,040
-656,130	-200,000	-0,017	0,094
-655,116	-200,000	0,032	0,117
-654,101	-127,637	0,099	-0,010
-653,086	-200,000	0,021	0,130
-652,072	-200,000	0,046	0,171
-651,057	175,898	-0,060	-0,064
-650,043	138,658	-0,028	-0,027
-649,028	-174,231	-0,079	-0,002
-648,014	-63,106	-0,056	-0,017
-646,999	129,284	0,084	-0,078
-645,984	219,032	-0,039	-0,046
-644,970	-200,000	-0,033	-0,110
-643,955	2,016	-0,175	-0,092
-642,941	800,000	-0,055	-0,127
-641,926	-200,000	-0,014	0,106
-640,911	102,259	-0,068	0,058
-639,897	144,904	0,081	-0,080
-638,882	-46,376	-0,119	0,043
-637,868	93,103	0,026	0,022
-636,853	78,285	-0,054	0,042
-635,838	-200,000	-0,008	-0,047
-634,824	-90,453	-0,042	-0,009
-633,809	84,655	0,026	-0,020
-632,795	-200,000	-0,033	0,119
-631,780	527,977	0,002	-0,004
-630,765	-200,000	0,023	0,102
-629,751	-200,000	0,026	0,096
-628,736	-94,751	-0,123	0,024
-627,722	57,158	-0,069	0,049
-626,707	-173,798	0,009	0,000
-625,692	226,891	-0,080	0,096
-624,678	640,719	-0,024	-0,044
-623,663	-200,000	0,008	-0,116
-622,649	-70,018	0,082	-0,023
-621,634	800,000	-0,012	-0,025
-620,619	-117,974	-0,104	-0,013
-619,605	73,591	-0,115	-0,088
-618,590	87,542	0,057	0,046
-617,576	106,017	-0,046	0,040
-616,561	-148,973	-0,111	0,006
-615,546	45,239	0,123	0,083
-614,532	800,000	-0,059	-0,130
-613,517	398,351	-0,023	-0,036
-612,503	620,273	-0,056	-0,104
-611,488	-157,918	-0,081	-0,003
-610,474	800,000	0,024	0,066
-609,459	-144,177	0,045	0,003
-608,444	-200,000	0,029	-0,098
-607,430	-146,611	-0,045	0,003
-606,415	-200,000	-0,007	-0,119
-605,401	-200,000	0,003	0,092
-604,386	198,005	0,075	0,084
-603,371	-25,909	0,078	0,033
-602,357	-149,429	0,064	0,004
-601,342	25,695	-0,125	-0,076
-600,328	665,554	0,030	-0,057
-599,313	129,992	-0,044	0,041
-598,298	79,371	0,007	0,005
-597,284	459,571	0,055	0,090
-596,269	84,464	-0,179	0,143
-595,255	-98,686	-0,053	-0,010
-594,240	-62,498	-0,149	0,045
-593,225	-200,000	-0,011	-0,109
-592,211	-1,958	-0,054	0,028
-591,196	281,580	0,058	0,076
-590,182	421,326	-0,022	0,035
-589,167	3,579	-0,045	-0,024
-588,152	-200,000	-0,011	0,171
-587,138	-22,870	-0,064	0,028
-586,123	525,732	-0,087	-0,149
-585,109	-200,000	0,006	-0,045
-584,094	58,699	-0,066	0,047
-583,079	800,000	0,027	-0,059
-582,065	-200,000	0,030	0,134
-581,050	170,335	0,029	0,030
-580,036	-200,000	-0,006	-0,058
-579,021	-11,466	-0,143	0,069
-578,006	800,000	0,019	0,041
-576,992	169,450	-0,071	-0,075
-575,977	-74,431	0,159	-0,042
-574,963	21,200	0,111	0,066
-573,948	-200,000	0,006	0,030
-572,934	-200,000	0,009	-0,108
-571,919	-123,451	-0,050	0,006
-570,904	-11,232	-0,105	0,051
-569,890	-159,483	-0,076	-0,003
-568,875	-97,267	-0,065	0,012
-567,861	-71,091	0,075	-0,020
-566,846	-200,000	0,001	0,042
-565,831	-125,816	0,055	0,006
-564,817	-200,000	-0,002	-0,025
-563,802	58,837	-0,065	-0,046
-562,788	286,796	-0,092	0,122
-561,773	-0,228	0,099	-0,051
-560,758	149,511	0,079	0,079
-559,744	800,000	-0,041	0,091
-558,729	-185,741	0,033	0,000
-557,715	-200,000	-0,028	-0,092
-556,700	-44,363	-0,073	0,026
-555,685	-157,157	0,069	0,003
-554,671	9,627	0,095	-0,052
-553,656	98,191	-0,023	-0,019
-552,642	800,000	0,040	0,099
-551,627	299,334	0,031	0,042
-550,612	421,543	0,034	0,053
-549,598	-200,000	0,033	-0,145
-548,583	157,282	-0,106	-0,107
-547,569	-106,297	-0,036	-0,006
-546,554	-105,425	-0,089	0,015
-545,539	-177,580	0,048	0,001
-544,525	-200,000	-0,029	0,111
-543,510	20,860	-0,039	-0,023
-542,496	-200,000	-0,003	0,065
-541,481	106,460	0,109	-0,094
-540,466	364,714	-0,021	0,030
-539,452	-200,000	0,009	-0,029
-538,437	402,197	0,068	-0,104
-537,423	-154,580	0,076	0,004
-536,408	41,101	0,073	0,048
-535,393	-76,045	0,050	-0,013
-534,379	-13,927	0,078	0,037
-533,364	112,747	0,026	-0,023
-532,350	13,555	-0,106	0,060
-531,335	800,000	0,016	0,044
-530,321	279,270	0,054	0,071
-529,306	800,000	-0,060	-0,125
-528,291	800,000	-0,010	-0,026
-527,277	-200,000	0,036	-0,145
-526,262	37,844	0,019	0,013
-525,248	-200,000	0,012	0,059
-524,233	27,582	0,053	0,032
-523,218	422,174	-0,054	-0,084
-522,204	-160,808	-0,036	-0,001
-521,189	-86,823	-0,040	0,009
-520,175	-35,130	0,024	0,009
-519,160	154,779	-0,069	0,069
-518,145	800,000	-0,065	-0,167
-517,131	800,000	0,045	0,121
-516,116	-129,729	0,219	0,022
-515,102	638,558	0,028	-0,052
-514,087	-200,000	-0,008	-0,154
-513,072	-200,000	0,009	0,110
-512,058	-85,705	0,098	-0,022
-511,043	-48,690	0,094	-0,033
-510,029	-200,000	0,016	0,062
-509,014	239,189	0,050	0,061
-507,999	-200,000	-0,007	0,053
-506,985	240,353	0,038	0,046
-505,970	-200,000	0,005	-0,140
-504,956	-80,303	-0,160	0,039
-503,941	-149,906	0,067	-0,004
-502,926	202,895	-0,041	-0,046
-501,912	-139,576	-0,020	0,002
-500,897	800,000	0,053	-0,117
-499,883	-200,000	0,012	0,102
-498,868	-200,000	0,020	0,070
-497,853	11,674	0,096	0,053
-496,839	358,229	0,039	0,056
-495,824	63,497	0,106	0,078
-494,810	-113,980	0,062	0,009
-493,795	800,000	-0,040	0,084
-492,781	158,396	0,017	0,017
-491,766	-200,000	-0,014	0,113
-490,751	-200,000	-0,015	-0,118
-489,737	-95,406	-0,080	-0,016
-488,722	-31,957	0,153	0,062
-487,708	158,627	-0,009	0,009
-486,693	-85,007	0,011	0,003
-485,678	42,074	0,028	-0,019
-484,664	800,000	-0,036	-0,091
-483,649	-22,201	0,108	0,047
-482,635	-22,279	-0,025	-0,011
-481,620	-200,000	0,015	-0,097
-480,605	113,087	0,065	-0,057
-479,591	259,387	0,028	-0,035
-478,576	-200,000	-0,013	0,109
-477,562	-64,746	0,105	0,031
-476,547	445,250	-0,062	0,100
-475,532	-54,321	-0,094	-0,031
-474,518	-150,861	0,134	-0,007
-473,503	-200,000	-0,017	0,067
-472,489	-63,035	-0,069	0,021
-471,474	-126,210	-0,103	-0,011
-470,459	108,483	-0,059	0,051
-469,445	-113,671	-0,027	-0,004
-468,430	286,265	-0,088	-0,116
-467,416	192,262	0,127	-0,140
-466,401	253,507	-0,029	0,037
-465,386	40,753	0,159	0,104
-464,372	262,342	-0,073	0,092
-463,357	-200,000	-0,006	0,058
-462,343	800,000	-0,051	-0,122
-461,328	-167,928	-0,113	0,003
-460,313	-112,247	0,170	0,024
-459,299	-86,626	0,183	-0,040
-458,284	-200,000	-0,010	0,095
-457,270	277,675	-0,084	0,109
-456,255	800,000	0,053	-0,114
-455,241	14,148	0,063	-0,036
-454,226	335,899	0,055	0,078
-453,211	-138,126	0,042	0,003
-452,197	800,000	0,044	0,101
-451,182	-200,000	0,043	-0,145
-450,168	104,103	0,094	0,080
-449,153	-200,000	0,008	-0,066
-448,138	-200,000	-0,003	0,087
-447,124	-57,377	-0,053	-0,017
-446,109	-19,519	0,072	-0,032
-445,095	-10,207	0,068	0,033
-444,080	-200,000	-0,060	0,232
-443,065	14,656	0,016	0,009
-442,051	-41,263	0,106	0,040
-441,036	-200,000	0,014	-0,075
-440,022	-26,612	-0,066	0,028
-439,007	-134,432	0,196	0,017
-437,992	-200,000	0,004	0,046
-436,978	326,638	-0,017	-0,024
-435,963	-200,000	0,005	0,036
-434,949	-150,721	-0,048	0,003
-433,934	-152,251	-0,067	-0,003
-432,919	-200,000	-0,002	0,070
-431,905	-109,889	-0,082	0,012
-430,890	800,000	0,039	0,099
-429,876	800,000	0,050	-0,105
-428,861	-109,283	0,024	0,004
-427,846	-200,000	0,052	-0,202
-426,832	-122,608	-0,131	0,015
-425,817	641,294	0,031	-0,058
-424,803	-200,000	0,009	0,082
-423,788	-200,000	0,016	0,000
-422,773	-92,822	0,030	-0,006
-421,759	-200,000	0,006	0,039
-420,744	-42,300	0,092	0,034
-419,730	37,230	-0,064	-0,041
-418,715	-9,217	0,044	-0,021
-417,701	-200,000	0,022	0,101
-416,686	85,704	0,133	-0,106
-415,671	255,033	0,090	-0,112
-414,657	467,775	-0,063	-0,103
-413,642	222,037	0,031	-0,037
-412,628	-200,000	0,006	-0,042
-411,613	-200,000	-0,014	-0,194
-410,598	-57,010	0,021	0,007
-409,584	159,961	0,033	0,034
-408,569	58,240	-0,153	0,109
-407,555	-200,000	-0,006	0,081
-406,540	800,000	-0,030	0,069
-405,525	382,251	-0,118	-0,176
-404,511	25,771	-0,056	0,034
-403,496	-133,247	-0,013	0,001
-402,482	-200,000	0,027	0,127
-401,467	-200,000	-0,015	0,105
-400,452	800,000	-0,027	0,054
-399,438	281,687	0,085	0,111
-398,423	55,678	0,105	-0,074
-397,409	-200,000	-0,013	0,048
-396,394	800,000	-0,035	-0,079
-395,379	-200,000	-0,004	-0,115
-394,365	80,145	0,053	-0,041
-393,350	800,000	0,004	0,010
-392,336	800,000	-0,026	0,071
-391,321	-71,188	0,094	-0,025
-390,306	254,944	-0,099	-0,123
-389,292	800,000	-0,021	0,055
-388,277	91,535	-0,018	-0,015
-387,263	20,300	-0,051	-0,030
-386,248	308,587	0,048	0,065
-385,233	205,109	0,087	0,098
-384,219	265,359	0,016	-0,020
-383,204	-58,142	0,018	0,006
-382,190	240,521	-0,048	-0,058
-381,175	800,000	-0,032	0,076
-380,160	-200,000	0,006	0,056
-379,146	-200,000	-0,087	0,281
-378,131	-33,528	0,185	0,074
-377,117	-98,065	0,027	-0,005
-376,102	-101,754	-0,062	-0,011
-375,088	135,004	-0,094	0,089
-374,073	-80,888	-0,020	-0,005
-373,058	140,897	-0,083	-0,080
-372,044	-10,034	0,169	0,081
-371,029	-200,000	-0,015	0,056
-370,015	90,806	-0,072	0,059
-369,000	-200,000	0,015	0,074
-367,985	-200,000	0,011	-0,104
-366,971	-127,558	-0,033	0,003
-365,956	800,000	-0,002	0,004
-364,942	800,000	0,078	0,187
-363,927	202,875	-0,044	0,049
-362,912	-137,851	-0,091	-0,007
-361,898	487,848	-0,076	-0,126
-360,883	180,412	0,094	-0,100
-359,869	-200,000	0,001	-0,067
-358,854	800,000	0,012	-0,034
-357,839	800,000	-0,025	-0,072
-356,825	-70,037	0,030	-0,008
-355,810	800,000	0,040	0,105
-354,796	401,057	-0,039	-0,059
-353,781	93,668	-0,159	0,131
-352,766	427,008	0,025	-0,039
-351,752	458,844	-0,042	-0,068
-350,737	744,114	-0,010	-0,019
-349,723	-81,977	-0,149	0,035
-348,708	16,816	0,157	0,090
-347,693	-148,772	-0,067	-0,004
-346,679	3,240	0,199	-0,105
-345,664	-200,000	0,003	-0,072
-344,650	-44,160	-0,193	-0,070
-343,635	-200,000	-0,013	-0,065
-342,620	-48,704	0,139	0,048
-341,606	93,378	-0,046	0,038
-340,591	604,622	0,037	-0,067
-339,577	-126,769	-0,154	-0,016
-338,562	800,000	0,036	0,075
-337,548	78,549	-0,066	0,051
-336,533	124,673	-0,016	0,015
-335,518	800,000	0,040	0,090
-334,504	19,431	-0,025	0,014
-333,489	-59,438	-0,019	-0,006
-332,475	51,408	-0,059	-0,041
-331,460	-32,523	-0,136	-0,055
-330,445	26,308	-0,120	-0,073
-329,431	-200,000	0,010	-0,034
-328,416	800,000	0,027	0,073
-327,402	800,000	0,025	0,058
-326,387	800,000	-0,046	0,125
-325,372	-35,756	0,068	0,027
-324,358	369,633	-0,085	-0,124
-323,343	-200,000	-0,018	-0,166
-322,329	-83,820	-0,022	0,005
-321,314	-67,528	0,034	-0,010
-320,299	72,191	0,120	-0,091
-319,285	4,445	-0,075	0,040
-318,270	119,076	-0,066	-0,059
-317,256	94,128	0,065	0,053
-316,241	26,734	0,026	-0,015
-315,226	-80,816	0,073	0,017
-314,212	-119,570	0,154	0,019
-313,197	-200,000	-0,010	0,037
-312,183	-53,689	0,187	0,062
-311,168	-200,000	-0,037	-0,208
-310,153	800,000	0,012	0,032
-309,139	800,000	-0,024	0,058
-308,124	-104,684	-0,067	0,011
-307,110	64,085	-0,061	-0,044
-306,095	-200,000	-0,014	0,046
-305,080	128,598	0,030	-0,028
-304,066	-144,981	-0,057	-0,004
-303,051	-17,186	0,100	0,045
-302,037	-25,818	-0,031	0,013
-301,022	-200,000	-0,000	-0,064
-300,008	-200,000	-0,013	0,089
-298,993	110,559	0,034	0,030
-297,978	-200,000	-0,009	0,081
-296,964	-155,142	-0,094	0,004
-295,949	-177,042	-0,096	0,002
-294,935	-58,198	-0,076	-0,024
-293,920	800,000	-0,024	-0,055
-292,905	-99,096	0,084	0,015
-291,891	-100,573	-0,043	0,008
-290,876	-200,000	0,025	0,109
-289,862	-200,000	-0,008	-0,062
-288,847	106,601	-0,041	-0,035
-287,832	169,721	0,030	-0,031
-286,818	-200,000	-0,036	0,129
-285,803	-50,233	-0,051	0,017
-284,789	800,000	0,024	-0,072
-283,774	651,505	0,068	0,127
-282,759	455,887	0,035	-0,056
-281,745	800,000	-0,057	-0,119
-280,730	-89,905	-0,017	0,003
-279,716	-200,000	-0,010	-0,101
-278,701	-51,204	-0,041	0,014
-277,686	-25,295	0,075	0,032
-276,672	622,922	0,011	-0,020
-275,657	-200,000	0,022	0,087
-274,643	-46,282	-0,175	0,062
-273,628	800,000	-0,019	-0,048
-272,613	-77,087	-0,074	0,019
-271,599	800,000	0,045	0,116
-270,584	35,981	0,075	0,048
-269,570	800,000	0,060	-0,134
-268,555	4,034	0,075	-0,039
-267,540	-68,602	0,066	-0,018
-266,526	-43,538	-0,103	0,037
-265,511	-32,020	0,013	-0,005
-264,497	275,166	-0,035	-0,044
-263,482	800,000	0,013	0,036
-262,467	-110,007	0,028	0,004
-261,453	-200,000	-0,008	0,087
-260,438	272,687	-0,054	-0,068
-259,424	326,855	-0,029	0,040
-258,409	-76,426	-0,203	-0,051
-257,395	-200,000	0,012	0,048
-256,380	412,075	0,099	0,152
-255,365	800,000	0,028	0,070
-254,351	-200,000	0,049	0,236
-253,336	800,000	0,048	0,097
-252,322	-38,289	-0,172	-0,066
-251,307	138,338	-0,151	-0,143
-250,292	647,575	0,043	0,079
-249,278	-8,723	0,084	0,040
-248,263	168,137	0,095	0,098
-247,249	-200,000	-0,009	0,060
-246,234	226,512	0,010	0,011
-245,219	14,177	-0,099	-0,055
-244,205	45,570	0,078	-0,052
-243,190	-200,000	0,008	-0,036
-242,176	52,410	-0,049	0,034
-241,161	-80,056	0,095	-0,023
-240,146	-43,685	0,102	-0,037
-239,132	-200,000	0,017	-0,157
-238,117	-200,000	0,009	-0,174
-237,103	334,517	-0,032	0,044
-236,088	800,000	-0,032	-0,092
-235,073	-43,937	0,097	-0,035
-234,059	56,727	-0,048	-0,034
-233,044	-35,020	0,114	-0,044
-232,030	800,000	-0,013	-0,035
-231,015	98,809	-0,094	-0,078
-230,000	622,190	-0,049	0,090
-228,986	-200,000	-0,007	-0,164
-227,971	-175,480	0,086	0,002
-226,957	15,613	0,099	0,056
-225,942	212,122	0,018	-0,020
-224,927	29,778	-0,048	0,029
-223,913	-200,000	-0,008	-0,117
-222,898	-200,000	-0,017	-0,094
-221,884	800,000	0,068	-0,212
-220,869	-200,000	-0,014	0,059
-219,855	-200,000	0,005	-0,020
-218,840	800,000	0,028	0,069
-217,825	567,349	-0,052	-0,092
-216,811	800,000	-0,012	0,032
-215,796	-200,000	0,002	0,053
-214,782	170,142	0,056	-0,057
-213,767	-172,988	0,096	0,002
-212,752	177,573	0,005	-0,005
-211,738	171,589	0,006	-0,006
-210,723	-95,606	-0,035	0,007
-209,709	-200,000	-0,019	-0,062
-208,694	139,192	-0,112	0,107
-207,679	800,000	0,019	-0,059
-206,665	-200,000	-0,127	0,000
-205,650	-200,000	-0,035	0,166
-204,636	800,000	-0,062	0,162
-203,621	-200,000	-0,021	0,072
-202,606	41,880	-0,077	-0,050
-201,592	-200,000	-0,002	-0,081
-200,577	-200,000	0,005	-0,059
-199,563	-200,000	0,003	-0,066
-198,548	633,598	0,013	-0,025
-197,533	-16,161	0,067	-0,031
-196,519	62,022	0,064	-0,046
-195,504	-84,539	0,096	-0,022
-194,490	800,000	-0,041	-0,082
-193,475	17,329	-0,034	0,019
-192,460	-200,000	0,005	-0,052
-191,446	127,702	0,092	0,084
-190,431	-200,000	0,010	-0,060
-189,417	-149,911	0,079	0,004
-188,402	-130,660	0,076	-0,007
-187,387	-153,640	-0,121	-0,006
-186,373	118,394	-0,061	-0,054
-185,358	104,633	0,140	-0,118
-184,344	-200,000	-0,016	0,092
-183,329	168,668	0,104	0,107
-182,315	59,820	-0,074	0,053
-181,300	203,078	-0,031	0,035
-180,285	800,000	-0,019	0,041
-179,271	328,803	-0,030	-0,042
-178,256	-200,000	0,031	-0,125
-177,242	-200,000	0,007	-0,087
-176,227	528,600	0,051	-0,086
-175,212	-90,822	-0,032	0,007
-174,198	-96,792	0,085	-0,016
-173,183	-43,949	0,056	0,020
-172,169	89,078	-0,161	-0,129
-171,154	-66,528	0,181	-0,051
-170,139	714,741	-0,015	0,028
-169,125	-200,000	0,002	-0,023
-168,110	-61,908	0,071	0,021
-167,096	-200,000	-0,017	0,061
-166,081	-200,000	0,001	-0,007
-165,066	174,617	0,034	-0,035
-164,052	519,469	0,032	-0,054
-163,037	-171,722	-0,137	0,003
-162,023	-200,000	0,015	0,076
-161,008	800,000	0,018	-0,043
-159,993	-91,111	0,114	0,023
-158,979	800,000	-0,019	-0,051
-157,964	-145,070	-0,152	0,010
-156,950	800,000	-0,003	0,008
-155,935	78,280	0,040	0,031
-154,920	800,000	0,031	-0,080
-153,906	-200,000	-0,016	-0,119
-152,891	800,000	0,020	-0,048
-151,877	-121,733	0,082	-0,010
-150,862	-20,813	-0,215	-0,095
-149,847	124,793	0,027	-0,024
-148,833	800,000	0,040	-0,099
-147,818	232,559	-0,063	-0,074
-146,804	610,569	-0,033	-0,059
-145,789	-151,170	0,106	-0,006
-144,775	150,331	0,032	-0,031
-143,760	16,517	0,039	-0,022
-142,745	26,749	0,051	0,031
-141,731	-133,817	0,060	0,005
-140,716	-200,000	-0,006	0,145
-139,702	-200,000	0,005	0,191
-138,687	-200,000	-0,014	0,054
-137,672	-39,671	-0,064	-0,024
-136,658	10,849	-0,051	-0,028
-135,643	-113,918	-0,083	-0,011
-134,629	-200,000	0,016	-0,080
-133,614	800,000	-0,014	0,040
-132,599	-104,713	-0,065	0,011
-131,585	-35,726	0,136	-0,053
-130,570	-95,465	-0,055	0,011
-129,556	535,840	0,022	0,037
-128,541	-159,445	0,056	0,002
-127,526	-200,000	0,021	-0,098
-126,512	-104,673	0,051	0,008
-125,497	24,638	0,132	-0,078
-124,483	147,499	-0,042	-0,040
-123,468	48,744	0,018	-0,012
-122,453	-200,000	-0,014	-0,055
-121,439	28,052	-0,080	-0,049
-120,424	83,630	0,032	0,025
-119,410	-191,156	0,034	-0,000
-118,395	-200,000	-0,006	0,048
-117,380	63,313	-0,073	-0,052
-116,366	80,417	0,074	-0,057
-115,351	-165,659	-0,050	-0,002
-114,337	-80,285	-0,071	0,017
-113,322	-200,000	-0,026	0,095
-112,307	-200,000	-0,032	0,136
-111,293	-200,000	-0,013	0,078
-110,278	558,883	-0,060	-0,105
-109,264	800,000	0,047	-0,098
-108,249	334,380	-0,057	0,079
-107,234	-153,900	-0,112	0,005
-106,220	-74,674	-0,060	-0,015
-105,205	-200,000	0,008	-0,102
-104,191	26,368	0,097	-0,058
-103,176	88,954	-0,091	0,072
-102,162	-17,747	-0,045	-0,020
-101,147	-200,000	0,002	-0,118
-100,132	-36,436	-0,071	0,027
-99,118	800,000	0,031	-0,074
-98,103	157,841	-0,058	0,058
-97,089	-156,559	0,172	0,008
-96,074	20,251	-0,040	-0,023
-95,059	800,000	-0,008	0,025
-94,045	-200,000	-0,004	-0,019
-93,030	52,480	-0,129	-0,088
-92,016	-42,903	-0,054	0,020
-91,001	701,971	-0,045	0,085
-89,986	800,000	0,024	0,076
-88,972	441,010	-0,021	-0,034
-87,957	-200,000	0,033	-0,118
-86,943	146,812	0,026	-0,025
-85,928	-67,636	-0,045	0,012
-84,913	-113,239	-0,090	-0,013
-83,899	348,294	0,026	0,037
-82,884	466,835	0,056	0,090
-81,870	800,000	-0,038	-0,111
-80,855	444,340	0,072	0,114
-79,840	21,262	-0,080	0,046
-78,826	800,000	-0,014	-0,043
-77,811	16,248	0,034	-0,019
-76,797	494,786	0,080	-0,132
-75,782	91,899	0,048	0,038
-74,767	-159,438	0,107	0,004
-73,753	-200,000	-0,008	-0,075
-72,738	-63,743	-0,089	-0,026
-71,724	427,537	-0,075	-0,117
-70,709	176,282	-0,069	0,072
-69,694	-108,970	0,044	0,007
-68,680	800,000	0,034	-0,106
-67,665	317,949	-0,045	0,062
-66,651	456,787	0,106	0,170
-65,636	-68,096	-0,141	0,039
-64,622	-200,000	-0,029	0,092
-63,607	-200,000	-0,017	0,064
-62,592	-200,000	0,027	-0,124
-61,578	-200,000	0,015	0,070
-60,563	-117,772	0,162	0,021
-59,549	392,004	-0,116	0,173
-58,534	26,178	-2,131	-1,272
-57,519	-200,000	-0,091	-0,773
-56,505	-200,000	-1,378	-5,258
-55,490	55,317	0,922	0,637
-54,476	800,000	5,348	12,106
-53,461	-200,000	18,631	308,296
-52,446	800,000	738,822	2284,904
-51,432	539,923	1652,155	2826,485
-50,417	108,695	1636,275	1399,307
-49,403	72,249	1286,661	958,506
-48,388	29,825	1028,070	625,530
-47,373	19,708	990,783	569,465
-46,359	17,380	978,348	554,665
-45,344	14,048	974,531	541,577
-44,330	14,350	972,926	541,650
-43,315	13,722	971,205	538,619
-42,300	13,639	970,096	537,713
-41,286	13,633	969,176	537,161
-40,271	13,667	968,073	536,640
-39,257	13,629	967,238	536,031
-38,242	13,678	966,554	535,791
-37,227	13,689	965,459	535,198
-36,213	13,688	964,693	534,751
-35,198	13,625	963,847	534,056
-34,184	13,699	963,314	533,979
-33,169	13,696	961,933	533,183
-32,154	13,705	961,211	532,791
-31,140	13,702	960,306	532,259
-30,125	13,689	959,494	531,744
-29,111	13,663	958,822	531,268
-28,096	13,654	958,256	530,902
-27,082	13,687	957,466	530,550
-26,067	13,703	956,584	530,093
-25,052	13,694	955,822	529,621
-24,038	13,731	955,269	529,412
-23,023	13,682	954,613	528,870
-22,009	13,748	953,860	528,643
-20,994	13,698	953,328	528,166
-19,979	13,667	952,762	527,734
-18,965	13,659	952,214	527,384
-17,950	13,737	951,465	527,195
-16,936	13,596	950,971	526,452
-15,921	13,606	950,275	526,078
-14,906	13,597	949,475	525,586
-13,892	13,598	948,874	525,234
-12,877	13,555	948,186	524,696
-11,863	13,630	947,314	524,432
-10,848	13,545	947,023	523,980
-9,833	13,689	946,481	524,117
-8,819	13,623	945,949	523,590
-7,804	13,604	945,259	523,128
-6,790	13,568	944,770	522,723
-5,775	13,621	944,012	522,449
-4,760	13,654	943,374	522,180
-3,746	13,577	942,842	521,622
-2,731	13,458	942,185	520,860
-1,717	13,433	941,400	520,328
-0,702	13,420	940,893	519,987
0,313	13,219	940,158	519,729
1,327	16,559	938,276	529,172
2,342	25,762	789,359	469,398
3,356	21,842	444,035	258,230
4,371	-7,460	296,831	143,221
5,386	-11,467	278,540	130,573
6,400	-12,705	272,824	126,728
7,415	-12,609	270,563	125,755
8,429	-12,800	269,159	124,915
9,444	-12,868	268,284	124,436
10,459	-12,953	267,760	124,104
11,473	-13,100	266,865	123,544
12,488	-13,056	266,509	123,409
13,502	-13,176	265,957	123,033
14,517	-13,239	265,398	122,706
15,531	-13,117	265,153	122,693
16,546	-13,030	264,688	122,545
17,561	-13,059	264,353	122,352
18,575	-12,975	263,879	122,198
19,590	-13,041	263,575	121,987
20,604	-12,936	263,417	121,997
21,619	-12,937	262,954	121,771
22,634	-12,924	262,470	121,548
23,648	-12,982	262,303	121,408
24,663	-13,105	262,037	121,164
25,677	-12,790	261,669	121,264
26,692	-13,128	261,570	120,906
27,707	-13,088	261,192	120,756
28,721	-13,091	260,826	120,574
29,736	-13,265	260,774	120,384
30,750	-13,174	260,308	120,239
31,765	-13,153	260,115	120,158
32,780	-13,101	260,003	120,141
33,794	-13,094	259,519	119,913
34,809	-13,135	259,497	119,856
35,823	-13,183	259,183	119,658
36,838	-13,160	259,002	119,584
37,853	-13,192	258,744	119,426
38,867	-13,277	258,476	119,216
39,882	-13,253	258,223	119,111
40,896	-13,279	258,065	119,004
41,911	-13,094	257,628	118,954
42,926	-13,262	257,502	118,738
43,940	-13,386	257,355	118,551
44,955	-13,158	256,993	118,573
45,969	-13,257	256,775	118,376
46,984	-13,407	256,573	118,140
47,999	-13,718	256,237	117,704
49,013	-13,827	256,062	117,518
50,028	-13,968	255,705	117,221
51,042	-13,947	255,489	117,130
52,057	-13,893	255,163	117,017
53,071	-13,990	255,070	116,880
54,086	-13,794	254,828	116,928
55,101	-13,699	254,791	116,983
56,115	-13,454	254,531	117,066
57,130	-13,164	254,494	117,290
58,144	-12,905	254,176	117,357
59,159	-12,810	253,935	117,316
60,174	-12,798	253,767	117,239
61,188	-12,874	253,602	117,087
62,203	-12,994	253,324	116,844
63,217	-13,053	253,109	116,684
64,232	-12,928	253,019	116,739
65,247	-13,186	252,814	116,413
66,261	-13,113	252,503	116,322
67,276	-13,274	252,270	116,066
68,290	-13,563	251,888	115,632
69,305	-13,667	251,791	115,488
70,320	-13,354	251,456	115,592
71,334	-13,263	251,473	115,668
72,349	-12,967	251,247	115,806
73,363	-12,896	251,047	115,764
74,378	-12,924	250,812	115,622
75,393	-13,091	250,572	115,358
76,407	-13,157	250,412	115,218
77,422	-12,995	250,183	115,240
78,436	-13,000	249,971	115,129
79,451	-12,949	249,807	115,086
80,466	-13,078	249,535	114,840
81,480	-13,255	249,312	114,578
82,495	-13,138	248,959	114,505
83,509	-13,230	248,935	114,405
84,524	-13,340	248,733	114,210
85,539	-13,564	248,561	113,932
86,553	-13,292	248,305	114,034
87,568	-13,239	248,079	113,964
88,582	-13,196	247,848	113,884
89,597	-13,287	247,752	113,753
90,611	-13,284	247,604	113,677
91,626	-13,114	247,523	113,773
92,641	-13,202	247,184	113,533
93,655	-13,140	247,181	113,574
94,670	-13,243	246,607	113,214
95,684	-13,111	246,635	113,327
96,699	-13,211	246,485	113,165
97,714	-13,177	246,230	113,066
98,728	-13,330	246,037	112,839
99,743	-13,533	245,920	112,607
100,757	-13,352	245,440	112,527
101,772	-13,287	245,280	112,497
102,787	-13,375	245,348	112,445
103,801	-13,489	245,088	112,222
104,816	-13,229	244,867	112,326
105,830	-13,109	244,761	112,367
106,845	-13,002	244,496	112,324
107,860	-13,100	244,419	112,197
108,874	-13,191	244,091	111,961
109,889	-13,194	243,956	111,887
110,903	-13,045	243,786	111,922
111,918	-13,328	243,529	111,561
112,933	-13,169	243,389	111,618
113,947	-13,314	243,391	111,490
114,962	-13,267	243,121	111,394
115,976	-13,259	242,981	111,327
116,991	-13,181	242,819	111,307
118,006	-13,045	242,629	111,321
119,020	-13,279	242,506	111,063
120,035	-13,135	242,200	111,031
121,049	-13,044	242,157	111,076
122,064	-12,978	241,944	111,023
123,079	-13,025	241,732	110,877
124,093	-13,272	241,525	110,570
125,108	-13,252	241,354	110,499
126,122	-13,571	240,899	110,020
127,137	-13,631	240,921	109,972
128,151	-13,364	240,634	110,048
129,166	-13,386	240,600	110,005
130,181	-13,488	240,245	109,750
131,195	-13,481	240,074	109,668
132,210	-13,318	239,906	109,713
133,224	-13,204	239,912	109,799
134,239	-13,071	239,640	109,772
135,254	-13,041	239,499	109,722
136,268	-13,288	239,293	109,418
137,283	-13,528	238,886	109,029
138,297	-13,407	238,836	109,094
139,312	-13,754	238,607	108,700
140,327	-13,334	238,535	108,995
141,341	-13,041	238,522	109,216
142,356	-12,884	238,338	109,248
143,370	-13,175	238,207	108,945
144,385	-12,847	237,959	109,085
145,400	-12,797	237,864	109,072
146,414	-12,948	237,729	108,879
147,429	-12,892	237,507	108,813
148,443	-12,843	237,249	108,724
149,458	-12,975	237,153	108,564
150,473	-13,051	236,828	108,345
151,487	-13,064	236,732	108,281
152,502	-12,804	236,549	108,395
153,516	-12,903	236,378	108,228
154,531	-12,979	236,199	108,076
155,546	-13,067	236,040	107,924
156,560	-13,079	235,898	107,840
157,575	-13,001	235,705	107,804
158,589	-12,897	235,511	107,788
159,604	-12,774	235,292	107,776
160,619	-12,682	235,093	107,748
161,633	-12,733	234,993	107,653
162,648	-12,911	234,883	107,451
163,662	-13,063	234,735	107,254
164,677	-12,975	234,508	107,210
165,692	-12,983	234,339	107,117
166,706	-12,809	234,392	107,269
167,721	-12,618	233,987	107,225
168,735	-12,737	234,123	107,183
169,750	-12,824	233,775	106,946
170,764	-12,972	233,705	106,788
171,779	-12,887	233,564	106,781
172,794	-12,687	233,262	106,791
173,808	-13,116	233,134	106,386
174,823	-13,480	232,751	105,916
175,837	-13,650	232,680	105,741
176,852	-13,206	232,641	106,062
177,867	-13,039	232,576	106,154
178,881	-13,029	232,412	106,077
179,896	-12,834	232,319	106,177
180,910	-12,805	232,114	106,097
181,925	-12,844	231,711	105,873
182,940	-12,946	231,819	105,833
183,954	-12,715	231,518	105,867
184,969	-12,692	231,391	105,817
185,983	-12,649	231,213	105,760
186,998	-12,668	231,188	105,724
188,013	-12,578	230,935	105,668
189,027	-12,668	230,846	105,548
190,042	-12,555	230,503	105,470
191,056	-12,523	230,253	105,371
192,071	-12,742	230,217	105,176
193,086	-12,839	230,183	105,075
194,100	-12,592	229,844	105,102
195,115	-13,210	229,424	104,424
196,129	-13,858	229,518	103,958
197,144	-7,937	231,331	109,371
198,159	-1,598	233,134	115,164
199,173	1,672	234,287	118,282
200,188	2,531	234,033	118,814
201,202	2,422	234,047	118,726
202,217	2,285	233,864	118,516
203,232	2,745	233,643	118,751
204,246	2,680	233,647	118,692
205,261	2,798	233,491	118,694
206,275	2,863	233,305	118,639
207,290	2,907	233,309	118,665
208,304	2,720	233,259	118,484
209,319	2,624	233,021	118,278
210,334	2,645	232,710	118,125
211,348	2,472	232,348	117,797
212,363	2,277	232,068	117,494
213,377	2,002	231,864	117,167
214,392	1,996	231,832	117,136
215,407	2,029	231,716	117,093
216,421	2,483	231,525	117,336
217,436	2,265	231,378	117,084
218,450	1,940	231,143	116,703
219,465	2,139	230,918	116,733
220,480	2,059	230,912	116,658
221,494	1,838	230,691	116,366
222,509	2,104	230,714	116,571
223,523	2,097	230,535	116,466
224,538	2,085	230,294	116,324
225,553	2,105	230,220	116,291
226,567	2,017	230,060	116,133
227,582	2,124	230,005	116,176
228,596	2,257	229,902	116,216
229,611	2,347	229,552	116,098
230,626	1,829	229,419	115,624
231,640	1,948	229,325	115,657
232,655	2,326	229,126	115,835
233,669	2,539	229,033	115,940
234,684	2,880	229,008	116,177
235,699	2,304	228,874	115,659
236,713	2,140	228,552	115,362
237,728	2,149	228,299	115,231
238,742	1,844	228,260	114,969
239,757	2,076	228,034	115,021
240,772	2,201	227,808	114,991
241,786	1,890	227,755	114,719
242,801	2,084	227,760	114,858
243,815	2,514	227,683	115,135
244,830	2,518	227,638	115,105
245,844	2,181	227,259	114,648
246,859	1,939	227,098	114,374
247,874	2,211	227,087	114,564
248,888	2,444	226,772	114,570
249,903	2,276	226,602	114,348
250,917	2,141	226,658	114,264
251,932	2,129	226,333	114,081
252,947	1,738	226,171	113,696
253,961	1,759	225,998	113,614
254,976	1,995	225,765	113,663
255,990	2,146	225,875	113,822
257,005	2,221	225,734	113,798
258,020	2,280	225,509	113,717
259,034	2,405	225,428	113,760
260,049	2,024	225,415	113,459
261,063	2,336	225,040	113,493
262,078	2,392	224,976	113,492
263,093	2,690	224,869	113,650
264,107	2,575	224,733	113,485
265,122	2,618	224,552	113,416
266,136	2,614	224,561	113,408
267,151	2,443	224,320	113,149
268,166	1,974	223,942	112,599
269,180	1,849	223,751	112,401
270,195	1,699	223,748	112,278
271,209	1,998	223,432	112,330
272,224	1,915	223,585	112,336
273,239	2,034	223,547	112,395
274,253	2,142	223,146	112,264
275,268	1,880	223,032	112,002
276,282	1,889	222,738	111,852
277,297	1,846	222,617	111,749
278,312	2,023	222,636	111,879
279,326	2,235	222,379	111,897
280,341	2,229	222,409	111,897
281,355	2,169	222,181	111,728
282,370	2,037	222,176	111,618
283,384	1,742	222,064	111,335
284,399	1,807	221,704	111,193
285,414	1,897	221,548	111,171
286,428	2,170	221,377	111,275
287,443	2,373	221,340	111,395
288,457	2,233	221,312	111,269
289,472	2,097	221,032	111,019
290,487	1,677	220,768	110,569
291,501	1,717	220,562	110,485
292,516	1,781	220,400	110,441
293,530	1,758	220,406	110,417
294,545	1,928	220,216	110,436
295,560	2,068	220,136	110,488
296,574	2,170	219,996	110,483
297,589	1,880	219,867	110,197
298,603	2,267	219,668	110,368
299,618	2,147	219,570	110,222
300,633	2,436	219,470	110,371
301,647	2,338	219,375	110,243
302,662	2,391	219,235	110,201
303,676	2,191	219,222	110,040
304,691	2,362	218,980	110,032
305,706	2,535	218,787	110,050
306,720	2,217	218,762	109,798
307,735	2,089	218,463	109,546
308,749	1,988	218,421	109,442
309,764	2,366	218,259	109,624
310,779	2,617	218,082	109,706
311,793	2,342	217,855	109,384
312,808	2,226	218,000	109,363
313,822	2,187	217,608	109,129
314,837	2,110	217,540	109,031
315,852	1,777	217,289	108,656
316,866	2,071	217,319	108,872
317,881	2,277	217,130	108,916
318,895	2,132	217,025	108,749
319,910	2,064	216,725	108,540
320,925	1,686	216,454	108,125
321,939	1,583	216,406	108,018
322,954	1,567	216,335	107,961
323,968	1,965	216,312	108,224
324,983	2,321	216,293	108,459
325,997	2,549	216,189	108,560
327,012	2,696	215,943	108,531
328,027	2,430	215,780	108,251
329,041	2,734	215,804	108,469
330,056	2,549	215,461	108,156
331,070	2,063	215,263	107,701
332,085	1,864	215,164	107,501
333,100	1,942	215,013	107,472
334,114	2,212	214,936	107,615
335,129	2,061	214,851	107,456
336,143	2,030	214,485	107,242
337,158	1,855	214,434	107,083
338,173	2,141	214,173	107,145
339,187	1,757	213,971	106,763
340,202	1,731	213,924	106,711
341,216	1,987	213,903	106,872
342,231	2,457	213,879	107,182
343,246	2,197	213,791	106,945
344,260	2,176	213,461	106,755
345,275	2,497	213,398	106,940
346,289	2,431	213,346	106,858
347,304	2,399	213,263	106,785
348,319	2,022	212,938	106,348
349,333	2,068	212,896	106,350
350,348	2,323	212,794	106,468
351,362	2,410	212,622	106,434
352,377	2,505	212,489	106,424
353,392	2,204	212,447	106,183
354,406	2,032	212,289	105,975
355,421	196,400	1315,724	1391,606
356,435	157,066	1450,109	1391,554
