DTS Sentinel unit serial number:	SN410029Multiplexer serial number:	ORYXHardware model number:	OX2-SRSoftware version number:	ORYX F/W v4,00 Oryx Data Collector v3.7.2.0data status	okinstallation	B6 Nyhavnadifferential loss correction	single-endedforward channel	channel 2reverse channel	N/Adate	2023/12/10time	08:10:08forward acquisition time	300,00reverse acquisition time	0,00gamma	499,1914k internal	0,3123k external	0,3123temperature offset calibration	1,0000default loss term (dB/km)	0,3820temperature slope calibration	1,0000multiplexer offset coefficient	1,0000multiplexer slope coefficient	1,0000fibre end	0,00T internal ref (°C)	22,57T ext. ref 1 (°C)	6,33T ext. ref 2 (°C)	6,35length (m)	temperature (°C)	Stokes	anti-Stokes-744,400	213,342	0,045	-0,053
-743,385	-152,711	-0,254	-0,013
-742,371	-200,000	0,032	-0,149
-741,356	155,280	-0,117	0,120
-740,342	800,000	-0,042	0,114
-739,327	16,914	-0,113	0,066
-738,312	-130,716	0,074	0,007
-737,298	-75,625	-0,206	0,054
-736,283	800,000	0,042	-0,095
-735,269	643,683	-0,049	0,093
-734,254	283,163	0,030	-0,041
-733,239	-118,128	-0,350	-0,046
-732,225	-115,387	0,127	-0,018
-731,210	244,910	0,079	0,099
-730,196	800,000	-0,043	0,095
-729,181	-147,427	0,130	0,008
-728,167	-200,000	0,003	0,145
-727,152	-84,985	0,085	-0,020
-726,137	176,504	-0,106	-0,115
-725,123	30,173	-0,081	-0,052
-724,108	-119,055	-0,073	-0,009
-723,094	-200,000	0,037	-0,147
-722,079	-130,787	-0,135	-0,013
-721,064	-200,000	-0,005	-0,186
-720,050	-40,838	-0,100	-0,038
-719,035	-200,000	-0,015	-0,064
-718,021	-200,000	-0,042	-0,171
-717,006	-200,000	-0,002	0,110
-715,991	-200,000	-0,031	-0,205
-714,977	316,210	0,114	-0,161
-713,962	96,169	-0,110	-0,093
-712,948	232,922	-0,052	0,064
-711,933	193,796	0,032	-0,036
-710,918	-200,000	-0,020	-0,073
-709,904	346,497	-0,083	-0,122
-708,889	494,605	0,052	-0,089
-707,875	265,775	-0,097	-0,127
-706,860	800,000	0,046	-0,118
-705,845	152,862	-0,041	0,042
-704,831	-110,161	0,153	-0,023
-703,816	-9,696	-0,076	0,037
-702,802	-48,004	-0,013	0,005
-701,787	800,000	-0,042	-0,115
-700,772	36,618	0,100	-0,066
-699,758	-1,390	0,054	0,028
-698,743	800,000	0,044	0,117
-697,729	-200,000	0,021	0,075
-696,714	134,677	-0,077	0,075
-695,699	-176,852	-0,095	-0,002
-694,685	172,792	-0,062	0,067
-693,670	-150,935	-0,063	-0,003
-692,656	-4,092	0,124	0,064
-691,641	155,410	0,135	-0,138
-690,627	-143,552	0,089	-0,006
-689,612	500,693	-0,086	0,148
-688,597	-70,182	0,066	-0,018
-687,583	203,839	-0,112	-0,129
-686,568	-200,000	-0,019	-0,081
-685,554	800,000	0,039	-0,085
-684,539	56,371	-0,070	0,051
-683,524	50,028	-0,081	-0,057
-682,510	67,957	0,092	-0,070
-681,495	-60,892	-0,034	0,011
-680,481	34,989	0,034	0,022
-679,466	-146,000	-0,092	-0,006
-678,451	-200,000	0,026	-0,128
-677,437	800,000	-0,014	0,046
-676,422	-169,950	0,089	0,002
-675,408	-200,000	-0,001	-0,010
-674,393	1,396	0,131	0,070
-673,378	-200,000	-0,009	0,035
-672,364	41,816	-0,047	0,032
-671,349	-61,008	-0,055	0,017
-670,335	-10,191	0,107	0,052
-669,320	-200,000	-0,005	-0,057
-668,305	800,000	0,013	-0,042
-667,291	177,513	0,035	-0,038
-666,276	-77,422	-0,080	0,021
-665,262	400,933	-0,106	0,166
-664,247	-200,000	0,003	-0,057
-663,232	3,359	-0,060	0,032
-662,218	97,741	-0,070	0,060
-661,203	264,434	0,056	-0,072
-660,189	-166,743	0,005	-0,000
-659,174	-77,245	-0,102	-0,026
-658,159	142,095	-0,056	0,055
-657,145	-200,000	-0,041	-0,189
-656,130	-48,395	-0,115	-0,041
-655,116	800,000	-0,006	0,016
-654,101	34,274	-0,076	0,049
-653,086	-200,000	0,002	0,085
-652,072	-130,246	-0,099	-0,010
-651,057	-125,449	0,139	-0,016
-650,043	10,243	0,059	0,033
-649,028	-200,000	-0,008	-0,208
-648,014	38,674	0,063	-0,042
-646,999	33,950	-0,018	-0,012
-645,984	576,097	0,052	-0,094
-644,970	43,255	-0,055	0,037
-643,955	16,696	-0,074	-0,043
-642,941	18,917	0,068	-0,041
-641,926	-124,924	-0,088	-0,010
-640,911	-108,837	0,014	0,002
-639,897	223,058	-0,011	-0,013
-638,882	116,897	-0,045	0,041
-637,868	57,058	0,056	-0,040
-636,853	-27,689	-0,096	-0,041
-635,838	-200,000	-0,026	-0,169
-634,824	-116,704	-0,114	-0,015
-633,809	150,228	0,083	-0,084
-632,795	100,658	0,143	0,123
-631,780	-77,643	0,068	0,017
-630,765	-55,808	0,025	-0,008
-629,751	-105,270	-0,087	0,015
-628,736	800,000	-0,027	-0,071
-627,722	-200,000	0,028	0,112
-626,707	318,111	-0,073	-0,102
-625,692	-173,219	0,178	-0,004
-624,678	-16,280	-0,097	-0,046
-623,663	147,213	-0,027	0,027
-622,649	52,942	-0,094	-0,067
-621,634	800,000	0,038	-0,103
-620,619	800,000	0,034	0,075
-619,605	800,000	0,043	-0,089
-618,590	-178,914	0,071	0,001
-617,576	-200,000	-0,015	-0,126
-616,561	-174,282	-0,081	0,002
-615,546	102,869	-0,014	0,012
-614,532	32,156	-0,117	-0,075
-613,517	3,335	-0,127	-0,068
-612,503	-1,379	0,100	-0,052
-611,488	-159,794	0,066	0,003
-610,474	-23,348	-0,069	-0,030
-609,459	800,000	0,023	0,076
-608,444	800,000	-0,069	-0,215
-607,430	301,646	0,026	-0,036
-606,415	-67,420	-0,125	0,036
-605,401	106,642	-0,081	0,071
-604,386	30,576	0,173	0,110
-603,371	-200,000	0,023	0,183
-602,357	153,893	-0,089	0,090
-601,342	37,400	-0,067	-0,044
-600,328	-67,675	0,072	-0,021
-599,313	109,015	-0,095	-0,084
-598,298	375,344	-0,041	-0,063
-597,284	-140,749	0,087	-0,007
-596,269	-1,503	0,047	-0,024
-595,255	800,000	-0,041	0,127
-594,240	151,130	-0,005	-0,005
-593,225	192,063	-0,075	-0,084
-592,211	800,000	-0,010	-0,033
-591,196	-35,038	-0,124	-0,050
-590,182	68,336	-0,021	0,016
-589,167	-116,920	0,061	0,008
-588,152	182,674	0,040	0,043
-587,138	385,903	-0,044	-0,068
-586,123	-200,000	-0,019	-0,109
-585,109	-12,068	0,063	-0,030
-584,094	690,289	-0,041	0,081
-583,079	-10,301	0,075	0,037
-582,065	124,787	-0,027	0,026
-581,050	-132,458	-0,110	-0,010
-580,036	-107,559	0,086	0,014
-579,021	-114,458	0,064	-0,009
-578,006	800,000	0,013	0,037
-576,992	-42,959	-0,050	-0,019
-575,977	-170,025	-0,013	-0,000
-574,963	82,089	0,071	0,057
-573,948	25,857	-0,101	0,062
-572,934	57,201	0,072	0,052
-571,919	47,443	0,095	-0,066
-570,904	181,492	-0,025	0,027
-569,890	800,000	-0,009	0,021
-568,875	-200,000	0,012	-0,054
-567,861	75,227	0,097	-0,076
-566,846	-159,160	0,030	0,001
-565,831	-200,000	-0,017	-0,102
-564,817	10,407	-0,121	-0,068
-563,802	-5,871	-0,029	-0,015
-562,788	-200,000	0,014	-0,054
-561,773	34,463	-0,080	-0,051
-560,758	-200,000	-0,010	0,105
-559,744	60,369	0,127	0,093
-558,729	800,000	0,018	0,042
-557,715	576,325	-0,096	-0,175
-556,700	245,586	0,009	0,011
-555,685	584,992	-0,031	0,057
-554,671	35,720	-0,061	0,040
-553,656	-200,000	0,031	0,137
-552,642	119,667	0,104	0,095
-551,627	-109,501	-0,107	0,016
-550,612	-200,000	-0,008	-0,145
-549,598	-200,000	0,014	-0,070
-548,583	697,168	-0,055	-0,107
-547,569	-77,179	0,084	0,021
-546,554	311,829	0,047	0,066
-545,539	-51,862	0,069	0,024
-544,525	800,000	0,029	-0,077
-543,510	163,573	0,056	0,059
-542,496	-200,000	0,022	0,159
-541,481	800,000	-0,031	0,087
-540,466	290,589	-0,085	0,115
-539,452	-200,000	0,017	0,063
-538,437	133,963	0,046	0,044
-537,423	270,860	-0,078	0,102
-536,408	-53,523	0,050	0,017
-535,393	435,036	-0,058	-0,093
-534,379	452,029	-0,061	-0,100
-533,364	326,609	0,100	-0,142
-532,350	2,690	-0,038	0,020
-531,335	-19,168	-0,045	0,020
-530,321	36,042	0,066	0,043
-529,306	319,578	-0,116	-0,162
-528,291	-200,000	0,001	0,009
-527,277	-121,408	-0,146	0,018
-526,262	120,112	-0,166	0,152
-525,248	800,000	0,030	-0,064
-524,233	573,277	-0,041	0,075
-523,218	297,712	0,030	0,041
-522,204	800,000	0,029	0,060
-521,189	392,640	-0,069	-0,106
-520,175	800,000	-0,063	0,134
-519,160	-200,000	-0,012	0,065
-518,145	-200,000	-0,002	0,034
-517,131	800,000	-0,050	0,107
-516,116	-200,000	-0,006	0,041
-515,102	-58,538	0,161	-0,051
-514,087	61,554	-0,061	-0,045
-513,072	-200,000	-0,009	-0,112
-512,058	12,763	0,058	-0,033
-511,043	181,128	0,038	0,041
-510,029	-50,212	0,165	0,057
-509,014	800,000	0,066	0,143
-507,999	-91,020	-0,078	0,016
-506,985	4,702	-0,102	-0,055
-505,970	-94,705	-0,115	0,023
-504,956	-43,477	0,046	0,017
-503,941	-200,000	-0,001	0,009
-502,926	-13,411	0,091	0,044
-501,912	282,545	-0,062	-0,082
-500,897	69,232	-0,129	0,098
-499,883	-200,000	0,022	-0,101
-498,868	259,445	-0,065	0,083
-497,853	-174,794	-0,093	-0,002
-496,839	774,702	-0,045	0,091
-495,824	-148,128	-0,073	-0,004
-494,810	43,219	-0,126	0,085
-493,795	-197,045	-0,081	0,000
-492,781	-200,000	0,013	0,111
-491,766	648,806	-0,058	-0,111
-490,751	-76,808	0,037	0,010
-489,737	102,423	0,038	0,032
-488,722	-200,000	0,005	-0,092
-487,708	254,419	0,077	0,098
-486,693	-18,851	-0,072	0,033
-485,678	-67,877	0,048	-0,014
-484,664	588,022	0,013	-0,024
-483,649	432,205	0,047	-0,075
-482,635	-14,789	-0,031	-0,015
-481,620	248,643	0,072	0,090
-480,605	-200,000	-0,005	0,063
-479,591	-161,413	-0,097	0,004
-478,576	54,138	0,049	0,035
-477,562	25,433	-0,121	-0,074
-476,547	-109,285	-0,072	0,011
-475,532	-126,014	-0,068	-0,007
-474,518	103,760	0,080	-0,069
-473,503	-200,000	0,036	0,127
-472,489	122,586	0,056	-0,051
-471,474	-200,000	-0,012	0,113
-470,459	8,174	-0,124	-0,068
-469,445	257,261	-0,087	0,110
-468,430	141,166	0,009	-0,009
-467,416	311,090	0,015	0,020
-466,401	-139,292	0,045	0,004
-465,386	-50,582	0,041	0,014
-464,372	-57,142	-0,062	-0,020
-463,357	800,000	-0,003	-0,008
-462,343	-183,179	-0,070	-0,001
-461,328	-200,000	0,004	-0,035
-460,313	-149,424	-0,077	-0,004
-459,299	574,850	0,055	0,100
-458,284	-26,961	0,055	0,024
-457,270	-48,941	-0,114	-0,040
-456,255	-200,000	-0,020	-0,156
-455,241	-79,773	-0,062	-0,015
-454,226	-200,000	0,035	-0,215
-453,211	-43,973	0,067	-0,025
-452,197	-200,000	-0,003	0,025
-451,182	-200,000	0,006	0,058
-450,168	176,190	0,131	0,140
-449,153	-99,565	-0,093	-0,017
-448,138	-200,000	0,019	-0,168
-447,124	-46,620	-0,156	-0,056
-446,109	-200,000	-0,023	0,115
-445,095	154,422	-0,077	-0,078
-444,080	-49,058	0,065	-0,023
-443,065	42,853	-0,012	-0,008
-442,051	-200,000	0,013	0,092
-441,036	-64,633	-0,108	0,032
-440,022	800,000	-0,036	0,111
-439,007	-200,000	0,006	-0,073
-437,992	372,069	0,109	0,164
-436,978	19,951	-0,041	0,024
-435,963	11,711	0,122	-0,069
-434,949	-107,530	-0,073	-0,012
-433,934	-9,675	0,082	-0,040
-432,919	-200,000	0,003	-0,089
-431,905	-163,227	0,047	-0,002
-430,890	-54,982	-0,065	-0,021
-429,876	800,000	0,019	0,047
-428,861	-51,521	0,195	-0,067
-427,846	-48,769	0,060	0,021
-426,832	-105,184	-0,158	0,026
-425,817	-137,878	0,060	-0,005
-424,803	-200,000	0,006	-0,131
-423,788	-200,000	-0,000	-0,028
-422,773	800,000	0,041	-0,107
-421,759	-200,000	-0,008	0,115
-420,744	-55,506	0,160	0,052
-419,730	800,000	-0,045	0,105
-418,715	-200,000	-0,001	-0,106
-417,701	171,673	0,038	0,040
-416,686	491,588	-0,039	0,065
-415,671	143,020	0,107	0,104
-414,657	-200,000	-0,008	0,075
-413,642	-64,505	-0,051	-0,015
-412,628	103,314	0,081	-0,070
-411,613	-96,337	-0,039	-0,008
-410,598	-89,595	-0,136	-0,029
-409,584	33,815	0,004	-0,002
-408,569	-200,000	0,009	0,030
-407,555	582,839	-0,037	0,068
-406,540	-200,000	0,024	0,107
-405,525	-92,531	-0,131	-0,027
-404,511	800,000	0,021	-0,061
-403,496	31,762	0,111	-0,070
-402,482	800,000	0,024	0,068
-401,467	-89,000	0,119	-0,026
-400,452	54,715	-0,070	0,049
-399,438	-107,933	-0,076	-0,012
-398,423	-200,000	-0,006	-0,094
-397,409	800,000	-0,011	0,023
-396,394	-144,918	0,040	-0,003
-395,379	-200,000	0,033	-0,147
-394,365	42,399	-0,051	-0,034
-393,350	-200,000	-0,019	0,128
-392,336	800,000	-0,053	0,157
-391,321	63,780	0,051	-0,037
-390,306	202,656	-0,058	-0,066
-389,292	82,342	-0,107	-0,085
-388,277	800,000	-0,067	-0,137
-387,263	-96,513	0,060	0,012
-386,248	800,000	0,040	0,095
-385,233	-200,000	0,003	0,063
-384,219	156,164	0,060	0,061
-383,204	111,589	-0,097	0,086
-382,190	-151,014	0,078	-0,004
-381,175	800,000	-0,031	-0,066
-380,160	19,353	0,093	0,055
-379,146	-200,000	0,002	0,013
-378,131	744,937	-0,016	0,032
-377,117	9,058	-0,021	-0,012
-376,102	-200,000	0,008	-0,065
-375,088	800,000	0,038	-0,101
-374,073	-182,219	0,053	-0,001
-373,058	275,718	0,080	-0,104
-372,044	-78,097	-0,035	0,009
-371,029	110,178	0,106	0,093
-370,015	-16,814	0,151	0,070
-369,000	154,120	0,077	-0,077
-367,985	278,443	-0,051	-0,068
-366,971	22,297	0,026	-0,015
-365,956	-89,885	-0,079	-0,017
-364,942	800,000	0,022	0,051
-363,927	325,770	0,101	0,142
-362,912	-66,740	-0,084	0,024
-361,898	-156,864	-0,101	-0,004
-360,883	232,282	-0,026	-0,032
-359,869	800,000	-0,035	0,075
-358,854	-5,598	0,036	-0,018
-357,839	535,947	-0,043	-0,075
-356,825	-200,000	-0,009	0,040
-355,810	552,336	0,060	0,107
-354,796	800,000	0,030	-0,081
-353,781	-82,827	-0,134	-0,031
-352,766	-113,448	0,076	-0,011
-351,752	82,064	0,061	0,049
-350,737	800,000	0,031	0,084
-349,723	800,000	0,052	0,134
-348,708	362,324	0,065	0,096
-347,693	76,430	0,031	-0,024
-346,679	800,000	-0,021	0,065
-345,664	-158,850	-0,049	0,002
-344,650	-200,000	-0,012	0,042
-343,635	-45,804	-0,091	-0,033
-342,620	123,480	0,024	-0,022
-341,606	218,562	-0,085	0,100
-340,591	-55,959	-0,142	0,046
-339,577	284,285	0,003	0,004
-338,562	800,000	0,027	0,082
-337,548	-200,000	0,031	-0,157
-336,533	402,206	0,031	0,048
-335,518	-200,000	-0,006	0,181
-334,504	121,413	0,053	0,049
-333,489	-51,150	0,072	-0,025
-332,475	800,000	-0,015	0,037
-331,460	14,066	-0,053	-0,030
-330,445	-200,000	-0,004	-0,052
-329,431	-200,000	-0,006	-0,068
-328,416	800,000	0,073	0,188
-327,402	-200,000	0,018	0,112
-326,387	-7,134	0,049	-0,024
-325,372	-26,486	0,113	0,048
-324,358	289,553	0,123	-0,164
-323,343	58,181	-0,041	-0,029
-322,329	800,000	0,027	-0,065
-321,314	-200,000	0,028	0,138
-320,299	800,000	0,047	0,111
-319,285	58,946	0,026	0,019
-318,270	-171,933	-0,175	0,004
-317,256	-45,999	0,047	-0,017
-316,241	-200,000	0,018	-0,097
-315,226	342,139	-0,071	-0,102
-314,212	-200,000	-0,016	-0,145
-313,197	-134,597	0,146	-0,013
-312,183	51,640	0,100	-0,069
-311,168	142,979	-0,096	-0,094
-310,153	-200,000	0,018	0,063
-309,139	-62,770	0,072	-0,022
-308,124	-200,000	-0,004	0,123
-307,110	-200,000	0,023	-0,076
-306,095	-200,000	-0,013	0,076
-305,080	746,070	-0,030	-0,060
-304,066	800,000	0,003	-0,007
-303,051	800,000	0,027	-0,057
-302,037	-118,816	-0,174	-0,022
-301,022	-200,000	0,015	-0,073
-300,008	545,128	0,037	0,066
-298,993	164,483	0,026	0,027
-297,978	-86,386	-0,067	0,015
-296,964	-200,000	-0,009	0,097
-295,949	800,000	-0,023	-0,067
-294,935	671,813	0,048	-0,091
-293,920	87,621	0,049	-0,040
-292,905	-64,733	0,156	-0,046
-291,891	107,161	0,083	-0,072
-290,876	316,779	0,098	0,136
-289,862	-127,553	0,106	-0,011
-288,847	800,000	0,055	0,122
-287,832	-117,202	-0,113	-0,015
-286,818	-168,731	-0,121	0,003
-285,803	-39,448	-0,108	-0,041
-284,789	800,000	0,050	0,153
-283,774	-147,286	0,096	-0,006
-282,759	800,000	-0,039	-0,098
-281,745	-200,000	-0,006	-0,123
-280,730	-125,058	-0,108	0,012
-279,716	-83,428	0,113	0,026
-278,701	286,167	0,022	0,030
-277,686	800,000	0,034	0,094
-276,672	22,350	0,071	0,042
-275,657	71,539	-0,081	-0,062
-274,643	-7,678	0,064	0,031
-273,628	25,471	-0,055	-0,033
-272,613	-200,000	-0,015	-0,065
-271,599	-87,547	0,114	-0,025
-270,584	-23,461	0,130	0,057
-269,570	45,975	0,047	-0,032
-268,555	323,373	-0,040	-0,056
-267,540	-200,000	-0,009	-0,072
-266,526	93,228	-0,065	-0,054
-265,511	-146,206	-0,057	-0,004
-264,497	22,041	0,140	0,083
-263,482	107,644	0,119	-0,103
-262,467	54,645	0,168	0,119
-261,453	-200,000	-0,015	0,100
-260,438	364,493	0,016	0,023
-259,424	150,108	-0,055	-0,055
-258,409	-200,000	-0,023	-0,116
-257,395	-29,398	0,155	0,065
-256,380	-30,386	-0,123	-0,051
-255,365	-58,381	0,095	0,030
-254,351	-100,223	0,178	-0,032
-253,336	-175,384	0,093	0,002
-252,322	-200,000	0,040	-0,132
-251,307	-131,792	-0,068	-0,006
-250,292	-177,882	0,066	-0,001
-249,278	23,449	0,108	-0,065
-248,263	-200,000	-0,021	-0,119
-247,249	-200,000	-0,009	-0,190
-246,234	54,731	-0,073	0,051
-245,219	-6,636	0,037	-0,019
-244,205	-200,000	0,027	-0,090
-243,190	-200,000	0,020	0,178
-242,176	800,000	0,023	0,051
-241,161	-150,132	0,019	0,001
-240,146	-200,000	0,002	-0,072
-239,132	-116,431	-0,033	-0,004
-238,117	-27,668	0,145	-0,061
-237,103	-72,291	-0,105	0,028
-236,088	443,390	-0,083	-0,134
-235,073	-31,973	-0,040	-0,016
-234,059	-116,656	-0,088	-0,012
-233,044	-44,928	0,078	-0,028
-232,030	-97,036	-0,050	-0,009
-231,015	-200,000	0,001	0,073
-230,000	-200,000	-0,017	-0,105
-228,986	800,000	-0,043	-0,096
-227,971	-200,000	-0,003	-0,066
-226,957	-13,731	0,107	0,050
-225,942	-200,000	0,008	-0,123
-224,927	800,000	0,044	-0,091
-223,913	-200,000	0,015	-0,056
-222,898	800,000	-0,026	0,069
-221,884	-148,655	0,137	0,008
-220,869	-200,000	0,027	0,000
-219,855	-200,000	0,003	0,050
-218,840	-200,000	-0,001	0,089
-217,825	84,171	-0,100	0,080
-216,811	800,000	-0,022	-0,048
-215,796	-57,092	-0,183	-0,058
-214,782	-103,662	0,063	-0,011
-213,767	800,000	0,077	0,195
-212,752	169,024	-0,035	0,037
-211,738	800,000	-0,061	0,141
-210,723	225,632	-0,079	0,093
-209,709	52,974	-0,040	0,028
-208,694	-54,921	-0,074	0,024
-207,679	42,563	-0,061	0,040
-206,665	154,030	-0,086	-0,086
-205,650	-71,816	-0,058	0,016
-204,636	-200,000	-0,010	0,088
-203,621	220,462	0,041	0,048
-202,606	-2,250	-0,061	0,031
-201,592	-86,794	0,174	0,038
-200,577	88,515	-0,127	0,103
-199,563	-16,737	0,134	-0,061
-198,548	37,514	0,061	0,040
-197,533	181,855	0,095	-0,102
-196,519	-32,766	-0,092	-0,037
-195,504	-93,504	-0,125	0,025
-194,490	2,145	0,077	-0,040
-193,475	3,672	0,082	0,043
-192,460	800,000	0,048	0,101
-191,446	102,411	-0,029	-0,025
-190,431	-200,000	-0,002	-0,067
-189,417	176,146	-0,089	-0,094
-188,402	1,715	-0,065	-0,034
-187,387	-200,000	-0,003	-0,114
-186,373	500,487	0,083	-0,141
-185,358	76,167	-0,099	0,077
-184,344	543,701	-0,007	-0,013
-183,329	-200,000	0,002	0,112
-182,315	800,000	0,035	0,076
-181,300	-200,000	-0,007	-0,084
-180,285	212,514	0,055	-0,064
-179,271	254,665	0,029	-0,036
-178,256	-67,188	-0,101	0,029
-177,242	-72,689	0,088	-0,023
-176,227	136,694	-0,102	0,097
-175,212	-200,000	0,011	0,038
-174,198	337,399	-0,022	0,031
-173,183	-5,692	0,110	-0,055
-172,169	80,072	-0,040	-0,031
-171,154	800,000	-0,037	0,084
-170,139	-200,000	0,045	0,149
-169,125	-200,000	0,032	0,102
-168,110	-200,000	0,011	-0,044
-167,096	-200,000	0,027	0,122
-166,081	705,599	-0,080	-0,155
-165,066	299,902	-0,110	-0,148
-164,052	341,054	-0,066	-0,094
-163,037	-114,775	0,146	-0,020
-162,023	46,003	-0,119	-0,080
-161,008	-200,000	0,001	0,071
-159,993	-53,098	0,151	0,050
-158,979	800,000	-0,036	-0,076
-157,964	-101,360	-0,073	-0,013
-156,950	-200,000	-0,009	0,048
-155,935	-138,577	-0,032	-0,003
-154,920	334,913	0,064	-0,090
-153,906	-200,000	-0,007	0,240
-152,891	-200,000	0,018	0,098
-151,877	761,702	0,064	0,128
-150,862	-37,530	0,071	0,027
-149,847	-200,000	0,014	-0,121
-148,833	30,503	-0,069	0,043
-147,818	-95,632	0,116	0,022
-146,804	111,127	-0,073	0,064
-145,789	-200,000	0,008	0,115
-144,775	-157,475	-0,059	0,003
-143,760	139,824	0,097	-0,093
-142,745	-200,000	-0,002	-0,046
-141,731	-110,655	-0,030	-0,004
-140,716	151,632	0,115	-0,114
-139,702	3,368	0,061	0,032
-138,687	-32,006	0,050	-0,020
-137,672	-167,910	-0,155	-0,004
-136,658	-200,000	0,011	0,057
-135,643	-17,534	-0,167	-0,076
-134,629	-154,403	0,051	0,002
-133,614	56,062	0,070	-0,049
-132,599	705,396	0,074	0,143
-131,585	-200,000	0,022	0,074
-130,570	800,000	-0,017	-0,043
-129,556	206,217	0,065	-0,074
-128,541	-20,658	-0,087	-0,039
-127,526	-148,882	-0,105	-0,006
-126,512	-200,000	0,015	-0,079
-125,497	800,000	-0,034	0,081
-124,483	223,815	-0,076	0,089
-123,468	800,000	-0,076	0,171
-122,453	-200,000	-0,013	0,092
-121,439	-200,000	0,022	-0,209
-120,424	207,577	-0,107	-0,122
-119,410	-103,000	0,091	-0,015
-118,395	16,720	0,118	-0,068
-117,380	-124,056	0,106	0,012
-116,366	800,000	0,019	0,039
-115,351	-4,631	-0,079	-0,040
-114,337	111,937	-0,082	-0,072
-113,322	-200,000	-0,005	0,149
-112,307	-200,000	-0,015	-0,115
-111,293	11,744	-0,078	0,043
-110,278	205,152	0,073	-0,082
-109,264	-28,860	0,089	0,037
-108,249	-200,000	0,036	-0,161
-107,234	800,000	0,036	0,072
-106,220	-200,000	-0,029	0,201
-105,205	-64,888	0,086	0,025
-104,191	800,000	0,058	-0,129
-103,176	-37,312	0,062	-0,024
-102,162	-144,126	0,028	-0,002
-101,147	-200,000	0,010	0,086
-100,132	156,862	-0,056	0,057
-99,118	447,122	-0,064	-0,103
-98,103	401,104	0,125	-0,191
-97,089	61,576	0,054	0,039
-96,074	800,000	-0,022	0,048
-95,059	-200,000	0,041	0,151
-94,045	-200,000	0,004	-0,036
-93,030	-56,427	0,139	0,044
-92,016	-200,000	-0,010	-0,096
-91,001	800,000	0,049	-0,114
-89,986	-136,500	-0,086	0,007
-88,972	800,000	0,021	0,054
-87,957	-116,477	0,048	-0,006
-86,943	12,240	-0,050	0,028
-85,928	21,814	-0,049	-0,029
-84,913	12,775	0,111	-0,062
-83,899	-107,007	-0,074	0,012
-82,884	-71,719	0,114	-0,031
-81,870	-39,533	0,132	-0,050
-80,855	90,281	-0,051	0,042
-79,840	34,104	0,037	-0,023
-78,826	800,000	-0,047	-0,109
-77,811	-101,787	0,175	-0,030
-76,797	-200,000	0,008	-0,032
-75,782	35,937	0,079	0,050
-74,767	-200,000	-0,006	0,074
-73,753	-97,189	0,135	-0,025
-72,738	-200,000	0,012	0,059
-71,724	-200,000	0,021	-0,093
-70,709	339,201	-0,024	0,035
-69,694	-200,000	-0,005	0,030
-68,680	-78,408	-0,053	-0,013
-67,665	-97,343	0,152	0,029
-66,651	-200,000	-0,010	0,075
-65,636	800,000	-0,066	0,161
-64,622	168,427	0,040	-0,042
-63,607	-200,000	-0,003	-0,028
-62,592	149,451	0,033	-0,032
-61,578	-200,000	-0,002	0,033
-60,563	-200,000	0,053	0,186
-59,549	-200,000	0,005	0,098
-58,534	-115,164	-1,378	-0,187
-57,519	462,509	-0,892	-1,451
-56,505	-200,000	-0,895	-4,420
-55,490	41,767	0,536	-0,352
-54,476	800,000	5,084	11,866
-53,461	-200,000	13,392	253,254
-52,446	-200,000	689,094	2268,783
-51,432	595,695	1622,846	2926,900
-50,417	120,783	1636,289	1476,242
-49,403	73,561	1290,365	979,573
-48,388	38,435	1025,046	661,545
-47,373	24,532	982,654	588,443
-46,359	23,738	972,221	579,565
-45,344	22,754	968,096	573,868
-44,330	22,720	966,622	572,859
-43,315	22,609	965,312	571,698
-42,300	22,554	964,432	570,975
-41,286	22,574	963,371	570,388
-40,271	22,595	962,287	569,792
-39,257	22,523	961,394	569,008
-38,242	22,621	960,393	568,711
-37,227	22,555	959,763	568,102
-36,213	22,533	958,657	567,353
-35,198	22,520	957,964	566,876
-34,184	22,607	957,159	566,661
-33,169	22,564	956,322	566,002
-32,154	22,612	955,415	565,598
-31,140	22,655	954,503	565,175
-30,125	22,624	953,616	564,526
-29,111	22,644	952,766	564,065
-28,096	22,642	952,234	563,721
-27,082	22,631	951,532	563,249
-26,067	22,581	950,898	562,690
-25,052	22,576	950,034	562,143
-24,038	22,641	949,455	561,984
-23,023	22,611	948,853	561,510
-22,009	22,652	948,033	561,134
-20,994	22,652	947,677	560,901
-19,979	22,677	946,854	560,471
-18,965	22,616	946,234	559,886
-17,950	22,608	945,599	559,465
-16,936	22,534	945,070	558,892
-15,921	22,566	944,131	558,419
-14,906	22,505	943,600	557,888
-13,892	22,512	943,013	557,538
-12,877	22,456	942,432	556,995
-11,863	22,476	941,667	556,584
-10,848	22,461	941,211	556,245
-9,833	22,592	940,706	556,341
-8,819	22,594	940,103	555,969
-7,804	22,532	939,344	555,301
-6,790	22,479	938,613	554,679
-5,775	22,549	938,090	554,571
-4,760	22,531	937,383	554,075
-3,746	22,506	937,023	553,760
-2,731	22,289	936,357	552,658
-1,717	22,271	935,573	552,116
-0,702	22,317	934,962	551,879
0,313	22,140	934,084	551,635
1,327	25,140	932,215	559,923
2,342	34,797	796,710	504,273
3,356	32,765	452,006	283,005
4,371	1,913	293,662	153,098
5,386	-2,493	274,528	138,944
6,400	-4,000	268,688	134,579
7,415	-4,317	266,400	133,130
8,429	-4,409	265,349	132,509
9,444	-4,201	264,342	132,184
10,459	-4,306	263,667	131,738
11,473	-4,200	263,009	131,495
12,488	-4,181	262,595	131,293
13,502	-4,560	262,043	130,663
14,517	-4,413	261,620	130,573
15,531	-4,497	261,330	130,341
16,546	-4,339	260,934	130,274
17,561	-4,352	260,365	129,966
18,575	-4,337	260,183	129,877
19,590	-4,361	259,892	129,699
20,604	-4,441	259,610	129,476
21,619	-4,517	259,339	129,260
22,634	-4,335	258,870	129,178
23,648	-4,212	258,489	129,086
24,663	-4,367	258,261	128,823
25,677	-4,412	258,133	128,707
26,692	-4,280	257,900	128,696
27,707	-4,398	257,554	128,408
28,721	-4,422	257,325	128,260
29,736	-4,381	257,147	128,196
30,750	-4,316	256,871	128,106
31,765	-4,624	256,570	127,672
32,780	-4,373	256,349	127,772
33,794	-4,749	256,288	127,399
34,809	-4,489	255,876	127,412
35,823	-4,461	255,571	127,272
36,838	-4,549	255,513	127,155
37,853	-4,510	255,175	127,010
38,867	-4,507	254,923	126,875
39,882	-4,585	254,698	126,684
40,896	-4,607	254,623	126,616
41,911	-4,519	254,225	126,484
42,926	-4,689	254,156	126,289
43,940	-4,514	253,905	126,307
44,955	-4,461	253,588	126,184
45,969	-4,542	253,496	126,056
46,984	-4,908	253,273	125,615
47,999	-4,966	252,880	125,359
49,013	-5,135	252,696	125,110
50,028	-5,142	252,309	124,900
51,042	-5,467	252,177	124,542
52,057	-5,234	251,855	124,574
53,071	-5,156	251,794	124,600
54,086	-5,136	251,612	124,516
55,101	-4,968	251,430	124,560
56,115	-4,985	251,436	124,537
57,130	-4,392	251,271	124,957
58,144	-4,263	251,140	124,992
59,159	-4,399	250,984	124,785
60,174	-4,174	250,570	124,763
61,188	-4,302	250,487	124,600
62,203	-4,340	250,274	124,450
63,217	-4,215	249,950	124,385
64,232	-4,339	249,905	124,245
65,247	-4,514	249,620	123,942
66,261	-4,563	249,332	123,746
67,276	-4,692	249,220	123,570
68,290	-4,577	248,852	123,474
69,305	-4,943	248,787	123,118
70,320	-4,845	248,549	123,073
71,334	-4,584	248,375	123,198
72,349	-4,236	248,137	123,365
73,363	-4,229	247,960	123,273
74,378	-4,380	247,902	123,105
75,393	-4,431	247,560	122,880
76,407	-4,263	247,295	122,880
77,422	-4,444	247,201	122,669
78,436	-4,223	246,991	122,742
79,451	-4,413	246,809	122,479
80,466	-4,295	246,559	122,444
81,480	-4,749	246,469	122,005
82,495	-4,895	246,230	121,752
83,509	-4,662	245,986	121,817
84,524	-4,596	245,826	121,783
85,539	-4,937	245,704	121,423
86,553	-4,758	245,322	121,375
87,568	-4,802	245,253	121,293
88,582	-4,476	244,913	121,388
89,597	-4,810	244,754	121,018
90,611	-4,660	244,735	121,123
91,626	-4,361	244,581	121,287
92,641	-4,354	244,431	121,208
93,655	-4,538	244,206	120,931
94,670	-4,614	243,947	120,729
95,684	-4,538	243,788	120,703
96,699	-4,521	243,720	120,673
97,714	-4,812	243,363	120,242
98,728	-4,737	243,236	120,231
99,743	-4,940	243,024	119,947
100,757	-4,990	242,782	119,775
101,772	-4,650	242,621	119,968
102,787	-4,522	242,363	119,936
103,801	-4,633	242,415	119,858
104,816	-4,558	242,129	119,769
105,830	-4,469	242,176	119,855
106,845	-4,436	241,800	119,685
107,860	-4,387	241,664	119,648
108,874	-4,449	241,405	119,458
109,889	-4,551	241,286	119,304
110,903	-4,389	240,920	119,246
111,918	-4,496	240,843	119,109
112,933	-4,716	240,762	118,878
113,947	-4,634	240,591	118,850
114,962	-4,573	240,499	118,844
115,976	-4,427	240,232	118,822
116,991	-4,538	240,095	118,652
118,006	-4,564	239,831	118,490
119,020	-4,544	239,805	118,483
120,035	-4,329	239,596	118,545
121,049	-4,557	239,579	118,339
122,064	-4,444	239,270	118,268
123,079	-4,630	239,188	118,065
124,093	-4,693	238,930	117,876
125,108	-4,782	238,595	117,628
126,122	-4,888	238,419	117,444
127,137	-4,793	238,153	117,380
128,151	-4,655	237,988	117,400
129,166	-4,726	237,905	117,291
130,181	-4,815	237,766	117,140
131,195	-4,678	237,458	117,089
132,210	-4,651	237,423	117,082
133,224	-4,526	237,209	117,068
134,239	-4,358	237,042	117,111
135,254	-4,509	236,991	116,953
136,268	-4,550	236,632	116,733
137,283	-4,695	236,289	116,437
138,297	-4,993	236,267	116,175
139,312	-4,820	236,004	116,174
140,327	-4,647	235,966	116,285
141,341	-4,337	235,987	116,534
142,356	-4,182	235,946	116,628
143,370	-4,201	235,695	116,478
144,385	-4,104	235,421	116,410
145,400	-4,308	235,338	116,195
146,414	-4,232	235,185	116,170
147,429	-4,229	234,927	116,035
148,443	-4,174	234,707	115,960
149,458	-4,274	234,649	115,841
150,473	-4,208	234,484	115,802
151,487	-4,212	234,228	115,662
152,502	-4,480	234,161	115,405
153,516	-4,124	233,945	115,572
154,531	-4,175	233,723	115,411
155,546	-4,373	233,652	115,209
156,560	-4,235	233,381	115,175
157,575	-4,639	233,314	114,809
158,589	-4,492	233,075	114,798
159,604	-4,256	233,007	114,942
160,619	-4,191	232,819	114,891
161,633	-4,335	232,790	114,752
162,648	-4,088	232,459	114,774
163,662	-4,224	232,386	114,620
164,677	-4,167	232,086	114,507
165,692	-4,173	232,055	114,477
166,706	-3,956	231,925	114,574
167,721	-4,213	231,817	114,308
168,735	-4,053	231,630	114,331
169,750	-4,023	231,410	114,236
170,764	-4,319	231,425	114,000
171,779	-4,286	231,259	113,934
172,794	-3,823	231,037	114,179
173,808	-4,149	230,693	113,742
174,823	-4,796	230,565	113,162
175,837	-4,743	230,344	113,084
176,852	-4,399	230,296	113,321
177,867	-4,145	230,297	113,510
178,881	-4,090	230,135	113,463
179,896	-4,250	230,027	113,275
180,910	-4,006	229,639	113,264
181,925	-4,011	229,639	113,250
182,940	-4,100	229,470	113,086
183,954	-4,103	229,252	112,967
184,969	-4,037	229,258	113,012
185,983	-3,897	229,036	113,001
186,998	-4,028	228,882	112,812
188,013	-3,769	228,648	112,889
189,027	-4,026	228,444	112,578
190,042	-4,104	228,300	112,437
191,056	-4,049	228,234	112,437
192,071	-4,089	228,094	112,327
193,086	-4,101	227,933	112,229
194,100	-4,120	227,762	112,120
195,115	-4,358	227,517	111,805
196,129	-4,845	227,373	111,348
197,144	-1,763	228,154	114,107
198,159	1,837	229,188	117,407
199,173	3,909	229,621	119,226
200,188	4,066	229,687	119,371
201,202	4,147	229,359	119,253
202,217	4,423	229,261	119,405
203,232	4,557	229,312	119,524
204,246	4,620	229,072	119,437
205,261	4,816	228,862	119,468
206,275	4,853	228,780	119,443
207,290	4,768	228,642	119,295
208,304	4,650	228,595	119,169
209,319	4,761	228,323	119,103
210,334	4,832	228,022	118,989
211,348	4,539	227,924	118,702
212,363	4,187	227,697	118,303
213,377	3,781	227,544	117,902
214,392	3,971	227,319	117,920
215,407	4,052	227,131	117,874
216,421	3,832	227,135	117,698
217,436	4,033	226,841	117,688
218,450	3,538	226,724	117,239
219,465	3,632	226,599	117,236
220,480	3,736	226,482	117,244
221,494	3,762	226,240	117,128
222,509	3,869	226,188	117,172
223,523	3,790	225,950	116,979
224,538	3,913	225,728	116,947
225,553	3,809	225,721	116,854
226,567	3,972	225,571	116,889
227,582	4,328	225,421	117,071
228,596	4,279	225,298	116,960
229,611	3,939	225,095	116,586
230,626	3,771	224,881	116,338
231,640	3,684	224,708	116,173
232,655	3,939	224,804	116,404
233,669	4,393	224,739	116,703
234,684	4,444	224,584	116,651
235,699	4,280	224,375	116,409
236,713	3,885	224,160	115,989
237,728	3,834	223,992	115,853
238,742	3,892	223,694	115,732
239,757	3,905	223,569	115,667
240,772	3,974	223,462	115,653
241,786	3,613	223,306	115,291
242,801	4,033	223,366	115,627
243,815	4,046	223,237	115,560
244,830	4,019	223,142	115,480
245,844	4,001	222,779	115,268
246,859	3,983	222,705	115,207
247,874	4,095	222,486	115,166
248,888	4,173	222,456	115,199
249,903	3,855	222,358	114,900
250,917	3,880	222,021	114,735
251,932	3,937	221,958	114,734
252,947	3,932	221,708	114,592
253,961	3,560	221,587	114,241
254,976	3,903	221,388	114,384
255,990	3,828	221,423	114,336
257,005	4,051	221,204	114,379
258,020	4,177	221,096	114,406
259,034	4,403	220,967	114,497
260,049	4,214	220,826	114,274
261,063	3,883	220,674	113,939
262,078	4,251	220,526	114,125
263,093	4,308	220,413	114,098
264,107	4,134	220,235	113,868
265,122	4,242	220,140	113,888
266,136	4,273	220,054	113,856
267,151	4,358	219,821	113,788
268,166	4,150	219,636	113,529
269,180	3,661	219,391	113,032
270,195	3,984	219,322	113,225
271,209	3,921	219,225	113,118
272,224	3,759	218,957	112,851
273,239	4,131	218,891	113,080
274,253	3,751	218,759	112,723
275,268	3,583	218,644	112,530
276,282	3,906	218,274	112,566
277,297	3,502	218,277	112,262
278,312	3,591	218,178	112,266
279,326	3,911	218,064	112,431
280,341	3,793	218,048	112,327
281,355	4,063	217,831	112,402
282,370	3,946	217,625	112,200
283,384	3,691	217,435	111,907
284,399	3,704	217,229	111,800
285,414	3,486	217,183	111,607
286,428	3,874	217,043	111,808
287,443	4,127	216,930	111,924
288,457	3,946	216,863	111,748
289,472	4,191	216,621	111,791
290,487	3,493	216,491	111,208
291,501	3,273	216,377	110,979
292,516	3,594	216,191	111,107
293,530	3,627	216,073	111,060
294,545	3,400	215,857	110,775
295,560	3,631	215,807	110,907
296,574	3,694	215,667	110,870
297,589	3,888	215,508	110,918
298,603	4,015	215,436	110,963
299,618	4,233	215,210	110,994
300,633	4,032	215,182	110,824
301,647	4,140	215,179	110,891
302,662	4,170	214,930	110,774
303,676	4,112	214,781	110,646
304,691	4,124	214,617	110,561
305,706	4,193	214,581	110,581
306,720	4,437	214,430	110,669
307,735	3,827	214,287	110,148
308,749	3,940	214,021	110,082
309,764	3,889	214,004	110,027
310,779	4,082	213,956	110,131
311,793	4,063	213,637	109,943
312,808	4,010	213,425	109,787
313,822	4,011	213,340	109,734
314,837	3,874	213,122	109,514
315,852	3,763	213,011	109,369
316,866	3,955	212,927	109,452
317,881	4,234	212,931	109,643
318,895	4,070	212,723	109,409
319,910	3,828	212,520	109,124
320,925	3,851	212,195	108,963
321,939	3,509	212,155	108,690
322,954	3,641	212,014	108,702
323,968	3,907	212,055	108,902
324,983	4,005	211,852	108,857
325,997	4,012	211,898	108,876
327,012	4,084	211,683	108,807
328,027	4,104	211,500	108,717
329,041	4,344	211,527	108,891
330,056	4,329	211,390	108,800
331,070	4,070	211,070	108,443
332,085	3,800	210,820	108,115
333,100	3,723	210,864	108,074
334,114	4,122	210,602	108,210
335,129	3,854	210,471	107,945
336,143	3,864	210,366	107,889
337,158	3,826	210,217	107,776
338,173	3,909	210,019	107,723
339,187	3,716	209,933	107,534
340,202	3,593	209,740	107,339
341,216	3,492	209,522	107,147
342,231	3,797	209,613	107,398
343,246	3,681	209,397	107,196
344,260	3,500	209,319	107,021
345,275	3,795	209,227	107,170
346,289	3,835	209,090	107,118
347,304	4,005	208,896	107,128
348,319	3,692	208,823	106,863
349,333	4,084	208,630	107,027
350,348	4,221	208,394	106,992
351,362	4,151	208,414	106,944
352,377	4,123	208,269	106,840
353,392	3,790	208,204	106,567
354,406	3,724	208,042	106,428
355,421	193,780	1344,496	1432,648
356,435	154,600	1483,073	1432,768
