DTS Sentinel unit serial number:	SN410029Multiplexer serial number:	ORYXHardware model number:	OX2-SRSoftware version number:	ORYX F/W v4,00 Oryx Data Collector v3.7.2.0data status	okinstallation	B6 Nyhavnadifferential loss correction	single-endedforward channel	channel 2reverse channel	N/Adate	2023/12/09time	13:30:08forward acquisition time	300,00reverse acquisition time	0,00gamma	499,1914k internal	0,3136k external	0,3136temperature offset calibration	1,0000default loss term (dB/km)	0,3820temperature slope calibration	1,0000multiplexer offset coefficient	1,0000multiplexer slope coefficient	1,0000fibre end	0,00T internal ref (°C)	20,19T ext. ref 1 (°C)	4,60T ext. ref 2 (°C)	4,60length (m)	temperature (°C)	Stokes	anti-Stokes-744,400	-200,000	-0,007	-0,033
-743,385	-103,110	-0,202	0,035
-742,371	-48,374	0,140	0,050
-741,356	188,662	-0,188	0,209
-740,342	-171,269	-0,021	-0,001
-739,327	-9,470	-0,269	0,133
-738,312	-200,000	0,002	0,042
-737,298	73,961	-0,250	0,194
-736,283	57,138	0,079	0,057
-735,269	36,719	-0,255	0,167
-734,254	65,799	0,205	0,154
-733,239	-149,322	-0,439	-0,026
-732,225	408,907	0,044	-0,070
-731,210	-87,856	0,132	-0,029
-730,196	-200,000	0,003	0,054
-729,181	141,529	-0,155	-0,152
-728,167	385,737	0,007	0,010
-727,152	-112,273	-0,124	0,018
-726,137	28,941	-0,060	0,037
-725,123	-149,210	-0,039	-0,002
-724,108	63,627	0,045	0,034
-723,094	-200,000	0,001	-0,118
-722,079	-200,000	0,005	-0,195
-721,064	-200,000	-0,008	-0,075
-720,050	-62,946	-0,076	-0,023
-719,035	356,793	0,014	0,020
-718,021	21,174	-0,080	-0,048
-717,006	800,000	0,095	-0,204
-715,991	-88,846	-0,028	-0,006
-714,977	-100,491	-0,068	0,012
-713,962	59,315	-0,088	-0,064
-712,948	-74,425	-0,074	-0,020
-711,933	7,190	0,039	-0,021
-710,918	49,660	-0,023	0,016
-709,904	-200,000	-0,010	-0,138
-708,889	-200,000	-0,005	-0,131
-707,875	437,108	0,037	0,060
-706,860	130,706	0,017	0,016
-705,845	-200,000	0,006	0,039
-704,831	800,000	0,067	0,167
-703,816	0,130	0,068	0,036
-702,802	800,000	0,028	0,069
-701,787	19,487	-0,125	-0,075
-700,772	-200,000	-0,022	-0,113
-699,758	-51,113	-0,101	-0,035
-698,743	644,307	0,059	-0,112
-697,729	-200,000	0,032	0,123
-696,714	138,862	0,040	0,039
-695,699	-60,812	-0,076	-0,024
-694,685	-26,634	-0,156	0,067
-693,670	47,037	0,118	-0,081
-692,656	139,817	0,032	-0,032
-691,641	-200,000	0,002	0,088
-690,627	323,715	0,054	0,077
-689,612	151,508	0,017	0,017
-688,597	265,375	-0,097	-0,126
-687,583	-16,045	0,062	0,029
-686,568	145,934	0,035	-0,035
-685,554	167,400	0,146	-0,154
-684,539	-74,930	-0,071	-0,019
-683,524	-0,274	-0,092	-0,048
-682,510	-124,885	-0,076	0,009
-681,495	111,154	-0,094	-0,083
-680,481	800,000	0,014	-0,037
-679,466	-59,164	-0,029	-0,009
-678,451	-126,529	-0,015	-0,002
-677,437	-100,387	0,041	0,007
-676,422	800,000	0,058	0,164
-675,408	-151,211	-0,150	-0,008
-674,393	800,000	-0,060	-0,129
-673,378	752,417	0,034	0,067
-672,364	78,487	-0,070	0,055
-671,349	-200,000	0,010	0,035
-670,335	205,710	0,004	-0,005
-669,320	-79,689	-0,035	-0,009
-668,305	-52,553	0,225	0,076
-667,291	-14,005	-0,078	-0,037
-666,276	174,727	0,070	-0,076
-665,262	-200,000	-0,002	-0,049
-664,247	104,492	-0,031	-0,027
-663,232	215,795	-0,055	-0,064
-662,218	277,366	0,081	-0,107
-661,203	-200,000	0,015	0,129
-660,189	-142,433	-0,059	-0,004
-659,174	-200,000	0,005	-0,058
-658,159	-114,832	-0,092	-0,013
-657,145	-200,000	0,022	-0,083
-656,130	6,880	-0,031	0,017
-655,116	-200,000	0,013	0,084
-654,101	30,542	0,111	0,070
-653,086	-69,941	-0,038	0,011
-652,072	-200,000	0,006	0,043
-651,057	545,206	-0,018	0,033
-650,043	-45,966	-0,073	0,026
-649,028	-21,092	-0,025	-0,011
-648,014	-137,763	0,015	0,001
-646,999	-200,000	0,024	0,000
-645,984	47,982	0,050	0,035
-644,970	-200,000	0,032	0,181
-643,955	-58,569	-0,176	-0,056
-642,941	-200,000	0,010	-0,176
-641,926	-200,000	0,010	-0,099
-640,911	-200,000	0,026	-0,198
-639,897	176,190	-0,017	-0,018
-638,882	32,107	0,034	0,022
-637,868	125,533	-0,057	-0,053
-636,853	-128,310	-0,105	-0,011
-635,838	-153,465	-0,023	0,001
-634,824	-200,000	0,003	-0,087
-633,809	-200,000	0,037	-0,135
-632,795	-200,000	0,014	0,098
-631,780	-200,000	0,012	0,117
-630,765	-43,632	0,100	0,037
-629,751	316,965	-0,073	-0,103
-628,736	-200,000	-0,017	-0,115
-627,722	-19,976	0,145	-0,066
-626,707	-146,922	-0,230	0,014
-625,692	-200,000	0,003	-0,052
-624,678	-200,000	-0,001	0,108
-623,663	-200,000	0,026	-0,091
-622,649	11,916	-0,086	0,049
-621,634	-59,746	-0,051	0,016
-620,619	800,000	-0,046	0,140
-619,605	3,999	-0,063	-0,034
-618,590	-16,601	-0,122	0,057
-617,576	699,717	-0,041	-0,080
-616,561	800,000	-0,004	0,008
-615,546	-46,167	-0,049	0,018
-614,532	316,362	-0,109	-0,153
-613,517	645,065	0,014	-0,027
-612,503	-200,000	-0,001	-0,108
-611,488	-93,512	-0,119	0,024
-610,474	157,673	0,021	0,021
-609,459	0,881	-0,131	0,069
-608,444	-200,000	-0,005	-0,165
-607,430	-200,000	0,011	-0,122
-606,415	160,786	0,038	-0,039
-605,401	94,245	-0,097	-0,082
-604,386	800,000	-0,038	0,078
-603,371	-200,000	0,028	0,104
-602,357	-200,000	0,042	-0,181
-601,342	154,107	0,016	-0,016
-600,328	-3,428	-0,059	-0,030
-599,313	-140,562	0,047	0,004
-598,298	-200,000	0,004	-0,103
-597,284	14,723	0,069	0,040
-596,269	-43,613	0,048	-0,018
-595,255	-200,000	-0,032	-0,127
-594,240	-11,138	-0,025	0,012
-593,225	61,717	-0,124	0,091
-592,211	-200,000	-0,014	-0,080
-591,196	430,023	0,098	0,156
-590,182	-6,100	-0,067	0,034
-589,167	5,576	-0,118	0,064
-588,152	-100,288	0,073	-0,013
-587,138	2,638	-0,112	-0,060
-586,123	318,855	-0,034	-0,047
-585,109	-200,000	-0,012	0,095
-584,094	800,000	-0,042	0,099
-583,079	320,291	0,065	0,091
-582,065	-200,000	0,052	0,244
-581,050	-200,000	-0,009	-0,105
-580,036	-47,247	0,056	-0,020
-579,021	-74,171	0,021	-0,006
-578,006	7,303	-0,175	-0,096
-576,992	90,063	0,068	-0,056
-575,977	-53,927	0,137	-0,046
-574,963	-200,000	0,029	-0,115
-573,948	-121,792	0,076	-0,009
-572,934	384,629	0,072	0,110
-571,919	629,269	0,044	-0,082
-570,904	-15,710	-0,152	-0,071
-569,890	96,531	0,028	-0,024
-568,875	-200,000	-0,011	0,073
-567,861	-200,000	0,001	0,059
-566,846	-140,249	-0,060	-0,005
-565,831	800,000	0,056	-0,143
-564,817	49,136	-0,079	-0,054
-563,802	-38,597	-0,056	0,022
-562,788	-8,779	0,013	-0,006
-561,773	-78,966	0,145	0,036
-560,758	-116,884	0,025	0,003
-559,744	-22,101	0,208	0,093
-558,729	-200,000	-0,004	-0,043
-557,715	-163,745	-0,114	-0,004
-556,700	94,808	0,067	-0,056
-555,685	-81,978	-0,011	0,003
-554,671	-96,835	-0,032	-0,006
-553,656	-52,032	-0,036	-0,012
-552,642	-200,000	-0,026	0,132
-551,627	-51,439	-0,080	-0,027
-550,612	800,000	-0,107	-0,243
-549,598	-200,000	-0,001	-0,104
-548,583	-200,000	-0,001	-0,020
-547,569	-38,331	0,033	0,013
-546,554	800,000	-0,039	-0,082
-545,539	217,744	0,163	-0,192
-544,525	-200,000	0,006	0,048
-543,510	38,357	-0,084	-0,055
-542,496	-200,000	-0,006	-0,106
-541,481	800,000	-0,103	-0,238
-540,466	-200,000	0,004	0,106
-539,452	-41,504	0,026	0,010
-538,437	249,599	-0,012	-0,015
-537,423	688,242	0,022	-0,043
-536,408	16,982	0,047	-0,027
-535,393	800,000	-0,022	0,060
-534,379	75,024	-0,024	0,019
-533,364	-42,442	-0,075	0,028
-532,350	-27,389	0,122	-0,052
-531,335	-133,313	-0,053	-0,005
-530,321	-129,680	0,048	0,005
-529,306	-54,031	-0,093	0,031
-528,291	-82,394	-0,200	-0,047
-527,277	21,234	0,082	-0,049
-526,262	800,000	-0,057	0,140
-525,248	-145,128	-0,124	-0,008
-524,233	-22,891	0,076	-0,034
-523,218	800,000	-0,038	-0,091
-522,204	254,284	-0,064	0,080
-521,189	19,295	0,074	0,044
-520,175	98,496	-0,150	-0,127
-519,160	103,962	0,082	-0,071
-518,145	49,434	0,172	0,119
-517,131	74,034	0,020	-0,016
-516,116	-200,000	-0,004	-0,046
-515,102	-156,287	-0,127	0,006
-514,087	-200,000	-0,003	-0,065
-513,072	8,924	-0,044	0,024
-512,058	76,279	-0,124	-0,097
-511,043	-17,362	0,026	0,012
-510,029	-200,000	0,008	-0,075
-509,014	-200,000	0,012	0,072
-507,999	-26,137	0,109	0,047
-506,985	-158,153	-0,148	-0,006
-505,970	296,501	-0,035	-0,047
-504,956	-147,014	-0,075	0,005
-503,941	-200,000	0,010	0,039
-502,926	190,350	-0,068	0,075
-501,912	425,132	0,069	0,110
-500,897	-200,000	0,006	0,079
-499,883	-194,612	0,148	0,001
-498,868	80,722	0,103	-0,082
-497,853	82,355	0,020	0,016
-496,839	29,291	0,079	-0,049
-495,824	-200,000	0,040	0,140
-494,810	619,275	0,021	-0,040
-493,795	-12,076	0,031	-0,015
-492,781	-200,000	0,016	-0,077
-491,766	-128,871	0,067	-0,007
-490,751	-37,329	-0,088	-0,035
-489,737	713,186	0,033	-0,064
-488,722	-200,000	0,003	0,045
-487,708	800,000	0,040	-0,116
-486,693	35,316	-0,098	0,063
-485,678	249,674	-0,084	-0,104
-484,664	195,372	0,054	-0,060
-483,649	454,697	-0,025	-0,041
-482,635	800,000	-0,066	-0,190
-481,620	-200,000	0,009	-0,034
-480,605	-200,000	-0,000	-0,070
-479,591	592,714	-0,096	-0,175
-478,576	-68,621	-0,054	0,015
-477,562	-131,074	-0,146	0,014
-476,547	326,497	-0,087	-0,123
-475,532	-200,000	0,054	-0,234
-474,518	-164,858	0,088	0,003
-473,503	-200,000	0,018	0,085
-472,489	128,424	0,057	-0,053
-471,474	595,804	-0,056	0,103
-470,459	-5,087	-0,060	0,030
-469,445	-53,645	0,069	-0,023
-468,430	199,097	0,088	0,099
-467,416	800,000	-0,045	-0,093
-466,401	-86,788	0,166	0,037
-465,386	-200,000	-0,017	0,148
-464,372	-200,000	0,021	-0,077
-463,357	-200,000	0,017	-0,124
-462,343	91,878	-0,059	-0,049
-461,328	61,807	-0,039	0,028
-460,313	-200,000	0,001	0,037
-459,299	78,278	-0,068	0,053
-458,284	800,000	0,021	-0,042
-457,270	-163,331	0,068	0,002
-456,255	239,527	0,033	0,040
-455,241	800,000	-0,022	-0,047
-454,226	-142,571	-0,111	-0,008
-453,211	800,000	-0,038	-0,090
-452,197	52,069	0,049	-0,034
-451,182	800,000	0,045	0,094
-450,168	-200,000	0,004	0,053
-449,153	-85,623	0,099	0,022
-448,138	237,735	-0,095	-0,116
-447,124	-40,924	-0,093	0,035
-446,109	800,000	-0,041	0,093
-445,095	-200,000	-0,012	-0,125
-444,080	182,816	-0,064	0,070
-443,065	431,584	0,077	0,123
-442,051	94,410	-0,061	0,051
-441,036	-57,055	0,073	0,024
-440,022	159,420	-0,083	-0,085
-439,007	549,251	0,055	-0,098
-437,992	49,315	-0,059	0,040
-436,978	800,000	-0,028	0,090
-435,963	117,864	-0,048	0,044
-434,949	-76,767	0,164	-0,042
-433,934	34,023	0,047	-0,030
-432,919	800,000	0,066	-0,168
-431,905	-200,000	-0,045	0,158
-430,890	-120,610	0,069	0,008
-429,876	-200,000	0,026	-0,092
-428,861	-10,473	0,084	-0,041
-427,846	-200,000	0,003	-0,109
-426,832	233,722	-0,057	-0,069
-425,817	-200,000	-0,005	0,067
-424,803	800,000	0,037	-0,089
-423,788	-54,383	-0,087	-0,029
-422,773	-80,529	0,055	0,013
-421,759	800,000	0,036	0,117
-420,744	149,966	0,021	-0,021
-419,730	501,683	-0,051	-0,086
-418,715	800,000	-0,030	-0,063
-417,701	307,642	0,019	0,027
-416,686	49,943	0,127	0,088
-415,671	-124,004	-0,059	0,007
-414,657	-200,000	0,023	0,109
-413,642	191,723	0,173	0,192
-412,628	-6,336	-0,065	-0,032
-411,613	167,757	-0,107	-0,112
-410,598	-181,404	0,110	-0,002
-409,584	-74,652	-0,111	-0,029
-408,569	-44,364	0,135	0,049
-407,555	-23,791	0,058	0,025
-406,540	125,332	0,076	0,071
-405,525	-200,000	0,016	-0,157
-404,511	-200,000	-0,022	0,114
-403,496	20,794	0,126	0,074
-402,482	-133,302	-0,169	-0,015
-401,467	54,111	0,161	0,113
-400,452	342,471	0,023	0,033
-399,438	-200,000	0,025	0,099
-398,423	-200,000	0,037	0,143
-397,409	-34,541	0,058	0,023
-396,394	-200,000	-0,024	0,113
-395,379	85,054	-0,138	-0,111
-394,365	3,407	-0,129	0,068
-393,350	32,411	0,068	-0,043
-392,336	-88,776	0,102	0,022
-391,321	-38,907	-0,139	-0,053
-390,306	43,311	-0,095	-0,064
-389,292	-200,000	0,012	0,114
-388,277	122,753	0,041	0,037
-387,263	-200,000	0,016	-0,128
-386,248	213,165	-0,062	0,071
-385,233	124,106	-0,095	0,087
-384,219	18,603	0,104	-0,061
-383,204	404,189	0,055	0,085
-382,190	185,958	0,037	-0,041
-381,175	800,000	0,034	-0,097
-380,160	-17,160	0,177	0,081
-379,146	420,135	-0,024	0,038
-378,131	800,000	0,042	0,135
-377,117	-200,000	0,001	0,013
-376,102	-200,000	-0,006	0,156
-375,088	-101,781	-0,086	0,015
-374,073	-70,783	0,062	0,017
-373,058	-200,000	-0,046	0,167
-372,044	196,997	-0,038	-0,043
-371,029	403,153	-0,040	-0,062
-370,015	9,432	0,052	-0,029
-369,000	-200,000	0,008	-0,032
-367,985	-28,483	-0,167	0,070
-366,971	42,421	-0,057	-0,038
-365,956	800,000	0,007	-0,016
-364,942	119,293	-0,037	0,033
-363,927	-200,000	-0,012	-0,055
-362,912	-200,000	-0,003	-0,017
-361,898	-200,000	0,015	-0,097
-360,883	288,322	0,090	0,119
-359,869	-27,238	-0,024	0,010
-358,854	-200,000	-0,008	0,098
-357,839	259,484	-0,028	0,036
-356,825	800,000	0,058	0,171
-355,810	-200,000	-0,020	-0,114
-354,796	-200,000	0,020	-0,107
-353,781	139,255	0,084	0,081
-352,766	36,869	-0,038	0,025
-351,752	-200,000	-0,015	0,152
-350,737	13,789	0,050	0,028
-349,723	800,000	-0,021	-0,063
-348,708	-41,622	0,109	-0,041
-347,693	56,462	-0,029	0,021
-346,679	144,319	-0,109	0,106
-345,664	800,000	-0,031	-0,076
-344,650	190,839	0,115	-0,127
-343,635	-97,279	0,160	0,030
-342,620	-200,000	0,011	-0,073
-341,606	-20,587	0,024	0,011
-340,591	445,923	-0,076	0,123
-339,577	85,344	-0,037	0,030
-338,562	800,000	0,017	0,050
-337,548	6,255	-0,140	0,076
-336,533	276,420	-0,063	-0,081
-335,518	-178,098	0,059	-0,001
-334,504	315,329	0,015	-0,020
-333,489	393,837	-0,059	0,090
-332,475	227,601	-0,073	-0,087
-331,460	-200,000	0,025	-0,129
-330,445	800,000	0,011	-0,034
-329,431	142,251	-0,046	0,045
-328,416	-200,000	0,021	0,107
-327,402	-30,686	-0,064	0,026
-326,387	36,449	0,114	0,073
-325,372	222,264	0,045	0,053
-324,358	-200,000	-0,003	0,047
-323,343	29,020	0,042	0,026
-322,329	-200,000	0,037	0,163
-321,314	-88,489	0,194	-0,042
-320,299	-200,000	0,006	0,034
-319,285	-147,272	0,096	-0,006
-318,270	282,618	-0,082	0,108
-317,256	93,651	0,086	0,071
-316,241	381,061	0,047	-0,070
-315,226	-21,001	0,023	-0,010
-314,212	800,000	0,041	0,100
-313,197	151,513	0,116	0,116
-312,183	-200,000	-0,028	0,146
-311,168	-200,000	0,030	-0,140
-310,153	-200,000	-0,023	0,088
-309,139	-101,892	-0,064	0,011
-308,124	-200,000	0,028	-0,172
-307,110	21,725	0,077	-0,046
-306,095	80,935	0,108	0,085
-305,080	227,721	0,049	-0,058
-304,066	-200,000	-0,002	0,057
-303,051	-48,839	-0,047	-0,016
-302,037	-77,621	-0,121	0,030
-301,022	800,000	0,012	0,027
-300,008	163,971	0,079	0,081
-298,993	800,000	0,009	-0,019
-297,978	189,594	-0,073	-0,080
-296,964	-200,000	-0,008	-0,140
-295,949	280,319	-0,078	-0,101
-294,935	-101,217	-0,031	-0,005
-293,920	288,030	0,054	-0,072
-292,905	-17,068	-0,073	0,034
-291,891	800,000	-0,011	0,029
-290,876	-4,856	-0,102	-0,051
-289,862	-200,000	0,042	0,177
-288,847	33,626	-0,134	-0,085
-287,832	-94,191	0,069	-0,014
-286,818	161,785	0,079	-0,081
-285,803	800,000	0,019	-0,051
-284,789	49,377	0,043	0,029
-283,774	800,000	0,030	0,064
-282,759	-28,567	-0,114	0,048
-281,745	63,264	-0,082	-0,060
-280,730	-154,592	-0,192	0,009
-279,716	-44,739	-0,030	-0,011
-278,701	-200,000	0,028	0,125
-277,686	-200,000	0,009	0,055
-276,672	-200,000	-0,026	0,122
-275,657	400,654	0,024	-0,038
-274,643	275,201	-0,018	-0,023
-273,628	36,673	-0,090	-0,058
-272,613	74,542	-0,057	-0,044
-271,599	354,014	0,044	0,064
-270,584	235,552	-0,054	-0,065
-269,570	63,430	-0,054	0,040
-268,555	242,400	-0,110	-0,135
-267,540	-200,000	-0,009	-0,044
-266,526	2,790	-0,089	0,047
-265,511	-137,558	0,210	-0,017
-264,497	42,830	0,204	0,135
-263,482	1,204	0,057	0,030
-262,467	-179,945	0,116	-0,002
-261,453	17,086	0,111	-0,064
-260,438	-200,000	-0,037	-0,156
-259,424	229,373	0,046	-0,055
-258,409	23,625	-0,138	-0,083
-257,395	-152,804	0,055	-0,003
-256,380	800,000	-0,005	0,014
-255,365	303,404	0,053	-0,071
-254,351	-164,227	-0,183	0,006
-253,336	-154,750	-0,109	-0,005
-252,322	-197,007	-0,064	0,000
-251,307	105,347	0,036	-0,031
-250,292	800,000	0,041	0,113
-249,278	-200,000	-0,017	0,060
-248,263	-200,000	-0,035	0,118
-247,249	766,755	0,081	0,162
-246,234	17,433	0,077	0,044
-245,219	-155,054	-0,108	-0,005
-244,205	-25,186	0,208	-0,089
-243,190	-200,000	-0,014	0,123
-242,176	800,000	-0,044	0,099
-241,161	800,000	0,027	0,084
-240,146	-200,000	0,011	0,098
-239,132	207,984	-0,059	0,067
-238,117	-200,000	-0,016	0,174
-237,103	-13,440	0,042	-0,020
-236,088	66,454	0,027	0,020
-235,073	-200,000	-0,012	0,048
-234,059	800,000	-0,029	-0,069
-233,044	-96,565	0,043	0,008
-232,030	382,871	-0,121	-0,181
-231,015	675,310	0,039	-0,074
-230,000	-200,000	0,048	-0,180
-228,986	-152,226	-0,158	-0,008
-227,971	443,250	0,005	-0,007
-226,957	-200,000	0,001	-0,039
-225,942	-200,000	-0,020	0,075
-224,927	90,400	0,019	0,016
-223,913	-100,847	-0,073	-0,013
-222,898	-200,000	0,008	-0,068
-221,884	-200,000	0,007	0,048
-220,869	203,274	-0,049	-0,055
-219,855	800,000	0,030	0,083
-218,840	16,789	0,087	0,050
-217,825	-200,000	-0,002	0,030
-216,811	747,212	0,025	0,049
-215,796	-143,875	-0,148	0,010
-214,782	-40,848	-0,118	0,044
-213,767	800,000	0,029	0,066
-212,752	103,895	-0,033	-0,028
-211,738	-82,107	0,100	0,024
-210,723	-111,356	-0,096	0,014
-209,709	312,824	0,006	0,008
-208,694	-200,000	0,015	-0,131
-207,679	86,871	0,082	0,066
-206,665	285,488	0,047	0,062
-205,650	41,219	-0,075	-0,049
-204,636	238,842	-0,058	-0,070
-203,621	-200,000	-0,027	0,167
-202,606	-138,957	0,039	0,003
-201,592	-200,000	0,016	-0,115
-200,577	-200,000	-0,021	-0,073
-199,563	396,883	0,110	0,168
-198,548	800,000	0,035	0,083
-197,533	205,898	0,106	-0,120
-196,519	37,979	0,064	-0,042
-195,504	350,648	-0,024	-0,035
-194,490	-66,320	0,024	-0,007
-193,475	-200,000	-0,011	0,186
-192,460	286,786	0,088	0,116
-191,446	-200,000	0,013	0,190
-190,431	-102,552	0,207	0,036
-189,417	275,729	-0,053	-0,068
-188,402	-200,000	0,001	0,052
-187,387	46,221	-0,065	-0,044
-186,373	-62,439	0,124	-0,037
-185,358	-73,030	0,069	-0,018
-184,344	-200,000	-0,011	0,050
-183,329	-63,822	-0,049	0,014
-182,315	157,666	-0,082	0,082
-181,300	-10,924	-0,056	-0,027
-180,285	21,130	0,084	-0,049
-179,271	800,000	-0,008	-0,026
-178,256	-104,418	0,029	0,005
-177,242	-14,533	0,128	-0,060
-176,227	800,000	0,059	0,128
-175,212	486,976	-0,038	-0,064
-174,198	37,027	-0,057	-0,036
-173,183	-140,271	0,158	0,012
-172,169	72,002	0,086	0,065
-171,154	61,323	0,036	0,026
-170,139	442,270	0,056	-0,089
-169,125	624,876	0,144	0,265
-168,110	-131,549	-0,071	0,007
-167,096	800,000	-0,047	-0,095
-166,081	376,466	0,033	-0,049
-165,066	-37,334	-0,049	-0,019
-164,052	47,587	-0,040	0,027
-163,037	800,000	-0,027	0,055
-162,023	69,149	0,109	-0,081
-161,008	27,110	0,038	-0,023
-159,993	-200,000	-0,000	0,032
-158,979	-200,000	-0,006	0,063
-157,964	90,908	-0,041	0,033
-156,950	-45,938	-0,078	-0,028
-155,935	-1,164	0,086	0,044
-154,920	-0,972	0,015	-0,008
-153,906	-200,000	0,004	-0,052
-152,891	223,567	-0,048	0,057
-151,877	-200,000	-0,015	-0,096
-150,862	-200,000	-0,022	-0,073
-149,847	77,315	-0,055	0,042
-148,833	383,857	0,060	-0,090
-147,818	800,000	0,047	0,114
-146,804	800,000	0,035	-0,073
-145,789	5,043	-0,009	0,005
-144,775	-144,324	0,173	-0,011
-143,760	-47,223	-0,120	0,042
-142,745	371,688	-0,017	0,026
-141,731	800,000	0,034	0,073
-140,716	-41,381	-0,063	0,023
-139,702	-2,870	0,043	-0,022
-138,687	0,458	0,034	-0,018
-137,672	145,507	0,078	0,075
-136,658	-146,413	-0,008	0,001
-135,643	35,105	-0,125	0,079
-134,629	800,000	0,018	-0,048
-133,614	64,065	0,078	-0,057
-132,599	41,624	-0,036	0,023
-131,585	-40,624	0,109	0,041
-130,570	-200,000	0,010	0,048
-129,556	800,000	-0,050	0,111
-128,541	308,800	0,033	0,045
-127,526	198,539	-0,085	-0,094
-126,512	-200,000	-0,009	-0,080
-125,497	800,000	0,038	0,082
-124,483	49,026	-0,052	-0,035
-123,468	-106,269	0,078	-0,013
-122,453	-106,257	0,092	-0,015
-121,439	753,005	-0,032	-0,062
-120,424	-70,465	-0,086	-0,023
-119,410	29,814	-0,107	0,066
-118,395	-161,783	0,119	0,004
-117,380	131,060	0,159	-0,148
-116,366	360,297	-0,066	0,096
-115,351	800,000	0,018	-0,038
-114,337	800,000	0,018	-0,037
-113,322	669,763	-0,079	-0,148
-112,307	125,668	0,048	-0,044
-111,293	-58,682	-0,052	-0,016
-110,278	203,789	0,040	0,045
-109,264	-200,000	0,022	0,111
-108,249	34,722	-0,095	0,060
-107,234	800,000	0,032	-0,065
-106,220	-200,000	-0,013	0,112
-105,205	800,000	0,042	0,106
-104,191	-53,336	-0,101	0,033
-103,176	-200,000	0,017	0,182
-102,162	142,294	-0,032	-0,031
-101,147	9,788	0,101	-0,055
-100,132	-77,903	-0,097	-0,024
-99,118	-158,655	-0,100	-0,004
-98,103	589,504	0,037	-0,067
-97,089	372,094	0,048	0,070
-96,074	-42,465	0,087	0,032
-95,059	-106,891	0,055	0,009
-94,045	-131,897	-0,127	-0,012
-93,030	-200,000	-0,004	-0,031
-92,016	-200,000	-0,013	0,077
-91,001	348,593	0,045	0,064
-89,986	-10,655	0,030	-0,014
-88,972	-115,868	0,120	0,016
-87,957	-200,000	0,008	-0,069
-86,943	-60,195	-0,053	-0,016
-85,928	-200,000	0,022	-0,132
-84,913	800,000	-0,036	-0,096
-83,899	430,403	0,069	-0,108
-82,884	69,054	-0,011	0,008
-81,870	190,180	-0,044	-0,048
-80,855	50,391	0,110	0,075
-79,840	-7,500	0,110	0,053
-78,826	-83,673	-0,023	-0,005
-77,811	-161,867	-0,020	0,001
-76,797	-200,000	-0,001	0,071
-75,782	-200,000	0,014	0,145
-74,767	800,000	-0,045	0,098
-73,753	800,000	-0,038	-0,083
-72,738	-200,000	0,002	0,014
-71,724	152,675	-0,118	-0,117
-70,709	-137,326	-0,170	0,014
-69,694	39,106	0,055	-0,036
-68,680	800,000	0,058	0,146
-67,665	523,915	-0,042	0,072
-66,651	340,025	0,052	0,074
-65,636	233,927	-0,005	-0,006
-64,622	-200,000	-0,002	0,017
-63,607	-156,151	-0,057	0,003
-62,592	800,000	0,047	0,118
-61,578	206,105	-0,038	0,042
-60,563	-200,000	-0,003	0,083
-59,549	-200,000	-0,013	0,075
-58,534	-63,921	-1,535	-0,451
-57,519	773,819	-0,676	-1,339
-56,505	-200,000	-1,023	-4,725
-55,490	-95,655	0,606	-0,116
-54,476	800,000	5,114	12,016
-53,461	-200,000	15,050	264,148
-52,446	800,000	700,533	2232,648
-51,432	561,605	1623,169	2847,480
-50,417	119,589	1628,904	1457,732
-49,403	77,441	1283,402	985,744
-48,388	37,397	1022,575	653,645
-47,373	22,635	982,947	579,854
-46,359	21,779	972,112	570,637
-45,344	20,490	967,607	563,766
-44,330	20,513	966,359	563,092
-43,315	20,262	965,006	561,465
-42,300	20,248	963,833	560,713
-41,286	20,252	962,888	560,156
-40,271	20,233	961,960	559,531
-39,257	20,196	961,071	558,872
-38,242	20,248	960,094	558,450
-37,227	20,231	959,358	557,944
-36,213	20,183	958,517	557,278
-35,198	20,229	957,497	556,812
-34,184	20,281	956,858	556,584
-33,169	20,171	955,922	555,664
-32,154	20,285	954,937	555,439
-31,140	20,324	954,028	555,013
-30,125	20,235	953,230	554,239
-29,111	20,243	952,414	553,768
-28,096	20,224	951,671	553,253
-27,082	20,200	951,273	552,924
-26,067	20,272	950,171	552,491
-25,052	20,234	949,497	551,956
-24,038	20,213	948,961	551,556
-23,023	20,170	948,444	551,096
-22,009	20,215	947,821	550,854
-20,994	20,299	946,770	550,491
-19,979	20,202	946,448	549,973
-18,965	20,238	945,983	549,794
-17,950	20,214	945,156	549,215
-16,936	20,153	944,533	548,638
-15,921	20,114	943,952	548,155
-14,906	20,073	943,192	547,563
-13,892	20,118	942,517	547,289
-12,877	20,126	941,841	546,904
-11,863	20,047	941,321	546,329
-10,848	20,050	940,891	546,066
-9,833	20,223	940,359	546,282
-8,819	20,200	939,682	545,796
-7,804	20,120	939,098	545,180
-6,790	20,142	938,523	544,895
-5,775	20,162	937,743	544,484
-4,760	20,121	937,227	544,032
-3,746	20,079	936,592	543,510
-2,731	19,948	936,015	542,743
-1,717	19,862	935,315	542,044
-0,702	19,954	934,380	541,771
0,313	19,744	934,020	541,717
1,327	22,908	932,159	550,528
2,342	32,314	793,685	493,681
3,356	29,883	450,461	276,519
4,371	-0,264	295,497	151,198
5,386	-4,338	276,526	137,609
6,400	-5,860	270,953	133,406
7,415	-6,166	268,677	131,991
8,429	-5,808	267,332	131,647
9,444	-5,946	266,458	131,079
10,459	-5,689	265,776	130,966
11,473	-5,880	265,121	130,458
12,488	-6,054	264,662	130,063
13,502	-6,318	264,153	129,561
14,517	-6,365	263,827	129,347
15,531	-6,183	263,317	129,250
16,546	-6,439	262,978	128,841
17,561	-6,423	262,569	128,643
18,575	-5,969	262,148	128,834
19,590	-6,468	261,932	128,268
20,604	-6,231	261,727	128,369
21,619	-6,449	261,214	127,910
22,634	-6,452	260,957	127,770
23,648	-6,514	260,742	127,598
24,663	-6,393	260,399	127,527
25,677	-6,303	260,137	127,468
26,692	-6,334	259,747	127,237
27,707	-6,499	259,642	127,028
28,721	-6,495	259,213	126,810
29,736	-6,477	258,945	126,684
30,750	-6,328	258,714	126,692
31,765	-6,485	258,600	126,486
32,780	-6,595	258,275	126,218
33,794	-6,366	258,037	126,293
34,809	-6,405	257,854	126,158
35,823	-6,461	257,526	125,936
36,838	-6,552	257,377	125,772
37,853	-6,799	257,134	125,423
38,867	-6,466	256,972	125,627
39,882	-6,548	256,683	125,403
40,896	-6,710	256,407	125,114
41,911	-6,556	256,125	125,100
42,926	-6,659	255,939	124,908
43,940	-6,832	255,738	124,647
44,955	-6,485	255,273	124,714
45,969	-6,621	255,294	124,594
46,984	-6,965	254,967	124,121
47,999	-7,249	254,716	123,741
49,013	-7,144	254,384	123,660
50,028	-7,300	254,093	123,371
51,042	-7,393	253,838	123,155
52,057	-7,666	253,805	122,891
53,071	-7,297	253,480	123,043
54,086	-7,368	253,267	122,867
55,101	-7,191	253,231	122,992
56,115	-6,816	253,078	123,232
57,130	-6,737	253,066	123,284
58,144	-6,105	252,840	123,710
59,159	-6,158	252,653	123,562
60,174	-6,205	252,484	123,428
61,188	-6,264	252,193	123,223
62,203	-6,379	252,049	123,043
63,217	-6,376	251,870	122,947
64,232	-6,313	251,545	122,832
65,247	-6,288	251,382	122,763
66,261	-6,486	251,320	122,551
67,276	-6,526	250,848	122,275
68,290	-6,760	250,534	121,911
69,305	-7,061	250,367	121,560
70,320	-6,782	250,171	121,694
71,334	-6,844	250,246	121,666
72,349	-6,345	250,003	121,965
73,363	-6,194	249,756	121,962
74,378	-6,157	249,499	121,857
75,393	-6,336	249,278	121,586
76,407	-6,238	249,132	121,587
77,422	-6,438	248,955	121,320
78,436	-6,602	248,746	121,067
79,451	-6,415	248,619	121,154
80,466	-6,705	248,318	120,750
81,480	-6,709	248,014	120,589
82,495	-6,594	247,788	120,565
83,509	-6,874	247,799	120,322
84,524	-6,768	247,452	120,233
85,539	-7,028	247,275	119,916
86,553	-6,857	247,015	119,924
87,568	-6,744	246,819	119,913
88,582	-6,719	246,741	119,886
89,597	-6,829	246,472	119,652
90,611	-6,546	246,420	119,854
91,626	-6,536	246,316	119,802
92,641	-6,472	246,118	119,748
93,655	-6,501	245,831	119,573
94,670	-6,462	245,597	119,482
95,684	-6,668	245,381	119,193
96,699	-6,617	245,378	119,224
97,714	-6,617	245,135	119,095
98,728	-6,671	244,834	118,893
99,743	-6,898	244,649	118,603
100,757	-6,784	244,346	118,541
101,772	-6,865	244,264	118,423
102,787	-6,795	243,963	118,325
103,801	-6,715	243,886	118,344
104,816	-6,568	243,765	118,396
105,830	-6,490	243,665	118,402
106,845	-6,353	243,496	118,423
107,860	-6,226	243,300	118,423
108,874	-6,539	242,994	118,004
109,889	-6,542	242,846	117,919
110,903	-6,606	242,789	117,828
111,918	-6,689	242,564	117,640
112,933	-6,595	242,332	117,594
113,947	-6,489	242,230	117,622
114,962	-6,706	242,106	117,372
115,976	-6,555	241,817	117,346
116,991	-6,713	241,776	117,186
118,006	-6,590	241,462	117,124
119,020	-6,532	241,425	117,143
120,035	-6,278	241,176	117,220
121,049	-6,210	241,147	117,252
122,064	-6,400	240,880	116,956
123,079	-6,497	240,711	116,784
124,093	-6,421	240,456	116,711
125,108	-6,776	240,228	116,300
126,122	-6,919	239,969	116,048
127,137	-6,947	239,792	115,929
128,151	-6,804	239,617	115,951
129,166	-6,749	239,429	115,894
130,181	-6,559	239,211	115,933
131,195	-6,991	239,148	115,540
132,210	-6,826	239,041	115,613
133,224	-6,535	238,936	115,788
134,239	-6,452	238,829	115,794
135,254	-6,440	238,524	115,645
136,268	-6,720	238,397	115,346
137,283	-7,165	238,105	114,834
138,297	-7,018	237,903	114,845
139,312	-7,036	237,721	114,732
140,327	-6,641	237,655	115,010
141,341	-6,180	237,711	115,399
142,356	-6,126	237,452	115,307
143,370	-6,017	237,332	115,326
144,385	-6,089	237,229	115,208
145,400	-6,017	236,868	115,080
146,414	-6,099	236,721	114,933
147,429	-5,933	236,541	114,968
148,443	-6,298	236,463	114,627
149,458	-6,225	236,354	114,622
150,473	-6,205	236,099	114,505
151,487	-6,286	235,915	114,341
152,502	-6,010	235,704	114,449
153,516	-5,950	235,487	114,381
154,531	-6,128	235,360	114,167
155,546	-6,077	235,291	114,164
156,560	-6,250	235,037	113,893
157,575	-6,414	234,818	113,646
158,589	-6,353	234,707	113,631
159,604	-6,027	234,555	113,806
160,619	-5,990	234,425	113,763
161,633	-5,984	234,277	113,685
162,648	-6,003	233,995	113,524
163,662	-6,060	233,911	113,427
164,677	-6,345	233,806	113,140
165,692	-6,049	233,542	113,237
166,706	-6,261	233,608	113,090
167,721	-5,824	233,232	113,244
168,735	-6,027	233,281	113,097
169,750	-6,014	233,057	112,989
170,764	-6,185	232,955	112,794
171,779	-6,037	232,773	112,813
172,794	-6,129	232,487	112,592
173,808	-6,010	232,298	112,584
174,823	-6,650	232,110	111,979
175,837	-6,633	231,861	111,862
176,852	-6,330	231,911	112,115
177,867	-6,039	231,820	112,289
178,881	-6,119	231,740	112,178
179,896	-5,897	231,408	112,181
180,910	-6,063	231,379	112,027
181,925	-6,032	231,101	111,907
182,940	-5,906	231,071	111,981
183,954	-5,931	231,015	111,924
184,969	-5,727	230,708	111,924
185,983	-5,766	230,601	111,832
186,998	-5,775	230,400	111,718
188,013	-5,728	230,329	111,710
189,027	-5,745	230,133	111,592
190,042	-5,768	230,039	111,518
191,056	-5,696	229,763	111,431
192,071	-5,784	229,777	111,359
193,086	-5,805	229,538	111,217
194,100	-5,769	229,301	111,120
195,115	-5,900	229,013	110,869
196,129	-6,807	228,799	110,053
197,144	-3,024	230,001	113,564
198,159	1,407	231,156	117,579
199,173	3,778	231,771	119,731
200,188	3,858	231,547	119,666
201,202	3,805	231,454	119,567
202,217	3,904	231,396	119,603
203,232	4,090	231,312	119,694
204,246	4,488	231,218	119,943
205,261	4,336	230,998	119,701
206,275	4,438	230,963	119,750
207,290	4,543	230,783	119,728
208,304	4,715	230,613	119,762
209,319	4,639	230,457	119,612
210,334	4,405	230,333	119,356
211,348	4,168	229,954	118,966
212,363	3,773	229,709	118,524
213,377	3,672	229,596	118,377
214,392	3,567	229,427	118,199
215,407	3,548	229,403	118,161
216,421	3,934	228,996	118,237
217,436	3,809	229,009	118,137
218,450	3,467	228,688	117,699
219,465	3,231	228,693	117,510
220,480	3,357	228,564	117,530
221,494	3,604	228,207	117,525
222,509	3,731	228,238	117,628
223,523	3,524	228,074	117,374
224,538	3,632	227,833	117,322
225,553	3,611	227,757	117,257
226,567	3,806	227,618	117,323
227,582	3,962	227,571	117,408
228,596	4,079	227,509	117,454
229,611	3,753	227,233	117,053
230,626	3,621	227,007	116,826
231,640	3,584	226,868	116,716
232,655	3,977	226,787	116,963
233,669	4,108	226,815	117,066
234,684	4,312	226,675	117,138
235,699	4,331	226,350	116,975
236,713	3,966	226,163	116,591
237,728	3,709	225,942	116,272
238,742	3,638	225,817	116,144
239,757	3,584	225,729	116,047
240,772	3,635	225,579	115,998
241,786	3,615	225,392	115,877
242,801	3,647	225,364	115,876
243,815	4,021	225,304	116,117
244,830	4,183	225,111	116,129
245,844	3,837	224,937	115,769
246,859	3,869	224,676	115,648
247,874	3,931	224,675	115,683
248,888	4,075	224,443	115,662
249,903	3,931	224,223	115,430
250,917	3,709	224,113	115,197
251,932	3,708	223,886	115,069
252,947	3,640	223,896	115,013
253,961	3,629	223,603	114,844
254,976	3,605	223,507	114,767
255,990	3,880	223,367	114,890
257,005	3,711	223,376	114,758
258,020	4,070	223,188	114,920
259,034	4,069	223,089	114,858
260,049	4,100	222,906	114,776
261,063	3,809	222,652	114,419
262,078	4,037	222,610	114,556
263,093	4,175	222,408	114,545
264,107	3,935	222,400	114,352
265,122	3,895	222,193	114,206
266,136	4,099	222,100	114,299
267,151	4,118	222,066	114,286
268,166	3,848	221,619	113,845
269,180	3,432	221,373	113,401
270,195	3,614	221,324	113,501
271,209	3,507	221,278	113,388
272,224	3,530	221,219	113,364
273,239	3,963	221,010	113,567
274,253	3,617	220,801	113,194
275,268	3,604	220,579	113,060
276,282	3,467	220,394	112,855
277,297	3,394	220,239	112,712
278,312	3,462	220,225	112,744
279,326	3,619	220,139	112,806
280,341	3,592	220,084	112,747
281,355	3,992	219,797	112,884
282,370	4,007	219,501	112,733
283,384	3,328	219,473	112,211
284,399	3,265	219,278	112,056
285,414	3,316	219,185	112,035
286,428	3,797	219,105	112,336
287,443	3,843	219,111	112,363
288,457	3,957	218,974	112,365
289,472	3,628	218,823	112,038
290,487	3,329	218,374	111,580
291,501	3,162	218,206	111,363
292,516	3,229	218,157	111,376
293,530	3,451	218,042	111,470
294,545	3,496	217,871	111,405
295,560	3,657	217,733	111,441
296,574	3,648	217,649	111,382
297,589	3,843	217,728	111,554
298,603	3,899	217,430	111,432
299,618	3,798	217,299	111,282
300,633	3,937	217,267	111,356
301,647	3,931	217,216	111,316
302,662	3,831	216,979	111,111
303,676	4,029	216,807	111,157
304,691	4,192	216,592	111,154
305,706	4,034	216,585	111,027
306,720	3,831	216,399	110,775
307,735	3,599	216,094	110,442
308,749	3,400	216,111	110,298
309,764	3,927	215,975	110,597
310,779	4,054	215,826	110,603
311,793	3,799	215,771	110,382
312,808	3,877	215,574	110,327
313,822	3,855	215,449	110,237
314,837	3,800	215,307	110,115
315,852	3,333	215,143	109,687
316,866	3,573	215,036	109,795
317,881	3,902	214,866	109,933
318,895	3,779	214,735	109,769
319,910	3,811	214,558	109,691
320,925	3,499	214,334	109,344
321,939	3,376	214,018	109,086
322,954	3,368	214,142	109,134
323,968	3,786	214,017	109,358
324,983	3,970	213,955	109,447
325,997	3,971	213,804	109,361
327,012	3,908	213,573	109,188
328,027	3,844	213,488	109,089
329,041	4,159	213,399	109,258
330,056	4,385	213,361	109,389
331,070	3,823	213,112	108,853
332,085	3,352	213,024	108,466
333,100	3,561	212,748	108,463
334,114	3,659	212,533	108,413
335,129	3,747	212,508	108,452
336,143	3,311	212,395	108,078
337,158	3,579	212,225	108,170
338,173	3,590	212,125	108,118
339,187	3,658	211,796	107,988
340,202	3,344	211,826	107,773
341,216	3,243	211,577	107,565
342,231	3,410	211,471	107,619
343,246	3,384	211,391	107,551
344,260	3,537	211,184	107,543
345,275	3,705	211,037	107,577
346,289	3,814	210,981	107,615
347,304	3,961	210,733	107,581
348,319	3,823	210,689	107,453
349,333	3,627	210,665	107,294
350,348	3,645	210,585	107,256
351,362	3,911	210,478	107,378
352,377	3,727	210,317	107,157
353,392	3,702	210,078	107,009
354,406	3,976	209,980	107,141
355,421	194,802	1343,471	1428,826
356,435	155,522	1481,633	1428,899
