DTS Sentinel unit serial number:	SN410029Multiplexer serial number:	ORYXHardware model number:	OX2-SRSoftware version number:	ORYX F/W v4,00 Oryx Data Collector v3.7.2.0data status	okinstallation	B6 Nyhavnadifferential loss correction	single-endedforward channel	channel 2reverse channel	N/Adate	2023/12/10time	03:20:08forward acquisition time	300,00reverse acquisition time	0,00gamma	499,1914k internal	0,3125k external	0,3125temperature offset calibration	1,0000default loss term (dB/km)	0,3820temperature slope calibration	1,0000multiplexer offset coefficient	1,0000multiplexer slope coefficient	1,0000fibre end	0,00T internal ref (°C)	22,00T ext. ref 1 (°C)	5,86T ext. ref 2 (°C)	5,84length (m)	temperature (°C)	Stokes	anti-Stokes-744,400	-200,000	0,153	0,000
-743,385	-86,655	-0,264	0,060
-742,371	-107,582	0,132	0,021
-741,356	-155,967	-0,253	0,012
-740,342	9,802	0,063	0,035
-739,327	210,249	-0,211	0,247
-738,312	315,860	-0,035	-0,049
-737,298	-35,762	-0,188	0,075
-736,283	-44,930	0,028	-0,010
-735,269	508,042	-0,162	0,281
-734,254	70,832	-0,020	0,016
-733,239	-38,418	-0,442	-0,173
-732,225	-200,000	0,031	-0,157
-731,210	-200,000	0,012	0,070
-730,196	800,000	0,007	0,021
-729,181	-200,000	-0,031	0,137
-728,167	657,993	-0,027	0,052
-727,152	167,158	0,145	-0,153
-726,137	300,470	-0,128	-0,177
-725,123	-200,000	0,014	-0,134
-724,108	-177,311	-0,076	0,001
-723,094	-200,000	-0,017	-0,081
-722,079	711,457	0,057	-0,112
-721,064	279,961	-0,147	-0,196
-720,050	151,530	-0,069	0,070
-719,035	-200,000	-0,025	0,090
-718,021	70,255	-0,053	-0,041
-717,006	-200,000	-0,012	-0,150
-715,991	221,037	-0,094	-0,112
-714,977	-200,000	-0,016	-0,190
-713,962	169,694	-0,042	0,045
-712,948	148,967	0,052	0,053
-711,933	-110,169	0,121	0,019
-710,918	306,703	0,037	-0,051
-709,904	8,363	-0,095	-0,053
-708,889	-19,566	0,087	-0,040
-707,875	-78,107	-0,069	-0,017
-706,860	-102,222	-0,044	-0,008
-705,845	196,644	-0,055	0,062
-704,831	-27,328	0,104	-0,045
-703,816	41,064	-0,064	0,043
-702,802	-200,000	-0,021	-0,100
-701,787	-12,728	-0,065	-0,031
-700,772	-23,672	-0,057	0,025
-699,758	129,946	-0,098	-0,094
-698,743	64,910	-0,009	0,007
-697,729	-50,195	0,084	-0,029
-696,714	800,000	0,026	-0,068
-695,699	-109,516	-0,080	0,012
-694,685	-25,260	-0,031	0,014
-693,670	800,000	0,030	-0,092
-692,656	-200,000	-0,023	-0,128
-691,641	-200,000	-0,001	0,147
-690,627	668,903	0,040	0,078
-689,612	-45,554	-0,078	0,029
-688,597	-86,802	-0,060	-0,014
-687,583	399,675	0,068	-0,106
-686,568	800,000	-0,084	-0,202
-685,554	-20,528	-0,051	-0,023
-684,539	-83,239	0,163	0,039
-683,524	55,713	-0,045	0,032
-682,510	-164,377	0,064	0,002
-681,495	-200,000	0,000	0,063
-680,481	800,000	-0,034	0,106
-679,466	-108,849	-0,108	-0,017
-678,451	172,955	-0,077	-0,082
-677,437	-27,902	-0,041	-0,018
-676,422	-10,812	0,160	0,078
-675,408	21,243	-0,089	0,054
-674,393	-200,000	0,002	-0,032
-673,378	-25,491	-0,126	-0,055
-672,364	650,782	-0,052	0,100
-671,349	-154,866	-0,023	-0,001
-670,335	-200,000	-0,008	0,025
-669,320	-48,605	-0,022	0,008
-668,305	556,553	-0,062	0,111
-667,291	28,626	0,120	-0,075
-666,276	-200,000	-0,007	-0,189
-665,262	-200,000	-0,017	-0,103
-664,247	124,798	-0,024	-0,022
-663,232	-80,043	0,042	0,010
-662,218	-200,000	0,033	0,138
-661,203	-18,552	-0,111	-0,051
-660,189	-200,000	0,021	0,081
-659,174	-10,843	-0,059	0,029
-658,159	800,000	0,068	0,154
-657,145	-200,000	-0,023	-0,153
-656,130	369,901	-0,048	0,072
-655,116	738,993	-0,044	-0,089
-654,101	-200,000	-0,007	-0,174
-653,086	254,276	-0,029	0,036
-652,072	94,486	-0,029	0,025
-651,057	123,083	-0,040	0,037
-650,043	103,290	-0,068	0,059
-649,028	800,000	-0,055	0,123
-648,014	-117,074	0,043	0,006
-646,999	-129,705	0,133	-0,013
-645,984	-200,000	-0,002	0,040
-644,970	800,000	0,026	0,059
-643,955	-28,015	0,099	-0,042
-642,941	64,469	-0,093	0,070
-641,926	-51,782	-0,035	0,012
-640,911	-200,000	0,016	0,120
-639,897	231,374	-0,029	0,036
-638,882	471,391	-0,049	0,081
-637,868	127,267	-0,029	0,027
-636,853	-184,118	0,149	0,002
-635,838	107,620	-0,118	-0,104
-634,824	335,975	0,021	-0,030
-633,809	127,848	0,062	0,059
-632,795	-2,905	0,077	0,040
-631,780	171,565	-0,042	0,044
-630,765	-1,237	-0,183	-0,096
-629,751	-76,691	-0,075	-0,019
-628,736	-200,000	-0,004	-0,171
-627,722	-200,000	-0,016	-0,055
-626,707	-35,908	0,012	0,005
-625,692	-200,000	-0,013	-0,097
-624,678	-18,647	0,050	0,023
-623,663	-95,280	-0,105	-0,021
-622,649	-200,000	0,008	-0,138
-621,634	372,548	-0,063	-0,096
-620,619	255,070	-0,031	-0,040
-619,605	-141,302	-0,163	0,012
-618,590	95,266	0,078	-0,066
-617,576	-163,463	0,097	-0,003
-616,561	-200,000	-0,009	-0,046
-615,546	-200,000	-0,005	-0,019
-614,532	-64,412	0,048	-0,014
-613,517	75,124	-0,058	0,046
-612,503	597,506	-0,069	0,127
-611,488	800,000	0,052	0,110
-610,474	31,019	0,085	-0,054
-609,459	269,999	-0,055	0,072
-608,444	800,000	0,065	-0,140
-607,430	247,995	-0,041	-0,052
-606,415	-200,000	0,005	0,046
-605,401	-200,000	-0,009	-0,189
-604,386	-137,984	-0,017	0,001
-603,371	-200,000	-0,005	0,139
-602,357	-104,489	0,037	-0,006
-601,342	-200,000	0,016	-0,074
-600,328	800,000	0,068	-0,144
-599,313	-200,000	-0,002	-0,129
-598,298	-35,806	0,037	0,015
-597,284	71,529	-0,041	-0,032
-596,269	8,992	0,082	-0,046
-595,255	794,206	-0,046	0,095
-594,240	-8,627	-0,053	-0,026
-593,225	-200,000	-0,009	-0,059
-592,211	800,000	-0,028	-0,061
-591,196	-71,491	0,097	-0,027
-590,182	421,962	-0,054	0,087
-589,167	800,000	0,033	0,089
-588,152	-200,000	-0,007	0,044
-587,138	-154,057	0,072	-0,004
-586,123	-18,312	-0,085	-0,039
-585,109	800,000	-0,045	-0,102
-584,094	-68,998	0,055	0,016
-583,079	-200,000	-0,035	0,114
-582,065	-200,000	-0,003	0,169
-581,050	42,609	0,064	0,043
-580,036	800,000	0,020	-0,047
-579,021	-96,062	0,122	0,024
-578,006	440,436	-0,068	-0,111
-576,992	-88,553	0,101	-0,022
-575,977	-68,052	0,088	-0,025
-574,963	498,194	-0,012	0,020
-573,948	632,313	-0,003	-0,006
-572,934	-87,411	0,080	0,018
-571,919	-46,424	-0,230	-0,083
-570,904	-65,955	0,041	-0,012
-569,890	100,064	-0,155	-0,133
-568,875	53,893	0,027	0,019
-567,861	-200,000	-0,003	-0,053
-566,846	-200,000	-0,004	0,017
-565,831	92,352	0,032	0,027
-564,817	679,013	0,021	0,041
-563,802	800,000	-0,008	0,027
-562,788	800,000	-0,044	-0,118
-561,773	556,199	-0,030	0,054
-560,758	409,780	0,060	0,094
-559,744	-200,000	0,012	0,052
-558,729	437,186	0,034	-0,054
-557,715	800,000	0,032	-0,070
-556,700	289,319	-0,045	-0,060
-555,685	544,583	-0,006	-0,010
-554,671	8,256	-0,023	-0,013
-553,656	-200,000	-0,055	0,182
-552,642	724,079	0,051	-0,101
-551,627	-200,000	-0,009	-0,074
-550,612	-84,993	-0,035	-0,008
-549,598	-123,864	-0,054	-0,006
-548,583	-200,000	-0,008	-0,030
-547,569	-160,275	-0,037	0,001
-546,554	-93,204	0,066	-0,013
-545,539	221,619	0,036	0,043
-544,525	-135,947	0,155	0,013
-543,510	-63,168	-0,122	-0,037
-542,496	-200,000	-0,011	-0,047
-541,481	267,121	0,094	-0,122
-540,466	-200,000	-0,011	-0,171
-539,452	288,066	-0,033	-0,045
-538,437	800,000	0,070	0,144
-537,423	-200,000	-0,001	-0,041
-536,408	-200,000	0,003	-0,044
-535,393	-42,701	-0,059	-0,022
-534,379	-200,000	0,015	-0,096
-533,364	-200,000	0,020	-0,098
-532,350	326,660	-0,067	0,096
-531,335	-77,352	0,057	-0,014
-530,321	150,603	0,016	-0,016
-529,306	-158,522	-0,087	0,004
-528,291	292,408	0,037	-0,050
-527,277	-200,000	-0,009	-0,039
-526,262	-134,645	-0,054	-0,005
-525,248	715,465	-0,008	-0,016
-524,233	-29,354	0,085	-0,036
-523,218	14,433	-0,053	0,031
-522,204	779,178	0,051	0,104
-521,189	-200,000	-0,012	0,055
-520,175	393,027	-0,019	-0,030
-519,160	-170,333	-0,074	-0,002
-518,145	-200,000	0,028	0,159
-517,131	89,076	-0,111	0,091
-516,116	800,000	0,082	0,172
-515,102	-59,450	-0,070	-0,022
-514,087	800,000	-0,039	-0,119
-513,072	-87,551	-0,036	0,008
-512,058	289,648	-0,014	-0,018
-511,043	205,406	-0,025	-0,028
-510,029	-57,116	-0,068	0,022
-509,014	542,803	0,062	-0,109
-507,999	-200,000	0,047	-0,216
-506,985	800,000	-0,054	-0,130
-505,970	-104,195	-0,153	-0,026
-504,956	346,837	-0,020	0,029
-503,941	189,629	-0,058	0,065
-502,926	-53,261	-0,071	0,024
-501,912	800,000	0,005	-0,011
-500,897	-131,833	-0,147	0,014
-499,883	-114,516	-0,052	0,007
-498,868	800,000	-0,060	-0,125
-497,853	-200,000	-0,039	-0,150
-496,839	-200,000	0,021	-0,125
-495,824	12,095	0,075	0,042
-494,810	650,603	0,027	-0,052
-493,795	-200,000	-0,013	0,059
-492,781	-31,827	-0,101	0,042
-491,766	-18,505	0,079	0,036
-490,751	-200,000	-0,010	0,044
-489,737	-58,152	-0,145	0,046
-488,722	-59,756	-0,150	0,047
-487,708	274,814	-0,061	0,080
-486,693	-116,726	0,118	-0,016
-485,678	-62,955	0,082	-0,025
-484,664	-107,196	-0,190	0,031
-483,649	-200,000	-0,045	-0,151
-482,635	-200,000	0,036	0,124
-481,620	800,000	0,027	0,074
-480,605	290,652	-0,038	0,051
-479,591	49,167	-0,019	0,013
-478,576	-121,802	0,046	-0,006
-477,562	-200,000	-0,005	0,021
-476,547	800,000	0,011	0,034
-475,532	-147,553	-0,139	0,009
-474,518	71,188	0,082	0,062
-473,503	-200,000	0,023	0,090
-472,489	19,902	0,057	-0,034
-471,474	800,000	-0,028	-0,073
-470,459	-113,618	-0,113	-0,016
-469,445	-200,000	0,008	0,030
-468,430	102,647	-0,059	-0,051
-467,416	-87,737	0,095	-0,021
-466,401	309,977	0,024	0,033
-465,386	-200,000	-0,034	-0,170
-464,372	61,318	-0,077	0,056
-463,357	206,991	-0,023	0,027
-462,343	800,000	-0,078	-0,165
-461,328	800,000	0,012	0,036
-460,313	622,476	-0,045	-0,084
-459,299	-200,000	-0,018	0,234
-458,284	-200,000	0,010	0,061
-457,270	800,000	0,016	0,039
-456,255	-108,002	0,075	-0,012
-455,241	-109,645	-0,053	0,008
-454,226	-200,000	0,000	-0,043
-453,211	455,650	-0,022	0,036
-452,197	-200,000	-0,002	0,133
-451,182	800,000	0,044	0,106
-450,168	-86,428	0,098	0,022
-449,153	-85,215	0,072	0,017
-448,138	-200,000	-0,008	-0,059
-447,124	-200,000	0,024	-0,085
-446,109	-200,000	-0,005	-0,018
-445,095	-15,533	0,102	0,048
-444,080	-200,000	-0,008	0,058
-443,065	-128,058	0,072	0,008
-442,051	115,237	-0,056	-0,050
-441,036	-17,473	-0,077	-0,036
-440,022	-200,000	0,002	-0,139
-439,007	-200,000	0,016	-0,060
-437,992	-200,000	0,018	-0,092
-436,978	800,000	-0,023	0,075
-435,963	212,609	0,028	-0,032
-434,949	-200,000	-0,010	0,061
-433,934	800,000	0,029	-0,059
-432,919	-135,225	0,118	-0,010
-431,905	277,691	0,057	-0,074
-430,890	-57,593	0,179	-0,057
-429,876	-65,017	0,196	0,058
-428,861	15,567	-0,127	-0,073
-427,846	-89,852	0,215	0,046
-426,832	176,481	-0,081	-0,087
-425,817	-200,000	-0,004	-0,189
-424,803	800,000	-0,036	-0,101
-423,788	800,000	-0,061	-0,149
-422,773	-59,641	0,210	0,066
-421,759	-200,000	-0,020	-0,066
-420,744	-24,328	-0,020	-0,009
-419,730	-200,000	-0,030	0,114
-418,715	58,247	0,062	0,045
-417,701	800,000	-0,022	0,058
-416,686	206,217	0,081	0,093
-415,671	800,000	0,014	-0,041
-414,657	-200,000	-0,026	-0,108
-413,642	-53,349	-0,069	0,023
-412,628	-200,000	-0,004	0,018
-411,613	-200,000	0,003	0,030
-410,598	153,846	0,042	0,042
-409,584	-200,000	0,004	0,095
-408,569	-153,185	0,094	0,005
-407,555	573,559	-0,044	0,080
-406,540	6,711	-0,031	-0,017
-405,525	242,308	-0,039	-0,048
-404,511	-32,020	-0,050	-0,020
-403,496	99,843	0,060	-0,051
-402,482	583,011	-0,017	0,030
-401,467	-85,579	0,134	0,030
-400,452	129,174	0,096	0,090
-399,438	22,835	0,107	-0,064
-398,423	-200,000	-0,015	-0,091
-397,409	-109,345	-0,026	0,004
-396,394	56,228	-0,057	-0,040
-395,379	800,000	-0,019	-0,055
-394,365	-200,000	-0,022	0,095
-393,350	-200,000	-0,005	0,062
-392,336	800,000	0,014	-0,030
-391,321	-45,636	-0,099	-0,036
-390,306	386,889	-0,062	0,095
-389,292	476,411	-0,086	0,143
-388,277	-200,000	0,000	0,135
-387,263	40,577	-0,111	-0,073
-386,248	305,314	0,126	0,172
-385,233	137,784	-0,032	-0,030
-384,219	-200,000	0,041	-0,142
-383,204	-200,000	0,016	0,138
-382,190	-56,761	-0,176	0,057
-381,175	800,000	0,036	0,094
-380,160	1,152	-0,058	0,030
-379,146	39,863	0,145	0,095
-378,131	42,085	-0,073	0,049
-377,117	9,542	-0,119	0,066
-376,102	-200,000	-0,002	-0,159
-375,088	141,255	0,059	-0,057
-374,073	-200,000	0,020	-0,166
-373,058	-200,000	-0,003	0,134
-372,044	-47,912	-0,023	0,008
-371,029	-18,866	0,050	0,023
-370,015	-5,285	-0,074	-0,037
-369,000	-136,202	-0,085	0,007
-367,985	-89,351	0,215	0,046
-366,971	-200,000	-0,015	-0,087
-365,956	-200,000	0,016	0,131
-364,942	167,205	0,083	0,086
-363,927	800,000	-0,019	0,060
-362,912	-200,000	0,011	0,063
-361,898	-148,261	-0,037	-0,002
-360,883	-134,743	-0,106	0,009
-359,869	247,364	-0,121	-0,151
-358,854	598,730	0,058	0,106
-357,839	385,611	0,091	0,138
-356,825	-200,000	-0,003	-0,079
-355,810	-32,163	-0,039	-0,016
-354,796	50,265	0,038	0,026
-353,781	-200,000	0,012	-0,180
-352,766	-200,000	-0,015	-0,179
-351,752	-125,816	0,106	-0,012
-350,737	101,392	0,073	0,062
-349,723	800,000	0,029	0,091
-348,708	800,000	0,031	-0,073
-347,693	358,977	0,029	0,042
-346,679	800,000	0,045	-0,138
-345,664	312,109	-0,088	-0,122
-344,650	218,578	-0,040	0,047
-343,635	231,740	-0,029	0,035
-342,620	-200,000	-0,001	0,027
-341,606	800,000	0,014	0,036
-340,591	-200,000	0,008	-0,111
-339,577	131,312	0,100	-0,094
-338,562	15,095	0,090	-0,051
-337,548	-200,000	0,000	-0,095
-336,533	-32,918	0,040	0,016
-335,518	-200,000	0,006	0,051
-334,504	-51,436	0,143	0,049
-333,489	56,456	-0,052	-0,037
-332,475	-75,198	0,024	0,006
-331,460	-61,114	-0,235	0,072
-330,445	-20,053	-0,114	0,051
-329,431	131,160	0,132	0,125
-328,416	91,999	0,102	0,084
-327,402	-200,000	0,010	0,172
-326,387	-115,877	0,047	-0,006
-325,372	-117,639	-0,062	-0,008
-324,358	38,207	0,055	-0,036
-323,343	-101,013	-0,045	-0,008
-322,329	436,997	-0,046	-0,074
-321,314	-200,000	-0,023	-0,138
-320,299	-200,000	0,014	0,075
-319,285	-200,000	-0,013	0,162
-318,270	392,679	-0,043	-0,066
-317,256	-30,103	0,096	-0,040
-316,241	77,248	0,103	0,080
-315,226	-200,000	0,032	0,118
-314,212	800,000	0,049	0,112
-313,197	-200,000	-0,012	0,107
-312,183	800,000	0,036	0,075
-311,168	254,955	-0,062	-0,078
-310,153	-200,000	-0,009	-0,028
-309,139	509,861	-0,046	-0,078
-308,124	800,000	0,036	0,084
-307,110	175,827	0,146	0,156
-306,095	131,968	0,013	0,013
-305,080	633,282	-0,033	-0,062
-304,066	-200,000	-0,008	-0,087
-303,051	-200,000	-0,001	0,011
-302,037	154,063	0,062	-0,063
-301,022	-122,270	0,083	0,010
-300,008	-94,603	-0,054	0,011
-298,993	800,000	0,073	-0,152
-297,978	800,000	-0,039	0,091
-296,964	149,953	-0,107	0,107
-295,949	-200,000	-0,012	-0,122
-294,935	247,086	0,036	-0,045
-293,920	25,037	0,084	0,051
-292,905	-150,800	-0,053	0,003
-291,891	-200,000	0,049	0,159
-290,876	614,875	0,011	-0,020
-289,862	-200,000	0,000	0,010
-288,847	-149,294	-0,108	-0,006
-287,832	262,683	0,035	-0,045
-286,818	-200,000	0,002	0,042
-285,803	-27,112	0,028	-0,012
-284,789	-200,000	0,009	0,040
-283,774	-200,000	-0,022	0,151
-282,759	-55,808	-0,039	-0,013
-281,745	62,487	-0,079	-0,057
-280,730	-171,203	-0,129	0,003
-279,716	-200,000	0,005	0,041
-278,701	-200,000	0,005	0,091
-277,686	800,000	-0,077	0,227
-276,672	-134,423	0,113	0,010
-275,657	800,000	0,037	0,086
-274,643	-200,000	0,006	0,067
-273,628	-200,000	0,010	-0,129
-272,613	800,000	0,059	-0,128
-271,599	66,332	-0,087	-0,064
-270,584	-200,000	0,037	0,147
-269,570	-200,000	0,029	0,103
-268,555	-94,141	-0,079	0,016
-267,540	-200,000	-0,041	0,155
-266,526	-200,000	-0,002	-0,085
-265,511	-200,000	-0,005	-0,021
-264,497	-200,000	0,003	0,024
-263,482	191,101	0,069	0,076
-262,467	-200,000	0,014	0,112
-261,453	-200,000	-0,005	-0,046
-260,438	-140,523	-0,082	0,006
-259,424	10,265	0,057	0,032
-258,409	124,302	0,057	0,052
-257,395	39,748	0,118	0,077
-256,380	800,000	0,055	0,141
-255,365	-49,805	-0,118	-0,041
-254,351	100,664	-0,087	-0,074
-253,336	-200,000	-0,024	-0,114
-252,322	-85,546	-0,163	-0,037
-251,307	-200,000	0,009	-0,102
-250,292	-82,569	0,040	0,009
-249,278	-57,135	-0,092	-0,029
-248,263	-115,641	0,056	0,008
-247,249	-200,000	0,007	0,072
-246,234	-82,399	-0,039	-0,009
-245,219	800,000	-0,012	-0,025
-244,205	648,604	0,024	0,045
-243,190	-200,000	-0,002	0,061
-242,176	800,000	0,022	0,061
-241,161	29,908	0,079	-0,049
-240,146	79,690	-0,114	0,089
-239,132	40,711	0,108	-0,071
-238,117	138,029	-0,047	-0,045
-237,103	800,000	-0,044	-0,127
-236,088	800,000	0,066	-0,192
-235,073	-124,923	0,138	-0,015
-234,059	800,000	-0,025	-0,067
-233,044	-200,000	-0,036	0,137
-232,030	68,522	0,131	-0,098
-231,015	800,000	0,022	-0,045
-230,000	-36,781	-0,077	-0,030
-228,986	-58,465	-0,126	0,040
-227,971	800,000	-0,056	-0,178
-226,957	91,946	-0,047	0,039
-225,942	208,318	-0,093	0,107
-224,927	-200,000	-0,002	-0,091
-223,913	288,759	0,035	0,047
-222,898	-107,327	-0,164	-0,026
-221,884	-65,359	0,142	0,042
-220,869	-200,000	0,009	0,060
-219,855	-200,000	-0,008	0,055
-218,840	-200,000	-0,004	0,079
-217,825	800,000	0,030	-0,072
-216,811	533,158	-0,051	-0,089
-215,796	545,310	-0,080	-0,139
-214,782	101,493	0,105	-0,089
-213,767	-64,654	0,114	0,034
-212,752	800,000	-0,050	0,111
-211,738	-68,165	0,090	-0,025
-210,723	59,118	0,077	0,056
-209,709	408,538	-0,055	0,085
-208,694	273,485	-0,031	0,041
-207,679	158,404	-0,006	-0,006
-206,665	108,462	0,062	-0,054
-205,650	203,340	0,100	-0,113
-204,636	-71,934	0,137	0,037
-203,621	-200,000	0,000	-0,077
-202,606	379,724	0,058	-0,087
-201,592	-57,937	-0,079	0,025
-200,577	800,000	0,014	0,040
-199,563	-53,870	0,064	-0,021
-198,548	800,000	-0,035	0,084
-197,533	183,271	-0,067	0,072
-196,519	42,468	-0,055	0,036
-195,504	315,701	0,047	-0,065
-194,490	-200,000	-0,007	-0,054
-193,475	365,353	-0,036	-0,053
-192,460	24,144	0,047	0,028
-191,446	-182,928	0,075	0,001
-190,431	230,147	-0,141	0,168
-189,417	133,736	-0,065	0,061
-188,402	-19,641	-0,042	0,019
-187,387	800,000	-0,023	-0,071
-186,373	-118,463	-0,112	0,014
-185,358	-200,000	-0,016	0,070
-184,344	-142,035	0,078	0,006
-183,329	-12,121	-0,024	0,011
-182,315	-200,000	0,003	-0,040
-181,300	328,035	0,031	0,043
-180,285	-200,000	0,007	0,031
-179,271	-57,227	0,027	0,009
-178,256	-200,000	0,006	0,037
-177,242	-96,914	0,080	0,015
-176,227	-166,748	0,094	0,003
-175,212	-52,278	-0,062	-0,021
-174,198	280,313	-0,034	-0,044
-173,183	60,327	-0,059	0,043
-172,169	-200,000	0,029	-0,118
-171,154	1,480	-0,021	-0,011
-170,139	-200,000	-0,025	0,209
-169,125	518,417	0,068	-0,116
-168,110	9,611	-0,046	-0,025
-167,096	800,000	-0,022	-0,049
-166,081	-22,288	0,088	-0,039
-165,066	53,455	-0,098	-0,068
-164,052	-26,847	0,072	-0,030
-163,037	-200,000	0,012	0,103
-162,023	31,825	0,069	-0,043
-161,008	365,310	0,096	-0,141
-159,993	-200,000	0,020	0,070
-158,979	-191,774	-0,126	-0,001
-157,964	6,203	0,067	0,036
-156,950	294,338	-0,053	0,071
-155,935	745,401	0,030	0,059
-154,920	-200,000	-0,014	-0,074
-153,906	-200,000	-0,017	-0,073
-152,891	-200,000	-0,011	0,068
-151,877	-2,334	0,133	0,068
-150,862	414,418	-0,018	0,028
-149,847	72,527	-0,147	0,112
-148,833	-200,000	0,001	-0,039
-147,818	651,102	0,024	0,045
-146,804	-63,547	0,077	-0,023
-145,789	800,000	-0,032	0,081
-144,775	-200,000	-0,018	0,069
-143,760	277,916	0,052	-0,068
-142,745	389,024	-0,041	-0,062
-141,731	-95,202	-0,085	-0,016
-140,716	-200,000	0,002	-0,135
-139,702	57,621	-0,087	0,062
-138,687	800,000	0,020	-0,056
-137,672	15,209	-0,103	0,058
-136,658	-200,000	0,009	-0,086
-135,643	800,000	-0,049	-0,119
-134,629	204,908	0,044	-0,049
-133,614	53,727	0,038	-0,026
-132,599	-200,000	0,038	0,153
-131,585	235,312	-0,055	-0,066
-130,570	800,000	-0,002	0,006
-129,556	122,628	-0,069	-0,063
-128,541	102,914	0,100	0,085
-127,526	-34,296	0,024	-0,009
-126,512	278,618	0,072	0,094
-125,497	-145,238	0,203	0,013
-124,483	800,000	0,033	0,082
-123,468	-200,000	-0,018	0,106
-122,453	800,000	-0,059	0,185
-121,439	-200,000	-0,016	-0,062
-120,424	-87,871	-0,030	0,007
-119,410	-200,000	0,004	-0,079
-118,395	181,455	-0,009	-0,009
-117,380	-69,409	0,160	0,044
-116,366	655,403	-0,052	-0,098
-115,351	-85,644	0,025	-0,006
-114,337	8,816	0,067	-0,037
-113,322	-16,145	-0,157	0,072
-112,307	-73,406	-0,115	-0,030
-111,293	274,760	0,112	0,144
-110,278	-103,617	-0,022	0,004
-109,264	153,094	0,024	-0,024
-108,249	-2,472	0,038	0,019
-107,234	-158,826	-0,020	-0,001
-106,220	-126,039	0,069	-0,007
-105,205	-109,487	-0,052	-0,008
-104,191	31,258	0,060	0,037
-103,176	-200,000	-0,003	-0,031
-102,162	-92,519	0,149	0,030
-101,147	-200,000	-0,014	-0,121
-100,132	77,002	-0,081	0,063
-99,118	800,000	-0,043	0,103
-98,103	148,099	0,054	0,053
-97,089	0,019	0,081	0,042
-96,074	-200,000	0,020	0,131
-95,059	-4,244	0,066	-0,033
-94,045	335,806	-0,030	-0,042
-93,030	-106,913	-0,062	-0,010
-92,016	800,000	0,053	0,113
-91,001	-200,000	-0,010	-0,045
-89,986	800,000	0,036	0,104
-88,972	-37,790	-0,109	-0,042
-87,957	-122,742	0,112	-0,013
-86,943	-200,000	-0,000	-0,038
-85,928	800,000	-0,046	-0,130
-84,913	30,932	-0,033	0,020
-83,899	579,091	-0,120	-0,213
-82,884	-200,000	-0,004	0,081
-81,870	-200,000	0,011	0,059
-80,855	-200,000	-0,035	0,117
-79,840	297,543	0,077	0,104
-78,826	409,949	0,057	0,087
-77,811	-200,000	-0,009	-0,107
-76,797	-126,910	0,044	-0,005
-75,782	376,266	0,072	-0,107
-74,767	199,198	0,038	0,042
-73,753	390,872	-0,046	0,070
-72,738	53,534	0,050	0,035
-71,724	-200,000	-0,012	-0,086
-70,709	372,634	0,051	-0,076
-69,694	-23,447	-0,039	0,017
-68,680	800,000	-0,039	0,117
-67,665	105,924	-0,088	0,076
-66,651	180,290	0,038	0,040
-65,636	-134,580	-0,131	0,011
-64,622	65,610	0,091	0,067
-63,607	109,986	-0,093	-0,081
-62,592	-200,000	-0,006	0,089
-61,578	-200,000	-0,013	-0,062
-60,563	297,065	0,044	0,058
-59,549	-200,000	0,006	0,129
-58,534	-94,072	-1,476	-0,291
-57,519	676,871	-0,777	-1,471
-56,505	-200,000	-1,084	-4,560
-55,490	4,236	0,660	-0,349
-54,476	800,000	4,925	11,691
-53,461	-200,000	13,915	253,234
-52,446	-200,000	692,371	2242,005
-51,432	576,849	1623,173	2888,190
-50,417	117,809	1633,231	1458,217
-49,403	72,340	1287,148	971,420
-48,388	37,497	1023,509	656,855
-47,373	23,999	981,281	585,399
-46,359	23,258	971,005	576,820
-45,344	22,262	966,662	570,966
-44,330	22,196	965,041	569,769
-43,315	22,049	963,749	568,508
-42,300	22,035	962,628	567,776
-41,286	22,020	961,789	567,212
-40,271	22,023	960,678	566,543
-39,257	22,014	959,727	565,931
-38,242	21,982	958,858	565,291
-37,227	22,010	958,024	564,867
-36,213	21,989	957,074	564,217
-35,198	21,966	956,373	563,706
-34,184	22,006	955,766	563,458
-33,169	21,979	954,831	562,798
-32,154	22,057	953,933	562,495
-31,140	22,063	952,940	561,908
-30,125	22,043	952,226	561,400
-29,111	22,044	951,294	560,832
-28,096	22,072	950,619	560,501
-27,082	22,030	950,063	560,016
-26,067	22,034	949,074	559,422
-25,052	22,049	948,632	559,188
-24,038	22,065	947,850	558,757
-23,023	21,976	947,382	558,173
-22,009	22,112	946,493	558,064
-20,994	22,067	945,940	557,572
-19,979	22,055	945,270	557,115
-18,965	22,080	944,738	556,861
-17,950	22,069	943,987	556,361
-16,936	21,988	943,502	555,793
-15,921	21,956	942,780	555,244
-14,906	21,949	941,913	554,691
-13,892	21,892	941,315	554,136
-12,877	21,857	940,830	553,715
-11,863	21,899	939,994	553,334
-10,848	21,903	939,721	553,166
-9,833	22,061	939,147	553,307
-8,819	22,003	938,557	552,754
-7,804	21,978	937,739	552,171
-6,790	21,897	937,376	551,676
-5,775	22,023	936,644	551,624
-4,760	21,918	935,922	550,845
-3,746	21,922	935,405	550,532
-2,731	21,736	934,731	549,527
-1,717	21,787	933,916	549,187
-0,702	21,679	933,465	548,559
0,313	21,574	932,720	548,619
1,327	24,655	930,593	556,994
2,342	34,216	794,657	501,046
3,356	31,972	450,960	280,937
4,371	1,001	293,976	152,221
5,386	-3,411	274,908	138,158
6,400	-4,581	269,180	134,181
7,415	-4,985	266,915	132,669
8,429	-4,832	265,687	132,187
9,444	-4,738	264,737	131,789
10,459	-4,661	264,166	131,563
11,473	-4,866	263,647	131,106
12,488	-4,878	263,029	130,775
13,502	-5,072	262,530	130,341
14,517	-4,972	261,959	130,136
15,531	-4,882	261,603	130,029
16,546	-4,802	261,128	129,853
17,561	-4,958	261,070	129,672
18,575	-4,708	260,661	129,682
19,590	-4,968	260,254	129,235
20,604	-4,964	260,095	129,147
21,619	-4,904	259,699	128,993
22,634	-4,948	259,351	128,770
23,648	-5,059	259,086	128,528
24,663	-4,779	258,684	128,566
25,677	-4,963	258,631	128,365
26,692	-4,878	258,382	128,305
27,707	-5,030	258,045	127,991
28,721	-5,078	257,874	127,852
29,736	-4,976	257,504	127,748
30,750	-4,950	257,163	127,590
31,765	-4,975	257,179	127,564
32,780	-4,991	256,722	127,312
33,794	-4,903	256,501	127,270
34,809	-4,821	256,348	127,254
35,823	-5,040	256,039	126,897
36,838	-5,027	255,730	126,744
37,853	-5,022	255,655	126,699
38,867	-5,032	255,378	126,542
39,882	-5,240	255,418	126,368
40,896	-5,043	254,888	126,267
41,911	-5,232	254,746	126,020
42,926	-5,012	254,498	126,078
43,940	-5,127	254,325	125,881
44,955	-5,024	253,994	125,797
45,969	-5,121	253,909	125,658
46,984	-5,436	253,644	125,240
47,999	-5,404	253,289	125,082
49,013	-5,468	253,008	124,877
50,028	-5,713	252,847	124,573
51,042	-5,602	252,485	124,481
52,057	-5,682	252,211	124,265
53,071	-5,692	252,146	124,213
54,086	-5,600	252,123	124,270
55,101	-5,602	251,865	124,130
56,115	-5,424	251,672	124,178
57,130	-4,844	251,483	124,575
58,144	-4,805	251,360	124,537
59,159	-4,682	251,213	124,558
60,174	-4,772	250,990	124,359
61,188	-4,749	250,754	124,251
62,203	-4,869	250,643	124,082
63,217	-4,786	250,355	124,000
64,232	-4,810	250,188	123,886
65,247	-4,885	249,928	123,681
66,261	-4,802	249,659	123,608
67,276	-5,021	249,486	123,324
68,290	-5,171	249,116	123,002
69,305	-5,362	248,987	122,763
70,320	-5,308	248,838	122,725
71,334	-5,000	248,639	122,879
72,349	-4,855	248,656	123,000
73,363	-4,713	248,421	122,994
74,378	-4,799	248,085	122,744
75,393	-4,900	248,049	122,629
76,407	-5,005	247,779	122,395
77,422	-5,000	247,550	122,275
78,436	-4,678	247,357	122,442
79,451	-5,003	246,948	121,953
80,466	-5,062	246,891	121,865
81,480	-5,093	246,655	121,711
82,495	-5,487	246,651	121,365
83,509	-5,128	246,334	121,501
84,524	-5,162	246,195	121,394
85,539	-5,258	245,800	121,107
86,553	-5,412	245,641	120,889
87,568	-5,098	245,380	121,013
88,582	-5,164	245,379	120,946
89,597	-5,200	245,248	120,841
90,611	-5,079	245,062	120,839
91,626	-5,114	245,017	120,777
92,641	-4,663	244,592	120,935
93,655	-4,966	244,378	120,565
94,670	-5,134	244,358	120,403
95,684	-5,241	244,127	120,189
96,699	-5,117	243,891	120,166
97,714	-5,116	243,719	120,071
98,728	-5,235	243,474	119,841
99,743	-5,429	243,210	119,539
100,757	-5,538	243,170	119,418
101,772	-5,250	242,971	119,549
102,787	-5,059	242,721	119,574
103,801	-5,108	242,617	119,471
104,816	-5,157	242,543	119,383
105,830	-4,919	242,333	119,467
106,845	-4,850	242,038	119,368
107,860	-4,987	241,944	119,198
108,874	-5,110	241,723	118,976
109,889	-5,185	241,732	118,908
110,903	-5,308	241,392	118,629
111,918	-5,348	241,143	118,463
112,933	-5,087	240,967	118,581
113,947	-4,994	240,887	118,607
114,962	-5,119	240,724	118,414
115,976	-4,944	240,455	118,415
116,991	-4,922	240,149	118,272
118,006	-5,181	240,263	118,104
119,020	-5,090	240,055	118,066
120,035	-4,961	239,950	118,110
121,049	-5,059	239,794	117,942
122,064	-4,970	239,450	117,835
123,079	-5,081	239,385	117,702
124,093	-5,055	239,149	117,597
125,108	-5,276	238,925	117,296
126,122	-5,372	238,561	117,029
127,137	-5,405	238,487	116,955
128,151	-5,213	238,281	117,000
129,166	-5,264	238,250	116,932
130,181	-5,200	238,024	116,863
131,195	-5,208	237,713	116,694
132,210	-5,240	237,808	116,704
133,224	-5,107	237,422	116,612
134,239	-4,860	237,324	116,753
135,254	-4,778	237,212	116,754
136,268	-5,047	237,070	116,456
137,283	-5,685	236,855	115,825
138,297	-5,508	236,539	115,802
139,312	-5,371	236,458	115,863
140,327	-5,132	236,196	115,917
141,341	-4,574	236,212	116,364
142,356	-4,762	236,121	116,157
143,370	-4,762	235,935	116,055
144,385	-4,601	235,776	116,096
145,400	-4,674	235,697	115,989
146,414	-4,645	235,381	115,845
147,429	-4,852	235,315	115,637
148,443	-4,718	235,042	115,600
149,458	-4,813	235,034	115,510
150,473	-4,581	234,764	115,552
151,487	-4,785	234,705	115,349
152,502	-4,696	234,390	115,256
153,516	-4,790	234,205	115,080
154,531	-4,784	234,108	115,026
155,546	-4,800	233,995	114,948
156,560	-4,977	233,795	114,699
157,575	-5,053	233,693	114,578
158,589	-4,919	233,303	114,483
159,604	-4,814	233,142	114,477
160,619	-4,714	233,085	114,518
161,633	-4,598	233,038	114,577
162,648	-4,696	232,824	114,384
163,662	-4,589	232,755	114,424
164,677	-4,919	232,592	114,073
165,692	-4,767	232,389	114,083
166,706	-4,606	232,221	114,117
167,721	-4,701	232,017	113,933
168,735	-4,531	231,924	114,010
169,750	-4,805	231,956	113,800
170,764	-4,649	231,559	113,718
171,779	-4,602	231,496	113,713
172,794	-4,608	231,241	113,573
173,808	-4,904	231,067	113,246
174,823	-5,085	230,743	112,935
175,837	-5,263	230,531	112,681
176,852	-4,964	230,620	112,949
177,867	-4,715	230,536	113,093
178,881	-4,683	230,346	113,015
179,896	-4,520	230,173	113,047
180,910	-4,591	229,983	112,889
181,925	-4,694	229,911	112,763
182,940	-4,659	229,678	112,666
183,954	-4,259	229,350	112,806
184,969	-4,767	229,530	112,488
185,983	-4,488	229,166	112,517
186,998	-4,467	229,076	112,479
188,013	-4,506	228,978	112,391
189,027	-4,442	228,691	112,290
190,042	-4,560	228,671	112,179
191,056	-4,566	228,461	112,061
192,071	-4,393	228,398	112,154
193,086	-4,565	228,218	111,922
194,100	-4,652	228,098	111,786
195,115	-4,710	227,715	111,544
196,129	-5,313	227,379	110,904
197,144	-3,215	228,032	112,835
198,159	0,652	229,145	116,376
199,173	3,393	230,060	118,961
200,188	3,910	229,977	119,308
201,202	4,064	229,904	119,380
202,217	3,967	229,721	119,199
203,232	4,427	229,589	119,476
204,246	4,560	229,427	119,483
205,261	4,562	229,300	119,409
206,275	4,585	229,269	119,399
207,290	4,688	229,052	119,355
208,304	4,797	228,967	119,384
209,319	4,465	228,732	118,995
210,334	4,562	228,496	118,936
211,348	4,161	228,385	118,559
212,363	3,899	228,108	118,204
213,377	3,796	227,769	117,938
214,392	3,765	227,710	117,874
215,407	3,884	227,650	117,923
216,421	3,781	227,546	117,780
217,436	3,836	227,198	117,632
218,450	3,413	227,068	117,230
219,465	3,772	226,827	117,369
220,480	3,541	226,751	117,143
221,494	3,465	226,656	117,026
222,509	3,596	226,639	117,107
223,523	3,852	226,474	117,206
224,538	3,658	226,153	116,882
225,553	3,787	225,882	116,830
226,567	4,071	225,892	117,040
227,582	4,070	225,805	116,984
228,596	4,048	225,875	116,993
229,611	3,764	225,619	116,634
230,626	3,565	225,358	116,338
231,640	3,611	225,194	116,278
232,655	3,795	225,123	116,370
233,669	4,163	225,144	116,649
234,684	4,632	224,829	116,830
235,699	4,325	224,667	116,504
236,713	3,955	224,528	116,142
237,728	3,644	224,355	115,808
238,742	3,743	224,056	115,718
239,757	3,706	224,110	115,707
240,772	3,773	223,844	115,610
241,786	3,654	223,794	115,484
242,801	3,832	223,556	115,485
243,815	4,008	223,601	115,630
244,830	4,324	223,433	115,770
245,844	3,847	223,126	115,243
246,859	4,144	222,927	115,352
247,874	4,172	222,853	115,324
248,888	4,115	222,811	115,250
249,903	3,930	222,542	114,962
250,917	3,808	222,452	114,815
251,932	3,768	222,333	114,713
252,947	3,678	222,098	114,514
253,961	3,615	221,858	114,333
254,976	3,653	221,727	114,284
255,990	4,067	221,794	114,616
257,005	4,034	221,618	114,491
258,020	4,095	221,466	114,448
259,034	4,167	221,394	114,454
260,049	4,212	221,344	114,451
261,063	4,085	221,057	114,198
262,078	4,291	220,990	114,306
263,093	4,269	220,868	114,216
264,107	4,255	220,538	114,026
265,122	4,072	220,490	113,855
266,136	4,297	220,316	113,922
267,151	4,145	220,298	113,790
268,166	4,005	219,919	113,480
269,180	3,594	219,789	113,100
270,195	3,862	219,563	113,172
271,209	3,417	219,569	112,837
272,224	3,764	219,240	112,912
273,239	3,975	219,308	113,093
274,253	3,520	219,204	112,695
275,268	3,512	219,003	112,575
276,282	3,687	218,633	112,503
277,297	3,665	218,630	112,476
278,312	3,576	218,449	112,307
279,326	3,609	218,529	112,362
280,341	3,642	218,326	112,272
281,355	3,692	218,230	112,249
282,370	3,718	217,935	112,106
283,384	3,625	217,744	111,931
284,399	3,502	217,692	111,804
285,414	3,465	217,691	111,766
286,428	3,782	217,435	111,856
287,443	3,821	217,320	111,816
288,457	4,098	217,142	111,915
289,472	3,677	217,016	111,534
290,487	3,291	216,813	111,140
291,501	3,021	216,534	110,792
292,516	3,171	216,349	110,796
293,530	3,348	216,280	110,878
294,545	3,454	216,141	110,874
295,560	3,446	216,211	110,894
296,574	3,778	216,040	111,036
297,589	3,424	216,075	110,789
298,603	3,792	215,737	110,871
299,618	3,969	215,610	110,924
300,633	3,760	215,545	110,730
301,647	4,080	215,527	110,941
302,662	4,189	215,315	110,900
303,676	4,189	215,165	110,813
304,691	4,133	214,971	110,663
305,706	3,986	214,942	110,532
306,720	3,898	214,890	110,433
307,735	3,853	214,620	110,252
308,749	3,712	214,447	110,052
309,764	3,837	214,374	110,095
310,779	4,230	214,224	110,289
311,793	3,897	214,023	109,938
312,808	3,894	213,966	109,897
313,822	3,696	213,805	109,662
314,837	3,621	213,660	109,525
315,852	3,671	213,630	109,535
316,866	3,715	213,303	109,389
317,881	3,837	213,264	109,447
318,895	3,944	213,061	109,409
319,910	3,553	213,044	109,112
320,925	3,605	212,796	109,012
321,939	3,217	212,464	108,557
322,954	3,323	212,446	108,613
323,968	3,854	212,386	108,950
324,983	4,074	212,159	108,979
325,997	3,895	212,102	108,814
327,012	3,763	211,947	108,631
328,027	3,790	211,914	108,623
329,041	4,253	211,766	108,865
330,056	4,335	211,638	108,848
331,070	3,894	211,395	108,402
332,085	3,387	211,325	107,999
333,100	3,730	211,171	108,152
334,114	3,885	211,010	108,169
335,129	4,031	210,824	108,166
336,143	3,647	210,850	107,901
337,158	3,818	210,671	107,919
338,173	3,764	210,479	107,773
339,187	3,684	210,314	107,623
340,202	3,382	210,152	107,319
341,216	3,393	209,981	107,230
342,231	3,663	209,846	107,340
343,246	3,519	209,768	107,190
344,260	3,472	209,793	107,161
345,275	3,554	209,543	107,080
346,289	3,797	209,422	107,179
347,304	4,185	209,191	107,321
348,319	3,999	209,060	107,115
349,333	3,688	209,049	106,883
350,348	3,723	208,969	106,857
351,362	4,112	208,719	106,990
352,377	3,963	208,736	106,885
353,392	3,933	208,463	106,716
354,406	3,894	208,430	106,662
355,421	193,555	1344,705	1431,022
356,435	154,420	1483,248	1431,123
