DTS Sentinel unit serial number:	SN410029Multiplexer serial number:	ORYXHardware model number:	OX2-SRSoftware version number:	ORYX F/W v4,00 Oryx Data Collector v3.7.2.0data status	okinstallation	B6 Nyhavnadifferential loss correction	single-endedforward channel	channel 2reverse channel	N/Adate	2023/12/10time	16:25:08forward acquisition time	300,00reverse acquisition time	0,00gamma	499,1914k internal	0,3122k external	0,3122temperature offset calibration	1,0000default loss term (dB/km)	0,3820temperature slope calibration	1,0000multiplexer offset coefficient	1,0000multiplexer slope coefficient	1,0000fibre end	0,00T internal ref (°C)	22,37T ext. ref 1 (°C)	6,14T ext. ref 2 (°C)	6,14length (m)	temperature (°C)	Stokes	anti-Stokes-744,400	-82,963	0,103	0,025
-743,385	86,472	-0,196	0,161
-742,371	-200,000	0,005	0,041
-741,356	-15,927	-0,298	0,141
-740,342	-47,930	0,115	-0,041
-739,327	-0,141	-0,173	0,092
-738,312	121,687	0,031	-0,028
-737,298	58,836	-0,126	0,092
-736,283	509,151	0,032	-0,055
-735,269	800,000	-0,059	0,122
-734,254	111,041	-0,082	-0,074
-733,239	-96,658	-0,315	0,061
-732,225	82,608	0,101	0,082
-731,210	407,786	0,030	0,048
-730,196	-175,454	-0,261	0,005
-729,181	-142,362	-0,084	-0,006
-728,167	-109,856	-0,136	-0,021
-727,152	387,862	-0,065	-0,101
-726,137	633,514	-0,044	-0,084
-725,123	104,637	-0,050	-0,044
-724,108	-140,335	-0,055	-0,004
-723,094	-13,030	-0,071	-0,034
-722,079	724,301	0,051	0,101
-721,064	-200,000	0,007	0,031
-720,050	-70,798	0,109	-0,030
-719,035	-22,916	-0,146	-0,065
-718,021	215,799	0,049	0,058
-717,006	-200,000	-0,009	-0,034
-715,991	-200,000	0,026	-0,226
-714,977	67,109	-0,013	-0,010
-713,962	196,465	0,122	-0,138
-712,948	-28,910	-0,075	0,032
-711,933	-200,000	-0,015	-0,105
-710,918	-200,000	-0,006	-0,049
-709,904	-89,988	-0,166	-0,036
-708,889	-200,000	-0,006	-0,059
-707,875	422,753	-0,069	0,110
-706,860	138,522	-0,080	0,078
-705,845	-29,584	0,035	-0,015
-704,831	220,410	0,036	0,043
-703,816	-200,000	0,003	0,178
-702,802	-200,000	0,035	0,152
-701,787	800,000	0,037	-0,078
-700,772	-107,526	-0,059	0,009
-699,758	-14,802	-0,122	-0,058
-698,743	800,000	0,064	0,149
-697,729	-200,000	-0,008	0,054
-696,714	54,856	0,136	0,098
-695,699	680,680	-0,074	-0,144
-694,685	90,953	0,074	0,062
-693,670	22,514	-0,082	-0,050
-692,656	31,822	0,075	-0,048
-691,641	203,587	-0,041	-0,047
-690,627	-26,412	0,117	0,051
-689,612	-200,000	-0,008	-0,083
-688,597	481,032	0,054	0,091
-687,583	-200,000	-0,017	-0,060
-686,568	-143,742	-0,179	-0,012
-685,554	99,581	-0,033	0,028
-684,539	-200,000	0,019	0,077
-683,524	-200,000	0,024	0,103
-682,510	222,167	-0,079	0,094
-681,495	-124,639	-0,037	-0,004
-680,481	-200,000	-0,004	0,102
-679,466	-200,000	-0,006	0,071
-678,451	-200,000	-0,005	-0,065
-677,437	677,420	-0,038	0,073
-676,422	265,248	0,033	0,043
-675,408	222,773	0,059	0,071
-674,393	316,689	-0,029	-0,040
-673,378	-101,051	-0,130	0,023
-672,364	27,366	0,048	0,030
-671,349	800,000	-0,030	-0,087
-670,335	207,443	-0,066	0,076
-669,320	-200,000	-0,017	-0,071
-668,305	-89,583	-0,025	0,005
-667,291	-119,933	0,064	-0,008
-666,276	96,607	0,063	0,054
-665,262	-200,000	-0,003	0,157
-664,247	231,857	-0,028	-0,034
-663,232	-134,519	-0,152	-0,014
-662,218	373,946	0,066	-0,100
-661,203	-200,000	-0,046	0,179
-660,189	-200,000	-0,010	-0,130
-659,174	737,135	-0,042	-0,084
-658,159	-28,832	0,065	-0,028
-657,145	-200,000	0,010	-0,053
-656,130	-124,723	0,101	-0,011
-655,116	-103,889	-0,041	-0,007
-654,101	-200,000	0,017	-0,085
-653,086	132,062	-0,038	-0,036
-652,072	527,339	-0,068	-0,120
-651,057	7,650	-0,145	-0,080
-650,043	-200,000	0,006	0,070
-649,028	88,301	-0,103	-0,085
-648,014	5,350	-0,127	-0,070
-646,999	-74,995	0,073	0,019
-645,984	-42,544	-0,026	0,010
-644,970	-47,442	-0,084	0,030
-643,955	800,000	-0,013	-0,037
-642,941	-200,000	0,017	-0,185
-641,926	-200,000	-0,024	0,091
-640,911	-200,000	-0,022	0,215
-639,897	89,431	-0,091	0,075
-638,882	124,161	0,032	0,030
-637,868	-200,000	-0,011	0,077
-636,853	92,658	-0,044	-0,037
-635,838	139,769	0,101	0,098
-634,824	-0,626	0,026	-0,014
-633,809	563,546	0,039	-0,070
-632,795	800,000	-0,042	0,099
-631,780	-86,850	0,036	0,008
-630,765	-4,634	-0,085	0,044
-629,751	-124,664	-0,153	0,017
-628,736	315,715	0,080	-0,112
-627,722	-93,885	-0,079	-0,016
-626,707	215,130	-0,006	-0,007
-625,692	-200,000	-0,002	0,055
-624,678	188,810	0,075	0,084
-623,663	-5,431	-0,163	0,083
-622,649	-77,963	-0,095	-0,024
-621,634	755,991	-0,036	-0,072
-620,619	-159,475	0,072	-0,003
-619,605	-132,327	0,123	0,012
-618,590	-2,097	0,053	-0,028
-617,576	800,000	-0,032	0,084
-616,561	800,000	0,062	-0,149
-615,546	800,000	-0,057	-0,132
-614,532	-114,514	-0,075	0,011
-613,517	-187,252	0,046	-0,000
-612,503	-140,704	0,081	-0,006
-611,488	-200,000	0,014	-0,127
-610,474	-200,000	0,033	0,156
-609,459	450,670	-0,073	0,120
-608,444	-7,692	0,082	0,041
-607,430	-43,302	-0,077	-0,029
-606,415	265,895	-0,041	0,053
-605,401	128,091	0,026	-0,025
-604,386	-200,000	-0,023	-0,097
-603,371	242,454	-0,078	0,097
-602,357	-76,608	-0,118	0,030
-601,342	-56,804	0,049	0,016
-600,328	526,831	-0,108	-0,190
-599,313	411,772	0,087	-0,138
-598,298	-2,325	-0,101	0,052
-597,284	128,106	0,074	0,070
-596,269	-93,490	-0,050	-0,010
-595,255	-200,000	0,018	-0,077
-594,240	-73,344	-0,161	-0,043
-593,225	534,789	0,042	-0,075
-592,211	-200,000	-0,019	-0,081
-591,196	331,603	0,051	0,073
-590,182	-200,000	0,017	0,107
-589,167	45,175	-0,030	0,021
-588,152	800,000	-0,024	-0,068
-587,138	-126,110	-0,070	0,008
-586,123	31,426	-0,067	-0,043
-585,109	124,772	0,074	-0,069
-584,094	800,000	0,044	-0,112
-583,079	-200,000	0,020	0,093
-582,065	4,263	-0,080	-0,043
-581,050	-3,475	0,050	0,026
-580,036	-99,174	0,028	-0,005
-579,021	-13,255	-0,046	0,022
-578,006	-111,037	-0,126	0,019
-576,992	57,664	0,049	-0,035
-575,977	25,223	-0,029	0,018
-574,963	617,329	-0,060	-0,111
-573,948	-200,000	0,008	0,059
-572,934	800,000	0,007	-0,015
-571,919	135,948	-0,087	0,084
-570,904	-92,951	-0,079	-0,016
-569,890	22,295	-0,102	0,061
-568,875	66,994	0,071	-0,054
-567,861	-37,124	-0,148	-0,059
-566,846	-33,737	-0,144	-0,058
-565,831	-200,000	0,044	0,144
-564,817	-200,000	-0,021	0,077
-563,802	333,095	-0,038	-0,055
-562,788	75,533	-0,115	0,089
-561,773	800,000	0,036	-0,101
-560,758	303,095	0,046	0,063
-559,744	441,021	0,036	-0,059
-558,729	-29,249	-0,044	-0,019
-557,715	-200,000	-0,031	-0,136
-556,700	116,607	0,030	-0,027
-555,685	33,456	-0,083	0,053
-554,671	424,893	0,055	-0,088
-553,656	-13,375	0,144	0,069
-552,642	-198,069	0,056	-0,000
-551,627	281,884	-0,048	0,063
-550,612	85,858	-0,050	0,041
-549,598	-113,712	-0,188	0,027
-548,583	-7,095	0,087	-0,043
-547,569	-200,000	0,004	-0,045
-546,554	-29,655	0,120	0,050
-545,539	91,293	0,079	0,065
-544,525	91,889	0,087	0,073
-543,510	-200,000	-0,010	0,071
-542,496	-200,000	-0,031	0,119
-541,481	31,975	0,089	-0,057
-540,466	-200,000	0,016	-0,086
-539,452	800,000	-0,059	0,142
-538,437	800,000	0,027	0,072
-537,423	197,459	-0,093	0,105
-536,408	-200,000	-0,003	-0,097
-535,393	257,050	0,103	-0,132
-534,379	137,849	-0,100	0,097
-533,364	-187,557	0,057	0,001
-532,350	342,594	0,063	0,091
-531,335	-200,000	-0,012	0,077
-530,321	546,999	-0,050	-0,089
-529,306	24,232	0,066	0,040
-528,291	84,227	0,034	-0,027
-527,277	-200,000	0,010	-0,161
-526,262	25,710	0,063	0,039
-525,248	-24,457	0,022	-0,010
-524,233	800,000	0,033	-0,082
-523,218	-94,412	-0,048	-0,009
-522,204	-200,000	-0,000	0,157
-521,189	96,027	0,087	0,074
-520,175	800,000	-0,041	-0,127
-519,160	-200,000	0,003	-0,059
-518,145	135,464	0,130	0,125
-517,131	7,992	-0,056	0,031
-516,116	232,548	-0,078	-0,095
-515,102	-200,000	0,004	-0,066
-514,087	142,186	0,009	-0,009
-513,072	800,000	-0,037	-0,101
-512,058	60,368	-0,068	0,050
-511,043	189,433	-0,023	-0,025
-510,029	-17,886	0,142	-0,066
-509,014	32,725	0,127	0,081
-507,999	539,920	0,036	-0,064
-506,985	489,809	-0,032	-0,054
-505,970	311,354	-0,052	-0,072
-504,956	800,000	0,031	0,098
-503,941	488,306	0,053	0,089
-502,926	-200,000	0,004	-0,093
-501,912	60,022	0,073	0,053
-500,897	-20,208	0,107	0,048
-499,883	-62,964	-0,102	-0,031
-498,868	-9,313	-0,110	0,054
-497,853	-150,765	0,133	0,007
-496,839	-200,000	-0,004	-0,034
-495,824	-151,734	-0,089	0,005
-494,810	104,426	-0,018	-0,016
-493,795	-200,000	0,007	0,192
-492,781	29,365	-0,099	-0,062
-491,766	800,000	0,061	-0,137
-490,751	63,537	-0,099	-0,073
-489,737	353,955	-0,004	-0,006
-488,722	800,000	0,014	0,028
-487,708	-200,000	-0,010	-0,050
-486,693	-200,000	-0,002	0,012
-485,678	-163,192	0,108	0,004
-484,664	-200,000	-0,017	-0,118
-483,649	-200,000	0,031	-0,163
-482,635	471,643	0,045	-0,074
-481,620	-200,000	0,004	-0,014
-480,605	83,343	-0,090	0,072
-479,591	-32,378	0,023	-0,009
-478,576	-143,904	-0,096	0,007
-477,562	665,973	0,046	-0,088
-476,547	-96,805	-0,088	-0,017
-475,532	10,715	-0,074	-0,042
-474,518	-200,000	-0,032	-0,162
-473,503	-112,936	-0,072	0,010
-472,489	188,997	0,030	0,033
-471,474	30,829	-0,033	-0,021
-470,459	-106,718	-0,099	-0,016
-469,445	315,482	-0,052	0,073
-468,430	178,521	0,120	-0,129
-467,416	-200,000	0,007	-0,063
-466,401	278,716	0,063	-0,082
-465,386	-200,000	-0,024	0,084
-464,372	800,000	0,063	0,138
-463,357	-155,458	0,079	-0,004
-462,343	800,000	0,028	0,083
-461,328	-95,443	-0,086	0,017
-460,313	-200,000	0,008	0,054
-459,299	-200,000	0,012	0,048
-458,284	12,003	-0,059	0,034
-457,270	-73,070	0,097	-0,026
-456,255	37,172	0,031	-0,020
-455,241	457,526	0,095	-0,156
-454,226	-56,419	-0,113	-0,037
-453,211	-30,918	0,029	0,012
-452,197	-200,000	-0,022	0,077
-451,182	49,099	0,179	0,124
-450,168	-155,485	0,118	0,006
-449,153	164,670	-0,125	-0,130
-448,138	-36,369	-0,042	-0,017
-447,124	-200,000	-0,007	-0,048
-446,109	-90,966	-0,066	-0,014
-445,095	324,633	0,070	0,099
-444,080	-200,000	-0,001	0,069
-443,065	116,992	0,084	0,076
-442,051	800,000	0,051	0,123
-441,036	139,911	-0,108	0,105
-440,022	800,000	-0,031	-0,081
-439,007	162,589	-0,055	0,057
-437,992	-98,002	0,071	0,013
-436,978	347,738	0,073	0,106
-435,963	-5,156	-0,097	0,049
-434,949	46,172	0,027	-0,019
-433,934	-200,000	0,007	-0,042
-432,919	640,519	-0,027	0,052
-431,905	-104,209	-0,110	-0,019
-430,890	320,220	0,037	-0,052
-429,876	189,017	0,060	0,067
-428,861	212,812	0,109	0,127
-427,846	-92,207	-0,067	-0,014
-426,832	157,169	-0,106	-0,108
-425,817	800,000	-0,045	-0,097
-424,803	443,972	0,053	-0,086
-423,788	800,000	-0,028	0,059
-422,773	82,319	0,024	0,019
-421,759	-200,000	0,001	-0,053
-420,744	-101,291	-0,152	-0,027
-419,730	-120,607	-0,099	0,012
-418,715	60,723	0,115	-0,084
-417,701	6,011	-0,041	0,022
-416,686	348,896	-0,062	-0,090
-415,671	674,089	0,021	0,040
-414,657	452,111	0,035	0,058
-413,642	-200,000	-0,031	0,134
-412,628	-70,298	-0,040	0,011
-411,613	800,000	-0,030	0,066
-410,598	-158,122	-0,155	0,007
-409,584	-47,400	0,100	-0,036
-408,569	-56,926	0,112	0,036
-407,555	119,510	0,134	0,122
-406,540	58,005	-0,092	0,066
-405,525	673,209	-0,080	0,153
-404,511	273,491	-0,023	-0,031
-403,496	199,701	0,025	-0,028
-402,482	800,000	0,039	0,089
-401,467	52,285	-0,147	0,103
-400,452	-79,670	0,076	-0,019
-399,438	625,694	0,056	0,105
-398,423	-25,312	-0,029	0,013
-397,409	71,740	0,079	-0,060
-396,394	144,019	0,027	-0,026
-395,379	-54,034	-0,075	-0,025
-394,365	800,000	0,022	0,049
-393,350	-200,000	-0,029	0,108
-392,336	266,662	-0,080	0,104
-391,321	422,893	0,047	0,075
-390,306	721,519	-0,083	-0,163
-389,292	181,124	-0,018	-0,020
-388,277	763,089	-0,014	-0,027
-387,263	-76,672	0,070	0,018
-386,248	47,223	0,090	0,062
-385,233	-200,000	-0,001	-0,035
-384,219	-45,983	0,064	-0,023
-383,204	111,216	-0,054	-0,048
-382,190	17,403	-0,045	0,026
-381,175	-200,000	0,006	-0,107
-380,160	-200,000	0,006	0,023
-379,146	-79,218	0,091	0,022
-378,131	2,499	-0,084	0,044
-377,117	94,743	0,031	0,026
-376,102	-135,892	0,142	-0,012
-375,088	800,000	-0,065	-0,156
-374,073	-90,650	-0,145	-0,031
-373,058	-164,595	0,119	0,004
-372,044	30,895	0,053	0,034
-371,029	-26,098	0,035	0,015
-370,015	800,000	0,048	0,135
-369,000	215,142	0,038	0,044
-367,985	88,928	0,028	-0,022
-366,971	37,423	-0,036	-0,023
-365,956	800,000	0,054	0,137
-364,942	-78,435	-0,032	-0,008
-363,927	-122,021	-0,065	-0,008
-362,912	37,144	0,085	0,055
-361,898	-85,237	-0,214	-0,049
-360,883	-200,000	-0,016	-0,138
-359,869	-200,000	0,006	-0,095
-358,854	-147,039	0,155	-0,010
-357,839	258,036	-0,064	-0,081
-356,825	-200,000	0,003	0,039
-355,810	-200,000	-0,014	0,070
-354,796	-200,000	0,041	-0,155
-353,781	-33,037	0,077	-0,031
-352,766	800,000	0,038	-0,100
-351,752	45,659	-0,098	0,066
-350,737	105,807	0,072	-0,063
-349,723	-104,137	0,114	0,019
-348,708	-87,370	-0,090	-0,020
-347,693	169,291	-0,014	0,015
-346,679	57,560	-0,081	-0,058
-345,664	101,551	0,035	-0,030
-344,650	800,000	0,041	-0,087
-343,635	-85,632	-0,188	0,043
-342,620	254,837	-0,085	0,107
-341,606	207,012	-0,122	0,140
-340,591	-200,000	0,004	0,017
-339,577	285,051	-0,093	0,123
-338,562	-200,000	0,022	-0,098
-337,548	-83,200	0,044	-0,010
-336,533	-200,000	0,001	-0,013
-335,518	-114,701	0,104	-0,014
-334,504	-200,000	-0,027	0,130
-333,489	800,000	0,033	-0,089
-332,475	2,548	0,056	-0,030
-331,460	12,968	-0,061	-0,034
-330,445	236,021	0,069	-0,084
-329,431	54,375	0,156	-0,110
-328,416	32,051	0,024	0,015
-327,402	800,000	-0,059	0,137
-326,387	14,785	0,055	-0,032
-325,372	563,587	0,022	0,039
-324,358	-18,943	0,101	-0,046
-323,343	232,871	0,102	-0,123
-322,329	-200,000	-0,005	0,044
-321,314	-131,015	0,095	-0,009
-320,299	127,910	0,061	-0,057
-319,285	-11,247	-0,049	-0,024
-318,270	-200,000	0,031	0,129
-317,256	-156,223	-0,202	0,009
-316,241	-200,000	-0,011	-0,074
-315,226	-200,000	0,024	-0,116
-314,212	108,418	0,004	0,004
-313,197	-200,000	-0,002	0,029
-312,183	-115,479	0,065	0,009
-311,168	550,808	-0,022	-0,039
-310,153	800,000	-0,019	-0,041
-309,139	372,659	-0,065	0,098
-308,124	32,637	0,117	-0,074
-307,110	26,952	0,073	-0,045
-306,095	475,872	0,025	0,042
-305,080	419,744	-0,020	0,032
-304,066	58,789	0,036	0,026
-303,051	-60,540	-0,089	0,028
-302,037	-46,218	-0,051	0,018
-301,022	39,550	0,052	-0,034
-300,008	-200,000	-0,020	-0,077
-298,993	-179,042	0,106	0,002
-297,978	800,000	0,029	-0,084
-296,964	22,817	-0,078	-0,046
-295,949	-200,000	-0,035	-0,123
-294,935	254,445	-0,072	-0,090
-293,920	-11,757	-0,078	-0,037
-292,905	84,868	0,061	0,049
-291,891	-74,935	0,099	0,026
-290,876	-200,000	0,018	-0,075
-289,862	-138,421	-0,027	-0,002
-288,847	800,000	-0,007	-0,016
-287,832	50,775	0,048	0,033
-286,818	75,741	0,058	0,045
-285,803	800,000	0,024	-0,057
-284,789	81,674	-0,016	0,013
-283,774	-200,000	-0,005	-0,085
-282,759	-200,000	0,021	0,106
-281,745	102,808	-0,081	-0,069
-280,730	800,000	0,004	0,010
-279,716	31,922	-0,092	-0,058
-278,701	-200,000	-0,002	-0,087
-277,686	-200,000	0,003	0,089
-276,672	800,000	-0,041	0,127
-275,657	-200,000	0,002	0,043
-274,643	111,726	-0,161	-0,143
-273,628	402,099	-0,033	0,052
-272,613	-85,718	0,050	0,011
-271,599	-88,949	-0,024	-0,005
-270,584	2,380	0,087	0,046
-269,570	-200,000	-0,022	0,158
-268,555	-200,000	0,019	0,076
-267,540	-80,097	-0,058	0,014
-266,526	561,051	-0,054	-0,095
-265,511	-63,020	0,097	-0,029
-264,497	-148,339	0,053	0,003
-263,482	-132,029	0,116	0,011
-262,467	-200,000	0,010	0,042
-261,453	654,027	0,018	0,033
-260,438	19,646	-0,093	-0,055
-259,424	-87,938	0,154	0,034
-258,409	195,187	-0,077	-0,085
-257,395	37,115	0,072	-0,047
-256,380	415,120	-0,029	0,045
-255,365	-200,000	0,018	-0,072
-254,351	62,181	-0,050	-0,036
-253,336	800,000	0,024	0,068
-252,322	220,632	-0,086	-0,101
-251,307	11,123	0,109	-0,061
-250,292	-200,000	-0,002	-0,029
-249,278	33,511	0,139	0,088
-248,263	-5,729	0,029	-0,015
-247,249	297,745	0,031	-0,041
-246,234	-31,049	-0,041	0,017
-245,219	-155,403	-0,169	-0,008
-244,205	-130,560	-0,205	-0,020
-243,190	206,122	0,021	0,024
-242,176	-200,000	0,010	0,079
-241,161	251,982	-0,028	0,035
-240,146	6,506	0,111	-0,060
-239,132	-82,976	0,061	0,014
-238,117	36,590	-0,113	0,073
-237,103	63,012	-0,182	-0,133
-236,088	-200,000	-0,004	-0,018
-235,073	-52,299	0,067	0,023
-234,059	-36,360	-0,004	0,001
-233,044	-45,996	0,072	0,026
-232,030	-53,959	0,079	0,026
-231,015	-200,000	-0,002	0,025
-230,000	-134,501	-0,131	-0,012
-228,986	24,187	0,046	-0,027
-227,971	83,612	0,058	-0,046
-226,957	800,000	0,016	-0,035
-225,942	-68,863	0,027	0,008
-224,927	-82,137	-0,113	0,027
-223,913	-35,816	-0,143	-0,056
-222,898	800,000	0,058	0,118
-221,884	800,000	0,023	0,062
-220,869	777,165	-0,037	0,074
-219,855	-200,000	0,016	0,057
-218,840	-76,002	-0,127	0,033
-217,825	-100,389	0,053	-0,010
-216,811	-101,272	0,059	-0,010
-215,796	314,169	-0,039	-0,053
-214,782	2,555	-0,090	-0,048
-213,767	-160,962	0,040	0,001
-212,752	223,926	0,077	0,091
-211,738	-80,401	-0,013	0,003
-210,723	-200,000	0,012	0,090
-209,709	-136,921	0,036	0,003
-208,694	-200,000	-0,009	-0,058
-207,679	800,000	-0,024	0,066
-206,665	800,000	0,054	0,122
-205,650	800,000	-0,017	-0,053
-204,636	14,555	0,013	0,007
-203,621	800,000	-0,033	0,078
-202,606	-134,459	-0,065	-0,006
-201,592	414,411	0,086	-0,133
-200,577	37,082	-0,134	-0,086
-199,563	130,852	0,019	0,017
-198,548	-72,849	0,122	0,033
-197,533	723,957	-0,057	0,111
-196,519	-200,000	0,019	0,111
-195,504	800,000	-0,039	-0,122
-194,490	-200,000	-0,016	-0,212
-193,475	-66,239	0,126	-0,036
-192,460	-200,000	-0,004	0,095
-191,446	-180,643	0,146	0,002
-190,431	-72,083	0,060	0,016
-189,417	-93,752	0,060	-0,012
-188,402	-200,000	0,007	-0,083
-187,387	122,911	0,139	0,127
-186,373	-200,000	0,014	-0,075
-185,358	800,000	-0,029	-0,064
-184,344	255,367	0,005	-0,006
-183,329	-72,559	0,076	-0,020
-182,315	160,060	0,063	0,064
-181,300	58,815	0,063	-0,045
-180,285	-82,010	-0,086	-0,020
-179,271	577,002	0,019	0,034
-178,256	18,015	-0,082	-0,047
-177,242	278,296	0,057	-0,075
-176,227	23,918	-0,031	0,019
-175,212	103,963	-0,048	0,041
-174,198	-62,001	-0,053	-0,016
-173,183	-113,649	0,063	-0,009
-172,169	14,271	-0,117	-0,066
-171,154	-57,748	0,092	-0,029
-170,139	-200,000	0,006	0,063
-169,125	-13,803	0,123	0,058
-168,110	-35,700	0,136	0,054
-167,096	-200,000	-0,002	0,088
-166,081	-200,000	0,014	-0,065
-165,066	-58,576	0,085	-0,027
-164,052	-103,013	0,068	-0,012
-163,037	-134,191	-0,107	-0,010
-162,023	-67,119	0,063	0,018
-161,008	-102,442	-0,134	0,023
-159,993	800,000	-0,038	0,096
-158,979	800,000	0,043	-0,092
-157,964	-200,000	0,041	0,193
-156,950	251,535	0,040	-0,049
-155,935	95,996	0,094	0,078
-154,920	751,193	-0,026	0,051
-153,906	-102,575	0,256	0,044
-152,891	657,099	-0,058	-0,110
-151,877	-82,773	0,076	0,018
-150,862	46,305	-0,130	-0,088
-149,847	800,000	-0,062	-0,138
-148,833	730,592	0,019	0,037
-147,818	-47,097	-0,063	0,022
-146,804	-200,000	0,015	0,066
-145,789	-139,520	-0,018	-0,001
-144,775	800,000	-0,049	0,115
-143,760	6,070	-0,109	-0,059
-142,745	800,000	0,013	0,041
-141,731	49,685	0,085	-0,058
-140,716	465,290	-0,048	0,079
-139,702	-127,297	0,147	-0,015
-138,687	715,155	-0,032	0,062
-137,672	-48,061	0,091	0,032
-136,658	-22,196	-0,077	0,034
-135,643	-10,273	0,069	0,033
-134,629	-142,283	0,074	0,005
-133,614	36,346	-0,050	-0,032
-132,599	-200,000	0,003	0,120
-131,585	19,766	0,073	0,043
-130,570	-200,000	0,006	0,134
-129,556	144,456	-0,083	0,081
-128,541	-81,307	0,067	0,016
-127,526	437,206	0,038	0,060
-126,512	-200,000	-0,000	0,040
-125,497	416,687	-0,027	0,043
-124,483	455,371	-0,062	0,101
-123,468	800,000	0,057	-0,119
-122,453	347,837	0,029	-0,041
-121,439	-95,593	-0,092	-0,018
-120,424	-200,000	0,003	-0,171
-119,410	38,822	0,089	-0,058
-118,395	-200,000	-0,005	0,049
-117,380	387,208	-0,030	0,045
-116,366	11,903	0,065	0,036
-115,351	168,575	-0,086	0,089
-114,337	77,280	-0,114	0,088
-113,322	-200,000	-0,021	0,085
-112,307	-200,000	0,004	0,090
-111,293	633,132	0,044	0,082
-110,278	-200,000	0,025	0,102
-109,264	-6,475	0,089	0,044
-108,249	800,000	0,064	-0,146
-107,234	-144,492	-0,050	-0,003
-106,220	-200,000	0,013	-0,059
-105,205	-200,000	-0,006	0,084
-104,191	800,000	-0,014	0,039
-103,176	154,434	0,092	0,091
-102,162	-200,000	-0,011	-0,103
-101,147	-148,465	-0,100	0,006
-100,132	208,878	-0,095	-0,108
-99,118	748,777	-0,058	-0,114
-98,103	278,684	-0,005	-0,006
-97,089	109,395	0,066	0,057
-96,074	62,449	0,057	-0,041
-95,059	-200,000	-0,020	0,077
-94,045	141,608	-0,072	0,069
-93,030	68,231	0,019	0,014
-92,016	-113,255	0,059	-0,008
-91,001	39,491	-0,117	0,076
-89,986	-130,029	0,093	0,009
-88,972	616,620	0,051	0,093
-87,957	325,105	-0,097	0,136
-86,943	60,740	0,100	-0,072
-85,928	167,811	0,038	0,039
-84,913	349,427	0,056	-0,081
-83,899	800,000	0,091	0,183
-82,884	-200,000	-0,007	0,217
-81,870	39,030	0,102	0,066
-80,855	237,356	-0,027	-0,033
-79,840	395,354	-0,026	0,040
-78,826	-25,946	-0,056	0,024
-77,811	-200,000	0,001	-0,083
-76,797	53,887	0,075	0,052
-75,782	800,000	0,027	-0,057
-74,767	-200,000	-0,009	0,083
-73,753	199,578	-0,047	-0,052
-72,738	158,399	-0,061	-0,062
-71,724	-7,480	-0,068	-0,033
-70,709	800,000	0,045	0,100
-69,694	800,000	0,073	0,182
-68,680	-181,003	0,091	0,001
-67,665	-24,634	0,024	0,010
-66,651	-23,607	-0,047	-0,020
-65,636	-200,000	-0,017	-0,104
-64,622	-22,655	-0,105	-0,046
-63,607	461,728	-0,017	-0,028
-62,592	-4,116	0,046	-0,023
-61,578	701,497	0,045	-0,087
-60,563	-200,000	-0,010	-0,047
-59,549	-73,621	-0,213	-0,056
-58,534	-163,529	-1,347	-0,045
-57,519	495,646	-0,892	-1,493
-56,505	-200,000	-0,917	-4,421
-55,490	48,192	0,484	-0,328
-54,476	800,000	4,989	11,907
-53,461	-200,000	13,692	253,108
-52,446	-200,000	689,789	2260,525
-51,432	591,872	1622,315	2918,874
-50,417	119,402	1634,847	1468,560
-49,403	73,309	1288,946	977,592
-48,388	38,074	1024,359	659,955
-47,373	24,319	981,912	587,363
-46,359	23,570	971,545	578,683
-45,344	22,617	967,238	572,980
-44,330	22,562	965,775	571,911
-43,315	22,411	964,413	570,589
-42,300	22,395	963,242	569,822
-41,286	22,400	962,471	569,359
-40,271	22,401	961,467	568,744
-39,257	22,381	960,525	568,101
-38,242	22,360	959,461	567,381
-37,227	22,394	958,594	566,956
-36,213	22,322	957,737	566,193
-35,198	22,349	956,906	565,766
-34,184	22,397	956,312	565,549
-33,169	22,342	955,621	564,940
-32,154	22,451	954,474	564,591
-31,140	22,435	953,552	563,973
-30,125	22,408	952,899	563,477
-29,111	22,398	952,118	562,960
-28,096	22,451	951,306	562,628
-27,082	22,412	950,724	562,135
-26,067	22,486	949,888	561,855
-25,052	22,400	949,203	561,152
-24,038	22,398	948,552	560,740
-23,023	22,422	948,007	560,473
-22,009	22,454	947,115	560,025
-20,994	22,451	946,616	559,700
-19,979	22,433	946,096	559,312
-18,965	22,467	945,432	559,004
-17,950	22,428	944,838	558,507
-16,936	22,363	944,180	557,888
-15,921	22,350	943,338	557,327
-14,906	22,261	942,846	556,730
-13,892	22,297	942,060	556,359
-12,877	22,296	941,522	556,017
-11,863	22,200	940,843	555,289
-10,848	22,325	940,319	555,354
-9,833	22,411	939,753	555,269
-8,819	22,368	939,115	554,736
-7,804	22,376	938,396	554,314
-6,790	22,258	937,952	553,656
-5,775	22,375	937,232	553,580
-4,760	22,313	936,662	553,026
-3,746	22,214	936,223	552,431
-2,731	22,180	935,337	551,779
-1,717	22,126	934,655	551,185
-0,702	22,123	934,165	550,864
0,313	21,920	933,403	550,607
1,327	25,087	931,363	559,310
2,342	34,696	796,061	503,655
3,356	32,763	451,567	282,761
4,371	1,824	293,676	153,035
5,386	-2,681	274,494	138,765
6,400	-4,234	268,786	134,427
7,415	-4,540	266,247	132,865
8,429	-4,459	265,136	132,372
9,444	-4,219	264,208	132,116
10,459	-4,452	263,591	131,584
11,473	-4,476	262,910	131,210
12,488	-4,584	262,465	130,879
13,502	-4,639	261,800	130,486
14,517	-4,827	261,561	130,186
15,531	-4,593	261,180	130,195
16,546	-4,562	260,671	129,958
17,561	-4,717	260,384	129,664
18,575	-4,594	259,958	129,550
19,590	-4,810	259,666	129,200
20,604	-4,656	259,493	129,240
21,619	-4,553	259,066	129,108
22,634	-4,680	258,749	128,825
23,648	-4,711	258,411	128,618
24,663	-4,510	258,128	128,644
25,677	-4,597	258,019	128,501
26,692	-4,576	257,741	128,369
27,707	-4,688	257,434	128,106
28,721	-4,632	257,166	128,011
29,736	-4,835	256,990	127,732
30,750	-4,843	256,663	127,551
31,765	-4,676	256,309	127,511
32,780	-4,680	256,211	127,448
33,794	-4,677	255,960	127,314
34,809	-4,782	255,788	127,125
35,823	-4,779	255,525	126,986
36,838	-4,640	255,252	126,961
37,853	-4,912	255,077	126,624
38,867	-4,716	254,720	126,607
39,882	-4,696	254,515	126,511
40,896	-4,855	254,489	126,348
41,911	-4,810	254,159	126,212
42,926	-4,963	253,909	125,943
43,940	-4,809	253,568	125,897
44,955	-4,908	253,489	125,760
45,969	-4,944	253,100	125,525
46,984	-5,175	252,934	125,230
47,999	-5,315	252,788	125,024
49,013	-5,600	252,493	124,619
50,028	-5,606	252,322	124,519
51,042	-5,776	252,038	124,220
52,057	-5,769	251,822	124,109
53,071	-5,785	251,590	123,970
54,086	-5,554	251,384	124,057
55,101	-5,498	251,217	124,011
56,115	-5,110	251,113	124,285
57,130	-4,947	251,155	124,434
58,144	-4,557	250,937	124,652
59,159	-4,505	250,636	124,536
60,174	-4,632	250,556	124,376
61,188	-4,695	250,266	124,167
62,203	-4,741	250,117	124,042
63,217	-4,781	249,953	123,916
64,232	-4,811	249,795	123,800
65,247	-4,476	249,331	123,846
66,261	-4,787	249,343	123,575
67,276	-4,920	248,954	123,257
68,290	-5,281	248,838	122,880
69,305	-5,165	248,531	122,817
70,320	-5,211	248,236	122,621
71,334	-4,855	248,214	122,903
72,349	-4,610	248,129	123,058
73,363	-4,421	247,829	123,060
74,378	-4,730	247,617	122,681
75,393	-4,652	247,461	122,658
76,407	-4,683	247,114	122,449
77,422	-4,860	247,078	122,271
78,436	-4,666	246,809	122,290
79,451	-4,672	246,601	122,171
80,466	-4,797	246,297	121,905
81,480	-4,820	245,946	121,701
82,495	-4,964	245,978	121,584
83,509	-5,091	245,898	121,426
84,524	-4,639	245,411	121,555
85,539	-5,103	245,302	121,100
86,553	-5,136	245,174	120,999
87,568	-4,935	245,053	121,097
88,582	-5,126	244,713	120,758
89,597	-5,142	244,751	120,753
90,611	-4,955	244,443	120,747
91,626	-4,870	244,314	120,744
92,641	-4,727	244,139	120,766
93,655	-4,837	243,923	120,556
94,670	-5,002	243,803	120,348
95,684	-4,885	243,661	120,365
96,699	-4,741	243,365	120,328
97,714	-5,031	243,286	120,037
98,728	-4,980	242,886	119,871
99,743	-5,057	242,746	119,727
100,757	-5,192	242,630	119,547
101,772	-5,110	242,222	119,404
102,787	-5,009	242,327	119,528
103,801	-5,027	242,124	119,403
104,816	-4,973	242,053	119,402
105,830	-4,716	241,703	119,431
106,845	-4,733	241,740	119,425
107,860	-4,827	241,520	119,228
108,874	-5,042	241,243	118,903
109,889	-4,778	240,977	118,979
110,903	-4,688	240,679	118,895
111,918	-4,983	240,667	118,636
112,933	-4,832	240,552	118,693
113,947	-4,821	240,337	118,585
114,962	-4,883	240,245	118,478
115,976	-4,738	240,185	118,557
116,991	-4,818	239,922	118,351
118,006	-4,689	239,595	118,285
119,020	-4,827	239,566	118,147
120,035	-4,925	239,487	118,017
121,049	-4,774	239,297	118,037
122,064	-4,943	239,113	117,797
123,079	-4,902	238,949	117,739
124,093	-4,902	238,610	117,561
125,108	-5,173	238,395	117,224
126,122	-5,412	238,302	116,974
127,137	-5,283	238,070	116,954
128,151	-5,280	237,975	116,900
129,166	-5,114	237,882	116,979
130,181	-4,930	237,505	116,932
131,195	-5,080	237,408	116,752
132,210	-5,004	237,110	116,657
133,224	-5,036	237,094	116,613
134,239	-5,070	237,016	116,536
135,254	-4,741	236,687	116,630
136,268	-5,000	236,640	116,387
137,283	-5,168	236,313	116,080
138,297	-5,192	236,071	115,932
139,312	-5,377	235,904	115,691
140,327	-5,006	235,839	115,947
141,341	-4,493	235,839	116,350
142,356	-4,489	235,759	116,303
143,370	-4,655	235,620	116,091
144,385	-4,679	235,470	115,987
145,400	-4,410	235,211	116,065
146,414	-4,410	234,950	115,926
147,429	-4,481	234,886	115,827
148,443	-4,481	234,691	115,720
149,458	-4,458	234,510	115,639
150,473	-4,316	234,197	115,588
151,487	-4,345	234,097	115,505
152,502	-4,394	233,934	115,375
153,516	-4,404	233,895	115,338
154,531	-4,438	233,685	115,197
155,546	-4,439	233,563	115,126
156,560	-4,566	233,320	114,895
157,575	-4,593	233,022	114,717
158,589	-4,656	232,978	114,635
159,604	-4,385	232,974	114,838
160,619	-4,376	232,759	114,728
161,633	-4,506	232,654	114,563
162,648	-4,642	232,597	114,417
163,662	-4,575	232,319	114,323
164,677	-4,738	232,181	114,116
165,692	-4,861	231,968	113,904
166,706	-4,112	231,695	114,351
167,721	-4,307	231,665	114,172
168,735	-4,346	231,460	114,030
169,750	-4,317	231,428	114,027
170,764	-4,339	231,081	113,829
171,779	-4,320	231,110	113,848
172,794	-4,361	230,973	113,738
173,808	-4,552	230,690	113,439
174,823	-4,968	230,483	113,000
175,837	-4,912	230,058	112,825
176,852	-4,581	230,104	113,097
177,867	-4,522	230,091	113,127
178,881	-4,336	229,994	113,215
179,896	-4,227	229,775	113,182
180,910	-4,132	229,546	113,133
181,925	-4,568	229,581	112,800
182,940	-4,316	229,229	112,813
183,954	-4,448	229,138	112,656
184,969	-4,125	228,897	112,779
185,983	-4,119	228,830	112,740
186,998	-4,352	228,840	112,554
188,013	-4,363	228,624	112,429
189,027	-4,303	228,446	112,378
190,042	-4,300	228,324	112,310
191,056	-4,297	228,086	112,186
192,071	-4,393	228,041	112,079
193,086	-4,180	227,751	112,091
194,100	-4,154	227,742	112,097
195,115	-4,446	227,356	111,672
196,129	-5,391	227,078	110,796
197,144	-2,369	227,885	113,518
198,159	1,436	229,007	117,018
199,173	3,928	229,735	119,314
200,188	4,309	229,664	119,562
201,202	4,202	229,458	119,361
202,217	4,458	229,276	119,455
203,232	4,594	229,101	119,458
204,246	4,885	228,967	119,602
205,261	4,797	229,015	119,548
206,275	4,795	228,703	119,373
207,290	5,243	228,623	119,666
208,304	5,048	228,557	119,471
209,319	4,923	228,340	119,250
210,334	4,814	228,128	119,045
211,348	4,664	227,835	118,767
212,363	4,237	227,656	118,334
213,377	4,040	227,591	118,139
214,392	3,861	227,392	117,888
215,407	3,938	227,346	117,913
216,421	4,329	227,087	118,067
217,436	4,202	226,787	117,804
218,450	4,115	226,655	117,658
219,465	3,720	226,534	117,283
220,480	3,984	226,401	117,406
221,494	3,815	226,287	117,206
222,509	4,280	226,087	117,447
223,523	4,057	225,817	117,127
224,538	3,973	225,680	116,981
225,553	4,022	225,684	117,010
226,567	3,935	225,707	116,946
227,582	4,226	225,484	117,041
228,596	4,470	225,381	117,162
229,611	4,062	225,253	116,775
230,626	3,922	225,041	116,549
231,640	3,970	224,859	116,481
232,655	4,247	224,791	116,644
233,669	4,628	224,708	116,880
234,684	4,621	224,673	116,846
235,699	4,417	224,396	116,537
236,713	4,280	224,194	116,318
237,728	4,194	224,020	116,153
238,742	3,840	223,844	115,784
239,757	4,038	223,601	115,797
240,772	3,887	223,346	115,542
241,786	3,892	223,384	115,555
242,801	4,048	223,479	115,711
243,815	4,231	223,325	115,758
244,830	4,632	222,976	115,868
245,844	4,153	222,894	115,456
246,859	4,144	222,655	115,315
247,874	4,263	222,562	115,346
248,888	4,470	222,512	115,464
249,903	4,310	222,221	115,183
250,917	3,774	222,219	114,772
251,932	4,157	221,941	114,903
252,947	4,077	221,708	114,713
253,961	3,889	221,583	114,498
254,976	3,978	221,473	114,498
255,990	4,031	221,415	114,496
257,005	4,148	221,337	114,533
258,020	4,139	221,160	114,425
259,034	4,601	221,056	114,704
260,049	4,265	220,852	114,338
261,063	4,323	220,737	114,312
262,078	4,314	220,645	114,247
263,093	4,555	220,449	114,314
264,107	4,306	220,384	114,086
265,122	4,323	220,291	114,040
266,136	4,487	220,033	114,018
267,151	4,545	219,896	113,978
268,166	4,233	219,639	113,605
269,180	3,806	219,494	113,206
270,195	3,751	219,291	113,051
271,209	4,021	219,223	113,204
272,224	3,853	219,192	113,055
273,239	4,114	219,025	113,150
274,253	4,138	218,788	113,035
275,268	3,894	218,601	112,750
276,282	3,585	218,566	112,495
277,297	3,794	218,344	112,523
278,312	3,720	218,121	112,344
279,326	4,001	217,984	112,469
280,341	4,147	217,966	112,557
281,355	4,116	217,857	112,468
282,370	4,014	217,719	112,312
283,384	3,921	217,536	112,140
284,399	3,950	217,192	111,974
285,414	3,756	217,208	111,831
286,428	4,006	217,015	111,903
287,443	4,134	217,067	112,013
288,457	4,223	216,891	111,977
289,472	4,342	216,724	111,967
290,487	3,679	216,440	111,330
291,501	3,325	216,393	111,039
292,516	3,640	216,205	111,161
293,530	3,900	216,088	111,279
294,545	3,734	216,069	111,139
295,560	3,950	215,874	111,185
296,574	3,964	215,719	111,105
297,589	3,949	215,610	111,028
298,603	4,123	215,347	111,009
299,618	4,162	215,277	110,991
300,633	4,149	215,257	110,961
301,647	4,212	215,238	110,987
302,662	4,268	215,082	110,937
303,676	4,286	214,858	110,824
304,691	4,349	214,533	110,692
305,706	4,324	214,592	110,695
306,720	4,521	214,326	110,688
307,735	4,012	214,231	110,265
308,749	3,976	214,128	110,176
309,764	4,032	214,114	110,200
310,779	4,431	213,849	110,338
311,793	4,504	213,654	110,280
312,808	4,250	213,562	110,042
313,822	4,108	213,319	109,805
314,837	3,902	213,444	109,713
315,852	4,051	213,035	109,599
316,866	4,252	212,972	109,700
317,881	4,143	212,889	109,570
318,895	4,196	212,797	109,550
319,910	4,029	212,627	109,335
320,925	3,530	212,517	108,914
321,939	3,456	212,101	108,639
322,954	3,348	212,060	108,531
323,968	4,070	212,154	109,081
324,983	4,180	212,011	109,076
325,997	4,234	211,873	109,033
327,012	3,973	211,777	108,790
328,027	4,112	211,417	108,694
329,041	4,288	211,515	108,858
330,056	4,526	211,393	108,953
331,070	3,974	211,219	108,465
332,085	3,989	210,959	108,332
333,100	3,832	210,998	108,233
334,114	4,069	210,705	108,239
335,129	4,146	210,605	108,232
336,143	4,061	210,490	108,103
337,158	4,135	210,257	108,027
338,173	3,998	210,140	107,860
339,187	3,926	209,885	107,669
340,202	3,621	209,855	107,431
341,216	3,720	209,749	107,436
342,231	3,998	209,597	107,544
343,246	3,790	209,464	107,320
344,260	3,735	209,424	107,251
345,275	4,081	209,211	107,374
346,289	4,268	209,158	107,468
347,304	4,133	209,051	107,309
348,319	4,137	208,804	107,175
349,333	3,983	208,746	107,030
350,348	4,161	208,421	106,977
351,362	4,120	208,514	106,986
352,377	4,333	208,482	107,108
353,392	4,005	208,220	106,736
354,406	4,165	208,043	106,747
355,421	194,803	1344,894	1436,599
356,435	155,457	1483,514	1436,717
